t,dt_s,gyro_x,gyro_y,gyro_z,acc_x,acc_y,acc_z,rates.x,rates.y,rates.z,ratesTarget.x,ratesTarget.y,ratesTarget.z,attitude.x,attitude.y,attitude.z,attitudeTarget.x,attitudeTarget.y,attitudeTarget.z,thrustTarget,battery_v,rc_roll,rc_pitch,rc_yaw,rc_throttle,rc_mode,flight_mode,rc_age_s,armed,fault_mask,motor_rl,motor_rr,motor_fr,motor_fl,rate_i_x,rate_i_y,rate_i_z,mix_scale,control_source,accel_correction_confidence
2116.893,0.001009,-0.05078125,-0.1621094,0.03125,2.898438,-1.3125,5.445312,0.0078125,-0.01171875,-0.03125,-0.01367188,-0.01367188,0,0.002441406,0.002319336,-0.5130615,0,0,-0.513916,0.2263184,3.727,0,0,0,0.2000122,nan,2,0.16,1,0,0.2664795,0.1899719,0.2679138,0.1808777,-0.0009765625,-0.0009765625,0,1,2,0
2116.903,0.001009,-0.1308594,-0.1367188,-0.1015625,2.03125,-2.015625,9.164062,-0.0234375,-0.03125,-0.06640625,-0.01367188,-0.01367188,0,0.002441406,0.002197266,-0.5136719,0,0,-0.513916,0.2263184,3.727,0,0,0,0.2000122,nan,2,0.17,1,0,0.2248535,0.2408142,0.2004089,0.2391968,-0.0009765625,-0.0009765625,0,1,2,0.3492064
2116.913,0.001009,0.04296875,0.09960938,-0.1269531,-4.257812,0.1953125,14.9375,-0.005859375,-0.01171875,-0.07421875,-0.01367188,-0.01171875,0,0.002319336,0.002075195,-0.5145264,0,0,-0.513916,0.2263184,3.727,0,0,0,0.2000122,nan,2,0.18,1,0,0.1941528,0.2565308,0.1995544,0.2550354,-0.0009765625,-0.0009765625,0,1,2,0
2116.922,0.001011,0.02929688,0.1855469,-0.07421875,-7.5625,2.921875,16.66406,0.00390625,0.0078125,-0.06640625,-0.01367188,-0.01171875,0,0.002319336,0.002075195,-0.5151367,0,0,-0.513916,0.2263184,3.727,0,0,0,0.2000122,nan,2,0.189,1,0,0.208252,0.2343445,0.2233276,0.2393494,-0.0009765625,-0.0009765625,0,1,2,0
2116.932,0.00101,-0.04296875,0.2851562,-0.01953125,-5.648438,-3.4375,15.57812,-0.00390625,0.0546875,-0.0234375,-0.01367188,-0.01171875,0,0.002319336,0.002075195,-0.515625,0,0,-0.513916,0.2263184,3.727,0,0,0,0.2000122,nan,2,0.199,1,0,0.2585754,0.1589966,0.2935486,0.1941223,-0.0009765625,-0.0009765625,0,1,2,0
2116.942,0.00104,0.01171875,-0.08007812,-0.07421875,6.28125,-8.289062,6.820312,-0.009765625,0.0234375,0.00390625,-0.01367188,-0.01367188,0,0.002441406,0.002197266,-0.5157471,0,0,-0.513916,0.2263184,3.727,0,0,0,0.2000122,nan,2,0.008,1,0,0.2328186,0.208374,0.2409668,0.223114,-0.0009765625,-0.0009765625,0,1,2,0
2116.952,0.001008,-0.1640625,0.04882812,0.07226562,-2.976562,11.03906,11.03125,-0.01953125,0.00390625,0.0078125,-0.01367188,-0.01367188,0,0.002319336,0.002197266,-0.515625,0,0,-0.513916,0.2263184,3.727,0,0,0,0.2000122,nan,2,0.018,1,0,0.2391357,0.2073059,0.2398071,0.2190247,-0.0009765625,-0.0009765625,0,1,2,0
2116.962,0.001009,-0.07617188,-0.02929688,0.015625,-1.109375,-2.765625,8.257812,-0.04101562,-0.001953125,0.009765625,-0.01367188,-0.01367188,0,0.002197266,0.002197266,-0.515625,0,0,-0.513916,0.2263184,3.727,0,0,0,0.2000122,nan,2,0.028,1,0,0.241394,0.2096252,0.2299805,0.2242737,-0.0009765625,-0.0009765625,0,1,2,0
2116.972,0.001009,0.2929688,0.1230469,-0.03710938,-2.578125,-10.23438,12.26562,0.015625,0.0078125,-0.00390625,-0.01367188,-0.01171875,0,0.002197266,0.002075195,-0.515625,0,0,-0.513916,0.2263184,3.727,0,0,0,0.2000122,nan,2,0.038,1,0,0.2069092,0.236084,0.2322998,0.22995,-0.0009765625,-0.0009765625,0,1,2,0
2116.983,0.001008,-0.0234375,0.296875,0.06640625,-3.265625,3.53125,15.47656,0.0234375,0.05273438,0.02148438,-0.01367188,-0.01367188,0,0.002319336,0.002197266,-0.515625,0,0,-0.513916,0.2263184,3.727,0,0,0,0.2000122,nan,2,0.048,1,0,0.2481995,0.1723938,0.2942505,0.1903992,-0.0009765625,-0.0009765625,0,1,2,0
2116.993,0.001009,-0.2519531,-0.3359375,0.04296875,10.54688,4.125,4.039062,-0.02148438,-0.001953125,0.05859375,-0.01367188,-0.01367188,0,0.002197266,0.002197266,-0.5150146,0,0,-0.513916,0.2263184,3.727,0,0,0,0.2000122,nan,2,0.059,1,0,0.2638245,0.1911011,0.2504883,0.1998596,-0.0009765625,-0.0009765625,0,1,2,0
2117.003,0.001009,0.04101562,-0.1855469,-0.00390625,0.9453125,-5.859375,6.179688,-0.015625,-0.0546875,0.0078125,-0.01367188,-0.01171875,0,0.002197266,0.002075195,-0.5147705,0,0,-0.513916,0.2263184,3.727,0,0,0,0.2000122,nan,2,0.069,1,0,0.2084351,0.2725525,0.1766052,0.2476807,-0.0009765625,-0.0009765625,0,1,2,0
2117.013,0.001009,0.1054688,0.4414062,0.046875,-10.73438,-2.882812,15.58594,0.02734375,0.04296875,0.02539062,-0.01367188,-0.01171875,0,0.002197266,0.002075195,-0.5146484,0,0,-0.513916,0.2263184,3.727,0,0,0,0.2000122,nan,2,0.079,1,0,0.2219543,0.1996155,0.2721252,0.2115784,-0.0009765625,-0.0009765625,0,1,2,0
2117.022,0.001011,-0.046875,0.4550781,0.046875,-7.984375,-0.6328125,14.61719,0.001953125,0.06835938,0.01953125,-0.01367188,-0.01367188,0,0.002197266,0.002197266,-0.5144043,0,0,-0.513916,0.2263184,3.727,0,0,0,0.2000122,nan,2,0.088,1,0,0.213623,0.1976624,0.258606,0.2353516,-0.0009765625,-0.0009765625,0,1,2,0
2117.032,0.001009,-0.1191406,-0.2089844,0.03710938,9.773438,-0.640625,8.71875,-0.0234375,0.015625,0.04492188,-0.01367188,-0.01367188,0,0.002197266,0.002319336,-0.5141602,0,0,-0.513916,0.2263184,3.727,0,0,0,0.2000122,nan,2,0.098,1,0,0.2700806,0.1763916,0.2671204,0.1916809,-0.0009765625,-0.0009765625,0,1,2,0
2117.042,0.001009,0.03125,-0.1425781,-0.0078125,0.1796875,-1.859375,7.875,-0.001953125,-0.05078125,0.02539062,-0.01367188,-0.01367188,0,0.002197266,0.002197266,-0.5137939,0,0,-0.513916,0.2263184,3.727,0,0,0,0.2000122,nan,2,0.108,1,0,0.2264099,0.2514648,0.2033386,0.2240601,-0.0009765625,-0.0009765625,0,1,2,0
2117.052,0.001006,-0.001953125,0.3164062,0.1132812,-7.476562,0.0703125,10.85938,0.00390625,0.05273438,0.06445312,-0.01367188,-0.01367188,0,0.002197266,0.002319336,-0.5133057,0,0,-0.513916,0.2263184,3.727,0,0,0,0.2000122,nan,2,0.118,1,0,0.2621155,0.15802,0.2991943,0.1859436,-0.0009765625,-0.0009765625,0,1,2,0
2117.062,0.001014,0.01953125,-0.2089844,0.05859375,3.3125,-0.3828125,7.710938,-0.00390625,-0.0234375,0.09179688,-0.01367188,-0.01367188,0,0.002319336,0.002319336,-0.5124512,0,0,-0.513916,0.2263184,3.727,0,0,0,0.2000122,nan,2,0.128,1,0,0.2797852,0.1870117,0.266449,0.1720276,-0.0009765625,-0.0009765625,0,1,2,0
2117.072,0.001009,-0.015625,0.09570312,0.1875,-1.703125,-1.875,5.515625,-0.001953125,0.001953125,0.1230469,-0.01367188,-0.01367188,0,0.002197266,0.002319336,-0.5113525,0,0,-0.513916,0.2263184,3.727,0,0,0,0.2000122,nan,2,0.138,1,0,0.2889099,0.1602173,0.2949829,0.1611328,-0.0009765625,-0.0009765625,0,1,2,0
2117.083,0.001008,0.04101562,0.109375,0.07421875,0.65625,1.195312,11.95312,0,0.02148438,0.1289062,-0.01367188,-0.015625,0,0.002197266,0.002441406,-0.5101318,0,0,-0.513916,0.2263184,3.727,0,0,0,0.2000122,nan,2,0.148,1,0,0.2630005,0.1759033,0.2835693,0.1828003,-0.0009765625,-0.0009765625,0,1,2,0
2117.093,0.001007,0.015625,0.005859375,0.005859375,0.71875,-0.234375,11.05469,-0.00390625,0.02539062,0.0625,-0.01171875,-0.01367188,0,0.002075195,0.002441406,-0.5091553,0,0,-0.513916,0.2263184,3.727,0,0,0,0.2000122,nan,2,0.159,1,0,0.1617126,0.2743225,0.1821899,0.2870483,-0.0009765625,-0.0009765625,0,1,2,0
2117.103,0.001009,0.05078125,-0.109375,0.2597656,0.9375,1.085938,9.109375,0.0078125,-0.04101562,0.1289062,-0.01171875,-0.01367188,0,0.002075195,0.002319336,-0.5081787,0,0,-0.513916,0.2263184,3.727,0,0,0,0.2000122,nan,2,0.169,1,0,0.3414307,0.130249,0.3312988,0.1023254,-0.0009765625,-0.0009765625,0,1,2,0
2117.113,0.001072,0.009765625,0.1328125,0.08984375,-2.632812,-0.4453125,8.664062,0.001953125,0.02539062,0.1621094,-0.01171875,-0.01367188,0,0.002075195,0.002319336,-0.5067139,0,0,-0.513916,0.2263184,3.727,0,0,0,0.2000122,nan,2,0.179,1,0,0.2958984,0.1396484,0.3173218,0.1524048,-0.0009765625,-0.0009765625,0,1,2,0
2117.122,0.001011,0.05664062,-0.02539062,0.2011719,3.40625,7.007812,2.148438,0,0.01367188,0.1953125,-0.01171875,-0.015625,0,0.001953125,0.002441406,-0.5050049,0,0,-0.513916,0.2263184,3.727,0,0,0,0.2000122,nan,2,0.188,1,0,0.3071899,0.1377869,0.3234863,0.1368103,-0.0009765625,-0.0009765625,0,1,2,0
2117.132,0.0009860001,0.046875,0.0703125,0.0546875,-3.78125,-7.492188,17.69531,0.001953125,0.001953125,0.1582031,-0.01171875,-0.015625,0,0.001953125,0.002563477,-0.5031738,0,0,-0.513916,0.2263184,3.727,0,0,0,0.2000122,nan,2,0.198,1,0,0.2228699,0.2268982,0.2331238,0.2223511,-0.0009765625,-0.0009765625,0,1,2,0
2117.142,0.000992,-0.001953125,-0.2304688,0.203125,5.484375,8.515625,5.195312,-0.01757812,-0.02929688,0.1484375,-0.01171875,-0.015625,0,0.001953125,0.002563477,-0.501709,0,0,-0.513916,0.2263184,3.727,0,0,0,0.2000122,nan,2,0.003,1,0,0.2795715,0.188446,0.2619019,0.1753235,-0.0009765625,-0.0009765625,0,1,2,0
2117.153,0.001004,-0.02539062,0.0078125,0.1484375,6.703125,3.328125,2.890625,0.00390625,0.04492188,0.1972656,-0.01171875,-0.01757812,0,0.001831055,0.002929688,-0.4996338,0,0,-0.513916,0.2263184,3.727,0,0,0,0.2000122,nan,2,0.013,1,0,0.2636414,0.1747131,0.2841797,0.1827393,-0.0009765625,-0.0009765625,0,1,2,0
2117.162,0.000988,0.01953125,0.09960938,0.04101562,-7.992188,-8.695312,13.90625,-0.0078125,0.02929688,0.1015625,-0.01171875,-0.01953125,0,0.001831055,0.003295898,-0.498291,0,0,-0.513916,0.2263184,3.727,0,0,0,0.2000122,nan,2,0.023,1,0,0.1848145,0.2596436,0.190918,0.2698975,-0.0009765625,-0.0009765625,0,1,2,0
2117.172,0.001009,-0.07617188,-0.1054688,0.0859375,8.796875,10.90625,8.273438,0,0.02148438,0.09765625,-0.009765625,-0.02148438,0,0.001831055,0.003417969,-0.4973145,0,0,-0.513916,0.2263184,3.727,0,0,0,0.2000122,nan,2,0.033,1,0,0.2378845,0.20578,0.246582,0.2150269,-0.0009765625,-0.0009765625,0,1,2,0
2117.183,0.001009,-0.15625,0.4199219,0.125,-6.96875,-11.125,18.98438,-0.04296875,0.08789062,0.1171875,-0.009765625,-0.02148438,0,0.001708984,0.003417969,-0.4960938,0,0,-0.513916,0.2263184,3.727,0,0,0,0.2000122,nan,2,0.043,1,0,0.2385864,0.1599426,0.2728577,0.2338867,-0.0009765625,-0.0009765625,0,1,2,0
2117.193,0.001009,-0.1308594,-0.15625,0.140625,2.976562,10.21875,5.25,-0.0390625,0.01953125,0.1035156,-0.009765625,-0.02148438,0,0.001586914,0.003662109,-0.4949951,0,0,-0.513916,0.2263184,3.727,0,0,0,0.2000122,nan,2,0.053,1,0,0.2720032,0.1740417,0.2630005,0.196228,-0.0009765625,-0.0009765625,0,1,2,0
2117.203,0.001009,0.1933594,-0.1308594,0.2070312,1.867188,-8.5,5.585938,-0.01367188,0.0234375,0.15625,-0.009765625,-0.02148438,0,0.001586914,0.003662109,-0.4937744,0,0,-0.513916,0.2263184,3.727,0,0,0,0.2000122,nan,2,0.064,1,0,0.3318176,0.1126709,0.3439636,0.1167908,-0.0009765625,-0.0009765625,0,1,2,0
2117.213,0.001009,0.171875,-0.1523438,0.06640625,-1.117188,0.609375,9.921875,0.01367188,-0.046875,0.15625,-0.009765625,-0.02148438,0,0.001708984,0.003540039,-0.4920654,0,0,-0.513916,0.2263184,3.727,0,0,0,0.2000122,nan,2,0.074,1,0,0.2558899,0.2176514,0.2461243,0.1856079,-0.0009765625,-0.0009765625,0,1,2,0.2539683
2117.223,0.001009,0.06640625,0.1171875,0.2714844,1.078125,7.664062,16.29688,0.02539062,0.001953125,0.1953125,-0.009765625,-0.02148438,0,0.001708984,0.003540039,-0.4903564,0,0,-0.513916,0.2263184,3.727,0,0,0,0.2000122,nan,2,0.084,1,0,0.3235168,0.1213379,0.3489685,0.1114502,-0.0009765625,-0.0009765625,0,1,2,0
2117.232,0.001011,-0.009765625,0.1523438,0.1835938,-5.585938,5.546875,12,0.01953125,-0.01171875,0.234375,-0.009765625,-0.02148438,0,0.001708984,0.003540039,-0.4882812,0,0,-0.513916,0.2263184,3.727,0,0,0,0.2000122,nan,2,0.093,1,0,0.3132629,0.1367493,0.3330078,0.1222534,-0.0009765625,-0.0009765625,0,1,2,0
2117.242,0.001012,0.1015625,-0.09960938,0.2949219,-0.625,6.289062,17.22656,0.08789062,-0.09179688,0.21875,-0.01171875,-0.01953125,0,0.001831055,0.003417969,-0.486084,0,0,-0.513916,0.2263184,3.727,0,0,0,0.2000122,nan,2,0.103,1,0,0.2950134,0.1919861,0.3021851,0.1160583,-0.0009765625,-0.0009765625,0,1,2,0
2117.252,0.001014,-0.07617188,0.2753906,0.2578125,-2.296875,-4.335938,14.91406,-0.0859375,0.0859375,0.2363281,-0.009765625,-0.02148438,0,0.001708984,0.003417969,-0.4837646,0,0,-0.513916,0.2263184,3.727,0,0,0,0.2000122,nan,2,0.113,1,0,0.2935181,0.1101074,0.3140869,0.187561,-0.0009765625,-0.0009765625,0,1,2,0
2117.263,0.001,0.05859375,-0.4101562,0.1835938,5.359375,-3.382812,-5.585938,0.03710938,-0.08203125,0.1796875,-0.01171875,-0.01953125,0,0.001953125,0.003417969,-0.4818115,0,0,-0.513916,0.2263184,3.727,0,0,0,0.2000122,nan,2,0.123,1,0,0.2680664,0.2288818,0.2391052,0.16922,-0.0009765625,-0.0009765625,0,1,2,0
2117.272,0.001011,0.1855469,-0.1894531,0.09179688,-1.484375,1.210938,11.79688,-0.015625,-0.0625,0.1855469,-0.01171875,-0.01953125,0,0.001831055,0.003295898,-0.4797363,0,0,-0.513916,0.2263184,3.727,0,0,0,0.2000122,nan,2,0.133,1,0,0.2658691,0.2127991,0.2379456,0.1886292,-0.0009765625,-0.0009765625,0,1,2,0
2117.283,0.001009,0.1523438,0.3847656,0.1855469,-5.15625,-0.9296875,15.07812,0.02734375,0.046875,0.1523438,-0.009765625,-0.01953125,0,0.001831055,0.003295898,-0.4781494,0,0,-0.513916,0.2263184,3.727,0,0,0,0.2000122,nan,2,0.143,1,0,0.2224121,0.1996765,0.2802734,0.2028809,-0.0009765625,-0.0009765625,0,1,2,0
2117.293,0.000965,-0.1445312,0.2675781,0.2792969,-3.328125,6.1875,9.820312,-0.01367188,0.0546875,0.203125,-0.01171875,-0.01953125,0,0.001953125,0.003173828,-0.4763184,0,0,-0.513916,0.2263184,3.688,0,0,0,0.2000122,nan,2,0.008,1,0,0.3234558,0.08444214,0.3594666,0.1379089,-0.0009765625,-0.0009765625,0,1,2,0
2117.303,0.001009,-0.1992188,0.5019531,0.1152344,-3.976562,2.390625,19.29688,-0.02929688,0.05273438,0.1875,-0.01171875,-0.01953125,0,0.001831055,0.003173828,-0.4742432,0,0,-0.513916,0.2263184,3.688,0,0,0,0.2000122,nan,2,0.018,1,0,0.2333069,0.1748962,0.2631531,0.2339478,-0.0009765625,-0.0009765625,0,1,2,0
2117.312,0.001038,-0.03710938,0.1699219,0.2441406,-1.28125,7.46875,9.5,0.04101562,0,0.1679688,-0.01171875,-0.01953125,0,0.001953125,0.003173828,-0.4727783,0,0,-0.513916,0.2263184,3.688,0,0,0,0.2000122,nan,2,0.027,1,0,0.2664795,0.1798096,0.293396,0.1655884,-0.0009765625,-0.0009765625,0,1,2,0
2117.323,0.001011,-0.1582031,-0.4433594,0.1464844,8.296875,4.257812,3.171875,-0.009765625,-0.02734375,0.1308594,-0.01171875,-0.01953125,0,0.001953125,0.003173828,-0.4710693,0,0,-0.513916,0.2263184,3.688,0,0,0,0.2000122,nan,2,0.038,1,0,0.2416687,0.2253723,0.222229,0.2160034,-0.0009765625,-0.0009765625,0,1,2,0.5396826
2117.332,0.000999,-0.05664062,0.06054688,0.1582031,-4.90625,-7.976562,10.03125,-0.00390625,0.04492188,0.1542969,-0.01171875,-0.01953125,0,0.002075195,0.003295898,-0.4698486,0,0,-0.513916,0.2263184,3.688,0,0,0,0.2000122,nan,2,0.047,1,0,0.2973022,0.1324463,0.319458,0.1560364,-0.0009765625,-0.0009765625,0,1,2,0
2117.342,0.000982,0,-0.4199219,0.1132812,6.992188,3.554688,3.4375,-0.04296875,-0.06640625,0.1132812,-0.01171875,-0.01953125,0,0.001953125,0.003173828,-0.4685059,0,0,-0.513916,0.2305298,3.688,0,0,0,0.2050171,nan,2,0.007,1,0,0.2452087,0.2472534,0.1993713,0.2302856,-0.0009765625,-0.0009765625,0,1,2,0
2117.352,0.00103,0.1484375,-0.3613281,0.09765625,11.83594,-0.546875,0.71875,0.0234375,-0.04296875,0.09765625,-0.01171875,-0.01953125,0,0.001953125,0.003173828,-0.4675293,0,0,-0.513916,0.2305298,3.688,0,0,0,0.2050171,nan,2,0.017,1,0,0.2630615,0.2189026,0.2583923,0.1817322,-0.0009765625,-0.0009765625,0,1,2,0
2117.362,0.001065,-0.0625,0.3867188,0.04296875,-2.265625,2.851562,15.70312,-0.009765625,0.01367188,0.0703125,-0.01171875,-0.015625,0,0.002075195,0.002685547,-0.4665527,0,0,-0.513916,0.2305298,3.688,0,0,0,0.2050171,nan,2,0.027,1,0,0.1888428,0.2393799,0.2215881,0.2722778,-0.0009765625,-0.0009765625,0,1,2,0
2117.372,0.001005,-0.2070312,0.4042969,0.1230469,-11.1875,-5.710938,16.32031,-0.03515625,0.08203125,0.1191406,-0.01171875,-0.015625,0,0.001953125,0.002685547,-0.4655762,0,0,-0.513916,0.2305298,3.688,0,0,0,0.2050171,nan,2,0.037,1,0,0.2920532,0.1176453,0.3285828,0.1838074,-0.0009765625,-0.0009765625,0,1,2,0
2117.383,0.001009,-0.02539062,-0.4648438,0.00390625,10.29688,12.52344,0.875,-0.01953125,-0.05664062,0.05078125,-0.01171875,-0.015625,0,0.001953125,0.002685547,-0.4647217,0,0,-0.513916,0.2305298,3.688,0,0,0,0.2050171,nan,2,0.047,1,0,0.1845703,0.3019714,0.1542358,0.281311,-0.0009765625,-0.0009765625,-0.0009765625,1,2,0
2117.393,0.001009,0.2089844,-0.234375,0.09765625,2.460938,-12.75781,8.25,0.001953125,-0.015625,0.08203125,-0.01171875,-0.015625,0,0.001953125,0.002685547,-0.4641113,0,0,-0.513916,0.2305298,3.688,0,0,0,0.2050171,nan,2,0.058,1,0,0.2940063,0.1765747,0.2920837,0.1594238,-0.0009765625,-0.0009765625,-0.0009765625,1,2,0
2117.403,0.001009,0.005859375,0.03320312,0.05859375,-6.84375,-0.296875,10.84375,-0.01171875,-0.046875,0.05664062,-0.01171875,-0.015625,0,0.001953125,0.002685547,-0.4633789,0,0,-0.513916,0.2305298,3.688,0,0,0,0.2050171,nan,2,0.068,1,0,0.2320557,0.2476501,0.2132874,0.2290955,-0.0009765625,-0.0009765625,-0.0009765625,1,2,0
2117.412,0.001054,0.1074219,0.09375,0.1328125,-3.460938,-10.19531,10.32031,0.04882812,-0.02148438,0.06445312,-0.01171875,-0.015625,0,0.002075195,0.002685547,-0.4630127,0,0,-0.513916,0.2305298,3.688,0,0,0,0.2050171,nan,2,0.077,1,0,0.2727356,0.1922607,0.2911987,0.1659241,-0.0009765625,-0.001953125,-0.0009765625,1,2,0
2117.422,0.001011,-0.1230469,0.2148438,0.1015625,-6.890625,6.28125,11.39062,0.0078125,-0.00390625,0.1191406,-0.01171875,-0.015625,0,0.002075195,0.002685547,-0.4620361,0,0,-0.513916,0.2305298,3.688,0,0,0,0.2050171,nan,2,0.087,1,0,0.3137512,0.1410828,0.3252869,0.1419983,-0.0009765625,-0.001953125,-0.0009765625,1,2,0
2117.432,0.001017,-0.109375,-0.02734375,0.09570312,6.46875,2.8125,9.296875,-0.03125,0.046875,0.1035156,-0.01171875,-0.01757812,0,0.001953125,0.002807617,-0.4609375,0,0,-0.513916,0.2305298,3.688,0,0,0,0.2050171,nan,2,0.097,1,0,0.2532654,0.1823425,0.2677917,0.218689,-0.0009765625,-0.001953125,-0.0009765625,1,2,0
2117.442,0.001015,0.07617188,-0.01367188,0.1152344,-7.421875,-9.132812,9.4375,-0.0078125,0.01367188,0.1171875,-0.01171875,-0.015625,0,0.001953125,0.002807617,-0.4597168,0,0,-0.513916,0.2347412,3.688,0,0,0,0.210022,nan,2,0.009,1,0,0.2540588,0.2058105,0.2655029,0.2135925,-0.0009765625,-0.001953125,-0.0009765625,1,2,0
2117.452,0.001008,0.09570312,-0.2421875,0.2421875,7.203125,7.648438,5.25,0.009765625,-0.04296875,0.1777344,-0.01171875,-0.015625,0,0.001953125,0.002685547,-0.458252,0,0,-0.513916,0.2347412,3.688,0,0,0,0.210022,nan,2,0.019,1,0,0.3626404,0.1258545,0.3555603,0.09487915,-0.0009765625,-0.001953125,-0.0009765625,1,2,0
2117.463,0.001057,-0.1425781,-0.07226562,0.15625,6.890625,12.96875,9.375,-0.046875,0.0234375,0.2011719,-0.01171875,-0.01757812,0,0.001831055,0.002929688,-0.4562988,0,0,-0.513916,0.2347412,3.688,0,0,0,0.210022,nan,2,0.029,1,0,0.322937,0.1374512,0.3132629,0.1653137,-0.0009765625,-0.001953125,-0.0009765625,1,2,0
2117.472,0.000944,0.0078125,0.1113281,0.1796875,-1.648438,-6.03125,12.5625,-0.009765625,0.0078125,0.1894531,-0.01171875,-0.01757812,0,0.001831055,0.002929688,-0.4544678,0,0,-0.513916,0.2347412,3.688,0,0,0,0.210022,nan,2,0.039,1,0,0.276825,0.1816101,0.2892761,0.1912537,-0.0009765625,-0.001953125,-0.0009765625,1,2,0
2117.483,0.001006,0.1796875,-0.2519531,0.1445312,-4.09375,-4.726562,9.765625,0.04296875,-0.046875,0.1796875,-0.01171875,-0.01757812,0,0.001831055,0.003051758,-0.4523926,0,0,-0.513916,0.2347412,3.688,0,0,0,0.210022,nan,2,0.049,1,0,0.2494812,0.2466736,0.2558289,0.1869507,-0.0009765625,-0.001953125,-0.0009765625,1,2,0
2117.493,0.000983,0.21875,-0.2324219,0.2324219,5.1875,8.515625,10.67969,0.04492188,-0.07421875,0.1875,-0.01171875,-0.01757812,0,0.001953125,0.002929688,-0.4505615,0,0,-0.513916,0.2389526,3.688,0,0,0,0.2150269,nan,2,0.008,1,0,0.3122253,0.1982727,0.3096924,0.1355896,-0.0009765625,-0.001953125,-0.0009765625,1,2,0
2117.503,0.001009,0.08398438,0.125,0.3359375,1.554688,3.335938,12.79688,0.0234375,-0.01757812,0.2558594,-0.01171875,-0.01757812,0,0.002075195,0.002929688,-0.4482422,0,0,-0.513916,0.2389526,3.688,0,0,0,0.2150269,nan,2,0.018,1,0,0.3674622,0.1096802,0.3832092,0.09545898,-0.0009765625,-0.001953125,-0.0009765625,1,2,0
2117.513,0.001011,-0.02929688,0.02734375,0.2226562,-3.898438,-4.460938,6.835938,0.02929688,-0.00390625,0.1953125,-0.01171875,-0.01757812,0,0.002075195,0.002929688,-0.4462891,0,0,-0.513916,0.2389526,3.688,0,0,0,0.2150269,nan,2,0.028,1,0,0.2824097,0.1905823,0.3061218,0.1766663,-0.0009765625,-0.001953125,-0.0009765625,1,2,0
2117.522,0.001019,-0.02539062,0.07617188,0.1972656,2.609375,5.242188,9.53125,0.0234375,0.001953125,0.1953125,-0.01171875,-0.01757812,0,0.002075195,0.002929688,-0.444458,0,0,-0.513916,0.2389526,3.688,0,0,0,0.2150269,nan,2,0.037,1,0,0.2924805,0.1763916,0.3118896,0.1750488,-0.0009765625,-0.001953125,-0.0009765625,1,2,0
2117.532,0.000994,0.01953125,0.0234375,0.25,2.109375,-0.921875,7.242188,0.0234375,0.001953125,0.2167969,-0.01171875,-0.01953125,0,0.001831055,0.003173828,-0.442627,0,0,-0.513916,0.2431641,3.688,0,0,0,0.2199707,nan,2,0,1,0,0.3571472,0.1262817,0.380249,0.1089783,-0.0009765625,-0.001953125,-0.0009765625,1,2,0
2117.542,0.001046,-0.00390625,-0.0859375,0.08007812,-1.46875,-2.710938,8.078125,0.03320312,0.001953125,0.1464844,-0.01171875,-0.01757812,0,0.002075195,0.003051758,-0.4407959,0,0,-0.513916,0.2431641,3.688,0,0,0,0.2199707,nan,2,0.01,1,0,0.2140198,0.2640076,0.2359314,0.258667,-0.0009765625,-0.001953125,-0.0009765625,1,2,0
2117.552,0.001001,0.1425781,-0.1113281,0.0234375,-0.078125,0.078125,8.328125,-0.06054688,-0.08789062,0.1152344,-0.01171875,-0.01757812,0,0.002075195,0.002807617,-0.4393311,0,0,-0.513916,0.2431641,3.688,0,0,0,0.2199707,nan,2,0.02,1,0,0.2411499,0.2869873,0.1816711,0.2627869,-0.0009765625,-0.001953125,-0.0009765625,1,2,0
2117.562,0.001014,0.07617188,0.1582031,0.09375,-2.921875,7.664062,8.84375,0.04882812,0.0078125,0.07617188,-0.01367188,-0.01757812,0,0.002197266,0.002929688,-0.4383545,0,0,-0.513916,0.2431641,3.688,0,0,0,0.2199707,nan,2,0.03,1,0,0.2071228,0.2595825,0.2571411,0.2487793,-0.0009765625,-0.001953125,-0.0009765625,1,2,0
2117.572,0.001004,-0.1875,0.0390625,0.1464844,4.492188,-3.664062,10.4375,-0.01953125,-0.04492188,0.15625,-0.01367188,-0.015625,0,0.002075195,0.002563477,-0.4371338,0,0,-0.513916,0.2431641,3.688,0,0,0,0.2199707,nan,2,0.04,1,0,0.3542786,0.1391602,0.3368835,0.142334,-0.0009765625,-0.001953125,-0.0009765625,1,2,0
2117.583,0.001011,0.1640625,-0.0078125,0.09375,4.320312,-2.859375,8.429688,0.0390625,-0.05273438,0.1035156,-0.01367188,-0.015625,0,0.002197266,0.002441406,-0.435791,0,0,-0.513916,0.2431641,3.688,0,0,0,0.2199707,nan,2,0.05,1,0,0.2237244,0.2722473,0.2390442,0.2376404,-0.001953125,-0.001953125,-0.0009765625,1,2,0.04761905
2117.593,0.000981,0.08203125,0.04296875,0.05078125,-3.257812,1.75,7.507812,0.01953125,-0.01953125,0.09375,-0.01367188,-0.015625,0,0.002197266,0.002563477,-0.4348145,0,0,-0.513916,0.2557983,3.688,0,0,0,0.2349854,nan,2,0.006,1,0,0.2521362,0.2611694,0.2653503,0.2444763,-0.001953125,-0.001953125,-0.0009765625,1,2,0
2117.603,0.001009,-0.05078125,0.1953125,0.08984375,-5.101562,3.453125,21.41406,-0.04492188,-0.001953125,0.09765625,-0.01171875,-0.015625,0,0.002075195,0.002685547,-0.4338379,0,0,-0.513916,0.2557983,3.688,0,0,0,0.2349854,nan,2,0.016,1,0,0.2888794,0.2192993,0.2763062,0.2386475,-0.001953125,-0.001953125,-0.0009765625,1,2,0
2117.612,0.00105,-0.1679688,0.3027344,0.1523438,-3.523438,4.765625,12.28125,-0.01953125,0.08203125,0.1074219,-0.01367188,-0.015625,0,0.002075195,0.002685547,-0.4327393,0,0,-0.513916,0.2557983,3.688,0,0,0,0.2349854,nan,2,0.025,1,0,0.2710876,0.1940002,0.3092041,0.2488403,-0.001953125,-0.001953125,-0.0009765625,1,2,0
2117.622,0.001026,-0.05859375,-0.03125,0.09375,4.726562,-0.5625,5.242188,-0.08007812,0.015625,0.1132812,-0.01171875,-0.015625,0,0.002075195,0.002685547,-0.4316406,0,0,-0.513916,0.2557983,3.688,0,0,0,0.2349854,nan,2,0.035,1,0,0.2958374,0.2037964,0.2740173,0.2494812,-0.001953125,-0.001953125,-0.0009765625,1,2,0
2117.632,0.001015,0.1484375,-0.1523438,0.0703125,2.117188,-5.585938,10.01562,0.05078125,-0.01367188,0.1230469,-0.01367188,-0.015625,0,0.002197266,0.002685547,-0.4302979,0,0,-0.513916,0.2600098,3.688,0,0,0,0.2399902,nan,2,0,1,0,0.2752686,0.2472534,0.3023376,0.2151489,-0.001953125,-0.001953125,-0.0009765625,1,2,0
2117.642,0.00107,-0.0859375,-0.1738281,0.1699219,-3.351562,0.6171875,10.84375,-0.02148438,-0.05273438,0.1308594,-0.01171875,-0.01757812,0,0.002075195,0.002807617,-0.4290771,0,0,-0.513916,0.2600098,3.688,0,0,0,0.2399902,nan,2,0.01,1,0,0.3312073,0.219574,0.2937927,0.1954346,-0.001953125,-0.001953125,-0.0009765625,1,2,0
2117.652,0.001039,-0.04101562,0.4570312,0.2265625,-5.492188,8.953125,13.60938,-0.01953125,0.08398438,0.1542969,-0.01171875,-0.015625,0,0.002075195,0.002807617,-0.4277344,0,0,-0.513916,0.2600098,3.688,0,0,0,0.2399902,nan,2,0.02,1,0,0.326355,0.1400146,0.3736877,0.1999207,-0.001953125,-0.001953125,-0.0009765625,1,2,0
2117.662,0.001007,-0.08398438,-0.04492188,0.09960938,4.132812,0.0390625,3.320312,-0.02539062,0.1074219,0.1503906,-0.01171875,-0.01757812,0,0.002075195,0.003051758,-0.4261475,0,0,-0.513916,0.2600098,3.688,0,0,0,0.2399902,nan,2,0.03,1,0,0.2698669,0.1984253,0.3109741,0.2607422,-0.001953125,-0.001953125,-0.0009765625,1,2,0
2117.673,0.001044,0.1289062,0.1738281,0.09179688,-4.328125,1.414062,6.84375,0.009765625,0.00390625,0.1191406,-0.01171875,-0.01953125,0,0.002075195,0.003417969,-0.4248047,0,0,-0.513916,0.2600098,3.688,0,0,0,0.2399902,nan,2,0.04,1,0,0.2672729,0.2571716,0.2745056,0.2410278,-0.001953125,-0.001953125,-0.0009765625,1,2,0
2117.683,0.001001,-0.07617188,0.6699219,0.01171875,-6.5,1.289062,24.99219,0.03125,0.1328125,0.09375,-0.01367188,-0.02148438,0,0.002197266,0.003417969,-0.4234619,0,0,-0.513916,0.2600098,3.688,0,0,0,0.2399902,nan,2,0.05,1,0,0.1706543,0.2635803,0.2727356,0.3330078,-0.001953125,-0.001953125,-0.0009765625,1,2,0
2117.693,0.000964,-0.1210938,-0.4238281,0.203125,2.679688,-4.742188,4.828125,-0.03125,-0.0546875,0.1269531,-0.01367188,-0.01953125,0,0.002197266,0.003417969,-0.4226074,0,0,-0.513916,0.2684326,3.688,0,0,0,0.25,nan,2,0.008,1,0,0.3980103,0.1637573,0.3547363,0.157135,-0.001953125,-0.001953125,-0.0009765625,1,2,0
2117.703,0.001009,-0.009765625,-0.1328125,0.1542969,3.203125,2.828125,2.796875,-0.005859375,-0.0546875,0.1367188,-0.01367188,-0.02148438,0,0.002197266,0.003540039,-0.4211426,0,0,-0.513916,0.2684326,3.688,0,0,0,0.25,nan,2,0.018,1,0,0.3078003,0.2535706,0.2880249,0.2242737,-0.001953125,-0.001953125,-0.0009765625,1,2,0
2117.713,0.001009,0.09375,0.2167969,0.09960938,-4.140625,8.976562,15.91406,0.04101562,-0.00390625,0.09960938,-0.01171875,-0.02148438,0,0.002075195,0.003540039,-0.4200439,0,0,-0.513916,0.2684326,3.688,0,0,0,0.25,nan,2,0.028,1,0,0.2629089,0.264801,0.3016052,0.2443848,-0.001953125,-0.001953125,-0.0009765625,1,2,0
2117.723,0.001009,0.1308594,-0.06835938,0.1132812,-0.5859375,-2.03125,7.148438,0.04296875,0.08984375,0.1738281,-0.01171875,-0.02148438,0,0.002075195,0.00378418,-0.418457,0,0,-0.513916,0.2684326,3.688,0,0,0,0.25,nan,2,0.038,1,0,0.3209534,0.1735535,0.3927612,0.1864319,-0.001953125,-0.001953125,-0.0009765625,1,2,0
2117.732,0.001011,-0.02148438,-0.5449219,0.1171875,7.328125,-3.710938,1.304688,-0.01757812,-0.07226562,0.09570312,-0.01171875,-0.02148438,0,0.002075195,0.003662109,-0.4173584,0,0,-0.513916,0.2684326,3.688,0,0,0,0.25,nan,2,0.047,1,0,0.257019,0.3199768,0.2140808,0.2826233,-0.001953125,-0.001953125,-0.0009765625,1,2,0
2117.742,0.00097,0.0859375,-0.1367188,0.1855469,1.421875,3.945312,6.773438,0.01171875,-0.03515625,0.1347656,-0.01171875,-0.02148438,0,0.002075195,0.003662109,-0.4162598,0,0,-0.513916,0.2684326,3.688,0,0,0,0.25,nan,2,0.058,1,0,0.3571472,0.1957703,0.3541565,0.166626,-0.001953125,-0.001953125,-0.0009765625,1,2,0
2117.752,0.001009,-0.05664062,0.3535156,0.078125,-3.664062,5.414062,11.8125,-0.01757812,0.08203125,0.1484375,-0.01171875,-0.02148438,0,0.002075195,0.003662109,-0.4146729,0,0,-0.513916,0.2810669,3.688,0,0,0,0.2650146,nan,2,0,1,0,0.2916565,0.2186279,0.3382263,0.2756958,-0.001953125,-0.001953125,-0.0009765625,1,2,0
2117.762,0.001006,0.171875,-0.04882812,0.1953125,2.132812,-3.734375,10.75781,0.02734375,0.02148438,0.1933594,-0.01171875,-0.02148438,0,0.002075195,0.003662109,-0.4129639,0,0,-0.513916,0.2810669,3.688,0,0,0,0.2650146,nan,2,0.01,1,0,0.3722534,0.1707458,0.4100647,0.1711731,-0.001953125,-0.001953125,-0.0009765625,1,2,0
2117.772,0.001008,-0.05859375,0.3808594,0.02539062,-6.0625,2.898438,13.67969,-0.015625,-0.015625,0.1328125,-0.01367188,-0.02148438,0,0.002197266,0.003540039,-0.4111328,0,0,-0.513916,0.2810669,3.688,0,0,0,0.2650146,nan,2,0.02,1,0,0.2376709,0.3184204,0.2349854,0.3331299,-0.001953125,-0.001953125,-0.0009765625,1,2,0
2117.783,0.00102,0.09570312,0.1386719,0.1171875,-0.4765625,-4.039062,14.17188,0.02539062,0.0703125,0.1367188,-0.01367188,-0.02148438,0,0.002441406,0.003662109,-0.4099121,0,0,-0.513916,0.2810669,3.688,0,0,0,0.2650146,nan,2,0.03,1,0,0.2983093,0.22229,0.3529358,0.2506714,-0.001953125,-0.001953125,-0.0009765625,1,2,0
2117.793,0.001025,-0.2636719,-0.3144531,0.1035156,-3.632812,-4.109375,10.83594,-0.08007812,-0.09375,0.1152344,-0.01367188,-0.0234375,0,0.002197266,0.00378418,-0.4084473,0,0,-0.513916,0.2810669,3.688,0,0,0,0.2650146,nan,2,0.04,1,0,0.3296509,0.2806702,0.2445068,0.2693787,-0.001953125,-0.001953125,-0.0009765625,1,2,0
2117.803,0.001011,-0.1113281,0.02539062,0.1953125,-4.328125,1.34375,13.75,-0.02148438,0.03710938,0.1503906,-0.01367188,-0.0234375,0,0.002197266,0.00390625,-0.4074707,0,0,-0.513916,0.3020935,3.688,0,0,0,0.289978,nan,2,0,1,0,0.422821,0.1634827,0.4299011,0.1921997,-0.001953125,-0.001953125,-0.0009765625,1,2,0
2117.813,0.001028,0.04296875,-0.09179688,0.1542969,3.695312,1.101562,4.125,-0.02539062,-0.02734375,0.1367188,-0.01367188,-0.02148438,0,0.002319336,0.003662109,-0.4058838,0,0,-0.513916,0.3020935,3.688,0,0,0,0.289978,nan,2,0.01,1,0,0.3005981,0.3019714,0.2967529,0.3091125,-0.001953125,-0.001953125,-0.0009765625,1,2,0
2117.823,0.001009,-0.1152344,0.0625,0.2324219,-1.46875,5.960938,7.625,0.03320312,-0.02148438,0.1464844,-0.01367188,-0.02148438,0,0.002197266,0.003540039,-0.4046631,0,0,-0.513916,0.3020935,3.688,0,0,0,0.289978,nan,2,0.02,1,0,0.3916016,0.2046509,0.4193726,0.1928101,-0.001953125,-0.001953125,-0.0009765625,1,2,0.5555556
2117.832,0.001011,-0.02929688,0.2011719,0.0234375,-3.664062,-2.929688,15.17969,-0.02929688,0.015625,0.1484375,-0.01171875,-0.02148438,0,0.002075195,0.003662109,-0.4030762,0,0,-0.513916,0.3020935,3.688,0,0,0,0.289978,nan,2,0.029,1,0,0.2987061,0.2862244,0.3103027,0.3131714,-0.001953125,-0.001953125,-0.0009765625,1,2,0
2117.842,0.001015,0.2167969,0.265625,0.1074219,-3.34375,-1.007812,18.14062,0.04882812,0.03125,0.078125,-0.01171875,-0.02148438,0,0.002075195,0.003417969,-0.4020996,0,0,-0.513916,0.3020935,3.688,0,0,0,0.289978,nan,2,0.039,1,0,0.2542114,0.3188477,0.3199768,0.3153687,-0.001953125,-0.001953125,-0.0009765625,1,2,0
2117.852,0.001001,-0.1230469,-0.1894531,0.046875,-2.632812,-0.9375,15.38281,0.0078125,-0.078125,0.078125,-0.01367188,-0.02148438,0,0.002197266,0.003540039,-0.4013672,0,0,-0.513916,0.3105164,3.688,0,0,0,0.2999878,nan,2,0.001,1,0,0.3490601,0.3040466,0.3195801,0.2694092,-0.001953125,-0.001953125,-0.0009765625,1,2,0
2117.863,0.001048,0.15625,0.2988281,0.08398438,-5.296875,-3.09375,15.51562,0.03515625,0.07617188,0.07617188,-0.01171875,-0.01953125,0,0.001953125,0.003295898,-0.4006348,0,0,-0.513916,0.3105164,3.688,0,0,0,0.2999878,nan,2,0.011,1,0,0.3171692,0.2530823,0.4005737,0.2712708,-0.001953125,-0.001953125,-0.0009765625,1,2,0
2117.872,0.001008,0.03320312,-0.1035156,-0.03710938,-3.007812,-0.3515625,19.53906,0.015625,0.0234375,0.00390625,-0.01171875,-0.02148438,0,0.002075195,0.003540039,-0.4002686,0,0,-0.513916,0.3105164,3.688,0,0,0,0.2999878,nan,2,0.021,1,0,0.2288513,0.3852234,0.2451782,0.382843,-0.001953125,-0.001953125,-0.0009765625,1,2,0
2117.883,0.00102,-0.09375,0.07226562,-0.01171875,-1.078125,-1.515625,9.992188,0.0078125,-0.03515625,0.00390625,-0.01367188,-0.01953125,0,0.002197266,0.003417969,-0.4001465,0,0,-0.513916,0.3105164,3.688,0,0,0,0.2999878,nan,2,0.031,1,0,0.3027954,0.3255615,0.2986145,0.3151245,-0.001953125,-0.002929688,-0.0009765625,1,2,0.2222222
2117.893,0.001049,0.07226562,0.07226562,0.109375,1.320312,3.140625,8.484375,-0.001953125,-0.009765625,0.009765625,-0.01171875,-0.02148438,0,0.001953125,0.003540039,-0.4002686,0,0,-0.513916,0.3105164,3.688,0,0,0,0.2999878,nan,2,0.041,1,0,0.347229,0.269928,0.3630371,0.2619324,-0.001953125,-0.002929688,-0.0009765625,1,2,0
2117.903,0.001036,-0.1054688,-0.2050781,0.0078125,3.492188,3.46875,6.046875,0.01757812,0.0078125,0.02539062,-0.01171875,-0.02148438,0,0.002075195,0.003540039,-0.4000244,0,0,-0.513916,0.3189392,3.688,0,0,0,0.3099976,nan,2,0.002,1,0,0.3202515,0.3085327,0.3386536,0.3083496,-0.001953125,-0.002929688,-0.0009765625,1,2,0
2117.913,0.001004,0.06640625,-0.1230469,0.046875,7.054688,-2.164062,2.664062,-0.02734375,-0.02929688,0.0546875,-0.01171875,-0.01953125,0,0.001953125,0.003295898,-0.3995361,0,0,-0.513916,0.3189392,3.688,0,0,0,0.3099976,nan,2,0.012,1,0,0.3565369,0.2846375,0.3478699,0.2867432,-0.001953125,-0.002929688,-0.0009765625,1,2,0
2117.923,0.000964,-0.1132812,0.3925781,0.009765625,-5.6875,4.421875,14.58594,-0.04492188,0.1015625,0.02929688,-0.01367188,-0.01953125,0,0.002075195,0.003417969,-0.3990479,0,0,-0.513916,0.3189392,3.688,0,0,0,0.3099976,nan,2,0.022,1,0,0.2779846,0.3016357,0.3197632,0.3764038,-0.001953125,-0.002929688,-0.0009765625,1,2,0
2117.932,0.001014,0.1621094,-0.1054688,-0.001953125,3.546875,-5.25,10.79688,0.08007812,-0.07421875,0.01171875,-0.01367188,-0.01953125,0,0.002197266,0.003417969,-0.3988037,0,0,-0.513916,0.3189392,3.688,0,0,0,0.3099976,nan,2,0.031,1,0,0.2868347,0.3782959,0.3012085,0.3094482,-0.001953125,-0.002929688,-0.0009765625,1,2,0
2117.942,0.001009,-0.3984375,-0.08398438,0.0859375,-3.1875,1.476562,9.890625,-0.1054688,0.0234375,0.02734375,-0.01367188,-0.02148438,0,0.002441406,0.003540039,-0.3988037,0,0,-0.513916,0.3189392,3.593,0,0,0,0.3099976,nan,2,0.041,1,0,0.3920593,0.2353516,0.348877,0.29953,-0.001953125,-0.002929688,-0.0009765625,1,2,0
2117.952,0.001027,0.03710938,0.109375,0.03710938,-0.78125,8.328125,11.66406,0.0234375,-0.03320312,0.01171875,-0.015625,-0.01953125,0,0.002563477,0.003295898,-0.3986816,0,0,-0.513916,0.3189392,3.593,0,0,0,0.3099976,nan,2,0.051,1,0,0.3089294,0.3287659,0.3158875,0.3221741,-0.001953125,-0.002929688,-0.0009765625,1,2,0
2117.962,0.001021,0.06640625,-0.3984375,0.05273438,9.46875,1.835938,1.953125,-0.005859375,0.05664062,0.06054688,-0.01367188,-0.0234375,0,0.002319336,0.00390625,-0.3981934,0,0,-0.513916,0.3273621,3.593,0,0,0,0.3200073,nan,2,0.009,1,0,0.3661804,0.2756042,0.394928,0.2727356,-0.001953125,-0.002929688,-0.0009765625,1,2,0.4603175
2117.972,0.000971,-0.001953125,-0.2441406,0.109375,8.265625,-1.421875,0.875,-0.04296875,-0.02929688,0.07617188,-0.01367188,-0.02148438,0,0.002319336,0.003540039,-0.397583,0,0,-0.513916,0.3273621,3.593,0,0,0,0.3200073,nan,2,0.019,1,0,0.3944397,0.2692261,0.3667297,0.2790833,-0.001953125,-0.002929688,-0.0009765625,1,2,0
2117.983,0.001009,-0.2011719,-0.2597656,0.1621094,7.890625,5.78125,0.171875,-0.02734375,-0.005859375,0.1269531,-0.01367188,-0.0234375,0,0.002197266,0.00402832,-0.3964844,0,0,-0.513916,0.3273621,3.593,0,0,0,0.3200073,nan,2,0.029,1,0,0.4194641,0.2393494,0.4066467,0.2440186,-0.001953125,-0.002929688,-0.0009765625,1,2,0.4444444
2117.993,0.001013,-0.08789062,0.08789062,0.1914062,-1.53125,9.320312,9.960938,-0.0078125,0.00390625,0.1601562,-0.01171875,-0.0234375,0,0.002075195,0.00378418,-0.3950195,0,0,-0.513916,0.3273621,3.593,0,0,0,0.3200073,nan,2,0.039,1,0,0.3941345,0.2460022,0.4135132,0.2558289,-0.001953125,-0.002929688,-0.0009765625,1,2,0
2118.003,0.000982,-0.03515625,-0.1523438,0.1523438,3.015625,5.117188,3.507812,0.0078125,0.01171875,0.1503906,-0.01171875,-0.02148438,0,0.002075195,0.00378418,-0.3934326,0,0,-0.513916,0.3357849,3.593,0,0,0,0.3300171,nan,2,0.001,1,0,0.3609619,0.2998657,0.3822937,0.3000488,-0.001953125,-0.002929688,-0.0009765625,1,2,0
2118.013,0.001062,-0.05859375,-0.2753906,0.2011719,12.40625,3.648438,0.546875,0.02539062,-0.046875,0.1855469,-0.01367188,-0.02148438,0,0.002319336,0.003540039,-0.3917236,0,0,-0.513916,0.3357849,3.593,0,0,0,0.3300171,nan,2,0.011,1,0,0.4274597,0.2492981,0.4289246,0.2374573,-0.001953125,-0.002929688,-0.0009765625,1,2,0
2118.023,0.001009,-0.2890625,-0.1484375,0.1875,-0.3828125,11.82031,9.140625,-0.01757812,-0.00390625,0.1953125,-0.01171875,-0.02148438,0,0.002075195,0.00378418,-0.3897705,0,0,-0.513916,0.3357849,3.593,0,0,0,0.3300171,nan,2,0.021,1,0,0.4007568,0.2733154,0.3942871,0.2748108,-0.001953125,-0.002929688,-0.0009765625,1,2,0
2118.032,0.001005,0.1308594,-0.59375,0.1660156,10.14062,-0.9140625,-0.3203125,-0.009765625,-0.03320312,0.1816406,-0.01367188,-0.0234375,0,0.002197266,0.00378418,-0.3879395,0,0,-0.513916,0.3357849,3.593,0,0,0,0.3300171,nan,2,0.03,1,0,0.3869019,0.3105469,0.3629456,0.2827759,-0.001953125,-0.002929688,-0.0009765625,1,2,0.2063492
2118.042,0.001025,-0.1542969,-0.1035156,0.1621094,8.679688,8.304688,7.609375,0.005859375,0.01757812,0.171875,-0.01367188,-0.01953125,0,0.002441406,0.003295898,-0.3862305,0,0,-0.513916,0.3357849,3.593,0,0,0,0.3300171,nan,2,0.04,1,0,0.3744202,0.2704163,0.3968506,0.3014526,-0.001953125,-0.002929688,-0.0009765625,1,2,0
2118.052,0.00101,-0.1816406,0.1835938,0.1914062,-1.710938,9.351562,6.148438,-0.0546875,0.03320312,0.1796875,-0.01171875,-0.02148438,0,0.002075195,0.003540039,-0.3843994,0,0,-0.513916,0.3357849,3.593,0,0,0,0.3300171,nan,2,0.05,1,0,0.3829346,0.2694702,0.3902893,0.3004761,-0.001953125,-0.002929688,-0.0009765625,1,2,0
2118.063,0.001031,0.04492188,-0.2441406,0.2148438,5.429688,2.75,1.773438,0.01757812,-0.03125,0.1679688,-0.01171875,-0.02148438,0,0.001953125,0.003662109,-0.3826904,0,0,-0.513916,0.3357849,3.593,0,0,0,0.3300171,nan,2,0.061,1,0,0.3857422,0.2993774,0.3895264,0.2684937,-0.001953125,-0.002929688,-0.0009765625,1,2,0
2118.072,0.0009860001,0.07226562,0.08398438,0.1484375,-0.8671875,-10.22656,12.51562,-0.01171875,0.01757812,0.1210938,-0.01171875,-0.02148438,0,0.001953125,0.003540039,-0.3812256,0,0,-0.513916,0.3357849,3.593,0,0,0,0.3300171,nan,2,0.071,1,0,0.3279114,0.3225403,0.3502808,0.3424377,-0.001953125,-0.002929688,-0.0009765625,1,2,0
2118.083,0.000994,0.1074219,-0.05078125,0.1074219,1.492188,-6.414062,15.80469,-0.005859375,0.02929688,0.1523438,-0.009765625,-0.0234375,0,0.001586914,0.00390625,-0.3797607,0,0,-0.513916,0.3357849,3.593,0,0,0,0.3300171,nan,2,0.081,1,0,0.3639832,0.2956543,0.3882751,0.2952576,-0.001953125,-0.002929688,-0.0009765625,1,2,0
2118.093,0.0009869999,-0.234375,0.1523438,0.04492188,-2.710938,1.554688,12.09375,-0.05078125,0.06445312,0.078125,-0.009765625,-0.02148438,0,0.001708984,0.003662109,-0.3786621,0,0,-0.513916,0.3357849,3.593,0,0,0,0.3300171,nan,2,0.091,1,0,0.3013916,0.3279114,0.3172607,0.3965759,-0.001953125,-0.002929688,-0.0009765625,1,2,0
2118.103,0.001009,-0.1347656,-0.1894531,0.2285156,1.203125,3.179688,1.328125,0.03515625,-0.04296875,0.1621094,-0.01171875,-0.02148438,0,0.001953125,0.003662109,-0.3774414,0,0,-0.513916,0.3357849,3.593,0,0,0,0.3300171,nan,2,0.101,1,0,0.4721985,0.2160645,0.4683228,0.186554,-0.001953125,-0.002929688,-0.0009765625,1,2,0
2118.112,0.001031,0.078125,0.2460938,0.1230469,-0.7109375,-7.945312,17.25,-0.04882812,0.05273438,0.1660156,-0.01171875,-0.02148438,0,0.001831055,0.003540039,-0.3758545,0,0,-0.513916,0.3442078,3.593,0,0,0,0.3400269,nan,2,0.002,1,0,0.3792725,0.2688599,0.4047852,0.3239136,-0.001953125,-0.002929688,-0.0009765625,1,2,0
2118.122,0.001013,0.06835938,0.02929688,0.140625,0.6484375,1.84375,12.52344,0.0546875,-0.07226562,0.1601562,-0.01171875,-0.01953125,0,0.002075195,0.003417969,-0.3742676,0,0,-0.513916,0.3442078,3.593,0,0,0,0.3400269,nan,2,0.012,1,0,0.3804626,0.3249207,0.3900452,0.2814331,-0.001953125,-0.002929688,-0.0009765625,1,2,0
2118.132,0.000961,-0.05859375,-0.2167969,0.2539062,4.90625,5.429688,1.507812,0.001953125,0.005859375,0.203125,-0.01367188,-0.02148438,0,0.002197266,0.003540039,-0.3725586,0,0,-0.513916,0.3442078,3.593,0,0,0,0.3400269,nan,2,0.022,1,0,0.4644775,0.2251282,0.4700012,0.2172241,-0.001953125,-0.002929688,-0.0009765625,1,2,0
2118.143,0.001648,-0.07421875,-0.1796875,0.1777344,3.023438,8.34375,3.585938,-0.01953125,-0.01757812,0.2128906,-0.01367188,-0.01953125,0,0.002319336,0.003295898,-0.3702393,0,0,-0.513916,0.3484192,3.593,0,0,0,0.3449707,nan,2,0.006,1,128,0.4073181,0.2824097,0.4061279,0.297821,-0.001953125,-0.002929688,-0.0009765625,1,2,0.3174603
2118.153,0.001059,0.1953125,-0.02734375,0.1699219,-2.390625,-3.132812,13.9375,0.04296875,-0.05078125,0.1484375,-0.009765625,-0.01953125,0,0.001708984,0.003295898,-0.3686523,0,0,-0.513916,0.3484192,3.593,0,0,0,0.3449707,nan,2,0.016,1,128,0.3486328,0.3634338,0.3775024,0.3041382,-0.001953125,-0.002929688,-0.0009765625,1,2,0
2118.162,0.000991,-0.2578125,0.04882812,0.1621094,0.921875,-4.007812,15.05469,-0.07617188,0.04882812,0.1777344,-0.01367188,-0.01953125,0,0.002075195,0.003417969,-0.3669434,0,0,-0.513916,0.3526306,3.593,0,0,0,0.3499756,nan,2,0.003,1,128,0.4369507,0.242157,0.4204712,0.3109131,-0.001953125,-0.002929688,-0.001953125,1,2,0
2118.173,0.00103,-0.1035156,-0.2480469,0.1191406,5.359375,1.171875,1.671875,0.03125,-0.06640625,0.1582031,-0.01171875,-0.01953125,0,0.001953125,0.003295898,-0.3652344,0,0,-0.513916,0.3526306,3.593,0,0,0,0.3499756,nan,2,0.013,1,128,0.387085,0.3418274,0.3795776,0.3020325,-0.001953125,-0.002929688,-0.001953125,1,2,0
2118.182,0.000982,-0.09179688,0.1015625,0.1796875,-2.101562,7.609375,2.242188,-0.00390625,0.08007812,0.1640625,-0.01367188,-0.01953125,0,0.002197266,0.003295898,-0.3636475,0,0,-0.513916,0.3526306,3.593,0,0,0,0.3499756,nan,2,0.023,1,128,0.3947449,0.2679443,0.4291992,0.318634,-0.001953125,-0.002929688,-0.001953125,1,2,0
2118.193,0.001027,0.01367188,-0.05664062,0.140625,-4.671875,0.734375,13.20312,-0.1191406,-0.04492188,0.1484375,-0.005859375,-0.02148438,0,0.0009765625,0.003662109,-0.3619385,0,0,-0.513916,0.3526306,3.593,0,0,0,0.3499756,nan,2,0.033,1,128,0.3779297,0.3537903,0.3427734,0.3360596,-0.001953125,-0.002929688,-0.001953125,1,2,0
2118.203,0.000995,0.04296875,-0.1113281,0.109375,0.8359375,-4.140625,16.20312,0.1367188,-0.1308594,0.1074219,-0.01367188,-0.01757812,0,0.002319336,0.002929688,-0.3608398,0,0,-0.513916,0.356842,3.593,0,0,0,0.3549805,nan,2,0.001,1,128,0.3635254,0.3803101,0.3620911,0.3214722,-0.001953125,-0.002929688,-0.001953125,1,2,0
2118.213,0.000949,-0.2988281,-0.2402344,0.05859375,4.335938,-6.15625,13.61719,-0.1777344,0.06445312,0.1054688,-0.01171875,-0.01757812,0,0.002075195,0.002929688,-0.3596191,0,0,-0.513916,0.356842,3.593,0,0,0,0.3549805,nan,2,0.011,1,128,0.3886414,0.2940063,0.3447266,0.3999939,-0.001953125,-0.002929688,-0.001953125,1,2,0
2118.223,0.001008,0.0703125,-0.02148438,0.05859375,3.203125,1.5,7.898438,0.02929688,-0.03320312,0.07226562,-0.009765625,-0.01757812,0,0.001708984,0.002929688,-0.3588867,0,0,-0.513916,0.356842,3.593,0,0,0,0.3549805,nan,2,0.021,1,128,0.3531494,0.3696899,0.3693237,0.3352051,-0.001953125,-0.002929688,-0.001953125,1,2,0
2118.233,0.001009,-0.2753906,0.1835938,0.1035156,-2.539062,1.71875,8.335938,-0.0390625,0.02148438,0.109375,-0.01367188,-0.015625,0,0.002319336,0.002807617,-0.3579102,0,0,-0.513916,0.356842,3.593,0,0,0,0.3549805,nan,2,0.031,1,128,0.4122925,0.2719727,0.4109497,0.3321533,-0.001953125,-0.002929688,-0.001953125,1,2,0
2118.242,0.001,0.1894531,0.09570312,0.0390625,-2.9375,2.28125,15.25,-0.0078125,0.05859375,0.09765625,-0.009765625,-0.01953125,0,0.001708984,0.003173828,-0.3569336,0,0,-0.513916,0.356842,3.593,0,0,0,0.3549805,nan,2,0.04,1,128,0.3390198,0.3506775,0.3908081,0.3468933,-0.001953125,-0.002929688,-0.001953125,1,2,0
2118.252,0.001052,0.1015625,-0.1875,0.08789062,7.101562,-4.945312,-0.453125,0.04296875,-0.0859375,0.09960938,-0.009765625,-0.015625,0,0.001708984,0.002685547,-0.355957,0,0,-0.513916,0.3652649,3.593,0,0,0,0.3649902,nan,2,0.004,1,128,0.391449,0.3562927,0.4023743,0.3109131,-0.001953125,-0.002929688,-0.001953125,1,2,0
2118.262,0.001035,0.046875,-0.02148438,0.1035156,8.726562,-6.078125,1.554688,0.02929688,0.0234375,0.1035156,-0.01171875,-0.01367188,0,0.002075195,0.002319336,-0.3548584,0,0,-0.513916,0.3652649,3.593,0,0,0,0.3649902,nan,2,0.014,1,128,0.3816223,0.3164368,0.4228516,0.3401489,-0.001953125,-0.002929688,-0.001953125,1,2,0
2118.272,0.001005,-0.2070312,-0.09570312,0.0859375,4.640625,-1.953125,6.65625,-0.0546875,0.109375,0.08007812,-0.009765625,-0.02148438,0,0.001586914,0.003540039,-0.3540039,0,0,-0.513916,0.3652649,3.593,0,0,0,0.3649902,nan,2,0.024,1,128,0.363739,0.3366394,0.3866577,0.3740234,-0.001953125,-0.002929688,-0.001953125,1,2,0
2118.282,0.001013,0.1835938,-0.1015625,0.05859375,7.289062,-2.710938,3.570312,0.00390625,0.03320312,0.08789062,-0.005859375,-0.02148438,0,0.0009765625,0.003540039,-0.3531494,0,0,-0.513916,0.3652649,3.593,0,0,0,0.3649902,nan,2,0.034,1,128,0.3717346,0.3400574,0.4187012,0.3305664,-0.001953125,-0.002929688,-0.001953125,1,2,0
2118.293,0.000996,-0.09960938,-0.2324219,0.08398438,8.5625,0.8984375,4.742188,-0.03320312,0,0.0859375,-0.005859375,-0.0234375,0,0.001098633,0.00402832,-0.3521729,0,0,-0.513916,0.3652649,3.593,0,0,0,0.3649902,nan,2,0.044,1,128,0.4054565,0.3352356,0.3793335,0.3410034,-0.001953125,-0.002929688,-0.001953125,1,2,0.8571429
2118.303,0.001051,0.04101562,-0.1542969,0.125,7.070312,0.6171875,6.1875,0.06445312,-0.140625,0.1210938,-0.01171875,-0.01757812,0,0.001831055,0.003051758,-0.3510742,0,0,-0.513916,0.3652649,3.593,0,0,0,0.3649902,nan,2,0.002,1,128,0.4355469,0.330719,0.4111633,0.2836304,-0.001953125,-0.002929688,-0.001953125,1,2,0.2063492
2118.313,0.001021,-0.07226562,-0.03125,0.1425781,-3.09375,0.2578125,12.71875,0.01757812,-0.0625,0.140625,-0.01367188,-0.01367188,0,0.002441406,0.002319336,-0.3498535,0,0,-0.513916,0.3652649,3.593,0,0,0,0.3649902,nan,2,0.012,1,128,0.4384766,0.2868958,0.4369812,0.2987061,-0.001953125,-0.002929688,-0.001953125,1,2,0
2118.323,0.001009,-0.4746094,0.3496094,0.046875,-10.29688,-1.242188,20.38281,-0.1269531,0.1171875,0.09375,-0.015625,-0.01367188,0,0.002563477,0.002319336,-0.3486328,0,0,-0.513916,0.3652649,3.593,0,0,0,0.3649902,nan,2,0.022,1,128,0.3434143,0.3209229,0.3397522,0.4569397,-0.001953125,-0.002929688,-0.001953125,1,2,0
2118.333,0.001009,-0.2441406,0.3183594,0.1171875,-7.15625,-2.242188,13.98438,-0.1523438,0.1367188,0.109375,-0.0078125,-0.02148438,0,0.001342773,0.003540039,-0.3476562,0,0,-0.513916,0.3652649,3.593,0,0,0,0.3649902,nan,2,0.032,1,128,0.4207764,0.2694702,0.4304199,0.3403931,-0.001953125,-0.002929688,-0.001953125,1,2,0
2118.342,0.001016,0.3808594,-0.03710938,0.0859375,0.671875,-2.703125,9.679688,0.125,0.00390625,0.1132812,-0.0078125,-0.0234375,0,0.001342773,0.00378418,-0.3465576,0,0,-0.513916,0.3652649,3.593,0,0,0,0.3649902,nan,2,0.041,1,128,0.3544922,0.3815613,0.4194946,0.305481,-0.001953125,-0.00390625,-0.001953125,1,2,0.3968254
2118.352,0.001013,0.1425781,-0.15625,0.1191406,7.515625,1.148438,8.546875,0.05664062,-0.04882812,0.125,-0.01171875,-0.01953125,0,0.001953125,0.003295898,-0.3453369,0,0,-0.513916,0.3694763,3.593,0,0,0,0.3699951,nan,2,0.004,1,128,0.3987427,0.337616,0.4178467,0.3236694,-0.001953125,-0.00390625,-0.001953125,1,2,0
2118.362,0.001019,-0.04101562,-0.0078125,0.1171875,8.289062,2.078125,3.375,-0.04882812,0.01367188,0.1308594,-0.01171875,-0.01757812,0,0.001831055,0.003051758,-0.3438721,0,0,-0.513916,0.3694763,3.593,0,0,0,0.3699951,nan,2,0.014,1,128,0.3903198,0.320343,0.405304,0.3619385,-0.001953125,-0.002929688,-0.001953125,1,2,0
2118.372,0.001042,-0.015625,-0.3085938,0.1367188,1.296875,-0.875,14.86719,-0.01171875,-0.001953125,0.1367188,-0.01171875,-0.0234375,0,0.001831055,0.00390625,-0.3426514,0,0,-0.513916,0.3694763,3.593,0,0,0,0.3699951,nan,2,0.024,1,128,0.4312134,0.32901,0.4125061,0.3051758,-0.001953125,-0.00390625,-0.001953125,1,2,0
2118.382,0.001005,0.3261719,-0.2441406,0.1191406,7.953125,3.84375,9.171875,0.1289062,-0.08789062,0.1445312,-0.01367188,-0.01757812,0,0.002197266,0.002929688,-0.3410645,0,0,-0.513916,0.3694763,3.593,0,0,0,0.3699951,nan,2,0.034,1,128,0.368866,0.3809814,0.4182129,0.309845,-0.001953125,-0.00390625,-0.001953125,1,2,0
2118.393,0.001009,-0.1699219,0.02929688,0.1113281,8.40625,6.125,6.742188,-0.0859375,0.1210938,0.09375,-0.01171875,-0.01757812,0,0.001953125,0.003051758,-0.3399658,0,0,-0.513916,0.3694763,3.593,0,0,0,0.3699951,nan,2,0.044,1,128,0.3580627,0.315979,0.3962097,0.4076233,-0.001953125,-0.00390625,-0.001953125,1,2,0
2118.403,0.00101,-0.0703125,-0.2558594,0.09765625,-0.96875,-4.25,13.35938,-0.09960938,-0.015625,0.1132812,-0.005859375,-0.02734375,0,0.001098633,0.004516602,-0.3388672,0,0,-0.513916,0.3694763,3.593,0,0,0,0.3699951,nan,2,0.055,1,128,0.4423218,0.3442688,0.3794556,0.3118591,-0.001953125,-0.00390625,-0.001953125,1,2,0
2118.413,0.001009,0.1367188,0.1152344,0.06640625,-4.195312,-10.0625,19.25781,-0.001953125,-0.05664062,0.1054688,-0.00390625,-0.02148438,0,0.0006103516,0.003662109,-0.3377686,0,0,-0.513916,0.3694763,3.593,0,0,0,0.3699951,nan,2,0.065,1,128,0.3724365,0.3595581,0.40271,0.3432007,-0.001953125,-0.00390625,-0.001953125,1,2,0
2118.423,0.001008,0.0234375,-0.01757812,0.05273438,1.078125,-0.5546875,17.52344,0.05664062,0.001953125,0.109375,-0.0078125,-0.0234375,0,0.001464844,0.00378418,-0.3365479,0,0,-0.513916,0.3694763,3.593,0,0,0,0.3699951,nan,2,0.075,1,128,0.3649902,0.3645935,0.3822021,0.3661194,-0.001953125,-0.00390625,-0.001953125,1,2,0
2118.433,0.001009,-0.1699219,-0.2382812,0.07226562,9.3125,6.773438,20.39062,0.001953125,0.01367188,0.09570312,-0.009765625,-0.02148438,0,0.001464844,0.003540039,-0.3354492,0,0,-0.513916,0.3694763,3.593,0,0,0,0.3699951,nan,2,0.085,1,128,0.382019,0.3404541,0.3970642,0.3583679,-0.001953125,-0.00390625,-0.001953125,1,2,0
2118.442,0.001006,-0.1230469,-0.09765625,0.203125,3.8125,7.546875,9.085938,-0.009765625,0.0078125,0.1542969,-0.0078125,-0.02148438,0,0.001342773,0.00378418,-0.3343506,0,0,-0.513916,0.3694763,3.593,0,0,0,0.3699951,nan,2,0.094,1,128,0.4763794,0.2589111,0.4816895,0.2609253,-0.001953125,-0.00390625,-0.001953125,1,2,0
2118.452,0.000997,-0.2324219,-0.1640625,0.1503906,3.289062,5.53125,-2.078125,-0.04882812,-0.02734375,0.1445312,-0.0078125,-0.0234375,0,0.001342773,0.00390625,-0.3327637,0,0,-0.513916,0.3736877,3.593,0,0,0,0.375,nan,2,0.004,1,128,0.4203796,0.3364868,0.3929443,0.3449402,-0.001953125,-0.00390625,-0.001953125,1,2,0
2118.462,0.000962,0.1875,0.3339844,0.1640625,-9.382812,-4.085938,-13.58594,-0.005859375,0.08398438,0.1328125,-0.00390625,-0.0234375,0,0.0006103516,0.00402832,-0.3314209,0,0,-0.513916,0.3736877,3.593,0,0,0,0.375,nan,2,0.014,1,128,0.3751221,0.3247986,0.448822,0.3459778,-0.001953125,-0.00390625,-0.001953125,1,2,0
2118.472,0.001,0.1757812,0.00390625,0.1699219,3.976562,8.867188,3.640625,0.1425781,-0.06835938,0.1367188,-0.0078125,-0.02148438,0,0.001220703,0.003662109,-0.3302002,0,0,-0.513916,0.3736877,3.593,0,0,0,0.375,nan,2,0.024,1,128,0.4107056,0.341156,0.4675598,0.2752991,-0.001953125,-0.00390625,-0.001953125,1,2,0
2118.482,0.001009,-0.05078125,0.2675781,0.15625,-2.960938,-0.5703125,1.023438,-0.015625,0.04492188,0.1347656,-0.01171875,-0.01757812,0,0.001831055,0.003051758,-0.3287354,0,0,-0.513916,0.3736877,3.593,0,0,0,0.375,nan,2,0.034,1,128,0.3895569,0.3013306,0.4273376,0.3765259,-0.001953125,-0.00390625,-0.001953125,1,2,0
2118.493,0.000995,0.09179688,0.02539062,0.1191406,-4.320312,-6.367188,-17.47656,-0.01953125,-0.02539062,0.08984375,-0.009765625,-0.0234375,0,0.001586914,0.00378418,-0.3276367,0,0,-0.513916,0.3736877,3.593,0,0,0,0.375,nan,2,0.044,1,128,0.3803406,0.3902588,0.364563,0.3595886,-0.001953125,-0.00390625,-0.001953125,1,2,0
2118.503,0.001012,0.1308594,0.140625,0.1621094,4.117188,5.039062,11.36719,-0.04492188,-0.02148438,0.1132812,-0.005859375,-0.01757812,0,0.0008544922,0.002807617,-0.3266602,0,0,-0.513916,0.3778992,3.593,0,0,0,0.3800049,nan,2,0.003,1,128,0.4262695,0.3006592,0.4645996,0.3200684,-0.001953125,-0.00390625,-0.001953125,1,2,0
2118.513,0.000981,-0.04101562,-0.1679688,0.1054688,0.421875,10.32031,5.648438,0.05273438,0.05664062,0.1074219,-0.0078125,-0.0234375,0,0.001342773,0.00378418,-0.3255615,0,0,-0.513916,0.3778992,3.593,0,0,0,0.3800049,nan,2,0.013,1,128,0.3875427,0.3650513,0.4083862,0.3505859,-0.001953125,-0.00390625,-0.001953125,1,2,0
2118.523,0.001009,-0.09375,0.1269531,0.1347656,-7.601562,0.078125,-9.015625,0.00390625,-0.0625,0.1054688,-0.009765625,-0.01953125,0,0.001708984,0.003295898,-0.3244629,0,0,-0.513916,0.3778992,3.593,0,0,0,0.3800049,nan,2,0.023,1,128,0.4215088,0.3378906,0.4113159,0.3408813,-0.001953125,-0.00390625,-0.001953125,1,2,0
2118.532,0.001001,-0.1523438,-0.02734375,0.03515625,-2.890625,-2.09375,-4.304688,-0.03515625,0.01953125,0.08789062,-0.009765625,-0.015625,0,0.001586914,0.002807617,-0.3234863,0,0,-0.513916,0.3778992,3.593,0,0,0,0.3800049,nan,2,0.032,1,128,0.3641052,0.3618774,0.3776855,0.4078979,-0.001953125,-0.00390625,-0.001953125,1,2,0
2118.542,0.001031,0.08984375,-0.1191406,0.1035156,-3.320312,-6.601562,14.27344,-0.08203125,-0.03515625,0.1015625,-0.005859375,-0.01757812,0,0.0009765625,0.002929688,-0.3225098,0,0,-0.513916,0.3778992,3.593,0,0,0,0.3800049,nan,2,0.042,1,128,0.4274597,0.342041,0.4066772,0.3354187,-0.001953125,-0.00390625,-0.001953125,1,2,0
2118.552,0.001033,0.09179688,-0.0390625,0.1503906,-1.148438,-4.273438,16.86719,0.1152344,0.0625,0.1328125,-0.009765625,-0.02148438,0,0.001586914,0.003540039,-0.3212891,0,0,-0.513916,0.3821106,3.593,0,0,0,0.3850098,nan,2,0.002,1,128,0.411438,0.3332825,0.469635,0.3140564,-0.002929688,-0.00390625,-0.001953125,1,2,0
2118.562,0.00096,-0.1035156,-0.3164062,0.05664062,3.0625,1.601562,19.22656,-0.08007812,-0.1445312,0.09960938,-0.009765625,-0.01953125,0,0.001708984,0.003295898,-0.3200684,0,0,-0.513916,0.3821106,3.593,0,0,0,0.3850098,nan,2,0.012,1,128,0.4220276,0.3979797,0.3319702,0.3764343,-0.002929688,-0.00390625,-0.001953125,1,2,0
2118.572,0.001004,0.1367188,-0.4277344,0.05273438,0.4453125,-4.742188,5.507812,0.046875,-0.2050781,0.08398438,-0.01171875,-0.015625,0,0.001831055,0.002807617,-0.3190918,0,0,-0.513916,0.3821106,3.593,0,0,0,0.3850098,nan,2,0.022,1,128,0.4010925,0.4439087,0.3430176,0.3403931,-0.002929688,-0.00390625,-0.001953125,1,2,0
2118.582,0.00101,-0.06835938,-0.06835938,0.1445312,-7.09375,8.445312,12.78906,0.09765625,-0.09179688,0.1152344,-0.01953125,-0.01171875,0,0.003173828,0.002075195,-0.3179932,0,0,-0.513916,0.3821106,3.593,0,0,0,0.3850098,nan,2,0.032,1,128,0.4458618,0.3309937,0.4455566,0.3060303,-0.002929688,-0.00390625,-0.001953125,1,2,0
2118.593,0.000999,-0.06640625,0.1796875,0.1015625,-8.445312,7.328125,10.25,0.0234375,0.00390625,0.1210938,-0.02148438,-0.009765625,0,0.003540039,0.001464844,-0.3167725,0,0,-0.513916,0.3821106,3.518,0,0,0,0.3850098,nan,2,0.042,1,128,0.3977661,0.3344421,0.4315186,0.3646851,-0.002929688,-0.00390625,-0.001953125,1,2,0
2118.603,0.001056,-0.4023438,0.1972656,0.1367188,-4.164062,2.195312,14.55469,-0.3105469,0,0.1171875,-0.01367188,-0.0078125,0,0.002319336,0.001342773,-0.3155518,0,0,-0.513916,0.386322,3.518,0,0,0,0.3900146,nan,2,0.002,1,128,0.4635315,0.2915344,0.3819885,0.4082031,-0.002929688,-0.00390625,-0.001953125,1,2,0
2118.613,0.00107,0.02539062,0.4140625,0.1855469,-4.984375,5.726562,24.46875,0.05664062,0.2011719,0.1445312,-0.0078125,-0.015625,0,0.001220703,0.002807617,-0.3143311,0,0,-0.513916,0.386322,3.518,0,0,0,0.3900146,nan,2,0.012,1,128,0.4090576,0.2975159,0.5423889,0.2962952,-0.002929688,-0.00390625,-0.001953125,1,2,0
2118.623,0.001009,-0.0390625,0.0546875,0.1015625,-9.3125,5.476562,14.65625,0.09179688,-0.07226562,0.1386719,-0.01367188,-0.01757812,0,0.002319336,0.002807617,-0.3128662,0,0,-0.513916,0.386322,3.518,0,0,0,0.3900146,nan,2,0.022,1,128,0.4151001,0.3792419,0.4136353,0.3372803,-0.002929688,-0.00390625,-0.001953125,1,2,0
2118.632,0.000975,0.0234375,-0.04882812,0.125,-2.835938,2.46875,4.328125,0.009765625,-0.1269531,0.1328125,-0.015625,-0.009765625,0,0.002685547,0.001586914,-0.3115234,0,0,-0.513916,0.386322,3.518,0,0,0,0.3900146,nan,2,0.031,1,128,0.422821,0.3617554,0.40802,0.3526611,-0.002929688,-0.00390625,-0.001953125,1,2,0
2118.642,0.000998,-0.05664062,-0.1074219,0.1679688,-0.6640625,2.820312,-20.48438,-0.0859375,-0.0546875,0.1328125,-0.01171875,-0.005859375,0,0.001953125,0.0008544922,-0.3101807,0,0,-0.513916,0.386322,3.518,0,0,0,0.3900146,nan,2,0.041,1,128,0.4302979,0.3349915,0.4260559,0.3539429,-0.002929688,-0.00390625,-0.001953125,1,2,0
2118.652,0.001013,-0.203125,-0.1425781,0.1816406,3.210938,0.7734375,13.22656,-0.01757812,0.07421875,0.1425781,-0.009765625,-0.009765625,0,0.001708984,0.001586914,-0.3088379,0,0,-0.513916,0.386322,3.518,0,0,0,0.3900146,nan,2,0.052,1,128,0.4397583,0.3171997,0.4542542,0.3340759,-0.002929688,-0.00390625,-0.001953125,1,2,0
2118.662,0.000969,0.1894531,0.296875,0.1523438,-5.585938,-1.617188,9.429688,0.07226562,0.1113281,0.1289062,-0.009765625,-0.01171875,0,0.001586914,0.001953125,-0.3076172,0,0,-0.513916,0.3905334,3.518,0,0,0,0.3950195,nan,2,0.007,1,128,0.4030762,0.3302002,0.4952698,0.3335571,-0.002929688,-0.00390625,-0.001953125,1,2,0
2118.672,0.001011,-0.009765625,0.08203125,0.1425781,2.429688,7.351562,-1.367188,0.05273438,0.1269531,0.125,-0.01367188,-0.01953125,0,0.002197266,0.003417969,-0.3062744,0,0,-0.513916,0.3905334,3.518,0,0,0,0.3950195,nan,2,0.017,1,128,0.4017029,0.3540955,0.4418945,0.3644104,-0.002929688,-0.00390625,-0.001953125,1,2,0
2118.682,0.000947,-0.1855469,0.01171875,0.06835938,-4.710938,-6.273438,24.74219,-0.1484375,-0.04101562,0.1113281,-0.0078125,-0.02148438,0,0.001220703,0.00378418,-0.3051758,0,0,-0.513916,0.3905334,3.518,0,0,0,0.3950195,nan,2,0.027,1,128,0.4404907,0.3630676,0.3842468,0.3742981,-0.002929688,-0.00390625,-0.001953125,1,2,0
2118.693,0.001012,-0.02734375,-0.1113281,0.08007812,5.335938,-0.2109375,13.28906,0.0234375,-0.08789062,0.09570312,-0.00390625,-0.01757812,0,0.0007324219,0.002807617,-0.3040771,0,0,-0.513916,0.3905334,3.518,0,0,0,0.3950195,nan,2,0.037,1,128,0.3991089,0.3838806,0.4267578,0.352356,-0.002929688,-0.00390625,-0.001953125,1,2,0
2118.702,0.00077,-0.09765625,0.02929688,0.140625,3.695312,3.125,-1.921875,0,-0.0078125,0.1113281,-0.005859375,-0.01367188,0,0.0009765625,0.002197266,-0.3032227,0,0,-0.513916,0.3947449,3.518,0,0,0,0.4000244,nan,2,0.002,1,128,0.4403687,0.3269043,0.4596558,0.3520203,-0.002929688,-0.00390625,-0.001953125,1,2,0
2118.713,0.000962,0.28125,0.03515625,0.05273438,-4.671875,-12.40625,27.42969,0.1367188,-0.01953125,0.08984375,-0.0078125,-0.01171875,0,0.001464844,0.002075195,-0.302124,0,0,-0.513916,0.3947449,3.518,0,0,0,0.4000244,nan,2,0.013,1,128,0.3722839,0.410614,0.4339294,0.3621521,-0.002929688,-0.00390625,-0.001953125,1,2,0
2118.723,0.001009,-0.00390625,0.0859375,0.03320312,-0.359375,-6.523438,21.84375,0.06640625,0.0546875,0.05078125,-0.015625,-0.009765625,0,0.002563477,0.001586914,-0.3015137,0,0,-0.513916,0.3947449,3.518,0,0,0,0.4000244,nan,2,0.023,1,128,0.3575134,0.375,0.4190063,0.4274292,-0.002929688,-0.00390625,-0.001953125,1,2,0
2118.733,0.001009,-0.2460938,-0.05859375,0.05664062,6.890625,8.835938,30.42969,-0.1015625,0.08789062,0.0703125,-0.015625,-0.01367188,0,0.002441406,0.002441406,-0.3007812,0,0,-0.513916,0.3947449,3.518,0,0,0,0.4000244,nan,2,0.033,1,128,0.4312439,0.3353882,0.409729,0.4025879,-0.002929688,-0.00390625,-0.001953125,1,2,0
2118.742,0.001005,-0.09960938,-0.3457031,0.0390625,12.21875,-0.9921875,12.39062,-0.1191406,0.02734375,0.0546875,-0.0078125,-0.01953125,0,0.001342773,0.003295898,-0.3001709,0,0,-0.513916,0.3947449,3.518,0,0,0,0.4000244,nan,2,0.042,1,128,0.4112549,0.3916321,0.3864136,0.3896484,-0.002929688,-0.00390625,-0.001953125,1,2,0
2118.752,0.000964,0.1113281,-0.3964844,0.015625,2.25,-5.734375,6.96875,0.07617188,-0.1640625,0.04101562,-0.0078125,-0.015625,0,0.001342773,0.002685547,-0.2996826,0,0,-0.513916,0.4031677,3.518,0,0,0,0.4099731,nan,2,0.003,1,128,0.4069519,0.4588013,0.3925171,0.3543701,-0.002929688,-0.00390625,-0.001953125,1,2,0
2118.762,0.001059,0.3066406,-0.09960938,0.0390625,-5.429688,-8.109375,16.41406,0.1308594,-0.1679688,0.04882812,-0.01367188,-0.005859375,0,0.002319336,0.001098633,-0.2991943,0,0,-0.513916,0.4031677,3.518,0,0,0,0.4099731,nan,2,0.013,1,128,0.4035034,0.4247742,0.4252319,0.3591614,-0.002929688,-0.00390625,-0.001953125,1,2,0
2118.772,0.001012,-0.3027344,0.2871094,0.05859375,-5.984375,3.75,18.40625,-0.015625,0.1464844,0.05664062,-0.01953125,-0.005859375,0,0.003295898,0.001098633,-0.2987061,0,0,-0.513916,0.4031677,3.518,0,0,0,0.4099731,nan,2,0.023,1,128,0.4034729,0.3233948,0.4474487,0.438324,-0.002929688,-0.00390625,-0.001953125,1,2,0
2118.782,0.001008,-0.2460938,0.04101562,0.06445312,-5.789062,14.33594,14.03906,-0.1738281,0.06835938,0.05664062,-0.009765625,-0.01367188,0,0.001708984,0.002319336,-0.2982178,0,0,-0.513916,0.4031677,3.518,0,0,0,0.4099731,nan,2,0.033,1,128,0.4596252,0.3428955,0.4317932,0.3782959,-0.002929688,-0.00390625,-0.001953125,1,2,0
2118.793,0.001007,0.2832031,-0.07617188,0.09179688,6.179688,-8.539062,10.39844,0.06445312,-0.04492188,0.09179688,-0.0078125,-0.01171875,0,0.001342773,0.002075195,-0.2973633,0,0,-0.513916,0.4031677,3.518,0,0,0,0.4099731,nan,2,0.043,1,128,0.4203796,0.3933105,0.4690247,0.329895,-0.002929688,-0.00390625,-0.001953125,1,2,0
2118.803,0.001061,0.2578125,-0.1972656,0.06054688,10.02344,0.9453125,11.9375,0.15625,-0.06445312,0.06835938,-0.01367188,-0.009765625,0,0.002319336,0.001586914,-0.2966309,0,0,-0.513916,0.415802,3.518,0,0,0,0.4249878,nan,2,0.004,1,128,0.4002075,0.4404907,0.4450989,0.3773804,-0.002929688,-0.00390625,-0.001953125,1,2,0
2118.813,0.000968,0.1464844,-0.125,0.08789062,-4.304688,-0.375,-23.02344,0.1328125,-0.0546875,0.07617188,-0.0234375,-0.0078125,0,0.00378418,0.001464844,-0.2958984,0,0,-0.513916,0.415802,3.518,0,0,0,0.4249878,nan,2,0.014,1,128,0.4425659,0.4009094,0.4541931,0.365509,-0.002929688,-0.00390625,-0.001953125,1,2,0
2118.823,0.001009,-0.09179688,0.1835938,0.1425781,-5.53125,-1.28125,-9.65625,-0.109375,0.005859375,0.09570312,-0.01953125,-0.0078125,0,0.003295898,0.001220703,-0.2950439,0,0,-0.513916,0.415802,3.518,0,0,0,0.4249878,nan,2,0.024,1,128,0.4774475,0.3306885,0.4704285,0.3845825,-0.002929688,-0.00390625,-0.001953125,1,2,0
2118.833,0.001009,-0.03320312,0.1347656,0.06640625,0.9765625,3.382812,24.73438,-0.04296875,0.08398438,0.08984375,-0.01367188,-0.009765625,0,0.002319336,0.001464844,-0.2940674,0,0,-0.513916,0.415802,3.518,0,0,0,0.4249878,nan,2,0.034,1,128,0.4169312,0.3743591,0.4761963,0.3956604,-0.002929688,-0.00390625,-0.001953125,1,2,0
2118.842,0.001008,0.1953125,0.1386719,0.125,-1.046875,4.78125,5.867188,-0.0078125,0.02539062,0.09375,-0.01171875,-0.01171875,0,0.001831055,0.001831055,-0.293335,0,0,-0.513916,0.415802,3.518,0,0,0,0.4249878,nan,2,0.043,1,128,0.4510498,0.3694153,0.4900208,0.3526917,-0.002929688,-0.00390625,-0.001953125,1,2,0
2118.852,0.001001,0.046875,0.03515625,0.06445312,-0.2890625,-1.101562,1.554688,0.078125,0.03710938,0.09765625,-0.015625,-0.015625,0,0.002685547,0.002441406,-0.2923584,0,0,-0.513916,0.4242249,3.518,0,0,0,0.4349976,nan,2,0.004,1,128,0.4414062,0.3981934,0.4719849,0.3852539,-0.002929688,-0.00390625,-0.001953125,1,2,0
2118.862,0.001012,0.05273438,-0.08007812,0.08984375,5.507812,-5.234375,18.71875,0.0625,0.03515625,0.09375,-0.01953125,-0.01757812,0,0.003417969,0.002929688,-0.2913818,0,0,-0.513916,0.4242249,3.518,0,0,0,0.4349976,nan,2,0.014,1,128,0.432312,0.4044495,0.4593811,0.4006958,-0.002929688,-0.00390625,-0.001953125,1,2,0
2118.872,0.000993,-0.06054688,0.06640625,0.07226562,-3.179688,0.1171875,39.125,-0.0078125,0.0234375,0.08789062,-0.02148438,-0.01953125,0,0.003662109,0.003417969,-0.2905273,0,0,-0.513916,0.4242249,3.518,0,0,0,0.4349976,nan,2,0.024,1,128,0.4504089,0.3948669,0.4467163,0.4048462,-0.002929688,-0.00390625,-0.001953125,1,2,0
2118.883,0.001028,-0.1503906,0.07226562,0.1445312,6.65625,1,14.60938,-0.09179688,0.06445312,0.1054688,-0.01953125,-0.02539062,0,0.003173828,0.00402832,-0.2895508,0,0,-0.513916,0.4242249,3.518,0,0,0,0.4349976,nan,2,0.034,1,128,0.4779053,0.3500671,0.4794006,0.3894653,-0.002929688,-0.00390625,-0.001953125,1,2,0
2118.893,0.001023,0.01171875,0.0234375,0.0390625,3.84375,-5.835938,10.46875,-0.1328125,0.1503906,0.08398438,-0.009765625,-0.03320312,0,0.001586914,0.005371094,-0.2884521,0,0,-0.513916,0.4242249,3.518,0,0,0,0.4349976,nan,2,0.044,1,128,0.4096375,0.4002075,0.4423523,0.4446411,-0.002929688,-0.004882812,-0.001953125,1,2,0
2118.903,0.001034,0.1445312,-0.1796875,0.09570312,6.28125,-4.632812,3.226562,0.1113281,-0.01757812,0.09179688,-0.01171875,-0.03515625,0,0.001953125,0.005737305,-0.2875977,0,0,-0.513916,0.4242249,3.518,0,0,0,0.4349976,nan,2,0.001,1,128,0.4360352,0.4249573,0.4761963,0.3596497,-0.002929688,-0.004882812,-0.001953125,1,2,0
2118.913,0.001005,0.01757812,0.1269531,0.1230469,-5.125,2.179688,16.03125,0.08007812,0.05859375,0.109375,-0.01757812,-0.03710938,0,0.002929688,0.006103516,-0.2866211,0,0,-0.513916,0.4242249,3.518,0,0,0,0.4349976,nan,2,0.011,1,128,0.4523315,0.3653564,0.4981079,0.381012,-0.002929688,-0.004882812,-0.001953125,1,2,0
2118.923,0.001009,-0.1035156,0.4472656,0.06445312,-10.79688,6.25,15.57812,-0.0078125,0.1855469,0.08984375,-0.01953125,-0.04296875,0,0.003173828,0.007324219,-0.2856445,0,0,-0.513916,0.4242249,3.518,0,0,0,0.4349976,nan,2,0.021,1,128,0.4159546,0.3632507,0.4768372,0.4407959,-0.002929688,-0.004882812,-0.001953125,1,2,0
2118.933,0.001009,-0.1933594,0.1777344,0.1230469,4,2.382812,11.82031,-0.125,0.1953125,0.109375,-0.015625,-0.0546875,0,0.002563477,0.009033203,-0.284668,0,0,-0.513916,0.4242249,3.518,0,0,0,0.4349976,nan,2,0.031,1,128,0.4651794,0.3296509,0.4837646,0.4182434,-0.002929688,-0.004882812,-0.001953125,1,2,0
2118.942,0.001042,-0.2226562,0.1113281,0.125,-1.054688,6.695312,28.05469,-0.1777344,0.1523438,0.109375,-0.0078125,-0.0625,0,0.001220703,0.01062012,-0.2836914,0,0,-0.513916,0.4242249,3.518,0,0,0,0.4349976,nan,2,0.04,1,128,0.4650574,0.3521118,0.467804,0.4118652,-0.002929688,-0.004882812,-0.001953125,1,2,0
2118.952,0.000994,0.03710938,-0.09375,0.03710938,1.84375,-4.328125,29.96875,-0.07226562,-0.02929688,0.09375,0,-0.06640625,0,0,0.0111084,-0.2825928,0,0,-0.513916,0.4326172,3.518,0,0,0,0.4450073,nan,2,0.003,1,128,0.436554,0.4430847,0.4375916,0.4132996,-0.002929688,-0.005859375,-0.001953125,1,2,0
2118.962,0.001044,0.03710938,-0.2324219,0.1113281,9.796875,-3.171875,-8.601562,-0.03515625,-0.04882812,0.08789062,0.00390625,-0.06445312,0,-0.0006103516,0.01062012,-0.2816162,0,0,-0.513916,0.4326172,3.518,0,0,0,0.4450073,nan,2,0.013,1,128,0.4471436,0.4133606,0.4644165,0.4055786,-0.002929688,-0.005859375,-0.001953125,1,2,0
2118.972,0.000968,-0.07226562,0.02148438,0.1328125,-2.0625,0.6875,8.132812,-0.07617188,0.02148438,0.1015625,0.0078125,-0.06445312,0,-0.001220703,0.01074219,-0.2807617,0,0,-0.513916,0.4326172,3.518,0,0,0,0.4450073,nan,2,0.023,1,128,0.4771729,0.3634644,0.4910278,0.3988647,-0.002929688,-0.005859375,-0.001953125,1,2,0
2118.982,0.001068,-0.1621094,0.3261719,0.06054688,-8.234375,3.25,14.39844,-0.1113281,0.1328125,0.08984375,0.01367188,-0.0703125,0,-0.002319336,0.01159668,-0.2797852,0,0,-0.513916,0.4326172,3.518,0,0,0,0.4450073,nan,2,0.033,1,128,0.4313965,0.375824,0.4749451,0.4483643,-0.002929688,-0.005859375,-0.001953125,1,2,0
2118.993,0.001019,0.02539062,0.01757812,0.08984375,1.820312,-9.03125,9.742188,-0.07226562,0.06445312,0.09179688,0.01757812,-0.07617188,0,-0.003051758,0.01257324,-0.2788086,0,0,-0.513916,0.4326172,3.518,0,0,0,0.4450073,nan,2,0.043,1,128,0.4558105,0.3916626,0.4689026,0.4141846,-0.002929688,-0.005859375,-0.001953125,1,2,0
2119.003,0.00098,-0.06445312,-0.08398438,0.1230469,0.65625,8.898438,-5.40625,-0.08789062,-0.02148438,0.09570312,0.0234375,-0.07617188,0,-0.00402832,0.01281738,-0.2779541,0,0,-0.513916,0.4368286,3.518,0,0,0,0.4500122,nan,2,0.001,1,128,0.4787292,0.3946228,0.4718018,0.4022217,-0.001953125,-0.005859375,-0.001953125,1,2,0
2119.013,0.001032,-0.06835938,0.21875,0.0703125,-9.007812,2.140625,20.25,-0.02929688,0.04882812,0.08007812,0.02734375,-0.078125,0,-0.004516602,0.01293945,-0.2770996,0,0,-0.513916,0.4368286,3.518,0,0,0,0.4500122,nan,2,0.011,1,128,0.4292603,0.4042664,0.4761047,0.4377136,-0.001953125,-0.005859375,-0.001953125,1,2,0
2119.023,0.001009,0.1210938,0.2949219,0.05273438,0.34375,-1.976562,23.48438,0.08007812,0.1738281,0.08789062,0.02539062,-0.08398438,0,-0.004150391,0.01391602,-0.276123,0,0,-0.513916,0.4368286,3.518,0,0,0,0.4500122,nan,2,0.021,1,128,0.4086609,0.3875427,0.51651,0.4346619,-0.001953125,-0.005859375,-0.001953125,1,2,0
2119.033,0.001009,0.2011719,-0.04882812,0.1035156,12.53906,0.5,2.796875,0.125,0.1757812,0.08007812,0.01757812,-0.09570312,0,-0.003051758,0.01586914,-0.2753906,0,0,-0.513916,0.4368286,3.518,0,0,0,0.4500122,nan,2,0.031,1,128,0.420929,0.4118652,0.4902954,0.4242554,-0.001953125,-0.006835938,-0.001953125,1,2,0
2119.042,0.001,0.1835938,-0.015625,0.08203125,9.0625,-5.742188,7.6875,0.1367188,0.1757812,0.078125,0.01171875,-0.1074219,0,-0.001831055,0.01782227,-0.2746582,0,0,-0.513916,0.4368286,3.518,0,0,0,0.4500122,nan,2,0.04,1,128,0.4295349,0.4100342,0.488678,0.4190979,-0.002929688,-0.006835938,-0.001953125,1,2,0
2119.052,0.001005,0.2050781,0.1054688,0.08398438,0.140625,-2.53125,5.421875,0.1054688,0.1308594,0.08203125,0.00390625,-0.1171875,0,-0.0007324219,0.01965332,-0.2738037,0,0,-0.513916,0.4452515,3.518,0,0,0,0.460022,nan,2,0.003,1,128,0.4510193,0.410675,0.5003662,0.4190063,-0.002929688,-0.006835938,-0.001953125,1,2,0
2119.062,0.000962,-0.1582031,-0.001953125,0.1054688,-5.296875,8.859375,10.50781,0.005859375,0.02539062,0.07617188,0,-0.1230469,0,-0.0001220703,0.02050781,-0.2730713,0,0,-0.513916,0.4452515,3.518,0,0,0,0.460022,nan,2,0.013,1,128,0.4762268,0.4072266,0.4682007,0.4293823,-0.002929688,-0.006835938,-0.001953125,1,2,0
2119.072,0.001005,-0.01757812,0.1464844,0.02929688,-6.710938,-2.609375,18.76562,-0.02148438,-0.02734375,0.07421875,0.001953125,-0.1210938,0,-0.0002441406,0.02026367,-0.2722168,0,0,-0.513916,0.4452515,3.518,0,0,0,0.460022,nan,2,0.023,1,128,0.4509583,0.4129333,0.47229,0.4448547,-0.002929688,-0.0078125,-0.001953125,1,2,0
2119.082,0.000978,-0.02929688,-0.3125,0.1035156,13.30469,-3.195312,-1.984375,-0.05273438,-0.06835938,0.07421875,0.00390625,-0.1171875,0,-0.0004882812,0.01953125,-0.2714844,0,0,-0.513916,0.4452515,3.518,0,0,0,0.460022,nan,2,0.033,1,128,0.4663391,0.411438,0.4699097,0.4333496,-0.002929688,-0.0078125,-0.001953125,1,2,0
2119.093,0.001043,-0.1757812,0.2734375,0.05664062,-6.101562,6.234375,14.13281,-0.1015625,0.08789062,0.0703125,0.0078125,-0.1191406,0,-0.001342773,0.01977539,-0.270752,0,0,-0.513916,0.4452515,3.518,0,0,0,0.460022,nan,2,0.043,1,128,0.4389648,0.3823547,0.4898376,0.4698486,-0.002929688,-0.0078125,-0.001953125,1,2,0
2119.103,0.001013,0.06445312,-0.1210938,0.1054688,9.078125,-4.59375,6.578125,-0.05078125,0.03515625,0.08789062,0.01171875,-0.1210938,0,-0.002075195,0.0201416,-0.2698975,0,0,-0.513916,0.4578857,3.518,0,0,0,0.4749756,nan,2,0.001,1,128,0.4818726,0.4043579,0.5157471,0.4295654,-0.001953125,-0.0078125,-0.001953125,1,2,0
2119.113,0.000988,0.07617188,0.02929688,0.04492188,0.671875,-3.78125,3.375,0.02148438,0.05859375,0.07617188,0.01171875,-0.125,0,-0.002075195,0.02075195,-0.269043,0,0,-0.513916,0.4578857,3.518,0,0,0,0.4749756,nan,2,0.011,1,128,0.438385,0.4403687,0.495636,0.4572144,-0.001953125,-0.0078125,-0.002929688,1,2,0
2119.123,0.001009,-0.05859375,0.09179688,0.140625,-5.851562,8.765625,15.40625,0.03320312,0.03320312,0.09179688,0.01171875,-0.1289062,0,-0.001831055,0.0213623,-0.2681885,0,0,-0.513916,0.4578857,3.518,0,0,0,0.4749756,nan,2,0.021,1,128,0.4908447,0.396759,0.5299683,0.4140015,-0.001953125,-0.0078125,-0.002929688,1,2,0
2119.133,0.001009,0.1425781,0.01757812,0.04296875,-0.28125,-0.3125,5.570312,0.08007812,-0.0078125,0.07617188,0.005859375,-0.1289062,0,-0.001098633,0.0213623,-0.267334,0,0,-0.513916,0.4578857,3.518,0,0,0,0.4749756,nan,2,0.031,1,128,0.4419861,0.4464111,0.4907532,0.4523926,-0.002929688,-0.0078125,-0.002929688,1,2,0
2119.142,0.00101,0.1035156,0.01171875,0.05664062,1.351562,0.015625,-7.226562,0.07617188,-0.01367188,0.08007812,0.001953125,-0.1269531,0,-0.0003662109,0.02111816,-0.2666016,0,0,-0.513916,0.4578857,3.518,0,0,0,0.4749756,nan,2,0.04,1,128,0.4505615,0.4292297,0.5020142,0.4497681,-0.002929688,-0.008789062,-0.002929688,1,2,0
2119.152,0.000995,0.2089844,-0.1542969,0.1230469,6.695312,-7.039062,22.76562,0.1132812,-0.0390625,0.09570312,-0.00390625,-0.125,0,0.0004882812,0.02075195,-0.2657471,0,0,-0.513916,0.47052,3.518,0,0,0,0.4899902,nan,2,0.003,1,128,0.4974365,0.4215393,0.5501404,0.4129944,-0.002929688,-0.008789062,-0.002929688,1,2,0
2119.162,0.001007,-0.02148438,0.09765625,0.08007812,-9.328125,6.21875,2.726562,0.07421875,-0.009765625,0.09960938,-0.0078125,-0.1230469,0,0.001464844,0.02050781,-0.2647705,0,0,-0.513916,0.47052,3.518,0,0,0,0.4899902,nan,2,0.013,1,128,0.4784241,0.4273987,0.5245361,0.4517212,-0.002929688,-0.008789062,-0.002929688,1,2,0
2119.172,0.001012,0.1132812,-0.0703125,0.1328125,3.5625,1.367188,26.51562,0.07226562,-0.02929688,0.1035156,-0.01367188,-0.1230469,0,0.002197266,0.02038574,-0.2636719,0,0,-0.513916,0.47052,3.518,0,0,0,0.4899902,nan,2,0.023,1,128,0.4967651,0.4211426,0.5362549,0.427948,-0.002929688,-0.008789062,-0.002929688,1,2,0
2119.183,0.00103,0.08203125,-0.3691406,0.04882812,4.46875,-4.429688,-5.875,0.04296875,-0.1894531,0.0859375,-0.015625,-0.1152344,0,0.002685547,0.01928711,-0.2626953,0,0,-0.513916,0.47052,3.518,0,0,0,0.4899902,nan,2,0.033,1,128,0.4830017,0.483551,0.468689,0.4468689,-0.002929688,-0.008789062,-0.002929688,1,2,0
2119.193,0.000984,-0.1132812,-0.2363281,0.06054688,3.617188,7.882812,10.07031,-0.03515625,-0.2402344,0.08789062,-0.01757812,-0.1035156,0,0.002929688,0.01708984,-0.2618408,0,0,-0.513916,0.47052,3.518,0,0,0,0.4899902,nan,2,0.043,1,128,0.5078125,0.4449158,0.4796448,0.4497681,-0.002929688,-0.008789062,-0.002929688,1,2,0
2119.203,0.001056,0.01757812,-0.3496094,0.1347656,6.046875,-11.33594,14.50781,-0.06054688,-0.25,0.1015625,-0.01367188,-0.08789062,0,0.002319336,0.01464844,-0.2608643,0,0,-0.513916,0.4789429,3.518,0,0,0,0.5,nan,2,0,1,128,0.5318909,0.4380798,0.5177307,0.4280701,-0.002929688,-0.008789062,-0.002929688,1,2,0
2119.213,0.001068,-0.3105469,0.02929688,0.07421875,-9.375,12.6875,13.47656,-0.1542969,-0.1367188,0.1015625,-0.0078125,-0.07617188,0,0.001220703,0.01269531,-0.2598877,0,0,-0.513916,0.4789429,3.518,0,0,0,0.5,nan,2,0.01,1,128,0.513031,0.4147949,0.5080872,0.4799194,-0.002929688,-0.0078125,-0.002929688,1,2,0
2119.223,0.001009,-0.06054688,-0.1328125,0.1015625,7.4375,-6.828125,23.67969,-0.1542969,-0.0546875,0.09375,0.001953125,-0.0703125,0,-0.0003662109,0.01184082,-0.2587891,0,0,-0.513916,0.4789429,3.518,0,0,0,0.5,nan,2,0.02,1,128,0.4883728,0.4371338,0.5063171,0.4839478,-0.002929688,-0.0078125,-0.002929688,1,2,0
2119.233,0.001009,-0.1347656,-0.07617188,0.08203125,-2.101562,2.304688,-6.320312,-0.1328125,-0.0859375,0.08398438,0.01171875,-0.06640625,0,-0.001831055,0.01123047,-0.2580566,0,0,-0.513916,0.4789429,3.518,0,0,0,0.5,nan,2,0.03,1,128,0.5029297,0.4474792,0.5014954,0.4638672,-0.001953125,-0.0078125,-0.002929688,1,2,0
2119.242,0.001059,-0.1074219,-0.03320312,0.1269531,-4.585938,-1.601562,-28.0625,-0.1328125,-0.08398438,0.1015625,0.01953125,-0.0625,0,-0.003173828,0.01037598,-0.2570801,0,0,-0.513916,0.4789429,3.42,0,0,0,0.5,nan,2,0.039,1,128,0.5237427,0.421875,0.5260925,0.4440918,-0.001953125,-0.0078125,-0.002929688,1,2,0
2119.252,0.00101,-0.06445312,0.01953125,0.04101562,-2.492188,4.398438,38.98438,-0.07226562,-0.06640625,0.08007812,0.02539062,-0.05859375,0,-0.004150391,0.009643555,-0.2562256,0,0,-0.513916,0.4789429,3.42,0,0,0,0.5,nan,2,0.049,1,128,0.4724121,0.4645386,0.4954529,0.4833984,-0.001953125,-0.0078125,-0.002929688,1,2,0
2119.262,0.00101,0.0234375,-0.2773438,0.1289062,8.5,-3.703125,-4.5,-0.03710938,-0.08398438,0.08789062,0.02734375,-0.05273438,0,-0.004638672,0.008911133,-0.2553711,0,0,-0.513916,0.4789429,3.42,0,0,0,0.5,nan,2,0.06,1,128,0.5107727,0.4418335,0.5214844,0.4417114,-0.001953125,-0.0078125,-0.002929688,1,2,0
2119.272,0.000997,-0.02734375,0.2558594,0.05273438,-9.820312,1.140625,12.48438,-0.01953125,0.02148438,0.078125,0.02929688,-0.05078125,0,-0.005004883,0.008544922,-0.2545166,0,0,-0.513916,0.4873657,3.42,0,0,0,0.5100098,nan,2,0.008,1,128,0.4840393,0.4441833,0.534668,0.4866028,-0.001953125,-0.0078125,-0.002929688,1,2,0
2119.282,0.001024,0.01953125,-0.04882812,0.1074219,6.351562,0.9609375,17.55469,-0.01171875,0.07226562,0.09765625,0.03125,-0.0546875,0,-0.005126953,0.009033203,-0.25354,0,0,-0.513916,0.4873657,3.42,0,0,0,0.5100098,nan,2,0.018,1,128,0.5065002,0.4267273,0.5475464,0.468689,-0.001953125,-0.008789062,-0.002929688,1,2,0
2119.293,0.001009,-0.1445312,0.09375,0.08007812,-0.390625,9.140625,29.28125,-0.02929688,0.1113281,0.08203125,0.03125,-0.06054688,0,-0.005126953,0.01000977,-0.2526855,0,0,-0.513916,0.4873657,3.42,0,0,0,0.5100098,nan,2,0.028,1,128,0.4865723,0.4423828,0.5171509,0.5033569,-0.001953125,-0.008789062,-0.002929688,1,2,0
2119.303,0.000982,0.1621094,0.03320312,0.07617188,4.15625,-11.13281,8.929688,0.03515625,0.04101562,0.07617188,0.03125,-0.06445312,0,-0.005126953,0.01074219,-0.2518311,0,0,-0.513916,0.4873657,3.42,0,0,0,0.5100098,nan,2,0.001,1,128,0.4819641,0.473053,0.5214539,0.4730225,-0.001953125,-0.008789062,-0.002929688,1,2,0
2119.313,0.001009,-0.04101562,-0.009765625,0.1132812,-4.46875,10.48438,8.765625,0.04101562,-0.00390625,0.09765625,0.02929688,-0.06640625,0,-0.004882812,0.01098633,-0.2509766,0,0,-0.513916,0.4873657,3.42,0,0,0,0.5100098,nan,2,0.011,1,128,0.5229797,0.4370117,0.5470276,0.4424744,-0.001953125,-0.008789062,-0.002929688,1,2,0
2119.323,0.001009,0.2070312,0.02539062,0.06640625,6.6875,-6.640625,32.42969,0.1054688,0.06054688,0.0859375,0.0234375,-0.06835938,0,-0.00402832,0.01123047,-0.25,0,0,-0.513916,0.4873657,3.42,0,0,0,0.5100098,nan,2,0.021,1,128,0.4686584,0.4608154,0.5409241,0.4790955,-0.001953125,-0.008789062,-0.002929688,1,2,0
2119.333,0.001009,0.01757812,0.1035156,0.09570312,-4.335938,-0.7265625,-21.15625,0.078125,0.06640625,0.08398438,0.01757812,-0.07226562,0,-0.003051758,0.01196289,-0.2491455,0,0,-0.513916,0.4873657,3.42,0,0,0,0.5100098,nan,2,0.031,1,128,0.494751,0.4471741,0.5332947,0.4742432,-0.001953125,-0.008789062,-0.002929688,1,2,0
2119.343,0.001009,-0.03320312,-0.07226562,0.07421875,6.078125,5.28125,37.98438,0.0078125,0.03320312,0.08789062,0.015625,-0.07421875,0,-0.002685547,0.01245117,-0.248291,0,0,-0.513916,0.4873657,3.42,0,0,0,0.5100098,nan,2,0.041,1,128,0.5107422,0.4380798,0.5299988,0.4706421,-0.001953125,-0.008789062,-0.002929688,1,2,0
2119.352,0.001011,-0.03710938,-0.2363281,0.09179688,10.25781,5.335938,36.0625,-0.01953125,-0.01757812,0.08007812,0.015625,-0.07617188,0,-0.002563477,0.01269531,-0.2475586,0,0,-0.513916,0.4873657,3.42,0,0,0,0.5100098,nan,2,0.05,1,128,0.5039062,0.4627686,0.5001221,0.4826355,-0.001953125,-0.008789062,-0.002929688,1,2,0
2119.362,0.001009,-0.009765625,0.09960938,0.09765625,-4.84375,-0.53125,-13.65625,-0.005859375,0,0.08984375,0.015625,-0.07617188,0,-0.002685547,0.01269531,-0.2467041,0,0,-0.513916,0.4873657,3.42,0,0,0,0.5100098,nan,2,0.061,1,128,0.5055237,0.4407349,0.5353699,0.467865,-0.001953125,-0.008789062,-0.002929688,1,2,0
2119.372,0.001008,-0.09960938,0.03320312,0.04492188,-2.859375,-0.7734375,25.07812,-0.04882812,0.001953125,0.07421875,0.01757812,-0.07617188,0,-0.002929688,0.01257324,-0.2458496,0,0,-0.513916,0.4873657,3.42,0,0,0,0.5100098,nan,2,0.071,1,128,0.485321,0.4585266,0.5015259,0.5040894,-0.001953125,-0.009765625,-0.002929688,1,2,0
2119.382,0.001006,-0.0078125,-0.109375,0.1230469,6.125,4.304688,-1.054688,-0.01171875,-0.01171875,0.08789062,0.01953125,-0.07617188,0,-0.003173828,0.01257324,-0.2449951,0,0,-0.513916,0.4873657,3.42,0,0,0,0.5100098,nan,2,0.081,1,128,0.5201111,0.4319763,0.5476685,0.4497375,-0.001953125,-0.009765625,-0.002929688,1,2,0
2119.393,0.001,0.1152344,-0.0390625,0.09179688,10.67188,-1.976562,36.28906,0.02539062,0.015625,0.09375,0.01953125,-0.07617188,0,-0.003295898,0.01281738,-0.2441406,0,0,-0.513916,0.4873657,3.42,0,0,0,0.5100098,nan,2,0.091,1,128,0.5038147,0.4450073,0.5488892,0.4517517,-0.001953125,-0.009765625,-0.002929688,1,2,0
2119.403,0.000871,-0.03125,0.2285156,0.06054688,-10.14062,-5.648438,-26.85938,-0.001953125,0.05273438,0.06835938,0.01757812,-0.08007812,0,-0.003051758,0.01318359,-0.2432861,0,0,-0.513916,0.4915771,3.42,0,0,0,0.5150146,nan,2,0.003,1,128,0.4871521,0.4574585,0.5215454,0.5001526,-0.001953125,-0.009765625,-0.002929688,1,2,0
2119.413,0.00103,-0.0625,-0.2734375,0.08007812,12.59375,5.96875,36.73438,-0.02929688,-0.04296875,0.078125,0.01953125,-0.08007812,0,-0.003173828,0.01318359,-0.2425537,0,0,-0.513916,0.4915771,3.42,0,0,0,0.5150146,nan,2,0.013,1,128,0.5240479,0.4547729,0.5185242,0.4689636,-0.001953125,-0.009765625,-0.002929688,1,2,0
2119.423,0.001031,0.05664062,0.1289062,0.1015625,-8.828125,-6.492188,-21.48438,-0.005859375,-0.0390625,0.08789062,0.02148438,-0.07617188,0,-0.003417969,0.01281738,-0.2416992,0,0,-0.513916,0.4915771,3.42,0,0,0,0.5150146,nan,2,0.023,1,128,0.5191345,0.4401855,0.5513916,0.4555969,-0.001953125,-0.009765625,-0.002929688,1,2,0
2119.433,0.001009,-0.09179688,-0.203125,0.05078125,3.445312,4.773438,29.85938,-0.03320312,-0.0859375,0.0703125,0.02148438,-0.07226562,0,-0.003662109,0.01208496,-0.2409668,0,0,-0.513916,0.4915771,3.42,0,0,0,0.5150146,nan,2,0.033,1,128,0.5038452,0.4716492,0.502533,0.4882812,-0.001953125,-0.009765625,-0.002929688,1,2,0
2119.442,0.001021,0.02539062,-0.04492188,0.06640625,0.0078125,-13.27344,13.32031,-0.02148438,-0.06835938,0.07226562,0.0234375,-0.06835938,0,-0.00378418,0.01147461,-0.2403564,0,0,-0.513916,0.4915771,3.42,0,0,0,0.5150146,nan,2,0.042,1,128,0.5021667,0.4613037,0.5196228,0.4832458,-0.001953125,-0.009765625,-0.002929688,1,2,0
2119.452,0.000984,-0.078125,-0.1347656,0.1132812,2.359375,13.58594,0.984375,0,-0.06445312,0.08789062,0.0234375,-0.06445312,0,-0.00378418,0.01074219,-0.239502,0,0,-0.513916,0.4957886,3.42,0,0,0,0.5200195,nan,2,0,1,128,0.539856,0.4353638,0.5563049,0.4516602,-0.001953125,-0.009765625,-0.002929688,1,2,0
2119.462,0.001025,0.1328125,0.05664062,0.05664062,-0.484375,-9.6875,32.73438,0.02929688,-0.009765625,0.08398438,0.0234375,-0.0625,0,-0.00378418,0.01037598,-0.2386475,0,0,-0.513916,0.4957886,3.42,0,0,0,0.5200195,nan,2,0.01,1,128,0.4821167,0.4711609,0.5361328,0.4937439,-0.001953125,-0.009765625,-0.002929688,1,2,0
2119.472,0.001008,0.03125,-0.02539062,0.09375,0.8515625,5.921875,-7.5625,0.06054688,-0.009765625,0.07617188,0.01953125,-0.0625,0,-0.003173828,0.01037598,-0.237793,0,0,-0.513916,0.4957886,3.42,0,0,0,0.5200195,nan,2,0.02,1,128,0.5007935,0.4671326,0.5377197,0.4775085,-0.001953125,-0.009765625,-0.002929688,1,2,0
2119.482,0.001046,-0.05859375,-0.09765625,0.06054688,2.570312,-1.421875,31.53906,-0.01171875,-0.03320312,0.08203125,0.01757812,-0.06054688,0,-0.003051758,0.01025391,-0.2369385,0,0,-0.513916,0.4957886,3.42,0,0,0,0.5200195,nan,2,0.03,1,128,0.5227051,0.4512024,0.5290222,0.4801941,-0.001953125,-0.009765625,-0.002929688,1,2,0
2119.493,0.000992,0.06640625,0.04882812,0.125,-2.929688,-4.664062,-4.148438,-0.015625,-0.05859375,0.09179688,0.01953125,-0.05859375,0,-0.003295898,0.009643555,-0.236084,0,0,-0.513916,0.4957886,3.42,0,0,0,0.5200195,nan,2,0.04,1,128,0.5303345,0.4451904,0.5491333,0.4584961,-0.001953125,-0.009765625,-0.002929688,1,2,0
2119.503,0.001044,0.06640625,-0.05273438,0.1191406,2.390625,-8.59375,9.78125,0,-0.07617188,0.08984375,0.01953125,-0.0546875,0,-0.003295898,0.008911133,-0.2352295,0,0,-0.513916,0.4957886,3.42,0,0,0,0.5200195,nan,2,0.002,1,128,0.5227661,0.4565735,0.5382385,0.4655762,-0.001953125,-0.009765625,-0.002929688,1,2,0
2119.513,0.001026,-0.1386719,-0.07226562,0.046875,1.710938,11.13281,14.90625,-0.0234375,-0.0546875,0.08398438,0.02148438,-0.05078125,0,-0.003417969,0.008300781,-0.234375,0,0,-0.513916,0.4957886,3.42,0,0,0,0.5200195,nan,2,0.012,1,128,0.5085449,0.4614563,0.5218201,0.491333,-0.001953125,-0.009765625,-0.002929688,1,2,0
2119.523,0.00101,0.05664062,0.01171875,0.1210938,0.921875,-10.96875,17.42188,-0.00390625,-0.02929688,0.0859375,0.02148438,-0.046875,0,-0.003540039,0.00793457,-0.2335205,0,0,-0.513916,0.4957886,3.42,0,0,0,0.5200195,nan,2,0.022,1,128,0.51828,0.4464111,0.5471191,0.471344,-0.001953125,-0.009765625,-0.002929688,1,2,0
2119.533,0.001009,-0.01367188,0.03515625,0.05273438,-4.367188,3,-20.92969,-0.001953125,-0.02929688,0.08007812,0.02148438,-0.04492188,0,-0.003662109,0.007568359,-0.232666,0,0,-0.513916,0.4957886,3.42,0,0,0,0.5200195,nan,2,0.032,1,128,0.4958496,0.469696,0.5252686,0.4923401,-0.001953125,-0.009765625,-0.002929688,1,2,0
2119.543,0.001009,0.04296875,-0.2324219,0.09570312,8.195312,0.5,39.125,0.02539062,-0.07617188,0.08789062,0.01953125,-0.04296875,0,-0.003417969,0.007080078,-0.2318115,0,0,-0.513916,0.4957886,3.42,0,0,0,0.5200195,nan,2,0.042,1,128,0.5290222,0.4605713,0.5386047,0.4549561,-0.001953125,-0.009765625,-0.002929688,1,2,0
2119.552,0.001011,0.06835938,-0.1328125,0.09960938,3.976562,7.164062,34.16406,0.04101562,-0.09375,0.09179688,0.01953125,-0.0390625,0,-0.003051758,0.006347656,-0.230957,0,0,-0.513916,0.4957886,3.42,0,0,0,0.5200195,nan,2,0.051,1,128,0.5280457,0.4602356,0.5413513,0.4534912,-0.001953125,-0.009765625,-0.002929688,1,2,0
2119.562,0.001043,0.005859375,-0.046875,0.06640625,-0.2890625,-3.195312,-0.765625,0.04101562,-0.06054688,0.08984375,0.015625,-0.03320312,0,-0.002563477,0.005493164,-0.2301025,0,0,-0.513916,0.4957886,3.42,0,0,0,0.5200195,nan,2,0.062,1,128,0.5048523,0.4632874,0.5308838,0.4841309,-0.001953125,-0.009765625,-0.002929688,1,2,0
2119.572,0.000971,0.03710938,0.02929688,0.1054688,-2.789062,-1.171875,5.929688,0.04882812,-0.04882812,0.08203125,0.01367188,-0.02929688,0,-0.002197266,0.005004883,-0.229248,0,0,-0.513916,0.5,3.42,0,0,0,0.5250244,nan,2,0,1,128,0.5118408,0.4674988,0.5427856,0.4778442,-0.001953125,-0.009765625,-0.002929688,1,2,0
2119.582,0.000998,0.05273438,-0.046875,0.0390625,3.070312,2.820312,6.757812,0.03515625,-0.02148438,0.0859375,0.009765625,-0.02734375,0,-0.001831055,0.004638672,-0.2283936,0,0,-0.513916,0.5,3.42,0,0,0,0.5250244,nan,2,0.01,1,128,0.5058289,0.4698792,0.5362244,0.4880676,-0.001953125,-0.009765625,-0.002929688,1,2,0
2119.592,0.001009,0.02148438,0.04882812,0.140625,-2.523438,0.6640625,16.27344,0.04101562,0.009765625,0.08984375,0.0078125,-0.02734375,0,-0.001464844,0.004638672,-0.2275391,0,0,-0.513916,0.5,3.42,0,0,0,0.5250244,nan,2,0.02,1,128,0.5235291,0.4479675,0.5612793,0.4672241,-0.001953125,-0.009765625,-0.002929688,1,2,0
2119.603,0.001007,0.04492188,-0.05664062,0.109375,-0.1875,-4.085938,23.03906,0.06835938,-0.02734375,0.09179688,0.00390625,-0.02734375,0,-0.0007324219,0.004516602,-0.2265625,0,0,-0.513916,0.5,3.42,0,0,0,0.5250244,nan,2,0.03,1,128,0.5201416,0.4673767,0.5475464,0.4649048,-0.001953125,-0.009765625,-0.002929688,1,2,0
2119.613,0.001009,0.046875,0.0625,0.0859375,1.023438,-0.0703125,-35.74219,0.04492188,0.02734375,0.0859375,0.001953125,-0.02734375,0,-0.0002441406,0.004516602,-0.225708,0,0,-0.513916,0.5,3.42,0,0,0,0.5250244,nan,2,0.04,1,128,0.5007324,0.4608459,0.5480042,0.4904175,-0.001953125,-0.009765625,-0.002929688,1,2,0
2119.623,0.00095,-0.015625,0.1289062,0.08984375,-3.570312,-3.226562,36.625,0.01367188,0.07226562,0.1054688,0,-0.02929688,0,0.0001220703,0.005004883,-0.2247314,0,0,-0.513916,0.5,3.42,0,0,0,0.5250244,nan,2,0.05,1,128,0.5315247,0.4257507,0.5715637,0.4711609,-0.001953125,-0.009765625,-0.002929688,1,2,0
2119.633,0.001009,-0.04492188,0.1308594,0.1386719,2.484375,1.226562,-12.24219,-0.02734375,0.09765625,0.1035156,0.001953125,-0.03515625,0,-0.0001220703,0.005981445,-0.2236328,0,0,-0.513916,0.5,3.42,0,0,0,0.5250244,nan,2,0.061,1,128,0.5189514,0.4387817,0.5567322,0.4855652,-0.001953125,-0.009765625,-0.002929688,1,2,0
2119.643,0.001009,-0.01367188,0.01953125,0.0390625,0.046875,-3.234375,-2.328125,-0.009765625,0.08789062,0.08398438,0.001953125,-0.04296875,0,-0.0002441406,0.007080078,-0.2227783,0,0,-0.513916,0.5,3.42,0,0,0,0.5250244,nan,2,0.071,1,128,0.4887085,0.4801636,0.5236511,0.5074463,-0.001953125,-0.009765625,-0.002929688,1,2,0
2119.652,0.001011,-0.06640625,0.0234375,0.1191406,-3.609375,2.273438,13.67969,-0.005859375,0.05859375,0.09375,0.001953125,-0.046875,0,-0.0003662109,0.0078125,-0.2219238,0,0,-0.513916,0.5,3.42,0,0,0,0.5250244,nan,2,0.08,1,128,0.5216064,0.4566956,0.5471802,0.4744873,-0.001953125,-0.01074219,-0.002929688,1,2,0
2119.662,0.001008,0.15625,0.01367188,0.05664062,1.265625,-2.570312,1.351562,0.07226562,0.02734375,0.09570312,0,-0.04882812,0,0,0.008178711,-0.2209473,0,0,-0.513916,0.5,3.42,0,0,0,0.5250244,nan,2,0.09,1,128,0.5030518,0.4716187,0.5535583,0.4717712,-0.001953125,-0.01074219,-0.002929688,1,2,0
2119.672,0.001004,0.04296875,0.1386719,0.1171875,-4.953125,1.8125,27.75781,0.06054688,0.03125,0.1015625,-0.00390625,-0.05078125,0,0.0006103516,0.008300781,-0.2199707,0,0,-0.513916,0.5,3.42,0,0,0,0.5250244,nan,2,0.1,1,128,0.5164185,0.4474487,0.5662231,0.4699097,-0.001953125,-0.01074219,-0.002929688,1,2,0
2119.682,0.001006,0.015625,0.0078125,0.1132812,7.125,-7.015625,-37.82031,0.06835938,0.08203125,0.1035156,-0.0078125,-0.0546875,0,0.001464844,0.009033203,-0.2188721,0,0,-0.513916,0.5,3.42,0,0,0,0.5250244,nan,2,0.11,1,128,0.5097046,0.4445801,0.5649414,0.4807434,-0.001953125,-0.01074219,-0.002929688,1,2,0
2119.692,0.001009,-0.03710938,0.1757812,0.06640625,-7.335938,4.335938,32.39844,0.001953125,0.1210938,0.09570312,-0.009765625,-0.06054688,0,0.001708984,0.01013184,-0.2178955,0,0,-0.513916,0.5,3.42,0,0,0,0.5250244,nan,2,0.12,1,128,0.4963989,0.4531555,0.5408325,0.509613,-0.001953125,-0.01074219,-0.002929688,1,2,0
2119.703,0.001007,0.06640625,0.01171875,0.046875,3.148438,-4.539062,9.953125,0.0078125,0.1132812,0.08984375,-0.009765625,-0.06835938,0,0.001708984,0.01135254,-0.2169189,0,0,-0.513916,0.5,3.42,0,0,0,0.5250244,nan,2,0.13,1,128,0.4836426,0.4769592,0.5331116,0.5062866,-0.001953125,-0.01074219,-0.002929688,1,2,0
2119.713,0.001009,-0.04492188,0.1054688,0.1210938,-1,6.5,26.57031,-0.01171875,0.078125,0.1015625,-0.009765625,-0.07421875,0,0.001586914,0.01245117,-0.2159424,0,0,-0.513916,0.5,3.42,0,0,0,0.5250244,nan,2,0.14,1,128,0.5270691,0.4397583,0.5610046,0.4721985,-0.001953125,-0.01074219,-0.002929688,1,2,0
2119.723,0.001009,0.1308594,-0.1777344,0.1054688,3.3125,-7.75,-9.773438,0.08398438,-0.03710938,0.09570312,-0.01367188,-0.07617188,0,0.002075195,0.01257324,-0.2149658,0,0,-0.513916,0.5,3.42,0,0,0,0.5250244,nan,2,0.15,1,128,0.5119019,0.4839478,0.5480957,0.4560547,-0.001953125,-0.01074219,-0.002929688,1,2,0
2119.733,0.001009,0.03125,0.1289062,0.06445312,-6.351562,8.976562,11.41406,0.06835938,-0.02539062,0.08789062,-0.01757812,-0.07226562,0,0.002929688,0.01220703,-0.2139893,0,0,-0.513916,0.5,3.42,0,0,0,0.5250244,nan,2,0.161,1,128,0.4978943,0.4704285,0.540741,0.4909363,-0.001953125,-0.01074219,-0.002929688,1,2,0
2119.742,0.001041,0.06054688,0.0078125,0.1015625,-0.359375,-4.539062,-25.82812,0.04882812,-0.02929688,0.09960938,-0.02148438,-0.0703125,0,0.003540039,0.01171875,-0.2131348,0,0,-0.513916,0.5,3.42,0,0,0,0.5250244,nan,2,0.17,1,128,0.5159302,0.4502258,0.5561829,0.4776306,-0.001953125,-0.01074219,-0.002929688,1,2,0
2119.752,0.000985,-0.07226562,-0.01757812,0.08398438,-1.125,3.679688,14.70312,-0.01757812,0.02148438,0.1054688,-0.0234375,-0.0703125,0,0.00378418,0.01171875,-0.2120361,0,0,-0.513916,0.5,3.42,0,0,0,0.5250244,nan,2,0.003,1,128,0.5155334,0.4437561,0.5484314,0.4922791,-0.001953125,-0.01171875,-0.002929688,1,2,0
2119.762,0.000945,-0.009765625,0.01171875,0.1191406,3.25,-2.085938,24.29688,-0.05273438,0.02929688,0.09765625,-0.01953125,-0.07226562,0,0.003295898,0.01220703,-0.2110596,0,0,-0.513916,0.5,3.42,0,0,0,0.5250244,nan,2,0.013,1,128,0.5162354,0.450592,0.5461731,0.4869995,-0.001953125,-0.01171875,-0.002929688,1,2,0
2119.772,0.001033,-0.0703125,-0.04296875,0.09960938,-3.554688,-2.171875,-13.76562,-0.04882812,-0.06640625,0.09765625,-0.01757812,-0.0703125,0,0.002807617,0.01171875,-0.210083,0,0,-0.513916,0.5,3.42,0,0,0,0.5250244,nan,2,0.023,1,128,0.5291443,0.4615479,0.537384,0.4719238,-0.001953125,-0.01171875,-0.002929688,1,2,0
2119.782,0.001011,-0.0703125,-0.1269531,0.06445312,3.398438,7.492188,31.33594,-0.06445312,-0.0859375,0.09375,-0.01367188,-0.06640625,0,0.002197266,0.01098633,-0.2091064,0,0,-0.513916,0.5,3.42,0,0,0,0.5250244,nan,2,0.033,1,128,0.5186768,0.4667969,0.5270081,0.4875183,-0.001953125,-0.01171875,-0.002929688,1,2,0
2119.792,0.001007,-0.015625,-0.2382812,0.140625,-0.7265625,-6.59375,2.75,-0.01367188,-0.1542969,0.1035156,-0.01171875,-0.05859375,0,0.001953125,0.009765625,-0.2081299,0,0,-0.513916,0.5,3.42,0,0,0,0.5250244,nan,2,0.043,1,128,0.5444641,0.4615173,0.5506592,0.4433594,-0.001953125,-0.01171875,-0.002929688,1,2,0
2119.802,0.00101,0.046875,-0.2792969,0.1464844,7.78125,-11.42188,9.46875,-0.00390625,-0.1601562,0.1074219,-0.01171875,-0.04882812,0,0.001831055,0.008300781,-0.2070312,0,0,-0.513916,0.5,3.42,0,0,0,0.5250244,nan,2,0.054,1,128,0.5454102,0.452301,0.5544128,0.447876,-0.001953125,-0.01171875,-0.002929688,1,2,0
2119.813,0.001009,-0.1933594,0.1542969,0.08398438,-9.164062,4.039062,1.828125,-0.09179688,-0.03515625,0.09960938,-0.0078125,-0.04492188,0,0.001342773,0.007324219,-0.2060547,0,0,-0.513916,0.5,3.42,0,0,0,0.5250244,nan,2,0.064,1,128,0.5120239,0.4398804,0.536377,0.5117188,-0.001953125,-0.01171875,-0.002929688,1,2,0
2119.823,0.001009,0.0703125,-0.2675781,0.08203125,9.3125,-2.421875,26.3125,-0.0234375,-0.1113281,0.09765625,-0.00390625,-0.0390625,0,0.0008544922,0.006591797,-0.2050781,0,0,-0.513916,0.5,3.42,0,0,0,0.5250244,nan,2,0.074,1,128,0.5227966,0.4798584,0.5332947,0.4640503,-0.001953125,-0.01074219,-0.002929688,1,2,0
2119.833,0.001009,-0.1328125,0.03320312,0.1074219,-7.476562,4.523438,8.4375,-0.04296875,-0.07226562,0.09765625,-0.001953125,-0.03515625,0,0.0004882812,0.005737305,-0.2041016,0,0,-0.513916,0.5,3.42,0,0,0,0.5250244,nan,2,0.084,1,128,0.5253296,0.4508667,0.5447083,0.4790955,-0.001953125,-0.01074219,-0.002929688,1,2,0
2119.842,0.000995,0.00390625,-0.04296875,0.046875,-1.039062,2.445312,39.04688,-0.001953125,-0.0859375,0.09179688,-0.001953125,-0.02929688,0,0.0002441406,0.004882812,-0.2032471,0,0,-0.513916,0.5,3.42,0,0,0,0.5250244,nan,2,0.093,1,128,0.5068359,0.4754944,0.5339355,0.4837341,-0.001953125,-0.01074219,-0.002929688,1,2,0
2119.852,0.0009869999,0.001953125,-0.1621094,0.1640625,2.84375,-0.546875,-10.53125,0.01171875,-0.08789062,0.1074219,-0.001953125,-0.0234375,0,0.0004882812,0.00402832,-0.2021484,0,0,-0.513916,0.5084229,3.42,0,0,0,0.5349731,nan,2,0.003,1,128,0.5531921,0.4522095,0.5710144,0.4572449,-0.001953125,-0.01074219,-0.002929688,1,2,0
2119.862,0.001009,-0.01757812,0.06054688,0.05664062,-1.398438,1.945312,25.53125,-0.005859375,-0.005859375,0.08398438,-0.001953125,-0.02148438,0,0.0004882812,0.003540039,-0.2012939,0,0,-0.513916,0.5084229,3.42,0,0,0,0.5349731,nan,2,0.013,1,128,0.5025024,0.4752197,0.541748,0.5142212,-0.001953125,-0.01074219,-0.002929688,1,2,0
2119.872,0.001016,0.04492188,0.00390625,0.1113281,-0.1171875,-1.59375,2.851562,-0.0078125,-0.02929688,0.1015625,-0.001953125,-0.01953125,0,0.0003662109,0.003417969,-0.2003174,0,0,-0.513916,0.5084229,3.42,0,0,0,0.5349731,nan,2,0.023,1,128,0.54245,0.4560852,0.5646667,0.470459,-0.001953125,-0.01074219,-0.002929688,1,2,0
2119.882,0.000997,-0.08398438,-0.1601562,0.08203125,0.421875,2.476562,29.82812,-0.03710938,-0.08789062,0.09570312,-0.001953125,-0.01757812,0,0.0002441406,0.002807617,-0.1992188,0,0,-0.513916,0.5084229,3.42,0,0,0,0.5349731,nan,2,0.033,1,128,0.5336914,0.4820862,0.5261841,0.4917297,-0.001953125,-0.01074219,-0.002929688,1,2,0
2119.893,0.001007,0.015625,-0.07421875,0.1464844,2.742188,2.382812,-35.60156,0.015625,-0.06445312,0.1015625,0,-0.01171875,0,0.0001220703,0.001953125,-0.1983643,0,0,-0.513916,0,3.377,0,0,0,0,nan,2,0,1,192,0.1000061,0.1000061,0.1000061,0.1000061,0,0,0,1,2,0
2119.903,0.00101,-0.02539062,-0.04492188,0.1367188,4.25,0.7890625,-1.101562,-0.001953125,-0.04296875,0.1113281,0,-0.01171875,0,0.0002441406,0.001464844,-0.1972656,0,0,-0.513916,0,3.377,0,0,0,0,nan,2,0.01,1,192,0.1000061,0.1000061,0.1000061,0.1000061,0,0,0,1,2,0
2119.913,0.001056,0.078125,0.1015625,0.1699219,-4.203125,-1.484375,-16.00781,0.03515625,0.02929688,0.1445312,0,-0.01171875,0,0.0003662109,0.001342773,-0.1960449,0,0,-0.513916,0,3.377,0,0,0,0,nan,2,0.02,1,192,0.1000061,0.1000061,0.1000061,0.1000061,0,0,0,1,2,0
2119.923,0.000972,0.08789062,0.07617188,0.1328125,1.257812,-7.390625,27.71094,0.0703125,0.05273438,0.1660156,0,-0.01171875,0,0.0009765625,0.001831055,-0.194458,0,0,-0.194458,0.001190186,3.377,0,0,0,0,nan,4,0.03,1,192,0.1000061,0.1000061,0.1000061,0.1000061,0,0,0,1,6,0
2119.933,0.001002,-0.04882812,-0.1464844,0.1835938,8.117188,2.015625,15.26562,0.02539062,0.009765625,0.1953125,0,-0.01171875,0,0.001342773,0.002075195,-0.192627,0,0,-0.192627,0.002868652,3.377,0,0,0,0,nan,4,0.04,1,192,0.1000061,0.1000061,0.1000061,0.1000061,0,0,0,1,6,0
2119.943,0.001008,-0.08203125,-0.2636719,0.2011719,7.140625,5.304688,18.23438,0.0078125,-0.04492188,0.2089844,0,-0.01171875,0,0.001586914,0.002197266,-0.1905518,0,0,-0.1905518,0.004547119,3.377,0,0,0,0.5650024,nan,4,0.005,1,192,0.1000061,0.1000061,0.1000061,0.1000061,0,0,0,1,6,0
2119.952,0.001013,0.0625,-0.0078125,0.2539062,4.5,-0.6640625,17.97656,0.01367188,0.001953125,0.2363281,0,-0.01171875,0,0.001708984,0.002075195,-0.1884766,0,0,-0.1884766,0.00604248,3.377,0,0,0,0.5650024,nan,4,0.014,1,192,0.1000061,0.1000061,0.1000061,0.1000061,0,0,0,1,6,0
2119.962,0.001013,0.1035156,0.2578125,0.28125,-2.84375,-2.578125,12.77344,0.01171875,0.03515625,0.2539062,0,-0.01171875,0,0.001586914,0.001831055,-0.1860352,0,0,-0.1860352,0.007751465,3.377,0,0,0,0.5650024,nan,4,0.024,1,192,0.1000061,0.1000061,0.1000061,0.1000061,0,0,0,1,6,0
2119.972,0.001015,0.03320312,0.2695312,0.2734375,-13.08594,0.984375,12.35938,-0.02148438,-0.015625,0.2636719,0,-0.01171875,0,0.001464844,0.001586914,-0.1833496,0,0,-0.1833496,0.009429932,3.377,0,0,0,0.5650024,nan,4,0.034,1,192,0.1000061,0.1000061,0.1000061,0.1000061,0,0,0,1,6,0
2119.982,0.000992,-0.06054688,-0.375,0.2597656,3.046875,1.429688,2.679688,-0.03710938,-0.1289062,0.2773438,0,-0.01171875,0,0.001220703,0.001098633,-0.1806641,0,0,-0.1806641,0.0111084,3.377,0,0,0,0.5650024,nan,4,0.044,1,192,0.1000061,0.1000061,0.1000061,0.1000061,0,0,0,1,6,0
2119.993,0.001033,-0.09375,-0.1796875,0.3300781,7.351562,2.09375,0.96875,-0.03125,-0.04882812,0.2988281,0,-0.01171875,0,0.0009765625,0.0003662109,-0.1777344,0,0,-0.1777344,0.01278687,3.377,0,0,0,0.5650024,nan,4,0.055,1,192,0.1000061,0.1000061,0.1000061,0.1000061,0,0,0,1,6,0
2120.003,0.001012,-0.06054688,0.2714844,0.3417969,-4.304688,-1.328125,11.625,-0.015625,0.02734375,0.3066406,0,-0.01171875,0,0.0007324219,-0.0002441406,-0.1746826,0,0,-0.1746826,0.01449585,3.377,0,0,0,0.5650024,nan,4,0.065,1,192,0.1000061,0.1000061,0.1000061,0.1000061,0,0,0,1,6,0
2120.013,0.001016,0.03320312,-0.4726562,0.3027344,3.867188,1.046875,-3.109375,-0.02734375,-0.1914062,0.3222656,0,-0.01171875,0,0.0004882812,-0.001220703,-0.1715088,0,0,-0.1715088,0.01617432,3.377,0,0,0,0,nan,4,0.001,1,192,0.1000061,0.1000061,0.1000061,0.1000061,0,0,0,1,6,0
2120.023,0.00103,-0.1113281,0.3046875,0.3613281,-7.5,-1.78125,13.48438,-0.04101562,-0.04882812,0.3359375,0,-0.01171875,0,0.0001220703,-0.002441406,-0.1682129,0,0,-0.1682129,0.01785278,3.377,0,0,0,0,nan,4,0.011,1,192,0.1000061,0.1000061,0.1000061,0.1000061,0,0,0,1,6,0
2120.033,0.000971,0,-0.5976562,0.3574219,8.765625,4.273438,-3.640625,-0.04296875,-0.1738281,0.3554688,0,-0.01171875,0,-0.0003662109,-0.00378418,-0.1646729,0,0,-0.1646729,0.01953125,3.377,0,0,0,0,nan,4,0.021,1,192,0.1000061,0.1000061,0.1000061,0.1000061,0,0,0,1,6,0
2120.043,0.001013,0.01367188,-0.125,0.3339844,-2.296875,-4.257812,2.8125,-0.02539062,-0.2070312,0.3554688,0,-0.01171875,0,-0.0007324219,-0.005371094,-0.1611328,0,0,-0.1611328,0.02120972,3.377,0,0,0,0,nan,4,0.031,1,192,0.1000061,0.1000061,0.1000061,0.1000061,0,0,0,1,6,0
2120.053,0.001016,-0.1347656,0.4003906,0.4179688,-10.26562,-1.070312,14.6875,-0.05664062,-0.08203125,0.3769531,0,-0.01171875,0,-0.001220703,-0.006958008,-0.1573486,0,0,-0.1573486,0.02288818,3.377,0,0,0,0,nan,4,0.041,1,192,0.1000061,0.1000061,0.1000061,0.1000061,0,0,0,1,6,0
2120.062,0.000976,-0.1308594,0.4257812,0.4296875,-10.01562,-0.203125,14.75,-0.06054688,-0.08203125,0.3886719,0,-0.01171875,0,-0.001708984,-0.008544922,-0.1539307,0,0,-0.1539307,0.02441406,3.377,0,0,0,0,nan,4,0.05,1,192,0.1000061,0.1000061,0.1000061,0.1000061,0,0,0,1,6,0
2120.072,0.000985,-0.08984375,-0.3535156,0.4179688,3.890625,5.148438,1.65625,-0.06835938,-0.1386719,0.4023438,0,-0.01171875,0,-0.002319336,-0.01062012,-0.1500244,0,0,-0.1500244,0.02609253,3.377,0,0,0,0,nan,4,0.061,1,192,0.1000061,0.1000061,0.1000061,0.1000061,0,0,0,1,6,0
2120.082,0.001014,-0.05859375,-1.007812,0.3964844,12.40625,3.773438,-6.179688,-0.06835938,-0.3046875,0.4101562,0,-0.01171875,0,-0.003051758,-0.01293945,-0.145874,0,0,-0.145874,0.027771,3.377,0,0,0,0,nan,4,0.071,1,192,0.1000061,0.1000061,0.1000061,0.1000061,0,0,0,1,6,0
2120.092,0.000956,-0.07226562,-0.9863281,0.390625,9.5,-1.382812,-9.351562,-0.06835938,-0.3984375,0.4140625,0,-0.01171875,0,-0.003662109,-0.01538086,-0.1417236,0,0,-0.1417236,0.02944946,3.377,0,0,0,0,nan,4,0.081,1,192,0.1000061,0.1000061,0.1000061,0.1000061,0,0,0,1,6,0
2120.102,0.001008,-0.04296875,0.4355469,0.4296875,-9.195312,-2.414062,11.4375,-0.07421875,-0.3203125,0.4179688,0,-0.01171875,0,-0.004516602,-0.01867676,-0.1374512,0,0,-0.1374512,0.03115845,3.377,0,0,0,0,nan,4,0.091,1,192,0.1000061,0.1000061,0.1000061,0.1000061,0,0,0,1,6,0
2120.113,0.001032,-0.03125,0.6113281,0.4492188,-11.78906,-1.0625,13.03125,-0.06835938,-0.2089844,0.4355469,0,-0.01171875,0,-0.005371094,-0.02185059,-0.1331787,0,0,-0.1331787,0.03283691,3.377,0,0,0,0,nan,4,0.101,1,192,0.1000061,0.1000061,0.1000061,0.1000061,0,0,0,1,6,0
2120.123,0.000996,-0.0390625,0.6542969,0.4609375,-12.32812,-0.4296875,14.00781,-0.0703125,-0.1972656,0.4433594,0,-0.01171875,0,-0.006225586,-0.02478027,-0.1286621,0,0,-0.1286621,0.03451538,3.377,0,0,0,0,nan,4,0.111,1,192,0.1000061,0.1000061,0.1000061,0.1000061,0,0,0,1,6,0
2120.133,0.001019,-0.06640625,0.6679688,0.4570312,-12.07031,-0.0703125,13.9375,-0.08007812,-0.2226562,0.4472656,0,-0.01171875,0,-0.007202148,-0.02819824,-0.1240234,0,0,-0.1240234,0.03619385,3.377,0,0,0,0,nan,4,0.121,1,192,0.1000061,0.1000061,0.1000061,0.1000061,0,0,0,1,6,0
2120.143,0.000963,-0.0625,0.6640625,0.4628906,-10.78125,0.21875,12.85938,-0.07421875,-0.2910156,0.4550781,0,-0.01171875,0,-0.008056641,-0.03198242,-0.1193848,0,0,-0.1193848,0.03787231,3.377,0,0,0,0,nan,4,0.009,1,192,0.1000061,0.1000061,0.1000061,0.1000061,0,0,0,1,6,0
2120.152,0.000973,-0.0703125,-0.7109375,0.4394531,3.5625,-0.453125,-0.703125,-0.0703125,-0.5957031,0.4648438,0,-0.01171875,0,-0.008911133,-0.03552246,-0.1151123,0,0,-0.1151123,0.03939819,3.377,0,0,0,0,nan,4,0.018,1,192,0.1000061,0.1000061,0.1000061,0.1000061,0,0,0,1,6,0
2120.162,0.001013,-0.046875,-1.238281,0.4628906,9.742188,1.335938,-6.664062,-0.06445312,-0.65625,0.4765625,0,-0.01171875,0,-0.009765625,-0.03967285,-0.1103516,0,0,-0.1103516,0.04107666,3.377,0,0,0,0,nan,4,0.028,1,192,0.1000061,0.1000061,0.1000061,0.1000061,0,0,0,1,6,0
2120.172,0.001012,0.001953125,-1.65625,0.4824219,12.83594,-0.296875,-11.42969,-0.05078125,-0.6425781,0.4863281,0,-0.01171875,0,-0.01062012,-0.04382324,-0.1054688,0,0,-0.1054688,0.04275513,3.377,0,0,0,0,nan,4,0.038,1,192,0.1000061,0.1000061,0.1000061,0.1000061,0,0,0,1,6,0
2120.182,0.001014,0.04101562,-1.544922,0.515625,7.71875,-0.875,-5.171875,-0.046875,-0.5175781,0.4941406,0,-0.01171875,0,-0.01147461,-0.04821777,-0.1004639,0,0,-0.1004639,0.04443359,3.377,0,0,0,0,nan,4,0.048,1,192,0.1000061,0.1000061,0.1000061,0.1000061,0,0,0,1,6,0
2120.192,0.00101,0.0234375,-0.6855469,0.5214844,-2.78125,-1.351562,1.609375,-0.05859375,-0.328125,0.5,0,-0.01171875,0,-0.0123291,-0.05297852,-0.09545898,0,0,-0.09545898,0.04611206,3.377,0,0,0,0,nan,4,0.059,1,192,0.1000061,0.1000061,0.1000061,0.1000061,0,0,0,1,6,0
2120.202,0.001015,-0.125,0.4570312,0.5,-11.9375,-0.1328125,13.44531,-0.07617188,-0.2460938,0.5019531,0,-0.01171875,0,-0.01293945,-0.05810547,-0.09033203,0,0,-0.09033203,0.04779053,3.377,0,0,0,0,nan,4,0.069,1,192,0.1000061,0.1000061,0.1000061,0.1000061,0,0,0,1,6,0
2120.213,0.001013,-0.1191406,0.3710938,0.5058594,-11.35938,-0.234375,13.22656,-0.08203125,-0.3085938,0.5097656,0,-0.01171875,0,-0.01342773,-0.0637207,-0.08508301,0,0,-0.08508301,0.04949951,3.377,0,0,0,0,nan,4,0.079,1,192,0.1000061,0.1000061,0.1000061,0.1000061,0,0,0,1,6,0
2120.223,0.001013,-0.390625,0.4902344,0.5019531,-5.679688,0.96875,13.1875,-0.1015625,-0.4628906,0.5136719,0,-0.01171875,0,-0.01416016,-0.06933594,-0.07983398,0,0,-0.07983398,0.05117798,3.377,0,0,0,0,nan,4,0.089,1,192,0.1000061,0.1000061,0.1000061,0.1000061,0,0,0,1,6,0
2120.233,0.001013,-0.2597656,-0.7480469,0.53125,6.921875,-0.0703125,-0.609375,-0.01171875,-0.7167969,0.5195312,0,-0.01171875,0,-0.01477051,-0.07458496,-0.07446289,0,0,-0.07446289,0.05285645,3.377,0,0,0,0,nan,4,0.099,1,192,0.1000061,0.1000061,0.1000061,0.1000061,0,0,0,1,6,0
2120.243,0.001013,0.3457031,-1.419922,0.5253906,7.140625,-4.039062,-6.648438,0.09375,-0.6347656,0.5175781,0,-0.01171875,0,-0.01550293,-0.07958984,-0.06921387,0,0,-0.06921387,0.05453491,3.377,0,0,0,0,nan,4,0.109,1,192,0.1000061,0.1000061,0.1000061,0.1000061,0,0,0,1,6,0
2120.253,0.001013,-5.078125,5.5625,-12.67188,38.94531,15.47656,-38.51562,-4.658203,4.177734,-5.996094,0,-0.01171875,0,-0.03710938,-0.09008789,-0.07727051,0,0,-0.07727051,0.05621338,3.377,0,0,0,0,nan,4,0.119,1,192,0.1000061,0.1000061,0.1000061,0.1000061,0,0,0,1,6,0
2120.262,0.001007,0.1445312,-0.3066406,-0.8085938,1.15625,-6.304688,-36.14062,0.4238281,0.4863281,-2.060547,0,-0.01171875,0,-0.04077148,-0.07214355,-0.1225586,0,0,-0.1225586,0.05773926,3.377,0,0,0,0,nan,4,0.128,1,192,0.1000061,0.1000061,0.1000061,0.1000061,0,0,0,1,6,0
2120.272,0.001008,0.8125,-1.224609,-0.3847656,0.953125,-8.875,-35.21094,0.953125,0.2246094,-0.5703125,0,-0.01171875,0,-0.03186035,-0.06567383,-0.1328125,0,0,-0.1328125,0.05941772,3.377,0,0,0,0,nan,4,0.138,1,192,0.1000061,0.1000061,0.1000061,0.1000061,0,0,0,1,6,0
2120.282,0.001011,1.519531,0.8808594,-0.28125,-1.15625,7.257812,38.89062,0.9882812,0.8164062,-0.3515625,0,-0.01171875,0,-0.0222168,-0.0579834,-0.1374512,0,0,-0.1374512,0.06109619,3.377,0,0,0,0,nan,4,0.148,1,192,0.1000061,0.1000061,0.1000061,0.1000061,0,0,0,1,6,0
2120.292,0.001004,0.5410156,1.251953,-0.3457031,0.03125,1.15625,10.92969,0.8242188,0.7949219,-0.3496094,0,-0.01171875,0,-0.01269531,-0.0501709,-0.1411133,0,0,-0.1411133,0.06277466,3.377,0,0,0,0,nan,4,0.159,1,192,0.1000061,0.1000061,0.1000061,0.1000061,0,0,0,1,6,0
2120.302,0.001007,0.8730469,0.3203125,-0.3398438,3.710938,-2.59375,1.609375,1.013672,0.6816406,-0.34375,0,-0.01171875,0,-0.002807617,-0.04272461,-0.1446533,0,0,-0.1446533,0.06445312,3.377,0,0,0,0,nan,4,0.169,1,192,0.1000061,0.1000061,0.1000061,0.1000061,0,0,0,1,6,0
2120.313,0.001007,1.384766,0.65625,-0.3457031,-1.578125,0.4375,2.953125,1.003906,0.7382812,-0.3339844,0,-0.01171875,0,0.006347656,-0.03552246,-0.1479492,0,0,-0.1479492,0.06616211,3.377,0,0,0,0,nan,4,0.179,1,192,0.1000061,0.1000061,0.1000061,0.1000061,0,0,0,1,6,0
2120.323,0.001007,0.2011719,0.5,-0.6933594,-16.28906,9.195312,10.88281,0.625,0.6015625,-0.4394531,0,-0.01171875,0,0.01538086,-0.02844238,-0.1513672,0,0,-0.1513672,0.06784058,3.377,0,0,0,0,nan,4,0.189,1,192,0.1000061,0.1000061,0.1000061,0.1000061,0,0,0,1,6,0
2120.333,0.000979,-1.982422,-0.3320312,-2.892578,-10.22656,0.6328125,5.21875,-0.9003906,-0.1015625,-2.203125,0,-0.01171875,0,0.01550293,-0.02539062,-0.1646729,0,0,-0.1646729,0.06951904,3.377,0,0,0,0,nan,4,0.199,1,192,0.1000061,0.1000061,0.1000061,0.1000061,0,0,0,1,6,0
2120.343,0.001033,-1.621094,-0.8046875,-3.107422,0.453125,4.164062,4.070312,-1.773438,-0.7929688,-2.992188,0,-0.01171875,0,0.0008544922,-0.03063965,-0.192749,0,0,-0.192749,0.07119751,3.377,0,0,0,0,nan,4,0.002,1,192,0.1000061,0.1000061,0.1000061,0.1000061,0,0,0,1,6,0
2120.352,0.001064,-2.410156,-0.9746094,-3.050781,-2.679688,-1,18.92188,-2.035156,-0.8359375,-3.064453,0,-0.01171875,0,-0.01599121,-0.03845215,-0.220459,0,0,-0.220459,0.07272339,3.377,0,0,0,0,nan,4,0.011,1,192,0.1000061,0.1000061,0.1000061,0.1000061,0,0,0,1,6,0
2120.363,0.001007,2.65625,0.2226562,-2.591797,-4.773438,-4.617188,39.27344,0.1601562,-3.029297,-2.767578,0,-0.01171875,0,-0.03430176,-0.06835938,-0.2523193,0,0,-0.2523193,0.07455444,3.377,0,0,0,0,nan,4,0.022,1,192,0.1000061,0.1000061,0.1000061,0.1000061,0,0,0,1,6,0
2120.372,0.001013,0.5273438,-0.1484375,-1.652344,-2.664062,2.390625,-10.07812,0.01953125,-0.3984375,-1.921875,0,-0.01171875,0,-0.03308105,-0.07775879,-0.2733154,0,0,-0.2733154,0.07608032,3.377,0,0,0,0,nan,4,0.031,1,192,0.1000061,0.1000061,0.1000061,0.1000061,0,0,0,1,6,0
2120.382,0.001005,0.3261719,0.4316406,-1.65625,-5.648438,-0.515625,-1.835938,0.2636719,-0.05859375,-1.693359,0,-0.01171875,0,-0.02966309,-0.08081055,-0.2910156,0,0,-0.2910156,0.07775879,3.377,0,0,0,0,nan,4,0.041,1,192,0.1000061,0.1000061,0.1000061,0.1000061,0,0,0,1,6,0
2120.392,0.001016,-0.5800781,0.01757812,-1.349609,6.148438,1.671875,19.25781,-0.5917969,0.1757812,-1.5,0,-0.01171875,0,-0.02868652,-0.08105469,-0.3074951,0,0,-0.3074951,0.07943726,3.377,0,0,0,0,nan,4,0.052,1,192,0.1000061,0.1000061,0.1000061,0.1000061,0,0,0,1,6,0
2120.402,0.001009,-0.1699219,0.2988281,-0.6835938,-6.835938,-3.46875,5.523438,-0.0859375,0.1503906,-0.921875,0,-0.01171875,0,-0.02941895,-0.08044434,-0.3197021,0,0,-0.3197021,0.08114624,3.377,0,0,0,0,nan,4,0.062,1,192,0.1000061,0.1000061,0.1000061,0.1000061,0,0,0,1,6,0.1904762
2120.412,0.001013,0.1894531,0.2246094,-0.3476562,1.335938,2.75,8.390625,0.03710938,-0.08007812,-0.4960938,0,-0.01171875,0,-0.02893066,-0.08105469,-0.3266602,0,0,-0.3266602,0.08282471,3.377,0,0,0,0,nan,4,0.072,1,192,0.1000061,0.1000061,0.1000061,0.1000061,0,0,0,1,6,0
2120.423,0.001013,-0.09375,-0.3222656,-0.0390625,2.734375,-1.28125,10.97656,-0.02148438,0.02734375,-0.1660156,0,-0.01171875,0,-0.02868652,-0.08081055,-0.3295898,0,0,-0.3295898,0.08450317,3.377,0,0,0,0,nan,4,0.082,1,192,0.1000061,0.1000061,0.1000061,0.1000061,0,0,0,1,6,0
2120.433,0.001013,-0.02148438,0.375,0.04101562,-3.945312,0,11.16406,0,0.03515625,0,0,-0.01171875,0,-0.02868652,-0.08105469,-0.3303223,0,0,-0.3303223,0.08618164,3.377,0,0,0,0,nan,4,0.092,1,192,0.1000061,0.1000061,0.1000061,0.1000061,0,0,0,1,6,0
2120.443,0.0009869999,0.1015625,-0.2988281,0.1132812,5.078125,-0.234375,8.351562,0.01367188,-0.05664062,0.08789062,0,-0.01171875,0,-0.02880859,-0.08093262,-0.3297119,0,0,-0.3297119,0.08786011,3.377,0,0,0,0,nan,4,0.102,1,192,0.1000061,0.1000061,0.1000061,0.1000061,0,0,0,1,6,0.9047619
2120.453,0.001013,-0.1425781,0.2070312,0.05273438,-4.4375,-0.2890625,12.13281,-0.02734375,0.05859375,0.06445312,0,-0.01171875,0,-0.02893066,-0.08081055,-0.3289795,0,0,-0.3289795,0.08953857,3.377,0,0,0,0,nan,4,0.112,1,192,0.1000061,0.1000061,0.1000061,0.1000061,0,0,0,1,6,0
2120.463,0.001013,0.171875,-0.1855469,0.01953125,4.921875,0.3984375,7.335938,0.04492188,-0.0625,0.04101562,0,-0.01171875,0,-0.02893066,-0.08093262,-0.3283691,0,0,-0.3283691,0.09124756,3.377,0,0,0,0,nan,4,0.122,1,192,0.1000061,0.1000061,0.1000061,0.1000061,0,0,0,1,6,0
2120.472,0.001007,-0.2148438,0.2753906,-0.00390625,-3.414062,0.4921875,12.15625,-0.01953125,0.04296875,0.01367188,0,-0.01171875,0,-0.02893066,-0.08093262,-0.328125,0,0,-0.328125,0.09274292,3.377,0,0,0,0,nan,4,0.131,1,192,0.1000061,0.1000061,0.1000061,0.1000061,0,0,0,1,6,0
2120.482,0.00101,0.2597656,-0.2441406,0.02539062,2.9375,-0.3046875,7.796875,0.03320312,-0.046875,0.0234375,0,-0.01171875,0,-0.02905273,-0.08081055,-0.3280029,0,0,-0.3280029,0.09442139,3.377,0,0,0,0,nan,4,0.141,1,192,0.1000061,0.1000061,0.1000061,0.1000061,0,0,0,1,6,0
2120.492,0.001007,-0.2714844,0.2207031,-0.00390625,-3.234375,1.625,11.92969,-0.04296875,0.04882812,0.001953125,0,-0.01171875,0,-0.02905273,-0.08093262,-0.3278809,0,0,-0.3278809,0.09613037,3.377,0,0,0,0,nan,4,0.151,1,192,0.1000061,0.1000061,0.1000061,0.1000061,0,0,0,1,6,0
2120.502,0.001009,0.28125,-0.1894531,0.00390625,2.867188,-0.65625,8.078125,0.04492188,-0.04882812,0.005859375,0,-0.01171875,0,-0.02905273,-0.08093262,-0.3278809,0,0,-0.3278809,0.09780884,3.377,0,0,0,0,nan,4,0.162,1,192,0.1000061,0.1000061,0.1000061,0.1000061,0,0,0,1,6,0
2120.512,0.001008,-0.1113281,-0.01171875,0.02148438,-1.640625,1.398438,11.73438,-0.02929688,0.005859375,0.0078125,0,-0.01171875,0,-0.02905273,-0.08093262,-0.3277588,0,0,-0.3277588,0.0994873,3.377,0,0,0,0,nan,4,0.172,1,192,0.1000061,0.1000061,0.1000061,0.1000061,0,0,0,1,6,0
2120.523,0.001004,0.06640625,0.02929688,-0.015625,1.4375,-1.664062,7.945312,0.05273438,-0.02539062,-0.001953125,0.171875,0.4863281,0,-0.02880859,-0.08105469,-0.3277588,0,0,-0.3277588,0.1011658,3.377,0,0,0,0,nan,4,0.182,1,192,0.1254578,0.1448364,0.05767822,0.07669067,0,0,0,1,6,0
2120.533,0.001023,-0.05273438,-0.0390625,0.01171875,-0.6171875,1.9375,11.17969,-0.04296875,0.01367188,0.00390625,0.171875,0.4863281,0,-0.02880859,-0.08105469,-0.3277588,0,0,-0.3277588,0.1028442,3.377,0,0,0,0,nan,4,0.192,1,192,0.1603699,0.09851074,0.06207275,0.0904541,0,0.0009765625,0,1,6,0
2120.543,0.001017,0.02929688,0.02929688,0.02148438,-0.0078125,-1.695312,8.796875,0.03320312,-0.009765625,0.00390625,0.171875,0.4863281,0,-0.02880859,-0.08105469,-0.3277588,0,0,-0.3277588,0.1045227,3.792,0,0,0,0,nan,4,0.202,1,128,0.1414185,0.1336365,0.07226562,0.0708313,0,0.0009765625,0,1,6,0
2120.552,0.00099,-0.125,0.01953125,-0.01757812,-0.484375,1.6875,11.13281,-0.03710938,0.009765625,0.0078125,0.171875,0.4863281,0,-0.02880859,-0.08105469,-0.3276367,0,0,-0.3276367,0.1060486,3.792,0,0,0,0,nan,4,0.006,1,128,0.1622314,0.1069031,0.06307983,0.0920105,0.0009765625,0.001953125,0,1,6,0
2120.562,0.000983,0.09179688,-0.001953125,0.02539062,0.8828125,-1.148438,8.1875,0.03515625,-0.01171875,-0.005859375,0.171875,0.4863281,0,-0.02880859,-0.08105469,-0.3276367,0,0,-0.3276367,0.1077271,3.792,0,0,0,0,nan,4,0.016,1,128,0.133606,0.1488953,0.06292725,0.08551025,0.0009765625,0.001953125,0,1,6,0
2120.572,0.001012,-0.04492188,-0.05664062,-0.04882812,-0.625,0.515625,11.51562,-0.0390625,0.00390625,-0.001953125,0.171875,0.4863281,0,-0.02893066,-0.08093262,-0.3276367,0,0,-0.3276367,0.1094055,3.792,0,0,0,0,nan,4,0.026,1,128,0.1585693,0.1237488,0.05429077,0.1010742,0.0009765625,0.002929688,0,1,6,0
2120.582,0.001015,-0.04492188,0.1132812,0.04101562,0.21875,0.71875,9.03125,0.03515625,-0.00390625,0.001953125,0.171875,0.4863281,0,-0.02880859,-0.08093262,-0.3277588,0,0,-0.3277588,0.1111145,3.792,0,0,0,0,nan,4,0.036,1,128,0.1554871,0.1299438,0.08508301,0.07388306,0.0009765625,0.002929688,0,1,6,0
2120.592,0.001004,0.1328125,-0.1699219,-0.02539062,0.34375,0.2421875,9.984375,-0.02539062,-0.001953125,-0.01171875,0.171875,0.484375,0,-0.02880859,-0.08081055,-0.3277588,0,0,-0.3277588,0.112793,3.792,0,0,0,0,nan,4,0.046,1,128,0.1414185,0.1541138,0.04003906,0.1155701,0.0009765625,0.00390625,0,1,6,0.6031746
2120.602,0.00101,-0.1367188,0.1875,0.0078125,-2.367188,-0.0390625,9.5,0.0078125,0.00390625,0.01757812,0.171875,0.484375,0,-0.02868652,-0.08081055,-0.3277588,0,0,-0.3277588,0.1144714,3.792,0,0,0,0,nan,4,0.057,1,128,0.1918945,0.09512329,0.1105347,0.06030273,0.001953125,0.00390625,0,1,6,0.9365079
2120.613,0.001009,-0.06445312,0.0078125,0.0625,-0.40625,0.5546875,12.75,-0.0078125,0.00390625,-0.0078125,0.171875,0.484375,0,-0.02868652,-0.08068848,-0.3277588,0,0,-0.3277588,0.1161499,3.792,0,0,0,0,nan,4,0.067,1,128,0.1555786,0.1429749,0.0619812,0.1040649,0.001953125,0.004882812,0,1,6,0
2120.623,0.00101,0.125,-0.02148438,-0.01757812,1.710938,-1.171875,6.8125,0.03515625,-0.01953125,0.00390625,0.171875,0.484375,0,-0.02868652,-0.08056641,-0.3277588,0,0,-0.3277588,0.1178284,3.792,0,0,0,0,nan,4,0.077,1,128,0.1684875,0.1459351,0.08486938,0.072052,0.001953125,0.004882812,0,1,6,0
2120.633,0.001011,-0.05859375,-0.01171875,-0.04492188,-0.9375,1.3125,11.69531,-0.03320312,0.015625,-0.001953125,0.171875,0.484375,0,-0.02880859,-0.08056641,-0.3277588,0,0,-0.3277588,0.1195068,3.792,0,0,0,0,nan,4,0.087,1,128,0.1529236,0.1486206,0.0489502,0.1275635,0.001953125,0.005859375,0,1,6,0
2120.643,0.001012,-0.03710938,0.1425781,0.01953125,-1.960938,0.875,10.52344,0.01171875,0.0078125,0.001953125,0.171875,0.484375,0,-0.02868652,-0.08068848,-0.3277588,0,0,-0.3277588,0.1211853,3.792,0,0,0,0,nan,4,0.097,1,128,0.1696777,0.1359558,0.08718872,0.09194946,0.001953125,0.005859375,0,1,6,0
2120.652,0.00101,-0.0234375,-0.1132812,0.0078125,0.84375,-0.8125,7.007812,-0.02148438,0.00390625,-0.00390625,0.171875,0.4824219,0,-0.02880859,-0.08044434,-0.3277588,0,0,-0.3277588,0.1227112,3.792,0,0,0,0,nan,4,0.106,1,128,0.1723022,0.1436462,0.06658936,0.1083069,0.001953125,0.006835938,0,1,6,0
2120.662,0.001007,0.07421875,-0.01953125,0.001953125,-1.632812,-1.296875,10.42969,0.015625,0.00390625,0,0.171875,0.4824219,0,-0.02880859,-0.08056641,-0.3277588,0,0,-0.3277588,0.1243896,3.792,0,0,0,0,nan,4,0.116,1,128,0.1747437,0.1441345,0.08877563,0.0899353,0.002929688,0.006835938,0,1,6,0
2120.672,0.001007,-0.1445312,0.2207031,-0.0703125,-2.835938,-0.6171875,12.39844,-0.02929688,0.04882812,-0.005859375,0.171875,0.4824219,0,-0.02880859,-0.08056641,-0.3277588,0,0,-0.3277588,0.1260681,3.792,0,0,0,0,nan,4,0.126,1,128,0.1419067,0.1556396,0.05267334,0.1540833,0.002929688,0.0078125,0,1,6,0
2120.682,0.000996,-0.009765625,-0.046875,0.04882812,2.46875,0.5546875,8.867188,-0.01171875,-0.03710938,0.01367188,0.171875,0.4824219,0,-0.02880859,-0.08056641,-0.3276367,0,0,-0.3276367,0.1277771,3.792,0,0,0,0,nan,4,0.136,1,128,0.2184753,0.1302185,0.09356689,0.06878662,0.002929688,0.0078125,0,1,6,0
2120.692,0.000996,-0.1074219,-0.06640625,0.07617188,0.890625,0.3359375,7.132812,0.02148438,-0.015625,0.01953125,0.171875,0.4824219,0,-0.02868652,-0.08044434,-0.3276367,0,0,-0.3276367,0.1294556,3.792,0,0,0,0,nan,4,0.146,1,128,0.2262878,0.1159973,0.1234741,0.05206299,0.002929688,0.008789062,0,1,6,0
2120.702,0.001005,0.1953125,-0.2070312,0.07421875,2.546875,-0.1875,10.02344,0.05078125,-0.03320312,0.01953125,0.171875,0.4824219,0,-0.02868652,-0.08044434,-0.3275146,0,0,-0.3275146,0.131134,3.792,0,0,0,0,nan,4,0.156,1,128,0.20047,0.1588135,0.1039734,0.06124878,0.002929688,0.008789062,0,1,6,0
2120.713,0.001005,0.1699219,0.02539062,-0.1054688,0.265625,0.0546875,8.242188,0.01757812,0.03320312,-0.03320312,0.171875,0.4824219,0,-0.02868652,-0.08032227,-0.3273926,0,0,-0.3273926,0.1328125,3.792,0,0,0,0,nan,4,0.167,1,128,0.07214355,0.2500916,0,0.2090149,0.002929688,0.009765625,0,0.9604187,6,0
2120.723,0.001007,0.3574219,-0.2617188,0.0703125,3.59375,0.3203125,7.695312,0.05078125,-0.03320312,0.0078125,0.171875,0.4804688,0,-0.02856445,-0.0802002,-0.3276367,0,0,-0.3276367,0.134491,3.792,0,0,0,0,nan,4,0.177,1,128,0.2412415,0.1304626,0.1387634,0.02752686,0.00390625,0.009765625,0,1,6,0
2120.733,0.001007,-0.1328125,0.1269531,-0.09570312,-0.5234375,-1.5625,8.984375,-0.04101562,0.0546875,0.005859375,0.1699219,0.4804688,0,-0.02844238,-0.0802002,-0.3273926,0,0,-0.3273926,0.1361694,3.792,0,0,0,0,nan,4,0.187,1,128,0.1450806,0.1751709,0.04345703,0.1810303,0.00390625,0.01074219,0,1,6,0
2120.743,0.000944,0,0.015625,-0.01757812,-0.4453125,-0.203125,9.40625,-0.009765625,0.02148438,-0.01367188,0.1699219,0.4824219,0,-0.02844238,-0.0802002,-0.3273926,0,0,-0.3273926,0.1378479,3.792,0,0,0,0,nan,4,0.197,1,128,0.1564331,0.186676,0.05426025,0.1541138,0.00390625,0.01074219,0,1,6,0.0952381
2120.752,0.001034,-0.05078125,0.3222656,-0.01757812,-5.15625,-0.5234375,12.9375,-0.001953125,0.03125,0.01367188,0.1699219,0.4824219,0,-0.02844238,-0.08032227,-0.3272705,0,0,-0.3272705,0.1393738,3.792,0,0,0,0,nan,4,0.206,1,128,0.1943665,0.1434631,0.105072,0.1146545,0.00390625,0.01171875,0,1,6,0
2120.762,0.001022,0.08398438,0.01171875,-0.02734375,-2.273438,-0.5859375,14.8125,-0.009765625,-0.01757812,0.001953125,0.1699219,0.4824219,0,-0.02844238,-0.08032227,-0.3271484,0,0,-0.3271484,0.1410522,3.792,0,0,0,0,nan,4,0.216,1,128,0.1842651,0.1862183,0.06121826,0.1325684,0.00390625,0.01171875,0,1,6,0
2120.772,0.000983,-0.1699219,0.15625,-0.09765625,-1.257812,-1.9375,10.46094,-0.03710938,-0.005859375,0.005859375,0.1699219,0.4824219,0,-0.02832031,-0.08032227,-0.3271484,0,0,-0.3271484,0.1427307,3.792,0,0,0,0,nan,4,0.009,1,128,0.2016907,0.1657104,0.06878662,0.1347961,0.00390625,0.01269531,0,1,6,0
2120.782,0.000999,-0.1660156,-0.001953125,-0.08789062,-0.6328125,-0.8203125,12.1875,-0.05664062,-0.01953125,-0.02539062,0.1699219,0.4824219,0,-0.02844238,-0.0802002,-0.3272705,0,0,-0.3272705,0.1444397,3.792,0,0,0,0,nan,4,0.019,1,128,0.1800537,0.2008667,0.02905273,0.1677246,0.004882812,0.01269531,0,1,6,0
2120.792,0.001012,-0.2441406,0.2675781,0.01367188,-5.203125,-1.257812,12.6875,-0.04882812,0.04492188,0.03515625,0.1699219,0.4804688,0,-0.02844238,-0.0802002,-0.3271484,0,0,-0.3271484,0.1461182,3.792,0,0,0,0,nan,4,0.029,1,128,0.2689819,0.08242798,0.1521301,0.08093262,0.004882812,0.01367188,0,1,6,0
