t,dt_s,gyro_x,gyro_y,gyro_z,acc_x,acc_y,acc_z,rates.x,rates.y,rates.z,ratesTarget.x,ratesTarget.y,ratesTarget.z,attitude.x,attitude.y,attitude.z,attitudeTarget.x,attitudeTarget.y,attitudeTarget.z,thrustTarget,battery_v,rc_roll,rc_pitch,rc_yaw,rc_throttle,rc_mode,flight_mode,rc_age_s,armed,fault_mask,motor_rl,motor_rr,motor_fr,motor_fl,rate_i_x,rate_i_y,rate_i_z,mix_scale,control_source,accel_correction_confidence
815.733,0.00101,0.001953125,-0.001953125,0.001953125,0,0.046875,9.882812,0.001953125,0,0,-0.01757812,-0.05859375,0,0.00402832,-0.0001220703,-2.275635,0,0,-2.275757,0,4.077,0,0,0,0,nan,2,0.112,1,0,0,0,0,0,0,0,0,1,2,1
815.743,0.00101,-0.001953125,-0.001953125,-0.001953125,0.0078125,0.0625,9.828125,-0.001953125,-0.001953125,0,-0.01757812,-0.05859375,0,0.00402832,-0.0001220703,-2.275635,0,0,-2.275757,0,4.077,0,0,0,0,nan,2,0.122,1,0,0,0,0,0,0,0,0,1,2,1
815.752,0.00101,0,0,0.001953125,0.015625,0.0390625,9.867188,0,0,0,-0.01757812,-0.05859375,0,0.00402832,-0.0001220703,-2.275635,0,0,-2.275757,0,4.077,0,0,0,0,nan,2,0.131,1,0,0,0,0,0,0,0,0,1,2,1
815.762,0.001009,-0.001953125,0.001953125,-0.005859375,-0.0390625,0.0546875,9.90625,0,0,0,-0.01757812,-0.05859375,0,0.00402832,-0.0001220703,-2.275635,0,0,-2.275757,0,4.077,0,0,0,0,nan,2,0.141,1,0,0,0,0,0,0,0,0,1,2,1
815.772,0.001014,0.001953125,0,0.001953125,-0.03125,0.046875,9.820312,0,0,0,-0.01757812,-0.05859375,0,0.00402832,-0.0001220703,-2.275635,0,0,-2.275757,0,4.077,0,0,0,0,nan,2,0.151,1,0,0,0,0,0,0,0,0,1,2,1
815.783,0.001034,0,-0.001953125,0.001953125,0,0.078125,9.859375,0,0,0,-0.01757812,-0.05859375,0,0.00402832,-0.0001220703,-2.275635,0,0,-2.275757,0,4.077,0,0,0,0,nan,2,0.162,1,0,0,0,0,0,0,0,0,1,2,1
815.793,0.000994,0,0.001953125,0,-0.0078125,0.015625,9.867188,0,0.001953125,0,-0.01757812,-0.05859375,0,0.00402832,-0.0001220703,-2.275635,0,0,-2.275757,0,4.077,0,0,0,0,nan,2,0.172,1,0,0,0,0,0,0,0,0,1,2,1
815.803,0.0009869999,0,0,0,-0.0234375,0.0234375,9.828125,0,0,-0.001953125,-0.01757812,-0.05859375,0,0.00402832,-0.0001220703,-2.275635,0,0,-2.275757,0,4.077,0,0,0,0,nan,2,0.001,1,0,0,0,0,0,0,0,0,1,2,1
815.813,0.00097,0.001953125,0.001953125,0,0,0.046875,9.835938,0,0,0,-0.01757812,-0.05859375,0,0.00402832,-0.0001220703,-2.275635,0,0,-2.275757,0,4.077,0,0,0,0,nan,2,0.011,1,0,0,0,0,0,0,0,0,1,2,1
815.823,0.001003,0,0.001953125,0.001953125,0.015625,0.0390625,9.890625,0,0,0,-0.01757812,-0.05859375,0,0.00402832,-0.0001220703,-2.275635,0,0,-2.275757,0,4.077,0,0,0,0,nan,2,0.021,1,0,0,0,0,0,0,0,0,1,2,1
815.832,0.001015,-0.00390625,-0.02734375,-0.01953125,0.046875,0.0078125,9.828125,-0.001953125,-0.01171875,-0.0078125,-0.0234375,0,0,0.00402832,-0.0001220703,-2.275635,0,0,-2.275757,0.192627,4.077,0,0,0,0.1599731,nan,2,0.004,1,0,0.1789551,0.2119751,0.1750793,0.2044983,0,0,0,1,2,0.9365079
815.842,0.001003,0,0,-0.00390625,-0.03125,0.078125,9.851562,-0.001953125,-0.001953125,-0.001953125,-0.0234375,0,0,0.00402832,-0.0001220703,-2.275757,0,0,-2.275757,0.192627,4.077,0,0,0,0.1599731,nan,2,0.014,1,0,0.191864,0.1925354,0.1954651,0.1906738,0,0,0,1,2,0.8888889
815.852,0.001008,-0.005859375,0.001953125,0.00390625,-0.296875,-0.015625,9.921875,0,0.001953125,-0.001953125,-0.0234375,0,0,0.00402832,-0.0001220703,-2.275757,0,0,-2.275757,0.192627,4.077,0,0,0,0.1599731,nan,2,0.024,1,0,0.1930237,0.1910095,0.1969604,0.1895142,0,0,0,1,2,0.7142857
815.862,0.001026,-0.01367188,-0.01367188,-0.001953125,0.2890625,-0.0703125,9.710938,-0.001953125,0,-0.001953125,-0.0234375,0,0,0.00402832,-0.0001220703,-2.275757,0,0,-2.275757,0.192627,4.077,0,0,0,0.1599731,nan,2,0.034,1,0,0.1887512,0.1974487,0.1892395,0.1950989,0,0,0,1,2,0.7936508
815.872,0.001025,-0.01367188,-0.009765625,0.01171875,-0.078125,0.1015625,9.851562,-0.005859375,-0.001953125,0.005859375,-0.0234375,0,0,0.00402832,-0.0001220703,-2.275757,0,0,-2.275757,0.192627,4.077,0,0,0,0.1599731,nan,2,0.044,1,0,0.2051697,0.181366,0.2047119,0.1792908,0,0,0,1,2,0.8888889
815.882,0.001,0.00390625,0.01757812,-0.0234375,0.0703125,-0.109375,9.96875,0.001953125,0.005859375,-0.009765625,-0.0234375,0,0,0.00402832,-0.0001220703,-2.275757,0,0,-2.275757,0.192627,4.077,0,0,0,0.1599731,nan,2,0.055,1,0,0.1636658,0.219574,0.1699829,0.2173157,0,0,0,1,2,0.6190476
815.893,0.000999,-0.02734375,-0.005859375,0.02539062,-0.5078125,0.0234375,9.765625,-0.01367188,-0.005859375,0.005859375,-0.0234375,0,0,0.00390625,-0.0001220703,-2.275757,0,0,-2.275757,0.192627,4.077,0,0,0,0.1599731,nan,2,0.065,1,0,0.2220154,0.1651611,0.2169495,0.1664124,0,0,0,1,2,0.8888889
815.903,0.001004,0.02539062,0.0234375,-0.05664062,0.921875,-0.0234375,9.78125,0.005859375,0.01757812,-0.01757812,-0.0234375,0,0,0.00390625,0,-2.275757,0,0,-2.275757,0.192627,4.077,0,0,0,0.1599731,nan,2,0.075,1,0,0.1317749,0.2472839,0.1473694,0.2440796,0,0,0,1,2,0.9365079
815.913,0.0009860001,-0.0234375,-0.01953125,0.05078125,-1.21875,0.65625,9.773438,-0.015625,-0.02734375,0.01953125,-0.0234375,0,0,0.00378418,-0.0001220703,-2.275879,0,0,-2.275757,0.192627,4.077,0,0,0,0.1599731,nan,2,0.085,1,0,0.2611084,0.1341858,0.2474976,0.1277466,0,0,0,1,2,0.8412699
815.923,0.00103,0.01171875,-0.005859375,-0.01757812,0.4921875,-0.15625,9.882812,0.015625,0.01171875,-0.015625,-0.0234375,0,0,0.00390625,0,-2.275757,0,0,-2.275757,0.192627,4.077,0,0,0,0.1599731,nan,2,0.095,1,0,0.1513672,0.2310181,0.1627197,0.2254333,0,0,0,1,2,0.7619048
815.933,0.001007,-0.01953125,-0.001953125,0.01953125,0.03125,-1.359375,10.10938,0.00390625,-0.00390625,0.015625,-0.0234375,0,0,0.00402832,-0.0001220703,-2.275757,0,0,-2.275757,0.192627,4.077,0,0,0,0.1599731,nan,2,0.105,1,0,0.2244263,0.1614685,0.2260132,0.1586304,0,0,0,1,2,0.1904762
815.942,0.00089,0.0078125,0.02148438,0.005859375,0.7734375,-1.03125,9.710938,0.005859375,0.009765625,-0.005859375,-0.0234375,0,0,0.00390625,-0.0001220703,-2.275757,0,0,-2.275757,0.2852783,4.077,0,0,0,0.2700195,nan,2,0.002,1,0,0.2674255,0.2973022,0.2805481,0.2957764,0,0,0,1,2,0.968254
815.952,0.001012,-0.00390625,0,0.0234375,0.4296875,-1.304688,9.742188,0.009765625,-0.001953125,0.01171875,-0.0234375,0.001953125,0,0.00390625,-0.0001220703,-2.275757,0,0,-2.275757,0.2852783,4.077,0,0,0,0.2700195,nan,2,0.012,1,0,0.3048706,0.2668457,0.3105774,0.2587585,0,0,0,1,2,0.9365079
815.962,0.001022,-0.01171875,0.0078125,0.01367188,0.5390625,-0.359375,9.171875,-0.001953125,0.0078125,0.01367188,-0.0234375,0.001953125,0,0.00378418,-0.0002441406,-2.275757,0,0,-2.275757,0.3273621,4.077,0,0,0,0.3200073,nan,2,0.002,1,0,0.3490906,0.3013,0.3565369,0.3025513,0,0,0,1,2,0
815.972,0.00098,-0.02734375,-0.015625,-0.08007812,-0.7109375,1.023438,9.648438,-0.01953125,-0.001953125,-0.0078125,-0.0234375,0,0,0.00378418,-0.0001220703,-2.275757,0,0,-2.275757,0.3273621,4.077,0,0,0,0.3200073,nan,2,0.012,1,0,0.3008423,0.3578491,0.2922058,0.3586121,0,0,0,1,2,0.7460318
815.982,0.000992,0.03710938,0.03710938,0.04882812,-0.7734375,-0.1953125,11.64844,0.02148438,-0.00390625,-0.005859375,-0.0234375,0,0,0.00390625,-0.0001220703,-2.275757,0,0,-2.275757,0.3273621,4.077,0,0,0,0.3200073,nan,2,0.022,1,0,0.3037415,0.3510132,0.3160706,0.3386536,0,0,0,1,2,0
815.992,0.001016,0.001953125,0.03125,0.005859375,1.148438,0.203125,7.46875,-0.009765625,0.0078125,0.02539062,-0.0234375,0,0,0.00378418,-0.0001220703,-2.275635,0,0,-2.275757,0.3273621,4.077,0,0,0,0.3200073,nan,2,0.032,1,0,0.3813477,0.2699585,0.3842773,0.2738953,0,0,0,1,2,0
816.003,0.000965,-0.1035156,-0.005859375,0.06445312,-0.8515625,0.484375,12.28906,-0.0078125,-0.001953125,0.01953125,-0.0234375,0,0,0.00390625,-0.0001220703,-2.275513,0,0,-2.275757,0.3652649,4.077,0,0,0,0.3649902,nan,2,0.008,1,0,0.390625,0.3389282,0.388031,0.3434448,0,0,0,1,2,0
816.013,0.001009,-0.02734375,0.03125,-0.005859375,-1.882812,0.921875,10.67188,0.02734375,0.009765625,0,-0.0234375,0,0,0.00390625,-0.0001220703,-2.275513,0,0,-2.275757,0.3652649,4.077,0,0,0,0.3649902,nan,2,0.018,1,0,0.3323059,0.393158,0.3548279,0.3807678,0,0,0,1,2,0
816.023,0.001009,0.1191406,0.03515625,-0.02734375,-0.9609375,1.828125,7.734375,0.0390625,-0.0078125,-0.015625,-0.0234375,0,0,0.00378418,-0.0001220703,-2.275391,0,0,-2.275757,0.3652649,4.077,0,0,0,0.3649902,nan,2,0.028,1,0,0.3057861,0.4286499,0.3308716,0.3957825,0,0,0,1,2,0
816.033,0.000997,0.1054688,0.078125,0.04492188,-0.6328125,3.578125,8.1875,0.03125,0.0078125,0.0078125,-0.02148438,0,0,0.003662109,-0.0001220703,-2.275391,0,0,-2.275757,0.3652649,4.077,0,0,0,0.3649902,nan,2,0.038,1,0,0.3727417,0.3533936,0.4010925,0.3338013,0,0,0,1,2,0
816.042,0.001031,0.08398438,-0.0390625,0.08203125,3.773438,0.6328125,7.953125,0.02929688,-0.0390625,0.02734375,-0.0234375,0.001953125,0,0.00378418,-0.0002441406,-2.275391,0,0,-2.275757,0.3947449,4.077,0,0,0,0.4000244,nan,2,0.003,1,0,0.4429932,0.3648071,0.4422607,0.3288879,-0.0009765625,0,0,1,2,0
816.052,0.000984,-0.01367188,0.02148438,-0.03710938,0.34375,2.46875,9.03125,-0.01171875,-0.0078125,0.0078125,-0.0234375,0,0,0.00378418,-0.0001220703,-2.275269,0,0,-2.275757,0.3947449,4.077,0,0,0,0.4000244,nan,2,0.013,1,0,0.3908997,0.4032288,0.3843079,0.4005432,-0.0009765625,0,0,1,2,0.0952381
816.062,0.001009,0.1191406,-0.05273438,-0.0234375,-1.351562,1.4375,8.226562,0.03710938,-0.009765625,-0.05078125,-0.0234375,0,0,0.00390625,-0.0001220703,-2.275513,0,0,-2.275757,0.3947449,4.077,0,0,0,0.4000244,nan,2,0.023,1,0,0.3277588,0.4684143,0.3430176,0.4397583,-0.0009765625,0,0,1,2,0
816.072,0.000995,-0.08203125,-0.05078125,-0.07421875,4.140625,-5.007812,10.53906,-0.0078125,0.00390625,-0.04296875,-0.0234375,0,0,0.00390625,0,-2.275879,0,0,-2.275757,0.3947449,4.077,0,0,0,0.4000244,nan,2,0.033,1,0,0.3716431,0.4164124,0.3705139,0.4203796,-0.0009765625,0,0,1,2,0
816.083,0.000992,0.09570312,0.07617188,-0.04101562,-4.585938,8.445312,6.03125,0.02148438,-0.02148438,-0.07226562,-0.0234375,0.001953125,0,0.00402832,-0.0002441406,-2.276611,0,0,-2.275757,0.3947449,4.077,0,0,0,0.4000244,nan,2,0.043,1,0,0.3590393,0.4345703,0.3676758,0.4176636,-0.0009765625,0,0,1,2,0
816.092,0.001006,-0.1132812,-0.01757812,0.02539062,-2.789062,-2.0625,11.71875,-0.01757812,-0.01757812,0.00390625,-0.0234375,0.001953125,0,0.00402832,-0.0003662109,-2.276855,0,0,-2.275757,0.4200134,4.077,0,0,0,0.4299927,nan,2,0,1,0,0.4804688,0.3660583,0.4695435,0.3639221,-0.0009765625,0,0,1,2,0
816.103,0.001011,-0.0234375,0.1113281,-0.07226562,-1.648438,3.289062,14.03125,0,0.0078125,-0.02148438,-0.0234375,0.001953125,0,0.00390625,-0.0003662109,-2.276855,0,0,-2.275757,0.4200134,4.077,0,0,0,0.4299927,nan,2,0.011,1,0,0.3729248,0.4580383,0.386261,0.4627991,-0.0009765625,0,0,1,2,0
816.113,0.001009,0.02539062,-0.1542969,0.01953125,3.265625,3.796875,9.59375,-0.001953125,-0.02539062,0.0546875,-0.0234375,0.001953125,0,0.00402832,-0.0004882812,-2.276611,0,0,-2.275757,0.4200134,4.077,0,0,0,0.4299927,nan,2,0.021,1,0,0.4992981,0.3548584,0.4847107,0.3411255,-0.0009765625,0,0,1,2,0
816.123,0.001009,0.03320312,-0.1269531,0.09570312,5.914062,-4.039062,6.9375,0.03125,-0.04492188,0.0625,-0.02539062,0.00390625,0,0.004150391,-0.0006103516,-2.276123,0,0,-2.275757,0.4200134,4.077,0,0,0,0.4299927,nan,2,0.031,1,0,0.4717712,0.3879089,0.467865,0.3524475,-0.0009765625,0,0,1,2,0.3174603
816.133,0.001002,0.03710938,-0.08398438,0.08007812,0.1796875,-1.882812,6.351562,0.0390625,-0.02539062,0.04101562,-0.02539062,0.00390625,0,0.004150391,-0.0004882812,-2.275513,0,0,-2.275757,0.4200134,3.761,0,0,0,0.4299927,nan,2,0.041,1,0,0.4124756,0.4414062,0.4179688,0.4081421,-0.0009765625,0,0,1,2,0
816.142,0.001015,0.1289062,0.02929688,0.005859375,-1.359375,11.32031,9.625,0.04101562,-0.005859375,0.01757812,-0.02539062,0.001953125,0,0.004272461,-0.0004882812,-2.275269,0,0,-2.275757,0.4536743,3.761,0,0,0,0.4699707,nan,2,0.003,1,0,0.4263306,0.4857483,0.4478455,0.4548035,-0.0009765625,0,0,1,2,0
816.152,0.001008,0.09960938,0.02929688,0.05078125,-2.625,8.429688,8.046875,-0.0234375,0.001953125,0.04882812,-0.02539062,0.001953125,0,0.004150391,-0.0003662109,-2.274902,0,0,-2.275757,0.4536743,3.761,0,0,0,0.4699707,nan,2,0.013,1,0,0.4856567,0.4220886,0.485321,0.4216919,-0.0009765625,0,0,1,2,0
816.162,0.001008,-0.01171875,-0.02734375,0.1152344,1.054688,-1.992188,8.140625,-0.0078125,-0.01171875,0.09570312,-0.02539062,0.00390625,0,0.004150391,-0.0004882812,-2.27417,0,0,-2.275757,0.4536743,3.761,0,0,0,0.4699707,nan,2,0.023,1,0,0.533844,0.3787842,0.5280151,0.3740845,-0.0009765625,0,0,1,2,0
816.172,0.00099,-0.046875,0.0234375,0.1230469,-0.8515625,-1.75,11.60938,0.005859375,0.01367188,0.1054688,-0.02539062,0.00390625,0,0.004150391,-0.0004882812,-2.272949,0,0,-2.275757,0.4536743,3.761,0,0,0,0.4699707,nan,2,0.033,1,0,0.4723511,0.4281311,0.4866638,0.4275818,-0.0009765625,0,0,1,2,0
816.182,0.001005,-0.1035156,0.1660156,0.1445312,-3.578125,-5.664062,11.17969,-0.06445312,0.0078125,0.1210938,-0.0234375,0.001953125,0,0.00390625,-0.0004882812,-2.271851,0,0,-2.275757,0.4536743,3.761,0,0,0,0.4699707,nan,2,0.043,1,0,0.5130005,0.3919067,0.497406,0.4124146,-0.0009765625,0,0,1,2,0
816.192,0.000988,0.09179688,0.2519531,0.1035156,-5.304688,-0.3671875,15.375,0.02539062,0.0234375,0.1015625,-0.02148438,0.00390625,0,0.003662109,-0.0006103516,-2.270752,0,0,-2.275757,0.4915771,3.761,0,0,0,0.5150146,nan,2,0.002,1,0,0.4833374,0.479126,0.5280762,0.4757996,-0.0009765625,0,0,1,2,0
816.203,0.001016,0.09960938,-0.125,0.1035156,2.351562,-5.75,9.28125,0.0625,0.015625,0.1054688,-0.0234375,0.001953125,0,0.00402832,-0.0002441406,-2.269653,0,0,-2.275757,0.4915771,3.761,0,0,0,0.5150146,nan,2,0.013,1,0,0.5156555,0.4709167,0.5357971,0.4439392,-0.0009765625,0,0,1,2,0
816.213,0.001033,-0.2480469,0.1269531,0.1699219,0.9609375,-0.484375,14.78125,-0.09570312,0.046875,0.1367188,-0.0234375,0.001953125,0,0.00390625,-0.0002441406,-2.268555,0,0,-2.275757,0.4915771,3.761,0,0,0,0.5150146,nan,2,0.023,1,0,0.5875854,0.3800049,0.5662842,0.4324341,-0.0009765625,0,0,1,2,0
816.223,0.001051,-0.1660156,0.4257812,0.1113281,-1.421875,3.46875,14.95312,-0.02929688,0.1464844,0.1347656,-0.02148438,-0.00390625,0,0.003540039,0.0006103516,-2.26709,0,0,-2.275757,0.4915771,3.761,0,0,0,0.5150146,nan,2,0.033,1,0,0.5072021,0.4276428,0.552124,0.4793396,-0.0009765625,0,0,1,2,0
816.233,0.001008,0.3144531,0.1503906,0.1347656,-0.5,-2.84375,0.9296875,0.0625,0.1933594,0.1347656,-0.0234375,-0.01367188,0,0.00390625,0.002319336,-2.265747,0,0,-2.275757,0.4915771,3.761,0,0,0,0.5150146,nan,2,0.043,1,0,0.4926453,0.4513855,0.5614929,0.4607849,-0.0009765625,0,0,1,2,0
816.243,0.001008,0.07421875,0.1328125,0.1796875,1.390625,3.679688,9.421875,0.09765625,0.2050781,0.1523438,-0.02734375,-0.02734375,0,0.004516602,0.004516602,-2.264282,0,0,-2.275757,0.4915771,3.761,0,0,0,0.5150146,nan,2,0.054,1,0,0.5289612,0.4295959,0.5828552,0.4248962,-0.0009765625,0,0,1,2,0.1428571
816.252,0.001007,0.1992188,0.2226562,0.1660156,-4.375,-3.835938,14.03906,0.1386719,0.2441406,0.1542969,-0.03320312,-0.04101562,0,0.005615234,0.006835938,-2.262817,0,0,-2.275757,0.4915771,3.761,0,0,0,0.5150146,nan,2,0.063,1,0,0.5097351,0.4361267,0.5816956,0.4387512,-0.0009765625,-0.0009765625,0,1,2,0
816.262,0.001054,0.02734375,0.5761719,0.203125,-5.234375,-5.335938,-20.60156,0.1152344,0.4003906,0.171875,-0.04101562,-0.06054688,0,0.006958008,0.01025391,-2.26123,0,0,-2.275757,0.5252686,3.761,0,0,0,0.5549927,nan,2,0.004,1,0,0.5563354,0.4064941,0.6633301,0.4749146,-0.0009765625,-0.0009765625,0,1,2,0
816.272,0.001012,0.203125,0.4375,0.1152344,2.84375,0.7265625,19.32031,0.1425781,0.4726562,0.1582031,-0.04882812,-0.08789062,0,0.008178711,0.01464844,-2.259521,0,0,-2.275757,0.5252686,3.761,0,0,0,0.5549927,nan,2,0.014,1,0,0.4931946,0.4674988,0.6176147,0.5227356,-0.001953125,-0.001953125,0,1,2,0
816.282,0.001003,0.08203125,0.7304688,0.1621094,-1.0625,4.570312,-4.53125,0.1347656,0.5742188,0.171875,-0.05664062,-0.1191406,0,0.009643555,0.01989746,-2.257812,0,0,-2.275757,0.5252686,3.761,0,0,0,0.5549927,nan,2,0.024,1,0,0.5009155,0.4302063,0.6474304,0.5224915,-0.001953125,-0.001953125,0,1,2,0
816.292,0.001008,0.2753906,0.5488281,0.1816406,-3.328125,-3.265625,31.26562,0.1523438,0.5507812,0.1816406,-0.06640625,-0.1523438,0,0.01098633,0.0255127,-2.255859,0,0,-2.275757,0.5252686,3.761,0,0,0,0.5549927,nan,2,0.034,1,0,0.5153809,0.4368896,0.653656,0.4951172,-0.001953125,-0.002929688,0,1,2,0
816.303,0.001006,-0.1660156,0.6542969,0.203125,-3.140625,-1.671875,11.00781,-0.0078125,0.5273438,0.1855469,-0.0703125,-0.1855469,0,0.01171875,0.03088379,-2.253906,0,0,-2.275757,0.5252686,3.761,0,0,0,0.5549927,nan,2,0.044,1,0,0.5442505,0.4091492,0.6248779,0.5227661,-0.001953125,-0.00390625,0,1,2,0
816.313,0.001009,-0.02929688,0.2636719,0.1894531,-2.195312,-3.125,31.46875,-0.078125,0.3417969,0.1816406,-0.06835938,-0.2109375,0,0.01135254,0.03527832,-2.252075,0,0,-2.275757,0.5252686,3.761,0,0,0,0.5549927,nan,2,0.055,1,0,0.5673523,0.4398804,0.5982971,0.4955139,-0.001953125,-0.00390625,0,1,2,0
816.323,0.00098,-0.2421875,0.2421875,0.2109375,-2.398438,-6.960938,-37.82812,-0.1230469,0.2246094,0.2050781,-0.0625,-0.2285156,0,0.01049805,0.03808594,-2.25,0,0,-2.275757,0.5252686,3.761,0,0,0,0.5549927,nan,2,0.065,1,0,0.5816345,0.4250183,0.6048889,0.489502,-0.001953125,-0.004882812,0,1,2,0
816.333,0.001019,-0.203125,0.07421875,0.1835938,-0.484375,-0.21875,21.09375,-0.2109375,0.08203125,0.1855469,-0.05273438,-0.2363281,0,0.008911133,0.03930664,-2.248047,0,0,-2.275757,0.5252686,3.761,0,0,0,0.5549927,nan,2,0.075,1,0,0.5777588,0.4444275,0.5709229,0.5079346,-0.001953125,-0.004882812,0,1,2,0
816.343,0.001012,-0.1367188,0,0.25,-0.8828125,-5.125,-37.88281,-0.1289062,0.015625,0.2148438,-0.04492188,-0.2382812,0,0.007446289,0.03967285,-2.246094,0,0,-2.275757,0.5252686,3.761,0,0,0,0.5549927,nan,2,0.085,1,0,0.6042175,0.4163208,0.631897,0.4486389,-0.001953125,-0.005859375,0,1,2,0
816.352,0.000918,0.1796875,-0.1875,0.2070312,2.289062,0.6875,12.59375,-0.0234375,-0.1035156,0.1992188,-0.0390625,-0.2363281,0,0.006713867,0.03930664,-2.244141,0,0,-2.275757,0.5379028,3.761,0,0,0,0.5700073,nan,2,0.002,1,0,0.5704041,0.5058594,0.6039124,0.471405,-0.001953125,-0.005859375,0,1,2,0
816.362,0.001039,-0.1035156,-0.2636719,0.2265625,-0.5390625,-0.3984375,24.42188,0.01367188,-0.1542969,0.2128906,-0.0390625,-0.2285156,0,0.006591797,0.03820801,-2.242065,0,0,-2.275757,0.5379028,3.761,0,0,0,0.5700073,nan,2,0.012,1,0,0.6036987,0.4701538,0.6268311,0.4508972,-0.001953125,-0.005859375,0,1,2,0
816.372,0.001005,0.1367188,-0.265625,0.2675781,4.132812,-0.0625,-11.67969,0.08007812,-0.1621094,0.2304688,-0.04101562,-0.2207031,0,0.006958008,0.03662109,-2.239868,0,0,-2.275757,0.5379028,3.761,0,0,0,0.5700073,nan,2,0.022,1,0,0.6065369,0.4605408,0.6552734,0.4292297,-0.001953125,-0.005859375,0,1,2,0
816.383,0.000973,0.08007812,-0.1660156,0.2382812,-0.1875,3.570312,30.71875,0.02539062,-0.1367188,0.2421875,-0.04296875,-0.2109375,0,0.007324219,0.03515625,-2.237549,0,0,-2.275757,0.5463257,3.761,0,0,0,0.5800171,nan,2,0.005,1,0,0.6237488,0.4463806,0.659668,0.4554749,-0.001953125,-0.005859375,0,1,2,0
816.392,0.000945,0.01367188,-0.06445312,0.2402344,-4.445312,-0.1484375,-27.1875,0,-0.140625,0.2304688,-0.04296875,-0.2011719,0,0.007324219,0.03356934,-2.235229,0,0,-2.275757,0.5463257,3.761,0,0,0,0.5800171,nan,2,0.015,1,0,0.5899963,0.4797974,0.6241455,0.491333,-0.001953125,-0.005859375,0,1,2,0
816.403,0.001007,0.3066406,-0.04101562,0.2597656,1.664062,-1.726562,12.14844,0.04101562,-0.05078125,0.25,-0.04492188,-0.1953125,0,0.007568359,0.0324707,-2.232788,0,0,-2.275757,0.5463257,3.761,0,0,0,0.5800171,nan,2,0.025,1,0,0.6077576,0.436554,0.6847839,0.4561768,-0.001953125,-0.005859375,0,1,2,0
816.413,0.000975,0.1835938,0.2480469,0.2226562,-6.539062,0.0546875,39.125,0.02929688,-0.01757812,0.2460938,-0.046875,-0.1914062,0,0.00793457,0.03173828,-2.230225,0,0,-2.275757,0.5463257,3.761,0,0,0,0.5800171,nan,2,0.035,1,0,0.5710144,0.4632568,0.6475525,0.5034485,-0.001953125,-0.005859375,0,1,2,0
816.423,0.001021,0.1074219,0.1582031,0.3046875,-5.859375,-6.015625,-18.46094,0.06640625,0.03515625,0.2675781,-0.05273438,-0.1914062,0,0.008666992,0.03173828,-2.227783,0,0,-2.275757,0.5547485,3.761,0,0,0,0.5900269,nan,2,0,1,0,0.625824,0.4274597,0.7054138,0.4602356,-0.001953125,-0.006835938,0,1,2,0
816.433,0.001063,0.1816406,0.06445312,0.2578125,-0.4765625,3.15625,39.03125,0.03710938,0.03320312,0.2617188,-0.0546875,-0.1914062,0,0.009277344,0.03186035,-2.225098,0,0,-2.275757,0.5547485,3.761,0,0,0,0.5900269,nan,2,0.01,1,0,0.599762,0.4611206,0.6629639,0.4950867,-0.001953125,-0.006835938,-0.0009765625,1,2,0
816.443,0.001008,0.09765625,0.03320312,0.2695312,-3.84375,1.640625,24.71875,0.015625,0.0546875,0.2792969,-0.05664062,-0.1933594,0,0.009521484,0.03222656,-2.222412,0,0,-2.275757,0.5547485,3.761,0,0,0,0.5900269,nan,2,0.02,1,0,0.6343994,0.4288025,0.6934814,0.4622803,-0.001953125,-0.006835938,-0.0009765625,1,2,0
816.452,0.001012,-0.06054688,0.1035156,0.2851562,1.273438,0,29.15625,0,0.08007812,0.28125,-0.05859375,-0.1972656,0,0.009765625,0.03283691,-2.219849,0,0,-2.275757,0.5547485,3.761,0,0,0,0.5900269,nan,2,0.029,1,0,0.6117554,0.4407654,0.6730957,0.4933472,-0.002929688,-0.006835938,-0.0009765625,1,2,0
816.462,0.001013,0.1777344,-0.04882812,0.2851562,4.492188,5.765625,38.94531,0.0078125,0.0625,0.2851562,-0.05859375,-0.2011719,0,0.009643555,0.03344727,-2.216919,0,0,-2.275757,0.5547485,3.761,0,0,0,0.5900269,nan,2,0.039,1,0,0.6054077,0.4591675,0.6755066,0.4788208,-0.002929688,-0.006835938,-0.0009765625,1,2,0
816.472,0.001033,-0.1230469,-0.04882812,0.2753906,1.351562,0.3203125,24.77344,-0.05273438,0.0546875,0.2851562,-0.05859375,-0.203125,0,0.009643555,0.03393555,-2.214111,0,0,-2.275757,0.5547485,3.761,0,0,0,0.5900269,nan,2,0.05,1,0,0.6227722,0.4452515,0.6532898,0.4976196,-0.002929688,-0.0078125,-0.0009765625,1,2,0
816.482,0.000969,0.03515625,0.1230469,0.3105469,-0.5078125,0.4140625,-19.64062,-0.04101562,0.08007812,0.2910156,-0.0546875,-0.2070312,0,0.009033203,0.0345459,-2.211182,0,0,-2.275757,0.5547485,3.761,0,0,0,0.5900269,nan,2,0.003,1,0,0.6097107,0.4431152,0.6869202,0.4792175,-0.002929688,-0.0078125,-0.0009765625,1,2,0
816.492,0.001008,-0.03125,0.0234375,0.2695312,2.742188,-2.359375,39.21094,-0.08398438,0.0625,0.2871094,-0.04882812,-0.2128906,0,0.008178711,0.03552246,-2.20813,0,0,-2.275757,0.5547485,3.761,0,0,0,0.5900269,nan,2,0.013,1,0,0.6082153,0.4631958,0.6467896,0.5007324,-0.002929688,-0.0078125,-0.0009765625,1,2,0
816.503,0.001032,-0.1835938,0.1367188,0.2832031,-3.6875,-3.617188,21.73438,-0.0625,0.09375,0.2851562,-0.04296875,-0.21875,0,0.007080078,0.03637695,-2.205322,0,0,-2.275757,0.5547485,3.761,0,0,0,0.5900269,nan,2,0.023,1,0,0.6006165,0.4490662,0.6808472,0.4884338,-0.002929688,-0.008789062,-0.0009765625,1,2,0
816.513,0.000997,-0.3691406,0.005859375,0.3144531,1.4375,0.8984375,-33.8125,-0.1582031,0.05664062,0.2988281,-0.03710938,-0.2246094,0,0.006103516,0.03723145,-2.202271,0,0,-2.275757,0.5547485,3.761,0,0,0,0.5900269,nan,2,0.033,1,0,0.6519775,0.4197998,0.657074,0.4900818,-0.001953125,-0.008789062,-0.0009765625,1,2,0
816.523,0.000983,-0.171875,0.01171875,0.2929688,7.515625,0.7421875,26.39844,-0.07617188,0.1074219,0.3007812,-0.03125,-0.2304688,0,0.005249023,0.03833008,-2.199219,0,0,-2.275757,0.55896,3.761,0,0,0,0.5949707,nan,2,0.001,1,0,0.6230164,0.4325562,0.6857605,0.4944153,-0.001953125,-0.008789062,-0.0009765625,1,2,0
816.533,0.001004,-0.1757812,0.1972656,0.3144531,-4.0625,-0.7890625,23.26562,-0.078125,0.08789062,0.3066406,-0.02734375,-0.234375,0,0.004638672,0.0390625,-2.196167,0,0,-2.275757,0.55896,3.761,0,0,0,0.5949707,nan,2,0.011,1,0,0.6280518,0.4256287,0.6848755,0.4971924,-0.001953125,-0.009765625,-0.0009765625,1,2,0
816.543,0.001008,-0.1015625,-0.03320312,0.3300781,-2.859375,-1.5625,3.820312,-0.04296875,0.01171875,0.3125,-0.02734375,-0.2382812,0,0.004516602,0.03955078,-2.193115,0,0,-2.275757,0.55896,3.761,0,0,0,0.5949707,nan,2,0.021,1,0,0.6488953,0.4373169,0.6793518,0.4702148,-0.001953125,-0.009765625,-0.0009765625,1,2,0
816.552,0.000973,-0.08203125,0.1074219,0.3261719,-3.546875,1.25,2.453125,-0.01171875,0.02734375,0.3125,-0.02539062,-0.2382812,0,0.004394531,0.03979492,-2.190186,0,0,-2.275757,0.55896,3.761,0,0,0,0.5949707,nan,2,0.03,1,0,0.6210022,0.441925,0.6885376,0.4843445,-0.001953125,-0.009765625,-0.0009765625,1,2,0
816.562,0.001008,0.00390625,-0.1191406,0.3007812,-2.65625,-3.21875,8.3125,-0.01171875,-0.08203125,0.3046875,-0.02734375,-0.2363281,0,0.004394531,0.03942871,-2.187134,0,0,-2.275757,0.55896,3.761,0,0,0,0.5949707,nan,2,0.04,1,0,0.6340332,0.4679871,0.6582336,0.4755249,-0.001953125,-0.009765625,-0.0009765625,1,2,0
816.572,0.001013,0.04101562,-0.2070312,0.3125,-0.2109375,4.0625,3.226562,0.02734375,-0.1171875,0.3144531,-0.02734375,-0.2304688,0,0.004516602,0.03845215,-2.18396,0,0,-2.275757,0.55896,3.761,0,0,0,0.5949707,nan,2,0.05,1,0,0.6366882,0.458252,0.6813965,0.4594421,-0.001953125,-0.01074219,-0.0009765625,1,2,0
816.582,0.001001,0.1289062,-0.3320312,0.3300781,3.851562,-4.203125,7.585938,-0.03320312,-0.1679688,0.3105469,-0.02734375,-0.2226562,0,0.004516602,0.0369873,-2.180786,0,0,-2.275757,0.55896,3.761,0,0,0,0.5949707,nan,2,0.061,1,0,0.6524963,0.4551392,0.6608276,0.4673157,-0.001953125,-0.01074219,-0.0009765625,1,2,0.3492064
816.592,0.001009,-0.03320312,-0.1230469,0.3261719,-2.679688,-1.609375,-1.546875,0.009765625,-0.1796875,0.3222656,-0.02734375,-0.2109375,0,0.004638672,0.03515625,-2.177612,0,0,-2.275757,0.55896,3.761,0,0,0,0.5949707,nan,2,0.071,1,0,0.6430359,0.45401,0.6781006,0.4606628,-0.001953125,-0.01074219,-0.0009765625,1,2,0
816.603,0.001008,0.01171875,-0.1640625,0.2792969,-1.617188,4.585938,25.8125,-0.01367188,-0.2148438,0.3085938,-0.02734375,-0.1992188,0,0.004516602,0.03308105,-2.174438,0,0,-2.275757,0.55896,3.761,0,0,0,0.5949707,nan,2,0.081,1,0,0.6218262,0.4842834,0.6424866,0.4871826,-0.001953125,-0.01074219,-0.0009765625,1,2,0
816.613,0.001009,-0.001953125,-0.2734375,0.3339844,3.796875,-1.359375,16.94531,-0.02929688,-0.1914062,0.3203125,-0.02539062,-0.1875,0,0.004394531,0.03112793,-2.171265,0,0,-2.275757,0.55896,3.761,0,0,0,0.5949707,nan,2,0.091,1,0,0.6594543,0.4402161,0.6774902,0.4586182,-0.001953125,-0.01074219,-0.0009765625,1,2,0
816.623,0.001008,-0.1582031,-0.07226562,0.3261719,-0.546875,0.1953125,-1.382812,-0.02148438,-0.1503906,0.3125,-0.02539062,-0.1757812,0,0.004394531,0.02941895,-2.167969,0,0,-2.275757,0.55896,3.761,0,0,0,0.5949707,nan,2,0.101,1,0,0.6256714,0.458252,0.6590271,0.4927979,-0.001953125,-0.01074219,-0.0009765625,1,2,0
816.633,0.001005,0.02734375,-0.0078125,0.3027344,-3.398438,-0.78125,19.42969,0.02148438,-0.125,0.3085938,-0.02734375,-0.1679688,0,0.004638672,0.02783203,-2.164917,0,0,-2.275757,0.55896,3.761,0,0,0,0.5949707,nan,2,0.111,1,0,0.6256714,0.4579163,0.6734314,0.4787598,-0.001953125,-0.01074219,-0.0009765625,1,2,0
816.642,0.00102,-0.0703125,-0.01171875,0.3222656,-1.039062,0.9296875,1.484375,0.02734375,-0.1054688,0.3164062,-0.02929688,-0.1601562,0,0.004760742,0.0267334,-2.161987,0,0,-2.275757,0.5631714,3.761,0,0,0,0.5999756,nan,2,0.003,1,0,0.635437,0.4573975,0.68573,0.4740906,-0.002929688,-0.01074219,-0.0009765625,1,2,0
816.652,0.00099,-0.0078125,0.1738281,0.3007812,-5.40625,-0.5546875,25.53906,0.02539062,-0.05078125,0.3085938,-0.03125,-0.1542969,0,0.005249023,0.02575684,-2.158813,0,0,-2.275757,0.5631714,3.761,0,0,0,0.5999756,nan,2,0.013,1,0,0.6189575,0.4554443,0.678894,0.4993286,-0.002929688,-0.01074219,-0.0009765625,1,2,0
816.662,0.001035,0.0390625,0.08398438,0.3046875,-3.507812,2.734375,10.05469,0.05664062,0,0.3066406,-0.03515625,-0.1523438,0,0.005737305,0.02539062,-2.155762,0,0,-2.275757,0.5631714,3.761,0,0,0,0.5999756,nan,2,0.023,1,0,0.6129456,0.4563599,0.6927795,0.4905396,-0.002929688,-0.01074219,-0.0009765625,1,2,0
816.672,0.000973,0.2246094,-0.1660156,0.3417969,4.445312,-3.492188,9.015625,0.03125,0.001953125,0.3144531,-0.03515625,-0.1542969,0,0.005981445,0.02563477,-2.152588,0,0,-2.275757,0.5631714,3.761,0,0,0,0.5999756,nan,2,0.033,1,0,0.6466064,0.4480286,0.7008667,0.4571228,-0.002929688,-0.01074219,-0.0009765625,1,2,0
816.682,0.001007,-0.02734375,0.1503906,0.28125,-1.210938,-2.992188,13.96875,0.01757812,0.04101562,0.2929688,-0.03710938,-0.1542969,0,0.006347656,0.02575684,-2.149536,0,0,-2.275757,0.5715637,3.761,0,0,0,0.6099854,nan,2,0.003,1,0,0.6095886,0.4772949,0.672821,0.5266113,-0.002929688,-0.01074219,-0.0009765625,1,2,0
816.692,0.000993,-0.07226562,0.2128906,0.3046875,-6.070312,4.9375,23.10938,0.009765625,0.05859375,0.3027344,-0.0390625,-0.15625,0,0.006591797,0.02612305,-2.146606,0,0,-2.275757,0.5715637,3.761,0,0,0,0.6099854,nan,2,0.013,1,0,0.6447754,0.4401245,0.7113647,0.4900513,-0.002929688,-0.01171875,-0.0009765625,1,2,0
816.703,0.001024,0.0703125,-0.1191406,0.2890625,4.25,-0.046875,25.80469,0.015625,0.009765625,0.2871094,-0.04101562,-0.1582031,0,0.006835938,0.02648926,-2.143677,0,0,-2.275757,0.5715637,3.761,0,0,0,0.6099854,nan,2,0.023,1,0,0.6316528,0.478363,0.6763611,0.499939,-0.002929688,-0.01171875,-0.0009765625,1,2,0
816.713,0.000993,0.078125,0.05664062,0.3007812,1.695312,-5.296875,0.921875,-0.009765625,0.02929688,0.2929688,-0.04101562,-0.1601562,0,0.006835938,0.0267334,-2.140747,0,0,-2.275757,0.5715637,3.761,0,0,0,0.6099854,nan,2,0.033,1,0,0.6343384,0.4607849,0.6916809,0.4995117,-0.002929688,-0.01171875,-0.0009765625,1,2,0
816.723,0.000998,-0.1171875,0.2148438,0.3066406,-6.078125,3.359375,12.55469,-0.009765625,0.04296875,0.2910156,-0.04101562,-0.1621094,0,0.006958008,0.02697754,-2.137817,0,0,-2.275757,0.5715637,3.761,0,0,0,0.6099854,nan,2,0.004,1,0,0.6414185,0.4466858,0.7003784,0.4978333,-0.002929688,-0.01171875,-0.0009765625,1,2,0
816.732,0.001026,0.08203125,-0.04101562,0.2871094,3.03125,-7.84375,-9.289062,0.009765625,0.0078125,0.2929688,-0.04101562,-0.1640625,0,0.006958008,0.02722168,-2.135132,0,0,-2.275757,0.5715637,3.761,0,0,0,0.6099854,nan,2,0.013,1,0,0.6324768,0.4720764,0.6869202,0.4948425,-0.002929688,-0.01171875,-0.0009765625,1,2,0
816.743,0.001011,0.06640625,-0.08203125,0.2890625,5.226562,-2.78125,21.39844,-0.0078125,0.02539062,0.2832031,-0.04101562,-0.1660156,0,0.006958008,0.02758789,-2.13208,0,0,-2.275757,0.5715637,3.761,0,0,0,0.6099854,nan,2,0.024,1,0,0.6439514,0.4547119,0.7008057,0.4868469,-0.002929688,-0.01171875,-0.0009765625,1,2,0
816.752,0.001012,0.00390625,0.07617188,0.2480469,-3.625,3.578125,19.75781,0.00390625,0.0390625,0.2773438,-0.04101562,-0.1679688,0,0.006958008,0.0279541,-2.129517,0,0,-2.275757,0.5715637,3.761,0,0,0,0.6099854,nan,2,0.033,1,0,0.6032715,0.4895325,0.6710205,0.5224915,-0.002929688,-0.01269531,-0.0009765625,1,2,0
816.762,0.001009,0.05859375,-0.09960938,0.28125,5.523438,-1.773438,27.78906,-0.01953125,0.009765625,0.2734375,-0.04101562,-0.1679688,0,0.006835938,0.02819824,-2.126709,0,0,-2.275757,0.5715637,3.761,0,0,0,0.6099854,nan,2,0.043,1,0,0.6309509,0.4719543,0.680603,0.5028076,-0.002929688,-0.01269531,-0.001953125,1,2,0
816.772,0.001025,0.1210938,-0.08007812,0.2382812,0.296875,-1,14.82031,-0.01171875,-0.009765625,0.265625,-0.0390625,-0.1699219,0,0.006469727,0.02832031,-2.123901,0,0,-2.275757,0.5715637,3.761,0,0,0,0.6099854,nan,2,0.054,1,0,0.6056519,0.5035095,0.6594849,0.5177002,-0.002929688,-0.01269531,-0.001953125,1,2,0
816.782,0.00098,-0.03125,-0.2480469,0.2890625,8.953125,-5.40625,-26.51562,-0.04492188,-0.0234375,0.2695312,-0.03710938,-0.1699219,0,0.006103516,0.02844238,-2.121216,0,0,-2.275757,0.5715637,3.592,0,0,0,0.6099854,nan,2,0.064,1,0,0.6497498,0.4641418,0.6836853,0.488739,-0.002929688,-0.01269531,-0.001953125,1,2,0
816.793,0.000994,-0.1660156,0.1621094,0.2539062,-2.710938,-1.242188,4.328125,-0.06640625,0.03125,0.265625,-0.03320312,-0.1699219,0,0.005737305,0.02844238,-2.11853,0,0,-2.275757,0.5757751,3.592,0,0,0,0.6149902,nan,2,0.002,1,0,0.619751,0.4704285,0.6734009,0.5395813,-0.002929688,-0.01269531,-0.001953125,1,2,0
816.803,0.001029,-0.1445312,0.1699219,0.2773438,-7.53125,2.390625,21.32812,-0.07226562,0.00390625,0.2695312,-0.03125,-0.1699219,0,0.005249023,0.02844238,-2.115845,0,0,-2.275757,0.5757751,3.592,0,0,0,0.6149902,nan,2,0.012,1,0,0.6494751,0.4497375,0.6929932,0.5109253,-0.002929688,-0.01367188,-0.001953125,1,2,0
816.813,0.001009,0.01953125,-0.06835938,0.2226562,2.164062,0.78125,27.82031,-0.07421875,-0.02734375,0.2460938,-0.02734375,-0.1679688,0,0.004638672,0.02807617,-2.113159,0,0,-2.275757,0.5757751,3.592,0,0,0,0.6149902,nan,2,0.022,1,0,0.6012878,0.5073853,0.6435852,0.5509033,-0.002929688,-0.01367188,-0.001953125,1,2,0
816.823,0.001008,0.015625,-0.1152344,0.2753906,4.695312,-2.734375,-8.21875,-0.08203125,-0.01953125,0.2597656,-0.0234375,-0.1679688,0,0.00390625,0.0279541,-2.110718,0,0,-2.275757,0.5757751,3.592,0,0,0,0.6149902,nan,2,0.032,1,0,0.651062,0.459137,0.6887817,0.5041809,-0.002929688,-0.01367188,-0.001953125,1,2,0.8412699
816.833,0.001009,-0.1367188,-0.01367188,0.2714844,-0.9921875,-0.6328125,-1.773438,-0.06640625,-0.03320312,0.2636719,-0.01953125,-0.1660156,0,0.003295898,0.02758789,-2.10791,0,0,-2.275757,0.5757751,3.592,0,0,0,0.6149902,nan,2,0.042,1,0,0.6299133,0.4761353,0.674408,0.5227051,-0.002929688,-0.01367188,-0.001953125,1,2,0
816.843,0.001008,-0.1328125,0.06640625,0.2460938,-3.351562,4.90625,28.8125,-0.08007812,-0.01757812,0.2441406,-0.015625,-0.1640625,0,0.002685547,0.02722168,-2.105469,0,0,-2.275757,0.5757751,3.592,0,0,0,0.6149902,nan,2,0.052,1,0,0.6190796,0.4819946,0.6595459,0.542511,-0.002929688,-0.01367188,-0.001953125,1,2,0
816.853,0.001008,0.1015625,-0.08398438,0.2460938,-1.945312,0.5546875,29.28906,-0.04296875,-0.0703125,0.2519531,-0.01367188,-0.1601562,0,0.002197266,0.0267334,-2.102905,0,0,-2.275757,0.5757751,3.592,0,0,0,0.6149902,nan,2,0.063,1,0,0.6367493,0.4840698,0.6789246,0.503418,-0.002929688,-0.01367188,-0.001953125,1,2,0
816.862,0.001012,-0.0078125,0.08984375,0.2441406,-4.023438,-0.6796875,9.945312,0.005859375,-0.04101562,0.2578125,-0.01171875,-0.15625,0,0.001953125,0.02624512,-2.100586,0,0,-2.275757,0.5757751,3.592,0,0,0,0.6149902,nan,2,0.072,1,0,0.6106873,0.493042,0.681488,0.5179138,-0.002929688,-0.01367188,-0.001953125,1,2,0
816.872,0.001012,-0.1699219,-0.005859375,0.2636719,1.703125,0.0625,0.34375,-0.04296875,-0.07421875,0.2578125,-0.009765625,-0.1523438,0,0.001586914,0.02539062,-2.098022,0,0,-2.275757,0.5757751,3.592,0,0,0,0.6149902,nan,2,0.082,1,0,0.6391602,0.4714661,0.6802673,0.5122681,-0.002929688,-0.01367188,-0.001953125,1,2,0
816.882,0.001015,0.08398438,0.06640625,0.2480469,-4.742188,5.0625,32.54688,0.01757812,-0.08789062,0.2421875,-0.0078125,-0.1464844,0,0.001342773,0.02453613,-2.095459,0,0,-2.275757,0.5757751,3.592,0,0,0,0.6149902,nan,2,0.092,1,0,0.6125183,0.5065918,0.6705933,0.5134277,-0.002929688,-0.01464844,-0.001953125,1,2,0
816.893,0.001015,0.3496094,-0.2226562,0.25,-0.59375,4.46875,10.35156,0.02929688,-0.1015625,0.2539062,-0.005859375,-0.1425781,0,0.001098633,0.02368164,-2.093018,0,0,-2.275757,0.5757751,3.592,0,0,0,0.6149902,nan,2,0.102,1,0,0.6285095,0.4991455,0.6911621,0.4843445,-0.002929688,-0.01464844,-0.001953125,1,2,0
816.903,0.001016,0.4257812,-0.3730469,0.2285156,4.40625,2.5625,7.28125,0.02929688,-0.09570312,0.2480469,-0.005859375,-0.1386719,0,0.001098633,0.02307129,-2.090332,0,0,-2.275757,0.5757751,3.592,0,0,0,0.6149902,nan,2,0.112,1,0,0.6158447,0.5176392,0.6632385,0.5064392,-0.002929688,-0.01464844,-0.001953125,1,2,0
816.913,0.001009,0.2011719,-0.1855469,0.2597656,3.9375,-3.101562,-26,-0.02734375,-0.06054688,0.2578125,-0.005859375,-0.1347656,0,0.001098633,0.02246094,-2.087769,0,0,-2.275757,0.5757751,3.592,0,0,0,0.6149902,nan,2,0.122,1,0,0.6408081,0.4743652,0.67276,0.5152283,-0.002929688,-0.01464844,-0.001953125,1,2,0
816.923,0.000999,-0.02148438,0.1191406,0.2714844,-1.59375,0.1953125,-8.25,-0.04296875,-0.005859375,0.2558594,-0.005859375,-0.1308594,0,0.001098633,0.02185059,-2.085205,0,0,-2.275757,0.5757751,3.592,0,0,0,0.6149902,nan,2,0.132,1,0,0.6305237,0.4574585,0.6832886,0.5318909,-0.002929688,-0.01464844,-0.001953125,1,2,0
816.933,0.001007,-0.2910156,0.1699219,0.25,-5.765625,-1.757812,39.17969,-0.07617188,-0.0234375,0.2519531,-0.0078125,-0.1289062,0,0.001220703,0.0213623,-2.082642,0,0,-2.275757,0.5757751,3.592,0,0,0,0.6149902,nan,2,0.007,1,0,0.6458435,0.4526672,0.6602478,0.5444031,-0.002929688,-0.01464844,-0.001953125,1,2,0
816.943,0.001008,-0.1796875,0.01171875,0.2246094,0.5859375,-3.515625,28.96094,-0.0625,-0.0390625,0.2578125,-0.005859375,-0.125,0,0.0008544922,0.02087402,-2.080078,0,0,-2.275757,0.5757751,3.592,0,0,0,0.6149902,nan,2,0.017,1,0,0.6341553,0.4725342,0.6653442,0.5310974,-0.002929688,-0.01464844,-0.001953125,1,2,0
816.952,0.001011,-0.0546875,-0.05664062,0.2792969,-3.390625,2.351562,26.28906,0.02929688,-0.07226562,0.25,-0.005859375,-0.1210938,0,0.0008544922,0.02026367,-2.077881,0,0,-2.275757,0.5757751,3.592,0,0,0,0.6149902,nan,2,0.026,1,0,0.6350403,0.4862061,0.6916199,0.4902954,-0.002929688,-0.01464844,-0.001953125,1,2,0
816.962,0.001008,0.1875,-0.2226562,0.234375,-0.765625,12.03906,27.30469,0.01171875,-0.09765625,0.2519531,-0.001953125,-0.1171875,0,0.0003662109,0.01953125,-2.075195,0,0,-2.275757,0.5757751,3.592,0,0,0,0.6149902,nan,2,0.036,1,0,0.6190491,0.5172729,0.6684265,0.4984131,-0.002929688,-0.01464844,-0.001953125,1,2,0
816.972,0.00101,0.03710938,0.0234375,0.2714844,-3.867188,2.96875,12.33594,0.03320312,-0.05859375,0.2539062,-0.001953125,-0.1132812,0,0.0003662109,0.0189209,-2.072632,0,0,-2.275757,0.5757751,3.592,0,0,0,0.6149902,nan,2,0.046,1,0,0.622467,0.492218,0.6865845,0.5018921,-0.002929688,-0.01464844,-0.001953125,1,2,0
816.982,0.001008,0.265625,-0.09765625,0.2441406,-3.085938,5.617188,21.39844,0.04492188,-0.07226562,0.2480469,0,-0.1113281,0,0,0.01843262,-2.07019,0,0,-2.275757,0.5757751,3.592,0,0,0,0.6149902,nan,2,0.057,1,0,0.6214905,0.5046082,0.6920166,0.4850464,-0.002929688,-0.01464844,-0.001953125,1,2,0
816.992,0.001005,0.3886719,-0.2675781,0.2128906,3.117188,1.367188,17.26562,0.06835938,-0.06835938,0.25,0,-0.1074219,0,-0.0001220703,0.01794434,-2.067627,0,0,-2.275757,0.5757751,3.592,0,0,0,0.6149902,nan,2,0.067,1,0,0.6100464,0.5166321,0.6820374,0.4944458,-0.002929688,-0.01464844,-0.001953125,1,2,0
817.003,0.00108,0.1894531,-0.1972656,0.2617188,4.351562,-1.828125,-18.01562,-0.0234375,-0.06835938,0.2441406,0,-0.1035156,0,-0.0001220703,0.01733398,-2.065186,0,0,-2.275757,0.5757751,3.592,0,0,0,0.6149902,nan,2,0.077,1,0,0.6398621,0.4830627,0.6653137,0.5149231,-0.002929688,-0.01464844,-0.001953125,1,2,0
817.013,0.0009860001,0.1855469,0.1132812,0.2402344,-0.90625,-5.21875,-25.58594,0.01367188,-0.00390625,0.2363281,0.001953125,-0.1015625,0,-0.0001220703,0.0168457,-2.062744,0,0,-2.275757,0.5757751,3.592,0,0,0,0.6149902,nan,2,0.087,1,0,0.5948486,0.493988,0.6747437,0.5395813,-0.002929688,-0.01464844,-0.001953125,1,2,0
817.023,0.001009,-0.265625,0.1835938,0.2695312,-5.90625,0.4296875,38.29688,-0.06835938,-0.02734375,0.2519531,0,-0.09765625,0,0,0.01611328,-2.060303,0,0,-2.275757,0.5757751,3.592,0,0,0,0.6149902,nan,2,0.097,1,0,0.6671143,0.4328613,0.68396,0.5191956,-0.002929688,-0.01464844,-0.001953125,1,2,0
817.033,0.000968,-0.2832031,0.1523438,0.2050781,-0.09375,0.1875,39.125,-0.04882812,-0.02148438,0.2324219,0,-0.09375,0,-0.0001220703,0.01574707,-2.057861,0,0,-2.275757,0.5799866,3.592,0,0,0,0.6199951,nan,2,0.008,1,0,0.618988,0.4918213,0.6461792,0.5629883,-0.002929688,-0.01464844,-0.001953125,1,2,0
817.043,0.001008,-0.3417969,-0.005859375,0.2382812,1.632812,-2.515625,24.26562,-0.0390625,-0.04296875,0.234375,0,-0.09179688,0,0.0001220703,0.01538086,-2.055542,0,0,-2.275757,0.5799866,3.592,0,0,0,0.6199951,nan,2,0.018,1,0,0.6474915,0.4744873,0.664093,0.5339355,-0.002929688,-0.015625,-0.001953125,1,2,0
817.053,0.001008,-0.2148438,-0.1796875,0.2695312,4.4375,-9.359375,-22.64062,0.0078125,-0.08789062,0.2441406,0,-0.08789062,0,0,0.01477051,-2.052979,0,0,-2.275757,0.5799866,3.592,0,0,0,0.6199951,nan,2,0.028,1,0,0.6481934,0.4945068,0.6730347,0.5042725,-0.002929688,-0.015625,-0.001953125,1,2,0
817.062,0.001012,0.4179688,-0.1796875,0.2207031,-0.125,6.859375,17.61719,0.09375,-0.06835938,0.2285156,0,-0.0859375,0,0,0.0144043,-2.050903,0,0,-2.275757,0.5799866,3.592,0,0,0,0.6199951,nan,2,0.037,1,0,0.5960693,0.543457,0.6747131,0.5057373,-0.002929688,-0.015625,-0.001953125,1,2,0
817.072,0.001009,0.109375,-0.01757812,0.2441406,-5.109375,8.195312,38.85938,-0.05078125,-0.04492188,0.234375,0,-0.08398438,0,-0.0001220703,0.01391602,-2.048584,0,0,-2.275757,0.5799866,3.592,0,0,0,0.6199951,nan,2,0.047,1,0,0.6442566,0.4767456,0.6741638,0.5248413,-0.002929688,-0.015625,-0.001953125,1,2,0
817.082,0.001012,0.2929688,-0.21875,0.2441406,-0.140625,8.125,23.13281,0.05859375,-0.078125,0.2421875,0.00390625,-0.08007812,0,-0.0007324219,0.01330566,-2.046143,0,0,-2.275757,0.5799866,3.592,0,0,0,0.6199951,nan,2,0.058,1,0,0.6190186,0.5213013,0.6972046,0.4825134,-0.001953125,-0.015625,-0.001953125,1,2,0
817.092,0.000993,0.2832031,-0.2382812,0.2148438,3.078125,2.429688,6.101562,-0.02734375,-0.1035156,0.2148438,0.005859375,-0.07421875,0,-0.0009765625,0.01245117,-2.043823,0,0,-2.275757,0.5884094,3.592,0,0,0,0.6300049,nan,2,0.007,1,0,0.6307373,0.5302124,0.6477051,0.5450439,-0.001953125,-0.015625,-0.001953125,1,2,0
817.103,0.0009869999,0.3125,-0.1816406,0.234375,2.984375,-5.210938,-13.22656,-0.005859375,-0.05859375,0.2402344,0.0078125,-0.0703125,0,-0.001220703,0.01159668,-2.041382,0,0,-2.275757,0.5884094,3.592,0,0,0,0.6300049,nan,2,0.017,1,0,0.6356201,0.5023804,0.6898499,0.5258484,-0.001953125,-0.015625,-0.001953125,1,2,0
817.113,0.001006,-0.1445312,-0.01953125,0.21875,-1.90625,-3.78125,0.5234375,-0.09179688,-0.05664062,0.2226562,0.005859375,-0.06445312,0,-0.001098633,0.01086426,-2.039062,0,0,-2.275757,0.5884094,3.592,0,0,0,0.6300049,nan,2,0.027,1,0,0.64328,0.4938965,0.6393738,0.5771484,-0.001953125,-0.015625,-0.001953125,1,2,0
817.123,0.001028,-0.2929688,0.1699219,0.2304688,-2.40625,5.664062,38.21875,-0.1152344,-0.01171875,0.2363281,0.0078125,-0.06054688,0,-0.001342773,0.01013184,-2.036743,0,0,-2.275757,0.5926208,3.592,0,0,0,0.6350098,nan,2,0.002,1,0,0.6627502,0.4640503,0.6721497,0.5715942,-0.001953125,-0.015625,-0.001953125,1,2,0
817.133,0.001014,-0.2871094,0.08398438,0.2382812,-2.476562,2.929688,28.8125,-0.0390625,-0.02148438,0.234375,0.0078125,-0.05664062,0,-0.001220703,0.009643555,-2.034302,0,0,-2.275757,0.5926208,3.592,0,0,0,0.6350098,nan,2,0.012,1,0,0.6503906,0.4866028,0.6793518,0.5541992,-0.001953125,-0.015625,-0.001953125,1,2,0
817.143,0.001008,-0.3085938,-0.1289062,0.2441406,0.90625,-2.25,23.46094,-0.03125,-0.07617188,0.2421875,0.00390625,-0.0546875,0,-0.0008544922,0.009155273,-2.03186,0,0,-2.275757,0.5926208,3.592,0,0,0,0.6350098,nan,2,0.022,1,0,0.6769714,0.4934082,0.6633911,0.5367737,-0.001953125,-0.015625,-0.001953125,1,2,0
817.153,0.001009,-0.08789062,0.001953125,0.2382812,0.984375,-6.125,28.13281,0.02148438,-0.05078125,0.2441406,0.005859375,-0.05078125,0,-0.0008544922,0.008544922,-2.029419,0,0,-2.275757,0.5926208,3.592,0,0,0,0.6350098,nan,2,0.032,1,0,0.6537476,0.4991455,0.6975098,0.5200806,-0.001953125,-0.015625,-0.002929688,1,2,0
817.162,0.001012,0.078125,0.1621094,0.234375,-6.703125,2.460938,20.92969,0.08398438,-0.01171875,0.2324219,0.001953125,-0.05078125,0,-0.0003662109,0.008300781,-2.027344,0,0,-2.275757,0.5926208,3.592,0,0,0,0.6350098,nan,2,0.041,1,0,0.6136169,0.5287781,0.6914978,0.5366516,-0.001953125,-0.015625,-0.002929688,1,2,0
817.172,0.001008,0.3125,-0.09179688,0.25,-1.953125,4.65625,12.6875,0.08984375,-0.02539062,0.2519531,0.001953125,-0.04882812,0,-0.0002441406,0.008178711,-2.02478,0,0,-2.275757,0.5926208,3.592,0,0,0,0.6350098,nan,2,0.051,1,0,0.6452026,0.5104065,0.7198486,0.4950562,-0.001953125,-0.015625,-0.002929688,1,2,0
817.182,0.001013,0.05078125,0.1621094,0.2753906,-5.53125,5.539062,17.70312,0.0703125,0.001953125,0.2441406,-0.001953125,-0.04882812,0,0.0002441406,0.008056641,-2.022339,0,0,-2.275757,0.5926208,3.592,0,0,0,0.6350098,nan,2,0.062,1,0,0.6439514,0.4995422,0.714386,0.5126343,-0.002929688,-0.015625,-0.002929688,1,2,0
817.192,0.001008,0.2109375,-0.046875,0.2558594,-3.6875,4.695312,8.25,0.06054688,-0.03515625,0.2636719,-0.001953125,-0.046875,0,0.0003662109,0.00793457,-2.019775,0,0,-2.275757,0.5926208,3.592,0,0,0,0.6350098,nan,2,0.072,1,0,0.6523438,0.5095825,0.712677,0.4959412,-0.002929688,-0.015625,-0.002929688,1,2,0.2222222
817.203,0.001071,0.5253906,-0.1679688,0.2382812,2.976562,1.84375,16.82031,0.08984375,-0.02148438,0.2441406,-0.001953125,-0.046875,0,0.0003662109,0.0078125,-2.017212,0,0,-2.275757,0.5926208,3.592,0,0,0,0.6350098,nan,2,0.082,1,0,0.6208801,0.5368958,0.7038574,0.5088806,-0.002929688,-0.015625,-0.002929688,1,2,0
817.213,0.001028,0.4550781,-0.2207031,0.2617188,7.265625,-2.148438,-1.125,0.07421875,-0.03125,0.2558594,-0.00390625,-0.046875,0,0.0006103516,0.0078125,-2.014648,0,0,-2.275757,0.5926208,3.592,0,0,0,0.6350098,nan,2,0.092,1,0,0.6509399,0.5154419,0.7110901,0.493042,-0.002929688,-0.015625,-0.002929688,1,2,0
817.223,0.001008,0.3027344,0.02929688,0.2382812,1.046875,-3.054688,15.02344,-0.01171875,0.005859375,0.2519531,-0.00390625,-0.046875,0,0.0006103516,0.00769043,-2.012085,0,0,-2.275757,0.5926208,3.592,0,0,0,0.6350098,nan,2,0.102,1,0,0.6364441,0.5033569,0.6895142,0.5411987,-0.002929688,-0.015625,-0.002929688,1,2,0
817.233,0.000977,0.06445312,0.0625,0.2382812,-4.117188,3.851562,19.25,-0.01757812,0.015625,0.2402344,-0.00390625,-0.046875,0,0.0006103516,0.00769043,-2.009644,0,0,-2.275757,0.5926208,3.592,0,0,0,0.6350098,nan,2,0.009,1,0,0.6382446,0.5023193,0.6799927,0.5499573,-0.002929688,-0.015625,-0.002929688,1,2,0
817.243,0.001008,-0.1171875,0.06640625,0.25,-3.992188,6.421875,-4.625,-0.04882812,-0.01757812,0.265625,-0.00390625,-0.04492188,0,0.0004882812,0.007446289,-2.006958,0,0,-2.275757,0.5926208,3.592,0,0,0,0.6350098,nan,2,0.019,1,0,0.6714478,0.4775085,0.6914062,0.5301514,-0.002929688,-0.015625,-0.002929688,1,2,0
817.252,0.001027,-0.1230469,-0.1875,0.2578125,7.335938,-2.890625,14.30469,-0.04296875,-0.02929688,0.2460938,-0.001953125,-0.04492188,0,0.0004882812,0.007446289,-2.004761,0,0,-2.275757,0.5926208,3.592,0,0,0,0.6350098,nan,2,0.028,1,0,0.6594238,0.5,0.6713562,0.5397339,-0.002929688,-0.015625,-0.002929688,1,2,0
817.262,0.001008,-0.2226562,-0.02539062,0.25,-0.2265625,0.09375,20.61719,-0.07617188,-0.0234375,0.2617188,0,-0.04296875,0,0,0.007202148,-2.002075,0,0,-2.275757,0.5926208,3.592,0,0,0,0.6350098,nan,2,0.038,1,0,0.6670227,0.4847412,0.6798401,0.5388794,-0.002929688,-0.015625,-0.002929688,1,2,0
817.272,0.001006,-0.234375,0.1386719,0.2695312,-6.671875,0.0859375,-5.5,-0.07226562,-0.01757812,0.2480469,0.001953125,-0.04101562,0,-0.0003662109,0.006835938,-1.999512,0,0,-2.275757,0.5926208,3.592,0,0,0,0.6350098,nan,2,0.048,1,0,0.6584778,0.4873047,0.6813049,0.5434265,-0.001953125,-0.015625,-0.002929688,1,2,0
817.282,0.001025,-0.1015625,-0.0546875,0.2519531,1.015625,-0.3671875,19.89062,-0.0546875,-0.03710938,0.265625,0.005859375,-0.0390625,0,-0.0008544922,0.006469727,-1.996948,0,0,-2.275757,0.5421143,3.592,0,0,0,0.5750122,nan,2,0.007,1,0,0.6159668,0.4386292,0.6408386,0.4729919,-0.001953125,-0.015625,-0.002929688,1,2,0
817.292,0.001013,-0.234375,0.109375,0.234375,-6.140625,-0.40625,2.390625,-0.07421875,-0.02148438,0.2460938,0.0078125,-0.03710938,0,-0.001220703,0.006103516,-1.994385,0,0,-2.275757,0.5421143,3.592,0,0,0,0.5750122,nan,2,0.017,1,0,0.5958862,0.4467468,0.618927,0.5068359,-0.001953125,-0.015625,-0.002929688,1,2,0
817.303,0.001076,-0.06835938,0.06835938,0.265625,-5.71875,-0.859375,-7.882812,-0.04492188,-0.03320312,0.2578125,0.009765625,-0.03515625,0,-0.001831055,0.005737305,-1.991821,0,0,-2.275757,0.5421143,3.592,0,0,0,0.5750122,nan,2,0.027,1,0,0.6171265,0.4323425,0.6525879,0.4663696,-0.001953125,-0.015625,-0.002929688,1,2,0.5555556
817.313,0.001007,0.005859375,-0.1445312,0.2480469,5.328125,2.09375,8.875,-0.0546875,-0.04882812,0.2460938,0.015625,-0.03125,0,-0.002441406,0.005249023,-1.989258,0,0,-2.275757,0.5421143,3.592,0,0,0,0.5750122,nan,2,0.037,1,0,0.5958862,0.4639587,0.6219788,0.4866028,-0.001953125,-0.015625,-0.002929688,1,2,0
817.323,0.001013,0.01953125,-0.1640625,0.2734375,6.945312,-0.21875,22.83594,-0.05273438,-0.05664062,0.2558594,0.01757812,-0.02929688,0,-0.003051758,0.004882812,-1.986816,0,0,-2.275757,0.5421143,3.592,0,0,0,0.5750122,nan,2,0.047,1,0,0.6371155,0.4261475,0.6562805,0.4488831,-0.001953125,-0.015625,-0.002929688,1,2,0
817.333,0.000984,-0.07421875,0.05273438,0.2285156,-4.976562,1.367188,20.76562,-0.04296875,-0.03320312,0.2539062,0.01953125,-0.02539062,0,-0.003417969,0.004394531,-1.984131,0,0,-2.275757,0.44104,3.592,0,0,0,0.4550171,nan,2,0.008,1,0,0.4830322,0.3616028,0.5132446,0.406311,-0.001953125,-0.015625,-0.002929688,1,2,0
817.343,0.001009,-0.06054688,0.01757812,0.2539062,-4.78125,-1.515625,-10.47656,-0.03515625,-0.046875,0.2363281,0.02148438,-0.0234375,0,-0.003662109,0.00402832,-1.981689,0,0,-2.275757,0.44104,3.592,0,0,0,0.4550171,nan,2,0.018,1,0,0.4984436,0.3578186,0.5203247,0.3876038,-0.001953125,-0.015625,-0.002929688,1,2,0
817.352,0.001057,-0.078125,0.03515625,0.2382812,-1.90625,0.9296875,16.86719,0.009765625,-0.04492188,0.25,0.02148438,-0.02148438,0,-0.003662109,0.003540039,-1.979492,0,0,-2.275757,0.44104,3.592,0,0,0,0.4550171,nan,2,0.027,1,0,0.502594,0.3476562,0.538208,0.3757629,-0.001953125,-0.015625,-0.002929688,1,2,0
817.362,0.000982,-0.1582031,0.1113281,0.1855469,-4.835938,3.328125,31.32031,-0.05273438,-0.01953125,0.2148438,0.02148438,-0.01953125,0,-0.003540039,0.003173828,-1.977051,0,0,-2.275757,0.44104,3.592,0,0,0,0.4550171,nan,2,0.037,1,0,0.4665833,0.3749084,0.4801636,0.4425354,-0.001953125,-0.015625,-0.002929688,1,2,0
817.373,0.001297,0.1621094,-0.1074219,0.2421875,-3.273438,-2.25,-1.148438,0.01367188,-0.04296875,0.2324219,0.0234375,-0.01757812,0,-0.00390625,0.002929688,-1.974854,0,0,-2.275757,0.3273621,3.592,0,0,0,0.3200073,nan,2,0.001,1,0,0.3955383,0.2357483,0.4324646,0.2457275,-0.001953125,-0.015625,-0.002929688,1,2,0
817.382,0.001006,0.07226562,-0.078125,0.1914062,1.375,0.4296875,24.89844,-0.0078125,-0.0625,0.2148438,0.0234375,-0.01367188,0,-0.00390625,0.002319336,-1.972534,0,0,-2.275757,0.3273621,3.592,0,0,0,0.3200073,nan,2,0.011,1,0,0.3587646,0.2723083,0.380127,0.2982788,-0.001953125,-0.015625,-0.002929688,1,2,0
817.392,0.001005,0.0859375,-0.08007812,0.2285156,-3.421875,-5.515625,-7.953125,0.06640625,-0.078125,0.2246094,0.02148438,-0.009765625,0,-0.003662109,0.001586914,-1.970337,0,0,-2.275757,0.3273621,3.592,0,0,0,0.3200073,nan,2,0.021,1,0,0.3815002,0.2546997,0.4258728,0.247406,-0.001953125,-0.015625,-0.002929688,1,2,0
817.402,0.001009,-0.0703125,0.08789062,0.1875,-4.289062,-2.046875,17.58594,-0.00390625,-0.08203125,0.203125,0.01953125,-0.00390625,0,-0.003417969,0.0008544922,-1.96814,0,0,-2.275757,0.3273621,3.592,0,0,0,0.3200073,nan,2,0.031,1,0,0.3597717,0.270874,0.3733521,0.3055115,-0.001953125,-0.015625,-0.002929688,1,2,0
817.413,0.001007,0.171875,-0.2402344,0.2246094,-0.5,-6.664062,5.039062,0.04101562,-0.1503906,0.2109375,0.01953125,0.00390625,0,-0.003173828,-0.0004882812,-1.966064,0,0,-2.275757,0.3273621,3.592,0,0,0,0.3200073,nan,2,0.041,1,0,0.3920593,0.2601318,0.4092712,0.2480164,-0.001953125,-0.015625,-0.002929688,1,2,0
817.423,0.001,-0.04101562,-0.140625,0.1992188,-0.8671875,-2.390625,-2.640625,0.04101562,-0.1503906,0.1972656,0.01757812,0.01171875,0,-0.002807617,-0.001953125,-1.963989,0,0,-2.275757,0.3273621,3.592,0,0,0,0.3200073,nan,2,0.051,1,0,0.3719482,0.277771,0.3851929,0.2745667,-0.001953125,-0.01464844,-0.002929688,1,2,0
817.433,0.001013,-0.1308594,-0.01171875,0.171875,-0.8359375,8.265625,14.42188,-0.01953125,-0.1269531,0.1914062,0.015625,0.01953125,0,-0.002563477,-0.003295898,-1.962036,0,0,-2.275757,0.2347412,3.724,0,0,0,0.210022,nan,2,0.005,1,0,0.2881165,0.1717224,0.2815857,0.1975403,-0.001953125,-0.01464844,-0.002929688,1,2,0
817.442,0.001015,-0.1914062,0.005859375,0.1894531,-3.015625,-1.882812,8.78125,-0.009765625,-0.1640625,0.1875,0.01367188,0.02929688,0,-0.002319336,-0.004882812,-1.960327,0,0,-2.275757,0.2347412,3.724,0,0,0,0.210022,nan,2,0.014,1,0,0.2895203,0.1723328,0.286377,0.1907349,-0.001953125,-0.01464844,-0.002929688,1,2,0
817.452,0.001032,-0.015625,-0.009765625,0.1582031,-3.960938,4.414062,6.90625,-0.01953125,-0.1542969,0.1816406,0.01367188,0.0390625,0,-0.002319336,-0.006469727,-1.958374,0,0,-2.275757,0.2347412,3.724,0,0,0,0.210022,nan,2,0.024,1,0,0.2773743,0.1817322,0.2783508,0.2015076,-0.001953125,-0.01464844,-0.002929688,1,2,0
817.462,0.001037,0.05273438,-0.140625,0.1738281,-3.054688,6.210938,8.609375,-0.005859375,-0.1601562,0.1738281,0.01367188,0.05078125,0,-0.002319336,-0.008422852,-1.956543,0,0,-2.275757,0.2347412,3.724,0,0,0,0.210022,nan,2,0.034,1,0,0.2765808,0.1806641,0.2882996,0.1934204,-0.001953125,-0.01464844,-0.002929688,1,2,0
817.472,0.001026,0.08984375,-0.03320312,0.1386719,-4.25,1.28125,10.10938,-0.015625,-0.1328125,0.1699219,0.015625,0.06054688,0,-0.002563477,-0.01013184,-1.954834,0,0,-2.275757,0.2347412,3.724,0,0,0,0.210022,nan,2,0.044,1,0,0.2646179,0.188446,0.2821045,0.2037964,-0.001953125,-0.01367188,-0.002929688,1,2,0
817.482,0.001012,-0.005859375,-0.2480469,0.1347656,-4.0625,-2.328125,5.328125,-0.02539062,-0.1699219,0.1640625,0.015625,0.0703125,0,-0.002807617,-0.01171875,-1.953125,0,0,-2.275757,0.2052612,3.724,0,0,0,0.1749878,nan,2,0.009,1,0,0.2463074,0.1729126,0.2337341,0.1681213,-0.001953125,-0.01367188,-0.002929688,1,2,0
817.492,0.001012,-0.02734375,-0.1835938,0.1445312,-1.664062,4.984375,3.460938,-0.0390625,-0.1445312,0.1601562,0.01953125,0.08007812,0,-0.003173828,-0.01330566,-1.951416,0,0,-2.275757,0.2052612,3.724,0,0,0,0.1749878,nan,2,0.019,1,0,0.2492371,0.1576233,0.2496338,0.1645813,-0.001953125,-0.01367188,-0.002929688,1,2,0
817.503,0.001074,-0.04492188,-0.2246094,0.1464844,-1.5625,5.796875,-3.890625,-0.04296875,-0.1640625,0.1582031,0.02148438,0.08984375,0,-0.003662109,-0.01489258,-1.949829,0,0,-2.275757,0.2052612,3.724,0,0,0,0.1749878,nan,2,0.029,1,0,0.2581482,0.1607666,0.243988,0.1581421,-0.001953125,-0.01367188,-0.002929688,1,2,0
817.513,0.00101,-0.00390625,-0.2304688,0.1835938,0.8671875,-4.101562,0.6171875,-0.04101562,-0.1699219,0.1484375,0.02539062,0.09960938,0,-0.004150391,-0.01647949,-1.948364,0,0,-2.275757,0.2052612,3.724,0,0,0,0.1749878,nan,2,0.039,1,0,0.2662354,0.1557007,0.2505188,0.1485901,-0.001953125,-0.01269531,-0.002929688,1,2,0
817.523,0.001014,-0.03320312,-0.1972656,0.1367188,4.59375,-2.6875,9.679688,-0.02929688,-0.1367188,0.1386719,0.02539062,0.1074219,0,-0.004394531,-0.01794434,-1.946777,0,0,-2.275757,0.2052612,3.724,0,0,0,0.1749878,nan,2,0.049,1,0,0.2359009,0.1782227,0.2261353,0.1807556,-0.001953125,-0.01269531,-0.002929688,1,2,0
817.533,0.000964,-0.02148438,0.03320312,0.1171875,-4.695312,1.164062,11.84375,-0.01953125,-0.1015625,0.1347656,0.02734375,0.1152344,0,-0.004638672,-0.01916504,-1.945435,0,0,-2.275757,0.1799927,3.724,0,0,0,0.1450195,nan,2,0.008,1,0,0.2154236,0.1354675,0.2250977,0.144043,-0.001953125,-0.01269531,-0.002929688,1,2,0
817.543,0.001008,0.04882812,0.01367188,0.2011719,-1.070312,-6.132812,3.679688,-0.009765625,-0.1015625,0.140625,0.02929688,0.1230469,0,-0.004882812,-0.02038574,-1.944092,0,0,-2.275757,0.1799927,3.724,0,0,0,0.1450195,nan,2,0.018,1,0,0.2388306,0.1193848,0.2433472,0.1184387,-0.001953125,-0.01269531,-0.002929688,1,2,0
817.552,0.00105,-0.005859375,-0.02734375,0.09179688,-3.992188,6.0625,4.648438,-0.01953125,-0.09375,0.1289062,0.03125,0.1269531,0,-0.005126953,-0.02124023,-1.942871,0,0,-2.275757,0.1799927,3.724,0,0,0,0.1450195,nan,2,0.027,1,0,0.217926,0.1417542,0.2148132,0.1454773,-0.0009765625,-0.01269531,-0.002929688,1,2,0
817.562,0.001053,0.09179688,-0.2109375,0.1992188,4.429688,-3.21875,0.8515625,0.009765625,-0.1171875,0.1289062,0.03125,0.1328125,0,-0.005249023,-0.02209473,-1.94165,0,0,-2.275757,0.1799927,3.724,0,0,0,0.1450195,nan,2,0.037,1,0,0.2386475,0.1405029,0.226532,0.1142883,-0.0009765625,-0.01171875,-0.002929688,1,2,0
817.572,0.001008,-0.08984375,-0.04101562,0.00390625,-3.773438,8.140625,4.140625,-0.001953125,-0.0546875,0.1113281,0.03125,0.1367188,0,-0.005249023,-0.02282715,-1.940308,0,0,-2.275757,0.1799927,3.724,0,0,0,0.1450195,nan,2,0.047,1,0,0.1864929,0.166687,0.1880188,0.1788025,-0.0009765625,-0.01171875,-0.002929688,1,2,0
817.582,0.001013,-0.00390625,0.0625,0.1699219,-7.226562,2.34375,2.265625,0.0078125,-0.02539062,0.1191406,0.03125,0.1386719,0,-0.005249023,-0.02307129,-1.939331,0,0,-2.275757,0.1589355,3.724,0,0,0,0.1199951,nan,2,0.009,1,0,0.2314758,0.08239746,0.2363892,0.08551025,-0.0009765625,-0.01171875,-0.002929688,1,2,0
817.592,0.000998,0.001953125,-0.1269531,-0.001953125,2.46875,2.539062,6.21875,0.005859375,-0.04296875,0.09570312,0.03125,0.140625,0,-0.005004883,-0.0234375,-1.93811,0,0,-2.275757,0.1589355,3.724,0,0,0,0.1199951,nan,2,0.019,1,0,0.1437988,0.1785583,0.1340942,0.1793213,-0.0009765625,-0.01171875,-0.002929688,1,2,0
817.603,0.001061,-0.05078125,-0.0390625,0.1992188,-0.6484375,-4.820312,2.695312,0.009765625,-0.03710938,0.1210938,0.02929688,0.1425781,0,-0.004882812,-0.02380371,-1.937012,0,0,-2.275757,0.1589355,3.724,0,0,0,0.1199951,nan,2,0.029,1,0,0.2314758,0.08618164,0.2287598,0.08938599,-0.0009765625,-0.01171875,-0.002929688,1,2,0
817.612,0.001008,-0.05273438,0.1015625,0,-3.6875,2.007812,7.890625,0.009765625,0.001953125,0.09960938,0.02734375,0.1445312,0,-0.004638672,-0.02404785,-1.935913,0,0,-2.275757,0.1589355,3.724,0,0,0,0.1199951,nan,2,0.039,1,0,0.1717529,0.127655,0.1830139,0.1533813,-0.0009765625,-0.01074219,-0.002929688,1,2,0
817.623,0.00101,0.06054688,-0.05859375,0.1230469,2.0625,-1.054688,6.46875,0.046875,-0.0234375,0.09179688,0.02539062,0.1464844,0,-0.004394531,-0.02429199,-1.934937,0,0,-2.275757,0.1589355,3.724,0,0,0,0.1199951,nan,2,0.049,1,0,0.1679688,0.1506042,0.1784668,0.1387634,-0.0009765625,-0.01074219,-0.002929688,1,2,0
817.633,0.001031,-0.05664062,-0.06445312,0.1972656,1.140625,0.984375,-1.265625,0.01757812,-0.02148438,0.1152344,0.02539062,0.1464844,0,-0.00402832,-0.02441406,-1.93396,0,0,-2.275757,0.1421204,3.724,0,0,0,0.09997559,nan,2,0.006,1,0,0.2187195,0.06835938,0.2120056,0.06933594,-0.0009765625,-0.01074219,-0.002929688,1,2,0
817.642,0.001041,0.00390625,0.08984375,0.1738281,-5.25,-3.445312,4.953125,0.03320312,-0.001953125,0.1132812,0.0234375,0.1464844,0,-0.00378418,-0.02453613,-1.933105,0,0,-2.275757,0.1421204,3.724,0,0,0,0.09997559,nan,2,0.015,1,0,0.2105103,0.06625366,0.2207031,0.07095337,-0.0009765625,-0.01074219,-0.00390625,1,2,0
817.652,0.001032,0.09375,-0.08789062,-0.001953125,3.664062,5.726562,-1.367188,0.04101562,-0.01953125,0.08984375,0.02148438,0.1484375,0,-0.003417969,-0.02453613,-1.932129,0,0,-2.275757,0.1421204,3.724,0,0,0,0.09997559,nan,2,0.025,1,0,0.1598816,0.1270752,0.1652832,0.1161804,-0.0009765625,-0.01074219,-0.00390625,1,2,0
817.662,0.00106,0.06054688,0.02148438,0.03710938,0.484375,-2.976562,5.828125,0.03515625,-0.001953125,0.07226562,0.01953125,0.1484375,0,-0.003173828,-0.0246582,-1.931274,0,0,-2.275757,0.1421204,3.724,0,0,0,0.09997559,nan,2,0.035,1,0,0.1278076,0.1524048,0.13974,0.148468,-0.0009765625,-0.01074219,-0.00390625,1,2,0
817.672,0.001026,0.0078125,0.04101562,0.0625,-4.21875,2.148438,7.101562,0.01757812,-0.005859375,0.06445312,0.01757812,0.1484375,0,-0.002929688,-0.0246582,-1.93042,0,0,-2.275757,0.1421204,3.724,0,0,0,0.09997559,nan,2,0.045,1,0,0.1341553,0.1498413,0.1336365,0.1507874,-0.0009765625,-0.009765625,-0.00390625,1,2,0
817.682,0.001025,-0.0234375,-0.03710938,0.08398438,-0.078125,0.265625,1.773438,0.01367188,0.001953125,0.08203125,0.015625,0.1484375,0,-0.002685547,-0.0246582,-1.929688,0,0,-2.275757,0.1294861,3.724,0,0,0,0.08502197,nan,2,0.005,1,0,0.1792908,0.07366943,0.1831665,0.08178711,-0.0009765625,-0.009765625,-0.00390625,1,2,0
817.692,0.001017,0.046875,-0.078125,0.1230469,4.179688,-4.054688,1.140625,0.01953125,-0.015625,0.09570312,0.015625,0.1484375,0,-0.002563477,-0.02478027,-1.928833,0,0,-2.275757,0.1294861,3.724,0,0,0,0.08502197,nan,2,0.015,1,0,0.1895752,0.0718689,0.1924744,0.06396484,-0.0009765625,-0.009765625,-0.00390625,1,2,0
817.702,0.00102,-0.009765625,-0.09765625,-0.00390625,1.328125,-1.125,-2.195312,0.01171875,-0.01953125,0.07226562,0.01367188,0.1484375,0,-0.002441406,-0.02490234,-1.928101,0,0,-2.275757,0.1294861,3.724,0,0,0,0.08502197,nan,2,0.025,1,0,0.1426086,0.1216736,0.1358643,0.1177368,-0.0009765625,-0.009765625,-0.00390625,1,2,0
817.713,0.00107,0.03515625,-0.21875,0.05859375,5.195312,1.421875,-2.421875,0.01757812,-0.06445312,0.078125,0.01367188,0.1503906,0,-0.002319336,-0.02514648,-1.927368,0,0,-2.275757,0.1294861,3.724,0,0,0,0.08502197,nan,2,0.035,1,0,0.1665039,0.1187134,0.1443176,0.08834839,-0.0009765625,-0.009765625,-0.00390625,1,2,0
817.723,0.001011,-0.005859375,-0.06054688,0.015625,-2.65625,-6.789062,0.5703125,0.005859375,-0.03125,0.06835938,0.01367188,0.1523438,0,-0.002197266,-0.02526855,-1.926636,0,0,-2.275757,0.1294861,3.724,0,0,0,0.08502197,nan,2,0.045,1,0,0.1442261,0.1235657,0.1360779,0.1140137,-0.0009765625,-0.009765625,-0.00390625,1,2,0
817.733,0.00096,0.07617188,-0.2949219,0.015625,8.625,5.53125,-2.8125,0.01171875,-0.06445312,0.0703125,0.01367188,0.1523438,0,-0.002197266,-0.0255127,-1.925903,0,0,-2.275757,0.1210632,3.724,0,0,0,0.07501221,nan,2,0.007,1,0,0.1497192,0.1213074,0.1276855,0.08547974,-0.0009765625,-0.008789062,-0.00390625,1,2,0
817.743,0.001009,0.04492188,-0.1738281,0.03710938,-1.148438,-3.609375,-0.1640625,0.009765625,-0.07226562,0.0703125,0.01367188,0.1542969,0,-0.002197266,-0.02575684,-1.925171,0,0,-2.275757,0.1210632,3.724,0,0,0,0.07501221,nan,2,0.017,1,0,0.1474915,0.1269836,0.1205444,0.08917236,-0.0009765625,-0.008789062,-0.00390625,1,2,0
817.753,0.001009,0.1035156,-0.2480469,0.08203125,4.007812,-2.804688,-0.640625,0.02929688,-0.06054688,0.08203125,0.01171875,0.15625,0,-0.002075195,-0.02600098,-1.924438,0,0,-2.275757,0.1210632,3.724,0,0,0,0.07501221,nan,2,0.027,1,0,0.1729431,0.09329224,0.1626587,0.05529785,-0.0009765625,-0.008789062,-0.00390625,1,2,0
817.762,0.001011,-0.0078125,-0.1699219,0.1054688,4.335938,-0.1328125,3.265625,-0.009765625,-0.005859375,0.078125,0.01171875,0.1582031,0,-0.002075195,-0.02624512,-1.923706,0,0,-2.275757,0.1210632,3.724,0,0,0,0.07501221,nan,2,0.036,1,0,0.1674194,0.06964111,0.1641541,0.08297729,-0.0009765625,-0.008789062,-0.00390625,1,2,0
817.772,0.001009,-0.009765625,-0.07226562,0.06054688,0.3671875,2.046875,4.117188,-0.005859375,0.009765625,0.0703125,0.01171875,0.1601562,0,-0.001953125,-0.02661133,-1.923096,0,0,-2.275757,0.1210632,3.724,0,0,0,0.07501221,nan,2,0.046,1,0,0.1418152,0.08456421,0.1508484,0.1069946,-0.0009765625,-0.008789062,-0.00390625,1,2,0
817.782,0.001012,0.04492188,-0.2578125,0.140625,2.523438,-1.484375,2.195312,0.001953125,-0.03515625,0.08398438,0.01171875,0.1621094,0,-0.001831055,-0.02697754,-1.922363,0,0,-2.275757,0.1210632,3.724,0,0,0,0.07501221,nan,2,0.057,1,0,0.1850586,0.06643677,0.1747742,0.05792236,-0.0009765625,-0.0078125,-0.00390625,1,2,0
817.792,0.00101,-0.001953125,0.07617188,0.0859375,-5.015625,-1.164062,7.054688,-0.01367188,0.04492188,0.07421875,0.009765625,0.1640625,0,-0.001708984,-0.02746582,-1.921631,0,0,-2.275757,0.1210632,3.724,0,0,0,0.07501221,nan,2,0.067,1,0,0.1445618,0.06176758,0.1694336,0.108429,-0.0009765625,-0.0078125,-0.00390625,1,2,0
817.802,0.001014,-0.04882812,0.3574219,0.03515625,-5.40625,0.0234375,8.539062,-0.01953125,0.08007812,0.06054688,0.009765625,0.1679688,0,-0.001586914,-0.0279541,-1.921021,0,0,-2.275757,0.1210632,3.724,0,0,0,0.07501221,nan,2,0.077,1,0,0.1100769,0.07513428,0.152832,0.1461487,-0.0009765625,-0.0078125,-0.00390625,1,2,0
817.813,0.00101,-0.1308594,0.3046875,0.04296875,-1.21875,2.210938,5.195312,-0.005859375,0.001953125,0.0625,0.0078125,0.1699219,0,-0.001342773,-0.02844238,-1.920288,0,0,-2.275757,0.1210632,3.724,0,0,0,0.07501221,nan,2,0.087,1,0,0.1300049,0.09674072,0.1351929,0.1222839,-0.0009765625,-0.0078125,-0.00390625,1,2,0
817.823,0.001009,-0.2421875,0.1074219,0.06835938,-0.0703125,-0.9453125,2.703125,0.005859375,-0.1054688,0.06835938,0.005859375,0.1738281,0,-0.001098633,-0.02880859,-1.919556,0,0,-2.275757,0.1210632,3.724,0,0,0,0.07501221,nan,2,0.097,1,0,0.16745,0.117157,0.1164551,0.08312988,-0.0009765625,-0.0078125,-0.00390625,1,2,0
817.833,0.001009,-0.0546875,-0.1582031,0.07421875,0.2421875,-4.15625,2.382812,0.03710938,-0.1269531,0.0625,0.00390625,0.1738281,0,-0.0007324219,-0.02905273,-1.918945,0,0,-2.275757,0.1210632,3.724,0,0,0,0.07501221,nan,2,0.107,1,0,0.1645813,0.1394348,0.1096802,0.07052612,-0.0009765625,-0.006835938,-0.00390625,1,2,0
817.843,0.001009,0.1601562,-0.2753906,0.08789062,2.390625,-0.1171875,1.554688,0.07421875,-0.04296875,0.05859375,0.001953125,0.1757812,0,-0.0004882812,-0.0291748,-1.918335,0,0,-2.275757,0.1210632,3.724,0,0,0,0.07501221,nan,2,0.117,1,0,0.1296692,0.1370239,0.1340332,0.08346558,-0.0009765625,-0.006835938,-0.00390625,1,2,0
817.853,0.001035,0.2148438,0.015625,0.09570312,-0.5625,3.429688,3.695312,0.0625,0.0625,0.0703125,0,0.1757812,0,-0.0001220703,-0.02929688,-1.917603,0,0,-2.275757,0.1210632,3.724,0,0,0,0.07501221,nan,2,0.127,1,0,0.1333923,0.07946777,0.184845,0.08651733,-0.001953125,-0.006835938,-0.00390625,1,2,0
817.862,0.001011,-0.06835938,0.28125,0.1523438,-2.484375,-2.421875,3.867188,0.005859375,-0.00390625,0.07617188,-0.001953125,0.1777344,0,0.0002441406,-0.02941895,-1.916992,0,0,-2.275757,0.1210632,3.724,0,0,0,0.07501221,nan,2,0.136,1,0,0.1806946,0.06210327,0.168335,0.07305908,-0.001953125,-0.006835938,-0.00390625,1,2,0
817.872,0.000999,-0.1035156,-0.03320312,0.1308594,0.171875,-3,7.820312,0.03125,-0.04296875,0.07226562,-0.00390625,0.1777344,0,0.0007324219,-0.02941895,-1.916382,0,0,-2.275757,0.1210632,3.724,0,0,0,0.07501221,nan,2,0.146,1,0,0.1781311,0.09262085,0.150116,0.06335449,-0.001953125,-0.006835938,-0.00390625,1,2,0
817.882,0.001056,-0.02929688,-0.00390625,0.001953125,-0.6875,-0.3828125,7.640625,0.04492188,0.005859375,0.05078125,-0.0078125,0.1757812,0,0.001220703,-0.02941895,-1.915771,0,0,-2.275757,0.1210632,3.724,0,0,0,0.07501221,nan,2,0.157,1,0,0.112793,0.1350708,0.1136475,0.1226807,-0.001953125,-0.005859375,-0.00390625,1,2,0
817.892,0.000989,0.1464844,-0.08984375,-0.01953125,4.226562,1.210938,-1.28125,0.08203125,0.01171875,0.05273438,-0.009765625,0.1757812,0,0.001708984,-0.02929688,-1.915039,0,0,-2.275757,0.1210632,3.724,0,0,0,0.07501221,nan,2,0.167,1,0,0.102478,0.1462708,0.1239624,0.1114807,-0.001953125,-0.005859375,-0.00390625,1,2,0
817.903,0.001002,0.1640625,-0.3535156,0.07226562,8.554688,3.1875,-6.09375,0.0703125,-0.02539062,0.0625,-0.01367188,0.1757812,0,0.002197266,-0.02929688,-1.914551,0,0,-2.275757,0.1210632,3.724,0,0,0,0.07501221,nan,2,0.177,1,0,0.1572266,0.1166992,0.1500244,0.06027222,-0.001953125,-0.005859375,-0.00390625,1,2,0
817.913,0.001037,0.05664062,-0.2929688,0.08203125,5.210938,3.914062,3.007812,0.05273438,0.03125,0.06445312,-0.015625,0.1738281,0,0.002685547,-0.02905273,-1.913818,0,0,-2.275757,0.1210632,3.724,0,0,0,0.07501221,nan,2,0.187,1,0,0.1421204,0.1054688,0.151886,0.0847168,-0.001953125,-0.005859375,-0.00390625,1,2,0
817.923,0.000994,-0.04101562,0.1738281,0.02148438,-0.9609375,1.367188,4.304688,0.02539062,0.04882812,0.05859375,-0.01757812,0.1738281,0,0.003051758,-0.02893066,-1.913208,0,0,-2.275757,0.1210632,3.724,0,0,0,0.07501221,nan,2,0.197,1,0,0.1243286,0.1094666,0.135437,0.1149597,-0.001953125,-0.005859375,-0.00390625,1,2,0
817.933,0.00099,-0.06445312,-0.1835938,0.02929688,4.101562,-2.171875,-1.46875,0.015625,-0.09179688,0.06054688,-0.01953125,0.171875,0,0.003295898,-0.02868652,-1.912598,0,0,-2.275757,0.1210632,3.724,0,0,0,0.07501221,nan,2,0.207,1,0,0.1719055,0.136261,0.1082764,0.06774902,-0.001953125,-0.005859375,-0.00390625,1,2,0
817.943,0.000983,-0.06835938,-0.4296875,-0.015625,3.460938,0.7421875,0.15625,0.005859375,-0.03710938,0.046875,-0.02148438,0.1699219,0,0.003540039,-0.02844238,-1.911987,0,0,-2.275757,0.1379089,3.724,0,0,0,0.0949707,nan,2,0.009,1,0,0.1465149,0.1735229,0.1031189,0.1283875,-0.001953125,-0.004882812,-0.00390625,1,2,0
817.952,0.001031,0.001953125,0.2949219,0.02734375,-2.039062,-0.28125,2.59375,-0.0078125,0.03515625,0.0625,-0.02148438,0.1699219,0,0.003417969,-0.02844238,-1.911499,0,0,-2.275757,0.1379089,3.724,0,0,0,0.0949707,nan,2,0.018,1,0,0.1603699,0.1045227,0.1722412,0.1144714,-0.001953125,-0.004882812,-0.00390625,1,2,0
817.962,0.00098,-0.1171875,-0.1894531,0.01171875,1.601562,-2.257812,2.796875,-0.04882812,-0.05859375,0.046875,-0.01953125,0.1699219,0,0.003295898,-0.02832031,-1.910889,0,0,-2.275757,0.1379089,3.724,0,0,0,0.0949707,nan,2,0.028,1,0,0.1634521,0.1562195,0.1046448,0.1272583,-0.001953125,-0.004882812,-0.00390625,1,2,0
817.973,0.000982,-0.001953125,-0.1113281,-0.04296875,1.828125,0.671875,3.765625,-0.00390625,0.02734375,0.04101562,-0.01953125,0.1699219,0,0.003173828,-0.02832031,-1.9104,0,0,-2.275757,0.1715698,3.724,0,0,0,0.1350098,nan,2,0,1,0,0.1446533,0.197998,0.1560974,0.187561,-0.001953125,-0.004882812,-0.00390625,1,2,0
817.982,0.001006,0.140625,-0.1054688,0.02734375,4.75,2.09375,-5.179688,0.02929688,0.00390625,0.05859375,-0.01757812,0.1699219,0,0.003051758,-0.02819824,-1.909668,0,0,-2.275757,0.1715698,3.724,0,0,0,0.1350098,nan,2,0.01,1,0,0.1685486,0.1901855,0.179657,0.1479187,-0.001953125,-0.004882812,-0.00390625,1,2,0
817.993,0.00105,-0.03320312,-0.453125,0.09960938,7.671875,0.5078125,-4.304688,-0.01367188,-0.1230469,0.06640625,-0.01757812,0.1699219,0,0.002807617,-0.02819824,-1.909058,0,0,-2.275757,0.1715698,3.724,0,0,0,0.1350098,nan,2,0.02,1,0,0.2466736,0.1739502,0.17276,0.09292603,-0.001953125,-0.004882812,-0.00390625,1,2,0
818.003,0.001012,-0.07617188,-0.1621094,0.05859375,-1.039062,1.882812,5.101562,-0.04101562,-0.03515625,0.06445312,-0.015625,0.171875,0,0.002563477,-0.02856445,-1.908447,0,0,-2.275757,0.1715698,3.724,0,0,0,0.1350098,nan,2,0.03,1,0,0.2051392,0.1563416,0.1803284,0.1445007,-0.001953125,-0.00390625,-0.00390625,1,2,0
818.013,0.001031,-0.09570312,0.4667969,0.05273438,-9,-2.15625,4.304688,-0.04492188,0.001953125,0.06640625,-0.01367188,0.1757812,0,0.002319336,-0.0291748,-1.907715,0,0,-2.275757,0.1715698,3.724,0,0,0,0.1350098,nan,2,0.04,1,0,0.1856384,0.1414795,0.1921387,0.1670837,-0.001953125,-0.00390625,-0.00390625,1,2,0
818.023,0.000961,-0.1269531,0.08984375,0.1230469,-2.757812,-4.640625,2.679688,-0.06445312,-0.1210938,0.0625,-0.01171875,0.1796875,0,0.001953125,-0.02990723,-1.907104,0,0,-2.275757,0.1715698,3.724,0,0,0,0.1350098,nan,2,0.051,1,0,0.2336121,0.1542053,0.175354,0.1231689,-0.001953125,-0.00390625,-0.00390625,1,2,0
818.033,0.000979,-0.08203125,-0.1503906,0.1152344,0.921875,0.8125,4.84375,-0.046875,-0.07226562,0.05859375,-0.0078125,0.1835938,0,0.001342773,-0.03051758,-1.906494,0,0,-2.275757,0.2347412,3.724,0,0,0,0.210022,nan,2,0.008,1,0,0.2818604,0.2110901,0.2579041,0.1880798,-0.001953125,-0.00390625,-0.00390625,1,2,0
818.043,0.001009,0.0234375,0.1425781,0.06054688,-2.375,1.28125,4.078125,-0.02148438,-0.00390625,0.05859375,-0.00390625,0.1855469,0,0.0007324219,-0.03100586,-1.905884,0,0,-2.275757,0.2347412,3.724,0,0,0,0.210022,nan,2,0.018,1,0,0.2560425,0.213623,0.2702942,0.1989746,-0.001953125,-0.002929688,-0.00390625,1,2,0
818.052,0.001056,-0.005859375,-0.15625,0.08984375,0.5703125,-2.6875,0.28125,-0.03710938,-0.01171875,0.0703125,-0.001953125,0.1855469,0,0.0003662109,-0.03088379,-1.905396,0,0,-2.275757,0.2347412,3.724,0,0,0,0.210022,nan,2,0.027,1,0,0.3034363,0.1937561,0.2761841,0.1655884,-0.001953125,-0.002929688,-0.00390625,1,2,0
818.062,0.000994,0.1699219,0,0.08007812,1.234375,-4.53125,5.578125,0.009765625,0.1542969,0.07226562,-0.001953125,0.1796875,0,0.0002441406,-0.0300293,-1.904785,0,0,-2.275757,0.2347412,3.724,0,0,0,0.210022,nan,2,0.037,1,0,0.2502136,0.18927,0.2954407,0.2040405,-0.001953125,-0.002929688,-0.00390625,1,2,0
818.072,0.001025,0.2421875,-0.08789062,0.02929688,8.40625,4.234375,2.429688,0.07617188,0.2421875,0.0625,-0.00390625,0.1679688,0,0.0007324219,-0.02819824,-1.904053,0,0,-2.275757,0.2347412,3.724,0,0,0,0.210022,nan,2,0.047,1,0,0.2106628,0.2220459,0.2757874,0.2304688,-0.001953125,-0.002929688,-0.00390625,1,2,0
818.082,0.001007,0.3984375,0.03515625,0.1191406,1.890625,-4.226562,3.835938,0.2148438,0.2207031,0.07617188,-0.01171875,0.1542969,0,0.002075195,-0.02563477,-1.90332,0,0,-2.275757,0.3020935,4.013,0,0,0,0.289978,nan,2,0.009,1,0,0.2927856,0.3110046,0.3611755,0.2434387,-0.001953125,-0.002929688,-0.00390625,1,2,0
818.092,0.000999,0.3378906,0.1933594,0.1035156,0.421875,3.445312,6.953125,0.1601562,0.3398438,0.06445312,-0.02148438,0.1347656,0,0.003540039,-0.02246094,-1.902588,0,0,-2.275757,0.3020935,4.013,0,0,0,0.289978,nan,2,0.019,1,0,0.2807007,0.2798767,0.3614197,0.2864075,-0.001953125,-0.002929688,-0.00390625,1,2,0
818.103,0.00102,0.3417969,0.5019531,0.1210938,-1.640625,4.867188,5.8125,0.1582031,0.4277344,0.078125,-0.02929688,0.1113281,0,0.004882812,-0.01867676,-1.901855,0,0,-2.275757,0.3020935,4.013,0,0,0,0.289978,nan,2,0.029,1,0,0.282074,0.2461548,0.3952332,0.2849731,-0.001953125,-0.00390625,-0.00390625,1,2,0
818.113,0.001015,0.0859375,0.5683594,0.1210938,-0.7265625,-2.570312,5.335938,0.140625,0.4863281,0.0859375,-0.0390625,0.08789062,0,0.006591797,-0.01452637,-1.901001,0,0,-2.275757,0.3020935,4.013,0,0,0,0.289978,nan,2,0.039,1,0,0.2980042,0.2131348,0.40802,0.2892456,-0.002929688,-0.00390625,-0.00390625,1,2,0
818.123,0.00096,0.2753906,0.2792969,0.04101562,10.64844,-4.132812,-0.1796875,0.1289062,0.5136719,0.06054688,-0.05078125,0.05859375,0,0.008300781,-0.009765625,-1.900269,0,0,-2.275757,0.3020935,4.013,0,0,0,0.289978,nan,2,0.049,1,0,0.2577209,0.268158,0.3542175,0.3283081,-0.002929688,-0.00390625,-0.00390625,1,2,0
818.133,0.000955,0.296875,0.4785156,0.046875,-0.1015625,0.7890625,-0.828125,0.1601562,0.5722656,0.06835938,-0.05859375,0.0234375,0,0.009765625,-0.00402832,-1.899658,0,0,-2.275757,0.3273621,4.013,0,0,0,0.3200073,nan,2,0.008,1,0,0.295105,0.2803345,0.4192505,0.3147583,-0.002929688,-0.004882812,-0.00390625,1,2,0
818.143,0.001057,0.1484375,1.160156,0.1113281,-11.0625,5.640625,10.54688,0.15625,0.8085938,0.08203125,-0.06640625,-0.01953125,0,0.01098633,0.003295898,-1.898804,0,0,-2.275757,0.3273621,4.013,0,0,0,0.3200073,nan,2,0.018,1,0,0.2745972,0.2164612,0.4832764,0.335144,-0.002929688,-0.005859375,-0.00390625,1,2,0
818.153,0.00107,0.2226562,0.9199219,0.05273438,6.203125,-6.554688,1.96875,0.1855469,0.9394531,0.07226562,-0.07617188,-0.07226562,0,0.01269531,0.01184082,-1.897949,0,0,-2.275757,0.3273621,4.013,0,0,0,0.3200073,nan,2,0.028,1,0,0.2277527,0.2470093,0.4536133,0.3811035,-0.002929688,-0.006835938,-0.00390625,1,2,0
818.162,0.001009,0.2988281,0.6855469,0.078125,19.54688,-6.796875,-3.3125,0.2539062,1.001953,0.06835938,-0.08984375,-0.125,0,0.01489258,0.02087402,-1.897095,0,0,-2.275757,0.3273621,4.013,0,0,0,0.3200073,nan,2,0.037,1,0,0.2275085,0.2614441,0.4544373,0.3660889,-0.00390625,-0.0078125,-0.00390625,1,2,0
818.172,0.00123,0.2910156,1.302734,0.08984375,-1.671875,2.171875,5.351562,0.3007812,1.173828,0.07226562,-0.1074219,-0.1953125,0,0.01782227,0.0324707,-1.89624,0,0,-2.275757,0.386322,4.013,0,0,0,0.3900146,nan,2,0.001,1,0,0.2744751,0.2788086,0.5629578,0.4290466,-0.00390625,-0.008789062,-0.00390625,1,2,0
818.182,0.001006,0.3828125,1.119141,-0.03125,0.8671875,-3.648438,3.382812,0.3027344,1.160156,0.04101562,-0.125,-0.265625,0,0.02087402,0.04406738,-1.895386,0,0,-2.275757,0.386322,4.013,0,0,0,0.3900146,nan,2,0.011,1,0,0.2263489,0.3478088,0.4899902,0.4811401,-0.004882812,-0.009765625,-0.00390625,1,2,0
818.192,0.001006,0.3417969,1.279297,0.1679688,-3.515625,-2.546875,8.585938,0.3085938,1.1875,0.08398438,-0.1445312,-0.3359375,0,0.02404785,0.05603027,-1.894531,0,0,-2.275757,0.386322,4.013,0,0,0,0.3900146,nan,2,0.021,1,0,0.3194885,0.2310791,0.6138611,0.3808289,-0.004882812,-0.01171875,-0.00390625,1,2,0
818.202,0.001032,0.359375,0.9101562,0.01953125,9.960938,-5.304688,6,0.3144531,1.0625,0.04492188,-0.1621094,-0.4042969,0,0.02709961,0.06750488,-1.893677,0,0,-2.275757,0.386322,4.013,0,0,0,0.3900146,nan,2,0.031,1,0,0.2433777,0.3388977,0.5084229,0.4545593,-0.005859375,-0.01367188,-0.00390625,1,2,0
818.213,0.001025,0.1503906,0.8457031,0.0625,-3.820312,-0.4921875,0.203125,0.2929688,0.921875,0.04882812,-0.1816406,-0.4648438,0,0.03039551,0.07739258,-1.892822,0,0,-2.275757,0.386322,4.013,0,0,0,0.3900146,nan,2,0.041,1,0,0.2848816,0.3091431,0.52771,0.4235229,-0.005859375,-0.01464844,-0.00390625,1,2,0
818.223,0.001013,0.2890625,0.5566406,0.08007812,3.125,-3.0625,9.453125,0.296875,0.6953125,0.05273438,-0.2011719,-0.5136719,0,0.03356934,0.08557129,-1.89209,0,0,-2.275757,0.4873657,4.013,0,0,0,0.5100098,nan,2,0,1,0,0.4042358,0.4332275,0.6123962,0.4996338,-0.006835938,-0.015625,-0.00390625,1,2,0
818.233,0.001009,0.1054688,0.2226562,0.0390625,4.90625,-1.9375,1.585938,0.1738281,0.3886719,0.0546875,-0.2148438,-0.5449219,0,0.03588867,0.09094238,-1.891357,0,0,-2.275757,0.4873657,4.013,0,0,0,0.5100098,nan,2,0.01,1,0,0.439209,0.4468384,0.5733032,0.4901123,-0.006835938,-0.01660156,-0.00390625,1,2,0
818.243,0.000962,0.1386719,0.1054688,0.07421875,-5.320312,-5.375,9.40625,0.125,0.1464844,0.0625,-0.2226562,-0.5605469,0,0.03723145,0.09350586,-1.890625,0,0,-2.275757,0.4873657,4.013,0,0,0,0.5100098,nan,2,0.02,1,0,0.4536743,0.4441223,0.58255,0.4691467,-0.006835938,-0.01757812,-0.00390625,1,2,0
818.252,0.001069,0.1308594,-0.03515625,0.1015625,3.703125,-1.335938,10.91406,0.09765625,-0.0078125,0.078125,-0.2285156,-0.5644531,0,0.03820801,0.09399414,-1.890015,0,0,-2.275757,0.4873657,4.013,0,0,0,0.5100098,nan,2,0.029,1,0,0.4746399,0.4291687,0.598114,0.4475403,-0.0078125,-0.01855469,-0.00390625,1,2,0
818.262,0.001029,-0.09570312,-0.1425781,0.1054688,3.492188,-6.460938,12.8125,0.0234375,-0.1484375,0.09765625,-0.2324219,-0.5585938,0,0.03894043,0.09313965,-1.88916,0,0,-2.275757,0.4873657,4.013,0,0,0,0.5100098,nan,2,0.039,1,0,0.4931335,0.4254456,0.5802002,0.4506836,-0.0078125,-0.01855469,-0.00390625,1,2,0
818.272,0.001222,-0.09960938,-0.3789062,0.09570312,-5.023438,-1.203125,11.25781,-0.06835938,-0.3652344,0.1035156,-0.2324219,-0.5429688,0,0.03869629,0.0904541,-1.888184,0,0,-2.275757,0.5884094,4.013,0,0,0,0.6300049,nan,2,0.001,1,0,0.6137695,0.552002,0.6444702,0.543457,-0.0078125,-0.01953125,-0.00390625,1,2,0
818.282,0.00101,-0.359375,-0.6308594,0.1328125,0.5703125,-0.109375,6.421875,-0.2773438,-0.6054688,0.1113281,-0.2207031,-0.5117188,0,0.0369873,0.08532715,-1.887329,0,0,-2.275757,0.5884094,4.013,0,0,0,0.6300049,nan,2,0.011,1,0,0.6687927,0.5298157,0.6175232,0.5375366,-0.0078125,-0.01953125,-0.00390625,1,2,0
818.292,0.001056,-0.5273438,-0.7265625,0.1054688,-0.03125,5.46875,12.45312,-0.4199219,-0.8242188,0.1230469,-0.2011719,-0.4667969,0,0.03344727,0.07775879,-1.886353,0,0,-2.275757,0.5884094,4.013,0,0,0,0.6300049,nan,2,0.021,1,0,0.6802673,0.5445251,0.5860901,0.5427856,-0.0078125,-0.01855469,-0.00390625,1,2,0
818.303,0.000955,-0.4296875,-1.179688,0.140625,2.03125,-6.359375,16.48438,-0.5,-1.087891,0.1367188,-0.171875,-0.40625,0,0.02880859,0.06774902,-1.885376,0,0,-2.275757,0.5884094,4.013,0,0,0,0.6300049,nan,2,0.031,1,0,0.7164917,0.5614319,0.5727539,0.5029907,-0.0078125,-0.01855469,-0.00390625,1,2,0
818.312,0.001008,-0.8144531,-1.091797,0.1269531,-4.734375,4.0625,18.74219,-0.6308594,-1.181641,0.1308594,-0.1367188,-0.3378906,0,0.02294922,0.05615234,-1.884277,0,0,-2.275757,0.5884094,4.013,0,0,0,0.6300049,nan,2,0.041,1,0,0.714325,0.5614014,0.5418091,0.5361328,-0.006835938,-0.01757812,-0.00390625,1,2,0
818.323,0.001006,-0.7128906,-1.763672,0.05664062,11.00781,12.96875,-10.75781,-0.6230469,-1.304688,0.109375,-0.1015625,-0.2636719,0,0.01696777,0.04394531,-1.883301,0,0,-2.275757,0.5884094,4.013,0,0,0,0.6300049,nan,2,0.051,1,0,0.6963196,0.6291504,0.4758606,0.5523376,-0.006835938,-0.01660156,-0.00390625,1,2,0
818.333,0.000999,3.142578,-10.37109,-0.1601562,-14.74219,39.4375,-4.609375,0.6601562,-6.304688,-0.4355469,-0.1054688,0.001953125,0,0.0177002,-0.0004882812,-1.88208,0,0,-2.275757,0.5884094,4.013,0,0,0,0.6300049,nan,2,0.062,1,0,0.2707825,1,0,0.5372925,-0.006835938,-0.01660156,-0.00390625,0.2372437,2,0
818.343,0.001027,9.742188,-20.87109,2.34375,25.63281,0.859375,39.125,3.876953,-15.70312,2.404297,-0.2011719,0.7070312,0,0.03369141,-0.1179199,-1.866455,0,0,-2.275757,0.5884094,4.013,0,0,0,0.6300049,nan,2,0.072,1,0,0.9881897,0.6815491,0.6839294,0,-0.006835938,-0.01660156,-0.00390625,0.1280518,2,0
818.352,0.001011,14.05469,-31.50195,1.095703,-3.242188,23.07031,38.375,10.33984,-26.4707,1.078125,-0.578125,1.878906,0,0.09960938,-0.3125,-1.865112,0,0,-2.275757,0.5884094,4.013,0,0,0,0.6300049,nan,2,0.081,1,0,0.5715332,1,0.2150879,0,-0.006835938,-0.01660156,-0.00390625,0.1126709,2,0
818.362,0.000998,-4.525391,-4.699219,3.712891,38.875,40.8125,37.84375,10.44336,-22.55664,1.304688,-1.367188,3.716797,0,0.2619629,-0.6131592,-1.914307,0,0,-2.275757,0.6473694,4.013,0,0,0,0.7000122,nan,2,0.005,1,0,1,0.2777405,0.8494568,0,-0.006835938,-0.01660156,-0.00390625,0.210022,2,0
818.372,0.001014,-18.65234,-0.4628906,5.246094,38.09375,10.15625,23.09375,-13.85156,2.46875,2.039062,-1.103516,3.851562,0,0.2137451,-0.6375732,-1.92334,0,0,-2.275757,0.6473694,4.013,0,0,0,0.7000122,nan,2,0.015,1,0,1,0,0.7800903,0.5628357,-0.006835938,-0.01171875,-0.00390625,0.07275391,2,0
818.382,0.00104,-0.5898438,-15.17188,-5.654297,10.58594,16.79688,28.24219,-8.695312,1.113281,-2.576172,-0.5351562,3.560547,0,0.1015625,-0.5924072,-1.920898,0,0,-2.275757,0.6894836,4.013,0,0,0,0.75,nan,2,0,1,0,0.2074585,1,0,0.8871765,-0.006835938,-0.01171875,-0.00390625,0.1104736,2,0
818.392,0.001021,-12.37109,5.882812,4.685547,-9.515625,-35.54688,-14.5625,-13.6582,3.107422,2.240234,-0.0546875,3.519531,0,0.01013184,-0.5866699,-1.949219,0,0,-2.275757,0.6894836,4.013,0,0,0,0.75,nan,2,0.01,1,0,1,0,0.8899231,0.1865234,-0.006835938,-0.01074219,-0.00390625,0.05673218,2,0
818.402,0.001013,-11.28906,4.683594,-1.34375,10.45312,-1.179688,21.75781,-11.61914,5.523438,-0.6835938,0.6210938,3.259766,0,-0.1149902,-0.5421143,-1.950439,0,0,-2.275757,0.6894836,4.013,0,0,0,0.75,nan,2,0.02,1,0,0.1295166,0.4562378,0,1,-0.006835938,-0.01074219,-0.00390625,0.2575378,2,0
818.412,0.001065,1.710938,6.191406,-0.9589844,29.64062,22.41406,-31.76562,-3.222656,3.591797,-0.1152344,1.029297,3.015625,0,-0.1875,-0.4997559,-1.959106,0,0,-2.275757,0.6894836,4.013,0,0,0,0.75,nan,2,0.03,1,0,0,1,0.6150818,0.4216309,-0.00390625,-0.01074219,-0.00390625,0.5379639,2,0
818.423,0.001056,-1.277344,5.050781,-0.6835938,2.84375,-15.42969,7.921875,-0.6757812,5.306641,-0.125,1.115234,2.728516,0,-0.199585,-0.4519043,-1.967407,0,0,-2.275757,0.6894836,4.013,0,0,0,0.75,nan,2,0.04,1,0,0,0.8184814,0.468811,1,-0.001953125,-0.01074219,-0.00390625,0.491394,2,0
818.433,0.001035,0.6289062,2.955078,-1.132812,-14.67969,24.11719,24.28906,-0.5742188,4.546875,-1.601562,1.117188,2.460938,0,-0.1971436,-0.4075928,-1.98938,0,0,-2.275757,0.6894836,4.013,0,0,0,0.75,nan,2,0.05,1,0,0,0.8898926,0.03713989,1,-0.0009765625,-0.01074219,-0.00390625,0.3168335,2,0
818.443,0.000979,0.6875,5.111328,-1.345703,-24.98438,-10.34375,-8.867188,0.6542969,5.029297,-1.025391,1.03125,2.207031,0,-0.1799316,-0.3659668,-2.008057,0,0,-2.275757,0.6894836,4.013,0,0,0,0.75,nan,2,0.06,1,0,0,0.5968323,0.3354492,1,-0.0009765625,-0.01171875,-0.00390625,0.572937,2,0
818.452,0.000902,0.02148438,6.255859,-0.8496094,5.617188,15.46094,4.53125,-0.06640625,5.957031,-1.121094,1.001953,1.914062,0,-0.1728516,-0.3173828,-2.029053,0,0,-2.275757,0.7105408,4.013,0,0,0,0.7750244,nan,2,0.002,1,0,0,0.2808533,0.4584656,1,-0.0009765625,-0.01171875,-0.00390625,0.7477112,2,0
818.463,0.001012,2.195312,6.4375,-0.15625,4.757812,20.94531,23.09375,-0.07421875,6.751953,-0.2714844,1.042969,1.496094,0,-0.1773682,-0.2480469,-2.047607,0,0,-2.275757,0.7105408,4.013,0,0,0,0.7750244,nan,2,0.013,1,0,0.3836975,0,1,0.3674316,-0.0009765625,-0.01269531,-0.00390625,0.6108093,2,0
818.472,0.0009860001,-1.324219,7.099609,-0.9375,4.375,8.96875,7.703125,-0.4277344,7.080078,-0.7636719,1.039062,1.123047,0,-0.1750488,-0.1864014,-2.063477,0,0,-2.275757,0.7105408,4.013,0,0,0,0.7750244,nan,2,0.022,1,0,0,0.5041504,0.2724915,1,0,-0.01367188,-0.00390625,0.4406128,2,0
818.482,0.001028,-2.347656,9.292969,-0.9980469,-2.578125,6.9375,5.257812,-1.070312,8.703125,-0.5527344,1.070312,0.6445312,0,-0.1790771,-0.1068115,-2.08374,0,0,-2.275757,0.7357788,4.013,0,0,0,0.8049927,nan,2,0.002,1,0,0,0.03765869,0.4815063,1,0,-0.01367188,-0.00390625,0.5383301,2,0
818.492,0.001046,0.4511719,8.224609,0.2421875,1.304688,-21.39062,-1.273438,-0.6601562,8.810547,0.2460938,1.144531,0.1113281,0,-0.1907959,-0.01843262,-2.103149,0,0,-2.275757,0.7357788,4.013,0,0,0,0.8049927,nan,2,0.012,1,0,0.6264954,0,1,0.3761292,0,-0.01367188,-0.00390625,0.3282776,2,0
818.502,0.001014,-0.7753906,8.171875,-0.1757812,1,2.78125,-21.9375,-0.8320312,8.541016,-0.6679688,1.199219,-0.4023438,0,-0.2001953,0.06677246,-2.125854,0,0,-2.275757,0.7357788,4.013,0,0,0,0.8049927,nan,2,0.022,1,0,0,0.1974487,0.5456848,1,0,-0.01367188,-0.00390625,0.6160583,2,0
818.512,0.001008,-0.05273438,7.970703,-0.6367188,8.335938,-24.49219,24.67969,0.09179688,7.927734,-0.7089844,1.232422,-0.8886719,0,-0.2070312,0.1470947,-2.14856,0,0,-2.275757,0.7357788,4.013,0,0,0,0.8049927,nan,2,0.032,1,0,0,0.4525452,0.573761,1,0.0009765625,-0.01367188,-0.00390625,0.5231628,2,0
818.523,0.001024,3.232422,4.279297,-1.503906,20.25781,-30.42969,7.609375,-1.539062,4.341797,-0.03320312,1.246094,-1.226562,0,-0.2105713,0.2028809,-2.161865,0,0,-2.275757,0.7357788,4.013,0,0,0,0.8049927,nan,2,0.042,1,0,1,0,0.5498352,0.9940186,0.0009765625,-0.01464844,-0.00390625,0.9784851,2,0
818.533,0.001006,5.453125,2.041016,-3.447266,5.09375,-0.984375,-2.78125,4.660156,2.990234,-0.109375,1.082031,-1.466797,0,-0.184082,0.243042,-2.157837,0,0,-2.275757,0.7442017,4.013,0,0,0,0.8150024,nan,2,0.005,1,0,0,1,0.2379456,0.8468018,0.0009765625,-0.01464844,-0.00390625,0.1465454,2,0
818.543,0.000983,4.496094,2.117188,-3.794922,-3.8125,-10.01562,-9.046875,4.742188,1.322266,-3.509766,0.8632812,-1.566406,0,-0.1470947,0.2602539,-2.18811,0,0,-2.275757,0.7442017,4.013,0,0,0,0.8150024,nan,2,0.015,1,0,0,1,0.09994507,0.9172974,0.0009765625,-0.01464844,-0.00390625,0.1372681,2,0
818.552,0.001056,3.576172,1.017578,-3.576172,22.3125,-37,36.60156,4.556641,1.404297,-3.773438,0.6660156,-1.625,0,-0.1138916,0.2703857,-2.224365,0,0,-2.275757,0.7442017,4.013,0,0,0,0.8150024,nan,2,0.024,1,0,0,1,0.2052002,0.9577332,0.0009765625,-0.01464844,-0.00390625,0.2634277,2,0
818.562,0.001018,3.115234,-0.375,-4.095703,9.445312,9.96875,-15.70312,4.386719,0.3007812,-4.246094,0.4707031,-1.662109,0,-0.08044434,0.2766113,-2.268066,0,0,-2.275757,0.7442017,4.013,0,0,0,0.8150024,nan,2,0.034,1,0,0,1,0.1147156,0.8684082,0.0009765625,-0.01464844,-0.00390625,0.2771606,2,0
818.573,0.000994,2.488281,1.302734,-3.904297,-1.789062,4.617188,-4.179688,3.470703,1.003906,-3.636719,0.3105469,-1.693359,0,-0.05322266,0.2821045,-2.309326,0,0,-2.275757,0.7610474,4.013,0,0,0,0.835022,nan,2,0,1,0,0,0.9005127,0.3722839,1,0.0009765625,-0.01464844,-0.00390625,0.538269,2,0
818.582,0.001009,2.167969,0.578125,-3.796875,0.71875,9.585938,5.796875,2.158203,0.6308594,-3.289062,0.2226562,-1.734375,0,-0.03820801,0.2890625,-2.345825,0,0,-2.275757,0.7610474,4.013,0,0,0,0.835022,nan,2,0.01,1,0,0,0.9244995,0.1795654,1,0,-0.015625,-0.00390625,0.5092773,2,0
818.592,0.001012,0.890625,0.8457031,-2.703125,0.0546875,-3.6875,29.14062,1.212891,0.7539062,-3.089844,0.1953125,-1.771484,0,-0.03369141,0.2952881,-2.38147,0,0,-2.275757,0.7610474,4.013,0,0,0,0.835022,nan,2,0.02,1,0,0,0.6787109,0.3193665,1,-0.0009765625,-0.015625,-0.00390625,0.9024048,2,0
818.603,0.001031,0.2167969,0.6953125,-2.320312,6.640625,-0.34375,1.0625,0.1113281,0.5742188,-2.535156,0.21875,-1.804688,0,-0.03747559,0.3009033,-2.410889,0,0,-2.275757,0.7610474,4.013,0,0,0,0.835022,nan,2,0.03,1,0,0.2252197,0.5234985,0.3353882,1,-0.0009765625,-0.01757812,-0.00390625,1,2,0
818.613,0.001028,-0.7226562,0.15625,-2.388672,-7.953125,12.67188,6.476562,0.03320312,0.5664062,-2.296875,0.2558594,-1.837891,0,-0.04382324,0.3061523,-2.435547,0,0,-2.275757,0.7610474,4.013,0,0,0,0.835022,nan,2,0.04,1,0,0,0.7440796,0.1448975,1,-0.0009765625,-0.01953125,-0.002929688,0.6716003,2,0
818.623,0.001011,3.306641,-2.511719,-1.119141,2.484375,-11.32812,1.382812,1.457031,-0.7070312,-1.554688,0.2695312,-1.833984,0,-0.04638672,0.305542,-2.457031,0,0,-2.275757,0.7610474,4.013,0,0,0,0.835022,nan,2,0.051,1,0,0.7194519,0.4631348,1,0,-0.0009765625,-0.02050781,-0.002929688,0.662384,2,0
818.633,0.00099,2.888672,-2.759766,-2.458984,19.32031,-39.52344,-16.73438,2.423828,-1.650391,-2.636719,0.2246094,-1.771484,0,-0.03845215,0.295166,-2.47937,0,0,-2.275757,0.7947388,4.013,0,0,0,0.875,nan,2,0.009,1,0,0,1,0.1048584,0.7341614,-0.0009765625,-0.02050781,-0.002929688,0.272522,2,0
818.643,0.001042,-2.121094,-0.2070312,-2.392578,11.82031,-37.78125,36.97656,0.7421875,-0.7382812,-2.552734,0.171875,-1.699219,0,-0.02954102,0.2833252,-2.505493,0,0,-2.275757,0.7947388,4.013,0,0,0,0.875,nan,2,0.019,1,0,0,0.7218323,0.008361816,1,-0.0009765625,-0.02050781,-0.002929688,0.474762,2,0
818.653,0.001011,0.4882812,-1.554688,-2.253906,14.96875,-21.54688,16.66406,0.8496094,-0.3242188,-2.308594,0.1425781,-1.658203,0,-0.02453613,0.2764893,-2.530762,0,0,-2.275757,0.7947388,4.013,0,0,0,0.875,nan,2,0.029,1,0,0,0.7436218,0.2081604,1,-0.001953125,-0.02050781,-0.002929688,0.7977905,2,0
818.662,0.001042,2.492188,-1.726562,-2.417969,5.015625,-9.601562,-37.73438,0.7714844,-0.4375,-2.615234,0.1679688,-1.640625,0,-0.02868652,0.2734375,-2.555054,0,0,-2.275757,0.7947388,4.013,0,0,0,0.875,nan,2,0.038,1,0,0,1,0.1868591,0.9165649,-0.001953125,-0.02050781,-0.002929688,0.5185547,2,0
818.673,0.001054,-0.5253906,0.9199219,-2.425781,0.765625,-15.625,18.16406,-0.0390625,-0.05078125,-2.273438,0.1914062,-1.613281,0,-0.03283691,0.2689209,-2.579712,0,0,-2.275757,0.8157959,4.013,0,0,0,0.9000244,nan,2,0,1,0,0,0.6614685,0.1524353,1,-0.001953125,-0.02148438,-0.002929688,0.6903687,2,0
818.682,0.000982,1.511719,-0.1113281,-1.746094,-14,-14.94531,39.60156,0.3847656,-0.234375,-1.988281,0.2382812,-1.613281,0,-0.04077148,0.2689209,-2.605103,0,0,-2.275757,0.8157959,4.013,0,0,0,0.9000244,nan,2,0.01,1,0,0.6781616,0.5872498,1,0.4888306,-0.001953125,-0.02148438,-0.002929688,1,2,0
818.692,0.001048,1.138672,0.9394531,0.0546875,-8.867188,-36.09375,40.29688,1.082031,0.4707031,-0.8535156,0.2265625,-1.638672,0,-0.03881836,0.2730713,-2.621826,0,0,-2.275757,0.8157959,4.013,0,0,0,0.9000244,nan,2,0.02,1,0,0.78302,0,1,0.003845215,-0.001953125,-0.02246094,-0.002929688,0.3577881,2,0
818.702,0.001023,3.753906,0.2324219,-0.8046875,9.179688,21.63281,-3.875,1.916016,1.197266,-0.7441406,0.1679688,-1.716797,0,-0.02868652,0.2860107,-2.629272,0,0,-2.275757,0.8157959,4.013,0,0,0,0.9000244,nan,2,0.03,1,0,0.0451355,0.8517151,1,0.6806641,-0.002929688,-0.02441406,-0.002929688,1,2,0
818.712,0.001009,0.9726562,1.09375,-0.02734375,1.070312,1.5625,-16.38281,1.25,0.9511719,-0.2539062,0.08984375,-1.794922,0,-0.015625,0.2989502,-2.63501,0,0,-2.275757,0.8157959,4.013,0,0,0,0.9000244,nan,2,0.04,1,0,0.6902466,0,1,0.1172485,-0.002929688,-0.02539062,-0.002929688,0.9134521,2,0
818.723,0.001007,-2.431641,2.705078,-0.9316406,-1.789062,-13.8125,11.76562,-0.734375,2.095703,-0.6464844,0.08789062,-1.896484,0,-0.01525879,0.3161621,-2.63855,0,0,-2.275757,0.8157959,4.013,0,0,0,0.9000244,nan,2,0.05,1,0,0,0.4555359,0.1079712,1,-0.002929688,-0.02636719,-0.002929688,0.4586487,2,0
818.733,0.000971,-1.113281,0.6308594,0.1445312,24.0625,-22.57812,13.69531,-0.96875,1.259766,-0.04101562,0.1445312,-2.005859,0,-0.02502441,0.3343506,-2.643311,0,0,-2.275757,0.8452759,3.286,0,0,0,0.9349976,nan,2,0.008,1,64,0.9799805,0,1,0.3390808,-0.002929688,-0.02734375,-0.002929688,0.6730042,2,0
818.743,0.00101,-1.111328,0.9511719,-1.107422,-5.351562,-2.054688,-28.28906,-1.023438,0.7421875,-0.6386719,0.2050781,-2.0625,0,-0.03552246,0.3436279,-2.646362,0,0,-2.275757,0.8452759,3.286,0,0,0,0.9349976,nan,2,0.018,1,64,0,0.7402039,0.05282593,1,-0.002929688,-0.02929688,-0.002929688,0.4815674,2,0
818.753,0.001043,0.5527344,0.2578125,0.1679688,0.671875,-16.96875,8.351562,-0.7675781,0.2363281,0.03710938,0.2714844,-2.09375,0,-0.04699707,0.348877,-2.650269,0,0,-2.275757,0.8452759,3.286,0,0,0,0.9349976,nan,2,0.028,1,64,0.8532104,0,1,0.1964417,-0.001953125,-0.02929688,-0.002929688,0.6764832,2,0
818.762,0.001005,-0.2792969,1.128906,-0.1171875,17.70312,-5.445312,39.32031,-0.6367188,0.265625,-0.1660156,0.3066406,-2.089844,0,-0.05310059,0.3481445,-2.650757,0,0,-2.275757,0.8452759,3.286,0,0,0,0.9349976,nan,2,0.037,1,64,0.2081604,0.4477844,0.5873413,1,-0.0009765625,-0.03125,-0.002929688,1,2,0
818.773,0.001001,-1.011719,0.1796875,0.4882812,-11.78906,-7.546875,-12.03125,-0.2304688,0.6328125,0.125,0.3222656,-2.117188,0,-0.05615234,0.3525391,-2.652588,0,0,-2.275757,0.8620911,3.286,0,0,0,0.9550171,nan,2,0,1,64,0.7267456,0,1,0.3229065,-0.0009765625,-0.03222656,-0.002929688,0.6382751,2,0
818.782,0.001012,-0.734375,2.189453,0.9316406,-6.390625,9.164062,12.13281,-0.3183594,1.3125,0.9082031,0.3242188,-2.181641,0,-0.05664062,0.3634033,-2.64563,0,0,-2.275757,0.8620911,3.286,0,0,0,0.9550171,nan,2,0.01,1,192,0.7597656,0,1,0.3302612,-0.0009765625,-0.03222656,-0.002929688,0.4732361,2,0
818.792,0.001011,-1.320312,1.275391,0.8945312,2.484375,4.546875,11.48438,-1.181641,1.494141,0.8496094,0.3535156,-2.273438,0,-0.06201172,0.37854,-2.637207,0,0,-2.275757,0.8620911,3.286,0,0,0,0.9550171,nan,2,0.02,1,192,0.813446,0,1,0.8209534,-0.0009765625,-0.03222656,-0.002929688,0.9326477,2,0
818.802,0.001033,-2.470703,2.109375,1.539062,-2.609375,-15.28125,3.789062,-1.808594,1.597656,1.425781,0.4121094,-2.373047,0,-0.0723877,0.3952637,-2.625488,0,0,-2.275757,0.8620911,3.286,0,0,0,0.9550171,nan,2,0.03,1,192,0.9348755,0,1,0.4255981,-0.0009765625,-0.03222656,-0.002929688,0.4157104,2,0
818.812,0.000967,-1.509766,1.476562,1.443359,-9.890625,-3.046875,6.625,-2.035156,1.597656,1.5625,0.484375,-2.474609,0,-0.08557129,0.4119873,-2.609619,0,0,-2.275757,0.8620911,3.286,0,0,0,0.9550171,nan,2,0.04,1,192,0.8462524,0,1,0.5970459,-0.0009765625,-0.03222656,-0.002929688,0.6268311,2,0
818.823,0.001029,-1.195312,0.9257812,1.845703,6.460938,4.71875,11.70312,-1.695312,1.208984,1.753906,0.5527344,-2.566406,0,-0.09814453,0.427124,-2.593018,0,0,-2.275757,0.8620911,3.286,0,0,0,0.9550171,nan,2,0.051,1,192,0.8619385,0,1,0.3302917,-0.0009765625,-0.03222656,-0.002929688,0.5099792,2,0
818.833,0.00101,-2.419922,1.857422,1.738281,-6.773438,1.9375,9.242188,-1.527344,1.404297,1.757812,0.5996094,-2.660156,0,-0.1069336,0.4425049,-2.575439,0,0,-2.275757,0.8831482,3.286,0,0,0,0.9799805,nan,2,0.008,1,192,0.8018494,0,1,0.4765015,-0.0009765625,-0.03222656,-0.002929688,0.5662537,2,0
818.843,0.001003,-1.419922,2.888672,2.386719,16.375,-11.50781,30.79688,-1.195312,1.923828,2.113281,0.6171875,-2.769531,0,-0.1108398,0.4605713,-2.555786,0,0,-2.275757,0.8831482,3.286,0,0,0,0.9799805,nan,2,0.018,1,192,0.7915039,0,1,0.3587341,-0.0009765625,-0.03222656,-0.002929688,0.3547668,2,0
818.853,0.001026,-1.794922,2.486328,2.818359,-25.15625,7.726562,34.67188,-1.667969,2.306641,2.568359,0.6269531,-2.90625,0,-0.1136475,0.4833984,-2.531616,0,0,-2.275757,0.8831482,3.286,0,0,0,0.9799805,nan,2,0.028,1,192,0.8550415,0,1,0.3782043,-0.0009765625,-0.03222656,-0.002929688,0.3070984,2,0
818.862,0.001032,-1.681641,1.722656,3.267578,-26.90625,5.4375,6.914062,-1.367188,2.070312,3.089844,0.6308594,-3.050781,0,-0.1151123,0.5075684,-2.50415,0,0,-2.275757,0.8831482,3.286,0,0,0,0.9799805,nan,2,0.037,1,192,0.8591614,0,1,0.2281799,-0.0009765625,-0.03222656,-0.002929688,0.301239,2,0
818.872,0.00101,-2.396484,3.578125,4.410156,-12.95312,7.335938,15.67188,-2.669922,2.972656,4.070312,0.6542969,-3.25,0,-0.1212158,0.5405273,-2.465576,0,0,-2.275757,0.8831482,3.286,0,0,0,0.9799805,nan,2,0.047,1,192,0.9116211,0,1,0.2710571,-0.0009765625,-0.03222656,-0.002929688,0.1994019,2,0
818.882,0.001014,-1.683594,4.017578,4.144531,-9.234375,-3.796875,13.08594,-2.099609,2.982422,4.130859,0.6542969,-3.457031,0,-0.1228027,0.5749512,-2.420898,0,0,-2.275757,0.891571,3.286,0,0,0,0.9899902,nan,2,0.008,1,192,0.7944031,0,1,0.318573,-0.0009765625,-0.03222656,-0.002929688,0.2741394,2,0
818.892,0.001009,-3.091797,3.490234,4.40625,0.515625,-10.41406,11.54688,-2.457031,3.162109,4.320312,0.6132812,-3.652344,0,-0.1171875,0.607666,-2.37439,0,0,-2.275757,0.891571,3.286,0,0,0,0.9899902,nan,2,0.018,1,192,0.8677063,0,1,0.3838806,-0.0009765625,-0.03222656,-0.002929688,0.2402954,2,0
818.902,0.001015,-2.517578,3.130859,4.310547,-2,-0.890625,4.59375,-2.328125,3.427734,4.320312,0.5742188,-3.880859,0,-0.1115723,0.6455078,-2.325195,0,0,-2.275757,0.891571,3.286,0,0,0,0.9899902,nan,2,0.028,1,192,0.8093567,0,1,0.3847351,-0.0009765625,-0.03222656,-0.002929688,0.272522,2,0
818.912,0.001015,-2.363281,2.730469,4.300781,1.90625,-3.578125,3.242188,-2.396484,3.072266,4.361328,0.5273438,-4.099609,0,-0.1046143,0.682251,-2.27417,0,0,-2.275757,0.891571,3.286,0,0,0,0.9899902,nan,2,0.038,1,192,0.8348999,0,1,0.3527832,-0.0009765625,-0.03222656,-0.002929688,0.2802124,2,0
818.923,0.001043,-1.095703,2.265625,4.367188,-4.265625,-3.382812,12.05469,-1.478516,2.449219,4.398438,0.4414062,-4.294922,0,-0.08947754,0.7150879,-2.219971,0,0,-2.275757,0.891571,3.286,0,0,0,0.9899902,nan,2,0.049,1,192,0.7850037,0,1,0.2357788,-0.0009765625,-0.03222656,-0.002929688,0.29245,2,0
818.933,0.001004,0.1738281,1.677734,4.34375,-6.898438,-7.4375,12.53125,-0.3515625,1.710938,4.310547,0.2949219,-4.433594,0,-0.06066895,0.7385254,-2.163696,0,0,-2.275757,0.8999939,3.286,0,0,0,1,nan,2,0.001,1,192,0.7269897,0,1,0.1681519,0,-0.03222656,-0.002929688,0.3149719,2,0
818.943,0.000982,1.238281,1.458984,4.330078,-6.960938,-4.632812,16.1875,0.7832031,1.476562,4.349609,0.078125,-4.539062,0,-0.01635742,0.7565918,-2.104492,0,0,-2.275757,0.8999939,3.286,0,0,0,1,nan,2,0.011,1,192,0.6782227,0,1,0.129364,0,-0.03222656,-0.002929688,0.3051758,2,0
818.953,0.001009,1.169922,1.367188,4.570312,-6.742188,2.390625,12.73438,1.142578,1.283203,4.400391,-0.1679688,-4.613281,0,0.03527832,0.7689209,-2.044067,0,0,-2.275757,0.8999939,3.286,0,0,0,1,nan,2,0.021,1,192,0.7123413,0,1,0.1298828,0,-0.03222656,-0.002929688,0.2691956,2,0
818.963,0.001032,3.203125,2.052734,-7.59375,-39.70312,-37.67188,40.32031,1.863281,1.732422,0.8027344,-0.4140625,-4.685547,0,0.08764648,0.7802734,-1.98645,0,0,-2.275757,0.8999939,3.286,0,0,0,1,nan,2,0.031,1,192,0,0.9709473,0.1148376,1,0,-0.03222656,-0.002929688,0.07321167,2,0
818.972,0.001012,6.015625,5.798828,1.101562,-34.77344,1.882812,39.03906,5.890625,5.478516,1.128906,-0.6445312,-4.912109,0,0.1403809,0.8166504,-1.973755,0,0,-2.275757,0.8999939,3.286,0,0,0,1,nan,2,0.04,1,192,0,0.2597656,1,0.4127197,0,-0.03222656,-0.002929688,0.3040771,2,0
818.982,0.001009,0.5136719,12.81641,3.232422,-31.78125,21.5,38.40625,2.574219,11.10938,2.267578,-0.9296875,-5.410156,0,0.2164307,0.8962402,-1.932007,0,0,-2.275757,0.8999939,3.286,0,0,0,1,nan,2,0.05,1,192,0.6392822,0,1,0.3981323,0,-0.03222656,-0.002929688,0.1170044,2,0
818.992,0.001011,-1.746094,5.033203,-2.316406,-7.21875,16.26562,7.289062,-1.365234,7.283203,-0.6875,-1.017578,-5.974609,0,0.2612305,0.987793,-1.872437,0,0,-2.275757,0.8999939,3.286,0,0,0,1,nan,2,0.061,1,192,0,0.8057556,0.05432129,1,-0.0009765625,-0.03222656,-0.002929688,0.1261597,2,0
819.002,0.001013,-3.447266,4.164062,-0.078125,-13.89844,9.34375,-12.59375,-2.84375,3.546875,-0.6523438,-0.8828125,-6.242188,0,0.2399902,1.033813,-1.872314,0,0,-2.275757,0.8999939,3.286,0,0,0,1,nan,2,0.071,1,192,0.7531433,0,0.9450989,1,-0.0009765625,-0.03222656,-0.002929688,0.6669312,2,0
819.012,0.001006,-1.035156,7.826172,-0.04296875,-3.078125,-6.78125,-1.78125,-1.685547,5.892578,-0.2773438,-0.7773438,-6.283203,0,0.2244873,1.077148,-1.861572,0,0,-2.275757,0.8999939,3.286,0,0,0,1,nan,2,0.081,1,192,0.2196045,0,1,0.6992188,-0.0009765625,-0.03222656,-0.002929688,0.350708,2,0
819.022,0.001013,-0.625,5.078125,1.080078,18.58594,-17.40625,-14.60156,-0.1835938,6.070312,0.3242188,-0.7792969,-6.283203,0,0.2502441,1.142456,-1.825684,0,0,-2.275757,0.8999939,3.286,0,0,0,1,nan,2,0.091,1,192,0.4437866,0,1,0.3779602,-0.0009765625,-0.03222656,-0.002929688,0.3310547,2,0
819.033,0.001009,-0.6347656,2.21875,-4.507812,24.20312,24.94531,-17.67188,-0.3613281,2.875,0.5566406,-0.859375,-6.283203,0,0.2952881,1.177856,-1.779175,0,0,-2.275757,0.8999939,3.286,0,0,0,1,nan,2,0.101,1,192,0,0.7028198,0.2172241,1,-0.0009765625,-0.03222656,-0.002929688,0.3582153,2,0
819.043,0.001006,-2.34375,0.7929688,1.535156,5.78125,11.01562,1.796875,-2.421875,1.576172,0.8066406,-0.7910156,-6.283203,0,0.2856445,1.202148,-1.770874,0,0,-2.275757,0.8999939,3.286,0,0,0,1,nan,2,0.111,1,192,0.9700928,0,1,0.2639771,-0.0009765625,-0.03222656,-0.002929688,0.2341614,2,0
819.053,0.001032,-1.904297,3.3125,1.035156,-2.8125,0.6796875,-1.71875,-1.917969,2.101562,0.8261719,-0.7890625,-6.283203,0,0.2946777,1.216553,-1.737427,0,0,-2.275757,0.8999939,3.286,0,0,0,1,nan,2,0.005,1,192,0.5461731,0,1,0.5115662,-0.0009765625,-0.03222656,-0.002929688,0.391449,2,0
819.062,0.000996,-2.509766,1.615234,0.8027344,-8.945312,6.773438,9.601562,-2.109375,2.160156,0.546875,-0.7949219,-6.283203,0,0.3122559,1.238281,-1.700195,0,0,-2.275757,0.8999939,3.286,0,0,0,1,nan,2,0.014,1,192,0.4089661,0,1,0.9801331,-0.0009765625,-0.03222656,-0.002929688,0.8416748,2,0
819.073,0.0009869999,-1.644531,0.1738281,0.8867188,-3.804688,6.765625,-6.507812,-1.740234,0.7539062,0.4296875,-0.7773438,-6.283203,0,0.3157959,1.251465,-1.671997,0,0,-2.275757,0.8999939,3.286,0,0,0,1,nan,2,0.025,1,192,0.470459,0,1,0.5451355,-0.0009765625,-0.03320312,-0.002929688,0.8024292,2,0.04761905
819.082,0.001011,-0.5390625,0.84375,0.06054688,-3.453125,10.46094,5.765625,-0.7285156,0.8496094,0.1835938,-0.7832031,-6.283203,0,0.3234863,1.257324,-1.651855,0,0,-2.275757,0.8999939,3.286,0,0,0,1,nan,2,0.034,1,192,0,0.6020203,0.6735229,1,-0.0009765625,-0.03320312,-0.002929688,0.5986328,2,0
819.092,0.001009,-0.9121094,0.03515625,-0.3886719,-6.617188,-7.695312,2.976562,-1.054688,0.1484375,0.1972656,-0.7890625,-6.283203,0,0.3287354,1.260742,-1.636597,0,0,-2.275757,0.8999939,3.286,0,0,0,1,nan,2,0.044,1,192,0,0.420166,0.506897,1,-0.0009765625,-0.03417969,-0.002929688,0.750061,2,0
819.102,0.001,-1.666016,-1.201172,-0.3144531,-13.8125,-1.65625,-5.421875,-1.722656,-1.027344,-0.04492188,-0.7519531,-6.283203,0,0.3088379,1.255737,-1.643188,0,0,-2.275757,0.8999939,3.286,0,0,0,1,nan,2,0.055,1,192,0.1491089,0.2368469,0.4021301,1,0,-0.03710938,-0.002929688,1,2,0
819.112,0.000991,-1.914062,-0.6523438,-0.2402344,-8.085938,-0.90625,-7.71875,-1.857422,-0.7890625,-0.05273438,-0.6992188,-6.283203,0,0.28125,1.248047,-1.654297,0,0,-2.275757,0.8999939,3.286,0,0,0,1,nan,2,0.001,1,192,0.2426758,0.05252075,0.7723389,1,0,-0.03808594,-0.002929688,1,2,0
819.123,0.001022,-2.849609,-1.712891,-0.0546875,-13.57812,-2.953125,0.4453125,-2.296875,-1.433594,-0.06835938,-0.6367188,-6.283203,0,0.2497559,1.23938,-1.667236,0,0,-2.275757,0.8999939,3.286,0,0,0,1,nan,2,0.011,1,192,0.7989807,0.1308289,0.9159851,1,0.0009765625,-0.04003906,-0.002929688,1,2,0
819.133,0.000972,-2.169922,-2.355469,-0.0625,-14.23438,-1.117188,2.75,-2.234375,-2.121094,-0.3457031,-0.5449219,-6.283203,0,0.204834,1.221558,-1.690918,0,0,-2.275757,0.8999939,3.286,0,0,0,1,nan,2,0.021,1,192,0.4838562,0.2897949,0.7090759,1,0.0009765625,-0.04199219,-0.002929688,1,2,0
819.142,0.001022,-1.509766,-2.232422,-0.9921875,0.0859375,-0.25,11.96094,-1.791016,-2.15625,-0.7832031,-0.4707031,-6.283203,0,0.1656494,1.202881,-1.713013,0,0,-2.275757,0,3.286,0,0,0,0,nan,2,0,1,192,0.1000061,0.1000061,0.1000061,0.1000061,0,0,0,1,2,0
819.153,0.00102,-1.949219,-2.941406,6.751953,-8.148438,-0.546875,16.92969,-1.65625,-2.896484,2.681641,-0.4707031,-6.283203,0,0.1503906,1.172852,-1.709839,0,0,-2.275757,0,3.286,0,0,0,0,nan,2,0.011,1,192,0.1000061,0.1000061,0.1000061,0.1000061,0,0,0,1,2,0
819.163,0.001039,-1.695312,-4.732422,-0.8554688,-5.382812,-1.421875,-3.945312,-1.919922,-4.005859,-0.3398438,-0.4707031,-6.283203,0,0.1439209,1.136719,-1.69519,0,0,-2.275757,0,3.286,0,0,0,0,nan,2,0.021,1,192,0.1000061,0.1000061,0.1000061,0.1000061,0,0,0,1,2,0
819.173,0.00101,-1.46875,-4.041016,-0.9628906,-7.039062,-3.898438,-3.335938,-1.644531,-4.158203,-0.8417969,-0.4707031,-6.283203,0,0.1020508,1.096558,-1.72168,0,0,-2.275757,0,3.286,0,0,0,0,nan,2,0.031,1,192,0.1000061,0.1000061,0.1000061,0.1000061,0,0,0,1,2,0
819.183,0.00101,-1.617188,-5.123047,-0.4023438,-3.484375,-2.710938,-0.8828125,-1.355469,-4.5625,-0.4960938,-0.4707031,-6.283203,0,0.06945801,1.054321,-1.743652,0,0,-2.275757,0,3.286,0,0,0,0,nan,2,0.041,1,192,0.1000061,0.1000061,0.1000061,0.1000061,0,0,0,1,2,0
819.192,0.00101,-1.003906,-5.861328,-0.359375,0.484375,2.007812,3.1875,-1.138672,-5.392578,-0.296875,-0.4707031,-6.283203,0,0.04833984,1.008301,-1.755005,0,0,-2.275757,0,3.286,0,0,0,0,nan,2,0.05,1,192,0.1000061,0.1000061,0.1000061,0.1000061,0,0,0,1,2,0
819.202,0.001007,-0.2265625,-6.751953,-0.3164062,-2.367188,4.34375,6.257812,-0.7011719,-6.361328,-0.25,-0.4707031,-6.283203,0,0.03076172,0.9486084,-1.763428,0,0,-2.275757,0,3.286,0,0,0,0,nan,2,0.061,1,192,0.1000061,0.1000061,0.1000061,0.1000061,0,0,0,1,2,0
819.212,0.001013,1.189453,-6.962891,-0.2792969,-4.828125,4.375,8.0625,0.4394531,-6.931641,-0.3398438,-0.4707031,-6.283203,0,0.0222168,0.8807373,-1.771606,0,0,-2.275757,0,3.286,0,0,0,0,nan,2,0.071,1,192,0.1000061,0.1000061,0.1000061,0.1000061,0,0,0,1,2,0
819.222,0.001012,1.480469,-7.949219,0.0625,-3.570312,2.5,7.289062,1.205078,-7.666016,-0.09375,-0.4707031,-6.283203,0,0.02685547,0.8074951,-1.777466,0,0,-2.275757,0,3.286,0,0,0,0,nan,2,0.081,1,192,0.1000061,0.1000061,0.1000061,0.1000061,0,0,0,1,2,0
819.232,0.001011,1.384766,-8.201172,-0.05859375,-2.742188,2.429688,11.3125,1.365234,-8.273438,-0.0390625,-0.4707031,-6.283203,0,0.03759766,0.7260742,-1.781372,0,0,-2.275757,0,3.286,0,0,0,0,nan,2,0.091,1,192,0.1000061,0.1000061,0.1000061,0.1000061,0,0,0,1,2,0
819.243,0.001,0.546875,-8.644531,-0.2363281,-2.820312,1.351562,12.48438,0.8847656,-8.607422,-0.09570312,-0.4707031,-6.283203,0,0.04626465,0.6411133,-1.786377,0,0,-2.275757,0,3.286,0,0,0,0,nan,2,0.101,1,192,0.1000061,0.1000061,0.1000061,0.1000061,0,0,0,1,2,0
819.253,0.00101,1.283203,-8.378906,1.28125,-36.86719,-6.898438,18.58594,1.080078,-8.685547,0.3984375,-0.4707031,-6.283203,0,0.05065918,0.5537109,-1.79248,0,0,-2.275757,0,3.286,0,0,0,0,nan,2,0.111,1,192,0.1000061,0.1000061,0.1000061,0.1000061,0,0,0,1,2,0
819.263,0.00101,1.496094,-8.019531,4.339844,3.71875,-10.03125,18.70312,1.882812,-8.177734,3.496094,-0.4707031,-6.283203,0,0.0769043,0.4686279,-1.773804,0,0,-2.275757,0,3.286,0,0,0,0,nan,2,0.121,1,192,0.1000061,0.1000061,0.1000061,0.1000061,0,0,0,1,2,0
819.273,0.00101,0.3105469,-7.050781,1.851562,13.59375,-8.59375,2.382812,0.6855469,-7.449219,2.701172,-0.4707031,-6.283203,0,0.1020508,0.3851318,-1.744385,0,0,-2.275757,0,3.286,0,0,0,0,nan,2,0.131,1,192,0.1000061,0.1000061,0.1000061,0.1000061,0,0,0,1,2,0
819.282,0.00101,-0.125,-4.894531,1.4375,1.429688,-3.304688,12.41406,-0.1347656,-5.404297,1.542969,-0.4707031,-6.283203,0,0.1071777,0.3269043,-1.7323,0,0,-2.275757,0,3.286,0,0,0,0,nan,2,0.14,1,192,0.1000061,0.1000061,0.1000061,0.1000061,0,0,0,1,2,0
819.292,0.00101,-0.2539062,-4.8125,2.548828,-2.429688,-0.4609375,14.20312,-0.1289062,-4.835938,2.347656,-0.4707031,-6.283203,0,0.1108398,0.2749023,-1.717407,0,0,-2.275757,0,3.286,0,0,0,0,nan,2,0.15,1,192,0.1000061,0.1000061,0.1000061,0.1000061,0,0,0,1,2,0
819.302,0.00101,-2.126953,-4.292969,2.679688,0.875,-1.257812,6.59375,-1.435547,-4.611328,2.761719,-0.4707031,-6.283203,0,0.1092529,0.2236328,-1.696045,0,0,-2.275757,0,3.286,0,0,0,0,nan,2,0.161,1,192,0.1000061,0.1000061,0.1000061,0.1000061,0,0,0,1,2,0
819.312,0.001034,-3.992188,-3.720703,1.839844,-11.5,25.1875,24.6875,-2.886719,-3.388672,2.113281,-0.4707031,-6.283203,0,0.09118652,0.1827393,-1.675415,0,0,-2.275757,0,3.286,0,0,0,0,nan,2,0.171,1,192,0.1000061,0.1000061,0.1000061,0.1000061,0,0,0,1,2,0
819.322,0.001008,-2.947266,-1.054688,2.486328,-1.890625,-1.929688,21.32812,-2.923828,-2.130859,2.585938,-0.4707031,-6.283203,0,0.06433105,0.1514893,-1.653076,0,0,-2.275757,0,3.286,0,0,0,0,nan,2,0.181,1,192,0.1000061,0.1000061,0.1000061,0.1000061,0,0,0,1,2,0
819.332,0.001007,-1.001953,-0.9023438,1.021484,0.609375,0.0625,27.92969,-1.755859,-1.251953,1.511719,-0.4707031,-6.283203,0,0.04260254,0.1347656,-1.63269,0,0,-2.275757,0,3.286,0,0,0,0,nan,2,0.191,1,192,0.1000061,0.1000061,0.1000061,0.1000061,0,0,0,1,2,0
819.343,0.00101,0.8652344,-0.2617188,0.5332031,3.03125,8.8125,22.0625,0.06640625,-0.6699219,0.7597656,-0.4707031,-6.283203,0,0.03625488,0.1245117,-1.622192,0,0,-2.275757,0,3.286,0,0,0,0,nan,2,0.201,1,192,0.1000061,0.1000061,0.1000061,0.1000061,0,0,0,1,2,0
819.353,0.00101,1.638672,-0.015625,-0.4648438,13.32031,1.4375,2.289062,1.248047,0.2851562,-0.046875,-0.4707031,-6.283203,0,0.0435791,0.1240234,-1.618774,0,0,-2.275757,0,3.286,0,0,0,0,nan,2,0.211,1,192,0.1000061,0.1000061,0.1000061,0.1000061,0,0,0,1,2,0
819.362,0.001017,1.283203,1.671875,-1.236328,18.63281,-3.359375,4.59375,1.185547,1.658203,-0.3828125,-0.4707031,-6.283203,0,0.05517578,0.1357422,-1.619141,0,0,-2.275757,0,3.286,0,0,0,0,nan,2,0.22,1,192,0.1000061,0.1000061,0.1000061,0.1000061,0,0,0,1,2,0
819.373,0.001017,1.560547,0.5527344,-1.380859,9.671875,2.085938,4.296875,1.308594,1.171875,-0.734375,-0.4707031,-6.283203,0,0.0682373,0.1505127,-1.625977,0,0,-2.275757,0,3.286,0,0,0,0,nan,2,0.231,1,192,0.1000061,0.1000061,0.1000061,0.1000061,0,0,0,1,2,0
819.382,0.000969,1.185547,2.082031,-1.388672,3.421875,-0.5625,12.67969,1.115234,1.261719,-1.005859,-0.4707031,-6.283203,0,0.07739258,0.1607666,-1.634521,0,0,-2.275757,0,4.063,0,0,0,0,nan,2,0.241,1,128,0.1000061,0.1000061,0.1000061,0.1000061,0,0,0,1,2,0
819.392,0.001017,0.3632812,1.265625,-0.6152344,-15.41406,4.257812,15.63281,0.3496094,0.8964844,-0.8769531,-0.4707031,-6.283203,0,0.08288574,0.1734619,-1.645508,0,0,-2.275757,0,4.063,0,0,0,0,nan,2,0.009,1,128,0.1000061,0.1000061,0.1000061,0.1000061,0,0,0,1,2,0
819.402,0.001016,-0.2265625,0.2929688,-0.8535156,-4.84375,2.21875,2.257812,-0.1425781,0.5800781,-1.011719,-0.4707031,-6.283203,0,0.0814209,0.182251,-1.655151,0,0,-2.275757,0,4.063,0,0,0,0,nan,2,0.019,1,128,0.1000061,0.1000061,0.1000061,0.1000061,0,0,0,1,2,0
819.412,0.001015,-0.3320312,-0.1953125,-0.9570312,0.1171875,0.4765625,5.375,-0.3085938,0.015625,-0.9550781,-0.4707031,-6.283203,0,0.07678223,0.1844482,-1.664062,0,0,-2.275757,0,4.063,0,0,0,0,nan,2,0.029,1,128,0.1000061,0.1000061,0.1000061,0.1000061,0,0,0,1,2,0
819.422,0.00101,-0.04492188,-1.326172,-0.6367188,-11.41406,0.671875,12.82812,-0.1191406,-0.546875,-0.609375,-0.4707031,-6.283203,0,0.07336426,0.1831055,-1.671021,0,0,-2.275757,0,4.063,0,0,0,0,nan,2,0.039,1,128,0.1000061,0.1000061,0.1000061,0.1000061,0,0,0,1,2,0
819.432,0.001009,0.2363281,-1.019531,0.3925781,3.328125,-3.679688,6.234375,0.005859375,-1.115234,0.2871094,-0.4707031,-6.283203,0,0.0723877,0.1723633,-1.672119,0,0,-2.275757,0,4.063,0,0,0,0,nan,2,0.049,1,128,0.1000061,0.1000061,0.1000061,0.1000061,0,0,0,1,2,0
819.443,0.00101,-0.3847656,-1.173828,0.5195312,-0.234375,-0.328125,7.65625,-0.1855469,-1.248047,0.4746094,-0.4707031,-6.283203,0,0.07324219,0.1602783,-1.668091,0,0,-2.275757,0,4.063,0,0,0,0,nan,2,0.059,1,128,0.1000061,0.1000061,0.1000061,0.1000061,0,0,0,1,2,0
819.453,0.001059,-0.6074219,-0.7636719,0.3476562,-1.796875,1.570312,11.72656,-0.5957031,-1.052734,0.3828125,-0.4707031,-6.283203,0,0.06945801,0.1472168,-1.664185,0,0,-2.275757,0,4.063,0,0,0,0,nan,2,0.07,1,128,0.1000061,0.1000061,0.1000061,0.1000061,0,0,0,1,2,0
819.463,0.00101,-0.8320312,-0.08203125,0.15625,1.1875,0.203125,15.36719,-0.7695312,-0.3535156,0.2539062,-0.4707031,-6.283203,0,0.06274414,0.140625,-1.661499,0,0,-2.275757,0,4.063,0,0,0,0,nan,2,0.08,1,128,0.1000061,0.1000061,0.1000061,0.1000061,0,0,0,1,2,0
819.473,0.00101,-0.2382812,0.2578125,-0.078125,0.28125,1.140625,15.21875,-0.4296875,0.1171875,0.046875,-0.4707031,-6.283203,0,0.0559082,0.1395264,-1.6604,0,0,-2.275757,0,4.063,0,0,0,0,nan,2,0.09,1,128,0.1000061,0.1000061,0.1000061,0.1000061,0,0,0,1,2,0
819.483,0.00101,0.2421875,0.1972656,-0.2480469,1.09375,-0.390625,6.164062,0.08398438,0.1972656,-0.1035156,-0.4707031,-6.283203,0,0.05480957,0.1412354,-1.660767,0,0,-2.275757,0,4.063,0,0,0,0,nan,2,0.1,1,128,0.1000061,0.1000061,0.1000061,0.1000061,0,0,0,1,2,0
819.492,0.00101,0.6269531,0.3554688,-0.1875,0.578125,-0.140625,6.960938,0.5195312,0.3242188,-0.1621094,-0.4707031,-6.283203,0,0.05810547,0.1437988,-1.661865,0,0,-2.275757,0,4.063,0,0,0,0,nan,2,0.109,1,128,0.1000061,0.1000061,0.1000061,0.1000061,0,0,0,1,2,0
819.502,0.001011,0.4296875,0.5625,0.0078125,-4.648438,-0.546875,9.421875,0.5058594,0.5410156,-0.1152344,-0.4707031,-6.283203,0,0.06359863,0.1483154,-1.66272,0,0,-2.275757,0,4.063,0,0,0,0,nan,2,0.119,1,128,0.1000061,0.1000061,0.1000061,0.1000061,0,0,0,1,2,0
819.512,0.001002,0.1386719,0.7617188,-0.109375,-3.5625,0.859375,9.609375,0.2265625,0.6933594,-0.109375,-0.4707031,-6.283203,0,0.06689453,0.1544189,-1.663452,0,0,-2.275757,0,4.063,0,0,0,0,nan,2,0.129,1,128,0.1000061,0.1000061,0.1000061,0.1000061,0,0,0,1,2,0.01587302
819.522,0.00101,-0.1054688,0.4746094,-0.2382812,-0.328125,1.0625,7.273438,0.009765625,0.4980469,-0.1464844,-0.4707031,-6.283203,0,0.06774902,0.1606445,-1.664429,0,0,-2.275757,0,4.063,0,0,0,0,nan,2,0.139,1,128,0.1000061,0.1000061,0.1000061,0.1000061,0,0,0,1,2,0
819.532,0.001011,-0.1425781,-0.2089844,-0.125,0.25,-1.296875,7.679688,-0.06640625,0.01953125,-0.1230469,-0.4707031,-6.283203,0,0.06738281,0.1635742,-1.665649,0,0,-2.275757,0,4.063,0,0,0,0,nan,2,0.149,1,128,0.1000061,0.1000061,0.1000061,0.1000061,0,0,0,1,2,0
819.543,0.001011,0.1015625,-0.4355469,0.1210938,-2.648438,-0.7421875,9.476562,0.0625,-0.28125,0.01367188,-0.4707031,-6.283203,0,0.06713867,0.1621094,-1.666138,0,0,-2.275757,0,4.063,0,0,0,0,nan,2,0.159,1,128,0.1000061,0.1000061,0.1000061,0.1000061,0,0,0,1,2,0.3809524
819.553,0.00101,-0.1132812,-0.5839844,0.08789062,-1.578125,0.0546875,9.0625,-0.09375,-0.5449219,0.0859375,-0.4707031,-6.283203,0,0.06665039,0.1575928,-1.665894,0,0,-2.275757,0,4.063,0,0,0,0,nan,2,0.169,1,128,0.1000061,0.1000061,0.1000061,0.1000061,0,0,0,1,2,0
819.563,0.00101,-0.2363281,-0.34375,-0.03710938,0.671875,0.625,10.21094,-0.1679688,-0.4394531,0.04882812,-0.4707031,-6.283203,0,0.06542969,0.1524658,-1.665649,0,0,-2.275757,0,4.063,0,0,0,0,nan,2,0.18,1,128,0.1000061,0.1000061,0.1000061,0.1000061,0,0,0,1,2,0.04761905
819.573,0.00101,-0.09960938,-0.1425781,0.02929688,-2.796875,-1.117188,11.21875,-0.15625,-0.2421875,0.001953125,-0.4707031,-6.283203,0,0.06347656,0.1486816,-1.665771,0,0,-2.275757,0,4.063,0,0,0,0,nan,2,0.19,1,128,0.1000061,0.1000061,0.1000061,0.1000061,0,0,0,1,2,0
819.582,0.00101,-0.07226562,-0.01757812,0.08398438,-3.28125,-1.046875,8.796875,-0.046875,-0.05273438,0.02148438,-0.4707031,-6.283203,0,0.06286621,0.1474609,-1.665649,0,0,-2.275757,0,4.063,0,0,0,0,nan,2,0.199,1,128,0.1000061,0.1000061,0.1000061,0.1000061,0,0,0,1,2,0.03174603
819.592,0.00101,0.1132812,0.28125,-0.00390625,-1.460938,1.1875,10.71094,0.0234375,0.1777344,0.015625,-0.4707031,-6.283203,0,0.06262207,0.1484375,-1.665405,0,0,-2.275757,0,4.063,0,0,0,0,nan,2,0.209,1,128,0.1000061,0.1000061,0.1000061,0.1000061,0,0,0,1,2,0
819.602,0.001023,0.06054688,0.4453125,-0.03710938,-2.078125,0.1015625,11.47656,0.0703125,0.3867188,-0.0390625,-0.4707031,-6.283203,0,0.06323242,0.1514893,-1.665405,0,0,-2.275757,0,4.063,0,0,0,0,nan,2,0.219,1,128,0.1000061,0.1000061,0.1000061,0.1000061,0,0,0,1,2,0
819.612,0.000996,0.02148438,0.1503906,0.04101562,-2.359375,-1.460938,7.414062,0.0625,0.3027344,-0.009765625,-0.4707031,-6.283203,0,0.06384277,0.1551514,-1.665405,0,0,-2.275757,0,4.063,0,0,0,0,nan,2,0.004,1,128,0.1000061,0.1000061,0.1000061,0.1000061,0,0,0,1,2,0
819.622,0.001011,0.1386719,0.1113281,-0.04296875,-0.125,1.070312,9.351562,0.09179688,0.1484375,-0.005859375,-0.4707031,-6.283203,0,0.06481934,0.1577148,-1.665283,0,0,-2.275757,0,4.063,0,0,0,0,nan,2,0.014,1,128,0.1000061,0.1000061,0.1000061,0.1000061,0,0,0,1,2,0.04761905
819.632,0.001008,0.1171875,-0.04101562,-0.015625,-2.328125,0.6640625,11.47656,0.09375,0,-0.009765625,-0.4707031,-6.283203,0,0.06567383,0.1583252,-1.665283,0,0,-2.275757,0,4.063,0,0,0,0,nan,2,0.024,1,128,0.1000061,0.1000061,0.1000061,0.1000061,0,0,0,1,2,0
819.643,0.00101,-0.1777344,-0.3261719,0.04296875,-1.671875,-1.609375,7.132812,-0.04882812,-0.1738281,0.01171875,-0.4707031,-6.283203,0,0.0657959,0.1571045,-1.665283,0,0,-2.275757,0,4.063,0,0,0,0,nan,2,0.034,1,128,0.1000061,0.1000061,0.1000061,0.1000061,0,0,0,1,2,0
819.653,0.00101,0.01367188,-0.1679688,-0.02539062,-0.3359375,0.7890625,10.88281,-0.06445312,-0.25,0.00390625,-0.4707031,-6.283203,0,0.06518555,0.1549072,-1.665527,0,0,-2.275757,0,4.063,0,0,0,0,nan,2,0.044,1,128,0.1000061,0.1000061,0.1000061,0.1000061,0,0,0,1,2,0
819.663,0.00101,-0.03320312,-0.1484375,-0.005859375,-2.65625,0.03125,11.53906,-0.03515625,-0.1835938,-0.01171875,-0.4707031,-6.283203,0,0.06469727,0.15271,-1.665649,0,0,-2.275757,0,4.063,0,0,0,0,nan,2,0.055,1,128,0.1000061,0.1000061,0.1000061,0.1000061,0,0,0,1,2,0
819.673,0.001011,-0.1054688,-0.1464844,0.02148438,-1.125,-0.671875,8.695312,-0.05859375,-0.1152344,0.00390625,-0.4707031,-6.283203,0,0.06408691,0.151123,-1.665771,0,0,-2.275757,0,4.063,0,0,0,0,nan,2,0.065,1,128,0.1000061,0.1000061,0.1000061,0.1000061,0,0,0,1,2,0
819.683,0.00101,0.09375,0.2382812,-0.03125,-1.914062,1.640625,11.67969,-0.005859375,0.06054688,-0.009765625,-0.4707031,-6.283203,0,0.06384277,0.151001,-1.665771,0,0,-2.275757,0,4.063,0,0,0,0,nan,2,0.075,1,128,0.1000061,0.1000061,0.1000061,0.1000061,0,0,0,1,2,0
819.692,0.00101,0.09960938,0.2167969,-0.015625,-2.554688,0.359375,11.57031,0.05078125,0.1777344,-0.009765625,-0.4707031,-6.283203,0,0.06384277,0.1520996,-1.665771,0,0,-2.275757,0,4.063,0,0,0,0,nan,2,0.084,1,128,0.1000061,0.1000061,0.1000061,0.1000061,0,0,0,1,2,0
819.702,0.001015,-0.08398438,0.08984375,0.01757812,-0.4921875,-1.085938,6.867188,0.005859375,0.1660156,0.001953125,-0.4707031,-6.283203,0,0.06420898,0.1538086,-1.665771,0,0,-2.275757,0,4.063,0,0,0,0,nan,2,0.094,1,128,0.1000061,0.1000061,0.1000061,0.1000061,0,0,0,1,2,0
819.712,0.001014,0.1679688,0.1816406,-0.01367188,-3.023438,1.71875,11.96875,0.05664062,0.1621094,0,-0.4707031,-6.283203,0,0.06445312,0.1555176,-1.665649,0,0,-2.275757,0,4.063,0,0,0,0,nan,2,0.104,1,128,0.1000061,0.1000061,0.1000061,0.1000061,0,0,0,1,2,0
819.722,0.001013,-0.109375,-0.125,0.005859375,-0.4453125,-0.875,7.265625,0.01953125,0.005859375,0.001953125,-0.4707031,-6.283203,0,0.06481934,0.15625,-1.665527,0,0,-2.275757,0,4.063,0,0,0,0,nan,2,0.114,1,128,0.1000061,0.1000061,0.1000061,0.1000061,0,0,0,1,2,0
