t,dt_s,gyro_x,gyro_y,gyro_z,acc_x,acc_y,acc_z,rates.x,rates.y,rates.z,ratesTarget.x,ratesTarget.y,ratesTarget.z,attitude.x,attitude.y,attitude.z,attitudeTarget.x,attitudeTarget.y,attitudeTarget.z,thrustTarget,battery_v,rc_roll,rc_pitch,rc_yaw,rc_throttle,rc_mode,flight_mode,rc_age_s,armed,fault_mask,motor_rl,motor_rr,motor_fr,motor_fl,rate_i_x,rate_i_y,rate_i_z,mix_scale,control_source,accel_correction_confidence
136.452,0.001012,0.009765625,0.02734375,-0.0234375,0.6328125,1.015625,8.710938,-0.009765625,0.015625,0.00390625,-0.01757812,-0.05859375,0,-0.02441406,0.0002441406,-2.691528,0,0,2.497314,0,4.077,0,0,0,0,nan,2,0.074,1,128,0.1000061,0.1000061,0.1000061,0.1000061,0,0,0,1,2,0
136.462,0.00101,-0.03125,-0.02929688,0.05078125,-1.109375,-0.375,10.92969,0.00390625,-0.009765625,0.001953125,-0.01757812,-0.05859375,0,-0.02441406,0.0002441406,-2.691528,0,0,2.497314,0,4.077,0,0,0,0,nan,2,0.084,1,128,0.1000061,0.1000061,0.1000061,0.1000061,0,0,0,1,2,0
136.472,0.001008,0.02929688,0.04101562,-0.0703125,0.5,-0.3359375,8.164062,-0.00390625,0.01171875,-0.005859375,-0.01757812,-0.05859375,0,-0.02441406,0.0002441406,-2.691528,0,0,2.497314,0,4.077,0,0,0,0,nan,2,0.094,1,128,0.1000061,0.1000061,0.1000061,0.1000061,0,0,0,1,2,0
136.482,0.001007,-0.05273438,-0.04492188,0.07226562,-1.328125,-0.34375,11.29688,-0.005859375,-0.0078125,0.001953125,-0.01757812,-0.05859375,0,-0.02441406,0.0002441406,-2.691528,0,0,2.497314,0,4.077,0,0,0,0,nan,2,0.104,1,128,0.1000061,0.1000061,0.1000061,0.1000061,0,0,0,1,2,0
136.493,0.001007,0.05664062,0.05273438,-0.08203125,0.4921875,-1.023438,7.945312,0.0078125,0.009765625,-0.0078125,-0.01757812,-0.05859375,0,-0.02441406,0.0002441406,-2.691528,0,0,2.497314,0,4.077,0,0,0,0,nan,2,0.114,1,128,0.1000061,0.1000061,0.1000061,0.1000061,0,0,0,1,2,0
136.503,0.001006,-0.06835938,-0.0546875,0.07421875,-0.7421875,0.6953125,11.875,-0.01171875,-0.009765625,0.005859375,-0.01757812,-0.05859375,0,-0.02441406,0.0002441406,-2.691528,0,0,2.497314,0,4.077,0,0,0,0,nan,2,0.124,1,128,0.1000061,0.1000061,0.1000061,0.1000061,0,0,0,1,2,0
136.513,0.001006,0.08007812,0.04882812,-0.06054688,0.78125,-2.679688,8.085938,0.01953125,0.005859375,0,-0.01757812,-0.05859375,0,-0.02441406,0.0002441406,-2.691528,0,0,2.497314,0,4.077,0,0,0,0,nan,2,0.134,1,128,0.1000061,0.1000061,0.1000061,0.1000061,0,0,0,1,2,0
136.523,0.001006,-0.09570312,-0.03320312,0.046875,-0.734375,1.546875,12.15625,-0.02539062,-0.001953125,-0.001953125,-0.01757812,-0.05859375,0,-0.02441406,0.0002441406,-2.691528,0,0,2.497314,0,4.077,0,0,0,0,nan,2,0.144,1,128,0.1000061,0.1000061,0.1000061,0.1000061,0,0,0,1,2,0
136.533,0.001007,0.1015625,0.03125,-0.03515625,0.75,-2.28125,8.515625,0.02929688,0.005859375,0,-0.01757812,-0.05859375,0,-0.02441406,0.0002441406,-2.691528,0,0,2.497314,0,4.077,0,0,0,0,nan,2,0.154,1,128,0.1000061,0.1000061,0.1000061,0.1000061,0,0,0,1,2,0
136.542,0.00101,-0.0859375,-0.02929688,0.02148438,0.21875,1.757812,11.07812,-0.02148438,-0.00390625,0.001953125,-0.01757812,-0.05859375,0,-0.02441406,0.0002441406,-2.691528,0,0,2.497314,0,4.077,0,0,0,0,nan,2,0.164,1,128,0.1000061,0.1000061,0.1000061,0.1000061,0,0,0,1,2,0
136.552,0.001012,0.07421875,0.02539062,-0.0078125,0.09375,-1.84375,9.710938,0.02539062,0.005859375,0.001953125,-0.01757812,-0.05859375,0,-0.02429199,0.0002441406,-2.691528,0,0,2.497314,0,4.077,0,0,0,0,nan,2,0.174,1,128,0.1000061,0.1000061,0.1000061,0.1000061,0,0,0,1,2,0.7619048
136.562,0.001013,-0.08007812,0.009765625,-0.015625,0.3359375,1.515625,9.90625,-0.03125,0,-0.005859375,-0.01757812,-0.05859375,0,-0.02441406,0.0002441406,-2.691528,0,0,2.497314,0,4.077,0,0,0,0,nan,2,0.184,1,128,0.1000061,0.1000061,0.1000061,0.1000061,0,0,0,1,2,0.4761905
136.572,0.000988,0.05859375,-0.0078125,0.03515625,-0.8828125,-2.1875,9.617188,0.0234375,0.0078125,0.005859375,-0.01757812,-0.05859375,0,-0.02429199,0.0002441406,-2.691528,0,0,2.497314,0,4.077,0,0,0,0,nan,2,0.194,1,128,0.1000061,0.1000061,0.1000061,0.1000061,0,0,0,1,2,0.7301587
136.583,0.001057,-0.04492188,0.015625,-0.03515625,0.7734375,1.789062,9.28125,-0.0234375,-0.00390625,-0.00390625,-0.01757812,-0.05859375,0,-0.02429199,0.0001220703,-2.691528,0,0,2.497314,0,4.077,0,0,0,0,nan,2,0.005,1,128,0.1000061,0.1000061,0.1000061,0.1000061,0,0,0,1,2,0.3174603
136.593,0.001007,0.01367188,-0.01171875,0.04492188,-1.859375,-1.25,10.02344,0.015625,0.005859375,0.005859375,-0.01757812,-0.05859375,0,-0.02429199,0.0001220703,-2.691528,0,0,2.497314,0,4.077,0,0,0,0,nan,2,0.015,1,128,0.1000061,0.1000061,0.1000061,0.1000061,0,0,0,1,2,0.04761905
136.603,0.001013,0,0.02734375,-0.0390625,0.9140625,0.6484375,8.742188,-0.01367188,-0.0078125,-0.00390625,-0.01757812,-0.05859375,0,-0.02429199,0.0001220703,-2.691528,0,0,2.497314,0,4.077,0,0,0,0,nan,2,0.025,1,128,0.1000061,0.1000061,0.1000061,0.1000061,0,0,0,1,2,0
136.613,0.001013,-0.03710938,-0.01953125,0.03515625,-2.15625,-0.65625,10.64844,0.00390625,0.01171875,0.00390625,-0.01757812,-0.05859375,0,-0.02429199,0.0001220703,-2.691528,0,0,2.497314,0,4.077,0,0,0,0,nan,2,0.035,1,128,0.1000061,0.1000061,0.1000061,0.1000061,0,0,0,1,2,0
136.623,0.001013,0.03710938,0.02734375,-0.03320312,1.5,0.09375,9.109375,-0.00390625,-0.01171875,-0.00390625,-0.01757812,-0.05859375,0,-0.02429199,0,-2.691528,0,0,2.497314,0,4.077,0,0,0,0,nan,2,0.045,1,128,0.1000061,0.1000061,0.1000061,0.1000061,0,0,0,1,2,0
136.632,0.001012,0.0078125,0.06054688,0.005859375,-0.1171875,-0.453125,9.765625,0.01367188,0.02539062,-0.001953125,-0.01757812,-0.05859375,0,-0.02429199,0,-2.691528,0,0,2.497314,0,4.077,0,0,0,0,nan,2,0.054,1,128,0.1000061,0.1000061,0.1000061,0.1000061,0,0,0,1,2,0.8730159
136.642,0.00101,0.07421875,0.02148438,-0.0078125,2.1875,-0.6796875,9.335938,0.009765625,0,0,-0.01757812,-0.05859375,0,-0.02416992,0,-2.691528,0,0,2.497314,0,4.077,0,0,0,0,nan,2,0.065,1,128,0.1000061,0.1000061,0.1000061,0.1000061,0,0,0,1,2,0.5714286
136.652,0.001073,-0.08203125,-0.02929688,-0.0078125,-1.242188,0.6640625,10.23438,-0.005859375,0.015625,-0.001953125,-0.01757812,-0.05859375,0,-0.02416992,0.0001220703,-2.691528,0,0,2.497314,0,4.077,0,0,0,0,nan,2,0.075,1,128,0.1000061,0.1000061,0.1000061,0.1000061,0,0,0,1,2,0
136.662,0.001006,0.07421875,0.03320312,0.02539062,1.4375,-1.1875,10.13281,0.001953125,-0.0078125,0,-0.01757812,-0.05859375,0,-0.02416992,0,-2.691528,0,0,2.497314,0,4.077,0,0,0,0,nan,2,0.085,1,128,0.1000061,0.1000061,0.1000061,0.1000061,0,0,0,1,2,0
136.672,0.001014,-0.08398438,-0.03515625,-0.04101562,-0.6953125,0.453125,9.515625,-0.0078125,0.00390625,0.001953125,-0.01757812,-0.05859375,0,-0.02404785,0.0001220703,-2.691528,0,0,2.497314,0,4.077,0,0,0,0,nan,2,0.095,1,128,0.1000061,0.1000061,0.1000061,0.1000061,0,0,0,1,2,0.4761905
136.682,0.001009,0.07226562,0.0234375,0.05664062,1.515625,-1.320312,10.5625,0.00390625,-0.00390625,-0.001953125,-0.01757812,-0.05859375,0,-0.02416992,0.0001220703,-2.691528,0,0,2.497314,0,4.077,0,0,0,0,nan,2,0.105,1,128,0.1000061,0.1000061,0.1000061,0.1000061,0,0,0,1,2,0
136.692,0.001008,-0.05664062,-0.046875,-0.05664062,-0.8671875,-0.1328125,8.992188,0,-0.005859375,0.005859375,-0.01757812,-0.05859375,0,-0.02404785,0.0001220703,-2.691528,0,0,2.497314,0,4.077,0,0,0,0,nan,2,0.115,1,128,0.1000061,0.1000061,0.1000061,0.1000061,0,0,0,1,2,0
136.703,0.00101,0.06054688,0.046875,0.05078125,1.007812,-0.7421875,10.51562,0.001953125,0.0078125,-0.0078125,-0.01757812,-0.05859375,0,-0.02416992,0.0001220703,-2.691528,0,0,2.497314,0,4.077,0,0,0,0,nan,2,0.125,1,128,0.1000061,0.1000061,0.1000061,0.1000061,0,0,0,1,2,0
136.713,0.00101,-0.03710938,-0.05859375,-0.04882812,-0.859375,0.1171875,7.640625,0.001953125,-0.01171875,0.0078125,-0.01757812,-0.05859375,0,-0.02404785,0.0001220703,-2.691528,0,0,2.497314,0,4.077,0,0,0,0,nan,2,0.135,1,128,0.1000061,0.1000061,0.1000061,0.1000061,0,0,0,1,2,0
136.723,0.00101,0.02539062,0.06640625,0.0390625,0.609375,0.125,12.01562,-0.00390625,0.01757812,-0.009765625,-0.01757812,-0.05859375,0,-0.02416992,0.0001220703,-2.691528,0,0,2.497314,0,4.077,0,0,0,0,nan,2,0.145,1,128,0.1000061,0.1000061,0.1000061,0.1000061,0,0,0,1,2,0
136.733,0.001012,-0.005859375,-0.06835938,-0.02929688,-0.8515625,-0.2890625,7.679688,0.00390625,-0.01953125,0.0078125,-0.01757812,-0.05859375,0,-0.02404785,0.0001220703,-2.691528,0,0,2.497314,0,4.077,0,0,0,0,nan,2,0.155,1,128,0.1000061,0.1000061,0.1000061,0.1000061,0,0,0,1,2,0
136.743,0.001008,0.01757812,0.001953125,0.06054688,-0.734375,0.078125,11.10156,0.00390625,0.001953125,0.009765625,-0.01757812,-0.05859375,0,-0.02404785,0,-2.691528,0,0,2.497314,0,4.077,0,0,0,0,nan,2,0.166,1,128,0.1000061,0.1000061,0.1000061,0.1000061,0,0,0,1,2,0
136.752,0.001012,0.00390625,-0.0625,-0.01367188,-0.5,0.1484375,7.84375,0.00390625,-0.01953125,0.005859375,-0.01757812,-0.05859375,0,-0.02404785,0,-2.691528,0,0,2.497314,0,4.077,0,0,0,0,nan,2,0.175,1,128,0.1000061,0.1000061,0.1000061,0.1000061,0,0,0,1,2,0
136.762,0.001012,0.009765625,0.04101562,0.01367188,0.765625,0.5078125,10.94531,0,0.01367188,-0.00390625,-0.01757812,-0.05859375,0,-0.02404785,0,-2.691528,0,0,2.497314,0,4.077,0,0,0,0,nan,2,0.185,1,128,0.1000061,0.1000061,0.1000061,0.1000061,0,0,0,1,2,0
136.772,0.001019,-0.0078125,-0.05078125,-0.01757812,0.0390625,1.023438,8.710938,-0.005859375,-0.01367188,0,-0.01757812,-0.05859375,0,-0.02404785,0,-2.691528,0,0,2.497314,0,4.077,0,0,0,0,nan,2,0.195,1,128,0.1000061,0.1000061,0.1000061,0.1000061,0,0,0,1,2,0
136.783,0.000995,0.01171875,0.01953125,0.02539062,0.0625,-0.2890625,10.13281,0.00390625,0.00390625,0.005859375,-0.01757812,-0.05859375,0,-0.02404785,0,-2.691528,0,0,2.497314,0,4.077,0,0,0,0,nan,2,0.004,1,128,0.1000061,0.1000061,0.1000061,0.1000061,0,0,0,1,2,0.2539683
136.793,0.001009,-0.02148438,-0.01953125,-0.03515625,0.6015625,0.734375,9.9375,-0.005859375,-0.001953125,-0.005859375,-0.01757812,-0.05859375,0,-0.02404785,0,-2.691528,0,0,2.497314,0,4.077,0,0,0,0,nan,2,0.014,1,128,0.1000061,0.1000061,0.1000061,0.1000061,0,0,0,1,2,0.5238096
136.803,0.00101,0.03125,-0.005859375,0.05078125,-0.6328125,-0.8984375,9.710938,0.0078125,-0.00390625,0.01171875,-0.01757812,-0.05859375,0,-0.02404785,0,-2.691406,0,0,2.497314,0,4.077,0,0,0,0,nan,2,0.024,1,128,0.1000061,0.1000061,0.1000061,0.1000061,0,0,0,1,2,0.6984127
136.813,0.00101,-0.04296875,0.01367188,-0.0625,0.6484375,0.4375,10.17188,-0.0078125,0.0078125,-0.009765625,-0.01757812,-0.05859375,0,-0.02404785,0,-2.691406,0,0,2.497314,0,4.077,0,0,0,0,nan,2,0.034,1,128,0.1000061,0.1000061,0.1000061,0.1000061,0,0,0,1,2,0.1428571
136.823,0.00101,0.05273438,-0.03125,0.08007812,-0.9921875,-0.625,9.695312,0.009765625,-0.009765625,0.01757812,-0.01757812,-0.05859375,0,-0.02404785,0,-2.691406,0,0,2.497314,0,4.077,0,0,0,0,nan,2,0.044,1,128,0.1000061,0.1000061,0.1000061,0.1000061,0,0,0,1,2,0.6666667
136.833,0.00101,-0.06054688,0.04882812,-0.09375,0.640625,0.078125,10.50781,-0.0078125,0.01171875,-0.01757812,-0.01757812,-0.05859375,0,-0.02404785,0,-2.691406,0,0,2.497314,0,4.077,0,0,0,0,nan,2,0.054,1,128,0.1000061,0.1000061,0.1000061,0.1000061,0,0,0,1,2,0
136.842,0.00101,0.0390625,-0.03515625,0.09375,-0.6015625,-1.148438,9.859375,-0.001953125,-0.001953125,0.001953125,-0.01757812,-0.05859375,0,-0.02404785,0,-2.691406,0,0,2.497314,0,4.077,0,0,0,0,nan,2,0.064,1,128,0.1000061,0.1000061,0.1000061,0.1000061,0,0,0,1,2,0.6031746
136.852,0.00101,-0.03515625,0.04296875,-0.09375,0.6875,0.5078125,10.15625,-0.001953125,0.01171875,-0.01367188,-0.01757812,-0.05859375,0,-0.02404785,0,-2.691406,0,0,2.497314,0,4.077,0,0,0,0,nan,2,0.074,1,128,0.1000061,0.1000061,0.1000061,0.1000061,0,0,0,1,2,0.1746032
136.862,0.001009,0.009765625,-0.02148438,0.08398438,-0.015625,-0.40625,9.703125,-0.0078125,-0.00390625,0.0078125,-0.01757812,-0.05859375,0,-0.02404785,0,-2.691528,0,0,2.497314,0,4.077,0,0,0,0,nan,2,0.084,1,128,0.1000061,0.1000061,0.1000061,0.1000061,0,0,0,1,2,0.6349207
136.872,0.001013,0.00390625,0.009765625,-0.07226562,0.03125,-0.171875,10.29688,0.0078125,0.005859375,-0.005859375,-0.01757812,-0.05859375,0,-0.02404785,0,-2.691406,0,0,2.497314,0,4.077,0,0,0,0,nan,2,0.094,1,128,0.1000061,0.1000061,0.1000061,0.1000061,0,0,0,1,2,0
136.882,0.001011,-0.005859375,0.01171875,0.06835938,0.984375,0.3046875,9.367188,-0.0078125,0,0.0078125,-0.01757812,-0.05859375,0,-0.02404785,0,-2.691406,0,0,2.497314,0,4.077,0,0,0,0,nan,2,0.104,1,128,0.1000061,0.1000061,0.1000061,0.1000061,0,0,0,1,2,0.2063492
136.892,0.001012,0.015625,-0.02734375,-0.05078125,-0.8828125,-0.171875,10.50781,0.00390625,-0.001953125,-0.005859375,-0.01757812,-0.05859375,0,-0.02404785,0,-2.691406,0,0,2.497314,0,4.077,0,0,0,0,nan,2,0.114,1,128,0.1000061,0.1000061,0.1000061,0.1000061,0,0,0,1,2,0
136.903,0.001008,-0.02148438,0.05273438,0.04101562,1.554688,0.390625,9.007812,-0.0078125,0.005859375,0.005859375,-0.01757812,-0.05859375,0,-0.02404785,0,-2.691406,0,0,2.497314,0,4.077,0,0,0,0,nan,2,0.124,1,128,0.1000061,0.1000061,0.1000061,0.1000061,0,0,0,1,2,0
136.913,0.001008,0.03320312,-0.06835938,-0.02539062,-1.703125,-0.0234375,10.46094,0.009765625,-0.0078125,-0.005859375,-0.01757812,-0.05859375,0,-0.02392578,0,-2.691406,0,0,2.497314,0,4.077,0,0,0,0,nan,2,0.134,1,128,0.1000061,0.1000061,0.1000061,0.1000061,0,0,0,1,2,0
136.923,0.001008,-0.01367188,0.08203125,0.02148438,2.046875,0.3671875,8.78125,-0.005859375,0.0078125,0.0078125,-0.01757812,-0.05859375,0,-0.02392578,0,-2.691406,0,0,2.497314,0,4.077,0,0,0,0,nan,2,0.144,1,128,0.1000061,0.1000061,0.1000061,0.1000061,0,0,0,1,2,0
136.933,0.001008,0.009765625,-0.0859375,-0.015625,-1.570312,0.7421875,10.47656,0.00390625,-0.005859375,-0.01367188,-0.01757812,-0.05859375,0,-0.02392578,0,-2.691528,0,0,2.497314,0,4.077,0,0,0,0,nan,2,0.154,1,128,0.1000061,0.1000061,0.1000061,0.1000061,0,0,0,1,2,0
136.942,0.00101,-0.01953125,0.02734375,0.0625,0.8203125,-0.8359375,9.28125,-0.005859375,-0.01171875,0.015625,-0.01757812,-0.05859375,0,-0.02392578,0,-2.691406,0,0,2.497314,0,4.077,0,0,0,0,nan,2,0.164,1,128,0.1000061,0.1000061,0.1000061,0.1000061,0,0,0,1,2,0.06349207
136.952,0.001016,-0.02148438,-0.078125,-0.01757812,-1.804688,0.875,10.48438,-0.001953125,-0.00390625,-0.01757812,-0.01757812,-0.05859375,0,-0.02392578,0,-2.691528,0,0,2.497314,0,4.077,0,0,0,0,nan,2,0.174,1,128,0.1000061,0.1000061,0.1000061,0.1000061,0,0,0,1,2,0
136.962,0.001011,0.02539062,0.07226562,0.02148438,1.523438,-0.8515625,9.085938,-0.001953125,0.005859375,0.02148438,-0.01757812,-0.05859375,0,-0.02392578,0,-2.691406,0,0,2.497314,0,4.077,0,0,0,0,nan,2,0.184,1,128,0.1000061,0.1000061,0.1000061,0.1000061,0,0,0,1,2,0
136.972,0.00101,-0.046875,-0.05859375,-0.02929688,-1.195312,0.6640625,10.46094,-0.001953125,-0.001953125,-0.02148438,-0.01757812,-0.05859375,0,-0.02392578,0,-2.691528,0,0,2.497314,0,4.077,0,0,0,0,nan,2,0.194,1,128,0.1000061,0.1000061,0.1000061,0.1000061,0,0,0,1,2,0
136.982,0.00101,0.06054688,0.046875,0.03320312,0.5078125,-0.5,9.554688,0.001953125,0.005859375,0.01953125,-0.01757812,-0.05859375,0,-0.02392578,0,-2.691528,0,0,2.497314,0,4.077,0,0,0,0,nan,2,0.204,1,128,0.1000061,0.1000061,0.1000061,0.1000061,0,0,0,1,2,0.4603175
136.993,0.000999,-0.06054688,-0.04296875,-0.03320312,-0.4296875,0.4921875,9.9375,0.00390625,-0.005859375,-0.01953125,-0.01757812,-0.05859375,0,-0.02392578,0,-2.691528,0,0,2.497314,0,4.077,0,0,0,0,nan,2,0.214,1,128,0.1000061,0.1000061,0.1000061,0.1000061,0,0,0,1,2,0.6349207
137.003,0.001039,0.07421875,0.0234375,0.02929688,0.6015625,-0.609375,9.851562,-0.00390625,0.005859375,0.015625,-0.01757812,-0.05859375,0,-0.02392578,0,-2.691528,0,0,2.497314,0,4.077,0,0,0,0,nan,2,0.004,1,128,0.1000061,0.1000061,0.1000061,0.1000061,0,0,0,1,2,0.6666667
137.013,0.00101,-0.08203125,-0.02929688,-0.02929688,0.0546875,0.2734375,9,-0.001953125,-0.0078125,-0.01171875,-0.01757812,-0.05859375,0,-0.02392578,0,-2.691528,0,0,2.497314,0,4.077,0,0,0,0,nan,2,0.014,1,128,0.1000061,0.1000061,0.1000061,0.1000061,0,0,0,1,2,0
137.023,0.00101,0.07421875,0.02148438,0.009765625,0.796875,0.125,10.76562,-0.00390625,0.01171875,0.001953125,-0.01757812,-0.05859375,0,-0.02392578,0,-2.691528,0,0,2.497314,0,4.077,0,0,0,0,nan,2,0.024,1,128,0.1000061,0.1000061,0.1000061,0.1000061,0,0,0,1,2,0
137.033,0.001012,-0.08007812,-0.03125,0,0.6875,0.1484375,9.359375,0,-0.01171875,0.00390625,-0.01757812,-0.05859375,0,-0.02392578,0,-2.691528,0,0,2.497314,0,4.077,0,0,0,0,nan,2,0.034,1,128,0.1000061,0.1000061,0.1000061,0.1000061,0,0,0,1,2,0.1269841
137.043,0.001008,0.0859375,-0.0234375,0.00390625,-1.335938,-1.140625,10.04688,0.005859375,0.005859375,-0.001953125,-0.01757812,-0.05859375,0,-0.02392578,0.0001220703,-2.691528,0,0,2.497314,0,4.077,0,0,0,0,nan,2,0.044,1,128,0.1000061,0.1000061,0.1000061,0.1000061,0,0,0,1,2,0.1904762
137.052,0.001012,-0.07421875,-0.04492188,0.03125,-0.671875,-0.1171875,10.32031,-0.005859375,-0.015625,0.01171875,-0.01757812,-0.05859375,0,-0.02392578,0,-2.691528,0,0,2.497314,0,4.077,0,0,0,0,nan,2,0.054,1,128,0.1000061,0.1000061,0.1000061,0.1000061,0,0,0,1,2,0
137.062,0.00098,0.08203125,0.046875,-0.0390625,0.4140625,-0.828125,9.453125,0.009765625,0.01757812,-0.01367188,-0.01757812,-0.05859375,0,-0.02392578,0,-2.691528,0,0,2.497314,0,4.077,0,0,0,0,nan,2,0.064,1,128,0.1000061,0.1000061,0.1000061,0.1000061,0,0,0,1,2,0.3650794
137.072,0.001012,-0.08398438,-0.05078125,0.04296875,-0.6171875,0.6953125,10.46094,-0.015625,-0.01367188,0.01171875,-0.01757812,-0.05859375,0,-0.02380371,0,-2.691528,0,0,2.497314,0,4.077,0,0,0,0,nan,2,0.074,1,128,0.1000061,0.1000061,0.1000061,0.1000061,0,0,0,1,2,0
137.082,0.001013,0.09570312,0.06054688,-0.03320312,0.6796875,-0.640625,9.59375,0.02148438,0.01367188,-0.0078125,-0.01757812,-0.05859375,0,-0.02380371,0,-2.691528,0,0,2.497314,0,4.077,0,0,0,0,nan,2,0.084,1,128,0.1000061,0.1000061,0.1000061,0.1000061,0,0,0,1,2,0.6507937
137.092,0.00101,-0.09179688,-0.0546875,0.0234375,-0.3671875,1.945312,10.57812,-0.02734375,-0.009765625,0.005859375,-0.01757812,-0.05859375,0,-0.02380371,0,-2.691528,0,0,2.497314,0,4.077,0,0,0,0,nan,2,0.094,1,128,0.1000061,0.1000061,0.1000061,0.1000061,0,0,0,1,2,0
137.103,0.001012,0.09179688,0.05664062,0.001953125,0.1328125,-1.945312,8.851562,0.02539062,0.01171875,0,-0.01757812,-0.05859375,0,-0.02368164,-0.0001220703,-2.691528,0,0,2.497314,0,4.077,0,0,0,0,nan,2,0.104,1,128,0.1000061,0.1000061,0.1000061,0.1000061,0,0,0,1,2,0
137.113,0.00101,-0.09960938,-0.03320312,-0.01757812,0.0078125,1.976562,10.6875,-0.03125,-0.00390625,-0.00390625,-0.01757812,-0.05859375,0,-0.02368164,-0.0001220703,-2.691528,0,0,2.497314,0,4.077,0,0,0,0,nan,2,0.114,1,128,0.1000061,0.1000061,0.1000061,0.1000061,0,0,0,1,2,0
137.123,0.001012,0.09765625,0.02148438,0.04882812,-0.3515625,-1.757812,9.226562,0.02734375,0.00390625,0.009765625,-0.01757812,-0.05859375,0,-0.02368164,-0.0001220703,-2.691528,0,0,2.497314,0,4.077,0,0,0,0,nan,2,0.124,1,128,0.1000061,0.1000061,0.1000061,0.1000061,0,0,0,1,2,0.1587302
137.133,0.001012,-0.08984375,-0.0078125,-0.06835938,0.046875,2.15625,10.38281,-0.02734375,-0.001953125,-0.009765625,-0.01757812,-0.05859375,0,-0.02368164,-0.0001220703,-2.691528,0,0,2.497314,0,4.077,0,0,0,0,nan,2,0.134,1,128,0.1000061,0.1000061,0.1000061,0.1000061,0,0,0,1,2,0
137.142,0.00101,0.1074219,0.01367188,0.04492188,0.625,-1.476562,10.39844,0.01171875,0.001953125,-0.0078125,-0.01757812,-0.05859375,0,-0.02368164,-0.0001220703,-2.691528,0,0,2.497314,0,4.077,0,0,0,0,nan,2,0.143,1,128,0.1000061,0.1000061,0.1000061,0.1000061,0,0,0,1,2,0
137.152,0.00101,-0.05664062,-0.0078125,-0.1015625,0.734375,1.929688,9.21875,-0.0234375,-0.005859375,-0.015625,-0.01757812,-0.05859375,0,-0.02380371,-0.0001220703,-2.691528,0,0,2.497314,0,4.077,0,0,0,0,nan,2,0.154,1,128,0.1000061,0.1000061,0.1000061,0.1000061,0,0,0,1,2,0.2222222
137.162,0.001009,0.03320312,0.001953125,0.1015625,-0.8359375,-1.148438,10.21094,0.015625,0.0078125,0.01171875,-0.01757812,-0.05859375,0,-0.02368164,-0.0001220703,-2.69165,0,0,2.497314,0,4.077,0,0,0,0,nan,2,0.164,1,128,0.1000061,0.1000061,0.1000061,0.1000061,0,0,0,1,2,0
137.173,0.00104,-0.01367188,-0.0078125,-0.1054688,0.5234375,0.6953125,9.25,-0.01367188,-0.01171875,-0.01171875,-0.01757812,-0.05859375,0,-0.02380371,-0.0001220703,-2.691528,0,0,2.497314,0,4.077,0,0,0,0,nan,2,0.174,1,128,0.1000061,0.1000061,0.1000061,0.1000061,0,0,0,1,2,0
137.183,0.001057,-0.01171875,0.02148438,0.08984375,-0.7734375,-0.65625,10.73438,0.0078125,0.01367188,0.009765625,-0.01757812,-0.05859375,0,-0.02368164,-0.0001220703,-2.69165,0,0,2.497314,0,4.077,0,0,0,0,nan,2,0.184,1,128,0.1000061,0.1000061,0.1000061,0.1000061,0,0,0,1,2,0
137.193,0.001009,0.02148438,-0.0234375,-0.07617188,-0.015625,0.1171875,9.53125,-0.00390625,-0.015625,-0.01171875,-0.01757812,-0.05859375,0,-0.02368164,-0.0001220703,-2.69165,0,0,2.497314,0,4.077,0,0,0,0,nan,2,0.194,1,128,0.1000061,0.1000061,0.1000061,0.1000061,0,0,0,1,2,0.4126984
137.203,0.000979,-0.046875,0.0390625,0.06054688,-0.078125,-0.453125,9.835938,0,0.01953125,0.009765625,-0.01757812,-0.05859375,0,-0.02368164,-0.0001220703,-2.69165,0,0,2.497314,0,4.077,0,0,0,0,nan,2,0.008,1,128,0.1000061,0.1000061,0.1000061,0.1000061,0,0,0,1,2,0.8253968
137.213,0.001008,0.05078125,-0.04296875,-0.0546875,-0.0546875,0.1484375,9.554688,0,-0.01953125,-0.01367188,-0.01757812,-0.05859375,0,-0.02368164,-0.0001220703,-2.69165,0,0,2.497314,0,4.077,0,0,0,0,nan,2,0.018,1,128,0.1000061,0.1000061,0.1000061,0.1000061,0,0,0,1,2,0.4285714
137.223,0.001024,-0.0390625,0.03515625,0.03320312,0.390625,-0.09375,9.90625,0.001953125,0.01171875,0.01367188,-0.01757812,-0.05859375,0,-0.02368164,-0.0001220703,-2.69165,0,0,2.497314,0,4.077,0,0,0,0,nan,2,0.028,1,128,0.1000061,0.1000061,0.1000061,0.1000061,0,0,0,1,2,0.6825397
137.233,0.001012,0.046875,-0.03710938,-0.03125,0.515625,0.3984375,10.25781,-0.001953125,-0.009765625,-0.01953125,-0.01757812,-0.05859375,0,-0.02368164,-0.0001220703,-2.69165,0,0,2.497314,0,4.077,0,0,0,0,nan,2,0.038,1,128,0.1000061,0.1000061,0.1000061,0.1000061,0,0,0,1,2,0.04761905
137.243,0.00101,-0.03125,0.03320312,0.03125,0.2109375,-0.03125,8.914062,0,0.009765625,0.0234375,-0.01757812,-0.05859375,0,-0.02355957,-0.0001220703,-2.69165,0,0,2.497314,0,4.077,0,0,0,0,nan,2,0.048,1,128,0.1000061,0.1000061,0.1000061,0.1000061,0,0,0,1,2,0
137.252,0.001015,0.01757812,-0.01953125,-0.03125,-0.21875,0.9140625,10.9375,-0.001953125,-0.00390625,-0.02734375,-0.01757812,-0.05859375,0,-0.02368164,-0.0001220703,-2.69165,0,0,2.497314,0,4.077,0,0,0,0,nan,2,0.058,1,128,0.1000061,0.1000061,0.1000061,0.1000061,0,0,0,1,2,0
137.262,0.001011,-0.001953125,0.01367188,0.03320312,-0.1484375,-0.75,8.226562,0,0.00390625,0.02734375,-0.01757812,-0.05859375,0,-0.02368164,-0.0001220703,-2.691528,0,0,2.497314,0,4.077,0,0,0,0,nan,2,0.068,1,128,0.1000061,0.1000061,0.1000061,0.1000061,0,0,0,1,2,0
137.272,0.001006,-0.0078125,0.001953125,-0.03125,0.5703125,1.320312,11.45312,-0.001953125,0.001953125,-0.02734375,-0.01757812,-0.05859375,0,-0.02368164,-0.0001220703,-2.69165,0,0,2.497314,0,4.077,0,0,0,0,nan,2,0.078,1,128,0.1000061,0.1000061,0.1000061,0.1000061,0,0,0,1,2,0
137.282,0.001014,0.02539062,-0.009765625,0.03710938,-0.1875,0.265625,8.507812,-0.00390625,0.001953125,0.02539062,-0.01757812,-0.05859375,0,-0.02368164,-0.0001220703,-2.69165,0,0,2.497314,0,4.077,0,0,0,0,nan,2,0.088,1,128,0.1000061,0.1000061,0.1000061,0.1000061,0,0,0,1,2,0
137.292,0.001015,-0.03710938,0.01171875,-0.0390625,0.828125,0.65625,10.46875,0,0,-0.02539062,-0.01757812,-0.05859375,0,-0.02368164,-0.0001220703,-2.69165,0,0,2.497314,0,4.077,0,0,0,0,nan,2,0.098,1,128,0.1000061,0.1000061,0.1000061,0.1000061,0,0,0,1,2,0
137.302,0.00101,0.05273438,-0.02734375,0.02929688,-0.296875,0.1015625,8.21875,0,-0.001953125,0.01757812,-0.01757812,-0.05859375,0,-0.02368164,0,-2.69165,0,0,2.497314,0,4.077,0,0,0,0,nan,2,0.108,1,128,0.1000061,0.1000061,0.1000061,0.1000061,0,0,0,1,2,0
137.313,0.001012,-0.05078125,0.01953125,-0.015625,0.1171875,0.625,10.9375,0.001953125,0.001953125,-0.01171875,-0.01757812,-0.05859375,0,-0.02368164,-0.0001220703,-2.69165,0,0,2.497314,0,4.077,0,0,0,0,nan,2,0.118,1,128,0.1000061,0.1000061,0.1000061,0.1000061,0,0,0,1,2,0
137.323,0.001012,0.0546875,-0.01953125,0.00390625,-0.34375,0.15625,8.554688,-0.00390625,0,0.0078125,-0.01757812,-0.05859375,0,-0.02368164,0,-2.69165,0,0,2.497314,0,4.077,0,0,0,0,nan,2,0.128,1,128,0.1000061,0.1000061,0.1000061,0.1000061,0,0,0,1,2,0
137.332,0.00104,0.02539062,-0.01171875,-0.01757812,-0.296875,-0.6484375,10.39062,0.015625,-0.00390625,-0.005859375,-0.01757812,-0.05859375,0,-0.02368164,0,-2.69165,0,0,2.497314,0,4.077,0,0,0,0,nan,2,0.137,1,128,0.1000061,0.1000061,0.1000061,0.1000061,0,0,0,1,2,0
137.343,0.00101,0.05078125,0.009765625,-0.02539062,0.8515625,-0.109375,8.671875,-0.00390625,0.005859375,-0.001953125,-0.01757812,-0.05859375,0,-0.02368164,0,-2.69165,0,0,2.497314,0,4.077,0,0,0,0,nan,2,0.148,1,128,0.1000061,0.1000061,0.1000061,0.1000061,0,0,0,1,2,0
137.352,0.001008,-0.05664062,-0.03125,0.0390625,-1.453125,0.8359375,11.67188,-0.00390625,-0.0078125,0.0078125,-0.01757812,-0.05859375,0,-0.02380371,0,-2.69165,0,0,2.497314,0,4.077,0,0,0,0,nan,2,0.158,1,128,0.1000061,0.1000061,0.1000061,0.1000061,0,0,0,1,2,0
137.362,0.001009,0.04492188,0.04492188,-0.046875,1.304688,-0.9921875,8.414062,0.001953125,0.01171875,-0.0078125,-0.01757812,-0.05859375,0,-0.02380371,0,-2.69165,0,0,2.497314,0,4.077,0,0,0,0,nan,2,0.168,1,128,0.1000061,0.1000061,0.1000061,0.1000061,0,0,0,1,2,0
137.372,0.001009,-0.05664062,-0.0625,0.05078125,-1.34375,0.4453125,11.95312,-0.009765625,-0.009765625,0.005859375,-0.01757812,-0.05859375,0,-0.02380371,0,-2.69165,0,0,2.497314,0,4.077,0,0,0,0,nan,2,0.178,1,128,0.1000061,0.1000061,0.1000061,0.1000061,0,0,0,1,2,0
137.382,0.001011,0.06054688,0.06835938,-0.04882812,1.429688,-1.101562,8.257812,0.01171875,0.01171875,-0.00390625,-0.01757812,-0.05859375,0,-0.02380371,-0.0001220703,-2.69165,0,0,2.497314,0,4.077,0,0,0,0,nan,2,0.188,1,128,0.1000061,0.1000061,0.1000061,0.1000061,0,0,0,1,2,0
137.392,0.001014,-0.06640625,-0.078125,0.03320312,-1.15625,1.140625,11.17969,-0.015625,-0.009765625,-0.001953125,-0.01757812,-0.05859375,0,-0.02380371,0,-2.69165,0,0,2.497314,0,4.077,0,0,0,0,nan,2,0.198,1,128,0.1000061,0.1000061,0.1000061,0.1000061,0,0,0,1,2,0
137.403,0.001015,0.06445312,0.08398438,-0.02539062,1.609375,-1.875,8.710938,0.01757812,0.015625,0.001953125,-0.01757812,-0.05859375,0,-0.02380371,0,-2.69165,0,0,2.497314,0,4.077,0,0,0,0,nan,2,0.006,1,128,0.1000061,0.1000061,0.1000061,0.1000061,0,0,0,1,2,0
137.413,0.001043,-0.0703125,-0.07617188,0.0078125,-0.8515625,1.367188,11.11719,-0.01757812,-0.0078125,-0.005859375,-0.01757812,-0.05859375,0,-0.02380371,0,-2.69165,0,0,2.497314,0,4.077,0,0,0,0,nan,2,0.016,1,128,0.1000061,0.1000061,0.1000061,0.1000061,0,0,0,1,2,0
137.423,0.001022,0.08203125,0.07421875,0.009765625,0.640625,-2.15625,9.164062,0.0234375,0.0078125,0.01171875,-0.01757812,-0.05859375,0,-0.02380371,0,-2.69165,0,0,2.497314,0,4.077,0,0,0,0,nan,2,0.026,1,128,0.1000061,0.1000061,0.1000061,0.1000061,0,0,0,1,2,0.2222222
137.433,0.001008,-0.08007812,-0.05859375,-0.03710938,-0.609375,1.039062,10.05469,-0.01757812,-0.01367188,-0.015625,-0.01757812,-0.05859375,0,-0.02380371,0,-2.69165,0,0,2.497314,0,4.077,0,0,0,0,nan,2,0.036,1,128,0.1000061,0.1000061,0.1000061,0.1000061,0,0,0,1,2,0.3174603
137.443,0.001012,0.08007812,0.0546875,0.04296875,-0.203125,-2.007812,10.05469,0.01953125,0.009765625,0.01367188,-0.01757812,-0.05859375,0,-0.02368164,-0.0001220703,-2.69165,0,0,2.497314,0,4.077,0,0,0,0,nan,2,0.046,1,128,0.1000061,0.1000061,0.1000061,0.1000061,0,0,0,1,2,0.07936508
137.452,0.001008,-0.08398438,-0.02734375,-0.05273438,0.09375,1.242188,8.945312,-0.01757812,-0.01171875,-0.01367188,-0.01757812,-0.05859375,0,-0.02355957,-0.0001220703,-2.69165,0,0,2.497314,0,4.077,0,0,0,0,nan,2,0.056,1,128,0.1000061,0.1000061,0.1000061,0.1000061,0,0,0,1,2,0
137.462,0.001008,0.06835938,0.02539062,0.04882812,-0.6015625,-1.1875,10.96875,0.01367188,0.01171875,0.009765625,-0.01757812,-0.05859375,0,-0.02355957,-0.0001220703,-2.69165,0,0,2.497314,0,4.077,0,0,0,0,nan,2,0.066,1,128,0.1000061,0.1000061,0.1000061,0.1000061,0,0,0,1,2,0
137.472,0.000979,-0.05273438,-0.01367188,-0.04492188,0.625,0.7265625,8.75,-0.0078125,-0.015625,-0.0078125,-0.01757812,-0.05859375,0,-0.02355957,-0.0001220703,-2.69165,0,0,2.497314,0,4.077,0,0,0,0,nan,2,0.076,1,128,0.1000061,0.1000061,0.1000061,0.1000061,0,0,0,1,2,0
137.482,0.00101,0.04296875,0.03515625,0.03125,-1.046875,-1.0625,11.29688,0.009765625,0.02148438,0.00390625,-0.01757812,-0.05859375,0,-0.02355957,-0.0001220703,-2.69165,0,0,2.497314,0,4.077,0,0,0,0,nan,2,0.086,1,128,0.1000061,0.1000061,0.1000061,0.1000061,0,0,0,1,2,0
137.492,0.001007,-0.03515625,-0.01757812,-0.01953125,0.8046875,0.0234375,8.96875,-0.009765625,-0.01757812,-0.001953125,-0.01757812,-0.05859375,0,-0.0234375,-0.0001220703,-2.69165,0,0,2.497314,0,4.077,0,0,0,0,nan,2,0.096,1,128,0.1000061,0.1000061,0.1000061,0.1000061,0,0,0,1,2,0
137.503,0.001013,0.02539062,0.01757812,0.005859375,-0.3359375,0.3203125,10.76562,0.005859375,0.02148438,-0.00390625,-0.01757812,-0.05859375,0,-0.0234375,-0.0001220703,-2.691772,0,0,2.497314,0,4.077,0,0,0,0,nan,2,0.106,1,128,0.1000061,0.1000061,0.1000061,0.1000061,0,0,0,1,2,0
137.513,0.00101,-0.01953125,-0.02929688,-0.001953125,0.921875,1.070312,9.117188,-0.01171875,-0.02148438,0,-0.01757812,-0.05859375,0,-0.0234375,-0.0001220703,-2.691772,0,0,2.497314,0,4.077,0,0,0,0,nan,2,0.116,1,128,0.1000061,0.1000061,0.1000061,0.1000061,0,0,0,1,2,0
137.523,0.00101,0.02539062,0.02929688,-0.0078125,-0.3359375,-0.6796875,9.578125,0.01171875,0.02148438,-0.001953125,-0.01757812,-0.05859375,0,-0.0234375,0,-2.691772,0,0,2.497314,0,4.077,0,0,0,0,nan,2,0.126,1,128,0.1000061,0.1000061,0.1000061,0.1000061,0,0,0,1,2,0.5238096
137.533,0.00101,-0.01171875,-0.02539062,0.009765625,0.6640625,1.507812,10.01562,-0.01171875,-0.02148438,-0.001953125,-0.01757812,-0.05859375,0,-0.0234375,-0.0001220703,-2.691772,0,0,2.497314,0,4.077,0,0,0,0,nan,2,0.136,1,128,0.1000061,0.1000061,0.1000061,0.1000061,0,0,0,1,2,0.2698413
137.543,0.00101,0.02734375,0.005859375,-0.009765625,-0.828125,-0.78125,8.960938,0.01757812,0.009765625,0.00390625,-0.01757812,-0.05859375,0,-0.0234375,-0.0001220703,-2.691772,0,0,2.497314,0,4.077,0,0,0,0,nan,2,0.146,1,128,0.1000061,0.1000061,0.1000061,0.1000061,0,0,0,1,2,0
137.553,0.00101,0.03710938,0.02929688,0.03515625,0.546875,0.5234375,11.34375,-0.0078125,0.001953125,-0.001953125,-0.01757812,-0.05859375,0,-0.02331543,0,-2.691772,0,0,2.497314,0,4.077,0,0,0,0,nan,2,0.157,1,128,0.1000061,0.1000061,0.1000061,0.1000061,0,0,0,1,2,0
137.562,0.00101,0.03515625,-0.00390625,0.01171875,-1.015625,-0.96875,8.148438,0.01757812,0.005859375,0.01171875,-0.01757812,-0.05859375,0,-0.02331543,0,-2.69165,0,0,2.497314,0,4.077,0,0,0,0,nan,2,0.166,1,128,0.1000061,0.1000061,0.1000061,0.1000061,0,0,0,1,2,0
137.572,0.001013,-0.0390625,0.009765625,-0.03515625,0.5390625,1.59375,11.49219,-0.01953125,-0.001953125,-0.01367188,-0.01757812,-0.05859375,0,-0.0234375,0,-2.691772,0,0,2.497314,0,4.077,0,0,0,0,nan,2,0.176,1,128,0.1000061,0.1000061,0.1000061,0.1000061,0,0,0,1,2,0
137.582,0.001006,0.0390625,-0.0234375,0.04296875,-1.34375,-1.429688,8.414062,0.01953125,-0.00390625,0.01757812,-0.01757812,-0.05859375,0,-0.02331543,0,-2.69165,0,0,2.497314,0,4.077,0,0,0,0,nan,2,0.186,1,128,0.1000061,0.1000061,0.1000061,0.1000061,0,0,0,1,2,0
137.592,0.001009,-0.0390625,0.03710938,-0.06054688,0.984375,1.09375,11.0625,-0.01757812,0.009765625,-0.01757812,-0.01757812,-0.05859375,0,-0.02331543,0,-2.69165,0,0,2.497314,0,4.077,0,0,0,0,nan,2,0.196,1,128,0.1000061,0.1000061,0.1000061,0.1000061,0,0,0,1,2,0
137.602,0.001009,0.0234375,-0.03710938,0.06445312,-0.9453125,-1.171875,8.773438,0.015625,-0.005859375,0.015625,-0.01757812,-0.05859375,0,-0.02331543,0,-2.69165,0,0,2.497314,0,4.077,0,0,0,0,nan,2,0.206,1,128,0.1000061,0.1000061,0.1000061,0.1000061,0,0,0,1,2,0
137.613,0.001012,-0.01171875,0.03320312,-0.07421875,0.921875,1.375,10.92969,-0.01171875,0.001953125,-0.015625,-0.01757812,-0.05859375,0,-0.02331543,0,-2.69165,0,0,2.497314,0,4.077,0,0,0,0,nan,2,0.216,1,128,0.1000061,0.1000061,0.1000061,0.1000061,0,0,0,1,2,0
137.623,0.001043,0.00390625,-0.02929688,0.0703125,-0.7578125,-0.953125,9.117188,0.005859375,-0.00390625,0.01757812,-0.01757812,-0.05859375,0,-0.02331543,0,-2.69165,0,0,2.497314,0,4.077,0,0,0,0,nan,2,0.226,1,128,0.1000061,0.1000061,0.1000061,0.1000061,0,0,0,1,2,0
137.633,0.001012,0.00390625,0.01953125,-0.06445312,0.0390625,0.1328125,10.79688,-0.00390625,0,-0.01171875,-0.01757812,-0.05859375,0,-0.02331543,-0.0001220703,-2.69165,0,0,2.497314,0,4.077,0,0,0,0,nan,2,0.236,1,128,0.1000061,0.1000061,0.1000061,0.1000061,0,0,0,1,2,0
137.642,0.001028,-0.02539062,0.001953125,0.05078125,0.046875,-0.3828125,8.953125,0,0.001953125,0.001953125,-0.01757812,-0.05859375,0,-0.02331543,-0.0001220703,-2.69165,0,0,2.497314,0,4.077,0,0,0,0,nan,2,0.245,1,128,0.1000061,0.1000061,0.1000061,0.1000061,0,0,0,1,2,0
137.652,0.000979,0.04492188,-0.00390625,-0.03515625,-0.234375,0.171875,11.01562,0.005859375,-0.005859375,-0.01367188,-0.01757812,-0.05859375,0,-0.02331543,-0.0001220703,-2.69165,0,0,2.497314,0,4.077,0,0,0,0,nan,2,0.001,1,128,0.1000061,0.1000061,0.1000061,0.1000061,0,0,0,1,2,0
137.662,0.000988,-0.04101562,0.04296875,0.02148438,1.0625,0.4296875,8.53125,-0.001953125,0.01367188,0.009765625,-0.01757812,-0.05859375,0,-0.02319336,-0.0001220703,-2.69165,0,0,2.497314,0,4.077,0,0,0,0,nan,2,0.011,1,128,0.1000061,0.1000061,0.1000061,0.1000061,0,0,0,1,2,0
137.672,0.001009,0.03710938,-0.04296875,-0.00390625,-1.367188,0.28125,10.9375,0.00390625,-0.009765625,-0.009765625,-0.01757812,-0.05859375,0,-0.02319336,-0.0001220703,-2.69165,0,0,2.497314,0,4.077,0,0,0,0,nan,2,0.021,1,128,0.1000061,0.1000061,0.1000061,0.1000061,0,0,0,1,2,0
137.682,0.001007,-0.03320312,0.07226562,-0.005859375,0.7734375,0.1015625,8.304688,-0.001953125,0.01953125,0.01367188,-0.01757812,-0.05859375,0,-0.02319336,0,-2.69165,0,0,2.497314,0,4.077,0,0,0,0,nan,2,0.031,1,128,0.1000061,0.1000061,0.1000061,0.1000061,0,0,0,1,2,0
137.692,0.001009,0.02929688,-0.07421875,0.02148438,-1.070312,0.453125,10.36719,0.001953125,-0.01367188,-0.015625,-0.01757812,-0.05859375,0,-0.02319336,0,-2.691772,0,0,2.497314,0,4.077,0,0,0,0,nan,2,0.041,1,128,0.1000061,0.1000061,0.1000061,0.1000061,0,0,0,1,2,0
137.702,0.001008,-0.0078125,0.05273438,-0.02929688,1.164062,0.1484375,7.984375,0.001953125,0.009765625,0.01367188,-0.01757812,-0.05859375,0,-0.02319336,0,-2.69165,0,0,2.497314,0,4.077,0,0,0,0,nan,2,0.051,1,128,0.1000061,0.1000061,0.1000061,0.1000061,0,0,0,1,2,0
137.713,0.001008,-0.005859375,-0.0546875,0.0234375,-1.054688,1.226562,11.41406,-0.00390625,-0.0078125,-0.01757812,-0.01757812,-0.05859375,0,-0.02319336,0,-2.691772,0,0,2.497314,0,4.077,0,0,0,0,nan,2,0.062,1,128,0.1000061,0.1000061,0.1000061,0.1000061,0,0,0,1,2,0
137.723,0.00101,0.0234375,0.04492188,-0.01953125,0.7578125,-0.8828125,8.414062,0.00390625,0.009765625,0.01953125,-0.01757812,-0.05859375,0,-0.02319336,0,-2.69165,0,0,2.497314,0,4.077,0,0,0,0,nan,2,0.072,1,128,0.1000061,0.1000061,0.1000061,0.1000061,0,0,0,1,2,0
137.733,0.001012,-0.04882812,-0.03515625,0.015625,-0.265625,1.023438,11.03906,-0.005859375,-0.005859375,-0.015625,-0.01757812,-0.05859375,0,-0.02319336,0,-2.691772,0,0,2.497314,0,4.077,0,0,0,0,nan,2,0.082,1,128,0.1000061,0.1000061,0.1000061,0.1000061,0,0,0,1,2,0
137.743,0.001012,0.05078125,0.02539062,-0.01757812,0.015625,-1.0625,8.890625,0.00390625,0.0078125,0.01367188,-0.01757812,-0.05859375,0,-0.02319336,0,-2.69165,0,0,2.497314,0,4.077,0,0,0,0,nan,2,0.092,1,128,0.1000061,0.1000061,0.1000061,0.1000061,0,0,0,1,2,0
137.753,0.00101,-0.06640625,0.02929688,0.06640625,1.109375,0.5625,10.39844,-0.015625,-0.001953125,0.005859375,-0.01757812,-0.05859375,0,-0.02319336,0,-2.69165,0,0,2.497314,0,4.077,0,0,0,0,nan,2,0.102,1,128,0.1000061,0.1000061,0.1000061,0.1000061,0,0,0,1,2,0
137.762,0.00101,0.07421875,0.005859375,-0.015625,-0.15625,-0.6796875,9.390625,0.009765625,0.0078125,0.0078125,-0.01757812,-0.05859375,0,-0.02319336,0.0001220703,-2.69165,0,0,2.497314,0,4.077,0,0,0,0,nan,2,0.111,1,128,0.1000061,0.1000061,0.1000061,0.1000061,0,0,0,1,2,0.1904762
137.772,0.00102,-0.08203125,0.01171875,0.01171875,0.9453125,0.7109375,10.8125,-0.009765625,-0.009765625,-0.00390625,-0.01757812,-0.05859375,0,-0.02307129,0,-2.69165,0,0,2.497314,0,4.077,0,0,0,0,nan,2,0.121,1,128,0.1000061,0.1000061,0.1000061,0.1000061,0,0,0,1,2,0
137.782,0.001039,0.08007812,-0.0078125,-0.0234375,-0.5078125,-0.203125,9.445312,0.0078125,0.009765625,-0.00390625,-0.01757812,-0.05859375,0,-0.02307129,0,-2.69165,0,0,2.497314,0,4.077,0,0,0,0,nan,2,0.131,1,128,0.1000061,0.1000061,0.1000061,0.1000061,0,0,0,1,2,0.2857143
137.792,0.001011,-0.078125,0.00390625,0.02734375,0.4921875,0.1328125,10.1875,-0.009765625,-0.01367188,0.0078125,-0.01757812,-0.05859375,0,-0.02307129,0,-2.69165,0,0,2.497314,0,4.077,0,0,0,0,nan,2,0.141,1,128,0.1000061,0.1000061,0.1000061,0.1000061,0,0,0,1,2,0.1746032
137.803,0.00101,0.0625,0.01171875,-0.04101562,-0.6484375,-0.9140625,9.585938,0.01171875,0.015625,-0.009765625,-0.01757812,-0.05859375,0,-0.02294922,0,-2.69165,0,0,2.497314,0,4.077,0,0,0,0,nan,2,0.151,1,128,0.1000061,0.1000061,0.1000061,0.1000061,0,0,0,1,2,0.6666667
137.813,0.001009,-0.06640625,-0.009765625,0.05078125,-0.0859375,0.9296875,10.42188,-0.015625,-0.015625,0.01171875,-0.01757812,-0.05859375,0,-0.02294922,0,-2.69165,0,0,2.497314,0,4.077,0,0,0,0,nan,2,0.162,1,128,0.1000061,0.1000061,0.1000061,0.1000061,0,0,0,1,2,0
137.823,0.001011,0.05664062,0.01953125,-0.046875,-0.0859375,-1.445312,9.3125,0.01757812,0.01757812,-0.01171875,-0.01757812,-0.05859375,0,-0.02294922,0,-2.69165,0,0,2.497314,0,4.077,0,0,0,0,nan,2,0.172,1,128,0.1000061,0.1000061,0.1000061,0.1000061,0,0,0,1,2,0.1904762
137.833,0.001046,-0.05859375,-0.02148438,0.04492188,0.0859375,1.828125,10.76562,-0.0234375,-0.01367188,0.009765625,-0.01757812,-0.05859375,0,-0.02294922,0,-2.69165,0,0,2.497314,0,4.077,0,0,0,0,nan,2,0.182,1,128,0.1000061,0.1000061,0.1000061,0.1000061,0,0,0,1,2,0
137.843,0.001011,-0.04296875,-0.0234375,-0.01171875,-0.328125,-0.0234375,9.789062,0.009765625,0.005859375,-0.0078125,-0.01757812,-0.05859375,0,-0.02294922,0,-2.69165,0,0,2.497314,0,4.077,0,0,0,0,nan,2,0.192,1,128,0.1000061,0.1000061,0.1000061,0.1000061,0,0,0,1,2,0.8730159
137.853,0.00101,0.0546875,-0.001953125,0.005859375,0.8984375,0,9.75,-0.009765625,-0.005859375,0.001953125,-0.01757812,-0.05859375,0,-0.02294922,0,-2.69165,0,0,2.497314,0,4.077,0,0,0,0,nan,2,0.202,1,128,0.1000061,0.1000061,0.1000061,0.1000061,0,0,0,1,2,0.8095238
137.862,0.001008,0.04492188,0.02734375,0.005859375,-0.0390625,-2.03125,8.585938,0.02929688,0.0078125,0.001953125,-0.01757812,-0.05859375,0,-0.02282715,0,-2.69165,0,0,2.497314,0,4.077,0,0,0,0,nan,2,0.211,1,128,0.1000061,0.1000061,0.1000061,0.1000061,0,0,0,1,2,0
137.872,0.00101,-0.03515625,-0.02539062,-0.02539062,0.734375,2.890625,11.00781,-0.03125,-0.00390625,-0.0078125,-0.01757812,-0.05859375,0,-0.02282715,0,-2.691772,0,0,2.497314,0,4.077,0,0,0,0,nan,2,0.221,1,128,0.1000061,0.1000061,0.1000061,0.1000061,0,0,0,1,2,0
137.882,0.001012,0.02539062,0.0078125,0.04492188,-1.367188,-2.164062,9.25,0.02734375,0.00390625,0.01367188,-0.01757812,-0.05859375,0,-0.02282715,0,-2.69165,0,0,2.497314,0,4.077,0,0,0,0,nan,2,0.231,1,128,0.1000061,0.1000061,0.1000061,0.1000061,0,0,0,1,2,0.5714286
137.892,0.001015,-0.02148438,-0.001953125,-0.06835938,0.6640625,1.476562,10.39844,-0.0234375,-0.001953125,-0.01953125,-0.01757812,-0.05859375,0,-0.02282715,0,-2.691772,0,0,2.497314,0,4.077,0,0,0,0,nan,2,0.241,1,128,0.1000061,0.1000061,0.1000061,0.1000061,0,0,0,1,2,0
137.903,0.001032,0.00390625,-0.00390625,0.078125,-0.9296875,-1.476562,9.6875,0.01757812,0.005859375,0.01953125,-0.01757812,-0.05859375,0,-0.02270508,0,-2.691772,0,0,2.497314,0,4.077,0,0,0,0,nan,2,0.252,1,128,0.1000061,0.1000061,0.1000061,0.1000061,0,0,0,1,2,0.8412699
137.913,0.001035,0.0078125,0.01367188,-0.09570312,0.9609375,1.140625,9.9375,-0.01171875,-0.005859375,-0.0234375,-0.01757812,-0.05859375,0,-0.02270508,0,-2.691772,0,0,2.497314,0,4.077,0,0,0,0,nan,2,0.262,1,128,0.1000061,0.1000061,0.1000061,0.1000061,0,0,0,1,2,0.4603175
137.923,0.00097,-0.02148438,-0.03125,0.0859375,-0.984375,-1.257812,9.875,0.0078125,0.005859375,0.02148438,-0.01757812,-0.05859375,0,-0.02270508,0,-2.691772,0,0,2.497314,0,4.077,0,0,0,0,nan,2,0.272,1,128,0.1000061,0.1000061,0.1000061,0.1000061,0,0,0,1,2,0.5079365
137.933,0.001008,0.03515625,0.03320312,-0.08789062,0.734375,-0.078125,10.03125,-0.001953125,-0.005859375,-0.02148438,-0.01757812,-0.05859375,0,-0.02270508,0,-2.691772,0,0,2.497314,0,4.077,0,0,0,0,nan,2,0.282,1,128,0.1000061,0.1000061,0.1000061,0.1000061,0,0,0,1,2,0.4444444
137.943,0.001028,-0.05859375,-0.01757812,0.06640625,-1.328125,-0.7734375,10.27344,-0.005859375,0.0078125,0.01953125,-0.01757812,-0.05859375,0,-0.02270508,0,-2.691772,0,0,2.497314,0,4.077,0,0,0,0,nan,2,0.292,1,128,0.1000061,0.1000061,0.1000061,0.1000061,0,0,0,1,2,0
137.953,0.000982,0.0390625,0.06445312,0.02148438,0.9453125,-0.921875,10.24219,0.01171875,0.001953125,-0.00390625,-0.01757812,-0.05859375,0,-0.02270508,0,-2.69165,0,0,2.497314,0,4.076,0,0,0,0,nan,2,0.008,1,128,0.1000061,0.1000061,0.1000061,0.1000061,0,0,0,1,2,0
137.962,0.001013,-0.0546875,-0.01171875,0.02539062,-0.5,0.0703125,9.65625,-0.005859375,0.01171875,0.015625,-0.01757812,-0.05859375,0,-0.02270508,0,-2.69165,0,0,2.497314,0,4.076,0,0,0,0,nan,2,0.017,1,128,0.1000061,0.1000061,0.1000061,0.1000061,0,0,0,1,2,0.6349207
137.972,0.001009,0.0625,0.001953125,0.005859375,0.578125,-0.3359375,11.00781,0.009765625,-0.009765625,-0.01171875,-0.01757812,-0.05859375,0,-0.02270508,0,-2.69165,0,0,2.497314,0,4.076,0,0,0,0,nan,2,0.027,1,128,0.1000061,0.1000061,0.1000061,0.1000061,0,0,0,1,2,0
137.982,0.001006,-0.04882812,0.01757812,-0.01757812,-0.2578125,0.21875,8.179688,-0.01171875,0.01171875,0.01171875,-0.01757812,-0.05859375,0,-0.02270508,0,-2.69165,0,0,2.497314,0,4.076,0,0,0,0,nan,2,0.037,1,128,0.1000061,0.1000061,0.1000061,0.1000061,0,0,0,1,2,0
137.992,0.000998,0.0234375,-0.0078125,0.03710938,-0.3046875,-0.1875,11.25,0.0078125,-0.009765625,-0.009765625,-0.01757812,-0.05859375,0,-0.02270508,0,-2.69165,0,0,2.497314,0,4.076,0,0,0,0,nan,2,0.047,1,128,0.1000061,0.1000061,0.1000061,0.1000061,0,0,0,1,2,0
138.002,0.001013,-0.009765625,0.0234375,-0.04492188,0.3125,0.4765625,7.507812,-0.001953125,0.009765625,0.009765625,-0.01757812,-0.05859375,0,-0.02270508,0,-2.69165,0,0,2.497314,0,4.076,0,0,0,0,nan,2,0.058,1,128,0.1000061,0.1000061,0.1000061,0.1000061,0,0,0,1,2,0
138.013,0.00101,-0.00390625,-0.01953125,0.046875,-0.34375,1.140625,11.67969,0,-0.00390625,-0.01171875,-0.01757812,-0.05859375,0,-0.02270508,0,-2.69165,0,0,2.497314,0,4.076,0,0,0,0,nan,2,0.068,1,128,0.1000061,0.1000061,0.1000061,0.1000061,0,0,0,1,2,0
138.023,0.00101,0.02734375,0.01367188,-0.0546875,0.296875,-0.2578125,7.03125,0,0.001953125,0.009765625,-0.01757812,-0.05859375,0,-0.02270508,0.0001220703,-2.69165,0,0,2.497314,0,4.076,0,0,0,0,nan,2,0.078,1,128,0.1000061,0.1000061,0.1000061,0.1000061,0,0,0,1,2,0
138.033,0.00101,-0.05078125,0,0.0390625,-0.921875,0.8671875,11.91406,-0.009765625,0.00390625,-0.01171875,-0.01757812,-0.05859375,0,-0.02270508,0,-2.69165,0,0,2.497314,0,4.076,0,0,0,0,nan,2,0.088,1,128,0.1000061,0.1000061,0.1000061,0.1000061,0,0,0,1,2,0
138.043,0.00101,0.06835938,0.01367188,-0.03125,0.3984375,-1.578125,7.390625,0.0078125,0,0.009765625,-0.01757812,-0.05859375,0,-0.02270508,0.0001220703,-2.69165,0,0,2.497314,0,4.076,0,0,0,0,nan,2,0.098,1,128,0.1000061,0.1000061,0.1000061,0.1000061,0,0,0,1,2,0
138.053,0.00101,-0.04882812,-0.02734375,0.06054688,-0.09375,1,11.29688,-0.01757812,0,-0.001953125,-0.01757812,-0.05859375,0,-0.02270508,0.0001220703,-2.691772,0,0,2.497314,0,4.076,0,0,0,0,nan,2,0.108,1,128,0.1000061,0.1000061,0.1000061,0.1000061,0,0,0,1,2,0
138.062,0.00101,0.08984375,0.0078125,-0.0078125,0.703125,-1.28125,8.132812,0.01367188,-0.001953125,0.0078125,-0.01757812,-0.05859375,0,-0.02270508,0.0001220703,-2.691772,0,0,2.497314,0,4.076,0,0,0,0,nan,2,0.117,1,128,0.1000061,0.1000061,0.1000061,0.1000061,0,0,0,1,2,0
138.072,0.001009,-0.08789062,-0.0078125,-0.005859375,-0.2734375,1.554688,11.73438,-0.015625,0.001953125,-0.0078125,-0.01757812,-0.05859375,0,-0.02270508,0.0001220703,-2.691772,0,0,2.497314,0,4.076,0,0,0,0,nan,2,0.127,1,128,0.1000061,0.1000061,0.1000061,0.1000061,0,0,0,1,2,0
138.082,0.001011,0.09570312,0.009765625,0.02148438,0.875,-1.375,8.703125,0.01757812,0.00390625,0.005859375,-0.01757812,-0.05859375,0,-0.02270508,0.0001220703,-2.691772,0,0,2.497314,0,4.076,0,0,0,0,nan,2,0.137,1,128,0.1000061,0.1000061,0.1000061,0.1000061,0,0,0,1,2,0
138.093,0.001032,-0.07226562,-0.0234375,-0.0234375,-0.4375,1.351562,10.67969,-0.01367188,-0.0078125,-0.001953125,-0.01757812,-0.05859375,0,-0.02258301,0.0001220703,-2.691772,0,0,2.497314,0,4.076,0,0,0,0,nan,2,0.148,1,128,0.1000061,0.1000061,0.1000061,0.1000061,0,0,0,1,2,0
138.103,0.000996,0.06835938,0.02929688,0.015625,0.453125,-0.6171875,9.226562,0.01171875,0.01367188,-0.001953125,-0.01757812,-0.05859375,0,-0.02258301,0.0001220703,-2.691772,0,0,2.497314,0,4.076,0,0,0,0,nan,2,0.158,1,128,0.1000061,0.1000061,0.1000061,0.1000061,0,0,0,1,2,0
138.113,0.001028,-0.05859375,-0.0390625,-0.015625,-0.65625,0.296875,9.9375,-0.01171875,-0.015625,0,-0.01757812,-0.05859375,0,-0.02258301,0.0001220703,-2.691772,0,0,2.497314,0,4.076,0,0,0,0,nan,2,0.168,1,128,0.1000061,0.1000061,0.1000061,0.1000061,0,0,0,1,2,0.5396826
138.123,0.001012,0.04101562,0.05664062,0.005859375,0.4765625,-0.3515625,10.00781,0.009765625,0.01953125,0,-0.01757812,-0.05859375,0,-0.02258301,0,-2.691772,0,0,2.497314,0,4.076,0,0,0,0,nan,2,0.009,1,128,0.1000061,0.1000061,0.1000061,0.1000061,0,0,0,1,2,0.4920635
138.133,0.00101,-0.03515625,-0.06445312,-0.001953125,-0.4140625,0.203125,9.265625,-0.01367188,-0.0234375,0,-0.01757812,-0.05859375,0,-0.02258301,0,-2.691772,0,0,2.497314,0,4.076,0,0,0,0,nan,2,0.019,1,128,0.1000061,0.1000061,0.1000061,0.1000061,0,0,0,1,2,0
138.143,0.001012,0.02734375,0.0625,-0.0078125,0.7421875,-0.453125,10.42969,0.01171875,0.0234375,-0.001953125,-0.01757812,-0.05859375,0,-0.02246094,0,-2.691772,0,0,2.497314,0,4.076,0,0,0,0,nan,2,0.029,1,128,0.1000061,0.1000061,0.1000061,0.1000061,0,0,0,1,2,0
138.153,0.001008,0.03710938,0.01953125,0.02148438,1.351562,0.5546875,9.226562,-0.001953125,-0.01953125,0.005859375,-0.01757812,-0.05859375,0,-0.02246094,0,-2.691772,0,0,2.497314,0,4.076,0,0,0,0,nan,2,0.039,1,128,0.1000061,0.1000061,0.1000061,0.1000061,0,0,0,1,2,0.04761905
138.162,0.001008,0.02929688,0.06640625,-0.015625,0.078125,-0.4609375,10.51562,0.01367188,0.0234375,0,-0.01757812,-0.05859375,0,-0.02246094,0,-2.691772,0,0,2.497314,0,4.076,0,0,0,0,nan,2,0.048,1,128,0.1000061,0.1000061,0.1000061,0.1000061,0,0,0,1,2,0
138.172,0.001011,-0.02929688,-0.05273438,0.02148438,0.5078125,1.015625,9.375,-0.015625,-0.01953125,-0.00390625,-0.01757812,-0.05859375,0,-0.02246094,0,-2.691772,0,0,2.497314,0,4.076,0,0,0,0,nan,2,0.059,1,128,0.1000061,0.1000061,0.1000061,0.1000061,0,0,0,1,2,0.2698413
138.182,0.001002,0.0390625,0.04492188,-0.005859375,-0.03125,-0.1875,9.757812,0.01757812,0.015625,0.0078125,-0.01757812,-0.05859375,0,-0.02246094,-0.0001220703,-2.691772,0,0,2.497314,0,4.076,0,0,0,0,nan,2,0.069,1,128,0.1000061,0.1000061,0.1000061,0.1000061,0,0,0,1,2,0.7936508
138.192,0.001062,-0.03125,-0.02734375,-0.001953125,0.9296875,2.09375,10.64844,-0.015625,-0.01171875,-0.009765625,-0.01757812,-0.05859375,0,-0.02246094,0,-2.691772,0,0,2.497314,0,4.076,0,0,0,0,nan,2,0.079,1,128,0.1000061,0.1000061,0.1000061,0.1000061,0,0,0,1,2,0
138.202,0.001009,0.04296875,0.0078125,0.01367188,-1.328125,-1.351562,8.929688,0.01757812,0.009765625,0.01367188,-0.01757812,-0.05859375,0,-0.02233887,0,-2.691772,0,0,2.497314,0,4.076,0,0,0,0,nan,2,0.089,1,128,0.1000061,0.1000061,0.1000061,0.1000061,0,0,0,1,2,0
138.213,0.00101,-0.046875,0.00390625,-0.03515625,1.671875,1.90625,10.3125,-0.01953125,-0.00390625,-0.015625,-0.01757812,-0.05859375,0,-0.02246094,0,-2.691772,0,0,2.497314,0,4.076,0,0,0,0,nan,2,0.099,1,128,0.1000061,0.1000061,0.1000061,0.1000061,0,0,0,1,2,0
138.223,0.00101,0.0546875,-0.01953125,0.04492188,-1.734375,-0.8828125,9.046875,0.01953125,0.00390625,0.015625,-0.01757812,-0.05859375,0,-0.02233887,0,-2.691772,0,0,2.497314,0,4.076,0,0,0,0,nan,2,0.109,1,128,0.1000061,0.1000061,0.1000061,0.1000061,0,0,0,1,2,0
138.233,0.00101,-0.05273438,0.03710938,-0.0625,1.554688,1.046875,10.36719,-0.01953125,0.001953125,-0.01757812,-0.01757812,-0.05859375,0,-0.02246094,0,-2.691772,0,0,2.497314,0,4.076,0,0,0,0,nan,2,0.119,1,128,0.1000061,0.1000061,0.1000061,0.1000061,0,0,0,1,2,0
138.243,0.00101,0.04492188,-0.05273438,0.06445312,-1.25,-1.234375,8.960938,0.01171875,-0.001953125,0.01757812,-0.01757812,-0.05859375,0,-0.02246094,0,-2.691772,0,0,2.497314,0,4.076,0,0,0,0,nan,2,0.129,1,128,0.1000061,0.1000061,0.1000061,0.1000061,0,0,0,1,2,0
138.253,0.00101,0.01171875,0.04101562,-0.02734375,0.6875,1.28125,11.45312,-0.0078125,0.0078125,-0.01757812,-0.01757812,-0.05859375,0,-0.02246094,-0.0001220703,-2.691772,0,0,2.497314,0,4.076,0,0,0,0,nan,2,0.139,1,128,0.1000061,0.1000061,0.1000061,0.1000061,0,0,0,1,2,0
138.262,0.00101,0.015625,-0.03125,0.0625,-0.8984375,-1.28125,9.40625,0.0078125,-0.001953125,0.009765625,-0.01757812,-0.05859375,0,-0.02233887,-0.0001220703,-2.691772,0,0,2.497314,0,4.076,0,0,0,0,nan,2,0.148,1,128,0.1000061,0.1000061,0.1000061,0.1000061,0,0,0,1,2,0.3968254
138.272,0.001015,-0.00390625,0.02539062,-0.05859375,0.875,0.5859375,11.21875,-0.0078125,0.001953125,-0.009765625,-0.01757812,-0.05859375,0,-0.02246094,-0.0001220703,-2.691772,0,0,2.497314,0,4.076,0,0,0,0,nan,2,0.159,1,128,0.1000061,0.1000061,0.1000061,0.1000061,0,0,0,1,2,0
138.282,0.00102,-0.015625,-0.001953125,0.04882812,-0.4453125,-0.8125,9.117188,0.001953125,0.005859375,0.0078125,-0.01757812,-0.05859375,0,-0.02233887,0,-2.691772,0,0,2.497314,0,4.076,0,0,0,0,nan,2,0.169,1,128,0.1000061,0.1000061,0.1000061,0.1000061,0,0,0,1,2,0
138.292,0.001008,0.01953125,-0.00390625,-0.03320312,-0.1328125,0.21875,10.77344,-0.001953125,-0.00390625,-0.0078125,-0.01757812,-0.05859375,0,-0.02233887,-0.0001220703,-2.691772,0,0,2.497314,0,4.076,0,0,0,0,nan,2,0.179,1,128,0.1000061,0.1000061,0.1000061,0.1000061,0,0,0,1,2,0
138.302,0.001012,-0.02734375,0.03125,0.03125,1.125,-0.3203125,8.585938,0.00390625,0.01171875,0.009765625,-0.01757812,-0.05859375,0,-0.02233887,0,-2.691772,0,0,2.497314,0,4.076,0,0,0,0,nan,2,0.189,1,128,0.1000061,0.1000061,0.1000061,0.1000061,0,0,0,1,2,0
138.312,0.001008,0.03320312,-0.046875,-0.01171875,-0.7109375,0.6953125,10.97656,0,-0.01171875,-0.009765625,-0.01757812,-0.05859375,0,-0.02233887,-0.0001220703,-2.691772,0,0,2.497314,0,4.076,0,0,0,0,nan,2,0.199,1,128,0.1000061,0.1000061,0.1000061,0.1000061,0,0,0,1,2,0
138.323,0.00101,-0.0234375,0.06054688,0.01367188,1.429688,0.140625,8.421875,0.001953125,0.009765625,0.01367188,-0.01757812,-0.05859375,0,-0.02233887,0,-2.691772,0,0,2.497314,0,4.076,0,0,0,0,nan,2,0.209,1,128,0.1000061,0.1000061,0.1000061,0.1000061,0,0,0,1,2,0
138.333,0.001024,0.03125,-0.06835938,0.001953125,-1.414062,1.140625,10.91406,0,-0.009765625,-0.01367188,-0.01757812,-0.05859375,0,-0.02233887,0,-2.691772,0,0,2.497314,0,4.076,0,0,0,0,nan,2,0.006,1,128,0.1000061,0.1000061,0.1000061,0.1000061,0,0,0,1,2,0
138.343,0.001012,-0.01367188,0.06445312,-0.001953125,1.210938,0.265625,7.601562,-0.001953125,0.01171875,0.01757812,-0.01757812,-0.05859375,0,-0.02233887,0,-2.691772,0,0,2.497314,0,4.076,0,0,0,0,nan,2,0.016,1,128,0.1000061,0.1000061,0.1000061,0.1000061,0,0,0,1,2,0
138.353,0.00101,0.009765625,-0.05273438,0.08789062,-0.5703125,0.078125,10.6875,-0.001953125,-0.01757812,-0.00390625,-0.01757812,-0.05859375,0,-0.02233887,0,-2.691895,0,0,2.497314,0,4.076,0,0,0,0,nan,2,0.026,1,128,0.1000061,0.1000061,0.1000061,0.1000061,0,0,0,1,2,0
138.362,0.001012,0.02148438,0.05078125,0,0.984375,-0.5625,8.132812,0.001953125,0.005859375,0.01953125,-0.01757812,-0.05859375,0,-0.02233887,0,-2.691895,0,0,2.497314,0,4.076,0,0,0,0,nan,2,0.035,1,128,0.1000061,0.1000061,0.1000061,0.1000061,0,0,0,1,2,0
138.372,0.001012,-0.03710938,-0.04882812,-0.01367188,-0.890625,1.125,10.64062,-0.00390625,-0.009765625,-0.0234375,-0.01757812,-0.05859375,0,-0.02233887,0,-2.691895,0,0,2.497314,0,4.076,0,0,0,0,nan,2,0.045,1,128,0.1000061,0.1000061,0.1000061,0.1000061,0,0,0,1,2,0
138.382,0.001013,0.05859375,0.03710938,0.009765625,0.3203125,-0.625,9,0.001953125,0.009765625,0.01953125,-0.01757812,-0.05859375,0,-0.02233887,0,-2.691895,0,0,2.497314,0,4.076,0,0,0,0,nan,2,0.056,1,128,0.1000061,0.1000061,0.1000061,0.1000061,0,0,0,1,2,0
138.393,0.001064,-0.06445312,-0.03125,-0.0078125,0.203125,0.8515625,10.24219,-0.001953125,-0.0078125,-0.015625,-0.01757812,-0.05859375,0,-0.02233887,0,-2.692017,0,0,2.497314,0,4.076,0,0,0,0,nan,2,0.066,1,128,0.1000061,0.1000061,0.1000061,0.1000061,0,0,0,1,2,0.03174603
138.402,0.001009,0.07226562,0.02148438,0.00390625,0.3671875,-0.640625,9.804688,0.001953125,0.01171875,0.01367188,-0.01757812,-0.05859375,0,-0.02233887,0,-2.691895,0,0,2.497314,0,4.076,0,0,0,0,nan,2,0.076,1,128,0.1000061,0.1000061,0.1000061,0.1000061,0,0,0,1,2,0.8253968
138.413,0.00101,-0.07421875,-0.01953125,0,0.9296875,0.6171875,10.10156,-0.001953125,-0.009765625,-0.005859375,-0.01757812,-0.05859375,0,-0.0222168,0,-2.691895,0,0,2.497314,0,4.076,0,0,0,0,nan,2,0.086,1,128,0.1000061,0.1000061,0.1000061,0.1000061,0,0,0,1,2,0.2539683
138.423,0.00101,0.08398438,0.009765625,-0.009765625,-0.046875,-0.390625,10.21875,0.005859375,0.01367188,0.001953125,-0.01757812,-0.05859375,0,-0.0222168,0,-2.691895,0,0,2.497314,0,4.076,0,0,0,0,nan,2,0.096,1,128,0.1000061,0.1000061,0.1000061,0.1000061,0,0,0,1,2,0.1269841
138.433,0.001008,-0.08398438,-0.01953125,0.01171875,0.515625,-0.0859375,10.0625,-0.0078125,-0.015625,0.001953125,-0.01757812,-0.05859375,0,-0.0222168,0,-2.691895,0,0,2.497314,0,4.076,0,0,0,0,nan,2,0.106,1,128,0.1000061,0.1000061,0.1000061,0.1000061,0,0,0,1,2,0.4444444
138.443,0.001012,0.08398438,0.02148438,-0.02929688,-0.375,-0.4296875,9.5625,0.0078125,0.015625,-0.005859375,-0.01757812,-0.05859375,0,-0.02209473,0,-2.691895,0,0,2.497314,0,4.076,0,0,0,0,nan,2,0.116,1,128,0.1000061,0.1000061,0.1000061,0.1000061,0,0,0,1,2,0.5238096
138.453,0.001011,-0.0390625,0.02929688,0.00390625,0.796875,0.7578125,9.960938,-0.02148438,-0.009765625,0.009765625,-0.01757812,-0.05859375,0,-0.02209473,0,-2.691895,0,0,2.497314,0,4.076,0,0,0,0,nan,2,0.126,1,128,0.1000061,0.1000061,0.1000061,0.1000061,0,0,0,1,2,0.5238096
138.462,0.001009,0.08007812,0.04101562,-0.0390625,0.0546875,-1.242188,9.632812,0.015625,0.01367188,-0.01171875,-0.01757812,-0.05859375,0,-0.02209473,-0.0001220703,-2.691895,0,0,2.497314,0,4.076,0,0,0,0,nan,2,0.135,1,128,0.1000061,0.1000061,0.1000061,0.1000061,0,0,0,1,2,0.8095238
138.472,0.001009,-0.0703125,-0.03320312,0.03320312,-0.2578125,1.71875,10.64062,-0.01953125,-0.01367188,0.009765625,-0.01757812,-0.05859375,0,-0.02209473,-0.0001220703,-2.691895,0,0,2.497314,0,4.076,0,0,0,0,nan,2,0.145,1,128,0.1000061,0.1000061,0.1000061,0.1000061,0,0,0,1,2,0
138.482,0.001012,0.078125,0.046875,-0.02539062,0.3203125,-1.59375,9.109375,0.02539062,0.015625,-0.0078125,-0.01757812,-0.05859375,0,-0.02197266,-0.0001220703,-2.691895,0,0,2.497314,0,4.076,0,0,0,0,nan,2,0.156,1,128,0.1000061,0.1000061,0.1000061,0.1000061,0,0,0,1,2,0
138.492,0.001018,-0.07226562,-0.0390625,0.005859375,-0.0703125,2.40625,10.625,-0.03125,-0.01171875,0.001953125,-0.01757812,-0.05859375,0,-0.02197266,-0.0001220703,-2.691895,0,0,2.497314,0,4.076,0,0,0,0,nan,2,0.166,1,128,0.1000061,0.1000061,0.1000061,0.1000061,0,0,0,1,2,0
138.502,0.00101,0.07226562,0.04296875,0.02148438,0.0859375,-2.109375,8.96875,0.02929688,0.01171875,0.00390625,-0.01757812,-0.05859375,0,-0.02197266,-0.0001220703,-2.691895,0,0,2.497314,0,4.076,0,0,0,0,nan,2,0.176,1,128,0.1000061,0.1000061,0.1000061,0.1000061,0,0,0,1,2,0
138.512,0.001009,-0.06054688,-0.03515625,-0.03515625,0.359375,2.992188,10.69531,-0.02929688,-0.005859375,-0.0078125,-0.01757812,-0.05859375,0,-0.02197266,-0.0001220703,-2.691895,0,0,2.497314,0,4.076,0,0,0,0,nan,2,0.186,1,128,0.1000061,0.1000061,0.1000061,0.1000061,0,0,0,1,2,0
138.523,0.001001,0.0625,0.02539062,0.06054688,-1.164062,-2.171875,9.164062,0.02929688,0.0078125,0.01367188,-0.01757812,-0.05859375,0,-0.02197266,-0.0001220703,-2.691895,0,0,2.497314,0,4.076,0,0,0,0,nan,2,0.196,1,128,0.1000061,0.1000061,0.1000061,0.1000061,0,0,0,1,2,0.3492064
138.533,0.001018,-0.0390625,-0.01953125,-0.08398438,0.5390625,1.523438,10.08594,-0.0234375,-0.00390625,-0.01953125,-0.01757812,-0.05859375,0,-0.02197266,-0.0001220703,-2.691895,0,0,2.497314,0,4.076,0,0,0,0,nan,2,0.006,1,128,0.1000061,0.1000061,0.1000061,0.1000061,0,0,0,1,2,0.1587302
138.542,0.001001,0.08789062,0.02539062,0.08398438,-0.2265625,-0.40625,10.25,0.01757812,0.005859375,0.001953125,-0.01757812,-0.05859375,0,-0.02185059,-0.0001220703,-2.691895,0,0,2.497314,0,4.076,0,0,0,0,nan,2,0.015,1,128,0.1000061,0.1000061,0.1000061,0.1000061,0,0,0,1,2,0.06349207
138.553,0.001011,0.05664062,0.01953125,-0.03320312,1.109375,1.296875,10.82812,-0.005859375,-0.001953125,-0.03320312,-0.01757812,-0.05859375,0,-0.02197266,-0.0001220703,-2.692017,0,0,2.497314,0,4.076,0,0,0,0,nan,2,0.026,1,128,0.1000061,0.1000061,0.1000061,0.1000061,0,0,0,1,2,0
138.562,0.00101,-0.001953125,-0.0078125,0.1054688,-0.6484375,-1.515625,10.125,0.0078125,0.005859375,0.01953125,-0.01757812,-0.05859375,0,-0.02197266,-0.0001220703,-2.692017,0,0,2.497314,0,4.076,0,0,0,0,nan,2,0.035,1,128,0.1000061,0.1000061,0.1000061,0.1000061,0,0,0,1,2,0.06349207
138.572,0.00101,0.015625,0.005859375,-0.1074219,0.8828125,0.5546875,9.5625,-0.005859375,-0.0078125,-0.02148438,-0.01757812,-0.05859375,0,-0.02197266,-0.0002441406,-2.692017,0,0,2.497314,0,4.076,0,0,0,0,nan,2,0.045,1,128,0.1000061,0.1000061,0.1000061,0.1000061,0,0,0,1,2,0.5079365
138.582,0.001011,-0.03515625,0,0.08398438,-0.78125,-0.7109375,10.45312,-0.00390625,0.01171875,0.01757812,-0.01757812,-0.05859375,0,-0.02197266,-0.0001220703,-2.692017,0,0,2.497314,0,4.076,0,0,0,0,nan,2,0.056,1,128,0.1000061,0.1000061,0.1000061,0.1000061,0,0,0,1,2,0
138.592,0.001005,0.03710938,0.0078125,-0.07226562,0.3515625,-0.578125,10.17969,0.005859375,-0.0078125,-0.01953125,-0.01757812,-0.05859375,0,-0.02197266,-0.0001220703,-2.692017,0,0,2.497314,0,4.076,0,0,0,0,nan,2,0.066,1,128,0.1000061,0.1000061,0.1000061,0.1000061,0,0,0,1,2,0.1904762
138.602,0.00101,-0.046875,0.009765625,0.05859375,-0.5859375,-0.421875,9.898438,-0.0078125,0.01367188,0.01757812,-0.01757812,-0.05859375,0,-0.02197266,-0.0001220703,-2.692017,0,0,2.497314,0,4.077,0,0,0,0,nan,2,0.076,1,128,0.1000061,0.1000061,0.1000061,0.1000061,0,0,0,1,2,0.6349207
138.612,0.001011,0.04882812,-0.01171875,-0.02539062,0.3828125,-0.6953125,10.35938,0.009765625,-0.01171875,-0.01757812,-0.01757812,-0.05859375,0,-0.02197266,-0.0001220703,-2.692139,0,0,2.497314,0,4.077,0,0,0,0,nan,2,0.086,1,128,0.1000061,0.1000061,0.1000061,0.1000061,0,0,0,1,2,0
138.623,0.00101,-0.03710938,0.02148438,0.00390625,0.7109375,0.28125,8.601562,-0.009765625,0.01171875,0.01171875,-0.01757812,-0.05859375,0,-0.02185059,-0.0001220703,-2.692139,0,0,2.497314,0,4.077,0,0,0,0,nan,2,0.096,1,128,0.1000061,0.1000061,0.1000061,0.1000061,0,0,0,1,2,0
138.633,0.001012,0.03710938,-0.02929688,0.02539062,-0.1484375,-0.2890625,10.96094,0.01171875,-0.01171875,-0.0078125,-0.01757812,-0.05859375,0,-0.02185059,-0.0001220703,-2.692139,0,0,2.497314,0,4.077,0,0,0,0,nan,2,0.106,1,128,0.1000061,0.1000061,0.1000061,0.1000061,0,0,0,1,2,0
138.643,0.001012,-0.005859375,0.04101562,-0.02929688,0.34375,0.265625,8.171875,-0.005859375,0.01171875,0.009765625,-0.01757812,-0.05859375,0,-0.02185059,-0.0001220703,-2.692017,0,0,2.497314,0,4.077,0,0,0,0,nan,2,0.116,1,128,0.1000061,0.1000061,0.1000061,0.1000061,0,0,0,1,2,0
138.653,0.00101,-0.03515625,-0.009765625,0.09179688,-0.6796875,0.03125,11.92969,-0.005859375,-0.01171875,0.0078125,-0.01757812,-0.05859375,0,-0.02185059,-0.0001220703,-2.692139,0,0,2.497314,0,4.077,0,0,0,0,nan,2,0.126,1,128,0.1000061,0.1000061,0.1000061,0.1000061,0,0,0,1,2,0
138.663,0.00101,0.03515625,0.015625,-0.08984375,0.9453125,-1.210938,7.851562,0.009765625,0.005859375,-0.009765625,-0.01757812,-0.05859375,0,-0.02185059,-0.0001220703,-2.692139,0,0,2.497314,0,4.077,0,0,0,0,nan,2,0.136,1,128,0.1000061,0.1000061,0.1000061,0.1000061,0,0,0,1,2,0
138.672,0.00101,-0.05859375,-0.01757812,0.02734375,-1.132812,0.7265625,11.74219,-0.005859375,0.00390625,-0.01367188,-0.01757812,-0.05859375,0,-0.02185059,-0.0001220703,-2.692139,0,0,2.497314,0,4.077,0,0,0,0,nan,2,0.145,1,128,0.1000061,0.1000061,0.1000061,0.1000061,0,0,0,1,2,0
138.682,0.00101,0.07421875,0.02539062,-0.01953125,0.625,-1.164062,7.523438,0.0078125,-0.001953125,0.009765625,-0.01757812,-0.05859375,0,-0.02185059,-0.0001220703,-2.692139,0,0,2.497314,0,4.077,0,0,0,0,nan,2,0.156,1,128,0.1000061,0.1000061,0.1000061,0.1000061,0,0,0,1,2,0
138.692,0.001014,-0.09179688,-0.02148438,0.009765625,-0.8828125,1.75,11.75781,-0.01367188,0.005859375,-0.009765625,-0.01757812,-0.05859375,0,-0.02185059,-0.0001220703,-2.692139,0,0,2.497314,0,4.077,0,0,0,0,nan,2,0.166,1,128,0.1000061,0.1000061,0.1000061,0.1000061,0,0,0,1,2,0
138.702,0.001009,0.09765625,0.015625,-0.005859375,0.953125,-1.726562,8.078125,0.015625,-0.00390625,0.0078125,-0.01757812,-0.05859375,0,-0.02185059,-0.0001220703,-2.692139,0,0,2.497314,0,4.077,0,0,0,0,nan,2,0.176,1,128,0.1000061,0.1000061,0.1000061,0.1000061,0,0,0,1,2,0
138.712,0.001008,-0.09570312,-0.02929688,-0.009765625,-0.5,1.476562,11.59375,-0.01367188,-0.001953125,-0.0078125,-0.01757812,-0.05859375,0,-0.02185059,-0.0001220703,-2.692139,0,0,2.497314,0,4.077,0,0,0,0,nan,2,0.186,1,128,0.1000061,0.1000061,0.1000061,0.1000061,0,0,0,1,2,0
138.723,0.001008,0.09960938,0.0234375,0.02148438,0.890625,-1.625,8.734375,0.01367188,0,0.005859375,-0.01757812,-0.05859375,0,-0.02185059,-0.0001220703,-2.692139,0,0,2.497314,0,4.077,0,0,0,0,nan,2,0.196,1,128,0.1000061,0.1000061,0.1000061,0.1000061,0,0,0,1,2,0
138.733,0.001008,-0.08984375,-0.03710938,-0.02929688,-0.359375,1.328125,10.35938,-0.01367188,-0.01171875,-0.005859375,-0.01757812,-0.05859375,0,-0.02185059,-0.0001220703,-2.692139,0,0,2.497314,0,4.077,0,0,0,0,nan,2,0.206,1,128,0.1000061,0.1000061,0.1000061,0.1000061,0,0,0,1,2,0
138.743,0.001012,0.08398438,0.04296875,0.03320312,0.8984375,-0.953125,9.460938,0.01367188,0.01171875,0.00390625,-0.01757812,-0.05859375,0,-0.02172852,-0.0002441406,-2.692139,0,0,2.497314,0,4.077,0,0,0,0,nan,2,0.216,1,128,0.1000061,0.1000061,0.1000061,0.1000061,0,0,0,1,2,0.4761905
138.752,0.001032,-0.0703125,-0.046875,-0.03125,-0.5625,0.6171875,9.492188,-0.009765625,-0.01367188,0,-0.01757812,-0.05859375,0,-0.02172852,-0.0002441406,-2.692139,0,0,2.497314,0,4.077,0,0,0,0,nan,2,0.006,1,128,0.1000061,0.1000061,0.1000061,0.1000061,0,0,0,1,2,0.3968254
138.762,0.001032,0.05859375,0.05664062,0.0234375,0.640625,-0.3984375,10.1875,0.01171875,0.01953125,0,-0.01757812,-0.05859375,0,-0.02172852,-0.0002441406,-2.692139,0,0,2.497314,0,4.077,0,0,0,0,nan,2,0.016,1,128,0.1000061,0.1000061,0.1000061,0.1000061,0,0,0,1,2,0.1587302
138.772,0.00101,-0.03710938,-0.07226562,-0.01367188,-0.7421875,0.328125,9.070312,-0.01171875,-0.02539062,0.00390625,-0.01757812,-0.05859375,0,-0.02172852,-0.0002441406,-2.692139,0,0,2.497314,0,4.077,0,0,0,0,nan,2,0.026,1,128,0.1000061,0.1000061,0.1000061,0.1000061,0,0,0,1,2,0
138.782,0.001012,0.03515625,0.078125,0,0.3984375,-0.8203125,10.40625,0.009765625,0.02734375,-0.00390625,-0.01757812,-0.05859375,0,-0.02160645,-0.0002441406,-2.692139,0,0,2.497314,0,4.077,0,0,0,0,nan,2,0.036,1,128,0.1000061,0.1000061,0.1000061,0.1000061,0,0,0,1,2,0
138.792,0.001007,-0.03125,-0.06445312,0.001953125,-0.5234375,0.8828125,9.09375,-0.01171875,-0.02148438,0,-0.01757812,-0.05859375,0,-0.02160645,-0.0002441406,-2.692139,0,0,2.497314,0,4.077,0,0,0,0,nan,2,0.046,1,128,0.1000061,0.1000061,0.1000061,0.1000061,0,0,0,1,2,0
138.802,0.001068,0.03710938,0.06835938,-0.01171875,0.4609375,-0.328125,10.52344,0.01367188,0.02734375,0.001953125,-0.01757812,-0.05859375,0,-0.02160645,-0.0002441406,-2.692139,0,0,2.497314,0,4.077,0,0,0,0,nan,2,0.057,1,128,0.1000061,0.1000061,0.1000061,0.1000061,0,0,0,1,2,0
138.812,0.001009,-0.02734375,-0.05859375,0.01367188,0.21875,1.296875,9.203125,-0.015625,-0.02148438,-0.00390625,-0.01757812,-0.05859375,0,-0.02160645,-0.0002441406,-2.692139,0,0,2.497314,0,4.077,0,0,0,0,nan,2,0.067,1,128,0.1000061,0.1000061,0.1000061,0.1000061,0,0,0,1,2,0
138.823,0.00101,0.046875,0.04101562,-0.0078125,-0.015625,0.015625,9.984375,0.01757812,0.015625,0.005859375,-0.01757812,-0.05859375,0,-0.02148438,-0.0002441406,-2.692139,0,0,2.497314,0,4.077,0,0,0,0,nan,2,0.077,1,128,0.1000061,0.1000061,0.1000061,0.1000061,0,0,0,1,2,0.5396826
138.833,0.001012,-0.03320312,-0.04882812,0.009765625,0.7734375,2.203125,10.34375,-0.015625,-0.01953125,-0.0078125,-0.01757812,-0.05859375,0,-0.02148438,-0.0002441406,-2.692139,0,0,2.497314,0,4.077,0,0,0,0,nan,2,0.087,1,128,0.1000061,0.1000061,0.1000061,0.1000061,0,0,0,1,2,0
138.843,0.00101,0.04882812,0.015625,0.0078125,-0.6484375,-1.421875,8.882812,0.01953125,0.01171875,0.009765625,-0.01757812,-0.05859375,0,-0.02148438,-0.0002441406,-2.692139,0,0,2.497314,0,4.077,0,0,0,0,nan,2,0.097,1,128,0.1000061,0.1000061,0.1000061,0.1000061,0,0,0,1,2,0
138.853,0.00101,0.0234375,0.02539062,0.02734375,1.21875,1.054688,11.625,-0.01367188,0.005859375,-0.00390625,-0.01757812,-0.05859375,0,-0.02148438,-0.0002441406,-2.692139,0,0,2.497314,0,4.077,0,0,0,0,nan,2,0.107,1,128,0.1000061,0.1000061,0.1000061,0.1000061,0,0,0,1,2,0
138.862,0.00101,0.05859375,-0.01367188,0.02929688,-1.8125,-1.039062,9.296875,0.01953125,0.00390625,0.01171875,-0.01757812,-0.05859375,0,-0.02148438,-0.0002441406,-2.692139,0,0,2.497314,0,4.077,0,0,0,0,nan,2,0.116,1,128,0.1000061,0.1000061,0.1000061,0.1000061,0,0,0,1,2,0.3174603
138.872,0.00101,-0.05859375,0.02539062,-0.04882812,1.539062,1.617188,10.28125,-0.0234375,-0.001953125,-0.015625,-0.01757812,-0.05859375,0,-0.02148438,-0.0002441406,-2.692139,0,0,2.497314,0,4.077,0,0,0,0,nan,2,0.126,1,128,0.1000061,0.1000061,0.1000061,0.1000061,0,0,0,1,2,0
138.882,0.00101,0.06054688,-0.04882812,0.06054688,-1.460938,-0.9765625,9.234375,0.0234375,-0.005859375,0.01367188,-0.01757812,-0.05859375,0,-0.02148438,-0.0002441406,-2.692139,0,0,2.497314,0,4.077,0,0,0,0,nan,2,0.136,1,128,0.1000061,0.1000061,0.1000061,0.1000061,0,0,0,1,2,0.1428571
138.892,0.001006,-0.05078125,0.05664062,-0.06835938,1.015625,1.34375,10.72656,-0.01953125,0.00390625,-0.01367188,-0.01757812,-0.05859375,0,-0.02148438,-0.0002441406,-2.692139,0,0,2.497314,0,4.077,0,0,0,0,nan,2,0.146,1,128,0.1000061,0.1000061,0.1000061,0.1000061,0,0,0,1,2,0
138.902,0.001015,0.02539062,-0.05078125,0.06640625,-1.1875,-1.335938,8.898438,0.01171875,0,0.01171875,-0.01757812,-0.05859375,0,-0.02148438,-0.0002441406,-2.692139,0,0,2.497314,0,4.077,0,0,0,0,nan,2,0.157,1,128,0.1000061,0.1000061,0.1000061,0.1000061,0,0,0,1,2,0
138.912,0.001012,-0.0078125,0.04101562,-0.0703125,0.9375,0.1328125,11.07812,-0.009765625,0,-0.009765625,-0.01757812,-0.05859375,0,-0.02148438,-0.0002441406,-2.692139,0,0,2.497314,0,4.077,0,0,0,0,nan,2,0.167,1,128,0.1000061,0.1000061,0.1000061,0.1000061,0,0,0,1,2,0
138.923,0.001008,-0.01367188,-0.02539062,0.0625,-0.65625,-1.171875,9.375,0.0078125,0.001953125,0.009765625,-0.01757812,-0.05859375,0,-0.0213623,-0.0002441406,-2.692139,0,0,2.497314,0,4.077,0,0,0,0,nan,2,0.177,1,128,0.1000061,0.1000061,0.1000061,0.1000061,0,0,0,1,2,0.3015873
138.933,0.001012,0.0234375,0.01757812,-0.04882812,0.609375,0.3359375,10.47656,-0.0078125,-0.00390625,-0.0078125,-0.01757812,-0.05859375,0,-0.0213623,-0.0002441406,-2.692139,0,0,2.497314,0,4.077,0,0,0,0,nan,2,0.187,1,128,0.1000061,0.1000061,0.1000061,0.1000061,0,0,0,1,2,0
138.943,0.000997,-0.0546875,0.005859375,0.03515625,-0.0234375,-0.421875,9.007812,0.001953125,0.009765625,0.0078125,-0.01757812,-0.05859375,0,-0.0213623,-0.0002441406,-2.692139,0,0,2.497314,0,4.077,0,0,0,0,nan,2,0.197,1,128,0.1000061,0.1000061,0.1000061,0.1000061,0,0,0,1,2,0
138.953,0.00101,0.06640625,0.01953125,0.01367188,0.265625,-1.25,9.914062,0.01953125,-0.00390625,-0.0078125,-0.01757812,-0.05859375,0,-0.0213623,-0.0002441406,-2.692139,0,0,2.497314,0,4.077,0,0,0,0,nan,2,0.207,1,128,0.1000061,0.1000061,0.1000061,0.1000061,0,0,0,1,2,0.5079365
138.963,0.001011,-0.07226562,-0.0078125,-0.03320312,0.3515625,0.859375,9.664062,-0.01171875,0.005859375,0.001953125,-0.01757812,-0.05859375,0,-0.02124023,-0.0002441406,-2.692139,0,0,2.497314,0,4.077,0,0,0,0,nan,2,0.217,1,128,0.1000061,0.1000061,0.1000061,0.1000061,0,0,0,1,2,0.7142857
138.972,0.000958,0.06835938,-0.03320312,-0.00390625,-0.71875,0.6484375,11.30469,0.001953125,-0.009765625,-0.01367188,-0.01757812,-0.05859375,0,-0.02124023,-0.0003662109,-2.692139,0,0,2.497314,0,4.077,0,0,0,0,nan,2,0.007,1,128,0.1000061,0.1000061,0.1000061,0.1000061,0,0,0,1,2,0
138.982,0.000963,-0.05664062,0.04296875,-0.00390625,0.2578125,0.21875,8.25,0,0.009765625,0.015625,-0.01757812,-0.05859375,0,-0.02124023,-0.0002441406,-2.692139,0,0,2.497314,0,4.077,0,0,0,0,nan,2,0.017,1,128,0.1000061,0.1000061,0.1000061,0.1000061,0,0,0,1,2,0
138.992,0.001004,0.0546875,-0.04101562,0.015625,-0.3125,0.2734375,11.09375,0.001953125,-0.0078125,-0.01953125,-0.01757812,-0.05859375,0,-0.02124023,-0.0002441406,-2.692139,0,0,2.497314,0,4.077,0,0,0,0,nan,2,0.027,1,128,0.1000061,0.1000061,0.1000061,0.1000061,0,0,0,1,2,0
139.002,0.001018,-0.0390625,0.02734375,-0.02539062,0.8046875,0.2578125,8.34375,-0.001953125,0.005859375,0.01953125,-0.01757812,-0.05859375,0,-0.02124023,-0.0002441406,-2.692139,0,0,2.497314,0,4.077,0,0,0,0,nan,2,0.037,1,128,0.1000061,0.1000061,0.1000061,0.1000061,0,0,0,1,2,0
139.012,0.001011,0.0234375,-0.02148438,0.0234375,-0.0625,0.7734375,11.57812,0,-0.005859375,-0.02148438,-0.01757812,-0.05859375,0,-0.02124023,-0.0002441406,-2.692261,0,0,2.497314,0,4.077,0,0,0,0,nan,2,0.047,1,128,0.1000061,0.1000061,0.1000061,0.1000061,0,0,0,1,2,0
139.023,0.00101,-0.001953125,0,-0.02539062,0.03125,-0.3984375,8.546875,-0.001953125,0.001953125,0.02148438,-0.01757812,-0.05859375,0,-0.02124023,-0.0002441406,-2.692139,0,0,2.497314,0,4.077,0,0,0,0,nan,2,0.058,1,128,0.1000061,0.1000061,0.1000061,0.1000061,0,0,0,1,2,0
139.033,0.001012,-0.01953125,0.01367188,0.03125,0.2578125,0.6953125,10.89062,0.001953125,-0.001953125,-0.01757812,-0.01757812,-0.05859375,0,-0.02111816,-0.0002441406,-2.692139,0,0,2.497314,0,4.077,0,0,0,0,nan,2,0.068,1,128,0.1000061,0.1000061,0.1000061,0.1000061,0,0,0,1,2,0
139.043,0.001012,0.03515625,-0.03710938,-0.02734375,0.125,-0.6484375,8.265625,0,-0.00390625,0.015625,-0.01757812,-0.05859375,0,-0.02124023,-0.0002441406,-2.692139,0,0,2.497314,0,4.077,0,0,0,0,nan,2,0.078,1,128,0.1000061,0.1000061,0.1000061,0.1000061,0,0,0,1,2,0
139.053,0.001008,-0.05859375,0.03320312,0.0859375,0.28125,0.4296875,10.70312,-0.01757812,0.009765625,0.01757812,-0.01757812,-0.05859375,0,-0.02124023,-0.0002441406,-2.692139,0,0,2.497314,0,4.077,0,0,0,0,nan,2,0.088,1,128,0.1000061,0.1000061,0.1000061,0.1000061,0,0,0,1,2,0
139.063,0.00101,0.06054688,-0.03320312,-0.0703125,-0.1640625,-0.8359375,9.203125,0.01367188,-0.009765625,-0.01171875,-0.01757812,-0.05859375,0,-0.02124023,-0.0002441406,-2.692139,0,0,2.497314,0,4.077,0,0,0,0,nan,2,0.098,1,128,0.1000061,0.1000061,0.1000061,0.1000061,0,0,0,1,2,0
139.072,0.001008,-0.0546875,0.03320312,0.05078125,0.34375,0.53125,11.14844,-0.00390625,0,0.001953125,-0.01757812,-0.05859375,0,-0.02124023,-0.0002441406,-2.692139,0,0,2.497314,0,4.077,0,0,0,0,nan,2,0.107,1,128,0.1000061,0.1000061,0.1000061,0.1000061,0,0,0,1,2,0
139.082,0.001011,0.05078125,-0.02539062,-0.05273438,-0.6875,-0.515625,8.710938,0.00390625,0.001953125,-0.005859375,-0.01757812,-0.05859375,0,-0.02124023,-0.0002441406,-2.692017,0,0,2.497314,0,4.077,0,0,0,0,nan,2,0.117,1,128,0.1000061,0.1000061,0.1000061,0.1000061,0,0,0,1,2,0
139.092,0.001011,-0.04492188,0.01757812,0.05078125,0.328125,0.1328125,10.73438,-0.00390625,-0.00390625,0.009765625,-0.01757812,-0.05859375,0,-0.02124023,-0.0002441406,-2.692139,0,0,2.497314,0,4.077,0,0,0,0,nan,2,0.127,1,128,0.1000061,0.1000061,0.1000061,0.1000061,0,0,0,1,2,0
139.102,0.001014,0.04296875,-0.01757812,-0.0625,-0.1640625,-0.484375,9.359375,0.00390625,0.00390625,-0.01367188,-0.01757812,-0.05859375,0,-0.02111816,-0.0002441406,-2.692139,0,0,2.497314,0,4.077,0,0,0,0,nan,2,0.137,1,128,0.1000061,0.1000061,0.1000061,0.1000061,0,0,0,1,2,0.0952381
139.112,0.00101,-0.03710938,0.0078125,0.06835938,-0.0390625,0.5,11.39062,-0.009765625,-0.005859375,0.01757812,-0.01757812,-0.05859375,0,-0.02111816,-0.0003662109,-2.692017,0,0,2.497314,0,4.077,0,0,0,0,nan,2,0.147,1,128,0.1000061,0.1000061,0.1000061,0.1000061,0,0,0,1,2,0
139.123,0.00101,0.02929688,0.005859375,-0.06835938,0.703125,-0.484375,9.226562,0.0078125,0.009765625,-0.01953125,-0.01757812,-0.05859375,0,-0.02111816,-0.0002441406,-2.692017,0,0,2.497314,0,4.077,0,0,0,0,nan,2,0.158,1,128,0.1000061,0.1000061,0.1000061,0.1000061,0,0,0,1,2,0
139.133,0.00101,-0.02539062,-0.01953125,0.0703125,-0.5390625,0.7265625,10.79688,-0.015625,-0.01171875,0.01757812,-0.01757812,-0.05859375,0,-0.02124023,-0.0002441406,-2.692017,0,0,2.497314,0,4.077,0,0,0,0,nan,2,0.168,1,128,0.1000061,0.1000061,0.1000061,0.1000061,0,0,0,1,2,0
139.143,0.00101,0.01757812,0.02734375,-0.06835938,0.65625,-1.117188,9.070312,0.015625,0.01171875,-0.01757812,-0.01757812,-0.05859375,0,-0.02111816,-0.0002441406,-2.692139,0,0,2.497314,0,4.077,0,0,0,0,nan,2,0.178,1,128,0.1000061,0.1000061,0.1000061,0.1000061,0,0,0,1,2,0
139.153,0.001011,0.0703125,0.0078125,0.02148438,0.8203125,-0.40625,8.25,0.005859375,-0.005859375,0.01171875,-0.01757812,-0.05859375,0,-0.02111816,-0.0002441406,-2.692017,0,0,2.497314,0,4.077,0,0,0,0,nan,2,0.188,1,128,0.1000061,0.1000061,0.1000061,0.1000061,0,0,0,1,2,0
139.163,0.001011,-0.08007812,-0.001953125,-0.02734375,-0.71875,0.9296875,10.66406,0.001953125,0.0078125,-0.01367188,-0.01757812,-0.05859375,0,-0.02111816,-0.0002441406,-2.692139,0,0,2.497314,0,4.077,0,0,0,0,nan,2,0.198,1,128,0.1000061,0.1000061,0.1000061,0.1000061,0,0,0,1,2,0
139.172,0.000998,0.01171875,-0.03125,0.04492188,-0.3203125,1.007812,9.546875,-0.015625,-0.01171875,0.005859375,-0.01757812,-0.05859375,0,-0.02111816,-0.0002441406,-2.692139,0,0,2.497314,0,4.077,0,0,0,0,nan,2,0.207,1,128,0.1000061,0.1000061,0.1000061,0.1000061,0,0,0,1,2,0.4761905
139.182,0.001008,-0.009765625,0.02734375,-0.02734375,-0.703125,-0.9609375,10.0625,0.01757812,0.009765625,0,-0.01757812,-0.05859375,0,-0.02111816,-0.0002441406,-2.692139,0,0,2.497314,0,4.077,0,0,0,0,nan,2,0.004,1,128,0.1000061,0.1000061,0.1000061,0.1000061,0,0,0,1,2,0.3174603
139.192,0.001045,0.015625,-0.001953125,0.01757812,0.890625,0.890625,9.296875,-0.01367188,-0.005859375,-0.00390625,-0.01757812,-0.05859375,0,-0.02111816,-0.0002441406,-2.692139,0,0,2.497314,0,4.077,0,0,0,0,nan,2,0.014,1,128,0.1000061,0.1000061,0.1000061,0.1000061,0,0,0,1,2,0.1269841
139.202,0.001031,-0.015625,-0.015625,-0.005859375,-1.40625,-0.859375,10.40625,0.015625,0.001953125,0.005859375,-0.01757812,-0.05859375,0,-0.02099609,-0.0003662109,-2.692139,0,0,2.497314,0,4.077,0,0,0,0,nan,2,0.024,1,128,0.1000061,0.1000061,0.1000061,0.1000061,0,0,0,1,2,0
139.212,0.001045,0.009765625,0.04101562,-0.00390625,1.59375,0.46875,9.3125,-0.015625,0.00390625,-0.009765625,-0.01757812,-0.05859375,0,-0.02099609,-0.0003662109,-2.692139,0,0,2.497314,0,4.077,0,0,0,0,nan,2,0.034,1,128,0.1000061,0.1000061,0.1000061,0.1000061,0,0,0,1,2,0.2857143
139.223,0.00101,-0.0078125,-0.0625,0.01171875,-1.914062,0.0625,10.50781,0.01367188,-0.00390625,0.009765625,-0.01757812,-0.05859375,0,-0.02099609,-0.0003662109,-2.692139,0,0,2.497314,0,4.077,0,0,0,0,nan,2,0.044,1,128,0.1000061,0.1000061,0.1000061,0.1000061,0,0,0,1,2,0
139.233,0.00101,0.01953125,0.0703125,-0.01171875,2.484375,0.234375,9.078125,-0.005859375,0.00390625,-0.005859375,-0.01757812,-0.05859375,0,-0.02099609,-0.0003662109,-2.692139,0,0,2.497314,0,4.077,0,0,0,0,nan,2,0.055,1,128,0.1000061,0.1000061,0.1000061,0.1000061,0,0,0,1,2,0.1587302
139.243,0.00101,-0.0234375,-0.08789062,0.009765625,-2.117188,0.7265625,10.23438,0.001953125,-0.00390625,0.005859375,-0.01757812,-0.05859375,0,-0.02087402,-0.0002441406,-2.692139,0,0,2.497314,0,4.077,0,0,0,0,nan,2,0.065,1,128,0.1000061,0.1000061,0.1000061,0.1000061,0,0,0,1,2,0
139.253,0.001011,0.03515625,0.09960938,-0.005859375,1.289062,-0.0390625,10.54688,0.009765625,0.03125,0,-0.01757812,-0.05859375,0,-0.02087402,-0.0002441406,-2.692139,0,0,2.497314,0,4.077,0,0,0,0,nan,2,0.075,1,128,0.1000061,0.1000061,0.1000061,0.1000061,0,0,0,1,2,0
139.263,0.00101,-0.03710938,-0.09179688,0.0078125,-1.265625,0.4609375,9.648438,-0.009765625,-0.02148438,0,-0.01757812,-0.05859375,0,-0.02087402,-0.0002441406,-2.692139,0,0,2.497314,0,4.077,0,0,0,0,nan,2,0.085,1,128,0.1000061,0.1000061,0.1000061,0.1000061,0,0,0,1,2,0.7777778
139.272,0.001008,0.03515625,0.09960938,0.005859375,2.234375,-2.109375,9.632812,0.005859375,0.0078125,0.00390625,-0.01757812,-0.05859375,0,-0.02087402,-0.0002441406,-2.692139,0,0,2.497314,0,4.077,0,0,0,0,nan,2,0.094,1,128,0.1000061,0.1000061,0.1000061,0.1000061,0,0,0,1,2,0.3492064
139.282,0.001013,-0.05078125,-0.09179688,-0.01757812,-1.601562,0.6171875,10.39844,-0.005859375,-0.0078125,-0.0078125,-0.01757812,-0.05859375,0,-0.02075195,-0.0001220703,-2.692139,0,0,2.497314,0,4.077,0,0,0,0,nan,2,0.104,1,128,0.1000061,0.1000061,0.1000061,0.1000061,0,0,0,1,2,0
139.292,0.001011,0.05273438,0.0859375,0.02734375,0.9375,-1.359375,10.47656,0.00390625,0.0078125,0.009765625,-0.01757812,-0.05859375,0,-0.02075195,-0.0002441406,-2.692139,0,0,2.497314,0,4.077,0,0,0,0,nan,2,0.114,1,128,0.1000061,0.1000061,0.1000061,0.1000061,0,0,0,1,2,0
139.302,0.001007,-0.08007812,-0.05664062,-0.04492188,-1.085938,0.0390625,9.453125,-0.009765625,-0.0078125,-0.01171875,-0.01757812,-0.05859375,0,-0.02075195,-0.0001220703,-2.692139,0,0,2.497314,0,4.077,0,0,0,0,nan,2,0.124,1,128,0.1000061,0.1000061,0.1000061,0.1000061,0,0,0,1,2,0.3650794
139.312,0.001013,0.08203125,0.046875,0.05664062,0.5234375,-1.664062,11.11719,0.0078125,0.0078125,0.01171875,-0.01757812,-0.05859375,0,-0.02075195,-0.0001220703,-2.692139,0,0,2.497314,0,4.077,0,0,0,0,nan,2,0.134,1,128,0.1000061,0.1000061,0.1000061,0.1000061,0,0,0,1,2,0
139.323,0.00101,-0.09570312,-0.02148438,-0.0546875,0.1953125,0.828125,8.75,-0.009765625,-0.0078125,-0.009765625,-0.01757812,-0.05859375,0,-0.02075195,-0.0001220703,-2.692139,0,0,2.497314,0,4.077,0,0,0,0,nan,2,0.144,1,128,0.1000061,0.1000061,0.1000061,0.1000061,0,0,0,1,2,0
139.333,0.00101,0.08789062,0.015625,0.06054688,-0.34375,-0.2734375,11.39062,0.001953125,0.01171875,0.0078125,-0.01757812,-0.05859375,0,-0.02087402,-0.0001220703,-2.692139,0,0,2.497314,0,4.077,0,0,0,0,nan,2,0.155,1,128,0.1000061,0.1000061,0.1000061,0.1000061,0,0,0,1,2,0
139.343,0.00105,-0.08789062,-0.01367188,-0.046875,0.859375,0.1640625,8.25,-0.009765625,-0.01171875,-0.001953125,-0.01757812,-0.05859375,0,-0.02075195,-0.0001220703,-2.692139,0,0,2.497314,0,4.077,0,0,0,0,nan,2,0.165,1,128,0.1000061,0.1000061,0.1000061,0.1000061,0,0,0,1,2,0
139.353,0.00101,0.05859375,-0.04882812,0.05859375,-1.765625,-1.40625,9.054688,0.02148438,-0.005859375,0.015625,-0.01757812,-0.05859375,0,-0.02075195,-0.0001220703,-2.692017,0,0,2.497314,0,4.077,0,0,0,0,nan,2,0.175,1,128,0.1000061,0.1000061,0.1000061,0.1000061,0,0,0,1,2,0.03174603
139.363,0.00101,-0.0546875,0.0546875,-0.06835938,1.421875,0.9140625,10.44531,-0.01757812,0,-0.009765625,-0.01757812,-0.05859375,0,-0.02075195,-0.0002441406,-2.692017,0,0,2.497314,0,4.077,0,0,0,0,nan,2,0.185,1,128,0.1000061,0.1000061,0.1000061,0.1000061,0,0,0,1,2,0
139.372,0.00101,0.06835938,0.00390625,0.03125,-0.6484375,0.0390625,10.625,0.01367188,0.01171875,-0.005859375,-0.01757812,-0.05859375,0,-0.02075195,-0.0001220703,-2.692017,0,0,2.497314,0,4.077,0,0,0,0,nan,2,0.194,1,128,0.1000061,0.1000061,0.1000061,0.1000061,0,0,0,1,2,0
139.382,0.001011,-0.05664062,-0.005859375,-0.0234375,0.578125,0.171875,9.117188,-0.01171875,-0.009765625,0.005859375,-0.01757812,-0.05859375,0,-0.02075195,-0.0002441406,-2.692017,0,0,2.497314,0,4.077,0,0,0,0,nan,2,0.204,1,128,0.1000061,0.1000061,0.1000061,0.1000061,0,0,0,1,2,0
139.392,0.00101,0.04882812,0.0078125,0.0234375,-0.4453125,-0.1015625,9.820312,0.015625,0.009765625,-0.005859375,-0.01757812,-0.05859375,0,-0.02062988,-0.0002441406,-2.692017,0,0,2.497314,0,4.077,0,0,0,0,nan,2,0.214,1,128,0.1000061,0.1000061,0.1000061,0.1000061,0,0,0,1,2,0.8095238
139.403,0.001059,-0.03515625,-0.0234375,-0.02539062,0.1953125,0.7734375,9.820312,-0.015625,-0.005859375,0.00390625,-0.01757812,-0.05859375,0,-0.02062988,-0.0002441406,-2.692017,0,0,2.497314,0,4.077,0,0,0,0,nan,2,0.004,1,128,0.1000061,0.1000061,0.1000061,0.1000061,0,0,0,1,2,0.8730159
139.413,0.00102,0.0234375,0.02734375,0.0234375,0.53125,-0.4296875,9.609375,0.01367188,0.009765625,-0.001953125,-0.01757812,-0.05859375,0,-0.02062988,-0.0002441406,-2.692017,0,0,2.497314,0,4.077,0,0,0,0,nan,2,0.014,1,128,0.1000061,0.1000061,0.1000061,0.1000061,0,0,0,1,2,0.6190476
139.422,0.000998,-0.01757812,-0.0390625,-0.03125,-0.3125,1.03125,10.61719,-0.015625,-0.005859375,-0.001953125,-0.01757812,-0.05859375,0,-0.02062988,-0.0001220703,-2.692017,0,0,2.497314,0,4.077,0,0,0,0,nan,2,0.024,1,128,0.1000061,0.1000061,0.1000061,0.1000061,0,0,0,1,2,0
139.433,0.00102,0.02148438,0.02929688,0.0390625,0.3671875,-0.734375,9.054688,0.01757812,0,0.009765625,-0.01757812,-0.05859375,0,-0.02062988,-0.0001220703,-2.692017,0,0,2.497314,0,4.077,0,0,0,0,nan,2,0.034,1,128,0.1000061,0.1000061,0.1000061,0.1000061,0,0,0,1,2,0
139.443,0.001028,-0.01171875,-0.02929688,-0.0625,-0.21875,1.710938,11.21875,-0.01757812,0,-0.01757812,-0.01757812,-0.05859375,0,-0.02062988,-0.0001220703,-2.692017,0,0,2.497314,0,4.077,0,0,0,0,nan,2,0.044,1,128,0.1000061,0.1000061,0.1000061,0.1000061,0,0,0,1,2,0
139.453,0.000989,-0.05664062,0.04296875,0,0.6171875,0.2578125,8.125,-0.009765625,0.009765625,0.01367188,-0.01757812,-0.05859375,0,-0.02062988,-0.0001220703,-2.692017,0,0,-2.692017,0,4.077,0,0,0,0,nan,2,0.055,0,0,0,0,0,0,0,0,0,1,2,0
139.463,0.001017,0.05664062,-0.05859375,0.005859375,-0.59375,0.5234375,11.34375,-0.001953125,-0.0078125,-0.01953125,-0.01757812,-0.05859375,0,-0.02062988,-0.0001220703,-2.692139,0,0,-2.692139,0,4.077,0,0,0,0,nan,2,0.065,0,0,0,0,0,0,0,0,0,1,2,0
139.472,0.001017,0.005859375,0.02539062,0.09570312,-0.1875,-1.359375,9.71875,0.005859375,-0.001953125,0.02539062,-0.01757812,-0.05859375,0,-0.02062988,-0.0001220703,-2.692017,0,0,-2.692017,0,4.077,0,0,0,0,nan,2,0.074,0,0,0,0,0,0,0,0,0,1,2,1
139.482,0.00101,-0.0234375,-0.01171875,-0.1210938,0.640625,-0.2421875,9.367188,-0.009765625,0.00390625,-0.02148438,-0.01757812,-0.05859375,0,-0.02062988,-0.0001220703,-2.692017,0,0,-2.692017,0,4.077,0,0,0,0,nan,2,0.084,0,0,0,0,0,0,0,0,0,1,2,1
139.492,0.001011,-0.00390625,-0.0078125,0.1015625,-0.4765625,-0.421875,11.10156,0.001953125,-0.005859375,0.001953125,-0.01757812,-0.05859375,0,-0.02062988,-0.0002441406,-2.692139,0,0,-2.692139,0,4.077,0,0,0,0,nan,2,0.094,0,0,0,0,0,0,0,0,0,1,2,0
139.502,0.001007,0.009765625,0.0078125,-0.001953125,-0.2109375,-0.4765625,7.632812,0,0.005859375,0.02734375,-0.01757812,-0.05859375,0,-0.02062988,-0.0001220703,-2.692017,0,0,-2.692017,0,4.077,0,0,0,0,nan,2,0.104,0,0,0,0,0,0,0,0,0,1,2,0
139.512,0.001045,0.005859375,-0.009765625,-0.09960938,-0.109375,0.3125,11.50781,0.00390625,0,-0.03125,-0.01757812,-0.05859375,0,-0.02062988,-0.0002441406,-2.692017,0,0,-2.692017,0,4.077,0,0,0,0,nan,2,0.114,0,0,0,0,0,0,0,0,0,1,2,0
139.522,0.00101,-0.03515625,0.015625,0.09570312,0.1953125,-0.3671875,10.20312,-0.005859375,0.001953125,0.001953125,-0.01757812,-0.05859375,0,-0.02050781,-0.0002441406,-2.692139,0,0,-2.692139,0,4.077,0,0,0,0,nan,2,0.124,0,0,0,0,0,0,0,0,0,1,2,1
139.533,0.000971,0.01757812,-0.00390625,0.03710938,0.0078125,0.515625,7.820312,-0.001953125,0.005859375,0.03125,-0.01757812,-0.05859375,0,-0.02050781,-0.0002441406,-2.692017,0,0,-2.692017,0,4.077,0,0,0,0,nan,2,0.134,0,0,0,0,0,0,0,0,0,1,2,0
139.543,0.000993,0.02734375,-0.02539062,-0.1015625,-0.40625,-0.59375,11.0625,0.005859375,-0.0078125,-0.01367188,-0.01757812,-0.05859375,0,-0.02050781,-0.0002441406,-2.692017,0,0,-2.692017,0,4.077,0,0,0,0,nan,2,0.144,0,0,0,0,0,0,0,0,0,1,2,0
139.553,0.001043,-0.02539062,0.01171875,0.05664062,0.5546875,-0.0625,9.4375,-0.001953125,0.00390625,0.00390625,-0.01757812,-0.05859375,0,-0.02038574,-0.0002441406,-2.692017,0,0,-2.692017,0,4.077,0,0,0,0,nan,2,0.155,0,0,0,0,0,0,0,0,0,1,2,1
139.562,0.001028,-0.03125,0.009765625,0.08203125,0.9140625,-0.6875,9.25,-0.001953125,0.001953125,0.009765625,-0.01757812,-0.05859375,0,-0.02026367,-0.0002441406,-2.692017,0,0,-2.692017,0,4.077,0,0,0,0,nan,2,0.164,0,0,0,0,0,0,0,0,0,1,2,1
139.572,0.000954,-0.005859375,0.0234375,0.02929688,0.3984375,0.640625,9.09375,-0.005859375,0.009765625,0.0234375,-0.01757812,-0.05859375,0,-0.02026367,-0.0002441406,-2.691895,0,0,-2.691895,0,4.077,0,0,0,0,nan,2,0.174,0,0,0,0,0,0,0,0,0,1,2,1
139.582,0.001011,0.00390625,-0.01953125,-0.07226562,-0.15625,1.085938,9.929688,-0.00390625,0,-0.001953125,-0.01757812,-0.05859375,0,-0.0201416,-0.0002441406,-2.691895,0,0,-2.691895,0,4.077,0,0,0,0,nan,2,0.184,0,0,0,0,0,0,0,0,0,1,2,1
139.592,0.001015,0.001953125,-0.02148438,-0.06835938,0.3359375,0.4140625,10.60156,-0.00390625,-0.00390625,-0.0234375,-0.01757812,-0.05859375,0,-0.02001953,-0.0003662109,-2.692017,0,0,-2.692017,0,4.077,0,0,0,0,nan,2,0.194,0,0,0,0,0,0,0,0,0,1,2,1
139.602,0.001007,0.00390625,0.009765625,0.005859375,0.140625,0.0703125,10.25,-0.001953125,0,-0.015625,-0.01757812,-0.05859375,0,-0.01989746,-0.0003662109,-2.692017,0,0,-2.692017,0,4.077,0,0,0,0,nan,2,0.204,0,0,0,0,0,0,0,0,0,1,2,1
139.612,0.001008,0.01171875,0.009765625,0.03710938,0.1328125,-0.46875,10.34375,0.00390625,0.0078125,0,-0.01757812,-0.05859375,0,-0.01977539,-0.0003662109,-2.692017,0,0,-2.692017,0,4.077,0,0,0,0,nan,2,0.214,0,0,0,0,0,0,0,0,0,1,2,1
139.623,0.000965,0.01953125,-0.02734375,0.00390625,0.125,-0.0859375,10,0.00390625,0,-0.001953125,-0.01757812,-0.05859375,0,-0.01977539,-0.0003662109,-2.692017,0,0,-2.692017,0,4.077,0,0,0,0,nan,2,0.224,0,0,0,0,0,0,0,0,0,1,2,1
139.633,0.001015,0.0078125,-0.03710938,-0.015625,-0.296875,0.046875,9.515625,0.00390625,-0.00390625,-0.01367188,-0.01757812,-0.05859375,0,-0.01965332,-0.0003662109,-2.692017,0,0,-2.692017,0,4.077,0,0,0,0,nan,2,0.234,0,0,0,0,0,0,0,0,0,1,2,1
139.643,0.001031,-0.01171875,-0.046875,0.01367188,-0.4609375,0.1796875,9.742188,0.001953125,-0.009765625,-0.01953125,-0.01757812,-0.05859375,0,-0.01953125,-0.0003662109,-2.692017,0,0,-2.692017,0,4.077,0,0,0,0,nan,2,0.001,0,0,0,0,0,0,0,0,0,1,2,1
139.653,0.001009,-0.01757812,-0.009765625,0.09375,-0.546875,-0.0390625,9.78125,-0.00390625,-0.00390625,-0.001953125,-0.01757812,-0.05859375,0,-0.01940918,-0.0004882812,-2.692017,0,0,-2.692017,0,4.077,0,0,0,0,nan,2,0.011,0,0,0,0,0,0,0,0,0,1,2,1
139.663,0.001009,-0.01367188,-0.0078125,0.0703125,-0.34375,-0.4375,9.367188,0,-0.005859375,0.015625,-0.01757812,-0.05859375,0,-0.01928711,-0.0004882812,-2.692017,0,0,-2.692017,0,4.077,0,0,0,0,nan,2,0.021,0,0,0,0,0,0,0,0,0,1,2,1
139.673,0.001009,-0.02539062,-0.005859375,0.03515625,-0.28125,-0.578125,9.578125,0.001953125,-0.001953125,0.0078125,-0.01757812,-0.05859375,0,-0.01916504,-0.0004882812,-2.692017,0,0,-2.692017,0,4.077,0,0,0,0,nan,2,0.031,0,0,0,0,0,0,0,0,0,1,2,1
139.682,0.001011,0.00390625,0,0.00390625,0.0390625,-0.59375,10.32031,0.009765625,0,-0.005859375,-0.01757812,-0.05859375,0,-0.01904297,-0.0004882812,-2.692017,0,0,-2.692017,0,4.077,0,0,0,0,nan,2,0.04,0,0,0,0,0,0,0,0,0,1,2,1
139.692,0.001005,0.001953125,0.01367188,-0.001953125,-0.140625,-0.6015625,9.960938,0.009765625,0.001953125,-0.005859375,-0.01757812,-0.05859375,0,-0.01904297,-0.0004882812,-2.692017,0,0,-2.692017,0,4.077,0,0,0,0,nan,2,0.05,0,0,0,0,0,0,0,0,0,1,2,1
139.702,0.001007,0.0078125,0.015625,0.015625,0.1484375,-0.71875,9.898438,0.0078125,0.001953125,0.005859375,-0.01757812,-0.05859375,0,-0.0189209,-0.0004882812,-2.692017,0,0,-2.692017,0,4.077,0,0,0,0,nan,2,0.061,0,0,0,0,0,0,0,0,0,1,2,1
139.712,0.001023,0.015625,0.005859375,0.04101562,-0.3203125,-0.5859375,10.03906,0.005859375,0.001953125,0.0234375,-0.01757812,-0.05859375,0,-0.01879883,-0.0004882812,-2.692017,0,0,-2.692017,0,4.077,0,0,0,0,nan,2,0.071,0,0,0,0,0,0,0,0,0,1,2,1
139.722,0.001009,0.02539062,-0.00390625,0.0546875,-0.484375,-0.125,9.703125,0.00390625,-0.001953125,0.02734375,-0.01757812,-0.05859375,0,-0.01867676,-0.0004882812,-2.692017,0,0,-2.692017,0,4.077,0,0,0,0,nan,2,0.081,0,0,0,0,0,0,0,0,0,1,2,1
139.733,0.001022,0.001953125,-0.01171875,0.05078125,-0.2734375,-0.0234375,9.578125,-0.00390625,0,0.02148438,-0.01757812,-0.05859375,0,-0.01867676,-0.0004882812,-2.692017,0,0,-2.692017,0,4.077,0,0,0,0,nan,2,0.091,0,0,0,0,0,0,0,0,0,1,2,1
139.743,0.001011,-0.015625,-0.015625,0.03320312,-0.1875,0.5,9.617188,-0.005859375,0.001953125,0.005859375,-0.01757812,-0.05859375,0,-0.01855469,-0.0004882812,-2.692017,0,0,-2.692017,0,4.077,0,0,0,0,nan,2,0.101,0,0,0,0,0,0,0,0,0,1,2,1
139.753,0.001011,-0.0234375,-0.0078125,0.005859375,0.28125,-0.6171875,9.960938,0,0.00390625,-0.001953125,-0.01757812,-0.05859375,0,-0.01843262,-0.0004882812,-2.692017,0,0,-2.692017,0,4.077,0,0,0,0,nan,2,0.111,0,0,0,0,0,0,0,0,0,1,2,1
139.763,0.001011,0.0078125,0.01953125,-0.009765625,0.0078125,-0.6796875,9.9375,0.009765625,0.005859375,0.001953125,-0.01757812,-0.05859375,0,-0.01831055,-0.0004882812,-2.692017,0,0,-2.692017,0,4.077,0,0,0,0,nan,2,0.121,0,0,0,0,0,0,0,0,0,1,2,1
139.773,0.001011,0.00390625,0.005859375,-0.02539062,0.234375,-0.4765625,9.59375,0.00390625,-0.00390625,0.0078125,-0.01757812,-0.05859375,0,-0.01818848,-0.0004882812,-2.692017,0,0,-2.692017,0,4.077,0,0,0,0,nan,2,0.131,0,0,0,0,0,0,0,0,0,1,2,1
139.782,0.001009,-0.0078125,-0.01953125,0.015625,-0.203125,-0.15625,9.625,-0.001953125,-0.00390625,0.015625,-0.01757812,-0.05859375,0,-0.01818848,-0.0006103516,-2.692017,0,0,-2.692017,0,4.077,0,0,0,0,nan,2,0.14,0,0,0,0,0,0,0,0,0,1,2,1
139.792,0.001019,-0.00390625,0.02539062,0.001953125,0.1875,0.1328125,9.976562,-0.001953125,0.005859375,0.00390625,-0.01757812,-0.05859375,0,-0.01806641,-0.0006103516,-2.692017,0,0,-2.692017,0,4.077,0,0,0,0,nan,2,0.15,0,0,0,0,0,0,0,0,0,1,2,1
139.802,0.001006,0.009765625,0.005859375,-0.015625,0,-0.21875,9.726562,0.00390625,-0.001953125,-0.001953125,-0.01757812,-0.05859375,0,-0.01794434,-0.0006103516,-2.692017,0,0,-2.692017,0,4.077,0,0,0,0,nan,2,0.161,0,0,0,0,0,0,0,0,0,1,2,1
139.812,0.00101,0.00390625,0.001953125,-0.00390625,-0.296875,-0.3203125,9.976562,0,-0.00390625,0.0078125,-0.01757812,-0.05859375,0,-0.01782227,-0.0006103516,-2.692017,0,0,-2.692017,0,4.077,0,0,0,0,nan,2,0.171,0,0,0,0,0,0,0,0,0,1,2,1
139.823,0.001055,0.001953125,0,0.009765625,0.25,-0.09375,9.71875,0,0,0.01171875,-0.01757812,-0.05859375,0,-0.0177002,-0.0006103516,-2.692017,0,0,-2.692017,0,4.077,0,0,0,0,nan,2,0.181,0,0,0,0,0,0,0,0,0,1,2,1
139.833,0.001027,0.00390625,0.00390625,-0.0078125,0.3515625,-0.2265625,9.875,0.001953125,0.001953125,0.001953125,-0.01757812,-0.05859375,0,-0.01757812,-0.0007324219,-2.692017,0,0,-2.692017,0,4.077,0,0,0,0,nan,2,0.191,0,0,0,0,0,0,0,0,0,1,2,1
139.843,0.001022,0,-0.001953125,-0.02929688,-0.109375,0.5078125,9.835938,-0.001953125,-0.001953125,-0.00390625,-0.01757812,-0.05859375,0,-0.01757812,-0.0007324219,-2.692017,0,0,-2.692017,0,4.077,0,0,0,0,nan,2,0,0,0,0,0,0,0,0,0,0,1,2,1
139.853,0.000982,-0.005859375,-0.005859375,-0.01953125,-0.28125,0.1328125,9.828125,0.001953125,-0.001953125,0,-0.01757812,-0.05859375,0,-0.01745605,-0.0007324219,-2.692017,0,0,-2.692017,0,4.077,0,0,0,0,nan,2,0.01,0,0,0,0,0,0,0,0,0,1,2,1
139.862,0.001022,0.01171875,-0.00390625,-0.00390625,0.2109375,-0.4765625,9.703125,0.005859375,0.001953125,0,-0.01757812,-0.05859375,0,-0.01733398,-0.0007324219,-2.692017,0,0,-2.692017,0,4.077,0,0,0,0,nan,2,0.019,0,0,0,0,0,0,0,0,0,1,2,1
139.872,0.00101,-0.009765625,-0.009765625,-0.01953125,0.3046875,0.4140625,9.773438,-0.0078125,0,-0.005859375,-0.01757812,-0.05859375,0,-0.01721191,-0.0007324219,-2.692017,0,0,-2.692017,0,4.077,0,0,0,0,nan,2,0.029,0,0,0,0,0,0,0,0,0,1,2,1
139.882,0.000994,-0.001953125,-0.015625,-0.0234375,-0.046875,-0.03125,9.828125,0.001953125,-0.005859375,0.00390625,-0.01757812,-0.05859375,0,-0.01721191,-0.0007324219,-2.692017,0,0,-2.692017,0,4.077,0,0,0,0,nan,2,0.039,0,0,0,0,0,0,0,0,0,1,2,1
139.892,0.001026,0.009765625,-0.001953125,-0.009765625,0.1640625,-0.1328125,9.945312,0.001953125,0,-0.00390625,-0.01757812,-0.05859375,0,-0.01708984,-0.0008544922,-2.692017,0,0,-2.692017,0,4.077,0,0,0,0,nan,2,0.049,0,0,0,0,0,0,0,0,0,1,2,1
139.902,0.001032,-0.01171875,0.00390625,-0.03125,-0.234375,0.1953125,10.03906,-0.005859375,-0.001953125,-0.0078125,-0.01757812,-0.05859375,0,-0.01696777,-0.0008544922,-2.692017,0,0,-2.692017,0,4.077,0,0,0,0,nan,2,0.06,0,0,0,0,0,0,0,0,0,1,2,1
139.912,0.000977,0.005859375,-0.00390625,0.001953125,0.328125,-0.5234375,9.8125,0.009765625,0,0.005859375,-0.01757812,-0.05859375,0,-0.0168457,-0.0008544922,-2.692017,0,0,-2.692017,0,4.077,0,0,0,0,nan,2,0.07,0,0,0,0,0,0,0,0,0,1,2,1
139.922,0.001011,0.001953125,0.001953125,-0.015625,0.1875,0.75,9.898438,-0.005859375,0.001953125,-0.01171875,-0.01757812,-0.05859375,0,-0.0168457,-0.0008544922,-2.692017,0,0,-2.692017,0,4.077,0,0,0,0,nan,2,0.08,0,0,0,0,0,0,0,0,0,1,2,1
139.933,0.00101,-0.01171875,0,-0.015625,0.125,-0.3515625,10.28906,0.00390625,0.001953125,0.001953125,-0.01757812,-0.05859375,0,-0.01660156,-0.0008544922,-2.692017,0,0,-2.692017,0,4.077,0,0,0,0,nan,2,0.09,0,0,0,0,0,0,0,0,0,1,2,1
139.943,0.00101,0.02929688,0.00390625,0,0.046875,0.21875,9.96875,0.005859375,0.001953125,-0.005859375,-0.01757812,-0.05859375,0,-0.01660156,-0.0008544922,-2.692139,0,0,-2.692139,0,4.077,0,0,0,0,nan,2,0.1,0,0,0,0,0,0,0,0,0,1,2,1
139.953,0.00101,-0.03125,-0.0078125,-0.03320312,0.109375,0.171875,9.820312,-0.009765625,-0.001953125,-0.0078125,-0.01757812,-0.05859375,0,-0.01647949,-0.0008544922,-2.692017,0,0,-2.692017,0,4.077,0,0,0,0,nan,2,0.11,0,0,0,0,0,0,0,0,0,1,2,1
139.963,0.00101,0.03125,0.00390625,0.0234375,0.125,-0.6328125,10.08594,0.01953125,0.00390625,0.0078125,-0.01757812,-0.05859375,0,-0.01623535,-0.0008544922,-2.692017,0,0,-2.692017,0,4.077,0,0,0,0,nan,2,0.12,0,0,0,0,0,0,0,0,0,1,2,1
139.973,0.00101,-0.001953125,0.00390625,-0.02539062,0.3203125,1.046875,9.804688,-0.01367188,0.001953125,-0.01367188,-0.01757812,-0.05859375,0,-0.01635742,-0.0009765625,-2.692017,0,0,-2.692017,0,4.077,0,0,0,0,nan,2,0.13,0,0,0,0,0,0,0,0,0,1,2,1
139.982,0.00101,0.01367188,-0.02539062,0.02734375,0.1953125,-0.75,9.796875,0.01757812,-0.00390625,0.01171875,-0.01757812,-0.05859375,0,-0.01611328,-0.0009765625,-2.692017,0,0,-2.692017,0,4.077,0,0,0,0,nan,2,0.139,0,0,0,0,0,0,0,0,0,1,2,1
139.992,0.001009,-0.009765625,-0.0078125,-0.03125,0.4140625,0.8984375,9.875,-0.015625,0,-0.01953125,-0.01757812,-0.05859375,0,-0.01611328,-0.0009765625,-2.692017,0,0,-2.692017,0,4.077,0,0,0,0,nan,2,0.149,0,0,0,0,0,0,0,0,0,1,2,1
140.002,0.001007,0.00390625,-0.0234375,0.0234375,0.015625,-1.15625,9.65625,0.01367188,-0.0078125,0.01757812,-0.01757812,-0.05859375,0,-0.01586914,-0.0009765625,-2.692017,0,0,-2.692017,0,4.077,0,0,0,0,nan,2,0.16,0,0,0,0,0,0,0,0,0,1,2,1
140.012,0.00101,-0.00390625,0.0078125,-0.02929688,0.46875,0.9453125,9.8125,-0.01367188,0.005859375,-0.0234375,-0.01757812,-0.05859375,0,-0.01599121,-0.0009765625,-2.692017,0,0,-2.692017,0,4.077,0,0,0,0,nan,2,0.17,0,0,0,0,0,0,0,0,0,1,2,1
140.022,0.000984,-0.009765625,-0.03125,0.02929688,0.0703125,-1.140625,9.789062,0.009765625,-0.01171875,0.01953125,-0.01757812,-0.05859375,0,-0.01574707,-0.001098633,-2.692017,0,0,-2.692017,0,4.077,0,0,0,0,nan,2,0.18,0,0,0,0,0,0,0,0,0,1,2,1
140.033,0.001,0.00390625,0.01757812,-0.02929688,0.375,1.09375,9.59375,-0.01367188,0.009765625,-0.0234375,-0.01757812,-0.05859375,0,-0.01586914,-0.0009765625,-2.692017,0,0,-2.692017,0,4.077,0,0,0,0,nan,2,0.19,0,0,0,0,0,0,0,0,0,1,2,1
140.043,0.001016,-0.00390625,-0.0390625,0.03515625,-0.1796875,-0.84375,9.679688,0.01367188,-0.015625,0.02148438,-0.01757812,-0.05859375,0,-0.01550293,-0.001098633,-2.692017,0,0,-2.692017,0,4.077,0,0,0,0,nan,2,0.2,0,0,0,0,0,0,0,0,0,1,2,1
140.053,0.000956,0.00390625,0.02929688,-0.03125,0.1875,0.7890625,10.03125,-0.0078125,0.015625,-0.01953125,-0.01757812,-0.05859375,0,-0.015625,-0.001098633,-2.692017,0,0,-2.692017,0,4.077,0,0,0,0,nan,2,0.009,0,0,0,0,0,0,0,0,0,1,2,1
140.063,0.00101,-0.0078125,-0.04296875,0.03710938,-0.328125,-0.796875,9.757812,0.01171875,-0.01953125,0.0234375,-0.01757812,-0.05859375,0,-0.01538086,-0.001220703,-2.692017,0,0,-2.692017,0,4.077,0,0,0,0,nan,2,0.019,0,0,0,0,0,0,0,0,0,1,2,1
140.073,0.00101,0.001953125,0.03320312,-0.0390625,0.34375,0.6171875,9.984375,-0.01171875,0.01757812,-0.02148438,-0.01757812,-0.05859375,0,-0.01550293,-0.001098633,-2.691895,0,0,-2.691895,0,4.077,0,0,0,0,nan,2,0.029,0,0,0,0,0,0,0,0,0,1,2,1
140.082,0.00101,0.009765625,-0.04296875,0.04296875,0.046875,-0.640625,9.796875,0.01367188,-0.01367188,0.0078125,-0.01757812,-0.05859375,0,-0.01525879,-0.001220703,-2.692139,0,0,-2.692139,0,4.077,0,0,0,0,nan,2,0.038,0,0,0,0,0,0,0,0,0,1,2,1
140.092,0.001014,-0.009765625,0.04296875,-0.01953125,-0.2578125,0.546875,9.882812,-0.015625,0.0078125,0.001953125,-0.01757812,-0.05859375,0,-0.01538086,-0.001098633,-2.691895,0,0,-2.691895,0,4.077,0,0,0,0,nan,2,0.048,0,0,0,0,0,0,0,0,0,1,2,1
140.102,0.001013,0.01757812,-0.0234375,0.0234375,0.5546875,0.0703125,9.789062,0.01367188,0.00390625,-0.0078125,-0.01757812,-0.05859375,0,-0.01513672,-0.001098633,-2.692139,0,0,-2.692139,0,4.077,0,0,0,0,nan,2,0.059,0,0,0,0,0,0,0,0,0,1,2,1
140.112,0.001013,-0.01171875,0.0234375,0,-0.8125,-0.0703125,9.570312,-0.005859375,-0.005859375,0.01757812,-0.01757812,-0.05859375,0,-0.01513672,-0.001220703,-2.691895,0,0,-2.691895,0,4.077,0,0,0,0,nan,2,0.069,0,0,0,0,0,0,0,0,0,1,2,1
140.122,0.001012,-0.001953125,-0.0234375,-0.009765625,1.328125,0.3125,9.804688,-0.001953125,0.015625,-0.0234375,-0.01757812,-0.05859375,0,-0.01501465,-0.0009765625,-2.692017,0,0,-2.692017,0,4.077,0,0,0,0,nan,2,0.079,0,0,0,0,0,0,0,0,0,1,2,1
140.133,0.00101,0.005859375,-0.009765625,0.03320312,-1.289062,-0.6328125,9.703125,0.005859375,-0.02539062,0.0234375,-0.01757812,-0.05859375,0,-0.01489258,-0.001342773,-2.692017,0,0,-2.692017,0,4.077,0,0,0,0,nan,2,0.089,0,0,0,0,0,0,0,0,0,1,2,1
140.143,0.00101,-0.009765625,0.03320312,-0.02929688,0.921875,0.46875,10.16406,-0.0078125,0.03125,-0.01953125,-0.01757812,-0.05859375,0,-0.01489258,-0.0009765625,-2.692017,0,0,-2.692017,0,4.077,0,0,0,0,nan,2,0.099,0,0,0,0,0,0,0,0,0,1,2,1
140.153,0.00101,0.01367188,-0.04492188,0.03515625,-0.7734375,0.203125,9.390625,0.0078125,-0.02539062,0.009765625,-0.01757812,-0.05859375,0,-0.01477051,-0.001220703,-2.692017,0,0,-2.692017,0,4.077,0,0,0,0,nan,2,0.109,0,0,0,0,0,0,0,0,0,1,2,1
140.163,0.00101,-0.0234375,0.03125,-0.015625,0.3515625,-0.4453125,10.14844,-0.005859375,0.015625,0.001953125,-0.01757812,-0.05859375,0,-0.01464844,-0.001098633,-2.692017,0,0,-2.692017,0,4.077,0,0,0,0,nan,2,0.119,0,0,0,0,0,0,0,0,0,1,2,1
140.173,0.00101,0.02148438,-0.001953125,0.01171875,-0.2109375,0.8359375,10.03906,0.001953125,-0.0078125,-0.001953125,-0.01757812,-0.05859375,0,-0.01452637,-0.001220703,-2.692017,0,0,-2.692017,0,4.077,0,0,0,0,nan,2,0.129,0,0,0,0,0,0,0,0,0,1,2,1
140.182,0.00101,0.02148438,0.0390625,0,-0.484375,-0.03125,9.789062,0.01367188,-0.001953125,0.0078125,-0.01757812,-0.05859375,0,-0.0144043,-0.001220703,-2.692017,0,0,-2.692017,0,4.077,0,0,0,0,nan,2,0.138,0,0,0,0,0,0,0,0,0,1,2,1
140.192,0.001006,0.00390625,0.01757812,-0.00390625,0.1953125,0.671875,9.875,-0.009765625,0.01367188,-0.005859375,-0.01757812,-0.05859375,0,-0.0144043,-0.001220703,-2.692017,0,0,-2.692017,0,4.077,0,0,0,0,nan,2,0.148,0,0,0,0,0,0,0,0,0,1,2,1
140.202,0.001007,0.01171875,-0.01757812,0.00390625,0.15625,-0.5546875,9.609375,0.009765625,-0.0078125,0.005859375,-0.01757812,-0.05859375,0,-0.01428223,-0.001220703,-2.692017,0,0,-2.692017,0,4.077,0,0,0,0,nan,2,0.159,0,0,0,0,0,0,0,0,0,1,2,1
140.212,0.001005,-0.0078125,0.01367188,-0.01171875,0.1328125,-0.2890625,10.14844,-0.005859375,0,-0.009765625,-0.01757812,-0.05859375,0,-0.01428223,-0.001342773,-2.692017,0,0,-2.692017,0,4.077,0,0,0,0,nan,2,0.169,0,0,0,0,0,0,0,0,0,1,2,1
140.222,0.001009,0.009765625,0.01171875,0.01953125,0.0859375,-0.0625,10.01562,0.00390625,0.001953125,0.01171875,-0.01757812,-0.05859375,0,-0.01416016,-0.001220703,-2.692017,0,0,-2.692017,0,4.077,0,0,0,0,nan,2,0.179,0,0,0,0,0,0,0,0,0,1,2,1
140.233,0.00101,0.00390625,0.009765625,-0.01171875,-0.0859375,0.2109375,10.01562,-0.001953125,0,-0.001953125,-0.01757812,-0.05859375,0,-0.01403809,-0.001342773,-2.692017,0,0,-2.692017,0,4.077,0,0,0,0,nan,2,0.189,0,0,0,0,0,0,0,0,0,1,2,1
140.243,0.0009860001,0.01953125,0.03320312,-0.015625,0.1875,-0.0078125,10.09375,0.00390625,0,-0.01367188,-0.01757812,-0.05859375,0,-0.01391602,-0.001342773,-2.692017,0,0,-2.692017,0,4.077,0,0,0,0,nan,2,0.199,0,0,0,0,0,0,0,0,0,1,2,1
140.253,0.000968,-0.0078125,-0.015625,0.0234375,0.1875,0.15625,9.359375,-0.00390625,0,0.01757812,-0.01757812,-0.05859375,0,-0.01391602,-0.001342773,-2.692017,0,0,-2.692017,0,4.077,0,0,0,0,nan,2,0.004,0,0,0,0,0,0,0,0,0,1,2,1
140.262,0.000883,0.0078125,0,-0.01953125,0.0546875,-0.1171875,9.867188,0.001953125,0.001953125,-0.001953125,-0.01757812,-0.05859375,0,-0.01391602,-0.001342773,-2.692017,0,0,-2.692017,0,4.077,0,0,0,0,nan,2,0.013,0,0,0,0,0,0,0,0,0,1,2,1
140.272,0.00101,0.0078125,0.015625,-0.001953125,-0.15625,0.1328125,9.703125,0.00390625,0.001953125,-0.01367188,-0.01757812,-0.05859375,0,-0.01379395,-0.001464844,-2.692139,0,0,-2.692139,0,4.077,0,0,0,0,nan,2,0.023,0,0,0,0,0,0,0,0,0,1,2,1
140.282,0.001008,0,0.0078125,0.02734375,-0.09375,0.15625,9.882812,-0.001953125,0.0078125,0.01757812,-0.01757812,-0.05859375,0,-0.01367188,-0.001342773,-2.692017,0,0,-2.692017,0,4.077,0,0,0,0,nan,2,0.034,0,0,0,0,0,0,0,0,0,1,2,1
140.292,0.001006,-0.00390625,-0.02929688,-0.01171875,0.2890625,-0.2890625,9.507812,0.001953125,-0.001953125,0,-0.01757812,-0.05859375,0,-0.01367188,-0.001342773,-2.691895,0,0,-2.691895,0,4.077,0,0,0,0,nan,2,0.044,0,0,0,0,0,0,0,0,0,1,2,1
140.302,0.00101,-0.001953125,-0.0078125,-0.005859375,-0.1015625,-0.2109375,9.867188,0,-0.001953125,-0.01171875,-0.01757812,-0.05859375,0,-0.0135498,-0.001342773,-2.692017,0,0,-2.692017,0,4.077,0,0,0,0,nan,2,0.054,0,0,0,0,0,0,0,0,0,1,2,1
140.313,0.00101,0.001953125,-0.001953125,0.01367188,0.40625,0.109375,9.976562,0,-0.001953125,0.0078125,-0.01757812,-0.05859375,0,-0.01342773,-0.001464844,-2.692017,0,0,-2.692017,0,4.077,0,0,0,0,nan,2,0.064,0,0,0,0,0,0,0,0,0,1,2,1
140.323,0.00101,0.005859375,0.01953125,-0.005859375,-0.2109375,0.265625,9.9375,0,0.00390625,0,-0.01757812,-0.05859375,0,-0.01342773,-0.001464844,-2.692017,0,0,-2.692017,0,4.077,0,0,0,0,nan,2,0.074,0,0,0,0,0,0,0,0,0,1,2,1
140.333,0.00101,-0.00390625,-0.02148438,0,0.375,-0.2890625,9.664062,0,-0.001953125,-0.00390625,-0.01757812,-0.05859375,0,-0.01330566,-0.001464844,-2.692017,0,0,-2.692017,0,4.077,0,0,0,0,nan,2,0.084,0,0,0,0,0,0,0,0,0,1,2,1
140.343,0.00101,-0.001953125,0.00390625,-0.001953125,0,0.015625,9.859375,0,0.001953125,-0.001953125,-0.01757812,-0.05859375,0,-0.01330566,-0.001464844,-2.692017,0,0,-2.692017,0,4.077,0,0,0,0,nan,2,0.094,0,0,0,0,0,0,0,0,0,1,2,1
140.353,0.00101,0.00390625,0.009765625,-0.005859375,0.4453125,0.078125,9.90625,0,0.001953125,-0.00390625,-0.01757812,-0.05859375,0,-0.01318359,-0.001464844,-2.692017,0,0,-2.692017,0,4.077,0,0,0,0,nan,2,0.104,0,0,0,0,0,0,0,0,0,1,2,1
140.362,0.00101,-0.00390625,0.0078125,0,-0.046875,-0.0546875,9.890625,-0.00390625,-0.00390625,0.00390625,-0.01757812,-0.05859375,0,-0.01318359,-0.001464844,-2.692017,0,0,-2.692017,0,4.077,0,0,0,0,nan,2,0.113,0,0,0,0,0,0,0,0,0,1,2,1
140.372,0.00101,0,0.02929688,-0.00390625,-0.15625,0.34375,10.10156,-0.00390625,0.005859375,0,-0.01757812,-0.05859375,0,-0.01306152,-0.001464844,-2.692017,0,0,-2.692017,0,4.077,0,0,0,0,nan,2,0.123,0,0,0,0,0,0,0,0,0,1,2,1
140.382,0.001013,0,0.0078125,-0.00390625,0.015625,0.140625,9.828125,-0.001953125,0.00390625,-0.001953125,-0.01757812,-0.05859375,0,-0.01306152,-0.001464844,-2.692017,0,0,-2.692017,0,4.077,0,0,0,0,nan,2,0.134,0,0,0,0,0,0,0,0,0,1,2,1
140.392,0.001011,-0.00390625,0.005859375,-0.005859375,-0.15625,-0.0078125,9.84375,-0.001953125,0.001953125,-0.00390625,-0.01757812,-0.05859375,0,-0.01293945,-0.001464844,-2.692017,0,0,-2.692017,0,4.077,0,0,0,0,nan,2,0.144,0,0,0,0,0,0,0,0,0,1,2,1
140.402,0.001006,-0.01171875,-0.01953125,0,-0.015625,-0.296875,9.523438,-0.00390625,-0.00390625,0.001953125,-0.01757812,-0.05859375,0,-0.01293945,-0.001586914,-2.692017,0,0,-2.692017,0,4.077,0,0,0,0,nan,2,0.154,0,0,0,0,0,0,0,0,0,1,2,1
140.412,0.00101,-0.015625,-0.01953125,0,0.390625,-0.359375,9.585938,-0.00390625,-0.005859375,0.001953125,-0.01757812,-0.05859375,0,-0.01281738,-0.001586914,-2.692017,0,0,-2.692017,0,4.077,0,0,0,0,nan,2,0.164,0,0,0,0,0,0,0,0,0,1,2,1
140.423,0.001024,0,0.02148438,-0.001953125,-0.0859375,0.046875,10.33594,-0.001953125,0.001953125,0.001953125,-0.01757812,-0.05859375,0,-0.01281738,-0.001586914,-2.692017,0,0,-2.692017,0,4.077,0,0,0,0,nan,2,0.174,0,0,0,0,0,0,0,0,0,1,2,1
140.433,0.00101,0,0.00390625,0,-0.09375,0.0078125,9.882812,0,-0.001953125,-0.001953125,-0.01757812,-0.05859375,0,-0.01269531,-0.001586914,-2.692017,0,0,-2.692017,0,4.077,0,0,0,0,nan,2,0.184,0,0,0,0,0,0,0,0,0,1,2,1
140.443,0.00097,-0.001953125,0.001953125,0.005859375,-0.25,0.09375,9.90625,0.001953125,0.001953125,-0.001953125,-0.01757812,-0.05859375,0,-0.01257324,-0.001586914,-2.692017,0,0,-2.692017,0,4.077,0,0,0,0,nan,2,0.194,0,0,0,0,0,0,0,0,0,1,2,1
