t,dt_s,gyro_x,gyro_y,gyro_z,acc_x,acc_y,acc_z,rates.x,rates.y,rates.z,ratesTarget.x,ratesTarget.y,ratesTarget.z,attitude.x,attitude.y,attitude.z,attitudeTarget.x,attitudeTarget.y,attitudeTarget.z,thrustTarget,battery_v,rc_roll,rc_pitch,rc_yaw,rc_throttle,rc_mode,flight_mode,rc_age_s,armed,fault_mask,motor_rl,motor_rr,motor_fr,motor_fl,rate_i_x,rate_i_y,rate_i_z,mix_scale,control_source,accel_correction_confidence
601.465,0.001013,0.390625,0.3945312,2.996094,-10.86719,-2.023438,-3.359375,0.1074219,0.02539062,2.990234,-0.04492188,-0.09375,3.029297,0.007446289,0.015625,-3.074341,0,0,-3.074341,0.4915771,3.718,0,0,-0.5787354,0.5150146,nan,2,0.039,1,128,0.4147644,0.5131531,0.5327759,0.5056152,0.0009765625,-0.009765625,0,1,2,0
601.475,0.001018,0.359375,-0.1152344,3.027344,3.601562,-0.6796875,29.25781,0.005859375,-0.08007812,3.007812,-0.046875,-0.09179688,3.029297,0.00769043,0.01513672,-3.043945,0,0,-3.043945,0.4915771,3.718,0,0,-0.5787354,0.5150146,nan,2,0.049,1,128,0.485321,0.4987793,0.5037231,0.4784851,0.0009765625,-0.009765625,0,1,2,0
601.485,0.00101,0.1230469,-0.296875,2.992188,14.53906,0.34375,-3.195312,-0.05859375,-0.06054688,3,-0.046875,-0.08789062,3.029297,0.00769043,0.01477051,-3.013672,0,0,-3.013672,0.4915771,3.718,0,0,-0.5787354,0.5150146,nan,2,0.06,1,128,0.4824524,0.4961548,0.4796448,0.5080566,0.0009765625,-0.009765625,0,1,2,0
601.494,0.00101,-0.4863281,-0.21875,3.037109,3.0625,4.789062,7.148438,-0.140625,-0.0234375,3.005859,-0.04492188,-0.08789062,3.029297,0.007568359,0.01452637,-2.98645,0,0,-2.98645,0.4915771,3.718,0,0,-0.5787354,0.5150146,nan,2,0.069,1,128,0.5088196,0.4546204,0.4797974,0.5231018,0.0009765625,-0.009765625,0,1,2,0
601.504,0.001018,-0.3378906,-0.1152344,3,5.820312,-1.75,-7.570312,-0.1816406,0.005859375,3.011719,-0.0390625,-0.08398438,3.029297,0.006591797,0.01416016,-2.955933,0,0,-2.955933,0.4915771,3.718,0,0,-0.5787354,0.5150146,nan,2,0.079,1,128,0.4866943,0.4605713,0.4805908,0.5384521,0.0009765625,-0.009765625,0,1,2,0.3333333
601.514,0.00101,-0.2441406,0.005859375,3.013672,0.625,-10.21094,13.17188,-0.1015625,-0.001953125,3.023438,-0.03320312,-0.08203125,3.029297,0.005615234,0.01367188,-2.925537,0,0,-2.925537,0.4915771,3.718,0,0,-0.5787354,0.5150146,nan,2,0.089,1,128,0.478241,0.4678955,0.5115662,0.5086365,0.0009765625,-0.009765625,0,1,2,0
601.525,0.001044,-0.3535156,0.005859375,3.029297,4.046875,8.125,8.03125,-0.09765625,0.005859375,3.025391,-0.02929688,-0.08007812,3.029297,0.005004883,0.01330566,-2.894775,0,0,-2.894775,0.4915771,3.718,0,0,-0.5787354,0.5150146,nan,2,0.099,1,128,0.4781799,0.464447,0.5083618,0.5153198,0.0009765625,-0.009765625,0,1,2,0
601.535,0.001045,0.1464844,0.4257812,3.009766,-12.14844,2.335938,13.5,-0.03710938,0.0390625,3.013672,-0.02539062,-0.078125,2.839844,0.004272461,0.01306152,-2.86438,0,0,-2.86438,0.4915771,3.718,0,0,-0.5425415,0.5150146,nan,2,0.001,1,128,0.7944336,0.1307678,0.8790588,0.1620483,0.0009765625,-0.009765625,0,1,2,0
601.545,0.00101,0.3730469,0.06640625,2.835938,-2.320312,-5.320312,27.34375,-0.03125,-0.0078125,2.894531,-0.02148438,-0.078125,2.839844,0.003662109,0.01306152,-2.834595,0,0,-2.834595,0.4915771,3.718,0,0,-0.5425415,0.5150146,nan,2,0.011,1,128,0.3910522,0.5690918,0.4397888,0.5663757,0.001953125,-0.01074219,0,1,2,0
601.555,0.000983,0.01171875,-0.3125,2.894531,13.51562,0.890625,-11.6875,-0.078125,-0.03125,2.867188,-0.02148438,-0.078125,2.839844,0.003417969,0.01306152,-2.805664,0,0,-2.805664,0.4915771,3.718,0,0,-0.5425415,0.5150146,nan,2,0.021,1,128,0.511322,0.4682007,0.5021057,0.4846497,0.001953125,-0.01074219,0,1,2,0
601.565,0.001019,0.08984375,-0.2089844,2.861328,10.07031,-3.34375,-2.234375,0,-0.00390625,2.896484,-0.02148438,-0.078125,2.839844,0.003540039,0.01306152,-2.776611,0,0,-2.776611,0.4915771,3.641,0,0,-0.5425415,0.5150146,nan,2,0.031,1,128,0.5055847,0.4573059,0.5365295,0.4669189,0.001953125,-0.01074219,0,1,2,0
601.575,0.001021,-0.06835938,-0.00390625,2.902344,7.304688,8.304688,-12.21094,0.009765625,0.06640625,2.882812,-0.02539062,-0.08203125,2.839844,0.00402832,0.0135498,-2.747437,0,0,-2.747437,0.4915771,3.641,0,0,-0.5425415,0.5150146,nan,2,0.041,1,128,0.4874573,0.4498901,0.5341187,0.494873,0.001953125,-0.01074219,0,1,2,0
601.585,0.00099,0.1347656,0.2792969,2.603516,-8.890625,2.453125,34.17188,0.078125,0.07421875,2.744141,-0.02929688,-0.08398438,2.5,0.005004883,0.01391602,-2.71875,0,0,-2.71875,0.4873657,3.641,0,0,-0.477417,0.5100098,nan,2,0.009,1,128,0.410553,0.5110168,0.4873047,0.5405884,0.001953125,-0.01074219,0,1,2,0
601.594,0.000976,-0.01367188,0.05273438,2.636719,2.476562,2.039062,-9.5,0.06445312,0.08984375,2.613281,-0.03710938,-0.0859375,2.5,0.006103516,0.0144043,-2.694702,0,0,-2.694702,0.4873657,3.641,0,0,-0.477417,0.5100098,nan,2,0.018,1,128,0.405304,0.5191345,0.4591064,0.5659485,0.0009765625,-0.01074219,0,1,2,0.0952381
601.604,0.001011,-0.1074219,-0.0703125,2.691406,2.59375,8.085938,27.00781,0.07617188,0.0625,2.681641,-0.046875,-0.08984375,2.5,0.00769043,0.01513672,-2.667725,0,0,-2.667725,0.4873657,3.641,0,0,-0.477417,0.5100098,nan,2,0.028,1,128,0.5604553,0.3832092,0.5904541,0.4153442,0.0009765625,-0.01074219,0,1,2,0
601.614,0.00101,-0.07617188,-0.1757812,2.589844,10.40625,1.414062,-6.304688,-0.02929688,0.015625,2.626953,-0.05078125,-0.09375,2.5,0.008300781,0.01550293,-2.640991,0,0,-2.640991,0.4873657,3.641,0,0,-0.477417,0.5100098,nan,2,0.038,1,128,0.4726257,0.4832153,0.4717102,0.5219421,0.0009765625,-0.01074219,0,1,2,0
601.625,0.00103,-0.0546875,0.08398438,2.636719,-4.773438,-1.476562,-23.0625,-0.03515625,0.046875,2.621094,-0.05078125,-0.09375,2.5,0.008544922,0.015625,-2.614502,0,0,-2.614502,0.4873657,3.641,0,0,-0.477417,0.5100098,nan,2,0.048,1,128,0.50354,0.428009,0.5401001,0.4778442,0.0009765625,-0.01171875,0,1,2,0
601.634,0.001043,-0.06054688,-0.1132812,2.587891,7.109375,-1.460938,4.703125,0.015625,0.02539062,2.617188,-0.05273438,-0.09375,1.96875,0.008789062,0.015625,-2.590576,0,0,-2.590576,0.4073792,3.641,0,0,-0.3761597,0.414978,nan,2,0,1,128,0.8024292,0,0.8200073,0.007019043,0.0009765625,-0.01171875,0,0.339386,2,0
601.645,0.001019,-0.1816406,-0.05859375,2.242188,-4.078125,-1.109375,13.74219,0.05273438,0.0078125,2.390625,-0.05664062,-0.09179688,1.96875,0.009521484,0.01538086,-2.562134,0,0,-2.562134,0.4073792,3.641,0,0,-0.3761597,0.414978,nan,2,0.011,1,128,0.3336182,0.443573,0.3899536,0.4623413,0.0009765625,-0.01171875,0,1,2,0
601.655,0.000982,0.1484375,0.1015625,2.339844,-2.242188,-0.46875,30.78906,0.07226562,0.01953125,2.310547,-0.06054688,-0.09179688,1.96875,0.01025391,0.01525879,-2.539062,0,0,-2.539062,0.4073792,3.641,0,0,-0.3761597,0.414978,nan,2,0.021,1,128,0.4476318,0.3248596,0.5192871,0.337677,0.0009765625,-0.01171875,0,1,2,0
601.665,0.001009,0.01953125,0.1816406,2.224609,-6.03125,-0.4765625,39.14062,-0.02734375,-0.01757812,2.291016,-0.0625,-0.08789062,1.96875,0.01062012,0.01452637,-2.515747,0,0,-2.515747,0.4073792,3.641,0,0,-0.3761597,0.414978,nan,2,0.031,1,128,0.4291077,0.344635,0.463623,0.3921204,0.0009765625,-0.01171875,0,1,2,0
601.675,0.001013,0.06445312,0.0546875,2.267578,-1.71875,1.078125,26.08594,0.04101562,-0.07421875,2.248047,-0.06445312,-0.08203125,1.96875,0.01086426,0.0135498,-2.49292,0,0,-2.49292,0.4073792,3.641,0,0,-0.3761597,0.414978,nan,2,0.041,1,128,0.447876,0.3425903,0.4993896,0.3395996,0.0009765625,-0.01171875,0,1,2,0
601.684,0.000896,-0.1191406,-0.1523438,2.189453,0.6953125,0.5546875,-29.09375,-0.03515625,-0.1601562,2.208984,-0.06640625,-0.07226562,1.439453,0.0111084,0.01208496,-2.472168,0,0,-2.472168,0.3105164,3.641,0,0,-0.2749023,0.2999878,nan,2,0.002,1,128,0.6221924,0,0.6162415,0.003662109,0.0009765625,-0.01171875,0,0.3571777,2,0
601.694,0.00101,-0.1386719,-0.15625,1.898438,0.4453125,3.914062,27.04688,-0.04882812,-0.1425781,2.050781,-0.06640625,-0.06054688,1.439453,0.0111084,0.01025391,-2.450928,0,0,-2.450928,0.3105164,3.641,0,0,-0.2749023,0.2999878,nan,2,0.012,1,128,0.3565674,0.2451172,0.3661804,0.274231,0.0009765625,-0.01171875,0,1,2,0
601.704,0.00101,0.02148438,-0.1054688,1.919922,-1.90625,-1,12.04688,0.02734375,-0.1464844,1.916016,-0.06835938,-0.05078125,1.439453,0.01135254,0.008422852,-2.431274,0,0,-2.431274,0.3105164,3.641,0,0,-0.2749023,0.2999878,nan,2,0.022,1,128,0.3434753,0.2649536,0.376709,0.256958,0.0009765625,-0.01171875,0,1,2,0
601.714,0.00101,0.046875,-0.1074219,1.890625,-0.453125,-0.0078125,29.40625,0.01171875,-0.1796875,1.892578,-0.06835938,-0.0390625,1.439453,0.01123047,0.006469727,-2.411987,0,0,-2.411987,0.3105164,3.641,0,0,-0.2749023,0.2999878,nan,2,0.032,1,128,0.3978271,0.221344,0.4165344,0.2063904,0.0009765625,-0.01171875,0,1,2,0
601.725,0.001014,-0.1289062,-0.09375,1.792969,0.828125,-1.4375,17.94531,-0.01757812,-0.1445312,1.816406,-0.06835938,-0.02734375,1.439453,0.01147461,0.004516602,-2.393311,0,0,-2.393311,0.3105164,3.641,0,0,-0.2749023,0.2999878,nan,2,0.042,1,128,0.3490295,0.2538757,0.3632202,0.276001,0.0009765625,-0.01074219,0,1,2,0
601.735,0.001004,-0.1503906,-0.125,1.710938,-1.414062,1.34375,-0.1875,-0.005859375,-0.1582031,1.773438,-0.0703125,-0.015625,1.060547,0.01159668,0.002563477,-2.375244,0,0,-2.375244,0.2684326,3.641,0,0,-0.2025757,0.25,nan,2,0.004,1,128,0.5336914,0,0.5372314,0.002746582,0,-0.01074219,0,0.5534363,2,0
601.745,0.001037,0.2304688,-0.2441406,1.480469,2.492188,1.367188,39.08594,0.015625,-0.1757812,1.591797,-0.0703125,-0.00390625,1.060547,0.01159668,0.0007324219,-2.358154,0,0,-2.358154,0.2684326,3.641,0,0,-0.2025757,0.25,nan,2,0.014,1,128,0.2646179,0.27948,0.2733154,0.2562561,0,-0.01074219,0,1,2,0
601.755,0.00101,-0.2207031,-0.2382812,1.509766,1.109375,-1.523438,18.86719,-0.05664062,-0.15625,1.521484,-0.06835938,0.005859375,1.060547,0.01159668,-0.001098633,-2.342651,0,0,-2.342651,0.2684326,3.641,0,0,-0.2025757,0.25,nan,2,0.024,1,128,0.357605,0.1790771,0.3349915,0.2020264,0,-0.01074219,0,1,2,0
601.765,0.001012,-0.046875,-0.2949219,1.445312,6.460938,3.796875,-7.8125,0.046875,-0.1289062,1.470703,-0.07226562,0.01757812,1.060547,0.01196289,-0.002807617,-2.327515,0,0,-2.327515,0.2684326,3.641,0,0,-0.2025757,0.25,nan,2,0.034,1,128,0.3196106,0.2077332,0.346405,0.1999207,0,-0.01074219,0,1,2,0
601.774,0.00105,-0.1757812,-0.21875,1.427734,0.4609375,-3.90625,24.09375,-0.03515625,-0.1660156,1.4375,-0.07226562,0.02539062,1.060547,0.01196289,-0.004272461,-2.314209,0,0,-2.314209,0.2684326,3.641,0,0,-0.2025757,0.25,nan,2,0.043,1,128,0.3617859,0.1897888,0.3268433,0.1952515,0,-0.01074219,0,1,2,0
601.784,0.001008,0.0234375,0.02929688,1.369141,-0.28125,0.890625,-3.773438,-0.001953125,-0.06640625,1.378906,-0.0703125,0.03515625,1.060547,0.01171875,-0.005737305,-2.300171,0,0,-2.300171,0.2684326,3.641,0,0,-0.2025757,0.25,nan,2,0.054,1,128,0.295105,0.2095947,0.3430176,0.2259521,0,-0.009765625,-0.0009765625,1,2,0
601.795,0.001047,0.04296875,-0.1328125,1.419922,-0.0625,1.71875,18.13281,-0.05078125,-0.1230469,1.359375,-0.06640625,0.04296875,0.71875,0.0111084,-0.007080078,-2.286377,0,0,-2.286377,0.1715698,3.641,0,0,-0.1374512,0.1350098,nan,2,0,1,128,0.3430786,0.001525879,0.3417053,0,0,-0.009765625,-0.0009765625,0.2042236,2,0
601.804,0.001006,-0.1152344,-0.1210938,1.193359,0.0546875,1.023438,-16.32812,-0.0625,-0.09375,1.271484,-0.06445312,0.046875,0.71875,0.01062012,-0.00793457,-2.273071,0,0,-2.273071,0.1715698,3.641,0,0,-0.1374512,0.1350098,nan,2,0.01,1,128,0.3082581,0.0397644,0.2952271,0.0430603,0,-0.009765625,-0.0009765625,1,2,0
601.814,0.001015,-0.1601562,-0.1621094,1.121094,5.140625,0.0859375,11.39844,-0.1035156,-0.07617188,1.166016,-0.05859375,0.05273438,0.71875,0.009765625,-0.008789062,-2.260864,0,0,-2.260864,0.1715698,3.641,0,0,-0.1374512,0.1350098,nan,2,0.02,1,128,0.2254944,0.1182251,0.2051697,0.1374207,0,-0.009765625,-0.0009765625,1,2,0
601.824,0.00101,0,0.1171875,1.171875,-7.265625,-4.585938,17.74219,-0.05078125,-0.02929688,1.128906,-0.0546875,0.05664062,0.71875,0.009033203,-0.009277344,-2.24939,0,0,-2.24939,0.1715698,3.641,0,0,-0.1374512,0.1350098,nan,2,0.03,1,128,0.2650146,0.06069946,0.2875977,0.07299805,0,-0.009765625,-0.0009765625,1,2,0
601.835,0.001047,-0.09179688,-0.1054688,0.9765625,4.523438,3.421875,-6.210938,-0.07226562,-0.02734375,1.054688,-0.04882812,0.05859375,0.71875,0.008178711,-0.009887695,-2.238403,0,0,-2.238403,0.1715698,3.641,0,0,-0.1374512,0.1350098,nan,2,0.04,1,128,0.1929321,0.1374207,0.2008972,0.1550903,0,-0.009765625,-0.0009765625,1,2,0
601.845,0.001029,-0.1796875,-0.1464844,1.097656,7.921875,4.859375,3.796875,-0.05273438,-0.015625,1.052734,-0.04492188,0.06054688,0.71875,0.007446289,-0.01013184,-2.227783,0,0,-2.227783,0.1715698,3.641,0,0,-0.1374512,0.1350098,nan,2,0.05,1,128,0.2680664,0.06518555,0.2756042,0.0774231,0,-0.009765625,-0.0009765625,1,2,0
601.855,0.00101,0.02929688,0.1484375,0.953125,-6.953125,-3.40625,7,-0.08789062,-0.02929688,0.9589844,-0.0390625,0.0625,0,0.006469727,-0.01049805,-2.217529,0,0,-2.227783,0.1126404,3.641,0,0,0,0.06500244,nan,2,0.009,1,128,0.2216492,0,0.2233276,0.005554199,0,-0.009765625,-0.0009765625,0.2793884,2,0
601.865,0.000977,0.01953125,0.1679688,0.8574219,-0.75,-1.390625,-0.375,-0.0546875,0.02734375,0.8847656,-0.03320312,0.06445312,0,0.005615234,-0.01062012,-2.208496,0,0,-2.227783,0.1126404,3.641,0,0,0,0.06500244,nan,2,0.019,1,128,0.2121277,0,0.2266541,0.01174927,0,-0.009765625,-0.0009765625,0.4548645,2,0
601.875,0.001035,-0.05078125,0.04492188,0.6386719,1.914062,-2.429688,4.476562,-0.06835938,0.02148438,0.7753906,-0.02929688,0.06445312,0,0.004882812,-0.01062012,-2.200073,0,0,-2.227783,0.1126404,3.641,0,0,0,0.06500244,nan,2,0.029,1,128,0.2055664,0,0.2211914,0.02374268,0,-0.009765625,-0.0009765625,0.89328,2,0
601.885,0.001031,0.06835938,-0.03515625,0.7089844,2.125,-2.007812,4.984375,-0.046875,0.015625,0.703125,-0.02539062,0.06445312,0,0.004150391,-0.01062012,-2.192505,0,0,-2.227783,0.1126404,3.641,0,0,0,0.06500244,nan,2,0.039,1,128,0.2107544,0,0.2299194,0.009857178,0,-0.009765625,-0.0009765625,0.9372864,2,0
601.895,0.001006,0.1328125,-0.03710938,0.703125,4.601562,-3.015625,6.117188,-0.0078125,-0.0078125,0.6445312,-0.02148438,0.0625,0,0.003540039,-0.01049805,-2.185791,0,0,-2.227783,0.1126404,3.641,0,0,0,0.06500244,nan,2,0.049,1,128,0.2118835,0.01202393,0.2266235,0,0,-0.009765625,-0.0009765625,0.7164307,2,0
601.904,0.001011,0.2011719,-0.05664062,0.625,-3.09375,-2.328125,9.851562,-0.02539062,-0.02929688,0.5644531,-0.02148438,0.0625,0,0.003051758,-0.01049805,-2.180542,0,0,-2.227783,0,3.641,0,0,0,0,nan,2,0.007,1,128,0.1000061,0.1000061,0.1000061,0.1000061,0,0,0,1,2,0
601.914,0.00101,0.1269531,-0.06445312,0.6484375,-0.875,1.085938,4.007812,-0.02734375,-0.05273438,0.5820312,-0.02148438,0.0625,0,0.002685547,-0.01049805,-2.174805,0,0,-2.227783,0,3.641,0,0,0,0,nan,2,0.017,1,128,0.1000061,0.1000061,0.1000061,0.1000061,0,0,0,1,2,0
601.925,0.001013,-0.02148438,-0.1894531,0.6484375,3.828125,1.742188,-0.7578125,-0.01953125,-0.07617188,0.5996094,-0.02148438,0.0625,0,0.002319336,-0.01049805,-2.168823,0,0,-2.227783,0,3.641,0,0,0,0,nan,2,0.027,1,128,0.1000061,0.1000061,0.1000061,0.1000061,0,0,0,1,2,0
601.934,0.00101,0.09765625,-0.009765625,0.6796875,3.046875,-0.875,3.734375,0.0234375,-0.02734375,0.6113281,-0.02148438,0.0625,0,0.001953125,-0.01049805,-2.162842,0,0,-2.227783,0,3.641,0,0,0,0,nan,2,0.037,1,128,0.1000061,0.1000061,0.1000061,0.1000061,0,0,0,1,2,0
601.945,0.001027,0.4179688,0.2480469,0.6738281,-4.460938,-2.296875,5.679688,0.046875,-0.02539062,0.6210938,-0.02148438,0.0625,0,0.001586914,-0.01037598,-2.156738,0,0,-2.227783,0,3.641,0,0,0,0,nan,2,0.047,1,128,0.1000061,0.1000061,0.1000061,0.1000061,0,0,0,1,2,0
601.955,0.001014,0.1660156,-0.3105469,0.6679688,6.03125,4.78125,-4.0625,0.0078125,-0.08203125,0.6367188,-0.02148438,0.0625,0,0.001220703,-0.01025391,-2.150391,0,0,-2.227783,0,3.641,0,0,0,0,nan,2,0.005,1,128,0.1000061,0.1000061,0.1000061,0.1000061,0,0,0,1,2,0
601.965,0.001011,-0.1640625,0.2910156,0.6933594,0.9609375,-0.3203125,2.859375,0.07226562,0.005859375,0.6582031,-0.02148438,0.0625,0,0.001342773,-0.01025391,-2.143921,0,0,-2.227783,0,3.641,0,0,0,0,nan,2,0.015,1,128,0.1000061,0.1000061,0.1000061,0.1000061,0,0,0,1,2,0
601.975,0.001011,0.2714844,0.15625,0.6914062,-1.570312,4.265625,2.984375,0.06445312,-0.06054688,0.6660156,-0.02148438,0.0625,0,0.001220703,-0.01013184,-2.137207,0,0,-2.227783,0,3.641,0,0,0,0,nan,2,0.025,1,128,0.1000061,0.1000061,0.1000061,0.1000061,0,0,0,1,2,0
601.985,0.001013,0.2988281,-0.01953125,0.71875,0.0234375,-9.5625,2.570312,0.09570312,-0.02148438,0.6816406,-0.02148438,0.0625,0,0.001098633,-0.009765625,-2.130493,0,0,-2.227783,0,3.641,0,0,0,0,nan,2,0.035,1,128,0.1000061,0.1000061,0.1000061,0.1000061,0,0,0,1,2,0
601.995,0.001007,0.5195312,-0.8632812,0.671875,11.80469,8.375,-8.835938,0.07421875,-0.1425781,0.6875,-0.02148438,0.0625,0,0.001098633,-0.009521484,-2.123535,0,0,-2.227783,0,3.641,0,0,0,0,nan,2,0.045,1,128,0.1000061,0.1000061,0.1000061,0.1000061,0,0,0,1,2,0
602.005,0.00101,0.4296875,-0.3261719,0.703125,-1.648438,-4.460938,4.710938,0.03125,-0.03710938,0.7011719,-0.02148438,0.0625,0,0.001098633,-0.009155273,-2.116455,0,0,-2.227783,0,3.641,0,0,0,0,nan,2,0.056,1,128,0.1000061,0.1000061,0.1000061,0.1000061,0,0,0,1,2,0
602.014,0.00101,-0.453125,0.8652344,0.7382812,-13.53125,-5.445312,14.875,-0.06835938,0.1855469,0.7207031,-0.02148438,0.0625,0,0.001342773,-0.008789062,-2.109985,0,0,-2.227783,0,3.641,0,0,0,0,nan,2,0.065,1,128,0.1000061,0.1000061,0.1000061,0.1000061,0,0,0,1,2,0
602.024,0.001032,-0.3105469,0.9980469,0.7617188,-8.859375,-6.71875,12.0625,0.03125,0.2128906,0.7324219,-0.02148438,0.0625,0,0.001831055,-0.008422852,-2.102661,0,0,-2.227783,0,3.641,0,0,0,0,nan,2,0.075,1,128,0.1000061,0.1000061,0.1000061,0.1000061,0,0,0,1,2,0
602.034,0.00101,0.2226562,-0.04492188,0.75,7.523438,4.6875,0.328125,0.1972656,-0.02929688,0.734375,-0.02148438,0.0625,0,0.002441406,-0.008300781,-2.095337,0,0,-2.227783,0,3.641,0,0,0,0,nan,2,0.085,1,128,0.1000061,0.1000061,0.1000061,0.1000061,0,0,0,1,2,0
602.045,0.001009,0.4003906,-0.9648438,0.7285156,13.25781,5.203125,-8.382812,0.1972656,-0.171875,0.7460938,-0.02148438,0.0625,0,0.003173828,-0.00793457,-2.087769,0,0,-2.227783,0,3.641,0,0,0,0,nan,2,0.095,1,128,0.1000061,0.1000061,0.1000061,0.1000061,0,0,0,1,2,0
602.055,0.001037,0.2265625,-0.9804688,0.7402344,7.960938,5.882812,-12.28906,0.078125,-0.1347656,0.7578125,-0.02148438,0.0625,0,0.00390625,-0.007446289,-2.080078,0,0,-2.227783,0,3.641,0,0,0,0,nan,2,0.007,1,128,0.1000061,0.1000061,0.1000061,0.1000061,0,0,0,1,2,0
602.065,0.000994,0.6230469,-0.001953125,0.78125,-4.46875,-2.976562,9.304688,0.1386719,0.07226562,0.7695312,-0.02148438,0.0625,0,0.004882812,-0.007080078,-2.07251,0,0,-2.227783,0,3.641,0,0,0,0,nan,2,0.017,1,128,0.1000061,0.1000061,0.1000061,0.1000061,0,0,0,1,2,0
602.075,0.001008,0.1210938,0.8984375,0.7949219,-10.98438,-4.351562,14.6875,0.03710938,0.2617188,0.78125,-0.02148438,0.0625,0,0.006347656,-0.006591797,-2.064575,0,0,-2.227783,0,3.641,0,0,0,0,nan,2,0.027,1,128,0.1000061,0.1000061,0.1000061,0.1000061,0,0,0,1,2,0
602.085,0.001009,0.0546875,1.318359,0.7910156,-11.24219,-6.515625,15.10938,0.1289062,0.2441406,0.7773438,-0.02148438,0.0625,0,0.00769043,-0.005981445,-2.056763,0,0,-2.227783,0,3.641,0,0,0,0,nan,2,0.037,1,128,0.1000061,0.1000061,0.1000061,0.1000061,0,0,0,1,2,0
602.095,0.001009,0.6757812,0.640625,0.7773438,-2.796875,-4.929688,2.296875,0.2714844,0.0859375,0.7890625,-0.02148438,0.0625,0,0.009155273,-0.005249023,-2.048828,0,0,-2.227783,0,3.641,0,0,0,0,nan,2,0.047,1,128,0.1000061,0.1000061,0.1000061,0.1000061,0,0,0,1,2,0
602.105,0.00101,0.9335938,0.1308594,0.8105469,-3.34375,-2.34375,2.609375,0.2207031,0.1367188,0.8105469,-0.02148438,0.0625,0,0.01049805,-0.004150391,-2.040771,0,0,-2.227783,0,3.641,0,0,0,0,nan,2,0.058,1,128,0.1000061,0.1000061,0.1000061,0.1000061,0,0,0,1,2,0
602.114,0.00101,-0.2636719,0.6484375,0.8242188,-4.203125,1.242188,9.84375,0.02539062,0.125,0.8066406,-0.02148438,0.0625,0,0.01184082,-0.003417969,-2.033447,0,0,-2.227783,0,3.641,0,0,0,0,nan,2,0.067,1,128,0.1000061,0.1000061,0.1000061,0.1000061,0,0,0,1,2,0
602.124,0.00101,-0.06640625,0.02734375,0.8027344,5.460938,0.53125,-0.859375,0.125,-0.0546875,0.8085938,-0.02148438,0.0625,0,0.01330566,-0.002319336,-2.025269,0,0,-2.227783,0,3.641,0,0,0,0,nan,2,0.077,1,128,0.1000061,0.1000061,0.1000061,0.1000061,0,0,0,1,2,0
602.134,0.00101,0.15625,-0.7949219,0.8359375,10.28125,3.867188,-11.32812,0.1074219,-0.0859375,0.8183594,-0.02148438,0.0625,0,0.01452637,-0.001098633,-2.016968,0,0,-2.227783,0,3.641,0,0,0,0,nan,2,0.087,1,128,0.1000061,0.1000061,0.1000061,0.1000061,0,0,0,1,2,0
602.145,0.00101,-0.25,-0.4492188,0.8496094,1.953125,2.984375,-1.554688,0.015625,0.1015625,0.8144531,-0.02148438,0.0625,0,0.01574707,0.0001220703,-2.008789,0,0,-2.227783,0,3.641,0,0,0,0,nan,2,0.097,1,128,0.1000061,0.1000061,0.1000061,0.1000061,0,0,0,1,2,0
602.155,0.00101,-0.3808594,0.06445312,0.7753906,1.703125,0.3046875,2.25,0.08203125,0.1367188,0.8046875,-0.02148438,0.0625,0,0.01696777,0.001098633,-2.000488,0,0,-2.227783,0,3.641,0,0,0,0,nan,2,0.107,1,128,0.1000061,0.1000061,0.1000061,0.1000061,0,0,0,1,2,0
602.165,0.00101,-0.1679688,-0.3125,0.7617188,7.28125,-0.09375,-4.101562,0.1113281,0.08398438,0.8203125,-0.02148438,0.0625,0,0.01806641,0.002075195,-1.992188,0,0,-2.227783,0,3.641,0,0,0,0,nan,2,0.117,1,128,0.1000061,0.1000061,0.1000061,0.1000061,0,0,0,1,2,0
602.175,0.001012,1.261719,-1.646484,-0.7519531,12.75781,-8.328125,-37.77344,0.4199219,-1.626953,0.2460938,-0.02148438,0.0625,0,0.01257324,-0.003295898,-1.983398,0,0,-2.227783,0,3.641,0,0,0,0,nan,2,0.127,1,128,0.1000061,0.1000061,0.1000061,0.1000061,0,0,0,1,2,0
602.185,0.001007,1.621094,-0.6015625,-0.5,-11.30469,-4.375,-31.57031,1.568359,-0.890625,-0.4746094,-0.02148438,0.0625,0,0.02514648,-0.01330566,-1.986572,0,0,-2.227783,0,3.641,0,0,0,0,nan,2,0.137,1,128,0.1000061,0.1000061,0.1000061,0.1000061,0,0,0,1,2,0
602.195,0.001009,1.896484,0.1875,-0.5742188,-8.523438,0.96875,-21.91406,1.730469,-0.7441406,-0.5761719,-0.02148438,0.0625,0,0.0423584,-0.02185059,-1.99231,0,0,-2.227783,0,3.641,0,0,0,0,nan,2,0.147,1,128,0.1000061,0.1000061,0.1000061,0.1000061,0,0,0,1,2,0
602.204,0.00103,1.591797,-1.537109,-0.5566406,2.46875,1.382812,-12.40625,1.703125,-0.859375,-0.5839844,-0.02148438,0.0625,0,0.05822754,-0.02868652,-1.997925,0,0,-2.227783,0,3.641,0,0,0,0,nan,2,0.157,1,128,0.1000061,0.1000061,0.1000061,0.1000061,0,0,0,1,2,0
602.214,0.00101,1.597656,-0.9765625,-0.6171875,-2.015625,-1.71875,-2.132812,1.769531,-0.6933594,-0.5820312,-0.02148438,0.0625,0,0.07580566,-0.03613281,-2.004272,0,0,-2.227783,0,4.074,0,0,0,0,nan,2,0.167,1,128,0.1000061,0.1000061,0.1000061,0.1000061,0,0,0,1,2,0
602.224,0.001019,1.929688,-0.1972656,-0.5742188,-5.429688,-3.335938,0.1875,1.833984,-0.7285156,-0.546875,-0.02148438,0.0625,0,0.09399414,-0.04382324,-2.01062,0,0,-2.227783,0,4.074,0,0,0,0,nan,2,0.177,1,128,0.1000061,0.1000061,0.1000061,0.1000061,0,0,0,1,2,0
602.235,0.001031,1.902344,-0.7871094,-0.4355469,1.585938,3.46875,-0.421875,1.783203,-0.8554688,-0.5292969,-0.02148438,0.0625,0,0.1123047,-0.05126953,-2.016968,0,0,-2.227783,0,4.074,0,0,0,0,nan,2,0.006,1,128,0.1000061,0.1000061,0.1000061,0.1000061,0,0,0,1,2,0
602.245,0.001016,1.611328,-1.183594,-0.5625,3.609375,-0.3515625,-3.976562,1.769531,-0.8632812,-0.5507812,-0.02148438,0.0625,0,0.1309814,-0.05871582,-2.023315,0,0,-2.227783,0,4.074,0,0,0,0,nan,2,0.016,1,128,0.1000061,0.1000061,0.1000061,0.1000061,0,0,0,1,2,0
602.255,0.00101,1.8125,-0.9082031,-0.5742188,-0.0078125,-1.5625,-0.9765625,1.845703,-0.7714844,-0.5097656,-0.02148438,0.0625,0,0.1495361,-0.06616211,-2.029663,0,0,-2.227783,0,4.074,0,0,0,0,nan,2,0.026,1,128,0.1000061,0.1000061,0.1000061,0.1000061,0,0,0,1,2,0
602.265,0.00101,1.943359,-0.3808594,-0.3964844,-6.359375,-0.8203125,6.695312,1.837891,-0.7929688,-0.4785156,-0.02148438,0.0625,0,0.168457,-0.07385254,-2.036011,0,0,-2.227783,0,4.074,0,0,0,0,nan,2,0.036,1,128,0.1000061,0.1000061,0.1000061,0.1000061,0,0,0,1,2,0
602.275,0.001017,1.839844,-0.6054688,-0.4160156,-0.9296875,1.070312,4.484375,1.822266,-0.8984375,-0.4765625,-0.02148438,0.0625,0,0.1875,-0.08190918,-2.04248,0,0,-2.227783,0,4.074,0,0,0,0,nan,2,0.046,1,128,0.1000061,0.1000061,0.1000061,0.1000061,0,0,0,1,2,0
602.285,0.001003,1.771484,-1.416016,-0.5214844,6.796875,0.2265625,-10.60156,1.849609,-1,-0.46875,-0.02148438,0.0625,0,0.2069092,-0.08972168,-2.048828,0,0,-2.227783,0,4.074,0,0,0,0,nan,2,0.057,1,128,0.1000061,0.1000061,0.1000061,0.1000061,0,0,0,1,2,0
602.295,0.001047,1.949219,-0.9375,-0.4042969,-3.96875,-0.3828125,4.1875,1.873047,-0.8203125,-0.4316406,-0.02148438,0.0625,0,0.2261963,-0.09765625,-2.055298,0,0,-2.227783,0,4.074,0,0,0,0,nan,2,0.001,1,128,0.1000061,0.1000061,0.1000061,0.1000061,0,0,0,1,2,0
602.304,0.001044,1.785156,-0.9570312,-0.4511719,5.09375,-0.1328125,-2.6875,1.847656,-1.023438,-0.4394531,-0.02148438,0.0625,0,0.2437744,-0.1051025,-2.061157,0,0,-2.227783,0,4.074,0,0,0,0,nan,2,0.01,1,128,0.1000061,0.1000061,0.1000061,0.1000061,0,0,0,1,2,0
602.314,0.001014,1.900391,-1.357422,-0.4199219,1.351562,1.125,-2.375,1.888672,-0.9433594,-0.4101562,-0.02148438,0.0625,0,0.2633057,-0.112915,-2.067627,0,0,-2.227783,0,4.074,0,0,0,0,nan,2,0.02,1,128,0.1000061,0.1000061,0.1000061,0.1000061,0,0,0,1,2,0
602.324,0.00101,1.941406,-0.4179688,-0.3730469,-7.328125,-2.265625,12.14844,1.857422,-0.8261719,-0.3984375,-0.02148438,0.0625,0,0.2828369,-0.1210938,-2.074219,0,0,-2.227783,0,4.074,0,0,0,0,nan,2,0.03,1,128,0.1000061,0.1000061,0.1000061,0.1000061,0,0,0,1,2,0
602.334,0.00101,1.8125,-1.210938,-0.3945312,6.453125,2.476562,-7.007812,1.863281,-1.080078,-0.3886719,-0.02148438,0.0625,0,0.3026123,-0.1292725,-2.080811,0,0,-2.227783,0,4.074,0,0,0,0,nan,2,0.04,1,128,0.1000061,0.1000061,0.1000061,0.1000061,0,0,0,1,2,0
602.345,0.00101,1.996094,-1.226562,-0.3574219,-1.835938,-0.71875,5.976562,1.896484,-0.9042969,-0.3691406,-0.02148438,0.0625,0,0.3223877,-0.137085,-2.087402,0,0,-2.227783,0,4.074,0,0,0,0,nan,2,0.05,1,128,0.1000061,0.1000061,0.1000061,0.1000061,0,0,0,1,2,0
602.355,0.00101,1.851562,-0.4023438,-0.34375,-2.960938,-0.8828125,7.46875,1.869141,-0.9355469,-0.3574219,-0.02148438,0.0625,0,0.3424072,-0.1452637,-2.094238,0,0,-2.227783,0,4.074,0,0,0,0,nan,2,0.061,1,128,0.1000061,0.1000061,0.1000061,0.1000061,0,0,0,1,2,0
602.365,0.00101,1.890625,-1.589844,-0.3378906,6.226562,1.65625,-6.046875,1.904297,-1.080078,-0.3398438,-0.02148438,0.0625,0,0.3624268,-0.1530762,-2.100952,0,0,-2.227783,0,4.074,0,0,0,0,nan,2,0.071,1,128,0.1000061,0.1000061,0.1000061,0.1000061,0,0,0,1,2,0
602.375,0.000989,1.978516,-1.160156,-0.3183594,-2.585938,-0.234375,6.96875,1.902344,-0.9003906,-0.3242188,-0.02148438,0.0625,0,0.3825684,-0.1612549,-2.107788,0,0,-2.227783,0,4.074,0,0,0,0,nan,2,0.081,1,128,0.1000061,0.1000061,0.1000061,0.1000061,0,0,0,1,2,0
602.385,0.001021,1.839844,-0.4863281,-0.3007812,-1.375,0.0078125,3.90625,1.875,-0.9765625,-0.3085938,-0.02148438,0.0625,0,0.402832,-0.1693115,-2.114624,0,0,-2.227783,0,4.074,0,0,0,0,nan,2,0.091,1,128,0.1000061,0.1000061,0.1000061,0.1000061,0,0,0,1,2,0
602.395,0.00101,1.923828,-1.638672,-0.2890625,5.460938,1.945312,-5.101562,1.900391,-1.056641,-0.2949219,-0.02148438,0.0625,0,0.4230957,-0.177002,-2.12146,0,0,-2.227783,0,4.074,0,0,0,0,nan,2,0.101,1,128,0.1000061,0.1000061,0.1000061,0.1000061,0,0,0,1,2,0
602.405,0.00101,1.869141,-0.328125,-0.2773438,-9.171875,-1.289062,10.5,1.880859,-0.8339844,-0.28125,-0.02148438,0.0625,0,0.4433594,-0.1848145,-2.128296,0,0,-2.227783,0,4.074,0,0,0,0,nan,2,0.111,1,128,0.1000061,0.1000061,0.1000061,0.1000061,0,0,0,1,2,0
602.414,0.00101,1.896484,-1.710938,-0.2558594,6.054688,2.226562,-5.203125,1.884766,-1.089844,-0.265625,-0.02148438,0.0625,0,0.4616699,-0.1916504,-2.134521,0,0,-2.227783,0,4.074,0,0,0,0,nan,2,0.12,1,128,0.1000061,0.1000061,0.1000061,0.1000061,0,0,0,1,2,0
602.424,0.00101,1.828125,-0.3320312,-0.2460938,-9.476562,-1.5,10.01562,1.855469,-0.8574219,-0.2539062,-0.02148438,0.0625,0,0.4819336,-0.199585,-2.141602,0,0,-2.227783,0,4.074,0,0,0,0,nan,2,0.13,1,128,0.1000061,0.1000061,0.1000061,0.1000061,0,0,0,1,2,0
602.434,0.00101,1.855469,-1.509766,-0.2246094,8.421875,2.429688,-6.773438,1.847656,-1.197266,-0.2324219,-0.02148438,0.0625,0,0.5020752,-0.2075195,-2.148804,0,0,-2.227783,0,4.074,0,0,0,0,nan,2,0.14,1,128,0.1000061,0.1000061,0.1000061,0.1000061,0,0,0,1,2,0
602.445,0.00101,1.763672,-0.8359375,-0.2167969,-7.546875,-1.65625,10.03125,1.804688,-0.875,-0.2265625,-0.02148438,0.0625,0,0.5220947,-0.215332,-2.156006,0,0,-2.227783,0,4.074,0,0,0,0,nan,2,0.15,1,128,0.1000061,0.1000061,0.1000061,0.1000061,0,0,0,1,2,0
602.455,0.00101,1.794922,-0.9902344,-0.2265625,5.539062,1.414062,-2.476562,1.796875,-1.191406,-0.2167969,-0.02148438,0.0625,0,0.5418701,-0.2236328,-2.163696,0,0,-2.227783,0,4.074,0,0,0,0,nan,2,0.161,1,128,0.1000061,0.1000061,0.1000061,0.1000061,0,0,0,1,2,0
602.465,0.00101,1.746094,-1.478516,-0.1835938,-2.28125,-1.664062,3.570312,1.740234,-1.003906,-0.203125,-0.02148438,0.0625,0,0.5614014,-0.2314453,-2.171143,0,0,-2.227783,0,4.074,0,0,0,0,nan,2,0.171,1,128,0.1000061,0.1000061,0.1000061,0.1000061,0,0,0,1,2,0
602.475,0.001017,0.6953125,0.59375,-0.2480469,23.95312,34.55469,38.03125,1.488281,-0.703125,-0.2148438,-0.02148438,0.0625,0,0.5803223,-0.2390137,-2.178711,0,0,-2.227783,0,4.074,0,0,0,0,nan,2,0.181,1,128,0.1000061,0.1000061,0.1000061,0.1000061,0,0,0,1,2,0
602.485,0.001011,-11.8457,12.56055,-1.617188,15.61719,25.60938,30.75,-9.005859,9.125,-0.9570312,-0.02148438,0.0625,0,0.5286865,-0.1940918,-2.15625,0,0,-2.227783,0,4.074,0,0,0,0,nan,2,0.191,1,128,0.1000061,0.1000061,0.1000061,0.1000061,0,0,0,1,2,0
602.495,0.001033,-15.81445,16.91602,-2.181641,-5.632812,-1.8125,38.42969,-14.55664,15.84961,-2.09375,-0.02148438,0.0625,0,0.3984375,-0.06628418,-2.112305,0,0,-2.227783,0,4.074,0,0,0,0,nan,2,0.201,1,128,0.1000061,0.1000061,0.1000061,0.1000061,0,0,0,1,2,0
602.505,0.00101,-14.98047,16.37695,-2.476562,8.367188,9.132812,-38.34375,-15.35742,16.90234,-2.380859,-0.02148438,0.0625,0,0.2441406,0.1005859,-2.080933,0,0,-2.227783,0,4.074,0,0,0,0,nan,2,0.211,1,128,0.1000061,0.1000061,0.1000061,0.1000061,0,0,0,1,2,0
602.514,0.001013,-15.43945,16.1543,-2.248047,-23.94531,18.32812,38.51562,-14.80469,16.98633,-2.445312,-0.02148438,0.0625,0,0.1088867,0.2584229,-2.075439,0,0,-2.227783,0,4.074,0,0,0,0,nan,2,0.22,1,128,0.1000061,0.1000061,0.1000061,0.1000061,0,0,0,1,2,0
602.524,0.001013,-4.494141,-4.792969,1.017578,-23.85938,-13.10938,-37.64844,-8.111328,-0.4628906,-0.3867188,-0.02148438,0.0625,0,-0.02966309,0.3463135,-2.086548,0,0,-2.227783,0,4.074,0,0,0,0,nan,2,0.007,1,128,0.1000061,0.1000061,0.1000061,0.1000061,0,0,0,1,2,0
602.534,0.00101,-0.8457031,-6.53125,2.03125,9.03125,-14.80469,22.82812,-1.164062,-6.181641,1.8125,-0.02148438,0.0625,0,-0.05554199,0.2994385,-2.071655,0,0,-2.227783,0,4.074,0,0,0,0,nan,2,0.017,1,128,0.1000061,0.1000061,0.1000061,0.1000061,0,0,0,1,2,0
602.545,0.00101,0.2695312,-8.660156,1.8125,7.320312,9.320312,-20.59375,-0.1015625,-7.617188,1.873047,-0.02148438,0.0625,0,-0.05371094,0.2272949,-2.047485,0,0,-2.227783,0,4.074,0,0,0,0,nan,2,0.027,1,128,0.1000061,0.1000061,0.1000061,0.1000061,0,0,0,1,2,0
602.555,0.00101,0.078125,-7.761719,2.105469,-5.164062,0.109375,-15.16406,0.2519531,-7.638672,2.035156,-0.02148438,0.0625,0,-0.04760742,0.1507568,-2.023438,0,0,-2.227783,0,4.074,0,0,0,0,nan,2,0.037,1,128,0.1000061,0.1000061,0.1000061,0.1000061,0,0,0,1,2,0
602.565,0.001014,0.4726562,-7.474609,2.089844,5.195312,-1.773438,-11.78125,0.4179688,-7.761719,2.107422,-0.02148438,0.0625,0,-0.04052734,0.07385254,-1.998901,0,0,-2.227783,0,4.074,0,0,0,0,nan,2,0.047,1,128,0.1000061,0.1000061,0.1000061,0.1000061,0,0,0,1,2,0
602.575,0.001008,0.5292969,-8.273438,2.189453,0.8671875,0.140625,-11.375,0.5449219,-7.626953,2.113281,-0.02148438,0.0625,0,-0.03442383,-0.001708984,-1.974976,0,0,-2.227783,0,4.074,0,0,0,0,nan,2,0.058,1,128,0.1000061,0.1000061,0.1000061,0.1000061,0,0,0,1,2,0
602.585,0.001013,0.6347656,-7.027344,2.044922,-5.125,-1.195312,-0.265625,0.6542969,-7.533203,2.095703,-0.02148438,0.0625,0,-0.0291748,-0.07775879,-1.951294,0,0,-2.227783,0,4.074,0,0,0,0,nan,2,0.068,1,128,0.1000061,0.1000061,0.1000061,0.1000061,0,0,0,1,2,0
602.595,0.001006,0.8496094,-8.099609,2.203125,3.539062,-2.359375,-6.28125,0.7871094,-7.599609,2.121094,-0.02148438,0.0625,0,-0.02478027,-0.1531982,-1.927856,0,0,-2.227783,0,4.074,0,0,0,0,nan,2,0.078,1,128,0.1000061,0.1000061,0.1000061,0.1000061,0,0,0,1,2,0
602.605,0.000988,7.072266,0.5214844,1.945312,4.554688,-5.054688,39.29688,3.880859,-4.009766,2.083984,-0.02148438,0.0625,0,-0.01318359,-0.2205811,-1.904419,0,0,-2.227783,0,4.074,0,0,0,0,nan,2,0.088,1,128,0.1000061,0.1000061,0.1000061,0.1000061,0,0,0,1,2,0
602.614,0.00101,2.679688,9.574219,1.804688,6.007812,0.0078125,2.078125,4.332031,6.701172,1.828125,-0.02148438,0.0625,0,0.02697754,-0.1968994,-1.886108,0,0,-2.227783,0,4.074,0,0,0,0,nan,2,0.097,1,128,0.1000061,0.1000061,0.1000061,0.1000061,0,0,0,1,2,0
602.624,0.00101,2.392578,10.17383,1.804688,-3.273438,-0.5078125,8.28125,2.621094,9.576172,1.808594,-0.02148438,0.0625,0,0.05505371,-0.1087646,-1.86377,0,0,-2.227783,0,4.074,0,0,0,0,nan,2,0.107,1,128,0.1000061,0.1000061,0.1000061,0.1000061,0,0,0,1,2,0
602.634,0.00101,2.427734,9.460938,1.828125,5.953125,-1.578125,-9.5625,2.408203,9.841797,1.792969,-0.02148438,0.0625,0,0.07873535,-0.01159668,-1.838989,0,0,-2.227783,0,4.074,0,0,0,0,nan,2,0.117,1,128,0.1000061,0.1000061,0.1000061,0.1000061,0,0,0,1,2,0
602.645,0.00101,-6.582031,1.652344,1.326172,-20.24219,13.75781,28.01562,-2.914062,4.914062,1.589844,-0.02148438,0.0625,0,0.08618164,0.0703125,-1.814087,0,0,-2.227783,0,4.074,0,0,0,0,nan,2,0.127,1,128,0.1000061,0.1000061,0.1000061,0.1000061,0,0,0,1,2,0
602.655,0.00101,-9.064453,-1.558594,1.21875,3.664062,-0.09375,-6.710938,-8.486328,-0.7148438,1.236328,-0.02148438,0.0625,0,0.01989746,0.08081055,-1.799683,0,0,-2.227783,0,4.074,0,0,0,0,nan,2,0.137,1,128,0.1000061,0.1000061,0.1000061,0.1000061,0,0,0,1,2,0
602.665,0.00101,-4.587891,-4.900391,1.884766,-13.21875,-5.164062,31.50781,-6.630859,-3.179688,1.570312,-0.02148438,0.0625,0,-0.06054688,0.06359863,-1.785767,0,0,-2.227783,0,4.074,0,0,0,0,nan,2,0.147,1,128,0.1000061,0.1000061,0.1000061,0.1000061,0,0,0,1,2,0
602.675,0.001013,2.169922,-3.548828,2.324219,4.25,-3.554688,36.125,-0.7382812,-5.722656,2.216797,-0.02148438,0.0625,0,-0.09301758,0.008422852,-1.760986,0,0,-2.227783,0,4.074,0,0,0,0,nan,2,0.158,1,128,0.1000061,0.1000061,0.1000061,0.1000061,0,0,0,1,2,0
602.685,0.001008,4.71875,-2.15625,2.015625,-1.140625,0.9296875,9.625,3.925781,-2.15625,2.085938,-0.02148438,0.0625,0,-0.07043457,-0.02429199,-1.736328,0,0,-2.227783,0,4.074,0,0,0,0,nan,2,0.168,1,128,0.1000061,0.1000061,0.1000061,0.1000061,0,0,0,1,2,0
602.695,0.001006,4.583984,-1.179688,2.111328,-0.6796875,-1.046875,11.5,4.548828,-1.691406,2.064453,-0.02148438,0.0625,0,-0.02722168,-0.0423584,-1.714478,0,0,-2.227783,0,4.074,0,0,0,0,nan,2,0.178,1,128,0.1000061,0.1000061,0.1000061,0.1000061,0,0,0,1,2,0
602.705,0.00101,4.8125,-2.001953,2.007812,1.96875,2.664062,9.585938,4.677734,-1.546875,2.068359,-0.02148438,0.0625,0,0.01831055,-0.0579834,-1.693481,0,0,-2.227783,0,4.074,0,0,0,0,nan,2,0.188,1,128,0.1000061,0.1000061,0.1000061,0.1000061,0,0,0,1,2,0
602.714,0.001008,-1.355469,4.763672,1.513672,5.539062,7.9375,3.398438,0.7714844,2.195312,1.759766,-0.02148438,0.0625,0,0.04431152,-0.05761719,-1.675537,0,0,-2.227783,0,4.074,0,0,0,0,nan,2,0.197,1,128,0.1000061,0.1000061,0.1000061,0.1000061,0,0,0,1,2,0
602.724,0.000993,-2.154297,5.048828,1.351562,-4.882812,-0.0234375,3.570312,-1.865234,5.082031,1.396484,-0.02148438,0.0625,0,0.03210449,-0.01513672,-1.658691,0,0,-2.227783,0,4.074,0,0,0,0,nan,2,0.005,1,128,0.1000061,0.1000061,0.1000061,0.1000061,0,0,0,1,2,0
602.734,0.0009860001,-1.943359,4.886719,1.271484,-6.78125,-4.804688,39.28125,-2.117188,4.966797,1.332031,-0.02148438,0.0625,0,0.0111084,0.03601074,-1.643799,0,0,-2.227783,0,4.074,0,0,0,0,nan,2,0.015,1,128,0.1000061,0.1000061,0.1000061,0.1000061,0,0,0,1,2,0
602.745,0.00101,1.033203,-5.583984,0.25,-5.15625,-2,-15.49219,0.1347656,-3.261719,0.5410156,-0.02148438,0.0625,0,0.0006103516,0.04003906,-1.634155,0,0,-2.227783,0,4.074,0,0,0,0,nan,2,0.025,1,128,0.1000061,0.1000061,0.1000061,0.1000061,0,0,0,1,2,0
602.755,0.00101,0.9609375,0.9179688,0.4082031,8.171875,0.6640625,21.69531,1.505859,-2.255859,0.3554688,-0.02148438,0.0625,0,0.01159668,0.0002441406,-1.630615,0,0,-2.227783,0,4.074,0,0,0,0,nan,2,0.035,1,128,0.1000061,0.1000061,0.1000061,0.1000061,0,0,0,1,2,0
602.765,0.00101,-0.08398438,1.490234,0.6875,-3.1875,-0.578125,9.390625,0.2070312,1.373047,0.625,-0.02148438,0.0625,0,0.01916504,0.002685547,-1.625366,0,0,-2.227783,0,4.074,0,0,0,0,nan,2,0.045,1,128,0.1000061,0.1000061,0.1000061,0.1000061,0,0,0,1,2,0
602.775,0.000982,-0.1660156,2.376953,0.7050781,-5.421875,1.1875,12.44531,-0.078125,1.833984,0.7070312,-0.02148438,0.0625,0,0.01940918,0.01855469,-1.618164,0,0,-2.227783,0,4.074,0,0,0,0,nan,2,0.056,1,128,0.1000061,0.1000061,0.1000061,0.1000061,0,0,0,1,2,0
602.785,0.001017,-1.458984,-2.349609,0.6699219,5.492188,-5.21875,14.35156,-1.574219,-0.859375,0.6738281,-0.02148438,0.0625,0,0.009643555,0.02429199,-1.611084,0,0,-2.227783,0,4.074,0,0,0,0,nan,2,0.066,1,128,0.1000061,0.1000061,0.1000061,0.1000061,0,0,0,1,2,0
602.795,0.00101,0.4179688,0.1738281,0.1386719,-3.234375,4.648438,21.41406,0.9101562,-0.3339844,0.3222656,-0.02148438,0.0625,0,0.0111084,0.01647949,-1.605957,0,0,-2.227783,0,4.074,0,0,0,0,nan,2,0.076,1,128,0.1000061,0.1000061,0.1000061,0.1000061,0,0,0,1,2,0
602.805,0.00101,-0.4199219,0.3476562,-0.1054688,2.90625,-0.8828125,7.5625,-0.3769531,0.2949219,-0.04101562,-0.02148438,0.0625,0,0.01196289,0.01525879,-1.604736,0,0,-2.227783,0,4.074,0,0,0,0,nan,2,0.086,1,128,0.1000061,0.1000061,0.1000061,0.1000061,0,0,0,1,2,0
602.814,0.001014,0.1621094,-0.1914062,-0.0859375,-1.304688,1.5,13.89062,-0.1074219,0.140625,-0.09179688,-0.02148438,0.0625,0,0.009033203,0.01904297,-1.605713,0,0,-2.227783,0,4.074,0,0,0,0,nan,2,0.095,1,128,0.1000061,0.1000061,0.1000061,0.1000061,0,0,0,1,2,0
602.824,0.00101,-0.06640625,0.00390625,0.09179688,0.4765625,-1.492188,14.54688,0.1621094,-0.1621094,0.02734375,-0.02148438,0.0625,0,0.01086426,0.01696777,-1.605835,0,0,-2.227783,0,4.074,0,0,0,0,nan,2,0.105,1,128,0.1000061,0.1000061,0.1000061,0.1000061,0,0,0,1,2,0
602.834,0.00101,-0.1679688,0.1953125,-0.02929688,0.1328125,0.390625,8.734375,-0.1210938,0.1523438,0.03125,-0.02148438,0.0625,0,0.01025391,0.01745605,-1.605469,0,0,-2.227783,0,4.074,0,0,0,0,nan,2,0.115,1,128,0.1000061,0.1000061,0.1000061,0.1000061,0,0,0,1,2,0
602.845,0.00101,-0.06054688,-0.02539062,-0.005859375,-0.84375,0.4140625,13.90625,0.08789062,-0.1015625,-0.03710938,-0.02148438,0.0625,0,0.01086426,0.01696777,-1.605591,0,0,-2.227783,0,4.074,0,0,0,0,nan,2,0.125,1,128,0.1000061,0.1000061,0.1000061,0.1000061,0,0,0,1,2,0
602.855,0.001009,0.0546875,0.001953125,-0.05859375,0.234375,-0.765625,7.945312,-0.0234375,0.06445312,-0.015625,-0.02148438,0.0625,0,0.01037598,0.01733398,-1.605957,0,0,-2.227783,0,4.074,0,0,0,0,nan,2,0.135,1,128,0.1000061,0.1000061,0.1000061,0.1000061,0,0,0,1,2,0
602.865,0.001009,-0.09375,0.09960938,0.07617188,-1.125,0.0390625,12.44531,-0.01367188,0.015625,0,-0.02148438,0.0625,0,0.01062012,0.01708984,-1.605957,0,0,-2.227783,0,4.077,0,0,0,0,nan,2,0.145,1,128,0.1000061,0.1000061,0.1000061,0.1000061,0,0,0,1,2,0
602.875,0.00101,0.04492188,-0.0234375,-0.140625,0.65625,-0.8984375,9.835938,0.01757812,-0.01171875,-0.0390625,-0.02148438,0.0625,0,0.01049805,0.01721191,-1.606079,0,0,-2.227783,0,4.077,0,0,0,0,nan,2,0.156,1,128,0.1000061,0.1000061,0.1000061,0.1000061,0,0,0,1,2,0.6031746
602.885,0.001006,-0.00390625,-0.01757812,0.1269531,-0.734375,0.21875,9.710938,-0.01367188,0.01367188,0.01953125,-0.02148438,0.0625,0,0.01049805,0.01721191,-1.606079,0,0,-2.227783,0,4.077,0,0,0,0,nan,2,0.166,1,128,0.1000061,0.1000061,0.1000061,0.1000061,0,0,0,1,2,0.6984127
602.895,0.001011,-0.0234375,0.03710938,-0.109375,-0.0546875,-2.273438,10.57031,0.001953125,-0.005859375,-0.02148438,-0.02148438,0.0625,0,0.01049805,0.01721191,-1.606079,0,0,-2.227783,0,4.077,0,0,0,0,nan,2,0.176,1,128,0.1000061,0.1000061,0.1000061,0.1000061,0,0,0,1,2,0
602.905,0.001009,0,-0.04101562,0.09375,-0.109375,1.476562,9.101562,-0.00390625,0,0.015625,-0.02148438,0.0625,0,0.01049805,0.01721191,-1.606201,0,0,-2.227783,0,4.077,0,0,0,0,nan,2,0.186,1,128,0.1000061,0.1000061,0.1000061,0.1000061,0,0,0,1,2,0
602.914,0.001032,-0.02148438,0.009765625,-0.0625,-1.09375,-2.453125,9.148438,-0.001953125,-0.0078125,0,-0.02148438,0.0625,0,0.01049805,0.01708984,-1.606079,0,0,-2.227783,0,4.077,0,0,0,0,nan,2,0.195,1,128,0.1000061,0.1000061,0.1000061,0.1000061,0,0,0,1,2,0.3492064
602.924,0.00101,0.01953125,-0.015625,0.04882812,0.6484375,2.445312,9.890625,0.00390625,-0.001953125,0,-0.02148438,0.0625,0,0.01037598,0.01708984,-1.606201,0,0,-2.227783,0,4.077,0,0,0,0,nan,2,0.205,1,128,0.1000061,0.1000061,0.1000061,0.1000061,0,0,0,1,2,0.1587302
602.934,0.001009,-0.02148438,0.015625,-0.03710938,-1.851562,-3.0625,10.02344,-0.00390625,-0.001953125,-0.005859375,-0.02148438,0.0625,0,0.01049805,0.01708984,-1.606201,0,0,-2.227783,0,4.077,0,0,0,0,nan,2,0.215,1,128,0.1000061,0.1000061,0.1000061,0.1000061,0,0,0,1,2,0
602.945,0.001016,0.03710938,-0.04101562,0.01367188,2.054688,3.085938,9.414062,0.009765625,-0.0078125,0,-0.02148438,0.0625,0,0.01049805,0.01708984,-1.606201,0,0,-2.227783,0,4.077,0,0,0,0,nan,2,0.005,1,128,0.1000061,0.1000061,0.1000061,0.1000061,0,0,0,1,2,0.3333333
602.955,0.000976,-0.03320312,0.04101562,-0.001953125,-2.671875,-2.71875,10.66406,-0.00390625,0.01171875,-0.00390625,-0.02148438,0.0625,0,0.01062012,0.01696777,-1.606201,0,0,-2.227783,0,4.077,0,0,0,0,nan,2,0.015,1,128,0.1000061,0.1000061,0.1000061,0.1000061,0,0,0,1,2,0
602.965,0.00101,0.04492188,-0.06835938,-0.01953125,3.523438,2.15625,8.882812,0.0078125,-0.01757812,0.00390625,-0.02148438,0.0625,0,0.01049805,0.01696777,-1.606201,0,0,-2.227783,0,4.077,0,0,0,0,nan,2,0.025,1,128,0.1000061,0.1000061,0.1000061,0.1000061,0,0,0,1,2,0.968254
602.975,0.00101,-0.01757812,-0.009765625,0.04101562,-0.8984375,-1.554688,10.09375,-0.015625,0.009765625,0.0078125,-0.02148438,0.0625,0,0.01049805,0.01696777,-1.606201,0,0,-2.227783,0,4.077,0,0,0,0,nan,2,0.035,1,128,0.1000061,0.1000061,0.1000061,0.1000061,0,0,0,1,2,0.07936508
602.985,0.001014,0.005859375,0.01757812,-0.04882812,1.367188,1.617188,9.492188,0.01953125,-0.02148438,-0.0078125,-0.02148438,0.0625,0,0.01049805,0.01672363,-1.606201,0,0,-2.227783,0,4.077,0,0,0,0,nan,2,0.045,1,128,0.1000061,0.1000061,0.1000061,0.1000061,0,0,0,1,2,0.7936508
602.995,0.00101,0.009765625,-0.046875,0.06054688,-0.921875,-0.2421875,10.03906,-0.02148438,0.02148438,0.01171875,-0.02148438,0.0625,0,0.01049805,0.01672363,-1.606201,0,0,-2.227783,0,4.077,0,0,0,0,nan,2,0.056,1,128,0.1000061,0.1000061,0.1000061,0.1000061,0,0,0,1,2,0.3809524
603.005,0.001007,-0.03515625,0.08007812,-0.05078125,0.390625,1.039062,9.515625,0.015625,-0.015625,-0.0078125,-0.02148438,0.0625,0,0.01049805,0.01647949,-1.606201,0,0,-2.227783,0,4.077,0,0,0,0,nan,2,0.066,1,128,0.1000061,0.1000061,0.1000061,0.1000061,0,0,0,1,2,0.5238096
603.015,0.00101,0.05078125,-0.09375,0.04492188,0.046875,0.3828125,10.23438,-0.009765625,0.01367188,0.005859375,-0.02148438,0.0625,0,0.01049805,0.01660156,-1.606201,0,0,-2.227783,0,4.077,0,0,0,0,nan,2,0.076,1,128,0.1000061,0.1000061,0.1000061,0.1000061,0,0,0,1,2,0.0952381
603.024,0.00101,0.046875,-0.03515625,-0.001953125,1.640625,-0.9140625,9.65625,0.02539062,-0.03125,0.005859375,-0.02148438,0.0625,0,0.01049805,0.01647949,-1.606201,0,0,-2.227783,0,4.077,0,0,0,0,nan,2,0.085,1,128,0.1000061,0.1000061,0.1000061,0.1000061,0,0,0,1,2,0.8412699
603.034,0.00101,-0.03125,0.02148438,-0.005859375,-1.015625,0.5859375,9.554688,-0.01953125,0.02929688,-0.009765625,-0.02148438,0.0625,0,0.01049805,0.01660156,-1.606201,0,0,-2.227783,0,4.077,0,0,0,0,nan,2,0.095,1,128,0.1000061,0.1000061,0.1000061,0.1000061,0,0,0,1,2,0.5714286
603.044,0.00101,-0.00390625,0.0078125,0.02929688,-0.421875,-1.1875,9.984375,0.0078125,-0.015625,0.01171875,-0.02148438,0.0625,0,0.01049805,0.01647949,-1.606201,0,0,-2.227783,0,4.077,0,0,0,0,nan,2,0.105,1,128,0.1000061,0.1000061,0.1000061,0.1000061,0,0,0,1,2,0.3650794
603.055,0.00101,0.02929688,-0.04492188,-0.04296875,1.007812,1.15625,9.898438,0,0.005859375,-0.015625,-0.02148438,0.0625,0,0.01037598,0.01647949,-1.606201,0,0,-2.227783,0,4.077,0,0,0,0,nan,2,0.115,1,128,0.1000061,0.1000061,0.1000061,0.1000061,0,0,0,1,2,0.4920635
603.065,0.001014,-0.02734375,0.04492188,0.0625,-1.484375,-0.09375,9.554688,0,-0.00390625,0.01953125,-0.02148438,0.0625,0,0.01049805,0.01647949,-1.606201,0,0,-2.227783,0,4.077,0,0,0,0,nan,2,0.125,1,128,0.1000061,0.1000061,0.1000061,0.1000061,0,0,0,1,2,0.5555556
603.075,0.00101,0.02539062,-0.04296875,0.00390625,2.15625,0.9375,11.64062,0.00390625,-0.0078125,-0.00390625,-0.02148438,0.0625,0,0.01049805,0.01647949,-1.606201,0,0,-2.227783,0,4.077,0,0,0,0,nan,2,0.135,1,128,0.1000061,0.1000061,0.1000061,0.1000061,0,0,0,1,2,0
603.085,0.001012,0,-0.00390625,-0.01367188,-1.296875,-0.8984375,7.53125,-0.01171875,0.01171875,0.015625,-0.02148438,0.0625,0,0.01037598,0.01647949,-1.606079,0,0,-2.227783,0,4.077,0,0,0,0,nan,2,0.145,1,128,0.1000061,0.1000061,0.1000061,0.1000061,0,0,0,1,2,0
603.095,0.001012,0.005859375,-0.001953125,0.009765625,1.234375,1.695312,11.42188,0.01757812,-0.01757812,-0.01953125,-0.02148438,0.0625,0,0.01037598,0.01647949,-1.606201,0,0,-2.227783,0,4.077,0,0,0,0,nan,2,0.156,1,128,0.1000061,0.1000061,0.1000061,0.1000061,0,0,0,1,2,0
603.105,0.001009,-0.02539062,0.0078125,-0.01757812,-1.445312,-1.617188,8.71875,-0.02734375,0.02539062,0.01367188,-0.02148438,0.0625,0,0.01025391,0.01660156,-1.606201,0,0,-2.227783,0,4.077,0,0,0,0,nan,2,0.166,1,128,0.1000061,0.1000061,0.1000061,0.1000061,0,0,0,1,2,0
603.115,0.001042,0.00390625,0.02539062,0.01953125,1.34375,2.203125,10.96094,0.015625,-0.01757812,-0.01367188,-0.02148438,0.0625,0,0.01037598,0.01647949,-1.606201,0,0,-2.227783,0,4.077,0,0,0,0,nan,2,0.176,1,128,0.1000061,0.1000061,0.1000061,0.1000061,0,0,0,1,2,0
603.124,0.00101,-0.046875,0.1660156,0.02148438,-1.515625,0.9453125,8.664062,0.009765625,0.08398438,0.01171875,-0.02148438,0.0625,0,0.01049805,0.01672363,-1.606201,0,0,-2.227783,0,4.077,0,0,0,0,nan,2,0.185,1,128,0.1000061,0.1000061,0.1000061,0.1000061,0,0,0,1,2,0
603.134,0.001003,0.0703125,0.09960938,0.01171875,1.875,-1.179688,11.77344,0.03710938,0.08007812,-0.00390625,-0.02148438,0.0625,0,0.01074219,0.01745605,-1.606201,0,0,-2.227783,0,4.077,0,0,0,0,nan,2,0.195,1,128,0.1000061,0.1000061,0.1000061,0.1000061,0,0,0,1,2,0
603.145,0.000993,-0.03125,0.3144531,-0.0234375,0.1640625,1.835938,8.929688,0.00390625,0.2421875,0.00390625,-0.02148438,0.0625,0,0.01098633,0.01928711,-1.606201,0,0,-2.227783,0,4.077,0,0,0,0,nan,2,0.006,1,128,0.1000061,0.1000061,0.1000061,0.1000061,0,0,0,1,2,0
603.155,0.001021,0.009765625,0.2460938,0.04492188,0.3828125,-0.578125,11.75,-0.00390625,0.2792969,0,-0.02148438,0.0625,0,0.01098633,0.02197266,-1.606201,0,0,-2.227783,0,4.077,0,0,0,0,nan,2,0.016,1,128,0.1000061,0.1000061,0.1000061,0.1000061,0,0,0,1,2,0
603.165,0.00101,-0.03125,0.01171875,-0.0546875,-0.875,0.1953125,8.046875,-0.07421875,0.06445312,-0.0078125,-0.02148438,0.0625,0,0.01037598,0.02380371,-1.606201,0,0,-2.227783,0,4.077,0,0,0,0,nan,2,0.026,1,128,0.1000061,0.1000061,0.1000061,0.1000061,0,0,0,1,2,0
603.175,0.00101,0.09765625,-0.1074219,0.01757812,2.164062,-0.4296875,8.0625,0.015625,-0.1289062,0.001953125,-0.02148438,0.0625,0,0.01025391,0.02307129,-1.606201,0,0,-2.227783,0,4.077,0,0,0,0,nan,2,0.036,1,128,0.1000061,0.1000061,0.1000061,0.1000061,0,0,0,1,2,0
603.185,0.001003,-0.03515625,0.1738281,-0.02148438,-1.976562,-0.828125,11.82031,0.005859375,0.04101562,-0.0234375,-0.02148438,0.0625,0,0.01049805,0.02282715,-1.606323,0,0,-2.227783,0,4.077,0,0,0,0,nan,2,0.046,1,128,0.1000061,0.1000061,0.1000061,0.1000061,0,0,0,1,2,0
603.195,0.001005,0.001953125,-0.1523438,0.0390625,0.8046875,1.546875,7.976562,-0.02734375,-0.01953125,0.03515625,-0.02148438,0.0625,0,0.01049805,0.02319336,-1.606201,0,0,-2.227783,0,4.077,0,0,0,0,nan,2,0.057,1,128,0.1000061,0.1000061,0.1000061,0.1000061,0,0,0,1,2,0
603.205,0.001011,-0.06445312,0.015625,-0.04492188,-1.609375,-1.085938,11.07812,-0.0234375,-0.0546875,-0.03320312,-0.02148438,0.0625,0,0.01025391,0.02270508,-1.606201,0,0,-2.227783,0,4.077,0,0,0,0,nan,2,0.067,1,128,0.1000061,0.1000061,0.1000061,0.1000061,0,0,0,1,2,0
603.214,0.00101,0.03125,-0.1445312,0.08398438,0.578125,1.304688,10.16406,-0.0078125,-0.07226562,0.01171875,-0.02148438,0.0625,0,0.01013184,0.02197266,-1.606323,0,0,-2.227783,0,4.077,0,0,0,0,nan,2,0.076,1,128,0.1000061,0.1000061,0.1000061,0.1000061,0,0,0,1,2,0.04761905
603.224,0.00102,-0.04296875,0.03320312,-0.07226562,-2.1875,-0.8046875,10.09375,-0.00390625,-0.05078125,-0.01367188,-0.02148438,0.0625,0,0.01000977,0.0213623,-1.606323,0,0,-2.227783,0,4.077,0,0,0,0,nan,2,0.086,1,128,0.1000061,0.1000061,0.1000061,0.1000061,0,0,0,1,2,0
603.234,0.001018,0.03125,-0.1308594,0.0546875,1.796875,0.8203125,9.671875,0.001953125,-0.06054688,0.0078125,-0.02148438,0.0625,0,0.01000977,0.02087402,-1.606323,0,0,-2.227783,0,4.077,0,0,0,0,nan,2,0.096,1,128,0.1000061,0.1000061,0.1000061,0.1000061,0,0,0,1,2,0.7301587
603.245,0.001014,-0.03710938,0.01953125,-0.03515625,-2.203125,-2.453125,9.984375,-0.01367188,-0.03515625,-0.001953125,-0.02148438,0.0625,0,0.01000977,0.02026367,-1.606323,0,0,-2.227783,0,4.077,0,0,0,0,nan,2,0.106,1,128,0.1000061,0.1000061,0.1000061,0.1000061,0,0,0,1,2,0
603.255,0.001042,0.03320312,-0.078125,0.02148438,2.125,1.640625,10.03906,0.01171875,-0.046875,-0.001953125,-0.02148438,0.0625,0,0.009887695,0.01989746,-1.606323,0,0,-2.227783,0,4.077,0,0,0,0,nan,2,0.116,1,128,0.1000061,0.1000061,0.1000061,0.1000061,0,0,0,1,2,0
603.265,0.00101,-0.02539062,0.01757812,-0.005859375,-2.164062,-2.195312,9.21875,-0.009765625,-0.00390625,0.009765625,-0.02148438,0.0625,0,0.009887695,0.01965332,-1.606323,0,0,-2.227783,0,4.077,0,0,0,0,nan,2,0.126,1,128,0.1000061,0.1000061,0.1000061,0.1000061,0,0,0,1,2,0.8095238
603.275,0.001031,-0.05273438,0.0859375,0.03125,-2.265625,0.1484375,10.09375,0,-0.005859375,-0.00390625,-0.02148438,0.0625,0,0.009887695,0.01953125,-1.606323,0,0,-2.227783,0,4.077,0,0,0,0,nan,2,0.136,1,128,0.1000061,0.1000061,0.1000061,0.1000061,0,0,0,1,2,0
603.285,0.001011,0.0859375,-0.1289062,-0.02539062,1.921875,-0.875,9.671875,0.001953125,0,-0.001953125,-0.02148438,0.0625,0,0.009765625,0.01965332,-1.606323,0,0,-2.227783,0,4.077,0,0,0,0,nan,2,0.146,1,128,0.1000061,0.1000061,0.1000061,0.1000061,0,0,0,1,2,0.7936508
603.295,0.001008,-0.109375,0.1894531,0.01953125,-3.070312,0.25,10.07812,-0.0078125,0.02929688,0,-0.02148438,0.0625,0,0.009765625,0.01977539,-1.606323,0,0,-2.227783,0,4.077,0,0,0,0,nan,2,0.157,1,128,0.1000061,0.1000061,0.1000061,0.1000061,0,0,0,1,2,0
603.305,0.00101,0.1074219,-0.1816406,-0.00390625,2.367188,-0.8515625,9.976562,0.01367188,-0.015625,0,-0.02148438,0.0625,0,0.009765625,0.02001953,-1.606323,0,0,-2.227783,0,4.077,0,0,0,0,nan,2,0.167,1,128,0.1000061,0.1000061,0.1000061,0.1000061,0,0,0,1,2,0.01587302
603.314,0.001014,-0.07226562,0.09960938,0.00390625,-0.3046875,0.421875,9.875,0,-0.009765625,0.001953125,-0.02148438,0.0625,0,0.009765625,0.02001953,-1.606445,0,0,-2.227783,0,4.077,0,0,0,0,nan,2,0.176,1,128,0.1000061,0.1000061,0.1000061,0.1000061,0,0,0,1,2,0.8095238
603.324,0.00101,0.05078125,-0.1132812,-0.01171875,-0.1640625,0.2578125,10.19531,-0.009765625,0,-0.01171875,-0.02148438,0.0625,0,0.009643555,0.02001953,-1.606445,0,0,-2.227783,0,4.077,0,0,0,0,nan,2,0.186,1,128,0.1000061,0.1000061,0.1000061,0.1000061,0,0,0,1,2,0.1904762
603.334,0.00101,-0.04882812,0.0625,0.02148438,-0.78125,-0.2734375,9.234375,0.00390625,-0.02539062,0.01953125,-0.02148438,0.0625,0,0.009765625,0.01989746,-1.606323,0,0,-2.227783,0,4.077,0,0,0,0,nan,2,0.196,1,128,0.1000061,0.1000061,0.1000061,0.1000061,0,0,0,1,2,0
603.344,0.00101,0.0078125,-0.06835938,-0.02929688,0.359375,0.2109375,10.9375,-0.01367188,-0.009765625,-0.02539062,-0.02148438,0.0625,0,0.009643555,0.01977539,-1.606445,0,0,-2.227783,0,4.077,0,0,0,0,nan,2,0.206,1,128,0.1000061,0.1000061,0.1000061,0.1000061,0,0,0,1,2,0
603.355,0.00101,-0.03515625,0.02148438,0.0234375,-0.703125,-0.765625,8.90625,-0.00390625,-0.02734375,0.02539062,-0.02148438,0.0625,0,0.009643555,0.01940918,-1.606445,0,0,-2.227783,0,4.077,0,0,0,0,nan,2,0.216,1,128,0.1000061,0.1000061,0.1000061,0.1000061,0,0,0,1,2,0
603.365,0.001009,0.02539062,-0.06445312,-0.02539062,0.578125,0.3046875,10.99219,0.005859375,-0.02929688,-0.02929688,-0.02148438,0.0625,0,0.009521484,0.01928711,-1.606445,0,0,-2.227783,0,4.077,0,0,0,0,nan,2,0.226,1,128,0.1000061,0.1000061,0.1000061,0.1000061,0,0,0,1,2,0
603.375,0.001009,-0.03320312,0.01171875,0.01171875,-1.070312,-0.015625,8.703125,-0.009765625,-0.01171875,0.0234375,-0.02148438,0.0625,0,0.009521484,0.01904297,-1.606445,0,0,-2.227783,0,4.077,0,0,0,0,nan,2,0.236,1,128,0.1000061,0.1000061,0.1000061,0.1000061,0,0,0,1,2,0
603.385,0.000963,-0.00390625,-0.01953125,0.09765625,0.296875,0.453125,9.8125,0.001953125,-0.01953125,0,-0.02148438,0.0625,0,0.009521484,0.01879883,-1.606445,0,0,-2.227783,0,4.077,0,0,0,0,nan,2,0.246,1,128,0.1000061,0.1000061,0.1000061,0.1000061,0,0,0,1,2,0.7936508
603.395,0.001069,-0.001953125,-0.009765625,-0.08203125,-0.9609375,-1.445312,9.929688,-0.01171875,-0.001953125,-0.00390625,-0.02148438,0.0625,0,0.009399414,0.01879883,-1.606323,0,0,-2.227783,0,4.077,0,0,0,0,nan,2,0.001,1,128,0.1000061,0.1000061,0.1000061,0.1000061,0,0,0,1,2,0.4285714
603.405,0.001007,0,-0.009765625,0.06445312,1.59375,1.523438,9.828125,0.00390625,-0.015625,0.00390625,-0.02148438,0.0625,0,0.009399414,0.01867676,-1.606323,0,0,-2.227783,0,4.077,0,0,0,0,nan,2,0.011,1,128,0.1000061,0.1000061,0.1000061,0.1000061,0,0,0,1,2,0.4285714
603.414,0.001027,-0.03515625,0.03515625,-0.0234375,-1.875,0.3203125,10.30469,-0.009765625,0.001953125,0.00390625,-0.02148438,0.0625,0,0.009399414,0.01855469,-1.606323,0,0,-2.227783,0,4.077,0,0,0,0,nan,2,0.02,1,128,0.1000061,0.1000061,0.1000061,0.1000061,0,0,0,1,2,0
603.424,0.00101,0.0390625,-0.0703125,0.02539062,1.859375,-0.1640625,9.039062,0.00390625,-0.0078125,0.001953125,-0.02148438,0.0625,0,0.009277344,0.01855469,-1.606323,0,0,-2.227783,0,4.077,0,0,0,0,nan,2,0.03,1,128,0.1000061,0.1000061,0.1000061,0.1000061,0,0,0,1,2,0
603.434,0.001009,-0.0625,0.1035156,-0.02539062,-2.875,0.2578125,10.83594,-0.01171875,0.01171875,-0.005859375,-0.02148438,0.0625,0,0.009277344,0.01843262,-1.606323,0,0,-2.227783,0,4.077,0,0,0,0,nan,2,0.04,1,128,0.1000061,0.1000061,0.1000061,0.1000061,0,0,0,1,2,0
603.444,0.001011,0.06640625,-0.125,0.03515625,2.695312,-0.3984375,9.023438,0.0078125,-0.02539062,0.01367188,-0.02148438,0.0625,0,0.009277344,0.01843262,-1.606323,0,0,-2.227783,0,4.077,0,0,0,0,nan,2,0.05,1,128,0.1000061,0.1000061,0.1000061,0.1000061,0,0,0,1,2,0.2063492
603.455,0.001011,-0.08398438,0.1347656,-0.03320312,-2.804688,0.0859375,11.42188,-0.01367188,0.01757812,-0.01171875,-0.02148438,0.0625,0,0.009277344,0.01831055,-1.606323,0,0,-2.227783,0,4.077,0,0,0,0,nan,2,0.061,1,128,0.1000061,0.1000061,0.1000061,0.1000061,0,0,0,1,2,0
603.465,0.00101,0.09765625,-0.1914062,0.04492188,3.242188,-0.109375,8.304688,0.015625,-0.04101562,0.01757812,-0.02148438,0.0625,0,0.009277344,0.01818848,-1.606323,0,0,-2.227783,0,4.077,0,0,0,0,nan,2,0.071,1,128,0.1000061,0.1000061,0.1000061,0.1000061,0,0,0,1,2,0
603.475,0.001009,-0.1054688,0.1835938,-0.04101562,-3.164062,1.398438,10.54688,-0.0234375,0.03515625,-0.01171875,-0.02148438,0.0625,0,0.009155273,0.01806641,-1.606323,0,0,-2.227783,0,4.077,0,0,0,0,nan,2,0.081,1,128,0.1000061,0.1000061,0.1000061,0.1000061,0,0,0,1,2,0
603.485,0.001013,-0.01367188,-0.0078125,0.01171875,1.429688,-1.125,9.140625,0.01171875,-0.03515625,0.0078125,-0.02148438,0.0625,0,0.009155273,0.01806641,-1.606323,0,0,-2.227783,0,4.077,0,0,0,0,nan,2,0.091,1,128,0.1000061,0.1000061,0.1000061,0.1000061,0,0,0,1,2,0
603.495,0.001003,0.02929688,-0.03125,-0.03710938,-0.328125,1.710938,10.125,-0.01367188,0.0234375,-0.015625,-0.02148438,0.0625,0,0.009033203,0.01818848,-1.606323,0,0,-2.227783,0,4.077,0,0,0,0,nan,2,0.101,1,128,0.1000061,0.1000061,0.1000061,0.1000061,0,0,0,1,2,0.04761905
603.505,0.001014,-0.05859375,0.0625,0.04882812,-0.8984375,-2,10.28906,0.001953125,-0.015625,0.015625,-0.02148438,0.0625,0,0.009155273,0.01794434,-1.606323,0,0,-2.227783,0,4.077,0,0,0,0,nan,2,0.111,1,128,0.1000061,0.1000061,0.1000061,0.1000061,0,0,0,1,2,0
603.515,0.001009,0.07421875,-0.09375,-0.07421875,1.515625,1.296875,9.453125,0.001953125,0,-0.0234375,-0.02148438,0.0625,0,0.009033203,0.01806641,-1.606445,0,0,-2.227783,0,4.077,0,0,0,0,nan,2,0.121,1,128,0.1000061,0.1000061,0.1000061,0.1000061,0,0,0,1,2,0.6825397
603.524,0.00101,-0.03515625,0.02539062,0.08203125,0.0859375,-0.890625,10.15625,0.009765625,-0.02148438,0.00390625,-0.02148438,0.0625,0,0.009033203,0.01794434,-1.606445,0,0,-2.227783,0,4.077,0,0,0,0,nan,2,0.13,1,128,0.1000061,0.1000061,0.1000061,0.1000061,0,0,0,1,2,0.1904762
603.534,0.000983,0.05273438,-0.06835938,-0.08007812,0.2421875,0.0859375,9.140625,-0.01367188,0.01171875,-0.001953125,-0.02148438,0.0625,0,0.009033203,0.01806641,-1.606445,0,0,-2.227783,0,4.077,0,0,0,0,nan,2,0.14,1,128,0.1000061,0.1000061,0.1000061,0.1000061,0,0,0,1,2,0
603.545,0.000973,-0.07617188,0.1054688,0.08203125,-0.8828125,0,10.53906,0.00390625,-0.009765625,0.005859375,-0.02148438,0.0625,0,0.009033203,0.01794434,-1.606445,0,0,-2.227783,0,4.077,0,0,0,0,nan,2,0.15,1,128,0.1000061,0.1000061,0.1000061,0.1000061,0,0,0,1,2,0
603.555,0.000995,0.08984375,-0.1367188,-0.07226562,0.5625,-0.6484375,9.09375,-0.001953125,0,-0.005859375,-0.02148438,0.0625,0,0.008911133,0.01806641,-1.606445,0,0,-2.227783,0,4.077,0,0,0,0,nan,2,0,1,128,0.1000061,0.1000061,0.1000061,0.1000061,0,0,0,1,2,0
603.565,0.001014,-0.09570312,0.1464844,0.05273438,-0.8671875,0.9921875,10.03906,-0.00390625,0.00390625,0.005859375,-0.02148438,0.0625,0,0.008911133,0.01782227,-1.606445,0,0,-2.227783,0,4.077,0,0,0,0,nan,2,0.01,1,128,0.1000061,0.1000061,0.1000061,0.1000061,0,0,0,1,2,0.3492064
603.575,0.00101,0.08398438,-0.1582031,-0.03320312,0.5703125,-1.34375,9.539062,0.001953125,-0.009765625,-0.0078125,-0.02148438,0.0625,0,0.008789062,0.01794434,-1.606445,0,0,-2.227783,0,4.077,0,0,0,0,nan,2,0.02,1,128,0.1000061,0.1000061,0.1000061,0.1000061,0,0,0,1,2,0.6349207
603.585,0.001008,-0.08007812,0.1289062,-0.02539062,-1.484375,1.796875,10.03906,-0.01367188,0.0234375,0.001953125,-0.02148438,0.0625,0,0.008789062,0.0177002,-1.606445,0,0,-2.227783,0,4.077,0,0,0,0,nan,2,0.03,1,128,0.1000061,0.1000061,0.1000061,0.1000061,0,0,0,1,2,0
603.595,0.001003,0.05664062,-0.1074219,0.05859375,0.9296875,-2.34375,9.703125,0.01171875,-0.02539062,0.001953125,-0.02148438,0.0625,0,0.008789062,0.0177002,-1.606445,0,0,-2.227783,0,4.077,0,0,0,0,nan,2,0.04,1,128,0.1000061,0.1000061,0.1000061,0.1000061,0,0,0,1,2,0.4920635
603.605,0.001006,-0.01757812,0.07226562,-0.09179688,-0.1015625,2.820312,10.05469,-0.00390625,0.01171875,-0.01367188,-0.02148438,0.0625,0,0.008789062,0.01757812,-1.606567,0,0,-2.227783,0,4.077,0,0,0,0,nan,2,0.05,1,128,0.1000061,0.1000061,0.1000061,0.1000061,0,0,0,1,2,0
603.615,0.001007,0.0078125,-0.07421875,0.1171875,-0.0234375,-1.625,9.351562,-0.001953125,-0.01171875,0.01367188,-0.02148438,0.0625,0,0.008789062,0.01757812,-1.606567,0,0,-2.227783,0,4.077,0,0,0,0,nan,2,0.061,1,128,0.1000061,0.1000061,0.1000061,0.1000061,0,0,0,1,2,0.2857143
603.624,0.00101,-0.009765625,0.02734375,-0.06835938,0.65625,0.6796875,9.148438,0.001953125,-0.009765625,0.0078125,-0.02148438,0.0625,0,0.008789062,0.01745605,-1.606567,0,0,-2.227783,0,4.077,0,0,0,0,nan,2,0.07,1,128,0.1000061,0.1000061,0.1000061,0.1000061,0,0,0,1,2,0
603.634,0.00101,0,-0.01953125,0.06835938,-0.8515625,-0.734375,10.16406,-0.001953125,0.00390625,-0.01171875,-0.02148438,0.0625,0,0.008789062,0.01745605,-1.606689,0,0,-2.227783,0,4.077,0,0,0,0,nan,2,0.08,1,128,0.1000061,0.1000061,0.1000061,0.1000061,0,0,0,1,2,0.1269841
603.644,0.00101,-0.005859375,0.0234375,-0.06835938,-0.390625,-0.5,9.945312,-0.001953125,-0.0078125,0.005859375,-0.02148438,0.0625,0,0.008789062,0.01745605,-1.606567,0,0,-2.227783,0,4.077,0,0,0,0,nan,2,0.09,1,128,0.1000061,0.1000061,0.1000061,0.1000061,0,0,0,1,2,0.6349207
603.655,0.00101,0.001953125,-0.02539062,0.0625,0.5,0.34375,9.953125,0,-0.001953125,-0.0078125,-0.02148438,0.0625,0,0.008666992,0.01733398,-1.606689,0,0,-2.227783,0,4.077,0,0,0,0,nan,2,0.1,1,128,0.1000061,0.1000061,0.1000061,0.1000061,0,0,0,1,2,0.5714286
603.665,0.00101,-0.01171875,0.03125,-0.04882812,-1.203125,-1.015625,10.28906,-0.0078125,0,0.001953125,-0.02148438,0.0625,0,0.008666992,0.01733398,-1.606689,0,0,-2.227783,0,4.077,0,0,0,0,nan,2,0.11,1,128,0.1000061,0.1000061,0.1000061,0.1000061,0,0,0,1,2,0
603.675,0.00101,0.03125,-0.06445312,0.03710938,2.289062,2.390625,9.34375,0.005859375,-0.01953125,0.001953125,-0.02148438,0.0625,0,0.008666992,0.01721191,-1.606689,0,0,-2.227783,0,4.077,0,0,0,0,nan,2,0.12,1,128,0.1000061,0.1000061,0.1000061,0.1000061,0,0,0,1,2,0.7460318
603.685,0.001014,-0.00390625,0,-0.01953125,-2.0625,-1.351562,10.33594,-0.01367188,0.001953125,-0.001953125,-0.02148438,0.0625,0,0.008666992,0.01696777,-1.606689,0,0,-2.227783,0,4.077,0,0,0,0,nan,2,0.13,1,128,0.1000061,0.1000061,0.1000061,0.1000061,0,0,0,1,2,0
603.695,0.001007,-0.015625,-0.00390625,-0.0078125,2.257812,1.382812,9.289062,0.00390625,-0.03125,0.001953125,-0.02148438,0.0625,0,0.008666992,0.01672363,-1.606567,0,0,-2.227783,0,4.077,0,0,0,0,nan,2,0.14,1,128,0.1000061,0.1000061,0.1000061,0.1000061,0,0,0,1,2,0.6190476
603.705,0.00101,0.009765625,-0.02929688,0.02929688,-2.117188,-1.648438,10.53906,-0.009765625,0.001953125,0.00390625,-0.02148438,0.0625,0,0.008666992,0.01647949,-1.606567,0,0,-2.227783,0,4.077,0,0,0,0,nan,2,0.15,1,128,0.1000061,0.1000061,0.1000061,0.1000061,0,0,0,1,2,0
603.715,0.00101,-0.01953125,0.03125,-0.04492188,1.640625,1.648438,9.507812,0.005859375,-0.02929688,-0.00390625,-0.02148438,0.0625,0,0.008544922,0.01623535,-1.606567,0,0,-2.227783,0,4.077,0,0,0,0,nan,2,0.161,1,128,0.1000061,0.1000061,0.1000061,0.1000061,0,0,0,1,2,0.8571429
603.724,0.00101,-0.07226562,0.09570312,0.01367188,-3.921875,-0.015625,10.78906,-0.02539062,0.03515625,-0.005859375,-0.02148438,0.0625,0,0.008544922,0.01623535,-1.606567,0,0,-2.227783,0,4.077,0,0,0,0,nan,2,0.17,1,128,0.1000061,0.1000061,0.1000061,0.1000061,0,0,0,1,2,0
603.734,0.00101,0.05273438,-0.08398438,-0.00390625,3.265625,-0.6328125,8.976562,0.02148438,-0.04296875,0.009765625,-0.02148438,0.0625,0,0.008544922,0.01611328,-1.606567,0,0,-2.227783,0,4.077,0,0,0,0,nan,2,0.18,1,128,0.1000061,0.1000061,0.1000061,0.1000061,0,0,0,1,2,0.4920635
603.744,0.00101,-0.03320312,0.05859375,-0.0078125,-2.476562,0.734375,10.60938,-0.02539062,0.04492188,-0.01367188,-0.02148438,0.0625,0,0.008422852,0.01611328,-1.606567,0,0,-2.227783,0,4.077,0,0,0,0,nan,2,0.19,1,128,0.1000061,0.1000061,0.1000061,0.1000061,0,0,0,1,2,0
603.755,0.00101,-0.005859375,-0.00390625,0.02734375,1.09375,-1.054688,9.398438,0.015625,-0.03125,0.015625,-0.02148438,0.0625,0,0.008544922,0.01599121,-1.606567,0,0,-2.227783,0,4.077,0,0,0,0,nan,2,0.2,1,128,0.1000061,0.1000061,0.1000061,0.1000061,0,0,0,1,2,0.4126984
603.765,0.001031,0.02929688,-0.02539062,-0.04882812,-0.0703125,1.351562,10.03125,-0.005859375,0.02148438,-0.01757812,-0.02148438,0.0625,0,0.008422852,0.01599121,-1.606567,0,0,-2.227783,0,4.077,0,0,0,0,nan,2,0.21,1,128,0.1000061,0.1000061,0.1000061,0.1000061,0,0,0,1,2,0.3650794
603.775,0.001035,-0.03710938,0.04492188,0.05664062,-1.351562,-1.6875,10.13281,0.001953125,-0.005859375,0.01367188,-0.02148438,0.0625,0,0.008422852,0.01599121,-1.606567,0,0,-2.227783,0,4.077,0,0,0,0,nan,2,0.002,1,128,0.1000061,0.1000061,0.1000061,0.1000061,0,0,0,1,2,0
603.785,0.00099,0.05078125,-0.0859375,-0.00390625,2.742188,1.09375,10.375,0.015625,-0.01757812,-0.02148438,-0.02148438,0.0625,0,0.008422852,0.01599121,-1.606689,0,0,-2.227783,0,4.077,0,0,0,0,nan,2,0.012,1,128,0.1000061,0.1000061,0.1000061,0.1000061,0,0,0,1,2,0
603.795,0.00101,-0.046875,0.07421875,0.0078125,-2.890625,-0.4921875,9.140625,-0.015625,0.0234375,0.015625,-0.02148438,0.0625,0,0.008422852,0.01599121,-1.606689,0,0,-2.227783,0,4.077,0,0,0,0,nan,2,0.022,1,128,0.1000061,0.1000061,0.1000061,0.1000061,0,0,0,1,2,0.5873016
603.805,0.001009,0.046875,-0.0625,-0.01367188,3.242188,0.671875,10.75781,0.01757812,-0.01953125,-0.0234375,-0.02148438,0.0625,0,0.008422852,0.01611328,-1.606689,0,0,-2.227783,0,4.077,0,0,0,0,nan,2,0.032,1,128,0.1000061,0.1000061,0.1000061,0.1000061,0,0,0,1,2,0
603.815,0.00101,-0.02929688,0.05664062,0.001953125,-2.8125,0.265625,9.21875,-0.01953125,0.03320312,0.01953125,-0.02148438,0.0625,0,0.008422852,0.01611328,-1.606689,0,0,-2.227783,0,4.077,0,0,0,0,nan,2,0.042,1,128,0.1000061,0.1000061,0.1000061,0.1000061,0,0,0,1,2,0.6507937
603.824,0.00101,0.09179688,-0.1289062,-0.05273438,3.507812,-0.4453125,10.11719,0.01953125,-0.02929688,-0.01757812,-0.02148438,0.0625,0,0.008422852,0.01611328,-1.606689,0,0,-2.227783,0,4.077,0,0,0,0,nan,2,0.051,1,128,0.1000061,0.1000061,0.1000061,0.1000061,0,0,0,1,2,0
603.834,0.00101,-0.09375,0.1269531,0.02539062,-2.882812,0.796875,9.40625,-0.0234375,0.03320312,0.01171875,-0.02148438,0.0625,0,0.008422852,0.01623535,-1.606689,0,0,-2.227783,0,4.077,0,0,0,0,nan,2,0.062,1,128,0.1000061,0.1000061,0.1000061,0.1000061,0,0,0,1,2,0.8412699
603.844,0.00101,0.08203125,-0.1230469,0.005859375,2.414062,-1.1875,9.96875,0.01953125,-0.02929688,-0.00390625,-0.02148438,0.0625,0,0.008422852,0.01623535,-1.606689,0,0,-2.227783,0,4.077,0,0,0,0,nan,2,0.072,1,128,0.1000061,0.1000061,0.1000061,0.1000061,0,0,0,1,2,0
603.855,0.00101,-0.07226562,0.1191406,-0.03515625,-1.304688,1.257812,9.726562,-0.01367188,0.03125,0,-0.02148438,0.0625,0,0.008422852,0.01623535,-1.606689,0,0,-2.227783,0,4.077,0,0,0,0,nan,2,0.082,1,128,0.1000061,0.1000061,0.1000061,0.1000061,0,0,0,1,2,0.8253968
603.865,0.00101,0.06640625,-0.09765625,0.0703125,1.46875,-1.734375,10.28125,0.015625,-0.01953125,0.00390625,-0.02148438,0.0625,0,0.008422852,0.01623535,-1.606689,0,0,-2.227783,0,4.077,0,0,0,0,nan,2,0.092,1,128,0.1000061,0.1000061,0.1000061,0.1000061,0,0,0,1,2,0
603.875,0.00101,-0.04101562,0.08398438,-0.09765625,-0.59375,2.304688,9.796875,-0.0078125,0.02148438,-0.01171875,-0.02148438,0.0625,0,0.008544922,0.01623535,-1.606689,0,0,-2.227783,0,4.077,0,0,0,0,nan,2,0.102,1,128,0.1000061,0.1000061,0.1000061,0.1000061,0,0,0,1,2,0.3809524
603.885,0.00101,0.009765625,-0.015625,0.08984375,0.2578125,-0.5625,8.429688,0.00390625,-0.01367188,0.03515625,-0.02148438,0.0625,0,0.008422852,0.01623535,-1.606689,0,0,-2.227783,0,4.077,0,0,0,0,nan,2,0.112,1,128,0.1000061,0.1000061,0.1000061,0.1000061,0,0,0,1,2,0
603.895,0.001011,-0.01367188,0.03125,-0.09570312,-0.375,0.15625,10.66406,-0.001953125,0.01367188,-0.03515625,-0.02148438,0.0625,0,0.008422852,0.01635742,-1.606689,0,0,-2.227783,0,4.077,0,0,0,0,nan,2,0.122,1,128,0.1000061,0.1000061,0.1000061,0.1000061,0,0,0,1,2,0
603.905,0.001011,0.03320312,-0.03320312,0.08398438,0.0703125,0.40625,8.75,0.0078125,-0.001953125,0.03125,-0.02148438,0.0625,0,0.008422852,0.01635742,-1.606689,0,0,-2.227783,0,4.077,0,0,0,0,nan,2,0.132,1,128,0.1000061,0.1000061,0.1000061,0.1000061,0,0,0,1,2,0
603.915,0.001009,0.0078125,0.02929688,-0.078125,0.3515625,0.1640625,10.625,0.0078125,0.015625,-0.02929688,-0.02148438,0.0625,0,0.008544922,0.01647949,-1.606689,0,0,-2.227783,0,4.077,0,0,0,0,nan,2,0.142,1,128,0.1000061,0.1000061,0.1000061,0.1000061,0,0,0,1,2,0
603.924,0.00101,-0.03515625,0.03710938,0.1171875,-0.015625,1.039062,9.429688,-0.005859375,0.02148438,0.01757812,-0.02148438,0.0625,0,0.008544922,0.01660156,-1.606689,0,0,-2.227783,0,4.077,0,0,0,0,nan,2,0.151,1,128,0.1000061,0.1000061,0.1000061,0.1000061,0,0,0,1,2,0.3492064
603.934,0.00101,0.0078125,0.02539062,-0.09375,-0.46875,-2.609375,9.875,0.00390625,0.01367188,-0.01757812,-0.02148438,0.0625,0,0.008544922,0.01672363,-1.606689,0,0,-2.227783,0,4.077,0,0,0,0,nan,2,0.162,1,128,0.1000061,0.1000061,0.1000061,0.1000061,0,0,0,1,2,0.1428571
603.944,0.00101,0.00390625,0.009765625,0.06640625,1.054688,1.804688,9.070312,0.0078125,0.009765625,0.01171875,-0.02148438,0.0625,0,0.008544922,0.01696777,-1.606689,0,0,-2.227783,0,4.077,0,0,0,0,nan,2,0.172,1,128,0.1000061,0.1000061,0.1000061,0.1000061,0,0,0,1,2,0
603.954,0.00101,-0.01757812,0.02148438,-0.0390625,-1.507812,-2.742188,10.40625,-0.01171875,0.01757812,-0.009765625,-0.02148438,0.0625,0,0.008544922,0.01696777,-1.606689,0,0,-2.227783,0,4.077,0,0,0,0,nan,2,0.182,1,128,0.1000061,0.1000061,0.1000061,0.1000061,0,0,0,1,2,0
603.965,0.001021,0.01367188,-0.001953125,0.0078125,2.117188,2.71875,8.578125,0.0078125,-0.0078125,0.005859375,-0.02148438,0.0625,0,0.008544922,0.01708984,-1.606812,0,0,-2.227783,0,4.077,0,0,0,0,nan,2,0.192,1,128,0.1000061,0.1000061,0.1000061,0.1000061,0,0,0,1,2,0
603.975,0.000972,-0.01171875,0,0.01171875,-2.21875,-2.101562,11.24219,-0.015625,0.015625,-0.00390625,-0.02148438,0.0625,0,0.008544922,0.01708984,-1.606812,0,0,-2.227783,0,4.077,0,0,0,0,nan,2,0.003,1,128,0.1000061,0.1000061,0.1000061,0.1000061,0,0,0,1,2,0
603.985,0.00101,-0.046875,0.06835938,-0.06445312,-0.4453125,1.390625,9.1875,-0.00390625,-0.00390625,-0.015625,-0.02148438,0.0625,0,0.008422852,0.01708984,-1.606812,0,0,-2.227783,0,4.077,0,0,0,0,nan,2,0.013,1,128,0.1000061,0.1000061,0.1000061,0.1000061,0,0,0,1,2,0
603.995,0.001016,0.0546875,-0.1054688,0.08007812,0.5546875,-0.0390625,10.3125,-0.00390625,-0.005859375,0.01367188,-0.02148438,0.0625,0,0.008422852,0.01696777,-1.606812,0,0,-2.227783,0,4.077,0,0,0,0,nan,2,0.023,1,128,0.1000061,0.1000061,0.1000061,0.1000061,0,0,0,1,2,0
604.005,0.001009,-0.04492188,0.08789062,-0.08398438,-0.4609375,0.796875,9.4375,0.00390625,-0.01367188,-0.01171875,-0.02148438,0.0625,0,0.008422852,0.0168457,-1.606812,0,0,-2.227783,0,4.077,0,0,0,0,nan,2,0.033,1,128,0.1000061,0.1000061,0.1000061,0.1000061,0,0,0,1,2,0.2539683
604.015,0.001007,0.0625,-0.1367188,0.0859375,0.703125,0.65625,10.4375,-0.00390625,-0.01171875,0.01171875,-0.02148438,0.0625,0,0.008422852,0.01672363,-1.606812,0,0,-2.227783,0,4.077,0,0,0,0,nan,2,0.043,1,128,0.1000061,0.1000061,0.1000061,0.1000061,0,0,0,1,2,0
604.025,0.00101,-0.0859375,0.1347656,-0.08789062,-1.632812,-0.6640625,9.40625,-0.00390625,0,-0.015625,-0.02148438,0.0625,0,0.008422852,0.01660156,-1.606812,0,0,-2.227783,0,4.077,0,0,0,0,nan,2,0.054,1,128,0.1000061,0.1000061,0.1000061,0.1000061,0,0,0,1,2,0.4126984
604.034,0.001009,0.01171875,-0.03320312,0.04101562,-0.0078125,1.460938,10.90625,-0.009765625,0.01757812,-0.0078125,-0.02148438,0.0625,0,0.008422852,0.01660156,-1.606812,0,0,-2.227783,0,4.077,0,0,0,0,nan,2,0.063,1,128,0.1000061,0.1000061,0.1000061,0.1000061,0,0,0,1,2,0
604.044,0.001009,-0.03320312,0.05859375,-0.0234375,-1.085938,-1.65625,8.875,0.009765625,-0.01367188,0.005859375,-0.02148438,0.0625,0,0.008422852,0.01660156,-1.606812,0,0,-2.227783,0,4.077,0,0,0,0,nan,2,0.073,1,128,0.1000061,0.1000061,0.1000061,0.1000061,0,0,0,1,2,0
604.054,0.00101,0.05273438,-0.06054688,0.01171875,1.851562,2.25,10.29688,0,0.01171875,-0.0078125,-0.02148438,0.0625,0,0.008422852,0.01660156,-1.606812,0,0,-2.227783,0,4.077,0,0,0,0,nan,2,0.083,1,128,0.1000061,0.1000061,0.1000061,0.1000061,0,0,0,1,2,0
604.065,0.001013,-0.06054688,0.09179688,0.00390625,-2.398438,-1.820312,9.921875,-0.001953125,0.009765625,0.005859375,-0.02148438,0.0625,0,0.008422852,0.01660156,-1.606812,0,0,-2.227783,0,4.077,0,0,0,0,nan,2,0.093,1,128,0.1000061,0.1000061,0.1000061,0.1000061,0,0,0,1,2,0
604.075,0.001009,0.07617188,-0.1054688,-0.01953125,3.460938,2.921875,9.710938,0.0078125,-0.005859375,-0.009765625,-0.02148438,0.0625,0,0.008422852,0.01672363,-1.606812,0,0,-2.227783,0,4.077,0,0,0,0,nan,2,0.103,1,128,0.1000061,0.1000061,0.1000061,0.1000061,0,0,0,1,2,0
604.085,0.001009,-0.04492188,0.05078125,0,-2.5,-2.210938,9.320312,-0.02929688,0.0390625,0.005859375,-0.02148438,0.0625,0,0.008300781,0.0168457,-1.606812,0,0,-2.227783,0,4.077,0,0,0,0,nan,2,0.113,1,128,0.1000061,0.1000061,0.1000061,0.1000061,0,0,0,1,2,0.7460318
604.095,0.001008,0.02148438,-0.02734375,-0.015625,2.898438,1.9375,10.03125,0.01953125,-0.02929688,-0.009765625,-0.02148438,0.0625,0,0.008300781,0.0168457,-1.606812,0,0,-2.227783,0,4.077,0,0,0,0,nan,2,0.123,1,128,0.1000061,0.1000061,0.1000061,0.1000061,0,0,0,1,2,0
604.105,0.001041,-0.001953125,-0.01367188,0.015625,-2.007812,-0.0625,9.960938,-0.0234375,0.03125,0.005859375,-0.02148438,0.0625,0,0.008178711,0.01696777,-1.606812,0,0,-2.227783,0,4.077,0,0,0,0,nan,2,0.133,1,128,0.1000061,0.1000061,0.1000061,0.1000061,0,0,0,1,2,0.2539683
604.114,0.001043,0.09570312,-0.1425781,-0.01953125,4.117188,-0.46875,9.078125,0.03125,-0.05078125,-0.001953125,-0.02148438,0.0625,0,0.008178711,0.01696777,-1.606812,0,0,-2.227783,0,4.077,0,0,0,0,nan,2,0.142,1,128,0.1000061,0.1000061,0.1000061,0.1000061,0,0,0,1,2,0.5873016
604.125,0.00101,0.0390625,-0.05664062,0.01757812,-1.65625,0.4765625,9.664062,-0.01757812,0.02734375,0,-0.02148438,0.0625,0,0.008178711,0.01696777,-1.606812,0,0,-2.227783,0,4.077,0,0,0,0,nan,2,0.154,1,128,0.1000061,0.1000061,0.1000061,0.1000061,0,0,0,1,2,0.8888889
604.134,0.001009,0.078125,-0.1191406,0.02148438,3.007812,-0.7265625,9.34375,0.02734375,-0.05078125,0.0078125,-0.02148438,0.0625,0,0.008178711,0.01672363,-1.606812,0,0,-2.227783,0,4.077,0,0,0,0,nan,2,0.163,1,128,0.1000061,0.1000061,0.1000061,0.1000061,0,0,0,1,2,0.8888889
604.144,0.00101,-0.06835938,0.09765625,-0.03710938,-2.117188,0.34375,10.21875,-0.02734375,0.04101562,-0.01367188,-0.02148438,0.0625,0,0.008056641,0.01672363,-1.606934,0,0,-2.227783,0,4.077,0,0,0,0,nan,2,0.173,1,128,0.1000061,0.1000061,0.1000061,0.1000061,0,0,0,1,2,0
604.155,0.001009,0.03710938,-0.06640625,0.06054688,1.3125,-0.90625,9.90625,0.01953125,-0.04101562,0.01757812,-0.02148438,0.0625,0,0.008178711,0.01672363,-1.606812,0,0,-2.227783,0,4.077,0,0,0,0,nan,2,0.183,1,128,0.1000061,0.1000061,0.1000061,0.1000061,0,0,0,1,2,0.4603175
604.165,0.001029,0,0.0078125,-0.07421875,-0.171875,1.523438,9.46875,-0.01171875,0.02148438,-0.015625,-0.02148438,0.0625,0,0.008056641,0.01672363,-1.606812,0,0,-2.227783,0,4.077,0,0,0,0,nan,2,0.193,1,128,0.1000061,0.1000061,0.1000061,0.1000061,0,0,0,1,2,0.4920635
604.175,0.00102,-0.02929688,0.03320312,0.0859375,-0.9375,-1.679688,10.72656,0,-0.0078125,0.015625,-0.02148438,0.0625,0,0.008056641,0.01660156,-1.606812,0,0,-2.227783,0,4.077,0,0,0,0,nan,2,0.002,1,128,0.1000061,0.1000061,0.1000061,0.1000061,0,0,0,1,2,0
604.185,0.001022,0.02929688,-0.05078125,-0.04296875,2.21875,1.53125,11.15625,0.01171875,-0.01367188,-0.02539062,-0.02148438,0.0625,0,0.008056641,0.01660156,-1.606934,0,0,-2.227783,0,4.077,0,0,0,0,nan,2,0.012,1,128,0.1000061,0.1000061,0.1000061,0.1000061,0,0,0,1,2,0
604.195,0.001003,-0.03320312,0.05859375,0.04492188,-2.1875,-0.515625,8.453125,-0.01171875,0.01367188,0.0234375,-0.02148438,0.0625,0,0.008056641,0.01660156,-1.606934,0,0,-2.227783,0,4.077,0,0,0,0,nan,2,0.022,1,128,0.1000061,0.1000061,0.1000061,0.1000061,0,0,0,1,2,0
604.205,0.001005,0.04101562,-0.0625,-0.04296875,3.164062,1.617188,10.64844,0.01367188,-0.01953125,-0.02539062,-0.02148438,0.0625,0,0.008056641,0.01660156,-1.606934,0,0,-2.227783,0,4.077,0,0,0,0,nan,2,0.032,1,128,0.1000061,0.1000061,0.1000061,0.1000061,0,0,0,1,2,0
604.214,0.001067,-0.09375,0.1289062,0.09375,-2.882812,-0.2578125,9.523438,-0.015625,0.02148438,0.01953125,-0.02148438,0.0625,0,0.008056641,0.01660156,-1.606934,0,0,-2.227783,0,4.077,0,0,0,0,nan,2,0.041,1,128,0.1000061,0.1000061,0.1000061,0.1000061,0,0,0,1,2,0.5714286
604.225,0.00101,0.0546875,-0.078125,-0.015625,3.015625,0.5078125,10.6875,0.02148438,-0.03515625,-0.01367188,-0.02148438,0.0625,0,0.008056641,0.01660156,-1.606934,0,0,-2.227783,0,4.077,0,0,0,0,nan,2,0.052,1,128,0.1000061,0.1000061,0.1000061,0.1000061,0,0,0,1,2,0
604.234,0.001018,-0.1328125,0.1660156,0.05273438,-2.265625,0.9921875,9.71875,-0.02539062,0.02929688,0.01367188,-0.02148438,0.0625,0,0.008056641,0.01660156,-1.606934,0,0,-2.227783,0,4.077,0,0,0,0,nan,2,0.062,1,128,0.1000061,0.1000061,0.1000061,0.1000061,0,0,0,1,2,0.5079365
604.244,0.00101,0.1113281,-0.1523438,-0.0234375,1.8125,-1.1875,9.984375,0.02148438,-0.03125,-0.01171875,-0.02148438,0.0625,0,0.008056641,0.01672363,-1.606934,0,0,-2.227783,0,4.077,0,0,0,0,nan,2,0.072,1,128,0.1000061,0.1000061,0.1000061,0.1000061,0,0,0,1,2,0.1587302
604.254,0.00101,-0.05664062,0.1074219,-0.001953125,-1.125,2.195312,9.226562,-0.005859375,0.01757812,0.0078125,-0.02148438,0.0625,0,0.008056641,0.01660156,-1.606934,0,0,-2.227783,0,4.077,0,0,0,0,nan,2,0.082,1,128,0.1000061,0.1000061,0.1000061,0.1000061,0,0,0,1,2,0.4603175
604.265,0.00101,0.046875,-0.1074219,0.02539062,0.875,-1.507812,10.3125,0.00390625,-0.01953125,-0.005859375,-0.02148438,0.0625,0,0.008056641,0.01660156,-1.606934,0,0,-2.227783,0,4.077,0,0,0,0,nan,2,0.092,1,128,0.1000061,0.1000061,0.1000061,0.1000061,0,0,0,1,2,0
604.275,0.00101,-0.03320312,0.08789062,-0.06054688,-0.28125,3,8.945312,0,0.0078125,-0.001953125,-0.02148438,0.0625,0,0.008056641,0.01647949,-1.606934,0,0,-2.227783,0,4.077,0,0,0,0,nan,2,0.102,1,128,0.1000061,0.1000061,0.1000061,0.1000061,0,0,0,1,2,0.2063492
604.285,0.00101,0.046875,-0.0703125,0.1035156,0.875,-0.7421875,8.84375,0.005859375,-0.01367188,0.02148438,-0.02148438,0.0625,0,0.008056641,0.01647949,-1.606934,0,0,-2.227783,0,4.077,0,0,0,0,nan,2,0.112,1,128,0.1000061,0.1000061,0.1000061,0.1000061,0,0,0,1,2,0
604.295,0.001011,-0.03320312,0.05859375,-0.1152344,-0.09375,0.5234375,10.53125,-0.001953125,0.009765625,-0.02734375,-0.02148438,0.0625,0,0.008056641,0.01647949,-1.606934,0,0,-2.227783,0,4.077,0,0,0,0,nan,2,0.122,1,128,0.1000061,0.1000061,0.1000061,0.1000061,0,0,0,1,2,0
604.305,0.001001,0.02734375,-0.06445312,0.1171875,0.65625,-0.40625,8.914062,0,-0.01367188,0.02734375,-0.02148438,0.0625,0,0.008056641,0.01647949,-1.606934,0,0,-2.227783,0,4.077,0,0,0,0,nan,2,0.132,1,128,0.1000061,0.1000061,0.1000061,0.1000061,0,0,0,1,2,0
604.315,0.00101,-0.02929688,0.06054688,-0.1230469,0.2734375,0.5234375,10.74219,-0.0078125,0.01171875,-0.03320312,-0.02148438,0.0625,0,0.00793457,0.01647949,-1.606934,0,0,-2.227783,0,4.077,0,0,0,0,nan,2,0.142,1,128,0.1000061,0.1000061,0.1000061,0.1000061,0,0,0,1,2,0
604.325,0.00101,0.02148438,-0.05664062,0.1132812,0.3828125,0.7734375,8.679688,0.00390625,-0.009765625,0.02929688,-0.02148438,0.0625,0,0.00793457,0.01647949,-1.606934,0,0,-2.227783,0,4.077,0,0,0,0,nan,2,0.152,1,128,0.1000061,0.1000061,0.1000061,0.1000061,0,0,0,1,2,0
604.334,0.00101,-0.01367188,0.04492188,-0.1113281,-0.296875,-1.367188,9.757812,-0.001953125,0.00390625,-0.005859375,-0.02148438,0.0625,0,0.00793457,0.01647949,-1.606934,0,0,-2.227783,0,4.077,0,0,0,0,nan,2,0.162,1,128,0.1000061,0.1000061,0.1000061,0.1000061,0,0,0,1,2,0.7619048
604.344,0.00101,0.001953125,-0.03710938,0.1015625,0.53125,0.171875,9.210938,0,0,0.0078125,-0.02148438,0.0625,0,0.00793457,0.01647949,-1.606934,0,0,-2.227783,0,4.077,0,0,0,0,nan,2,0.172,1,128,0.1000061,0.1000061,0.1000061,0.1000061,0,0,0,1,2,0
604.354,0.00101,-0.009765625,0.02929688,-0.08398438,-1.328125,-2.304688,10.05469,-0.005859375,0.005859375,-0.009765625,-0.02148438,0.0625,0,0.0078125,0.01647949,-1.606934,0,0,-2.227783,0,4.077,0,0,0,0,nan,2,0.182,1,128,0.1000061,0.1000061,0.1000061,0.1000061,0,0,0,1,2,0
604.365,0.00102,0.00390625,-0.02539062,0.06445312,1.695312,1.507812,9.328125,0.00390625,-0.01171875,0.0078125,-0.02148438,0.0625,0,0.0078125,0.01647949,-1.607056,0,0,-2.227783,0,4.077,0,0,0,0,nan,2,0.192,1,128,0.1000061,0.1000061,0.1000061,0.1000061,0,0,0,1,2,0.5714286
604.375,0.001035,-0.02734375,0.03125,-0.04296875,-2.179688,-2.445312,10.53125,-0.01171875,0.01171875,-0.0078125,-0.02148438,0.0625,0,0.0078125,0.01635742,-1.607056,0,0,-2.227783,0,4.077,0,0,0,0,nan,2,0.002,1,128,0.1000061,0.1000061,0.1000061,0.1000061,0,0,0,1,2,0
604.385,0.00101,-0.04492188,0.05078125,0.00390625,0.65625,1.117188,9.679688,0,-0.001953125,0,-0.02148438,0.0625,0,0.0078125,0.01635742,-1.607056,0,0,-2.227783,0,4.077,0,0,0,0,nan,2,0.012,1,128,0.1000061,0.1000061,0.1000061,0.1000061,0,0,0,1,2,0.9047619
604.395,0.001009,0.04296875,-0.06445312,0.01367188,-0.5546875,-1.164062,10.44531,-0.00390625,0.001953125,0,-0.02148438,0.0625,0,0.0078125,0.01635742,-1.607056,0,0,-2.227783,0,4.077,0,0,0,0,nan,2,0.022,1,128,0.1000061,0.1000061,0.1000061,0.1000061,0,0,0,1,2,0
604.405,0.001013,-0.06054688,0.08789062,-0.02929688,-0.1015625,0.5390625,9.367188,0,-0.0078125,-0.00390625,-0.02148438,0.0625,0,0.0078125,0.01623535,-1.607056,0,0,-2.227783,0,4.077,0,0,0,0,nan,2,0.032,1,128,0.1000061,0.1000061,0.1000061,0.1000061,0,0,0,1,2,0.0952381
604.415,0.00101,0.0625,-0.1171875,0.04296875,-0.46875,-0.8515625,9.835938,-0.00390625,-0.001953125,0.009765625,-0.02148438,0.0625,0,0.00769043,0.01635742,-1.607056,0,0,-2.227783,0,4.077,0,0,0,0,nan,2,0.042,1,128,0.1000061,0.1000061,0.1000061,0.1000061,0,0,0,1,2,0.6031746
604.425,0.00101,-0.078125,0.140625,-0.0546875,-0.0078125,1.046875,9.898438,0,-0.001953125,-0.01171875,-0.02148438,0.0625,0,0.00769043,0.01623535,-1.607056,0,0,-2.227783,0,4.077,0,0,0,0,nan,2,0.052,1,128,0.1000061,0.1000061,0.1000061,0.1000061,0,0,0,1,2,0.5873016
604.434,0.00101,-0.00390625,0.009765625,0.02734375,-3.390625,-0.6875,10.90625,-0.02539062,0.04101562,-0.001953125,-0.02148438,0.0625,0,0.00769043,0.01635742,-1.607056,0,0,-2.227783,0,4.077,0,0,0,0,nan,2,0.062,1,128,0.1000061,0.1000061,0.1000061,0.1000061,0,0,0,1,2,0
604.444,0.00101,-0.0234375,0.01953125,-0.03125,2.460938,-1.203125,9.445312,0.01953125,-0.04101562,0.001953125,-0.02148438,0.0625,0,0.00769043,0.01611328,-1.607056,0,0,-2.227783,0,4.077,0,0,0,0,nan,2,0.072,1,128,0.1000061,0.1000061,0.1000061,0.1000061,0,0,0,1,2,0.8730159
604.454,0.000982,0.03320312,-0.05664062,0.015625,-1.90625,1.15625,9.960938,-0.01953125,0.02734375,-0.009765625,-0.02148438,0.0625,0,0.007568359,0.01623535,-1.607056,0,0,-2.227783,0,4.077,0,0,0,0,nan,2,0.082,1,128,0.1000061,0.1000061,0.1000061,0.1000061,0,0,0,1,2,0.1428571
604.465,0.001016,-0.05664062,0.07226562,-0.001953125,0.6328125,-1.757812,9.742188,0.01171875,-0.02539062,0.01171875,-0.02148438,0.0625,0,0.00769043,0.01599121,-1.607056,0,0,-1.607056,0,4.077,0,0,0,0,nan,2,0.092,0,0,0,0,0,0,0,0,0,1,2,1
604.475,0.000958,0.05273438,-0.0703125,-0.02148438,-0.1953125,1.695312,9.515625,-0.0078125,0.01953125,-0.01367188,-0.02148438,0.0625,0,0.007568359,0.01611328,-1.607056,0,0,-1.607056,0,4.077,0,0,0,0,nan,2,0.102,0,0,0,0,0,0,0,0,0,1,2,1
604.485,0.001011,-0.0234375,0.01757812,0.05273438,0.390625,-1.835938,10.13281,0.005859375,-0.02148438,0.015625,-0.02148438,0.0625,0,0.007568359,0.01586914,-1.607056,0,0,-1.607056,0,4.077,0,0,0,0,nan,2,0.112,0,0,0,0,0,0,0,0,0,1,2,1
604.495,0.00102,0.0234375,-0.0625,-0.05078125,0.4765625,1.328125,9.546875,0.001953125,0,-0.01953125,-0.02148438,0.0625,0,0.00769043,0.01574707,-1.607056,0,0,-1.607056,0,4.077,0,0,0,0,nan,2,0.122,0,0,0,0,0,0,0,0,0,1,2,1
604.505,0.001014,-0.02148438,0.0078125,0.06835938,0.09375,-1.53125,9.765625,0,-0.01367188,0.0078125,-0.02148438,0.0625,0,0.00769043,0.015625,-1.607178,0,0,-1.607178,0,4.077,0,0,0,0,nan,2,0.132,0,0,0,0,0,0,0,0,0,1,2,1
604.515,0.001018,0.001953125,0.02148438,-0.02148438,-1.398438,-0.3046875,10.125,-0.00390625,0.009765625,0.01171875,-0.02148438,0.0625,0,0.007568359,0.01550293,-1.607056,0,0,-1.607056,0,4.077,0,0,0,0,nan,2,0.142,0,0,0,0,0,0,0,0,0,1,2,1
604.525,0.001011,0.0234375,-0.07617188,-0.06054688,2.007812,-0.1171875,10.07812,0.005859375,-0.02148438,-0.01953125,-0.02148438,0.0625,0,0.007568359,0.01550293,-1.607178,0,0,-1.607178,0,4.077,0,0,0,0,nan,2,0.152,0,0,0,0,0,0,0,0,0,1,2,1
604.534,0.001009,-0.01171875,-0.01953125,-0.001953125,1.421875,0.3828125,9.523438,0,-0.01953125,-0.01757812,-0.02148438,0.0625,0,0.007568359,0.01525879,-1.607178,0,0,-1.607178,0,4.077,0,0,0,0,nan,2,0.162,0,0,0,0,0,0,0,0,0,1,2,1
604.544,0.001009,-0.02148438,0.03710938,0.0703125,-1.453125,-0.3359375,9.195312,-0.0078125,-0.005859375,0.01171875,-0.02148438,0.0625,0,0.007446289,0.01513672,-1.607178,0,0,-1.607178,0,4.077,0,0,0,0,nan,2,0.172,0,0,0,0,0,0,0,0,0,1,2,1
604.555,0.000982,0.005859375,-0.02148438,0.0078125,-1.46875,1.453125,10.11719,-0.005859375,-0.01171875,0.015625,-0.02148438,0.0625,0,0.007324219,0.01489258,-1.607056,0,0,-1.607056,0,4.077,0,0,0,0,nan,2,0.182,0,0,0,0,0,0,0,0,0,1,2,1
604.565,0.00101,-0.03320312,-0.05273438,-0.0546875,-0.1015625,-0.140625,9.609375,-0.009765625,-0.0234375,-0.005859375,-0.02148438,0.0625,0,0.007324219,0.01464844,-1.607178,0,0,-1.607178,0,4.077,0,0,0,0,nan,2,0.192,0,0,0,0,0,0,0,0,0,1,2,1
604.575,0.000983,0.001953125,-0.0390625,-0.02929688,1.078125,-1.320312,9.632812,-0.00390625,-0.02734375,-0.01171875,-0.02148438,0.0625,0,0.007202148,0.0144043,-1.607178,0,0,-1.607178,0,4.077,0,0,0,0,nan,2,0.202,0,0,0,0,0,0,0,0,0,1,2,1
604.585,0.001011,0.02148438,0.005859375,0,1.109375,-0.8046875,9.757812,-0.00390625,-0.01171875,-0.0078125,-0.02148438,0.0625,0,0.007080078,0.01416016,-1.607178,0,0,-1.607178,0,4.077,0,0,0,0,nan,2,0.212,0,0,0,0,0,0,0,0,0,1,2,1
604.595,0.000991,0.015625,0.03125,0.01367188,-0.1953125,0.578125,9.875,0.01171875,-0.001953125,0.00390625,-0.02148438,0.0625,0,0.006958008,0.01403809,-1.607178,0,0,-1.607178,0,4.077,0,0,0,0,nan,2,0.007,0,0,0,0,0,0,0,0,0,1,2,1
604.605,0.001004,0.001953125,0.01367188,-0.001953125,-0.390625,2.039062,9.734375,0.01367188,0.009765625,0.00390625,-0.02148438,0.0625,0,0.006958008,0.01403809,-1.607178,0,0,-1.607178,0,4.077,0,0,0,0,nan,2,0.017,0,0,0,0,0,0,0,0,0,1,2,1
604.615,0.00103,-0.0390625,0.00390625,-0.0234375,-0.5234375,1.796875,9.6875,0.00390625,0.015625,-0.00390625,-0.02148438,0.0625,0,0.006958008,0.01403809,-1.607178,0,0,-1.607178,0,4.077,0,0,0,0,nan,2,0.027,0,0,0,0,0,0,0,0,0,1,2,1
604.624,0.001047,-0.02929688,0.015625,-0.02929688,0.125,1.59375,10.05469,0.01171875,0.009765625,-0.001953125,-0.02148438,0.0625,0,0.006958008,0.01403809,-1.607178,0,0,-1.607178,0,4.077,0,0,0,0,nan,2,0.036,0,0,0,0,0,0,0,0,0,1,2,1
604.634,0.001005,-0.02734375,-0.01367188,-0.04296875,0.2421875,1.828125,10.07812,0,0.01757812,-0.0078125,-0.02148438,0.0625,0,0.006958008,0.01403809,-1.607178,0,0,-1.607178,0,4.077,0,0,0,0,nan,2,0.046,0,0,0,0,0,0,0,0,0,1,2,1
604.644,0.00101,-0.04296875,-0.009765625,-0.0546875,0.578125,1.617188,9.515625,0,0.009765625,-0.01171875,-0.02148438,0.0625,0,0.006958008,0.01416016,-1.607178,0,0,-1.607178,0,4.077,0,0,0,0,nan,2,0.057,0,0,0,0,0,0,0,0,0,1,2,1
604.654,0.00101,-0.04882812,-0.02148438,-0.05664062,0.828125,1.476562,9.6875,-0.001953125,0.00390625,-0.01171875,-0.02148438,0.0625,0,0.006958008,0.01416016,-1.607178,0,0,-1.607178,0,4.077,0,0,0,0,nan,2,0.067,0,0,0,0,0,0,0,0,0,1,2,1
604.665,0.001009,-0.04882812,-0.02148438,-0.0625,0.6796875,0.9609375,9.640625,-0.00390625,0.001953125,-0.01171875,-0.02148438,0.0625,0,0.006835938,0.01416016,-1.607178,0,0,-1.607178,0,4.077,0,0,0,0,nan,2,0.077,0,0,0,0,0,0,0,0,0,1,2,1
604.675,0.001009,-0.0390625,-0.02929688,-0.05859375,0.84375,0.9296875,9.953125,0,0,-0.005859375,-0.02148438,0.0625,0,0.006835938,0.01428223,-1.607178,0,0,-1.607178,0,4.077,0,0,0,0,nan,2,0.087,0,0,0,0,0,0,0,0,0,1,2,1
604.685,0.001009,-0.04101562,-0.02929688,-0.046875,0.71875,0.1953125,9.679688,0,-0.001953125,0.00390625,-0.02148438,0.0625,0,0.006835938,0.01428223,-1.607178,0,0,-1.607178,0,4.077,0,0,0,0,nan,2,0.097,0,0,0,0,0,0,0,0,0,1,2,1
604.695,0.001015,-0.04882812,-0.03710938,-0.04492188,0.765625,0.546875,9.789062,-0.005859375,-0.0078125,0.005859375,-0.02148438,0.0625,0,0.006835938,0.01428223,-1.607178,0,0,-1.607178,0,4.077,0,0,0,0,nan,2,0.107,0,0,0,0,0,0,0,0,0,1,2,1
604.705,0.001014,-0.0390625,-0.04882812,0,0.203125,0.171875,9.523438,0.001953125,-0.005859375,0.01953125,-0.02148438,0.0625,0,0.006835938,0.01428223,-1.607178,0,0,-1.607178,0,4.077,0,0,0,0,nan,2,0.117,0,0,0,0,0,0,0,0,0,1,2,1
604.715,0.000989,-0.02929688,-0.0390625,0.0390625,-0.46875,-0.34375,9.59375,0.005859375,0.00390625,0.01953125,-0.02148438,0.0625,0,0.006835938,0.01428223,-1.607178,0,0,-1.607178,0,4.077,0,0,0,0,nan,2,0.127,0,0,0,0,0,0,0,0,0,1,2,1
604.725,0.00101,-0.00390625,-0.009765625,0.05273438,-0.5703125,0.328125,10.10156,0.01171875,0.015625,0.009765625,-0.02148438,0.0625,0,0.006713867,0.01428223,-1.6073,0,0,-1.6073,0,4.077,0,0,0,0,nan,2,0.137,0,0,0,0,0,0,0,0,0,1,2,1
604.734,0.001012,0.03125,0.04296875,-0.005859375,-0.203125,-0.0078125,10.15625,0.01367188,0.01953125,-0.01953125,-0.02148438,0.0625,0,0.006713867,0.01416016,-1.6073,0,0,-1.6073,0,4.077,0,0,0,0,nan,2,0.146,0,0,0,0,0,0,0,0,0,1,2,1
604.744,0.000969,0.03515625,0.02148438,-0.04296875,0.8359375,-0.484375,9.609375,-0.001953125,0.001953125,-0.01367188,-0.02148438,0.0625,0,0.006591797,0.01428223,-1.6073,0,0,-1.6073,0,4.077,0,0,0,0,nan,2,0.157,0,0,0,0,0,0,0,0,0,1,2,1
604.754,0.001009,0.005859375,0.005859375,-0.03515625,0.0625,-0.28125,8.875,-0.01757812,-0.009765625,0.001953125,-0.02148438,0.0625,0,0.006591797,0.01416016,-1.607178,0,0,-1.607178,0,4.077,0,0,0,0,nan,2,0.167,0,0,0,0,0,0,0,0,0,1,2,1
604.764,0.000953,-0.03320312,-0.015625,0.02148438,0.171875,-0.0078125,9.546875,-0.02539062,-0.01757812,0.01171875,-0.02148438,0.0625,0,0.006591797,0.01416016,-1.6073,0,0,-1.6073,0,4.077,0,0,0,0,nan,2,0.177,0,0,0,0,0,0,0,0,0,1,2,1
604.775,0.001009,-0.0625,-0.05273438,0.02734375,-0.2734375,0.2734375,9.335938,-0.01367188,-0.0078125,0.001953125,-0.02148438,0.0625,0,0.006591797,0.01428223,-1.6073,0,0,-1.6073,0,4.077,0,0,0,0,nan,2,0.187,0,0,0,0,0,0,0,0,0,1,2,1
604.785,0.001014,-0.0234375,-0.02539062,-0.01171875,-0.046875,-0.7265625,9.828125,0.01171875,0.005859375,-0.01367188,-0.02148438,0.0625,0,0.006591797,0.01416016,-1.6073,0,0,-1.6073,0,4.077,0,0,0,0,nan,2,0.197,0,0,0,0,0,0,0,0,0,1,2,1
604.795,0.000996,0.015625,0.01367188,-0.02734375,-0.4296875,-0.546875,10.01562,0.01953125,0.01367188,-0.0078125,-0.02148438,0.0625,0,0.006591797,0.01416016,-1.6073,0,0,-1.6073,0,4.077,0,0,0,0,nan,2,0.007,0,0,0,0,0,0,0,0,0,1,2,1
604.805,0.001021,0.04492188,0.02734375,0.0078125,-0.109375,0.1796875,9.59375,0.009765625,0.0078125,0.005859375,-0.02148438,0.0625,0,0.006469727,0.01403809,-1.6073,0,0,-1.6073,0,4.077,0,0,0,0,nan,2,0.017,0,0,0,0,0,0,0,0,0,1,2,1
604.815,0.001008,-0.00390625,-0.005859375,0.01171875,0.71875,0.4921875,9.742188,-0.01757812,-0.01367188,0,-0.02148438,0.0625,0,0.006469727,0.01403809,-1.607422,0,0,-1.607422,0,4.077,0,0,0,0,nan,2,0.027,0,0,0,0,0,0,0,0,0,1,2,1
604.825,0.00101,-0.03125,-0.01171875,-0.00390625,-0.3671875,-0.265625,10.02344,-0.0078125,-0.009765625,-0.00390625,-0.02148438,0.0625,0,0.006469727,0.01403809,-1.607422,0,0,-1.607422,0,4.077,0,0,0,0,nan,2,0.037,0,0,0,0,0,0,0,0,0,1,2,1
604.834,0.001019,0.02539062,0.00390625,0.00390625,-0.453125,-0.0703125,10.01562,0.015625,0.005859375,0.00390625,-0.02148438,0.0625,0,0.006469727,0.01391602,-1.607422,0,0,-1.607422,0,4.077,0,0,0,0,nan,2,0.046,0,0,0,0,0,0,0,0,0,1,2,1
604.844,0.001024,0.01757812,0.01953125,0.00390625,0.265625,0.5390625,9.820312,-0.00390625,0.005859375,-0.00390625,-0.02148438,0.0625,0,0.006347656,0.01391602,-1.607422,0,0,-1.607422,0,4.077,0,0,0,0,nan,2,0.057,0,0,0,0,0,0,0,0,0,1,2,1
604.854,0.000991,-0.03515625,0.005859375,-0.0078125,-0.265625,-0.625,9.789062,-0.01367188,0.005859375,0,-0.02148438,0.0625,0,0.006469727,0.01391602,-1.607422,0,0,-1.607422,0,4.077,0,0,0,0,nan,2,0.067,0,0,0,0,0,0,0,0,0,1,2,1
604.864,0.00101,-0.005859375,0.01171875,0.01171875,-0.8828125,0,9.90625,0.005859375,0.0078125,0.001953125,-0.02148438,0.0625,0,0.006469727,0.01391602,-1.607422,0,0,-1.607422,0,4.077,0,0,0,0,nan,2,0.077,0,0,0,0,0,0,0,0,0,1,2,1
604.875,0.00101,0.01757812,0.01171875,-0.015625,0.609375,0.3984375,10.20312,0.0078125,0.005859375,-0.009765625,-0.02148438,0.0625,0,0.006347656,0.01391602,-1.607422,0,0,-1.607422,0,4.077,0,0,0,0,nan,2,0.087,0,0,0,0,0,0,0,0,0,1,2,1
604.885,0.00101,-0.015625,-0.01171875,0.00390625,-0.1328125,-0.4140625,9.789062,-0.009765625,-0.001953125,0.0078125,-0.02148438,0.0625,0,0.006347656,0.01403809,-1.607422,0,0,-1.607422,0,4.077,0,0,0,0,nan,2,0.097,0,0,0,0,0,0,0,0,0,1,2,1
604.895,0.001009,-0.01757812,0.001953125,0.01757812,-0.953125,-0.171875,9.8125,-0.00390625,0,-0.001953125,-0.02148438,0.0625,0,0.006347656,0.01391602,-1.607422,0,0,-1.607422,0,4.077,0,0,0,0,nan,2,0.107,0,0,0,0,0,0,0,0,0,1,2,1
604.905,0.001013,0.01171875,0.0078125,-0.02734375,0.78125,0.2109375,9.679688,0.0078125,0.00390625,-0.0078125,-0.02148438,0.0625,0,0.006225586,0.01391602,-1.607422,0,0,-1.607422,0,4.077,0,0,0,0,nan,2,0.117,0,0,0,0,0,0,0,0,0,1,2,1
604.915,0.00101,-0.00390625,0.00390625,0.02929688,-0.640625,-0.515625,9.71875,-0.001953125,0.001953125,0.015625,-0.02148438,0.0625,0,0.006225586,0.01391602,-1.607422,0,0,-1.607422,0,4.077,0,0,0,0,nan,2,0.127,0,0,0,0,0,0,0,0,0,1,2,1
604.925,0.001007,-0.001953125,-0.0078125,-0.0234375,-0.0546875,0.375,9.578125,0.00390625,0.001953125,-0.02148438,-0.02148438,0.0625,0,0.006225586,0.01379395,-1.607544,0,0,-1.607544,0,4.077,0,0,0,0,nan,2,0.137,0,0,0,0,0,0,0,0,0,1,2,1
604.935,0.00101,0.01171875,0.00390625,0,0.4921875,-0.2109375,10.07031,-0.001953125,0.005859375,0.015625,-0.02148438,0.0625,0,0.006225586,0.01391602,-1.607422,0,0,-1.607422,0,4.077,0,0,0,0,nan,2,0.147,0,0,0,0,0,0,0,0,0,1,2,1
604.944,0.001011,-0.005859375,0,0.00390625,-0.515625,0.5,10.01562,-0.005859375,-0.001953125,-0.015625,-0.02148438,0.0625,0,0.006225586,0.01379395,-1.607544,0,0,-1.607544,0,4.077,0,0,0,0,nan,2,0.157,0,0,0,0,0,0,0,0,0,1,2,1
604.954,0.001011,0.01171875,-0.0078125,-0.02734375,0.7734375,-0.078125,9.703125,0.001953125,-0.001953125,0.005859375,-0.02148438,0.0625,0,0.006225586,0.01379395,-1.607422,0,0,-1.607422,0,4.077,0,0,0,0,nan,2,0.167,0,0,0,0,0,0,0,0,0,1,2,1
604.964,0.001011,-0.0234375,-0.005859375,0.04101562,-0.5625,0.03125,9.84375,-0.0078125,-0.00390625,0.001953125,-0.02148438,0.0625,0,0.006225586,0.01367188,-1.607544,0,0,-1.607544,0,4.077,0,0,0,0,nan,2,0.177,0,0,0,0,0,0,0,0,0,1,2,1
604.975,0.001011,-0.005859375,0.00390625,-0.05273438,0.3359375,0.1484375,9.867188,0,-0.001953125,-0.01171875,-0.02148438,0.0625,0,0.006103516,0.01367188,-1.607422,0,0,-1.607422,0,4.077,0,0,0,0,nan,2,0.187,0,0,0,0,0,0,0,0,0,1,2,1
604.985,0.001008,-0.01171875,0.001953125,0.06445312,-0.7578125,0.359375,9.945312,-0.005859375,-0.00390625,0.02148438,-0.02148438,0.0625,0,0.006103516,0.0135498,-1.607544,0,0,-1.607544,0,4.077,0,0,0,0,nan,2,0.197,0,0,0,0,0,0,0,0,0,1,2,1
604.995,0.0009860001,-0.00390625,-0.01757812,-0.06445312,0.5234375,-0.2109375,9.492188,-0.001953125,-0.005859375,-0.03320312,-0.02148438,0.0625,0,0.005981445,0.0135498,-1.607422,0,0,-1.607422,0,4.077,0,0,0,0,nan,2,0.004,0,0,0,0,0,0,0,0,0,1,2,1
605.005,0.001008,0.001953125,0.0078125,0.05859375,-0.359375,-0.078125,10.32812,-0.001953125,-0.001953125,0.0390625,-0.02148438,0.0625,0,0.005981445,0.01342773,-1.607544,0,0,-1.607544,0,4.077,0,0,0,0,nan,2,0.014,0,0,0,0,0,0,0,0,0,1,2,1
605.015,0.000981,0.00390625,-0.01367188,-0.0625,0.421875,-0.1796875,9.75,-0.001953125,-0.005859375,-0.04296875,-0.02148438,0.0625,0,0.005859375,0.01330566,-1.607544,0,0,-1.607544,0,4.077,0,0,0,0,nan,2,0.024,0,0,0,0,0,0,0,0,0,1,2,1
605.025,0.001008,-0.001953125,0.01953125,0.05664062,-0.3203125,-0.140625,10.00781,-0.0078125,0.00390625,0.04296875,-0.02148438,0.0625,0,0.005859375,0.01330566,-1.607544,0,0,-1.607544,0,4.077,0,0,0,0,nan,2,0.034,0,0,0,0,0,0,0,0,0,1,2,1
605.035,0.001011,-0.00390625,-0.009765625,-0.0625,0.265625,-0.0234375,9.882812,-0.001953125,-0.0078125,-0.04492188,-0.02148438,0.0625,0,0.005737305,0.01318359,-1.607544,0,0,-1.607544,0,4.077,0,0,0,0,nan,2,0.044,0,0,0,0,0,0,0,0,0,1,2,1
605.044,0.001009,-0.015625,0.001953125,0.07617188,-0.171875,-0.34375,9.265625,-0.005859375,-0.001953125,0.04296875,-0.02148438,0.0625,0,0.005737305,0.01318359,-1.607544,0,0,-1.607544,0,4.077,0,0,0,0,nan,2,0.053,0,0,0,0,0,0,0,0,0,1,2,1
605.054,0.001009,0.001953125,-0.0078125,-0.078125,0.1640625,-0.0078125,9.859375,0.001953125,-0.005859375,-0.0390625,-0.02148438,0.0625,0,0.005737305,0.01306152,-1.607422,0,0,-1.607422,0,4.077,0,0,0,0,nan,2,0.064,0,0,0,0,0,0,0,0,0,1,2,1
605.064,0.001009,-0.009765625,0.015625,0.08007812,-0.6953125,0.203125,10.35938,-0.00390625,0.00390625,0.03515625,-0.02148438,0.0625,0,0.005737305,0.01293945,-1.607666,0,0,-1.607666,0,4.077,0,0,0,0,nan,2,0.074,0,0,0,0,0,0,0,0,0,1,2,1
605.075,0.001009,0.001953125,-0.01953125,-0.08007812,0.09375,-0.109375,9.304688,0.001953125,-0.005859375,-0.02734375,-0.02148438,0.0625,0,0.005615234,0.01293945,-1.607422,0,0,-1.607422,0,4.077,0,0,0,0,nan,2,0.084,0,0,0,0,0,0,0,0,0,1,2,1
605.085,0.001009,-0.01171875,0,0.07617188,-0.1484375,-0.1171875,9.578125,-0.00390625,-0.001953125,0.01953125,-0.02148438,0.0625,0,0.005615234,0.01281738,-1.607666,0,0,-1.607666,0,4.077,0,0,0,0,nan,2,0.094,0,0,0,0,0,0,0,0,0,1,2,1
605.095,0.001009,0.01171875,-0.009765625,-0.07617188,0.1015625,0.203125,9.945312,0.001953125,0,-0.01367188,-0.02148438,0.0625,0,0.005615234,0.01293945,-1.607422,0,0,-1.607422,0,4.077,0,0,0,0,nan,2,0.104,0,0,0,0,0,0,0,0,0,1,2,1
605.105,0.00101,0.005859375,0.005859375,0.0546875,-0.1171875,0.140625,10.20312,0,0.001953125,-0.00390625,-0.02148438,0.0625,0,0.005493164,0.01281738,-1.607788,0,0,-1.607788,0,4.077,0,0,0,0,nan,2,0.114,0,0,0,0,0,0,0,0,0,1,2,1
605.115,0.001006,0.01757812,0.015625,-0.02734375,-0.46875,0.2734375,9.84375,0,0.009765625,0.01953125,-0.02148438,0.0625,0,0.005493164,0.01281738,-1.607422,0,0,-1.607422,0,4.077,0,0,0,0,nan,2,0.124,0,0,0,0,0,0,0,0,0,1,2,1
605.125,0.001008,-0.001953125,0.00390625,-0.0078125,0.1640625,-0.2578125,9.757812,-0.001953125,0.001953125,-0.0390625,-0.02148438,0.0625,0,0.005493164,0.01281738,-1.607788,0,0,-1.607788,0,4.077,0,0,0,0,nan,2,0.134,0,0,0,0,0,0,0,0,0,1,2,1
605.135,0.001009,-0.0078125,0.02929688,0.04101562,-0.6484375,0.28125,10.04688,-0.005859375,0.01367188,0.05078125,-0.02148438,0.0625,0,0.005493164,0.01281738,-1.607544,0,0,-1.607544,0,4.077,0,0,0,0,nan,2,0.144,0,0,0,0,0,0,0,0,0,1,2,1
605.144,0.00101,-0.00390625,0.001953125,-0.078125,0.1796875,-0.0546875,9.953125,0.0078125,0,-0.046875,-0.02148438,0.0625,0,0.005493164,0.01293945,-1.607544,0,0,-1.607544,0,4.077,0,0,0,0,nan,2,0.153,0,0,0,0,0,0,0,0,0,1,2,1
605.154,0.00101,0.00390625,0.001953125,0.07421875,-0.015625,-0.3984375,9.851562,0.001953125,0.001953125,0.02734375,-0.02148438,0.0625,0,0.005493164,0.01281738,-1.607788,0,0,-1.607788,0,4.077,0,0,0,0,nan,2,0.164,0,0,0,0,0,0,0,0,0,1,2,1
605.164,0.00101,0.01367188,-0.00390625,-0.05078125,-0.03125,0.3515625,9.257812,0,0.0078125,-0.001953125,-0.02148438,0.0625,0,0.005493164,0.01281738,-1.607422,0,0,-1.607422,0,4.077,0,0,0,0,nan,2,0.174,0,0,0,0,0,0,0,0,0,1,2,1
605.175,0.00101,-0.01171875,0.009765625,0.01171875,0.2109375,-0.40625,9.679688,-0.0078125,0.00390625,-0.02148438,-0.02148438,0.0625,0,0.005493164,0.01281738,-1.607788,0,0,-1.607788,0,4.077,0,0,0,0,nan,2,0.184,0,0,0,0,0,0,0,0,0,1,2,1
605.185,0.001001,-0.01171875,0.001953125,0.02734375,-0.421875,0.3359375,9.859375,-0.001953125,0.001953125,0.03710938,-0.02148438,0.0625,0,0.005371094,0.01281738,-1.607544,0,0,-1.607544,0,4.077,0,0,0,0,nan,2,0.194,0,0,0,0,0,0,0,0,0,1,2,1
605.195,0.001024,0.005859375,-0.01757812,-0.0390625,0.515625,0.0859375,9.8125,0.0078125,-0.005859375,-0.03125,-0.02148438,0.0625,0,0.005493164,0.01281738,-1.607544,0,0,-1.607544,0,4.077,0,0,0,0,nan,2,0.006,0,0,0,0,0,0,0,0,0,1,2,1
605.205,0.001017,0.01171875,0,0.046875,0.09375,-0.3046875,10.29688,0,-0.001953125,0.0234375,-0.02148438,0.0625,0,0.005371094,0.01269531,-1.607666,0,0,-1.607666,0,4.077,0,0,0,0,nan,2,0.016,0,0,0,0,0,0,0,0,0,1,2,1
605.215,0.000981,0,-0.00390625,-0.02539062,-0.1171875,0.7109375,9.554688,-0.005859375,0.001953125,-0.001953125,-0.02148438,0.0625,0,0.005249023,0.01269531,-1.607422,0,0,-1.607422,0,4.077,0,0,0,0,nan,2,0.026,0,0,0,0,0,0,0,0,0,1,2,1
605.225,0.001037,-0.009765625,-0.00390625,-0.001953125,0.1328125,-0.3671875,9.898438,-0.001953125,-0.009765625,-0.015625,-0.02148438,0.0625,0,0.005371094,0.01269531,-1.607666,0,0,-1.607666,0,4.077,0,0,0,0,nan,2,0.036,0,0,0,0,0,0,0,0,0,1,2,1
605.235,0.000995,0.015625,-0.001953125,0.015625,-0.265625,0.0625,10.17969,0.00390625,-0.00390625,0.015625,-0.02148438,0.0625,0,0.005126953,0.01257324,-1.607544,0,0,-1.607544,0,4.077,0,0,0,0,nan,2,0.046,0,0,0,0,0,0,0,0,0,1,2,1
605.244,0.001007,-0.009765625,0.005859375,-0.015625,-0.1171875,0.640625,10.00781,0,0.00390625,-0.005859375,-0.02148438,0.0625,0,0.005249023,0.01257324,-1.607544,0,0,-1.607544,0,4.077,0,0,0,0,nan,2,0.056,0,0,0,0,0,0,0,0,0,1,2,1
605.254,0.000997,-0.015625,0.01367188,0.001953125,0.0078125,-0.46875,10.16406,-0.0078125,0.001953125,-0.001953125,-0.02148438,0.0625,0,0.005249023,0.01257324,-1.607544,0,0,-1.607544,0,4.077,0,0,0,0,nan,2,0.066,0,0,0,0,0,0,0,0,0,1,2,1
605.265,0.001012,0.001953125,-0.001953125,0.001953125,-0.1796875,0.2890625,9.578125,-0.001953125,-0.001953125,0.00390625,-0.02148438,0.0625,0,0.005126953,0.01245117,-1.607544,0,0,-1.607544,0,4.077,0,0,0,0,nan,2,0.076,0,0,0,0,0,0,0,0,0,1,2,1
605.275,0.001008,0.001953125,-0.00390625,0.001953125,0.03125,0.2421875,9.695312,0.001953125,-0.00390625,0,-0.02148438,0.0625,0,0.005126953,0.01245117,-1.607544,0,0,-1.607544,0,4.077,0,0,0,0,nan,2,0.086,0,0,0,0,0,0,0,0,0,1,2,1
605.285,0.00101,0.001953125,-0.01367188,0,-0.2109375,-0.4609375,9.859375,0,-0.00390625,0,-0.02148438,0.0625,0,0.005126953,0.0123291,-1.607544,0,0,-1.607544,0,4.077,0,0,0,0,nan,2,0.096,0,0,0,0,0,0,0,0,0,1,2,1
605.295,0.00101,0.009765625,0.001953125,0.001953125,0.0078125,0.2578125,9.898438,0.001953125,-0.001953125,0,-0.02148438,0.0625,0,0.005004883,0.0123291,-1.607544,0,0,-1.607544,0,4.077,0,0,0,0,nan,2,0.106,0,0,0,0,0,0,0,0,0,1,2,1
605.305,0.001006,0.005859375,0.001953125,0.005859375,-0.2421875,0.3125,9.953125,0.001953125,0,0,-0.02148438,0.0625,0,0.005126953,0.0123291,-1.607544,0,0,-1.607544,0,4.077,0,0,0,0,nan,2,0.116,0,0,0,0,0,0,0,0,0,1,2,1
605.315,0.000999,-0.0078125,0.01171875,0.00390625,-0.140625,-0.1953125,9.492188,-0.0078125,0.00390625,0.001953125,-0.02148438,0.0625,0,0.005004883,0.0123291,-1.607544,0,0,-1.607544,0,4.077,0,0,0,0,nan,2,0.126,0,0,0,0,0,0,0,0,0,1,2,1
605.325,0.001011,-0.01367188,0.00390625,-0.001953125,-0.015625,-0.0703125,9.828125,-0.001953125,0,0,-0.02148438,0.0625,0,0.005004883,0.01220703,-1.607544,0,0,-1.607544,0,4.077,0,0,0,0,nan,2,0.136,0,0,0,0,0,0,0,0,0,1,2,1
605.335,0.001002,-0.005859375,-0.005859375,-0.0078125,-0.0546875,-0.4296875,10.51562,-0.001953125,-0.00390625,-0.005859375,-0.02148438,0.0625,0,0.005004883,0.01220703,-1.607544,0,0,-1.607544,0,4.077,0,0,0,0,nan,2,0.146,0,0,0,0,0,0,0,0,0,1,2,1
605.344,0.001009,0.005859375,-0.005859375,0.01171875,-0.328125,-0.0859375,9.828125,0.001953125,0,0.001953125,-0.02148438,0.0625,0,0.005004883,0.01220703,-1.607544,0,0,-1.607544,0,4.077,0,0,0,0,nan,2,0.156,0,0,0,0,0,0,0,0,0,1,2,1
605.355,0.002658,-0.005859375,-0.01171875,0.0078125,0.1640625,-0.1484375,9.3125,-0.001953125,-0.005859375,0.005859375,-0.02148438,0.0625,0,0.005004883,0.01208496,-1.607544,0,0,-1.607544,0,4.077,0,0,0,0,nan,2,0.166,0,0,0,0,0,0,0,0,0,1,2,1
605.364,0.001009,0.001953125,0.01367188,-0.001953125,-0.1328125,-0.0078125,9.992188,0.001953125,0,-0.001953125,-0.02148438,0.0625,0,0.004882812,0.01208496,-1.607544,0,0,-1.607544,0,4.077,0,0,0,0,nan,2,0.176,0,0,0,0,0,0,0,0,0,1,2,1
605.375,0.001009,-0.01171875,0.015625,-0.001953125,-0.2421875,-0.0703125,9.828125,0,0.00390625,-0.005859375,-0.02148438,0.0625,0,0.004882812,0.01208496,-1.607544,0,0,-1.607544,0,4.077,0,0,0,0,nan,2,0.186,0,0,0,0,0,0,0,0,0,1,2,1
605.385,0.000984,0.00390625,0,-0.001953125,-0.0625,0.0625,9.992188,-0.001953125,0.005859375,0,-0.02148438,0.0625,0,0.004882812,0.01208496,-1.607666,0,0,-1.607666,0,4.077,0,0,0,0,nan,2,0.196,0,0,0,0,0,0,0,0,0,1,2,1
605.395,0.001009,0,-0.00390625,0.005859375,-0.0703125,-0.0625,9.734375,-0.001953125,0.00390625,0.001953125,-0.02148438,0.0625,0,0.004882812,0.01208496,-1.607544,0,0,-1.607544,0,4.077,0,0,0,0,nan,2,0.206,0,0,0,0,0,0,0,0,0,1,2,1
605.405,0.001001,-0.01367188,-0.015625,0,0.15625,-0.1015625,9.148438,-0.0078125,0,0,-0.02148438,0.0625,0,0.004882812,0.01208496,-1.607544,0,0,-1.607544,0,4.077,0,0,0,0,nan,2,0.216,0,0,0,0,0,0,0,0,0,1,2,1
605.415,0.0009860001,-0.01367188,0.001953125,-0.00390625,-0.171875,-0.1484375,9.6875,-0.005859375,0.001953125,-0.00390625,-0.02148438,0.0625,0,0.004882812,0.01208496,-1.607666,0,0,-1.607666,0,4.077,0,0,0,0,nan,2,0.006,0,0,0,0,0,0,0,0,0,1,2,1
605.425,0.000964,-0.0078125,0.005859375,0.0078125,-0.1796875,0.21875,9.710938,-0.00390625,0.001953125,0,-0.02148438,0.0625,0,0.004882812,0.01208496,-1.607666,0,0,-1.607666,0,4.077,0,0,0,0,nan,2,0.016,0,0,0,0,0,0,0,0,0,1,2,1
605.435,0.00101,0.001953125,-0.005859375,0.00390625,-0.0703125,0.125,9.6875,0,-0.001953125,0,-0.02148438,0.0625,0,0.004760742,0.01208496,-1.607666,0,0,-1.607666,0,4.077,0,0,0,0,nan,2,0.026,0,0,0,0,0,0,0,0,0,1,2,1
605.444,0.000963,-0.01367188,-0.015625,-0.001953125,-0.3125,-0.2421875,9.851562,-0.00390625,-0.00390625,0,-0.02148438,0.0625,0,0.004760742,0.01196289,-1.607666,0,0,-1.607666,0,4.077,0,0,0,0,nan,2,0.035,0,0,0,0,0,0,0,0,0,1,2,1
605.454,0.001009,-0.015625,-0.009765625,-0.001953125,-0.015625,0.078125,9.984375,-0.00390625,-0.001953125,0,-0.02148438,0.0625,0,0.004760742,0.01196289,-1.607666,0,0,-1.607666,0,4.077,0,0,0,0,nan,2,0.045,0,0,0,0,0,0,0,0,0,1,2,1
