t,dt_s,gyro_x,gyro_y,gyro_z,acc_x,acc_y,acc_z,rates.x,rates.y,rates.z,ratesTarget.x,ratesTarget.y,ratesTarget.z,attitude.x,attitude.y,attitude.z,attitudeTarget.x,attitudeTarget.y,attitudeTarget.z,thrustTarget,battery_v,rc_roll,rc_pitch,rc_yaw,rc_throttle,rc_mode,flight_mode,rc_age_s,armed,fault_mask,motor_rl,motor_rr,motor_fr,motor_fl,rate_i_x,rate_i_y,rate_i_z,mix_scale,control_source,accel_correction_confidence
3717.813,0.001003,0.07226562,0.09960938,0.1289062,-6.65625,1.90625,12.625,0.0078125,-0.001953125,0.1054688,-0.03125,-0.03125,0,0.005126953,0.005249023,2.755371,0,0,2.565552,0.3736877,3.491,0,0,0,0.375,nan,2,0.007,1,128,0.3874207,0.3278503,0.4592896,0.3201599,-0.01367188,-0.008789062,-0.001953125,1,2,0
3717.823,0.001009,-0.109375,0.0703125,0.07617188,3.601562,0.78125,3.953125,-0.0546875,0.1347656,0.08789062,-0.03125,-0.03515625,0,0.005371094,0.005737305,2.756348,0,0,2.565552,0.3736877,3.491,0,0,0,0.375,nan,2,0.017,1,128,0.3494568,0.3260498,0.4216919,0.3975525,-0.01367188,-0.008789062,-0.001953125,1,2,0
3717.833,0.001009,-0.03320312,-0.09375,0.1113281,3.375,0.125,1.710938,-0.005859375,-0.02734375,0.1132812,-0.03125,-0.03125,0,0.005249023,0.005249023,2.757446,0,0,2.565552,0.3736877,3.491,0,0,0,0.375,nan,2,0.027,1,128,0.3830261,0.3426819,0.4318542,0.3371887,-0.01367188,-0.008789062,-0.001953125,1,2,0
3717.842,0.001011,-0.09765625,0.2148438,0.08398438,-6.789062,1.101562,4.179688,-0.06640625,-0.04101562,0.1015625,-0.02929688,-0.02929688,0,0.004882812,0.004760742,2.758423,0,0,2.565552,0.3736877,3.491,0,0,0,0.375,nan,2,0.036,1,128,0.3754578,0.3509827,0.4104309,0.3578491,-0.01367188,-0.008789062,-0.001953125,1,2,0
3717.852,0.001007,0.1484375,0.3242188,0.1210938,-6.140625,-2.046875,5.523438,0.1308594,0.1171875,0.1035156,-0.03320312,-0.03320312,0,0.005615234,0.005371094,2.759521,0,0,2.565552,0.3736877,3.491,0,0,0,0.375,nan,2,0.046,1,128,0.3334045,0.35495,0.4655151,0.3408813,-0.01367188,-0.008789062,-0.001953125,1,2,0
3717.862,0.00104,0.1054688,0.359375,0.1328125,-1.671875,-2.867188,9.757812,0.03710938,0.1074219,0.1191406,-0.03320312,-0.03515625,0,0.005371094,0.005981445,2.760742,0,0,2.565552,0.3778992,3.491,0,0,0,0.3800049,nan,2,0.006,1,128,0.3593445,0.3362732,0.4805603,0.3354187,-0.01367188,-0.008789062,-0.001953125,1,2,0
3717.873,0.00105,-0.4140625,-0.2890625,0.1542969,7.851562,-0.0234375,1.359375,-0.1972656,-0.08984375,0.1230469,-0.02734375,-0.03710938,0,0.004516602,0.006103516,2.761841,0,0,2.565552,0.3778992,3.491,0,0,0,0.3800049,nan,2,0.016,1,128,0.4614563,0.3216553,0.3990479,0.3294373,-0.01367188,-0.008789062,-0.001953125,1,2,0
3717.882,0.001009,-0.015625,-0.02148438,0.1503906,3.351562,3.476562,1.34375,0.01757812,-0.009765625,0.1015625,-0.02148438,-0.03515625,0,0.003662109,0.005859375,2.762939,0,0,2.565552,0.3778992,3.491,0,0,0,0.3800049,nan,2,0.026,1,128,0.3625183,0.3696289,0.4483032,0.3311157,-0.01367188,-0.008789062,-0.001953125,1,2,0
3717.893,0.001009,0.3164062,-0.0546875,0.1171875,-4.328125,-1.335938,5.296875,0.2167969,-0.07226562,0.09375,-0.02929688,-0.03515625,0,0.004882812,0.005859375,2.763916,0,0,2.565552,0.3778992,3.491,0,0,0,0.3800049,nan,2,0.036,1,128,0.3592224,0.4064331,0.4512024,0.2947388,-0.01367188,-0.008789062,-0.001953125,1,2,0
3717.903,0.001012,0.1171875,0.171875,0.0546875,-3.015625,-2.359375,4.242188,-0.03515625,0.06835938,0.04492188,-0.03125,-0.03515625,0,0.005249023,0.005859375,2.764404,0,0,2.565552,0.3778992,3.491,0,0,0,0.3800049,nan,2,0.046,1,128,0.3402405,0.3644714,0.4043579,0.4024963,-0.01367188,-0.008789062,-0.001953125,1,2,0
3717.913,0.001031,-0.015625,-0.03515625,0.04492188,0.3125,0.4375,-0.578125,-0.0234375,-0.01171875,0.0625,-0.02929688,-0.03515625,0,0.005004883,0.005981445,2.765015,0,0,2.565552,0.386322,3.491,0,0,0,0.3900146,nan,2,0.003,1,128,0.3993225,0.3576965,0.4399109,0.3483276,-0.01367188,-0.008789062,-0.001953125,1,2,0
3717.923,0.000996,-0.01757812,-0.4101562,0.1132812,5.84375,-8.007812,10.17188,0.078125,-0.08984375,0.078125,-0.03125,-0.03320312,0,0.005126953,0.005615234,2.765747,0,0,2.565552,0.386322,3.491,0,0,0,0.3900146,nan,2,0.013,1,128,0.4070129,0.3839722,0.4483948,0.3058777,-0.01367188,-0.008789062,-0.001953125,1,2,0
3717.932,0.001038,0.125,0.2148438,0.109375,1.789062,-4.53125,3.375,0.009765625,0.0625,0.09375,-0.03320312,-0.03125,0,0.005493164,0.005126953,2.766602,0,0,2.565552,0.386322,3.491,0,0,0,0.3900146,nan,2,0.022,1,128,0.3756104,0.3221741,0.4769897,0.3704834,-0.01367188,-0.008789062,-0.001953125,1,2,0
3717.942,0.000971,-0.04296875,-0.1894531,0.1054688,3.59375,-4.070312,14.46875,-0.04492188,0.001953125,0.09960938,-0.03320312,-0.03710938,0,0.005493164,0.006103516,2.767578,0,0,2.565552,0.386322,3.491,0,0,0,0.3900146,nan,2,0.032,1,128,0.4110107,0.3700867,0.4120483,0.3521118,-0.01367188,-0.008789062,-0.001953125,1,2,0
3717.952,0.00102,0.03515625,-0.2421875,0.0703125,6.40625,5.757812,11.52344,0.0078125,-0.09960938,0.09570312,-0.02929688,-0.02929688,0,0.005004883,0.004882812,2.768677,0,0,2.565552,0.386322,3.491,0,0,0,0.3900146,nan,2,0.042,1,128,0.3782349,0.3883057,0.4337158,0.3450012,-0.01367188,-0.008789062,-0.001953125,1,2,0
3717.962,0.000965,-0.1269531,-0.2734375,-0.046875,6.679688,5.109375,14.53125,0.02929688,-0.05078125,0.0234375,-0.03710938,-0.03125,0,0.006347656,0.005126953,2.769287,0,0,2.565552,0.386322,3.491,0,0,0,0.3900146,nan,2,0.052,1,128,0.321228,0.4647217,0.3076172,0.4516907,-0.01367188,-0.008789062,-0.001953125,1,2,0
3717.973,0.000979,0.09179688,-0.2109375,0.00390625,-6.914062,0.1171875,22.46094,-0.08398438,-0.0859375,0.01953125,-0.03320312,-0.03125,0,0.005493164,0.005249023,2.769531,0,0,2.565552,0.386322,3.491,0,0,0,0.3900146,nan,2,0.063,1,128,0.3886719,0.4105225,0.3800049,0.3660583,-0.01367188,-0.008789062,-0.001953125,1,2,0
3717.983,0.000988,-0.203125,0.2148438,0.005859375,-9.460938,1.78125,13.84375,-0.1035156,0.08984375,0.0078125,-0.03320312,-0.03320312,0,0.005493164,0.005371094,2.769531,0,0,2.565552,0.386322,3.491,0,0,0,0.3900146,nan,2,0.073,1,128,0.367218,0.3470459,0.4115601,0.4194336,-0.01367188,-0.008789062,-0.001953125,1,2,0
3717.993,0.000959,0.1367188,0.05078125,0.015625,-0.6875,4.40625,-16.03906,0.1015625,-0.03125,0.03515625,-0.03320312,-0.02929688,0,0.005615234,0.004882812,2.769897,0,0,2.565552,0.3905334,3.491,0,0,0,0.3950195,nan,2,0.008,1,128,0.3718567,0.3911133,0.4584656,0.3406982,-0.01367188,-0.008789062,-0.001953125,1,2,0
3718.003,0.000994,-0.203125,0.2851562,0.03320312,0.4921875,6.085938,-2.921875,-0.01367188,0.125,0.0390625,-0.0390625,-0.02929688,0,0.006591797,0.004882812,2.770264,0,0,2.565552,0.3905334,3.491,0,0,0,0.3950195,nan,2,0.018,1,128,0.3657837,0.3271484,0.4466553,0.4225159,-0.01464844,-0.008789062,-0.001953125,1,2,0
3718.013,0.001009,0.08203125,0.001953125,0.1308594,1.226562,-3.210938,14.125,-0.06835938,0.07226562,0.07617188,-0.03320312,-0.03320312,0,0.005493164,0.005615234,2.770874,0,0,2.565552,0.3905334,3.491,0,0,0,0.3950195,nan,2,0.028,1,128,0.4191589,0.3275146,0.4916382,0.3237915,-0.01464844,-0.009765625,-0.001953125,1,2,0
3718.023,0.001008,0.03125,-0.3359375,0.09765625,5.125,4.210938,8.164062,0.0703125,-0.1328125,0.09570312,-0.03320312,-0.02929688,0,0.005615234,0.005004883,2.771729,0,0,2.565552,0.3905334,3.491,0,0,0,0.3950195,nan,2,0.038,1,128,0.4189453,0.3890991,0.4526672,0.3013611,-0.01464844,-0.009765625,-0.001953125,1,2,0
3718.032,0.001018,-0.03515625,-0.1308594,0.06835938,9.867188,4.585938,7,-0.04882812,0.02148438,0.07226562,-0.03515625,-0.02734375,0,0.005737305,0.004516602,2.772583,0,0,2.565552,0.3905334,3.491,0,0,0,0.3950195,nan,2,0.048,1,128,0.3644714,0.369812,0.4155579,0.412262,-0.01464844,-0.009765625,-0.001953125,1,2,0
3718.042,0.001031,-0.0234375,0.09765625,0.09179688,-0.390625,3.726562,17.88281,-0.05078125,0.1308594,0.0859375,-0.03125,-0.03320312,0,0.005249023,0.005615234,2.773315,0,0,2.565552,0.3947449,3.491,0,0,0,0.4000244,nan,2,0,1,128,0.3941956,0.342926,0.4705505,0.3712769,-0.01464844,-0.009765625,-0.001953125,1,2,0
3718.052,0.001009,0.1054688,0.2011719,0.06054688,-8.445312,0.265625,7.15625,0.02929688,0.01953125,0.07617188,-0.03320312,-0.03320312,0,0.005615234,0.005615234,2.774292,0,0,2.565552,0.3947449,3.491,0,0,0,0.4000244,nan,2,0.01,1,128,0.3616028,0.3914795,0.4354858,0.3903503,-0.01464844,-0.009765625,-0.001953125,1,2,0
3718.062,0.000998,0.2167969,0.0546875,0.0703125,-3.648438,-1.007812,-3.710938,0.1171875,-0.04101562,0.0390625,-0.03710938,-0.03515625,0,0.006225586,0.005859375,2.77478,0,0,2.565552,0.3947449,3.491,0,0,0,0.4000244,nan,2,0.02,1,128,0.3554688,0.4320984,0.4274292,0.3639526,-0.01464844,-0.009765625,-0.001953125,1,2,0
3718.072,0.001007,-0.2011719,-0.1386719,0.07226562,3.65625,7.132812,-9.726562,-0.1308594,-0.08984375,0.06054688,-0.03710938,-0.02734375,0,0.006103516,0.004516602,2.775269,0,0,2.565552,0.3947449,3.491,0,0,0,0.4000244,nan,2,0.03,1,128,0.4264221,0.3486328,0.4133301,0.390564,-0.01464844,-0.009765625,-0.001953125,1,2,0
3718.083,0.000971,0.265625,0.02539062,0.125,6.625,1.296875,10.78906,0.01367188,0.1035156,0.08007812,-0.02929688,-0.02539062,0,0.005004883,0.004272461,2.775879,0,0,2.565552,0.3947449,3.491,0,0,0,0.4000244,nan,2,0.04,1,128,0.3795776,0.3307495,0.5376587,0.3309631,-0.01464844,-0.009765625,-0.001953125,1,2,0
3718.093,0.000955,-0.3027344,-0.5332031,0.1152344,5.4375,-7.601562,13.53125,-0.08203125,0.1386719,0.09375,-0.03125,-0.04101562,0,0.005371094,0.006713867,2.776855,0,0,2.565552,0.3989563,3.491,0,0,0,0.4050293,nan,2,0.003,1,128,0.4597778,0.337616,0.4390869,0.359314,-0.01464844,-0.009765625,-0.001953125,1,2,0
3718.103,0.001011,-0.2558594,-0.5800781,0.06054688,7.320312,-1.53125,8,-0.2207031,-0.2246094,0.0703125,-0.0234375,-0.03515625,0,0.00390625,0.005981445,2.777588,0,0,2.565552,0.3989563,3.491,0,0,0,0.4050293,nan,2,0.013,1,128,0.467804,0.4043579,0.3649902,0.3586121,-0.01464844,-0.009765625,-0.001953125,1,2,0
3718.113,0.001067,0.2871094,0.1699219,0.1230469,-1.320312,0.84375,5.304688,0.07226562,0.03515625,0.1054688,-0.01953125,-0.03320312,0,0.003173828,0.005371094,2.778442,0,0,2.565552,0.3989563,3.491,0,0,0,0.4050293,nan,2,0.023,1,128,0.386261,0.3537903,0.5344849,0.321228,-0.01464844,-0.009765625,-0.001953125,1,2,0
3718.123,0.001009,-0.09960938,0.1816406,0.078125,2.273438,4.523438,14.34375,0.0546875,0.1074219,0.07617188,-0.0234375,-0.0390625,0,0.00402832,0.006469727,2.779419,0,0,2.565552,0.3989563,3.491,0,0,0,0.4050293,nan,2,0.033,1,128,0.351532,0.4002075,0.4294128,0.4146423,-0.01464844,-0.009765625,-0.001953125,1,2,0
3718.132,0.001032,0.05859375,-0.2148438,0.1152344,4.8125,2.6875,6.140625,0.09570312,-0.1132812,0.09179688,-0.02929688,-0.04101562,0,0.004760742,0.006713867,2.780273,0,0,2.565552,0.3989563,3.491,0,0,0,0.4050293,nan,2,0.042,1,128,0.4319763,0.4103394,0.4397888,0.3136902,-0.01464844,-0.009765625,-0.001953125,1,2,0
3718.142,0.001064,-0.1621094,0.02734375,0.06640625,1.617188,2.898438,8.257812,0.02929688,-0.03320312,0.07226562,-0.03125,-0.03125,0,0.005371094,0.005371094,2.781128,0,0,2.565552,0.4031677,3.491,0,0,0,0.4099731,nan,2,0,1,128,0.3703613,0.3870544,0.4440613,0.4111633,-0.01464844,-0.009765625,-0.001953125,1,2,0
3718.152,0.001009,0.009765625,0.03515625,0.06835938,-0.2109375,-7.4375,18.625,-0.02929688,-0.001953125,0.05078125,-0.02929688,-0.03125,0,0.005004883,0.005249023,2.781494,0,0,2.565552,0.4031677,3.491,0,0,0,0.4099731,nan,2,0.01,1,128,0.3979797,0.3770142,0.4547119,0.3829346,-0.01464844,-0.009765625,-0.001953125,1,2,0
3718.162,0.001014,0.03515625,-0.0390625,0.0078125,0.9921875,-1.976562,16.57031,0.02929688,-0.015625,0.05664062,-0.03125,-0.03125,0,0.005371094,0.005371094,2.782104,0,0,2.565552,0.4031677,3.491,0,0,0,0.4099731,nan,2,0.02,1,128,0.3931885,0.3993835,0.4459229,0.3741455,-0.01464844,-0.009765625,-0.001953125,1,2,0
3718.172,0.001014,0.046875,0.046875,0.08203125,-1.648438,-1.117188,13.07812,0.06640625,0.001953125,0.06445312,-0.03320312,-0.03125,0,0.005615234,0.005249023,2.782593,0,0,2.565552,0.4031677,3.491,0,0,0,0.4099731,nan,2,0.03,1,128,0.411377,0.3669434,0.496582,0.337738,-0.01464844,-0.009765625,-0.001953125,1,2,0
3718.182,0.001007,-0.0234375,0.1308594,0.1210938,-5.359375,2.234375,13.94531,-0.05273438,-0.04492188,0.1152344,-0.03125,-0.02929688,0,0.005249023,0.004760742,2.783691,0,0,2.565552,0.4031677,3.491,0,0,0,0.4099731,nan,2,0.04,1,128,0.4472351,0.3353271,0.4946594,0.3354492,-0.01464844,-0.009765625,-0.001953125,1,2,0
3718.193,0.001005,-0.2988281,-0.1269531,0.08984375,0.1015625,7.210938,14.95312,-0.09570312,-0.1289062,0.0859375,-0.02929688,-0.02148438,0,0.004760742,0.003662109,2.784668,0,0,2.565552,0.4031677,3.491,0,0,0,0.4099731,nan,2,0.003,1,128,0.4150696,0.395813,0.4118652,0.3898926,-0.01464844,-0.009765625,-0.001953125,1,2,0
3718.203,0.001022,-0.2363281,-0.02539062,0.09179688,-3.28125,4.625,12.6875,-0.1367188,-0.1796875,0.09375,-0.02148438,-0.009765625,0,0.003662109,0.001586914,2.785522,0,0,2.565552,0.4031677,3.491,0,0,0,0.4099731,nan,2,0.013,1,128,0.4442139,0.3561707,0.4513245,0.3609314,-0.01464844,-0.009765625,-0.001953125,1,2,0
3718.213,0.001009,0.05273438,0.171875,0.08984375,-6.65625,-7.585938,17.77344,-0.06835938,-0.06445312,0.1074219,-0.015625,-0.001953125,0,0.002563477,0.0002441406,2.786499,0,0,2.565552,0.4031677,3.491,0,0,0,0.4099731,nan,2,0.023,1,128,0.4104004,0.3530884,0.4910278,0.3580933,-0.01464844,-0.009765625,-0.001953125,1,2,0
3718.223,0.001009,-0.0546875,-0.09765625,0.0625,4.789062,3.9375,13.59375,-0.05078125,-0.0625,0.09765625,-0.01367188,0.00390625,0,0.002197266,-0.0004882812,2.787598,0,0,2.565552,0.4031677,3.491,0,0,0,0.4099731,nan,2,0.033,1,128,0.3903198,0.3991699,0.4305725,0.3925476,-0.01464844,-0.009765625,-0.001953125,1,2,0
3718.232,0.001045,-0.05859375,-0.15625,0.1230469,2.890625,8.664062,15.6875,-0.09375,-0.09375,0.1015625,-0.0078125,0.0078125,0,0.001342773,-0.001220703,2.788452,0,0,2.565552,0.4031677,3.491,0,0,0,0.4099731,nan,2,0.042,1,128,0.433197,0.3731995,0.4464111,0.3598633,-0.01464844,-0.008789062,-0.001953125,1,2,0
3718.242,0.001007,0.03125,0.1464844,0.1074219,-9.039062,-0.15625,13.0625,-0.01953125,0.005859375,0.09960938,-0.005859375,0.0078125,0,0.0009765625,-0.001342773,2.789551,0,0,2.565552,0.4115906,3.491,0,0,0,0.4199829,nan,2,0.005,1,128,0.4119873,0.3840027,0.476593,0.3737183,-0.01464844,-0.008789062,-0.001953125,1,2,0
3718.252,0.00101,0.21875,0.1660156,0.1035156,-0.75,1.820312,-6.789062,0.1074219,0.03710938,0.1132812,-0.0078125,0.0078125,0,0.001342773,-0.001220703,2.790527,0,0,2.565552,0.4115906,3.491,0,0,0,0.4199829,nan,2,0.015,1,128,0.405365,0.3790283,0.5164185,0.34552,-0.01464844,-0.008789062,-0.001953125,1,2,0
3718.262,0.001011,0.2402344,-0.0390625,0.1035156,5.796875,2.390625,4.289062,0.140625,0.04882812,0.09375,-0.015625,0.005859375,0,0.002563477,-0.0008544922,2.791626,0,0,2.565552,0.4115906,3.491,0,0,0,0.4199829,nan,2,0.025,1,128,0.3847351,0.4117737,0.4727783,0.3770447,-0.01464844,-0.009765625,-0.001953125,1,2,0
3718.272,0.001026,0.2480469,-0.05664062,0.1210938,6.148438,-4.585938,10.94531,0.1835938,0.1425781,0.1035156,-0.02734375,-0.00390625,0,0.004394531,0.0006103516,2.792603,0,0,2.565552,0.4115906,3.491,0,0,0,0.4199829,nan,2,0.035,1,128,0.4044495,0.3809509,0.4996338,0.3612671,-0.01464844,-0.009765625,-0.001953125,1,2,0
3718.283,0.001059,0.01367188,0.1523438,0.1054688,4.40625,3.007812,-2.921875,0.04296875,0.1679688,0.1074219,-0.03515625,-0.01171875,0,0.005859375,0.002075195,2.793701,0,0,2.565552,0.4115906,3.491,0,0,0,0.4199829,nan,2,0.045,1,128,0.4256592,0.3435364,0.4844055,0.3927002,-0.01464844,-0.009765625,-0.001953125,1,2,0
3718.293,0.001018,0.009765625,0.3574219,0.1328125,-6.726562,-8.59375,-12.21875,-0.07617188,0.265625,0.1171875,-0.03125,-0.02929688,0,0.005249023,0.004760742,2.794922,0,0,2.565552,0.4115906,3.491,0,0,0,0.4199829,nan,2,0.056,1,128,0.4118042,0.3501587,0.4825745,0.4017944,-0.01464844,-0.009765625,-0.001953125,1,2,0
3718.303,0.001007,0.1269531,-0.2128906,0.1054688,5.96875,0.4921875,7.40625,0.04492188,-0.1542969,0.07421875,-0.03320312,-0.02929688,0,0.005371094,0.005004883,2.795776,0,0,2.565552,0.4115906,3.491,0,0,0,0.4199829,nan,2,0.004,1,128,0.411377,0.4715271,0.4090881,0.3543396,-0.01464844,-0.009765625,-0.001953125,1,2,0.3809524
3718.313,0.000979,-0.1210938,-0.3183594,0.08789062,2.570312,0.203125,3.390625,0.04101562,-0.1816406,0.07617188,-0.03710938,-0.02148438,0,0.006225586,0.003540039,2.796509,0,0,2.565552,0.4115906,3.491,0,0,0,0.4199829,nan,2,0.014,1,128,0.4379272,0.4067993,0.4429016,0.3586731,-0.01464844,-0.009765625,-0.001953125,1,2,0
3718.323,0.001002,0.02929688,0.05664062,0.04296875,-3.609375,-9.726562,18.94531,-0.05664062,-0.0625,0.0390625,-0.03515625,-0.01171875,0,0.005737305,0.002075195,2.796997,0,0,2.565552,0.4115906,3.491,0,0,0,0.4199829,nan,2,0.024,1,128,0.3763123,0.4054871,0.4407654,0.4237366,-0.01464844,-0.009765625,-0.001953125,1,2,0
3718.332,0.001005,-0.1699219,0.08789062,0.05859375,2.054688,-0.34375,9.398438,-0.1464844,0.02148438,0.06445312,-0.02734375,-0.009765625,0,0.004516602,0.001708984,2.797485,0,0,2.565552,0.4115906,3.491,0,0,0,0.4199829,nan,2,0.033,1,128,0.422821,0.3516541,0.4781189,0.3937073,-0.01464844,-0.009765625,-0.001953125,1,2,0.5714286
3718.342,0.000995,-0.2382812,0.1699219,0.08789062,-1.007812,4.539062,9.570312,-0.1171875,0.0859375,0.07421875,-0.01757812,-0.01367188,0,0.002929688,0.002197266,2.798218,0,0,2.565552,0.4200134,3.491,0,0,0,0.4299927,nan,2,0.004,1,128,0.4129639,0.3789062,0.48526,0.4028625,-0.01464844,-0.009765625,-0.001953125,1,2,0
3718.352,0.001,-0.328125,0.1972656,0.06835938,-5.890625,-0.984375,25.38281,-0.1738281,0.07421875,0.0703125,-0.009765625,-0.01953125,0,0.001708984,0.003173828,2.79895,0,0,2.565552,0.4200134,3.491,0,0,0,0.4299927,nan,2,0.014,1,128,0.4353027,0.3739929,0.4562988,0.4143982,-0.01464844,-0.009765625,-0.001953125,1,2,0
3718.362,0.001005,-0.1933594,0.125,0.0078125,0.4375,-0.9296875,3.234375,-0.1933594,0.04296875,0.0625,0.001953125,-0.01953125,0,-0.0002441406,0.003295898,2.799683,0,0,2.565552,0.4200134,3.491,0,0,0,0.4299927,nan,2,0.024,1,128,0.4069519,0.3939209,0.4462891,0.4328613,-0.01464844,-0.009765625,-0.001953125,1,2,0
3718.372,0.001002,-0.1035156,0.01171875,0.06445312,2.421875,0.7109375,13.24219,-0.1347656,0.05859375,0.06054688,0.009765625,-0.0234375,0,-0.001464844,0.00378418,2.800293,0,0,2.565552,0.4200134,3.491,0,0,0,0.4299927,nan,2,0.034,1,128,0.4120789,0.3919678,0.4568176,0.4191589,-0.01464844,-0.009765625,-0.001953125,1,2,0
3718.383,0.001019,0.171875,0.1484375,0.1347656,3.085938,2.375,9.820312,-0.02734375,0.1777344,0.08398438,0.01757812,-0.02929688,0,-0.002807617,0.004760742,2.801025,0,0,2.565552,0.4200134,3.491,0,0,0,0.4299927,nan,2,0.044,1,128,0.4160156,0.3494568,0.5522156,0.3623047,-0.01464844,-0.009765625,-0.001953125,1,2,0
3718.393,0.001007,0.015625,0.08789062,0.07617188,-1.210938,3.867188,10.89844,0.0078125,0.1933594,0.08203125,0.015625,-0.04296875,0,-0.002685547,0.007080078,2.80188,0,0,2.565552,0.4242249,3.491,0,0,0,0.4349976,nan,2,0,1,128,0.4119263,0.3937683,0.4866943,0.4044495,-0.01464844,-0.01074219,-0.001953125,1,2,0
3718.403,0.001009,0.2539062,0.009765625,0.08203125,-5.617188,-6.507812,11.60938,0.125,-0.07226562,0.06835938,0.01171875,-0.04296875,0,-0.001831055,0.007202148,2.80249,0,0,2.565552,0.4242249,3.491,0,0,0,0.4349976,nan,2,0.01,1,128,0.4243774,0.4421997,0.4651184,0.3651428,-0.01464844,-0.01074219,-0.001953125,1,2,0
3718.413,0.001022,-0.08203125,-0.4980469,0.07226562,7.320312,-2.640625,17.22656,0.0703125,-0.2324219,0.0703125,0.00390625,-0.03320312,0,-0.0006103516,0.005615234,2.803223,0,0,2.565552,0.4242249,3.432,0,0,0,0.4349976,nan,2,0.02,1,128,0.4615784,0.4301147,0.4389038,0.3662415,-0.01464844,-0.01074219,-0.001953125,1,2,0
3718.423,0.001064,0.328125,-0.04492188,0.06054688,1.15625,3.109375,21,0.1816406,-0.1855469,0.06835938,0,-0.01757812,0,0,0.003051758,2.803955,0,0,2.565552,0.4242249,3.432,0,0,0,0.4349976,nan,2,0.03,1,128,0.3781128,0.4465332,0.499176,0.3730164,-0.01464844,-0.009765625,-0.001953125,1,2,0
3718.433,0.001034,0.2246094,-0.2167969,0.0546875,8.09375,3.5625,4.859375,0.2773438,-0.1386719,0.0703125,-0.015625,-0.0078125,0,0.002563477,0.001098633,2.804688,0,0,2.565552,0.4242249,3.432,0,0,0,0.4349976,nan,2,0.04,1,128,0.3952332,0.4359436,0.4911499,0.3745117,-0.01464844,-0.009765625,-0.001953125,1,2,0.3174603
3718.442,0.00101,0.078125,-0.171875,0.046875,3.976562,5.179688,9.539062,0.2246094,-0.1074219,0.05859375,-0.03125,0,0,0.005004883,0,2.805176,0,0,2.565552,0.4242249,3.432,0,0,0,0.4349976,nan,2,0.049,1,128,0.4067078,0.4283447,0.4673767,0.3944397,-0.01464844,-0.009765625,-0.001953125,1,2,0
3718.452,0.001009,0.140625,-0.3066406,0.09179688,4.15625,-0.234375,17.10156,0.1542969,-0.1347656,0.0703125,-0.04296875,0.0078125,0,0.007080078,-0.001220703,2.805908,0,0,2.565552,0.4242249,3.432,0,0,0,0.4349976,nan,2,0.06,1,128,0.4422607,0.4148865,0.4717712,0.3679504,-0.015625,-0.009765625,-0.001953125,1,2,0
3718.462,0.001025,-0.1855469,0.2363281,0.0234375,-4.085938,2.914062,-3.5625,-0.1210938,0.06054688,0.04492188,-0.04492188,0.009765625,0,0.007446289,-0.001708984,2.806519,0,0,2.565552,0.4242249,3.432,0,0,0,0.4349976,nan,2,0.006,1,128,0.3929138,0.3879395,0.4197388,0.4962463,-0.015625,-0.009765625,-0.001953125,1,2,0
3718.472,0.00101,-0.3183594,-0.0078125,0.04296875,8.96875,-1.429688,-33.71094,-0.3164062,0.125,0.0390625,-0.03125,0.00390625,0,0.005126953,-0.0006103516,2.807007,0,0,2.565552,0.4242249,3.432,0,0,0,0.4349976,nan,2,0.016,1,128,0.4285583,0.3765564,0.4256592,0.4660339,-0.015625,-0.009765625,-0.001953125,1,2,0
3718.482,0.001022,-0.6933594,-0.328125,0.08007812,7.085938,-6.835938,5.125,-0.40625,0.1015625,0.05078125,-0.01171875,-0.005859375,0,0.001953125,0.0009765625,2.807373,0,0,2.565552,0.4242249,3.432,0,0,0,0.4349976,nan,2,0.026,1,128,0.4823303,0.355011,0.4309082,0.4285889,-0.01464844,-0.009765625,-0.001953125,1,2,0
3718.492,0.00101,-0.4355469,0.3652344,0.04492188,-5.109375,2.03125,19.16406,-0.3535156,0.1953125,0.05273438,0.01367188,-0.01367188,0,-0.002197266,0.002319336,2.807861,0,0,2.565552,0.4242249,3.432,0,0,0,0.4349976,nan,2,0.036,1,128,0.413269,0.3620911,0.4839783,0.4375305,-0.01464844,-0.009765625,-0.001953125,1,2,0
3718.503,0.000973,-0.1875,0.4082031,0.05273438,-7.21875,3.625,7.109375,-0.3710938,0.0703125,0.05078125,0.0390625,-0.01953125,0,-0.006469727,0.003295898,2.808472,0,0,2.565552,0.4242249,3.432,0,0,0,0.4349976,nan,2,0.046,1,128,0.4319153,0.38974,0.4520264,0.4231567,-0.01367188,-0.009765625,-0.001953125,1,2,0
3718.513,0.001009,-0.1445312,0.09765625,0.09179688,3.820312,-2.664062,8.617188,-0.2285156,0.1816406,0.07421875,0.05664062,-0.02734375,0,-0.009399414,0.004638672,2.809082,0,0,2.565552,0.4242249,3.432,0,0,0,0.4349976,nan,2,0.057,1,128,0.431366,0.3548279,0.5082703,0.4024048,-0.01367188,-0.009765625,-0.001953125,1,2,0.8412699
3718.523,0.001009,0.1621094,-0.3027344,0.06054688,6.9375,-0.828125,3.40625,-0.009765625,0.07617188,0.06054688,0.06445312,-0.0390625,0,-0.01074219,0.006591797,2.809692,0,0,2.565552,0.4242249,3.432,0,0,0,0.4349976,nan,2,0.067,1,128,0.4111023,0.4475708,0.4724426,0.3657227,-0.01367188,-0.01074219,-0.002929688,1,2,0
3718.533,0.001008,0.07226562,0.09765625,0.1054688,-2.8125,3.28125,15.73438,0.1152344,0.01171875,0.09570312,0.06054688,-0.04101562,0,-0.01000977,0.006958008,2.810547,0,0,2.565552,0.4242249,3.432,0,0,0,0.4349976,nan,2,0.077,1,128,0.4347839,0.4003601,0.5035706,0.3581238,-0.01367188,-0.01074219,-0.002929688,1,2,0
3718.543,0.001009,0.06640625,-0.1894531,0.03710938,3.703125,2.875,9.421875,0.1210938,-0.09375,0.06445312,0.05273438,-0.03710938,0,-0.008789062,0.006225586,2.811401,0,0,2.565552,0.4242249,3.432,0,0,0,0.4349976,nan,2,0.087,1,128,0.4022827,0.4446411,0.440033,0.4098816,-0.01367188,-0.01074219,-0.002929688,1,2,0
3718.552,0.001011,-0.08203125,-0.1191406,0.04882812,0.5390625,5.132812,12.82812,0.06445312,-0.08007812,0.07421875,0.046875,-0.03320312,0,-0.0078125,0.005493164,2.812012,0,0,2.565552,0.4242249,3.432,0,0,0,0.4349976,nan,2,0.096,1,128,0.4385376,0.3949585,0.4654541,0.3978882,-0.01367188,-0.01074219,-0.002929688,1,2,0
3718.562,0.001008,0.2792969,-0.01953125,0.0703125,-2.351562,-6.679688,8.757812,0.09765625,-0.04101562,0.06835938,0.04101562,-0.02929688,0,-0.006958008,0.004760742,2.812744,0,0,2.565552,0.4242249,3.432,0,0,0,0.4349976,nan,2,0.106,1,128,0.4120789,0.4094238,0.4810791,0.3942566,-0.01367188,-0.01074219,-0.002929688,1,2,0
3718.572,0.001011,0.1191406,-0.1953125,0.1132812,7.351562,6.4375,6.703125,0.0703125,-0.06054688,0.08398438,0.03710938,-0.02539062,0,-0.006225586,0.004394531,2.813599,0,0,2.565552,0.4242249,3.432,0,0,0,0.4349976,nan,2,0.116,1,128,0.4405518,0.3977356,0.4825134,0.3760376,-0.01367188,-0.01074219,-0.002929688,1,2,0
3718.582,0.001015,-0.08789062,-0.171875,0.09570312,-3.085938,-0.0234375,3.125,-0.01953125,-0.1386719,0.078125,0.03710938,-0.02148438,0,-0.006103516,0.003540039,2.814331,0,0,2.565552,0.4242249,3.432,0,0,0,0.4349976,nan,2,0.126,1,128,0.4569397,0.4093323,0.446991,0.3835754,-0.01367188,-0.01074219,-0.002929688,1,2,0
3718.592,0.001008,-0.01171875,-0.001953125,0.04492188,-5.742188,-9.429688,13.71094,-0.03515625,-0.1699219,0.06054688,0.0390625,-0.01171875,0,-0.006469727,0.001953125,2.815063,0,0,2.565552,0.4242249,3.432,0,0,0,0.4349976,nan,2,0.136,1,128,0.4282532,0.4232483,0.4425964,0.402771,-0.01367188,-0.009765625,-0.002929688,1,2,0
3718.603,0.001008,-0.078125,-0.2695312,0.05078125,7.195312,5.132812,13.71875,-0.00390625,-0.171875,0.06835938,0.0390625,0,0,-0.006591797,0,2.815796,0,0,2.565552,0.4242249,3.432,0,0,0,0.4349976,nan,2,0.146,1,128,0.4289551,0.4190369,0.4534912,0.3953857,-0.01367188,-0.009765625,-0.002929688,1,2,0
3718.613,0.001063,0.05664062,-0.1074219,0.08398438,-5.796875,3.640625,21.39844,0.04296875,-0.1699219,0.07617188,0.0390625,0.009765625,0,-0.006347656,-0.001586914,2.816528,0,0,2.565552,0.4242249,3.432,0,0,0,0.4349976,nan,2,0.157,1,128,0.4389038,0.4139709,0.4706116,0.3733521,-0.01367188,-0.009765625,-0.002929688,1,2,0
3718.623,0.001025,0.1738281,0.005859375,0.0625,-2.210938,-2.398438,-5.421875,0.07226562,-0.1308594,0.0703125,0.03515625,0.01953125,0,-0.005859375,-0.003173828,2.817261,0,0,2.565552,0.4242249,3.432,0,0,0,0.4349976,nan,2,0.167,1,128,0.4213867,0.4162292,0.4762573,0.3829956,-0.01367188,-0.009765625,-0.002929688,1,2,0
3718.633,0.001016,0.08984375,-0.1113281,0.1054688,-6.914062,-2.210938,32.32031,0.078125,-0.1464844,0.08203125,0.03125,0.02929688,0,-0.005371094,-0.004760742,2.817993,0,0,2.565552,0.4242249,3.432,0,0,0,0.4349976,nan,2,0.177,1,128,0.4473572,0.4059143,0.4843445,0.3592529,-0.01367188,-0.009765625,-0.002929688,1,2,0
3718.642,0.000969,0.1953125,-0.1660156,0.109375,-4.789062,-4.921875,12.98438,0.09570312,-0.1503906,0.0859375,0.02734375,0.03515625,0,-0.004516602,-0.005981445,2.818726,0,0,2.565552,0.4284363,3.432,0,0,0,0.4400024,nan,2,0.008,1,128,0.4511414,0.4155884,0.4858398,0.3611145,-0.01367188,-0.009765625,-0.002929688,1,2,0
3718.652,0.001016,0.01953125,0.2089844,0.06445312,-2.6875,-1.0625,3.0625,0.06054688,-0.01757812,0.078125,0.0234375,0.04101562,0,-0.00378418,-0.006835938,2.81958,0,0,2.565552,0.4284363,3.432,0,0,0,0.4400024,nan,2,0.018,1,128,0.415741,0.4032288,0.4816284,0.4131165,-0.01367188,-0.008789062,-0.002929688,1,2,0
3718.662,0.001015,-0.1542969,-0.08203125,0.0703125,3.914062,1.804688,13.75,0.0078125,-0.005859375,0.08007812,0.02148438,0.04101562,0,-0.003540039,-0.006958008,2.820435,0,0,2.565552,0.4326172,3.432,0,0,0,0.4450073,nan,2,0.008,1,128,0.4399719,0.4089661,0.4683533,0.4132385,-0.01367188,-0.008789062,-0.002929688,1,2,0
3718.672,0.001009,0.1347656,0.3085938,0.046875,-9.234375,-4.203125,33.67969,0.03320312,0.03710938,0.0625,0.01953125,0.04101562,0,-0.003295898,-0.006835938,2.821045,0,0,2.565552,0.4326172,3.432,0,0,0,0.4450073,nan,2,0.018,1,128,0.4037781,0.4266968,0.4743042,0.4257507,-0.01367188,-0.008789062,-0.002929688,1,2,0
3718.682,0.001018,0,0.09570312,0.07226562,0.6875,6.484375,-20.21875,0.01367188,0.01757812,0.078125,0.01953125,0.04101562,0,-0.003173828,-0.006835938,2.821899,0,0,2.565552,0.4326172,3.432,0,0,0,0.4450073,nan,2,0.008,1,128,0.4388733,0.4035645,0.4883423,0.3997498,-0.01367188,-0.008789062,-0.002929688,1,2,0
3718.693,0.001049,0.08203125,-0.03125,0.1015625,3.046875,2.757812,15.41406,0.03320312,-0.00390625,0.0859375,0.01757812,0.04101562,0,-0.002807617,-0.006958008,2.822754,0,0,2.565552,0.4326172,3.432,0,0,0,0.4450073,nan,2,0.018,1,128,0.4473267,0.4047546,0.4909668,0.3875122,-0.01367188,-0.008789062,-0.002929688,1,2,0
3718.703,0.001017,0.2421875,-0.07617188,0.0859375,0.6171875,-5.671875,9.28125,-0.009765625,0.015625,0.08203125,0.01757812,0.0390625,0,-0.002929688,-0.006591797,2.823486,0,0,2.565552,0.4326172,3.432,0,0,0,0.4450073,nan,2,0.028,1,128,0.4502563,0.4082642,0.4828186,0.3891907,-0.01367188,-0.008789062,-0.002929688,1,2,0
3718.713,0.00102,-0.01367188,-0.0546875,0.1113281,3.867188,2.796875,7.867188,0.015625,0.05664062,0.09375,0.01757812,0.03515625,0,-0.002807617,-0.005981445,2.824463,0,0,2.565552,0.4326172,3.432,0,0,0,0.4450073,nan,2,0.038,1,128,0.4491272,0.3963623,0.4970398,0.3880005,-0.01367188,-0.008789062,-0.002929688,1,2,0
3718.723,0.00166,-0.1425781,0.2207031,0.08789062,-6.890625,-0.046875,24.73438,-0.078125,0.1445312,0.078125,0.01953125,0.02929688,0,-0.003173828,-0.005004883,2.825195,0,0,2.565552,0.44104,3.432,0,0,0,0.4550171,nan,2,0.002,1,128,0.4256897,0.4041443,0.479187,0.4551697,-0.01367188,-0.008789062,-0.002929688,1,2,0
3718.733,0.001011,-0.08398438,-0.03515625,0.09960938,4.03125,4.367188,12.40625,-0.07226562,0.04882812,0.07421875,0.0234375,0.0234375,0,-0.00390625,-0.00390625,2.825928,0,0,2.565552,0.44104,3.432,0,0,0,0.4550171,nan,2,0.012,1,128,0.4594116,0.4186707,0.4758301,0.4103088,-0.01367188,-0.008789062,-0.002929688,1,2,0
3718.743,0.001009,-0.0390625,0.08984375,0.1269531,-2.523438,0.5078125,5.90625,-0.09179688,0.0703125,0.09570312,0.02929688,0.01953125,0,-0.004882812,-0.003417969,2.826904,0,0,2.565552,0.44104,3.432,0,0,0,0.4550171,nan,2,0.022,1,128,0.4744873,0.3791199,0.5136108,0.3969727,-0.01367188,-0.008789062,-0.002929688,1,2,0
3718.752,0.000964,-0.05078125,0.07421875,0.1015625,-3.59375,3.164062,14.02344,-0.07617188,0.009765625,0.08789062,0.03320312,0.01757812,0,-0.005615234,-0.003051758,2.827637,0,0,2.565552,0.44104,3.432,0,0,0,0.4550171,nan,2,0.031,1,128,0.4608459,0.4120483,0.4839172,0.4073486,-0.01367188,-0.008789062,-0.002929688,1,2,0
3718.762,0.00104,-0.0625,-0.140625,0.07226562,3.351562,-1.53125,-12.8125,-0.1171875,-0.04882812,0.08007812,0.0390625,0.01953125,0,-0.006591797,-0.003295898,2.828491,0,0,2.565552,0.44104,3.432,0,0,0,0.4550171,nan,2,0.041,1,128,0.4631653,0.4193115,0.4622192,0.4195251,-0.01269531,-0.008789062,-0.002929688,1,2,0
3718.772,0.001013,-0.01171875,-0.1777344,0.125,2.710938,-4.109375,25.67969,-0.09765625,-0.05273438,0.09570312,0.046875,0.0234375,0,-0.00769043,-0.00378418,2.829346,0,0,2.565552,0.44104,3.432,0,0,0,0.4550171,nan,2,0.003,1,128,0.4811096,0.3993835,0.4964294,0.3872986,-0.01269531,-0.008789062,-0.002929688,1,2,0
3718.782,0.001011,-0.09765625,0.1054688,0.0703125,-6.164062,1.40625,13.80469,-0.06445312,0,0.08984375,0.05078125,0.0234375,0,-0.008544922,-0.00390625,2.830322,0,0,2.565552,0.44104,3.432,0,0,0,0.4550171,nan,2,0.013,1,128,0.4467773,0.4146423,0.4850464,0.4177246,-0.01269531,-0.008789062,-0.002929688,1,2,0
3718.793,0.001047,-0.2089844,-0.07617188,0.0859375,0.2109375,4.210938,10.96875,-0.03515625,0.001953125,0.08203125,0.05273438,0.02148438,0,-0.008911133,-0.00378418,2.831177,0,0,2.565552,0.44104,3.432,0,0,0,0.4550171,nan,2,0.023,1,128,0.4480286,0.42099,0.4752197,0.4199829,-0.01269531,-0.008789062,-0.002929688,1,2,0
3718.803,0.001009,0.1132812,-0.1074219,0.08203125,0.515625,-5.023438,22.55469,0.078125,-0.05273438,0.09960938,0.05078125,0.02539062,0,-0.008422852,-0.004150391,2.832153,0,0,2.565552,0.44104,3.432,0,0,0,0.4550171,nan,2,0.033,1,128,0.4573364,0.4225464,0.5035706,0.3807678,-0.01269531,-0.008789062,-0.002929688,1,2,0
3718.813,0.001009,0.296875,-0.0234375,0.1152344,4.632812,4.625,-18.23438,0.1738281,-0.05273438,0.09960938,0.04296875,0.02929688,0,-0.007202148,-0.004882812,2.83313,0,0,2.565552,0.44104,3.432,0,0,0,0.4550171,nan,2,0.043,1,128,0.4358521,0.434845,0.5157776,0.3777466,-0.01269531,-0.008789062,-0.002929688,1,2,0
3718.823,0.00101,0.5195312,0.05664062,0.1308594,-2.726562,0.1796875,9.882812,0.2402344,-0.09179688,0.09765625,0.03320312,0.03320312,0,-0.005615234,-0.005615234,2.834106,0,0,2.565552,0.44104,3.432,0,0,0,0.4550171,nan,2,0.053,1,128,0.4408264,0.441925,0.5273438,0.354126,-0.01269531,-0.008789062,-0.002929688,1,2,0.03174603
3718.833,0.001009,0.2792969,-0.21875,0.06054688,1.976562,-3.09375,6.21875,0.2089844,-0.171875,0.08984375,0.01953125,0.04101562,0,-0.003295898,-0.006835938,2.835083,0,0,2.565552,0.4494629,3.432,0,0,0,0.4650269,nan,2,0.008,1,128,0.4650879,0.4668274,0.4790955,0.3869019,-0.01269531,-0.008789062,-0.002929688,1,2,0
3718.843,0.001009,0.171875,0.03515625,0.1132812,-3.4375,-0.0390625,9.304688,0.1679688,-0.05664062,0.1171875,0.0078125,0.046875,0,-0.001220703,-0.00769043,2.836182,0,0,2.565552,0.4494629,3.432,0,0,0,0.4650269,nan,2,0.018,1,128,0.476593,0.4039917,0.5275879,0.38974,-0.01367188,-0.008789062,-0.002929688,1,2,0.5555556
3718.852,0.001031,0.03515625,0.1621094,0.05273438,-5.3125,0.859375,6.015625,0.1152344,-0.01757812,0.09765625,-0.001953125,0.04882812,0,0.0002441406,-0.008178711,2.837158,0,0,2.565552,0.4494629,3.432,0,0,0,0.4650269,nan,2,0.027,1,128,0.4342346,0.4384155,0.484314,0.440979,-0.01367188,-0.008789062,-0.002929688,1,2,0
3718.862,0.000958,0.04882812,-0.09960938,0.1210938,5.007812,0.15625,14.88281,0.09570312,-0.01367188,0.109375,-0.009765625,0.05078125,0,0.001464844,-0.008544922,2.838257,0,0,2.565552,0.4494629,3.432,0,0,0,0.4650269,nan,2,0.037,1,128,0.4770813,0.407196,0.5202637,0.3933411,-0.01367188,-0.008789062,-0.002929688,1,2,0
3718.872,0.00103,0.1503906,0.05078125,0.1074219,-1.320312,2.25,6.625,0.0625,0.046875,0.1035156,-0.01367188,0.05078125,0,0.002197266,-0.008300781,2.839233,0,0,2.565552,0.4494629,3.432,0,0,0,0.4650269,nan,2,0.048,1,128,0.4512634,0.4230042,0.5092468,0.4143372,-0.01367188,-0.008789062,-0.002929688,1,2,0
3718.882,0.000984,-0.06835938,-0.0625,0.1152344,8.40625,-0.7578125,-38.02344,-0.015625,0.07617188,0.1015625,-0.01367188,0.046875,0,0.002319336,-0.00769043,2.840332,0,0,2.565552,0.4536743,3.432,0,0,0,0.4699707,nan,2,0.009,1,128,0.4673767,0.4154968,0.5082397,0.423645,-0.01367188,-0.008789062,-0.002929688,1,2,0
3718.892,0.001055,0.2910156,0.2773438,0.1152344,1.695312,-4.242188,39.27344,0.03515625,0.09375,0.1074219,-0.01171875,0.04101562,0,0.001953125,-0.006713867,2.841309,0,0,2.565552,0.4536743,3.432,0,0,0,0.4699707,nan,2,0.019,1,128,0.4555054,0.4268799,0.5403137,0.3920593,-0.01367188,-0.008789062,-0.002929688,1,2,0
3718.903,0.001009,-0.2324219,-0.01757812,0.109375,-4.445312,2.03125,-10.36719,-0.1875,0.04101562,0.1132812,-0.0078125,0.03320312,0,0.001098633,-0.005737305,2.842529,0,0,2.565552,0.4536743,3.432,0,0,0,0.4699707,nan,2,0.029,1,128,0.5131836,0.3987122,0.4709778,0.4318542,-0.01367188,-0.008789062,-0.002929688,1,2,0
3718.913,0.001009,-0.4628906,-0.1347656,0.1035156,-0.1953125,0.6953125,22.30469,-0.2011719,0.09375,0.109375,0.001953125,0.02734375,0,-0.0002441406,-0.004516602,2.843628,0,0,2.565552,0.4536743,3.432,0,0,0,0.4699707,nan,2,0.039,1,128,0.4947205,0.3988953,0.4795227,0.4416199,-0.01367188,-0.008789062,-0.002929688,1,2,0
3718.923,0.001009,-0.1816406,0.02148438,0.0703125,2.492188,-1.882812,4.726562,-0.1484375,0.08984375,0.09570312,0.009765625,0.02148438,0,-0.001708984,-0.003662109,2.844727,0,0,2.565552,0.4536743,3.432,0,0,0,0.4699707,nan,2,0.049,1,128,0.4485474,0.4323425,0.4766541,0.4571838,-0.01367188,-0.008789062,-0.002929688,1,2,0
3718.933,0.001009,-0.2402344,-0.05859375,0.1582031,2.679688,0.15625,6.75,-0.2128906,0.0859375,0.109375,0.02148438,0.015625,0,-0.003662109,-0.002563477,2.845703,0,0,2.565552,0.4536743,3.432,0,0,0,0.4699707,nan,2,0.06,1,128,0.5009766,0.3877258,0.5068665,0.4191284,-0.01269531,-0.008789062,-0.002929688,1,2,0
3718.943,0.001009,-0.3613281,0.09179688,0.09179688,2.429688,-2.203125,17.76562,-0.2988281,0.1308594,0.09960938,0.03710938,0.0078125,0,-0.006347656,-0.001342773,2.846802,0,0,2.565552,0.4536743,3.432,0,0,0,0.4699707,nan,2,0.07,1,128,0.4655151,0.4028015,0.4710999,0.4753418,-0.01269531,-0.008789062,-0.002929688,1,2,0
3718.952,0.001056,-0.2382812,0.1796875,0.1132812,-1.179688,-3.5,33.4375,-0.2636719,0.125,0.1054688,0.05273438,0.001953125,0,-0.008911133,-0.0002441406,2.847778,0,0,2.565552,0.4536743,3.432,0,0,0,0.4699707,nan,2,0.079,1,128,0.4796448,0.3922119,0.5053406,0.4375305,-0.01269531,-0.008789062,-0.002929688,1,2,0
3718.962,0.00103,-0.2832031,-0.05664062,0.08007812,-1.390625,3.0625,-10.46875,-0.2578125,0.1015625,0.09179688,0.06835938,-0.005859375,0,-0.01123047,0.0009765625,2.848755,0,0,2.565552,0.4536743,3.432,0,0,0,0.4699707,nan,2,0.089,1,128,0.4733276,0.4107361,0.4682617,0.4624023,-0.01269531,-0.008789062,-0.002929688,1,2,0
3718.972,0.001,-0.453125,-0.1835938,0.1523438,5.648438,-2.25,-12.07812,-0.1269531,0.1171875,0.1171875,0.07617188,-0.01367188,0,-0.01269531,0.002197266,2.849854,0,0,2.565552,0.4578857,3.432,0,0,0,0.4749756,nan,2,0.008,1,128,0.4927368,0.38974,0.5292053,0.4198608,-0.01171875,-0.008789062,-0.002929688,1,2,0
3718.982,0.001013,0.05078125,0.3691406,0.0625,-1.539062,-3.820312,9.804688,-0.009765625,0.1425781,0.09765625,0.08203125,-0.015625,0,-0.01367188,0.002685547,2.85083,0,0,2.565552,0.4578857,3.432,0,0,0,0.4749756,nan,2,0.018,1,128,0.4169312,0.4239502,0.5407104,0.4499817,-0.01171875,-0.008789062,-0.002929688,1,2,0
3718.993,0.001015,-0.005859375,0.005859375,0.1347656,0.8125,0.7421875,22.05469,-0.005859375,0.015625,0.1152344,0.08398438,-0.01953125,0,-0.01403809,0.003295898,2.851929,0,0,2.565552,0.4620972,3.432,0,0,0,0.4799805,nan,2,0.009,1,128,0.4946594,0.4241333,0.5249023,0.4047546,-0.01171875,-0.009765625,-0.002929688,1,2,0
3719.003,0.001069,0.01953125,0.01953125,0.08398438,-0.4296875,3.953125,-8.148438,0.03710938,0.046875,0.09960938,0.08203125,-0.0234375,0,-0.01379395,0.00378418,2.853027,0,0,2.565552,0.4620972,3.432,0,0,0,0.4799805,nan,2,0.019,1,128,0.4501343,0.4416199,0.5058594,0.4508057,-0.01171875,-0.009765625,-0.002929688,1,2,0
3719.013,0.001027,0.2148438,-0.02734375,0.1152344,5.515625,-1.804688,21.5625,-0.01171875,0.01367188,0.09765625,0.08203125,-0.0234375,0,-0.01379395,0.00402832,2.854004,0,0,2.565552,0.4620972,3.432,0,0,0,0.4799805,nan,2,0.029,1,128,0.477478,0.4317627,0.5049133,0.4342651,-0.01171875,-0.009765625,-0.002929688,1,2,0
3719.023,0.001009,-0.2734375,-0.3320312,0.09179688,-3.375,-2.578125,2.765625,-0.1074219,-0.03125,0.1132812,0.08398438,-0.02734375,0,-0.01416016,0.004638672,2.855103,0,0,2.565552,0.4620972,3.432,0,0,0,0.4799805,nan,2,0.039,1,128,0.5380554,0.4018555,0.4881897,0.4203186,-0.01171875,-0.009765625,-0.002929688,1,2,0
3719.032,0.001045,-0.3359375,0,0.1679688,-1.835938,6.75,16.67969,-0.01757812,-0.001953125,0.1289062,0.0859375,-0.02734375,0,-0.01428223,0.004516602,2.856201,0,0,2.565552,0.4620972,3.432,0,0,0,0.4799805,nan,2,0.049,1,128,0.5183411,0.3828735,0.5493774,0.3978271,-0.01171875,-0.009765625,-0.002929688,1,2,0
3719.042,0.001004,0.1191406,-0.0546875,0.07617188,2.015625,-2.335938,-8.773438,0.06640625,-0.09179688,0.09570312,0.08203125,-0.02148438,0,-0.01367188,0.003540039,2.8573,0,0,2.565552,0.4620972,3.432,0,0,0,0.4799805,nan,2,0,1,128,0.4548035,0.4601746,0.4936218,0.4398193,-0.01171875,-0.009765625,-0.002929688,1,2,0
3719.052,0.001,0.07421875,-0.328125,0.1445312,2.960938,-1.625,14.70312,0.06445312,-0.1132812,0.1132812,0.078125,-0.015625,0,-0.01318359,0.002563477,2.858398,0,0,2.565552,0.4620972,3.432,0,0,0,0.4799805,nan,2,0.01,1,128,0.4966125,0.4326172,0.5183716,0.4008179,-0.01171875,-0.009765625,-0.002929688,1,2,0
3719.062,0.001009,-0.01757812,0.4082031,0.06054688,-5.828125,2.257812,1.59375,0.05859375,0.08398438,0.08984375,0.07617188,-0.01367188,0,-0.01257324,0.002197266,2.859497,0,0,2.565552,0.4620972,3.377,0,0,0,0.4799805,nan,2,0.02,1,128,0.4093933,0.4358215,0.5111694,0.4920349,-0.01171875,-0.009765625,-0.002929688,1,2,0
3719.072,0.001007,0.203125,0.02929688,0.1347656,2.554688,2.132812,31.60938,0.05664062,-0.005859375,0.1152344,0.07421875,-0.01367188,0,-0.0123291,0.002319336,2.860474,0,0,2.565552,0.4620972,3.377,0,0,0,0.4799805,nan,2,0.03,1,128,0.500061,0.4082336,0.5501099,0.3900146,-0.01074219,-0.009765625,-0.002929688,1,2,0
3719.082,0.001006,0.2871094,-0.2089844,0.09765625,3.984375,-0.859375,-4.257812,0.07617188,-0.1289062,0.1171875,0.0703125,-0.01171875,0,-0.01184082,0.002075195,2.861694,0,0,2.565552,0.4620972,3.377,0,0,0,0.4799805,nan,2,0.04,1,128,0.4911194,0.4694519,0.4866943,0.401123,-0.01074219,-0.009765625,-0.002929688,1,2,0
3719.092,0.001009,-0.3535156,-0.5039062,0.1445312,0.1640625,-3.4375,8.679688,0.06640625,-0.09570312,0.1171875,0.0625,-0.01171875,0,-0.01025391,0.001831055,2.862915,0,0,2.565552,0.4620972,3.377,0,0,0,0.4799805,nan,2,0.051,1,128,0.5218811,0.425354,0.4892883,0.4118652,-0.01171875,-0.009765625,-0.002929688,1,2,0.01587302
3719.103,0.000962,0.04296875,0.1503906,0.08398438,-1.34375,-1.914062,14.41406,0.1542969,0.046875,0.1132812,0.0546875,-0.0078125,0,-0.009033203,0.001464844,2.864014,0,0,2.565552,0.4620972,3.377,0,0,0,0.4799805,nan,2,0.061,1,128,0.4411621,0.4222107,0.5492859,0.43573,-0.01171875,-0.009765625,-0.002929688,1,2,0
3719.113,0.001009,0.1914062,-0.01953125,0.1171875,-1.0625,1.414062,29.39844,0.1464844,-0.04101562,0.1132812,0.046875,-0.005859375,0,-0.00769043,0.001098633,2.865234,0,0,2.565552,0.4620972,3.377,0,0,0,0.4799805,nan,2,0.071,1,128,0.4668274,0.4497681,0.5140381,0.4177856,-0.01171875,-0.009765625,-0.002929688,1,2,0
3719.123,0.001011,0.09179688,-0.2480469,0.1171875,8.84375,1.359375,-38.08594,0.1269531,-0.06640625,0.1132812,0.0390625,-0.00390625,0,-0.006347656,0.0007324219,2.866333,0,0,2.565552,0.4620972,3.377,0,0,0,0.4799805,nan,2,0.081,1,128,0.4857788,0.4387207,0.5209351,0.4029846,-0.01171875,-0.008789062,-0.002929688,1,2,0
3719.133,0.001046,0.4550781,0.1269531,0.1230469,-2.367188,-8.71875,26.25,0.1855469,-0.07617188,0.1171875,0.03125,0,0,-0.005126953,0,2.867554,0,0,2.565552,0.4663086,3.377,0,0,0,0.4849854,nan,2,0.005,1,128,0.4753418,0.4479065,0.5531616,0.388855,-0.01171875,-0.008789062,-0.002929688,1,2,0
3719.142,0.001057,0.04296875,-0.3222656,0.1660156,0.8828125,7.34375,19.77344,0.03710938,-0.1367188,0.1308594,0.02734375,0.00390625,0,-0.004394531,-0.0006103516,2.86853,0,0,2.565552,0.4663086,3.377,0,0,0,0.4849854,nan,2,0.014,1,128,0.5554504,0.4096985,0.5299683,0.3701782,-0.01171875,-0.008789062,-0.002929688,1,2,0
3719.152,0.001009,-0.046875,-0.04296875,0.0859375,-4.210938,-3.109375,15.53125,0.09960938,-0.0390625,0.1113281,0.01757812,0.0078125,0,-0.002929688,-0.001220703,2.869873,0,0,2.565552,0.4663086,3.377,0,0,0,0.4849854,nan,2,0.024,1,128,0.4542236,0.4559937,0.4937134,0.4613037,-0.01171875,-0.008789062,-0.002929688,1,2,0
3719.162,0.001009,0.1132812,-0.234375,0.1171875,10.25781,3.101562,2.070312,0.08007812,-0.1015625,0.1132812,0.009765625,0.01171875,0,-0.001708984,-0.002075195,2.870972,0,0,2.565552,0.4663086,3.377,0,0,0,0.4849854,nan,2,0.034,1,128,0.4934387,0.4453735,0.5084839,0.4179688,-0.01171875,-0.008789062,-0.002929688,1,2,0
3719.172,0.001018,-0.06445312,-0.06445312,0.1132812,-4.890625,-2.375,7.226562,0,-0.04492188,0.109375,0.0078125,0.015625,0,-0.001220703,-0.002441406,2.87207,0,0,2.565552,0.4663086,3.377,0,0,0,0.4849854,nan,2,0.044,1,128,0.4945679,0.4300537,0.5040283,0.4365845,-0.01171875,-0.008789062,-0.002929688,1,2,0
3719.182,0.001003,-0.1875,0.001953125,0.1113281,2.992188,0.09375,8.585938,-0.04296875,0.0625,0.1074219,0.0078125,0.01171875,0,-0.001342773,-0.002075195,2.873169,0,0,2.565552,0.4663086,3.377,0,0,0,0.4849854,nan,2,0.054,1,128,0.4896851,0.4077454,0.5257568,0.4420776,-0.01171875,-0.008789062,-0.002929688,1,2,0
3719.192,0.001008,-0.1054688,0.125,0.1230469,-9.414062,-1.0625,39.15625,-0.08203125,0,0.1308594,0.01171875,0.01171875,0,-0.001953125,-0.001831055,2.87439,0,0,2.565552,0.4663086,3.377,0,0,0,0.4849854,nan,2,0.065,1,128,0.5256653,0.3994751,0.5358276,0.4042969,-0.01171875,-0.008789062,-0.002929688,1,2,0
3719.203,0.00101,-0.515625,-0.1269531,0.1328125,6.226562,6.632812,-14.98438,-0.1328125,0.03710938,0.1113281,0.015625,0.009765625,0,-0.002685547,-0.001708984,2.87561,0,0,2.565552,0.4663086,3.377,0,0,0,0.4849854,nan,2,0.075,1,128,0.4875183,0.4115295,0.4970093,0.4692078,-0.01171875,-0.008789062,-0.002929688,1,2,0
3719.213,0.001009,0.5097656,0.3359375,0.1191406,-2.515625,-7.835938,10.14062,0.01757812,0.0234375,0.1328125,0.0234375,0.01171875,0,-0.00390625,-0.001953125,2.876831,0,0,2.565552,0.4663086,3.377,0,0,0,0.4849854,nan,2,0.085,1,128,0.4630432,0.4338684,0.5783691,0.3900146,-0.01171875,-0.008789062,-0.002929688,1,2,0
3719.223,0.001009,-0.01367188,-0.09375,0.1425781,-0.0078125,6.570312,16.5,0.00390625,-0.04101562,0.125,0.02539062,0.01171875,0,-0.004150391,-0.001831055,2.878052,0,0,2.565552,0.4663086,3.377,0,0,0,0.4849854,nan,2,0.095,1,128,0.4962769,0.443512,0.5180054,0.4074707,-0.01171875,-0.008789062,-0.002929688,1,2,0
3719.233,0.001009,-0.005859375,0.171875,0.1015625,-2.726562,-1.382812,-7.265625,0.01953125,0.06445312,0.125,0.0234375,0.009765625,0,-0.00390625,-0.001586914,2.879395,0,0,2.565552,0.4663086,3.377,0,0,0,0.4849854,nan,2,0.105,1,128,0.4715881,0.4173279,0.5411072,0.4352722,-0.01171875,-0.008789062,-0.002929688,1,2,0
3719.243,0.001009,0.171875,0.5097656,0.1171875,-9.367188,-2.609375,5.101562,0.06054688,0.1738281,0.1152344,0.0234375,0.005859375,0,-0.00378418,-0.0009765625,2.880615,0,0,2.565552,0.4663086,3.377,0,0,0,0.4849854,nan,2,0.115,1,128,0.4302368,0.4195251,0.559845,0.455658,-0.01171875,-0.008789062,-0.002929688,1,2,0
3719.252,0.000969,0.07421875,0.1542969,0.1660156,1.703125,2.90625,-0.8515625,0.02929688,0.1113281,0.1386719,0.02148438,0,0,-0.003662109,0.0001220703,2.881714,0,0,2.565552,0.4663086,3.377,0,0,0,0.4849854,nan,2,0.124,1,128,0.5143127,0.3860168,0.5753784,0.3895569,-0.01171875,-0.008789062,-0.002929688,1,2,0
3719.262,0.001009,0.2695312,0.2890625,0.09375,-6.96875,-2.453125,21.77344,0.06835938,0.06640625,0.1308594,0.02148438,-0.005859375,0,-0.003540039,0.0008544922,2.883057,0,0,2.565552,0.4663086,3.377,0,0,0,0.4849854,nan,2,0.134,1,128,0.4490662,0.4539185,0.535675,0.4265747,-0.01171875,-0.008789062,-0.002929688,1,2,0
3719.272,0.001008,0.08398438,-0.15625,0.1191406,7.773438,5.6875,0.234375,0.0234375,-0.05273438,0.1230469,0.01953125,-0.005859375,0,-0.003173828,0.001098633,2.884277,0,0,2.565552,0.4663086,3.377,0,0,0,0.4849854,nan,2,0.144,1,128,0.5063782,0.4450073,0.5032043,0.4107056,-0.01171875,-0.008789062,-0.002929688,1,2,0.2380952
3719.282,0.000993,0.0078125,-0.0625,0.1269531,-5.375,-0.2421875,4.726562,0.06054688,0,0.1328125,0.01367188,-0.0078125,0,-0.002319336,0.001220703,2.88562,0,0,2.565552,0.4663086,3.377,0,0,0,0.4849854,nan,2,0.154,1,128,0.489563,0.4282227,0.526947,0.4205322,-0.01171875,-0.008789062,-0.002929688,1,2,0
3719.292,0.001021,-0.03125,-0.08984375,0.1171875,7.914062,1.492188,10.05469,0.05273438,0.0234375,0.1191406,0.009765625,-0.0078125,0,-0.001586914,0.001342773,2.886841,0,0,2.565552,0.4663086,3.377,0,0,0,0.4849854,nan,2,0.165,1,128,0.4754333,0.4335022,0.5215149,0.4348145,-0.01171875,-0.008789062,-0.002929688,1,2,0
3719.303,0.000971,-0.2226562,-0.05859375,0.125,-9.289062,-5.671875,24.10156,-0.04492188,-0.0234375,0.1328125,0.009765625,-0.0078125,0,-0.001464844,0.001464844,2.888062,0,0,2.565552,0.47052,3.377,0,0,0,0.4899902,nan,2,0.008,1,128,0.529541,0.40802,0.5228577,0.4216919,-0.01171875,-0.008789062,-0.002929688,1,2,0
3719.313,0.001036,-0.5273438,0.0078125,0.1523438,2.679688,8.539062,-1.085938,-0.06835938,0.1035156,0.1328125,0.009765625,-0.009765625,0,-0.001831055,0.001708984,2.889404,0,0,2.565552,0.47052,3.377,0,0,0,0.4899902,nan,2,0.018,1,128,0.4972534,0.3816833,0.550354,0.4528198,-0.01171875,-0.009765625,-0.002929688,1,2,0
3719.323,0.001009,0.3066406,0.2128906,0.09179688,1.21875,-6.164062,5.578125,0.05859375,0.0234375,0.1230469,0.01367188,-0.009765625,0,-0.002075195,0.001708984,2.890747,0,0,2.565552,0.47052,3.377,0,0,0,0.4899902,nan,2,0.028,1,128,0.4415283,0.4640503,0.5428162,0.4337463,-0.01171875,-0.009765625,-0.002929688,1,2,0
3719.333,0.001009,-0.05859375,-0.265625,0.15625,0.2890625,1.226562,11.8125,-0.0390625,-0.1210938,0.1347656,0.01367188,-0.0078125,0,-0.002441406,0.001342773,2.89209,0,0,2.565552,0.47052,3.377,0,0,0,0.4899902,nan,2,0.038,1,128,0.535675,0.4356079,0.5166321,0.3942261,-0.01171875,-0.008789062,-0.002929688,1,2,0
3719.343,0.001009,-0.2089844,-0.4257812,0.1269531,8.867188,0.7734375,9.03125,-0.08007812,-0.05273438,0.1074219,0.01757812,-0.00390625,0,-0.002929688,0.0007324219,2.893188,0,0,2.565552,0.47052,3.377,0,0,0,0.4899902,nan,2,0.048,1,128,0.4934387,0.4397278,0.4997253,0.4492188,-0.01171875,-0.008789062,-0.002929688,1,2,0
3719.352,0.001012,-0.0390625,0.0234375,0.1191406,2.351562,-4.640625,18.66406,-0.09179688,0.005859375,0.1171875,0.02148438,-0.00390625,0,-0.003662109,0.0006103516,2.894165,0,0,2.565552,0.47052,3.377,0,0,0,0.4899902,nan,2,0.058,1,128,0.5015869,0.413147,0.5305786,0.4367981,-0.01171875,-0.008789062,-0.002929688,1,2,0
3719.362,0.001023,0.03125,-0.2382812,0.1757812,8.59375,3.640625,-37.53906,-0.05664062,-0.0390625,0.1367188,0.02734375,-0.00390625,0,-0.004638672,0.0006103516,2.895508,0,0,2.565552,0.47052,3.377,0,0,0,0.4899902,nan,2,0.068,1,128,0.5263062,0.4136047,0.5561829,0.3860474,-0.01171875,-0.008789062,-0.002929688,1,2,0
3719.372,0.001006,0.3613281,0.4941406,0.1113281,-10.50781,-6.65625,13.33594,0.02734375,0.00390625,0.125,0.03125,0,0,-0.005249023,0,2.896729,0,0,2.565552,0.47052,3.377,0,0,0,0.4899902,nan,2,0.078,1,128,0.4510803,0.4428711,0.5585938,0.4295654,-0.01074219,-0.008789062,-0.002929688,1,2,0
3719.382,0.001002,-0.0234375,-0.1542969,0.1132812,5.96875,6.648438,14.09375,-0.02148438,-0.06835938,0.125,0.03320312,0.001953125,0,-0.005371094,-0.0004882812,2.898071,0,0,2.565552,0.47052,3.377,0,0,0,0.4899902,nan,2,0.088,1,128,0.5045166,0.4379272,0.5176697,0.4220276,-0.01074219,-0.008789062,-0.002929688,1,2,0
3719.392,0.001009,0.109375,0.1621094,0.1152344,-4.59375,-1.484375,-1.296875,0.02734375,0.03320312,0.1171875,0.03125,0.001953125,0,-0.005126953,-0.0003662109,2.899292,0,0,2.565552,0.47052,3.377,0,0,0,0.4899902,nan,2,0.098,1,128,0.466095,0.4367371,0.5308228,0.4484253,-0.01074219,-0.008789062,-0.002929688,1,2,0
3719.402,0.000976,0.06445312,-0.21875,0.1386719,8.8125,2.460938,8.320312,-0.02148438,-0.06445312,0.1269531,0.03125,0.00390625,0,-0.005371094,-0.0006103516,2.900513,0,0,2.565552,0.47052,3.377,0,0,0,0.4899902,nan,2,0.108,1,128,0.5244446,0.4259033,0.5315857,0.4001465,-0.01074219,-0.008789062,-0.002929688,1,2,0
3719.413,0.001048,-0.1035156,-0.3105469,0.09960938,-0.8828125,-5.445312,22.27344,-0.03710938,-0.1015625,0.1191406,0.03125,0.00390625,0,-0.005371094,-0.0007324219,2.901733,0,0,2.565552,0.47052,3.377,0,0,0,0.4899902,nan,2,0.118,1,128,0.5158386,0.4569092,0.4810181,0.4283752,-0.01074219,-0.008789062,-0.002929688,1,2,0
3719.423,0.001016,-0.1894531,-0.1367188,0.1308594,-4.304688,5.273438,16.94531,0.01757812,-0.01171875,0.1230469,0.03125,0.005859375,0,-0.005126953,-0.0008544922,2.902954,0,0,2.565552,0.47052,3.377,0,0,0,0.4899902,nan,2,0.128,1,128,0.4975891,0.4281921,0.528717,0.4276123,-0.01074219,-0.008789062,-0.002929688,1,2,0
3719.432,0.001031,0.04296875,0.3398438,0.125,-9.859375,-2.859375,12.75781,0.04492188,0.03515625,0.1269531,0.02734375,0.005859375,0,-0.004638672,-0.0008544922,2.904053,0,0,2.565552,0.47052,3.377,0,0,0,0.4899902,nan,2,0.005,1,128,0.4895325,0.4138184,0.5518799,0.4268799,-0.01074219,-0.008789062,-0.002929688,1,2,0
3719.442,0.000978,0.08984375,-0.04101562,0.1191406,-5.554688,-4.585938,10.375,0.04492188,-0.08789062,0.1191406,0.02539062,0.0078125,0,-0.004272461,-0.001220703,2.905396,0,0,2.565552,0.47052,3.377,0,0,0,0.4899902,nan,2,0.015,1,128,0.4920349,0.4622803,0.506134,0.4216309,-0.01074219,-0.008789062,-0.002929688,1,2,0
3719.452,0.001061,-0.2246094,0.06640625,0.1347656,3.039062,8.070312,16.53906,-0.046875,0.046875,0.1171875,0.02539062,0.0078125,0,-0.004272461,-0.001220703,2.906494,0,0,2.565552,0.47052,3.377,0,0,0,0.4899902,nan,2,0.025,1,128,0.5079346,0.3928528,0.5445251,0.4367676,-0.01074219,-0.008789062,-0.002929688,1,2,0
3719.462,0.001009,0.05664062,0.09765625,0.109375,-2.359375,-9.835938,13.32812,-0.046875,0.05273438,0.1269531,0.02734375,0.00390625,0,-0.004638672,-0.0006103516,2.907715,0,0,2.565552,0.47052,3.377,0,0,0,0.4899902,nan,2,0.035,1,128,0.4920044,0.4222412,0.5284729,0.4393616,-0.01074219,-0.008789062,-0.00390625,1,2,0
3719.472,0.001009,-0.02734375,-0.25,0.1425781,7.835938,9.90625,5.757812,-0.05664062,-0.03710938,0.1171875,0.03125,0.00390625,0,-0.005249023,-0.0004882812,2.908936,0,0,2.565552,0.47052,3.377,0,0,0,0.4899902,nan,2,0.045,1,128,0.5020752,0.4473267,0.5052795,0.4274292,-0.01074219,-0.008789062,-0.00390625,1,2,0
3719.482,0.00101,0.1523438,0.2441406,0.1054688,-4.171875,-8.101562,5.359375,0.0625,0.06445312,0.1171875,0.03125,0.001953125,0,-0.005126953,-0.0003662109,2.910156,0,0,2.565552,0.47052,3.377,0,0,0,0.4899902,nan,2,0.056,1,128,0.4614868,0.4317627,0.5558167,0.4330444,-0.01074219,-0.008789062,-0.00390625,1,2,0
3719.492,0.001005,-0.1582031,-0.1523438,0.1035156,2.703125,1.992188,23.02344,-0.009765625,0.015625,0.1230469,0.02734375,0,0,-0.004638672,0,2.911377,0,0,2.565552,0.47052,3.377,0,0,0,0.4899902,nan,2,0.066,1,128,0.51828,0.411438,0.5253601,0.4270325,-0.01074219,-0.008789062,-0.00390625,1,2,0
3719.503,0.000995,-0.07226562,-0.001953125,0.1152344,3.328125,1.398438,-12.41406,-0.04492188,0.06054688,0.09960938,0.02929688,-0.001953125,0,-0.004882812,0.0003662109,2.912476,0,0,2.565552,0.47052,3.377,0,0,0,0.4899902,nan,2,0.076,1,128,0.4670715,0.4411316,0.5025635,0.471344,-0.01074219,-0.008789062,-0.00390625,1,2,0
3719.513,0.001011,0.234375,0.1230469,0.1269531,-1.328125,-2.75,15.36719,-0.001953125,-0.001953125,0.125,0.03125,-0.001953125,0,-0.005371094,0.0004882812,2.913574,0,0,2.565552,0.47052,3.377,0,0,0,0.4899902,nan,2,0.086,1,128,0.5079346,0.4157715,0.5603943,0.3979797,-0.01074219,-0.008789062,-0.00390625,1,2,0
3719.523,0.000998,-0.08984375,-0.09765625,0.1132812,4.070312,4.78125,11.5625,-0.01757812,-0.02929688,0.1171875,0.03125,-0.001953125,0,-0.005249023,0.0004882812,2.914917,0,0,2.565552,0.47052,3.377,0,0,0,0.4899902,nan,2,0.096,1,128,0.4944458,0.4455566,0.5032349,0.4388733,-0.01074219,-0.008789062,-0.00390625,1,2,0
3719.533,0.000993,0.009765625,0.2089844,0.1347656,-8.46875,-1.789062,8.054688,0.02734375,0.0625,0.1230469,0.02929688,-0.005859375,0,-0.005004883,0.0008544922,2.916016,0,0,2.565552,0.4747314,3.377,0,0,0,0.4949951,nan,2,0.004,1,128,0.4951172,0.4137878,0.5576477,0.432373,-0.01074219,-0.008789062,-0.00390625,1,2,0
3719.542,0.001039,0.0078125,0.2851562,0.1015625,-4.414062,-2.195312,-1.71875,0.0234375,0.078125,0.1074219,0.02929688,-0.0078125,0,-0.004760742,0.001342773,2.917114,0,0,2.565552,0.4747314,3.377,0,0,0,0.4949951,nan,2,0.013,1,128,0.4663696,0.4432373,0.5267334,0.462616,-0.01074219,-0.008789062,-0.00390625,1,2,0
3719.553,0.001011,-0.1503906,0.04296875,0.1191406,1,6.914062,15.17188,0.009765625,-0.02148438,0.1210938,0.02539062,-0.005859375,0,-0.004394531,0.001098633,2.918335,0,0,2.565552,0.4747314,3.377,0,0,0,0.4949951,nan,2,0.024,1,128,0.5181885,0.4144592,0.5434875,0.422821,-0.01074219,-0.008789062,-0.00390625,1,2,0
3719.562,0.001012,-0.1992188,0.02148438,0.1132812,1.21875,7.039062,13.94531,-0.01953125,0.02539062,0.1230469,0.02539062,-0.005859375,0,-0.004150391,0.001098633,2.919434,0,0,2.565552,0.4747314,3.377,0,0,0,0.4949951,nan,2,0.033,1,128,0.4987793,0.4180298,0.5302734,0.4518738,-0.01074219,-0.008789062,-0.00390625,1,2,0
3719.572,0.001006,0.1484375,-0.0546875,0.1191406,3.75,-4.578125,11.40625,0.02734375,0,0.1210938,0.02539062,-0.0078125,0,-0.00402832,0.001220703,2.920776,0,0,2.565552,0.4747314,3.377,0,0,0,0.4949951,nan,2,0.043,1,128,0.4873962,0.4477234,0.5306091,0.433197,-0.01074219,-0.008789062,-0.00390625,1,2,0
3719.582,0.00101,0.1074219,-0.1015625,0.1445312,-2.226562,3.429688,6.078125,0.0390625,-0.05859375,0.1191406,0.0234375,-0.005859375,0,-0.00390625,0.0009765625,2.921875,0,0,2.565552,0.4747314,3.377,0,0,0,0.4949951,nan,2,0.054,1,128,0.5041809,0.447937,0.5324707,0.4143677,-0.01074219,-0.008789062,-0.00390625,1,2,0
3719.592,0.0009869999,-0.2011719,0.005859375,0.1015625,5.1875,1.296875,25.75781,-0.04492188,0.03515625,0.1171875,0.02148438,-0.005859375,0,-0.003662109,0.001098633,2.923096,0,0,2.565552,0.4789429,3.377,0,0,0,0.5,nan,2,0.003,1,128,0.5092163,0.4183655,0.5257568,0.4624329,-0.01074219,-0.008789062,-0.00390625,1,2,0
3719.602,0.001009,0.03125,0.1386719,0.08984375,-7.03125,-8.179688,9.828125,-0.03125,0.03320312,0.1132812,0.0234375,-0.0078125,0,-0.00402832,0.001342773,2.924316,0,0,2.565552,0.4789429,3.377,0,0,0,0.5,nan,2,0.013,1,128,0.4749756,0.4529724,0.5215759,0.4662781,-0.01074219,-0.008789062,-0.00390625,1,2,0
3719.613,0.001009,-0.08984375,-0.1289062,0.1386719,12.03125,7.703125,-28.24219,-0.09375,-0.02148438,0.1015625,0.02929688,-0.0078125,0,-0.004760742,0.001464844,2.925293,0,0,2.565552,0.4789429,3.377,0,0,0,0.5,nan,2,0.023,1,128,0.5224609,0.4302979,0.5252686,0.4377441,-0.01074219,-0.009765625,-0.00390625,1,2,0
3719.623,0.001009,-0.1328125,-0.1035156,0.1113281,-2.984375,-13.73438,9.492188,-0.046875,0.009765625,0.1230469,0.03125,-0.009765625,0,-0.005249023,0.001708984,2.926514,0,0,2.565552,0.4789429,3.377,0,0,0,0.5,nan,2,0.033,1,128,0.5257568,0.4208984,0.5464478,0.422699,-0.01074219,-0.009765625,-0.00390625,1,2,0
3719.633,0.001009,-0.1953125,-0.03710938,0.09570312,0.6953125,8.4375,15.85938,-0.015625,0.0390625,0.1015625,0.03125,-0.01171875,0,-0.005371094,0.002075195,2.927612,0,0,2.565552,0.4789429,3.377,0,0,0,0.5,nan,2,0.043,1,128,0.4763489,0.4562073,0.5139771,0.4692688,-0.01074219,-0.009765625,-0.00390625,1,2,0
3719.643,0.001009,0.0390625,0.2207031,0.109375,2.101562,-3.078125,-7.796875,-0.009765625,0.1074219,0.1054688,0.03125,-0.01757812,0,-0.005371094,0.002807617,2.928589,0,0,2.565552,0.4789429,3.377,0,0,0,0.5,nan,2,0.054,1,128,0.4873657,0.4205933,0.5506897,0.4571533,-0.01074219,-0.009765625,-0.00390625,1,2,0
3719.653,0.001009,-0.0390625,0.1015625,0.125,-9.179688,1.734375,26.44531,-0.0234375,0.005859375,0.1132812,0.03320312,-0.01953125,0,-0.005615234,0.003295898,2.929688,0,0,2.565552,0.4789429,3.377,0,0,0,0.5,nan,2,0.064,1,128,0.5172729,0.4313965,0.5404053,0.4266968,-0.01074219,-0.009765625,-0.00390625,1,2,0
3719.662,0.001011,-0.1445312,0.2753906,0.1132812,-0.8359375,6.171875,11.47656,-0.0078125,0.08984375,0.1113281,0.03515625,-0.01953125,0,-0.005737305,0.003417969,2.930786,0,0,2.565552,0.4789429,3.377,0,0,0,0.5,nan,2,0.073,1,128,0.4699707,0.4217529,0.5549622,0.4691162,-0.01074219,-0.009765625,-0.00390625,1,2,0
3719.672,0.000963,0.1855469,0.21875,0.1054688,-3.929688,-7.296875,3.78125,0.01171875,0.07421875,0.1113281,0.03710938,-0.0234375,0,-0.006103516,0.00390625,2.931885,0,0,2.565552,0.4789429,3.377,0,0,0,0.5,nan,2,0.083,1,128,0.4825439,0.4307861,0.558136,0.4443054,-0.009765625,-0.009765625,-0.00390625,1,2,0
3719.682,0.0009869999,0.015625,-0.2148438,0.1269531,8.09375,5.085938,7.898438,0.05273438,0.001953125,0.1132812,0.03320312,-0.02539062,0,-0.005737305,0.004394531,2.932983,0,0,2.565552,0.4789429,3.377,0,0,0,0.5,nan,2,0.093,1,128,0.4959106,0.4585266,0.5293579,0.4320068,-0.009765625,-0.009765625,-0.00390625,1,2,0
3719.693,0.001052,0.0234375,0.3339844,0.09960938,-10.98438,-4.53125,6.203125,0.03125,0.078125,0.1074219,0.03125,-0.02929688,0,-0.005371094,0.004760742,2.934082,0,0,2.565552,0.4789429,3.377,0,0,0,0.5,nan,2,0.002,1,128,0.4772949,0.4321594,0.5465088,0.4598389,-0.009765625,-0.009765625,-0.00390625,1,2,0
3719.702,0.001012,-0.07421875,-0.09179688,0.1074219,8.671875,3.109375,29.20312,-0.02148438,0.06835938,0.09179688,0.03125,-0.03125,0,-0.005126953,0.005371094,2.935059,0,0,2.565552,0.4789429,3.377,0,0,0,0.5,nan,2,0.012,1,128,0.4807434,0.4425049,0.5153198,0.4772339,-0.009765625,-0.009765625,-0.00390625,1,2,0
3719.713,0.001056,-0.1171875,0.1855469,0.1191406,-2.992188,0.5078125,-4.289062,-0.09765625,0.0859375,0.1132812,0.03320312,-0.03710938,0,-0.005615234,0.006225586,2.936157,0,0,2.565552,0.4789429,3.351,0,0,0,0.5,nan,2,0.022,1,128,0.5149841,0.401886,0.5398254,0.459137,-0.009765625,-0.009765625,-0.00390625,1,2,0
3719.723,0.001009,-0.09375,0.1210938,0.08984375,-6.054688,-2.3125,16.67969,-0.0234375,0.03710938,0.1054688,0.03710938,-0.0390625,0,-0.006225586,0.006591797,2.937378,0,0,2.565552,0.4789429,3.351,0,0,0,0.5,nan,2,0.032,1,128,0.4766846,0.4528503,0.5252075,0.4610291,-0.009765625,-0.009765625,-0.00390625,1,2,0
3719.733,0.001009,0.02148438,-0.07617188,0.1152344,8.34375,5.78125,-1.53125,-0.03515625,0.02734375,0.1015625,0.0390625,-0.04101562,0,-0.006469727,0.006713867,2.938354,0,0,2.565552,0.4789429,3.351,0,0,0,0.5,nan,2,0.042,1,128,0.4895935,0.4354553,0.5346985,0.4560547,-0.009765625,-0.009765625,-0.00390625,1,2,0
3719.743,0.001009,0.1875,0.2441406,0.109375,-7.984375,-3.25,11.08594,0.0234375,0.03320312,0.1035156,0.0390625,-0.04296875,0,-0.006591797,0.007080078,2.939453,0,0,2.565552,0.4789429,3.351,0,0,0,0.5,nan,2,0.052,1,128,0.4803467,0.4444885,0.5470581,0.4439087,-0.009765625,-0.009765625,-0.00390625,1,2,0
3719.753,0.001009,0.08984375,0.0390625,0.1171875,-1.90625,-5.4375,7.976562,0.00390625,0.03320312,0.09765625,0.0390625,-0.04492188,0,-0.006591797,0.007568359,2.940308,0,0,2.565552,0.4789429,3.351,0,0,0,0.5,nan,2,0.063,1,128,0.5012207,0.4325562,0.5426636,0.4393616,-0.009765625,-0.01074219,-0.00390625,1,2,0.6190476
3719.762,0.001011,0.0546875,-0.04492188,0.1054688,-3.882812,-2.625,19.03125,-0.05273438,-0.009765625,0.1054688,0.04101562,-0.046875,0,-0.006958008,0.00769043,2.941284,0,0,2.565552,0.4789429,3.351,0,0,0,0.5,nan,2,0.072,1,128,0.5105591,0.4338074,0.5249939,0.4464111,-0.009765625,-0.01074219,-0.00390625,1,2,0
3719.772,0.001009,-0.3105469,-0.3398438,0.1367188,2.59375,1.09375,-12.03125,-0.00390625,-0.06640625,0.1035156,0.04101562,-0.04296875,0,-0.006958008,0.007324219,2.942383,0,0,2.565552,0.4789429,3.351,0,0,0,0.5,nan,2,0.082,1,128,0.5172424,0.4387512,0.5264893,0.4333191,-0.009765625,-0.01074219,-0.00390625,1,2,0
3719.782,0.001008,0.2109375,0.3085938,0.0703125,-3.695312,0.0390625,26.9375,0.1210938,0.046875,0.1054688,0.0390625,-0.04101562,0,-0.006591797,0.006713867,2.943359,0,0,2.565552,0.4789429,3.351,0,0,0,0.5,nan,2,0.092,1,128,0.4372864,0.4447021,0.5795288,0.4542542,-0.009765625,-0.01074219,-0.00390625,1,2,0
3719.792,0.001008,0.2539062,0.1191406,0.109375,-1.234375,4.523438,16.41406,0.05078125,-0.02734375,0.09179688,0.03710938,-0.03710938,0,-0.006225586,0.006347656,2.944458,0,0,2.565552,0.4789429,3.351,0,0,0,0.5,nan,2,0.102,1,128,0.4750366,0.4584351,0.5271301,0.4552002,-0.009765625,-0.01074219,-0.00390625,1,2,0
3719.803,0.001008,-0.03125,-0.1113281,0.09179688,4.414062,-1.34375,-2.789062,0.0390625,-0.009765625,0.09570312,0.03515625,-0.0390625,0,-0.005737305,0.006347656,2.945312,0,0,2.565552,0.4831543,3.351,0,0,0,0.5050049,nan,2,0.005,1,128,0.5030212,0.4447937,0.5365906,0.4482117,-0.009765625,-0.01074219,-0.00390625,1,2,0
3719.813,0.001,0.3027344,0.2167969,0.08789062,-11.39062,-3.546875,39.23438,0.08007812,-0.01953125,0.1035156,0.03320312,-0.03710938,0,-0.005371094,0.006103516,2.946411,0,0,2.565552,0.4831543,3.351,0,0,0,0.5050049,nan,2,0.015,1,128,0.482605,0.4537659,0.5603638,0.4358521,-0.009765625,-0.01074219,-0.00390625,1,2,0
3719.823,0.000947,0.1269531,-0.2128906,0.1132812,12.92969,9.601562,12.02344,-0.0546875,-0.1328125,0.09960938,0.03125,-0.03320312,0,-0.005249023,0.005493164,2.947388,0,0,2.565552,0.4831543,3.351,0,0,0,0.5050049,nan,2,0.025,1,128,0.5313721,0.4577026,0.4944763,0.4490662,-0.009765625,-0.01074219,-0.00390625,1,2,0
3719.833,0.001009,-0.2675781,-0.3652344,0.08398438,-1.585938,-12.03906,9.3125,-0.06054688,-0.07421875,0.1054688,0.03125,-0.03125,0,-0.005249023,0.005126953,2.948486,0,0,2.565552,0.4831543,3.351,0,0,0,0.5050049,nan,2,0.035,1,128,0.5325317,0.4366455,0.5098572,0.4536133,-0.009765625,-0.01074219,-0.00390625,1,2,0
3719.843,0.001013,-0.1953125,0.00390625,0.125,-1.132812,9.9375,23.54688,0.0390625,0.02539062,0.1054688,0.02929688,-0.02929688,0,-0.004882812,0.005004883,2.949463,0,0,2.565552,0.4831543,3.351,0,0,0,0.5050049,nan,2,0.045,1,128,0.4940491,0.431366,0.5574951,0.449707,-0.009765625,-0.01074219,-0.00390625,1,2,0
3719.852,0.0009860001,0.1054688,0.06445312,0.08203125,4.273438,-4.429688,-26.22656,0.03515625,0.01953125,0.09960938,0.02734375,-0.03125,0,-0.004516602,0.005126953,2.950439,0,0,2.565552,0.4873657,3.351,0,0,0,0.5100098,nan,2,0.006,1,128,0.4848328,0.4542236,0.5391235,0.471283,-0.009765625,-0.01074219,-0.00390625,1,2,0
3719.862,0.001009,-0.06054688,-0.1699219,0.109375,-2.148438,-6.578125,16.10156,0.009765625,-0.03320312,0.1035156,0.02539062,-0.02929688,0,-0.004272461,0.005004883,2.951416,0,0,2.565552,0.4873657,3.351,0,0,0,0.5100098,nan,2,0.016,1,128,0.5167236,0.4508057,0.533844,0.4481506,-0.009765625,-0.01074219,-0.00390625,1,2,0
3719.872,0.001009,-0.1601562,0.3925781,0.1035156,-0.203125,7.132812,-1.234375,-0.001953125,0.1660156,0.09179688,0.02734375,-0.03320312,0,-0.004394531,0.005493164,2.952393,0,0,2.565552,0.4873657,3.351,0,0,0,0.5100098,nan,2,0.026,1,128,0.4682617,0.4095764,0.5867615,0.4849243,-0.009765625,-0.01074219,-0.00390625,1,2,0
3719.882,0.001011,0.3574219,0.2910156,0.07226562,-2.820312,-10.02344,14.28906,0.0234375,0.0390625,0.09765625,0.02929688,-0.03515625,0,-0.004882812,0.005859375,2.953369,0,0,2.565552,0.4873657,3.351,0,0,0,0.5100098,nan,2,0.036,1,128,0.470459,0.472168,0.5516357,0.4552307,-0.009765625,-0.01074219,-0.00390625,1,2,0
3719.892,0.001009,0.0859375,-0.21875,0.1230469,3.429688,7,8.703125,0.06054688,-0.08007812,0.09960938,0.02929688,-0.03515625,0,-0.004882812,0.005859375,2.954346,0,0,2.565552,0.4873657,3.351,0,0,0,0.5100098,nan,2,0.046,1,128,0.5127563,0.4786377,0.5396118,0.4184875,-0.009765625,-0.01074219,-0.00390625,1,2,0
3719.902,0.000952,0.140625,0.1738281,0.06445312,-7.445312,-4.007812,9,0.07421875,-0.015625,0.09960938,0.02539062,-0.03125,0,-0.004150391,0.005371094,2.955322,0,0,2.565552,0.4873657,3.351,0,0,0,0.5100098,nan,2,0.056,1,128,0.4795227,0.4525452,0.5548401,0.4625549,-0.009765625,-0.01074219,-0.00390625,1,2,0
3719.913,0.001009,0.2890625,-0.05078125,0.1308594,2.757812,0.2734375,4.34375,0.08203125,-0.078125,0.09375,0.02148438,-0.02734375,0,-0.003540039,0.004516602,2.956299,0,0,2.565552,0.4873657,3.351,0,0,0,0.5100098,nan,2,0.067,1,128,0.4976807,0.4665527,0.546814,0.4384155,-0.009765625,-0.01074219,-0.00390625,1,2,0
3719.923,0.00097,-0.1542969,0.2324219,0.08398438,1.101562,0.2265625,1.46875,-0.0234375,0.05664062,0.09570312,0.01757812,-0.02734375,0,-0.003051758,0.004638672,2.957275,0,0,2.565552,0.4873657,3.351,0,0,0,0.5100098,nan,2,0.077,1,128,0.5045166,0.416626,0.54422,0.4841003,-0.009765625,-0.01074219,-0.00390625,1,2,0
3719.933,0.001028,0.171875,0.1347656,0.1230469,-1.5,-2.867188,29.83594,-0.01953125,0.01757812,0.1132812,0.01953125,-0.02734375,0,-0.003295898,0.004760742,2.958252,0,0,2.565552,0.4873657,3.351,0,0,0,0.5100098,nan,2,0.087,1,128,0.51828,0.4216919,0.5709534,0.4385681,-0.009765625,-0.01074219,-0.00390625,1,2,0
3719.942,0.00103,-0.005859375,-0.1875,0.07226562,-1.21875,-5.890625,17.28125,-0.04492188,-0.08203125,0.09765625,0.02148438,-0.02734375,0,-0.003540039,0.004638672,2.959229,0,0,2.565552,0.4873657,3.351,0,0,0,0.5100098,nan,2,0.096,1,128,0.5100098,0.4807434,0.4902039,0.4685059,-0.009765625,-0.01074219,-0.00390625,1,2,0
3719.952,0.000967,-0.5097656,-0.5273438,0.04882812,-2.835938,-8.726562,27.91406,-0.1308594,-0.1230469,0.08203125,0.01953125,-0.02734375,0,-0.003417969,0.004394531,2.960205,0,0,2.565552,0.4873657,3.351,0,0,0,0.5100098,nan,2,0.106,1,128,0.5437927,0.4662476,0.4558716,0.483551,-0.009765625,-0.01074219,-0.00390625,1,2,0
3719.962,0.000998,-0.3710938,-0.2636719,0.1308594,4.804688,6.703125,15.24219,-0.009765625,0.04296875,0.09960938,0.01953125,-0.02734375,0,-0.003417969,0.004516602,2.96106,0,0,2.565552,0.4873657,3.351,0,0,0,0.5100098,nan,2,0.116,1,128,0.5099487,0.4223022,0.5612793,0.4559326,-0.009765625,-0.01074219,-0.00390625,1,2,0
3719.972,0.001013,0.1367188,0.3183594,0.06054688,-2.414062,-3.757812,0.9921875,0.0234375,0.08789062,0.08203125,0.02148438,-0.02734375,0,-0.003662109,0.004638672,2.962036,0,0,2.565552,0.4873657,3.351,0,0,0,0.5100098,nan,2,0.126,1,128,0.4490662,0.4619446,0.5498962,0.4885559,-0.009765625,-0.01074219,-0.00390625,1,2,0
3719.982,0.000997,-0.08203125,0.0234375,0.1015625,-3.992188,-2.34375,32.4375,-0.02929688,0.0078125,0.08984375,0.02148438,-0.03125,0,-0.003662109,0.005126953,2.962891,0,0,2.565552,0.4873657,3.351,0,0,0,0.5100098,nan,2,0.001,1,128,0.5143127,0.4462585,0.5319824,0.4569092,-0.009765625,-0.01074219,-0.00390625,1,2,0
3719.992,0.000996,0.1464844,0.005859375,0.1328125,5.960938,5.125,-19.70312,0.08789062,0.03515625,0.1074219,0.02148438,-0.03125,0,-0.00378418,0.005126953,2.963867,0,0,2.565552,0.4873657,3.351,0,0,0,0.5100098,nan,2,0.011,1,128,0.4940491,0.4360352,0.6011658,0.4182434,-0.009765625,-0.01074219,-0.00390625,1,2,0
3720.003,0.000968,0.7382812,0.3457031,0.07617188,-6.242188,-4.539062,39.27344,0.1503906,-0.07421875,0.08398438,0.01953125,-0.02539062,0,-0.003417969,0.004272461,2.964844,0,0,2.565552,0.4873657,3.351,0,0,0,0.5100098,nan,2,0.021,1,128,0.4406433,0.5126953,0.5526123,0.443512,-0.009765625,-0.01074219,-0.00390625,1,2,0
3720.013,0.001007,0.015625,-0.1367188,0.1230469,3.898438,9.3125,9.867188,-0.01953125,-0.09960938,0.1015625,0.01757812,-0.0234375,0,-0.002929688,0.00378418,2.96582,0,0,2.565552,0.4915771,3.351,0,0,0,0.5150146,nan,2,0.009,1,128,0.5486145,0.4449158,0.5289917,0.4437866,-0.009765625,-0.01074219,-0.00390625,1,2,0
3720.023,0.000961,0.05664062,-0.06640625,0.06640625,-0.6953125,-9.773438,0.8671875,0.02929688,0.015625,0.08398438,0.01367188,-0.0234375,0,-0.002441406,0.00378418,2.966797,0,0,2.565552,0.4915771,3.351,0,0,0,0.5150146,nan,2,0.019,1,128,0.4779968,0.4702759,0.5275574,0.490509,-0.009765625,-0.01074219,-0.00390625,1,2,0.7142857
3720.033,0.000989,-0.05859375,0.03125,0.1074219,-1.117188,5.351562,21.58594,0.05859375,-0.005859375,0.09765625,0.01171875,-0.0234375,0,-0.001831055,0.00378418,2.967651,0,0,2.565552,0.4915771,3.351,0,0,0,0.5150146,nan,2,0.029,1,128,0.5084229,0.4512329,0.5560303,0.450592,-0.009765625,-0.01074219,-0.00390625,1,2,0
3720.043,0.001038,0.0234375,0.04882812,0.05859375,1.179688,-1.445312,-15.07031,0.01171875,-0.015625,0.08007812,0.009765625,-0.02148438,0,-0.001586914,0.003540039,2.968506,0,0,2.565552,0.4957886,3.351,0,0,0,0.5200195,nan,2,0.001,1,128,0.4908142,0.4750977,0.5317078,0.4855652,-0.009765625,-0.01074219,-0.00390625,1,2,0
3720.053,0.001009,-0.06054688,0.09375,0.06640625,-4.632812,2.484375,5.15625,-0.02734375,0.0625,0.06835938,0.0078125,-0.02148438,0,-0.001464844,0.003662109,2.96936,0,0,2.565552,0.4957886,3.351,0,0,0,0.5200195,nan,2,0.011,1,128,0.473114,0.4662781,0.5244446,0.5193176,-0.009765625,-0.01074219,-0.00390625,1,2,0
3720.062,0.00096,-0.28125,0.1289062,0.1015625,3.421875,4.085938,-4.164062,-0.05859375,0.07226562,0.09765625,0.009765625,-0.02539062,0,-0.001708984,0.004150391,2.970215,0,0,2.565552,0.4957886,3.351,0,0,0,0.5200195,nan,2,0.02,1,128,0.5276489,0.421814,0.5640564,0.469635,-0.009765625,-0.01074219,-0.00390625,1,2,0
3720.072,0.000971,0.0625,-0.2226562,0.08203125,2.6875,-6.398438,17.19531,-0.04101562,-0.06054688,0.1015625,0.01367188,-0.02539062,0,-0.002197266,0.004394531,2.971191,0,0,2.565552,0.4957886,3.351,0,0,0,0.5200195,nan,2,0.03,1,128,0.526947,0.4803772,0.5270081,0.448822,-0.009765625,-0.01074219,-0.00390625,1,2,0
3720.082,0.001008,-0.3867188,-0.3476562,0.1074219,1.265625,2.101562,-2.039062,0.03125,0,0.08007812,0.009765625,-0.02734375,0,-0.001831055,0.004516602,2.972046,0,0,2.565552,0.4957886,3.351,0,0,0,0.5200195,nan,2,0.04,1,128,0.502655,0.4726562,0.5330505,0.4747925,-0.009765625,-0.01074219,-0.00390625,1,2,0
3720.092,0.001007,0.3261719,0.4980469,0.0546875,-2.992188,-0.3359375,19.59375,0.1621094,0.1210938,0.08203125,0.005859375,-0.02539062,0,-0.0009765625,0.004150391,2.9729,0,0,2.565552,0.4957886,3.351,0,0,0,0.5200195,nan,2,0.051,1,128,0.4261475,0.4605103,0.6073914,0.4890747,-0.009765625,-0.01074219,-0.00390625,1,2,0
3720.102,0.001009,0.4199219,0.2675781,0.1230469,0.3125,1.4375,9.859375,0.06835938,-0.06054688,0.09960938,0.00390625,-0.02148438,0,-0.0006103516,0.003417969,2.973877,0,0,2.565552,0.4957886,3.351,0,0,0,0.5200195,nan,2,0.009,1,128,0.5092468,0.4642944,0.5700073,0.4396057,-0.009765625,-0.01074219,-0.00390625,1,2,0.6666667
3720.113,0.001039,-0.0859375,-0.1875,0.05078125,2.59375,-1.648438,8.414062,0.0234375,-0.05664062,0.06835938,0,-0.01953125,0,0,0.003173828,2.974731,0,0,2.565552,0.4957886,3.351,0,0,0,0.5200195,nan,2,0.019,1,128,0.4905396,0.4944458,0.5058594,0.4923096,-0.009765625,-0.01074219,-0.00390625,1,2,0
3720.123,0.001031,0.1035156,-0.01953125,0.1015625,-4.265625,0.3046875,22.07812,0.05859375,-0.01171875,0.08789062,-0.00390625,-0.01757812,0,0.0004882812,0.002929688,2.975464,0,0,2.565552,0.4957886,3.351,0,0,0,0.5200195,nan,2,0.029,1,128,0.5115051,0.4516602,0.5713501,0.4486389,-0.009765625,-0.01074219,-0.00390625,1,2,0
3720.133,0.00103,0.1894531,-0.1660156,0.1074219,6.835938,0.359375,17.67969,0.005859375,-0.09179688,0.09765625,-0.00390625,-0.01367188,0,0.0006103516,0.002319336,2.97644,0,0,2.565552,0.4957886,3.351,0,0,0,0.5200195,nan,2,0.039,1,128,0.5343323,0.4613037,0.5513916,0.4361267,-0.009765625,-0.01074219,-0.00390625,1,2,0
3720.143,0.001029,-0.4277344,-0.2285156,0.1035156,-9.796875,0.6640625,15.25781,-0.109375,-0.1230469,0.1113281,-0.00390625,-0.009765625,0,0.0004882812,0.001708984,2.977417,0,0,2.565552,0.4957886,3.351,0,0,0,0.5200195,nan,2,0.049,1,128,0.5852661,0.4243469,0.5284424,0.4450989,-0.009765625,-0.01074219,-0.00390625,1,2,0
3720.152,0.001027,-0.4667969,-0.2246094,0.09570312,2.476562,-1.304688,-0.640625,-0.0703125,-0.05078125,0.08984375,-0.001953125,-0.005859375,0,0.0001220703,0.0009765625,2.978394,0,0,2.565552,0.5,3.351,0,0,0,0.5250244,nan,2,0.007,1,128,0.5003357,0.4747009,0.5231628,0.5018005,-0.009765625,-0.01074219,-0.00390625,1,2,0
3720.162,0.000957,-0.06054688,0.2636719,0.09375,-0.796875,5.789062,12.10156,-0.0390625,0.08007812,0.08203125,0.00390625,-0.005859375,0,-0.0008544922,0.0009765625,2.979126,0,0,2.565552,0.5,3.351,0,0,0,0.5250244,nan,2,0.017,1,128,0.4760742,0.4578247,0.5783997,0.4877014,-0.009765625,-0.01074219,-0.00390625,1,2,0
3720.172,0.001009,0.078125,0.1347656,0.0859375,-2.765625,-5.945312,9.015625,-0.04492188,0.03515625,0.09570312,0.009765625,-0.0078125,0,-0.001586914,0.001464844,2.980103,0,0,2.565552,0.5,3.351,0,0,0,0.5250244,nan,2,0.027,1,128,0.5195007,0.4547424,0.5698547,0.4559326,-0.009765625,-0.01074219,-0.00390625,1,2,0
3720.182,0.001015,-0.1953125,-0.2636719,0.1132812,5.289062,4.09375,11.85938,-0.1054688,-0.001953125,0.08984375,0.01367188,-0.009765625,0,-0.002441406,0.001708984,2.980957,0,0,2.565552,0.5,3.351,0,0,0,0.5250244,nan,2,0.037,1,128,0.5289612,0.4616089,0.5325317,0.4769287,-0.009765625,-0.01074219,-0.00390625,1,2,0
3720.192,0.001014,0.005859375,0.5253906,0.046875,-6.882812,0.1484375,1.226562,-0.03515625,0.1621094,0.08203125,0.01953125,-0.01367188,0,-0.003417969,0.002197266,2.981934,0,0,2.565552,0.5,3.351,0,0,0,0.5250244,nan,2,0.047,1,128,0.45401,0.4541016,0.5798035,0.512085,-0.009765625,-0.01074219,-0.00390625,1,2,0
3720.202,0.001007,0.2109375,0.2597656,0.109375,1.976562,-3.523438,23,-0.04296875,0.08203125,0.08007812,0.02539062,-0.01757812,0,-0.004272461,0.003051758,2.982666,0,0,2.565552,0.5,3.351,0,0,0,0.5250244,nan,2,0.058,1,128,0.5006409,0.4636841,0.5655212,0.4701538,-0.008789062,-0.01074219,-0.00390625,1,2,0
3720.213,0.00101,-0.0625,-0.03515625,0.1074219,-1.8125,5.789062,-5.359375,-0.06640625,0.03320312,0.1015625,0.03125,-0.0234375,0,-0.005126953,0.00390625,2.983521,0,0,2.565552,0.5,3.351,0,0,0,0.5250244,nan,2,0.068,1,128,0.5456238,0.4405212,0.5721436,0.4417114,-0.008789062,-0.01074219,-0.00390625,1,2,0
3720.223,0.001009,0.4023438,0.3222656,0.05859375,-2.859375,-6.632812,29.85938,0.1171875,0.06445312,0.08789062,0.03125,-0.0234375,0,-0.005126953,0.00390625,2.984497,0,0,2.565552,0.5,3.351,0,0,0,0.5250244,nan,2,0.078,1,128,0.4397888,0.4996338,0.5823975,0.4781799,-0.008789062,-0.01074219,-0.00390625,1,2,0
3720.233,0.000949,0.4023438,0.28125,0.1132812,0.8125,8.359375,6.976562,0.1054688,-0.08398438,0.08203125,0.02734375,-0.01953125,0,-0.004516602,0.003417969,2.985352,0,0,2.565552,0.5,3.351,0,0,0,0.5250244,nan,2,0.088,1,128,0.512085,0.4830933,0.5660706,0.4387512,-0.008789062,-0.01074219,-0.00390625,1,2,0
3720.243,0.001007,0.2753906,-0.05078125,0.1191406,5.703125,8.140625,-1.601562,-0.01171875,-0.2421875,0.1015625,0.0234375,-0.01367188,0,-0.00378418,0.002197266,2.986206,0,0,2.565552,0.5,3.351,0,0,0,0.5250244,nan,2,0.098,1,128,0.5850525,0.4617615,0.5298462,0.4233398,-0.008789062,-0.01074219,-0.00390625,1,2,0
3720.252,0.001002,-0.01171875,-0.08789062,0.08398438,3.960938,4.539062,12.1875,0.1171875,-0.009765625,0.08398438,0.01757812,-0.009765625,0,-0.002929688,0.001586914,2.987061,0,0,2.565552,0.5042114,3.351,0,0,0,0.5300293,nan,2,0.005,1,128,0.4896851,0.4768372,0.5648499,0.4855042,-0.008789062,-0.01074219,-0.00390625,1,2,0
3720.262,0.001015,-0.0078125,0.1386719,0.06640625,3.140625,1.90625,14.14062,0.1054688,0.04296875,0.08398438,0.01171875,-0.0078125,0,-0.002075195,0.001220703,2.987915,0,0,2.565552,0.5042114,3.351,0,0,0,0.5300293,nan,2,0.015,1,128,0.4798889,0.4692993,0.5753174,0.4923401,-0.009765625,-0.01074219,-0.00390625,1,2,0
3720.272,0.001009,0.1738281,0.140625,0.0859375,-3.148438,-1.90625,6.53125,0.06640625,0.04296875,0.08984375,0.0078125,-0.009765625,0,-0.001220703,0.001586914,2.98877,0,0,2.565552,0.5042114,3.351,0,0,0,0.5300293,nan,2,0.025,1,128,0.5037842,0.4717102,0.559906,0.4814453,-0.009765625,-0.01074219,-0.00390625,1,2,0
3720.282,0.00101,-0.009765625,-0.1015625,0.0859375,1.640625,-1.304688,15.25,0.01367188,-0.009765625,0.09960938,0.005859375,-0.01171875,0,-0.001098633,0.001831055,2.989746,0,0,2.565552,0.5042114,3.351,0,0,0,0.5300293,nan,2,0.035,1,128,0.5267029,0.4714966,0.5537109,0.4649353,-0.009765625,-0.01074219,-0.00390625,1,2,0
3720.292,0.001001,0.07617188,0.1679688,0.09570312,-1.328125,5.445312,-2.3125,0.06640625,0.07617188,0.09765625,0.00390625,-0.01171875,0,-0.0004882812,0.002075195,2.990723,0,0,2.565552,0.5042114,3.351,0,0,0,0.5300293,nan,2,0.045,1,128,0.4997253,0.4564514,0.5852356,0.4754333,-0.009765625,-0.01074219,-0.00390625,1,2,0
3720.302,0.001008,0.2714844,0.1621094,0.078125,-1.796875,-9.015625,14.9375,0.06640625,0.06835938,0.08984375,0,-0.015625,0,0,0.002807617,2.991699,0,0,2.565552,0.5042114,3.351,0,0,0,0.5300293,nan,2,0.055,1,128,0.4902344,0.4819641,0.5623474,0.4822998,-0.009765625,-0.01074219,-0.00390625,1,2,0
3720.312,0.001008,-0.15625,-0.03125,0.09765625,1.703125,10.70312,13.32812,-0.07226562,0.04882812,0.09179688,0,-0.0234375,0,0,0.00378418,2.992554,0,0,2.565552,0.5042114,3.351,0,0,0,0.5300293,nan,2,0.066,1,128,0.5376587,0.4581604,0.5306396,0.490387,-0.009765625,-0.01074219,-0.00390625,1,2,0
3720.323,0.001009,0.1269531,-0.02148438,0.08398438,0.5703125,-8.398438,-0.5703125,0.02929688,0.07226562,0.09570312,0,-0.02929688,0,0.0001220703,0.004760742,2.99353,0,0,2.565552,0.5042114,3.351,0,0,0,0.5300293,nan,2,0.076,1,128,0.5169678,0.4629822,0.575592,0.4613037,-0.009765625,-0.01171875,-0.00390625,1,2,0
3720.333,0.001008,0,0.08007812,0.1132812,-5.15625,5.09375,23.96094,0.03710938,0.00390625,0.09570312,-0.001953125,-0.02929688,0,0.0004882812,0.005004883,2.994507,0,0,2.565552,0.5042114,3.351,0,0,0,0.5300293,nan,2,0.086,1,128,0.5188293,0.4749756,0.5592041,0.4638367,-0.009765625,-0.01171875,-0.00390625,1,2,0
3720.342,0.001012,-0.1464844,0.05273438,0.06445312,-10.14062,1.132812,32.53906,-0.01171875,-0.01757812,0.078125,-0.00390625,-0.02929688,0,0.0006103516,0.004882812,2.995239,0,0,2.565552,0.5084229,3.351,0,0,0,0.5349731,nan,2,0.003,1,128,0.5105896,0.4871826,0.5352783,0.5006409,-0.009765625,-0.01171875,-0.00390625,1,2,0
3720.353,0.001025,-0.2148438,-0.15625,0.08203125,-8.226562,-6.6875,2.03125,-0.03125,0.0234375,0.08007812,-0.00390625,-0.03125,0,0.0007324219,0.005126953,2.996094,0,0,2.565552,0.5084229,3.351,0,0,0,0.5349731,nan,2,0.014,1,128,0.5365601,0.4581909,0.5530396,0.4858704,-0.009765625,-0.01171875,-0.00390625,1,2,0
3720.362,0.001011,-0.2558594,0.06640625,0.1132812,6.015625,4.078125,27.53906,-0.03320312,0.07226562,0.09765625,-0.00390625,-0.03320312,0,0.0008544922,0.005615234,2.996826,0,0,2.565552,0.5084229,3.32,0,0,0,0.5349731,nan,2,0.023,1,128,0.5404358,0.4272766,0.5869446,0.4790039,-0.009765625,-0.01171875,-0.00390625,1,2,0
3720.372,0.001009,0.1484375,0.1210938,0.09570312,-4.320312,-1.078125,-22.29688,0.015625,-0.01367188,0.09960938,-0.00390625,-0.03125,0,0.0004882812,0.005371094,2.997925,0,0,2.565552,0.5084229,3.32,0,0,0,0.5349731,nan,2,0.033,1,128,0.5061646,0.4831543,0.574646,0.469696,-0.009765625,-0.01171875,-0.00390625,1,2,0
3720.382,0.001008,0.2226562,0.4316406,0.06835938,-2.9375,-2.75,39.21875,0.05664062,0.01953125,0.08398438,-0.00390625,-0.02929688,0,0.0006103516,0.004882812,2.998901,0,0,2.565552,0.5084229,3.32,0,0,0,0.5349731,nan,2,0.043,1,128,0.4714661,0.4886475,0.5734558,0.5000916,-0.009765625,-0.01171875,-0.00390625,1,2,0
3720.392,0.00102,0.02539062,-0.1230469,0.1210938,6.796875,3.234375,-5.953125,-0.07617188,-0.1269531,0.0859375,-0.00390625,-0.02734375,0,0.0007324219,0.004516602,2.999634,0,0,2.565552,0.5084229,3.32,0,0,0,0.5349731,nan,2,0.006,1,128,0.5740967,0.4710693,0.5258484,0.4626465,-0.009765625,-0.01171875,-0.00390625,1,2,0
3720.402,0.001007,-0.5429688,-0.4160156,0.05859375,-4.5625,-8.09375,11.03906,-0.1210938,-0.07226562,0.1113281,-0.00390625,-0.02734375,0,0.0006103516,0.004638672,3.000732,0,0,2.565552,0.5084229,3.32,0,0,0,0.5349731,nan,2,0.016,1,128,0.5857239,0.4466553,0.5281372,0.473175,-0.009765625,-0.01171875,-0.00390625,1,2,0
3720.412,0.001009,-0.1425781,-0.01757812,0.1035156,3.125,2.984375,20.14844,-0.01367188,0.0625,0.0703125,-0.001953125,-0.02929688,0,0.0002441406,0.004882812,3.001587,0,0,2.565552,0.5084229,3.32,0,0,0,0.5349731,nan,2,0.026,1,128,0.4793396,0.4870911,0.5514526,0.5158081,-0.009765625,-0.01171875,-0.00390625,1,2,0
3720.423,0.001036,-0.015625,0.06835938,0.07421875,3.664062,-1.703125,-5.398438,-0.01757812,0.02539062,0.08203125,0,-0.03125,0,0,0.005249023,3.002319,0,0,2.565552,0.5084229,3.32,0,0,0,0.5349731,nan,2,0.036,1,128,0.5274353,0.4618225,0.5732117,0.4712219,-0.009765625,-0.01171875,-0.00390625,1,2,0
3720.433,0.001009,-0.3105469,-0.1484375,0.078125,-4.664062,-3.328125,24.58594,-0.1035156,-0.0390625,0.078125,0.001953125,-0.03125,0,-0.0002441406,0.005249023,3.003052,0,0,2.565552,0.5084229,3.32,0,0,0,0.5349731,nan,2,0.046,1,128,0.5498657,0.4628601,0.5258484,0.4951477,-0.009765625,-0.01171875,-0.00390625,1,2,0
3720.443,0.000983,-0.2910156,-0.4746094,0.09765625,8.726562,-0.1015625,-12.54688,0.01367188,-0.0234375,0.08007812,0.001953125,-0.02929688,0,-0.0003662109,0.004760742,3.003906,0,0,2.565552,0.5084229,3.32,0,0,0,0.5349731,nan,2,0.057,1,128,0.5169373,0.4780884,0.5644836,0.4741821,-0.009765625,-0.01171875,-0.00390625,1,2,0
3720.452,0.001036,0.4316406,0.1757812,0.09765625,0.28125,-6.421875,31.44531,0.0234375,-0.05273438,0.08203125,0.005859375,-0.0234375,0,-0.0009765625,0.00402832,3.004517,0,0,2.565552,0.5084229,3.32,0,0,0,0.5349731,nan,2,0.066,1,128,0.5209351,0.4704895,0.6001892,0.4420776,-0.009765625,-0.01171875,-0.00390625,1,2,0
3720.462,0.000984,0.2324219,-0.08789062,0.07617188,1.835938,-3.890625,8.539062,0.046875,-0.06835938,0.0859375,0.00390625,-0.02148438,0,-0.0007324219,0.003662109,3.005371,0,0,2.565552,0.5126343,3.32,0,0,0,0.539978,nan,2,0.009,1,128,0.5104675,0.5069885,0.5617981,0.471283,-0.009765625,-0.01171875,-0.004882812,1,2,0
3720.472,0.00101,-0.046875,-0.01757812,0.09179688,-0.4296875,5.742188,14.60156,0.08984375,-0.04101562,0.07226562,0.001953125,-0.01953125,0,-0.0001220703,0.003173828,3.006226,0,0,2.565552,0.5126343,3.32,0,0,0,0.539978,nan,2,0.019,1,128,0.5009766,0.4985352,0.5721436,0.4788818,-0.009765625,-0.01171875,-0.004882812,1,2,0
3720.482,0.001009,0.2441406,-0.01757812,0.06640625,-0.0078125,-6.921875,-2.210938,0.09765625,-0.06054688,0.08984375,-0.00390625,-0.015625,0,0.0006103516,0.002563477,3.00708,0,0,2.565552,0.5126343,3.32,0,0,0,0.539978,nan,2,0.029,1,128,0.522522,0.484436,0.5838928,0.4596863,-0.009765625,-0.01171875,-0.004882812,1,2,0
3720.492,0.001024,-0.06835938,-0.046875,0.09570312,-4.835938,4.265625,26.97656,0.04296875,-0.09765625,0.08007812,-0.0078125,-0.009765625,0,0.001220703,0.001708984,3.007935,0,0,2.565552,0.5126343,3.32,0,0,0,0.539978,nan,2,0.039,1,128,0.5193481,0.5003967,0.5421753,0.4886169,-0.009765625,-0.01171875,-0.004882812,1,2,0
3720.502,0.00102,0.05664062,-0.09179688,0.06640625,7.125,-2.546875,-29.15625,0.05859375,0.00390625,0.07226562,-0.009765625,-0.0078125,0,0.001586914,0.001220703,3.008667,0,0,2.565552,0.5126343,3.32,0,0,0,0.539978,nan,2,0.049,1,128,0.4933167,0.4907837,0.5699768,0.4964294,-0.009765625,-0.01171875,-0.004882812,1,2,0
3720.512,0.00101,0.2871094,0.4375,0.06445312,-9.671875,-4.765625,14.5625,0.09570312,0.06445312,0.06445312,-0.01171875,-0.0078125,0,0.002075195,0.001342773,3.009399,0,0,2.565552,0.5126343,3.32,0,0,0,0.539978,nan,2,0.06,1,128,0.4689331,0.4968262,0.5819702,0.5027771,-0.009765625,-0.01171875,-0.004882812,1,2,0
3720.523,0.001009,0.04492188,-0.3554688,0.1035156,8.054688,2.234375,32.19531,-0.046875,-0.05664062,0.07617188,-0.01171875,-0.009765625,0,0.002075195,0.001464844,3.01001,0,0,2.565552,0.5126343,3.32,0,0,0,0.539978,nan,2,0.07,1,128,0.5679932,0.4715271,0.5536499,0.4573364,-0.009765625,-0.01171875,-0.004882812,1,2,0
3720.533,0.001002,0.0546875,0.09765625,0.07421875,-3.734375,-0.7265625,-31.00781,0.01953125,-0.01953125,0.08203125,-0.01171875,-0.005859375,0,0.001831055,0.0009765625,3.010864,0,0,2.565552,0.5126343,3.32,0,0,0,0.539978,nan,2,0.08,1,128,0.5024109,0.4876709,0.5760498,0.4844055,-0.009765625,-0.01171875,-0.004882812,1,2,0
3720.543,0.001009,0.4472656,0.6386719,0.05273438,-3.734375,-3.65625,39.24219,0.08984375,0.046875,0.0546875,-0.01171875,-0.001953125,0,0.001953125,0.0002441406,3.011475,0,0,2.565552,0.5126343,3.32,0,0,0,0.539978,nan,2,0.09,1,128,0.4459534,0.4991455,0.5915222,0.5138855,-0.009765625,-0.01171875,-0.004882812,1,2,0
3720.553,0.001009,-0.0859375,-0.06445312,0.1035156,7.429688,4.453125,-15.39844,-0.1132812,-0.1445312,0.0703125,-0.01171875,0,0,0.001953125,-0.0001220703,3.012207,0,0,2.565552,0.5126343,3.32,0,0,0,0.539978,nan,2,0.1,1,128,0.5868225,0.4740295,0.5136719,0.4760132,-0.009765625,-0.01171875,-0.004882812,1,2,0
3720.562,0.001011,-0.4375,-0.484375,0.02734375,-2.320312,-8.453125,17.76562,-0.1269531,-0.09765625,0.06835938,-0.0078125,0.001953125,0,0.001464844,-0.0002441406,3.012817,0,0,2.565552,0.5126343,3.32,0,0,0,0.539978,nan,2,0.109,1,128,0.548645,0.4987488,0.5002136,0.5029297,-0.009765625,-0.01171875,-0.004882812,1,2,0
3720.572,0.001009,-0.3105469,-0.07226562,0.1035156,1.09375,3.960938,10.77344,-0.07421875,0.0546875,0.07226562,-0.00390625,0.001953125,0,0.0007324219,-0.0001220703,3.01355,0,0,2.565552,0.5126343,3.32,0,0,0,0.539978,nan,2,0.119,1,128,0.5264587,0.4517212,0.57724,0.4951172,-0.009765625,-0.01171875,-0.004882812,1,2,0
3720.582,0.001013,-0.04492188,0.0859375,0.04101562,1.914062,0.703125,10.59375,0,0.05664062,0.05859375,-0.001953125,0,0,0.0003662109,0.0001220703,3.01416,0,0,2.565552,0.5126343,3.32,0,0,0,0.539978,nan,2,0.129,1,128,0.4892883,0.497345,0.5626831,0.5011597,-0.009765625,-0.01171875,-0.004882812,1,2,0
3720.592,0.001018,0.05859375,0.1582031,0.0625,-2.875,-4.578125,-2.546875,-0.01757812,0.05078125,0.06640625,-0.001953125,-0.00390625,0,0.0002441406,0.0007324219,3.014771,0,0,2.565552,0.5126343,3.32,0,0,0,0.539978,nan,2,0.139,1,128,0.5211182,0.4726562,0.5699768,0.4868164,-0.009765625,-0.01171875,-0.004882812,1,2,0
3720.602,0.001029,-0.125,-0.21875,0.0703125,1.796875,4.210938,17.44531,-0.04882812,-0.03320312,0.0625,0,-0.00390625,0,-0.0001220703,0.0008544922,3.015381,0,0,2.565552,0.5126343,3.32,0,0,0,0.539978,nan,2,0.149,1,128,0.5341797,0.4916687,0.5393982,0.48526,-0.009765625,-0.01171875,-0.004882812,1,2,0
3720.612,0.001008,-0.1074219,0.1523438,0.03710938,2.484375,-1.367188,-17.88281,-0.05078125,0.06640625,0.0546875,0.001953125,-0.005859375,0,-0.0004882812,0.0009765625,3.015991,0,0,2.565552,0.5126343,3.32,0,0,0,0.539978,nan,2,0.16,1,128,0.4945984,0.4780884,0.5514526,0.5263977,-0.009765625,-0.01171875,-0.004882812,1,2,0
3720.623,0.001009,-0.07617188,-0.0625,0.046875,-6.03125,-6.492188,22.57812,0.01367188,0.02539062,0.0546875,0.00390625,-0.0078125,0,-0.0006103516,0.001342773,3.016602,0,0,2.565552,0.5126343,3.32,0,0,0,0.539978,nan,2,0.17,1,128,0.5020447,0.5029297,0.5487366,0.4968262,-0.009765625,-0.01171875,-0.004882812,1,2,0
3720.633,0.001009,-0.1640625,0.2265625,0.0703125,8.117188,4.15625,-11.45312,0.03515625,0.1445312,0.06640625,0.00390625,-0.01171875,0,-0.0004882812,0.001953125,3.017212,0,0,2.565552,0.5126343,3.32,0,0,0,0.539978,nan,2,0.18,1,128,0.4891357,0.4537659,0.6051025,0.5025635,-0.009765625,-0.01171875,-0.004882812,1,2,0
3720.643,0.001009,0.3359375,0.5800781,0.0390625,-10.36719,-5.398438,3.148438,0.01953125,0.03125,0.05273438,0.005859375,-0.01171875,0,-0.001098633,0.001953125,3.017822,0,0,2.565552,0.5126343,3.32,0,0,0,0.539978,nan,2,0.19,1,128,0.4716187,0.5109558,0.5668945,0.5010681,-0.009765625,-0.01171875,-0.004882812,1,2,0
3720.653,0.001009,0.1230469,-0.1035156,0.08203125,4.539062,2.445312,16.85938,-0.07421875,-0.01757812,0.06640625,0.01171875,-0.01367188,0,-0.001953125,0.002197266,3.018311,0,0,2.565552,0.5126343,3.32,0,0,0,0.539978,nan,2,0.2,1,128,0.5421753,0.4772949,0.5585022,0.4725647,-0.009765625,-0.01171875,-0.004882812,1,2,0
3720.663,0.001029,-0.08007812,-0.05664062,0.06640625,1.132812,6.34375,22.99219,-0.05664062,0.009765625,0.05859375,0.01367188,-0.015625,0,-0.002197266,0.002563477,3.019043,0,0,2.565552,0.5126343,3.32,0,0,0,0.539978,nan,2,0.21,1,128,0.5229187,0.4843445,0.5444031,0.4988403,-0.009765625,-0.01171875,-0.004882812,1,2,0
3720.672,0.000949,0.09765625,0.1953125,0.02539062,-5.023438,-6.460938,18.10156,0.01367188,0.02148438,0.04882812,0.01367188,-0.015625,0,-0.002197266,0.002563477,3.019531,0,0,2.565552,0.5126343,3.32,0,0,0,0.539978,nan,2,0.008,1,128,0.478241,0.5080566,0.5475159,0.5166931,-0.009765625,-0.01171875,-0.004882812,1,2,0
3720.682,0.001015,0,-0.01757812,0.06835938,1.085938,5.960938,-0.265625,-0.02539062,-0.0625,0.04296875,0.01367188,-0.01171875,0,-0.002319336,0.002075195,3.02002,0,0,2.565552,0.5126343,3.32,0,0,0,0.539978,nan,2,0.018,1,128,0.5130005,0.5056152,0.5284424,0.5034485,-0.009765625,-0.01171875,-0.004882812,1,2,0
3720.692,0.001038,0.0078125,-0.2148438,0.01171875,2.804688,-2.984375,9.242188,0.005859375,-0.04101562,0.04882812,0.01367188,-0.01171875,0,-0.002197266,0.002075195,3.020508,0,0,2.565552,0.5126343,3.32,0,0,0,0.539978,nan,2,0.028,1,128,0.5184326,0.5022278,0.5366516,0.4931946,-0.009765625,-0.01171875,-0.004882812,1,2,0.03174603
3720.702,0.001005,-0.109375,-0.06835938,0.06835938,-4.59375,-0.6953125,-0.46875,-0.01171875,0.015625,0.04492188,0.01367188,-0.01367188,0,-0.002197266,0.002319336,3.020996,0,0,2.565552,0.5126343,3.32,0,0,0,0.539978,nan,2,0.038,1,128,0.5185547,0.4813232,0.5504761,0.5001831,-0.009765625,-0.01171875,-0.004882812,1,2,0
3720.712,0.001013,-0.0234375,-0.109375,0.01953125,9.25,1.492188,9.132812,0,-0.001953125,0.04882812,0.01367188,-0.01367188,0,-0.002197266,0.002441406,3.021484,0,0,2.565552,0.5126343,3.32,0,0,0,0.539978,nan,2,0.048,1,128,0.5084229,0.4981384,0.5430908,0.5008545,-0.008789062,-0.01171875,-0.004882812,1,2,0
3720.723,0.001009,0.1132812,0.1210938,0.06054688,-8.007812,-7.320312,-23.07031,-0.005859375,-0.01171875,0.0546875,0.01367188,-0.01367188,0,-0.002319336,0.002441406,3.021973,0,0,2.565552,0.5126343,3.32,0,0,0,0.539978,nan,2,0.059,1,128,0.5228271,0.480957,0.5654297,0.4813232,-0.008789062,-0.01171875,-0.004882812,1,2,0
3720.733,0.001009,-0.1679688,-0.3554688,0.04492188,7.164062,3.820312,27.44531,-0.0234375,-0.09179688,0.04882812,0.01367188,-0.01171875,0,-0.002197266,0.002075195,3.022461,0,0,2.565552,0.5126343,3.32,0,0,0,0.539978,nan,2,0.069,1,128,0.5325317,0.5041809,0.5203552,0.4934387,-0.008789062,-0.01171875,-0.004882812,1,2,0
3720.743,0.001009,0.1328125,0.1054688,0.04101562,-4.320312,-1.164062,-26.75,0.1074219,0.015625,0.046875,0.009765625,-0.0078125,0,-0.001831055,0.001464844,3.023071,0,0,2.565552,0.5126343,3.32,0,0,0,0.539978,nan,2,0.079,1,128,0.463501,0.5045471,0.5792542,0.5032349,-0.008789062,-0.01171875,-0.004882812,1,2,0
3720.753,0.001009,0.7070312,0.6074219,0.05078125,-5,-1.585938,39.17969,0.2089844,0.015625,0.04492188,0.005859375,-0.001953125,0,-0.0009765625,0.0004882812,3.023438,0,0,2.565552,0.5126343,3.32,0,0,0,0.539978,nan,2,0.089,1,128,0.4460144,0.5063171,0.6211853,0.4770203,-0.009765625,-0.01171875,-0.004882812,1,2,0
3720.763,0.001009,0.3457031,-0.1015625,0.08398438,8.53125,4.75,-3.460938,0.005859375,-0.2011719,0.04882812,0.001953125,0.001953125,0,-0.0002441406,-0.0003662109,3.023926,0,0,2.565552,0.5126343,3.32,0,0,0,0.539978,nan,2,0.099,1,128,0.569397,0.5051575,0.5195618,0.4563904,-0.009765625,-0.01171875,-0.004882812,1,2,0
3720.772,0.001011,-0.6015625,-0.8554688,0.009765625,-4.6875,-6.039062,24.65625,-0.08203125,-0.2109375,0.04492188,0,0.0078125,0,-0.0001220703,-0.001342773,3.024414,0,0,2.565552,0.5126343,3.32,0,0,0,0.539978,nan,2,0.108,1,128,0.5685425,0.5153503,0.4641418,0.5025024,-0.009765625,-0.01171875,-0.004882812,1,2,0
3720.782,0.001009,-0.2519531,-0.1777344,0.08789062,6.34375,5.320312,6.40625,0.1035156,0.02929688,0.05859375,-0.00390625,0.01171875,0,0.0006103516,-0.001953125,3.024902,0,0,2.565552,0.5126343,3.32,0,0,0,0.539978,nan,2,0.118,1,128,0.4984436,0.4697266,0.5975342,0.4848328,-0.009765625,-0.01171875,-0.004882812,1,2,0
3720.792,0.001023,0.3886719,0.4980469,0.02734375,-4.429688,3.679688,20.95312,0.2128906,0.08203125,0.046875,-0.009765625,0.01367188,0,0.001464844,-0.002197266,3.025391,0,0,2.565552,0.5126343,3.32,0,0,0,0.539978,nan,2,0.128,1,128,0.432251,0.5145264,0.607605,0.4961548,-0.009765625,-0.01171875,-0.004882812,1,2,0
3720.802,0.000974,0.328125,0.06445312,0.0625,0.140625,-4.546875,2.234375,0.08398438,-0.02539062,0.05664062,-0.01367188,0.01367188,0,0.002319336,-0.002197266,3.026001,0,0,2.565552,0.5126343,3.32,0,0,0,0.539978,nan,2,0.138,1,128,0.5234985,0.4937134,0.5663757,0.4669495,-0.009765625,-0.01171875,-0.004882812,1,2,0
3720.813,0.00102,-0.1015625,-0.03515625,0.1132812,1,7.640625,14.25,0.04492188,0.02929688,0.07421875,-0.01757812,0.01171875,0,0.003173828,-0.001953125,3.026611,0,0,2.565552,0,3.32,0,0,0,0,nan,2,0.004,1,192,0.1000061,0.1000061,0.1000061,0.1000061,0,0,0,1,2,0
3720.823,0.001015,0.1054688,0.1347656,0.0625,-2.703125,-7.273438,4.125,0.0546875,0.05078125,0.07617188,-0.01757812,0.01171875,0,0.00378418,-0.001586914,3.027344,0,0,2.565552,0,3.32,0,0,0,0,nan,2,0.014,1,192,0.1000061,0.1000061,0.1000061,0.1000061,0,0,0,1,2,0
3720.833,0.001031,0.01757812,-0.1875,0.1015625,7.953125,0.4296875,0.8359375,0.009765625,-0.0078125,0.08789062,-0.01757812,0.01171875,0,0.00402832,-0.001464844,3.028198,0,0,3.028198,0.0003356934,3.32,0,0,0,0,nan,4,0.024,1,192,0.1000061,0.1000061,0.1000061,0.1000061,0,0,0,1,6,0
3720.843,0.001048,-0.08984375,-0.02539062,0.15625,-0.6953125,1.84375,10.35938,-0.02148438,0,0.1132812,-0.01757812,0.01171875,0,0.00378418,-0.001220703,3.029175,0,0,3.029175,0.00201416,3.32,0,0,0,0,nan,4,0.034,1,192,0.1000061,0.1000061,0.1000061,0.1000061,0,0,0,1,6,0
3720.853,0.001013,-0.1503906,0.1816406,0.1582031,-7.695312,-1.992188,15.35156,-0.04296875,0.04296875,0.1308594,-0.01757812,0.01171875,0,0.003417969,-0.0008544922,3.030396,0,0,3.030396,0.003692627,3.32,0,0,0,0,nan,4,0.044,1,192,0.1000061,0.1000061,0.1000061,0.1000061,0,0,0,1,6,0
3720.862,0.001011,0.02539062,-0.2226562,0.171875,6.25,2.671875,-2.132812,-0.0390625,0.01171875,0.1367188,-0.01757812,0.01171875,0,0.003051758,-0.0003662109,3.031616,0,0,3.031616,0.005218506,3.32,0,0,0,0,nan,4,0.007,1,192,0.1000061,0.1000061,0.1000061,0.1000061,0,0,0,1,6,0
3720.872,0.001037,-0.109375,0.0078125,0.2226562,-0.828125,-3.960938,7.125,-0.0625,0.02148438,0.1601562,-0.01757812,0.01171875,0,0.002441406,-0.0001220703,3.033081,0,0,3.033081,0.006896973,3.32,0,0,0,0,nan,4,0.017,1,192,0.1000061,0.1000061,0.1000061,0.1000061,0,0,0,1,6,0
3720.882,0.001007,-0.06054688,-0.2167969,0.1992188,4.507812,3.109375,0.6953125,-0.07226562,0.01757812,0.1640625,-0.01757812,0.01171875,0,0.001708984,0.0003662109,3.034668,0,0,3.034668,0.008575439,3.32,0,0,0,0,nan,4,0.027,1,192,0.1000061,0.1000061,0.1000061,0.1000061,0,0,0,1,6,0
3720.892,0.001017,-0.01953125,0.02539062,0.1035156,1.59375,2.75,6.226562,-0.07421875,0.07421875,0.1679688,-0.01757812,0.01171875,0,0.0008544922,0.0009765625,3.036377,0,0,3.036377,0.01028442,3.32,0,0,0,0,nan,4,0.037,1,192,0.1000061,0.1000061,0.1000061,0.1000061,0,0,0,1,6,0
3720.902,0.001031,-0.06835938,0.3085938,0.2265625,-6.234375,-3.648438,6.59375,-0.08007812,0.06640625,0.2089844,-0.01757812,0.01171875,0,0.0001220703,0.001464844,3.03833,0,0,3.03833,0.01196289,3.32,0,0,0,0,nan,4,0.047,1,192,0.1000061,0.1000061,0.1000061,0.1000061,0,0,0,1,6,0
3720.913,0.001034,-0.1757812,-0.2207031,0.2460938,4.78125,1.515625,0.5234375,-0.09960938,0.001953125,0.2070312,-0.01757812,0.01171875,0,-0.0007324219,0.001831055,3.040405,0,0,3.040405,0.01364136,3.32,0,0,0,0,nan,4,0.008,1,192,0.1000061,0.1000061,0.1000061,0.1000061,0,0,0,1,6,0
3720.923,0.001033,-0.009765625,0.2382812,0.1816406,-4.539062,-1.304688,7.421875,-0.07421875,0.078125,0.2304688,-0.01757812,0.01171875,0,-0.001708984,0.002319336,3.042725,0,0,3.042725,0.01531982,3.32,0,0,0,0,nan,4,0.018,1,192,0.1000061,0.1000061,0.1000061,0.1000061,0,0,0,1,6,0
3720.933,0.001005,-0.1601562,-0.1621094,0.2675781,4.09375,2.375,1.789062,-0.1054688,0.0078125,0.2265625,-0.01757812,0.01171875,0,-0.002563477,0.002685547,3.045044,0,0,3.045044,0.01699829,3.32,0,0,0,0,nan,4,0.028,1,192,0.1000061,0.1000061,0.1000061,0.1000061,0,0,0,1,6,0
3720.943,0.001033,-0.02148438,0.1855469,0.2929688,-3.351562,-3.5,4.3125,-0.07421875,0.05273438,0.265625,-0.01757812,0.01171875,0,-0.003417969,0.003173828,3.047485,0,0,3.047485,0.01867676,3.32,0,0,0,0,nan,4,0.038,1,192,0.1000061,0.1000061,0.1000061,0.1000061,0,0,0,1,6,0
3720.953,0.000974,-0.1621094,-0.03710938,0.1191406,2.265625,1.023438,4.859375,-0.09375,0.02734375,0.234375,-0.01757812,0.01171875,0,-0.004272461,0.003417969,3.049927,0,0,3.049927,0.02035522,3.32,0,0,0,0,nan,4,0.048,1,192,0.1000061,0.1000061,0.1000061,0.1000061,0,0,0,1,6,0
3720.963,0.001008,-0.05664062,-0.015625,0.3984375,-1.164062,3.25,3.734375,-0.08398438,0.015625,0.2714844,-0.01757812,0.01171875,0,-0.005126953,0.003662109,3.052612,0,0,3.052612,0.02206421,3.32,0,0,0,0,nan,4,0.059,1,192,0.1000061,0.1000061,0.1000061,0.1000061,0,0,0,1,6,0
3720.973,0.001008,-0.1171875,0.02539062,0.1621094,1.039062,-4.164062,3.867188,-0.08398438,0.009765625,0.2753906,-0.01757812,0.01171875,0,-0.005981445,0.00390625,3.05542,0,0,3.05542,0.02374268,3.32,0,0,0,0,nan,4,0.069,1,192,0.1000061,0.1000061,0.1000061,0.1000061,0,0,0,1,6,0
3720.982,0.001012,-0.1054688,0.02734375,0.1816406,0.78125,-5.03125,3.023438,-0.07421875,-0.005859375,0.2890625,-0.01757812,0.01171875,0,-0.006591797,0.00390625,3.057983,0,0,3.057983,0.02523804,3.32,0,0,0,0,nan,4,0.078,1,192,0.1000061,0.1000061,0.1000061,0.1000061,0,0,0,1,6,0
3720.992,0.001009,-0.02539062,0.08203125,0.1445312,-1.671875,1.453125,5.859375,-0.05859375,-0.00390625,0.2695312,-0.01757812,0.01171875,0,-0.007202148,0.00378418,3.060913,0,0,3.060913,0.02694702,3.32,0,0,0,0,nan,4,0.088,1,192,0.1000061,0.1000061,0.1000061,0.1000061,0,0,0,1,6,0
3721.002,0.001014,-0.03125,0.04296875,0.2558594,-3.84375,1.78125,9.523438,-0.04296875,-0.015625,0.28125,-0.01757812,0.01171875,0,-0.0078125,0.003540039,3.063965,0,0,3.063965,0.02862549,3.32,0,0,0,0,nan,4,0.098,1,192,0.1000061,0.1000061,0.1000061,0.1000061,0,0,0,1,6,0
3721.012,0.001013,-0.08789062,-0.0859375,0.3574219,-1.695312,2.460938,4.875,-0.03515625,-0.04882812,0.3046875,-0.01757812,0.01171875,0,-0.008300781,0.002929688,3.067139,0,0,3.067139,0.03030396,3.741,0,0,0,0,nan,4,0.108,1,128,0.1000061,0.1000061,0.1000061,0.1000061,0,0,0,1,6,0
3721.022,0.001011,-0.1386719,-0.21875,0.390625,-0.0859375,4.179688,1.335938,-0.04492188,-0.08789062,0.3242188,-0.01757812,0.01171875,0,-0.008666992,0.002075195,3.070435,0,0,3.070435,0.03198242,3.741,0,0,0,0,nan,4,0.118,1,128,0.1000061,0.1000061,0.1000061,0.1000061,0,0,0,1,6,0
3721.033,0.001013,-0.1230469,-0.2949219,0.4082031,0.6640625,3.9375,-0.65625,-0.03710938,-0.1152344,0.3378906,-0.01757812,0.01171875,0,-0.008911133,0.0008544922,3.07373,0,0,3.07373,0.03366089,3.741,0,0,0,0,nan,4,0.128,1,128,0.1000061,0.1000061,0.1000061,0.1000061,0,0,0,1,6,0
3721.043,0.001017,-0.08984375,-0.3378906,0.3925781,0.875,3.5,-0.65625,-0.02148438,-0.1464844,0.3378906,-0.01757812,0.01171875,0,-0.009033203,-0.0006103516,3.077271,0,0,3.077271,0.03533936,3.741,0,0,0,0,nan,4,0.138,1,128,0.1000061,0.1000061,0.1000061,0.1000061,0,0,0,1,6,0
3721.053,0.001,-0.04882812,-0.3027344,0.3730469,-0.0546875,2.648438,0.671875,0.00390625,-0.15625,0.3359375,-0.01757812,0.01171875,0,-0.008911133,-0.002441406,3.080688,0,0,3.080688,0.03704834,3.741,0,0,0,0,nan,4,0.006,1,128,0.1000061,0.1000061,0.1000061,0.1000061,0,0,0,1,6,0
3721.063,0.000991,-0.0234375,-0.1835938,0.3398438,-2.421875,0.8046875,4.75,0.03710938,-0.1660156,0.3378906,-0.01757812,0.01171875,0,-0.008544922,-0.004638672,3.084229,0,0,3.084229,0.03872681,3.741,0,0,0,0,nan,4,0.016,1,128,0.1000061,0.1000061,0.1000061,0.1000061,0,0,0,1,6,0
3721.073,0.001013,0.09179688,-0.5195312,0.3691406,2.585938,3.625,-0.671875,0.06640625,-0.2011719,0.3417969,-0.01757812,0.01171875,0,-0.00793457,-0.006713867,3.087646,0,0,3.087646,0.04040527,3.741,0,0,0,0,nan,4,0.026,1,128,0.1000061,0.1000061,0.1000061,0.1000061,0,0,0,1,6,0
3721.082,0.001007,0.00390625,0.2363281,0.328125,-8.46875,-1.320312,15.21094,0.1054688,-0.2070312,0.3515625,-0.01757812,0.01171875,0,-0.006958008,-0.009277344,3.09082,0,0,3.09082,0.04190063,3.741,0,0,0,0,nan,4,0.035,1,128,0.1000061,0.1000061,0.1000061,0.1000061,0,0,0,1,6,0
3721.092,0.001009,1.501953,11.91211,11.74219,14.75781,11.39844,-38.40625,0.02539062,0.6484375,3.726562,-0.01757812,0.01171875,0,-0.004516602,-0.03125,3.106934,0,0,3.106934,0.04360962,3.741,0,0,0,0,nan,4,0.045,1,128,0.1000061,0.1000061,0.1000061,0.1000061,0,0,0,1,6,0
3721.102,0.001007,0.1152344,1.175781,-0.4414062,-7.796875,-0.6171875,-38.03906,0.07226562,-0.2167969,0.8320312,-0.01757812,0.01171875,0,-0.00402832,-0.0390625,3.126953,0,0,3.126953,0.04528809,3.741,0,0,0,0,nan,4,0.056,1,128,0.1000061,0.1000061,0.1000061,0.1000061,0,0,0,1,6,0
3721.112,0.001006,0.3359375,-0.6367188,-0.03710938,6.296875,1.765625,-38.10156,-0.01367188,0.140625,0.05078125,-0.01757812,0.01171875,0,-0.004150391,-0.03601074,3.129517,0,0,3.129517,0.04696655,3.741,0,0,0,0,nan,4,0.066,1,128,0.1000061,0.1000061,0.1000061,0.1000061,0,0,0,1,6,0
3721.122,0.001006,0.9121094,-0.734375,-0.0546875,6.53125,-2.507812,8.625,0.28125,0.3359375,-0.0703125,-0.01757812,0.01171875,0,-0.001831055,-0.03015137,3.129028,0,0,3.129028,0.04864502,3.741,0,0,0,0,nan,4,0.076,1,128,0.1000061,0.1000061,0.1000061,0.1000061,0,0,0,1,6,0
3721.133,0.001007,0.2773438,0.2597656,-0.09179688,-7.15625,-1.296875,13.36719,0.1699219,0.546875,-0.078125,-0.01757812,0.01171875,0,0.0009765625,-0.02563477,3.128296,0,0,3.128296,0.05032349,3.741,0,0,0,0,nan,4,0.086,1,128,0.1000061,0.1000061,0.1000061,0.1000061,0,0,0,1,6,0
3721.143,0.001007,-0.1191406,1.28125,-0.05859375,-7.828125,-1.039062,14.76562,0.1484375,0.4707031,-0.08007812,-0.01757812,0.01171875,0,0.003051758,-0.02197266,3.127441,0,0,3.127441,0.05200195,3.741,0,0,0,0,nan,4,0.096,1,128,0.1000061,0.1000061,0.1000061,0.1000061,0,0,0,1,6,0
3721.153,0.001056,0.1796875,-0.01171875,-0.08398438,8.070312,0.7265625,-2.585938,0.2617188,0.1894531,-0.08007812,-0.01757812,0.01171875,0,0.005249023,-0.01806641,3.126587,0,0,3.126587,0.05371094,3.741,0,0,0,0,nan,4,0.106,1,128,0.1000061,0.1000061,0.1000061,0.1000061,0,0,0,1,6,0
3721.163,0.001007,0.6582031,-0.3632812,-0.08984375,3.15625,0.8671875,-1.414062,0.3046875,0.3378906,-0.06835938,-0.01757812,0.01171875,0,0.007568359,-0.01403809,3.125977,0,0,3.125977,0.0553894,3.741,0,0,0,0,nan,4,0.116,1,128,0.1000061,0.1000061,0.1000061,0.1000061,0,0,0,1,6,0
3721.173,0.001007,0.6796875,0.1230469,-0.005859375,-3.1875,0.4296875,5.085938,0.3105469,0.4960938,-0.0234375,-0.01757812,0.01171875,0,0.01013184,-0.009765625,3.125488,0,0,3.125488,0.05706787,3.741,0,0,0,0,nan,4,0.126,1,128,0.1000061,0.1000061,0.1000061,0.1000061,0,0,0,1,6,0
3721.182,0.001013,-0.125,0.7402344,0.0234375,1.734375,-0.6328125,4.992188,0.2304688,0.3203125,0.005859375,-0.01757812,0.01171875,0,0.01269531,-0.006713867,3.125488,0,0,3.125488,0.05856323,3.741,0,0,0,0,nan,4,0.135,1,128,0.1000061,0.1000061,0.1000061,0.1000061,0,0,0,1,6,0
3721.192,0.001015,-0.06640625,-0.8066406,-0.2636719,-1.335938,1.164062,33.90625,0.2851562,0.1386719,-0.1289062,-0.01757812,0.01171875,0,0.015625,-0.002929688,3.125122,0,0,3.125122,0.06027222,3.741,0,0,0,0,nan,4,0.145,1,128,0.1000061,0.1000061,0.1000061,0.1000061,0,0,0,1,6,0
3721.202,0.00101,1.550781,-3.087891,-0.265625,-2.445312,-3.882812,39.25781,-1.646484,-3.748047,-0.3027344,-0.01757812,0.01171875,0,-0.001953125,-0.02624512,3.122437,0,0,3.122437,0.06195068,3.741,0,0,0,0,nan,4,0.156,1,128,0.1000061,0.1000061,0.1000061,0.1000061,0,0,0,1,6,0
3721.212,0.001012,-0.2734375,0.1894531,-0.05859375,0.7265625,2.367188,-17.3125,-0.2675781,-0.3945312,-0.1210938,-0.01757812,0.01171875,0,-0.004638672,-0.03942871,3.120117,0,0,3.120117,0.06362915,3.741,0,0,0,0,nan,4,0.166,1,128,0.1000061,0.1000061,0.1000061,0.1000061,0,0,0,1,6,0
3721.222,0.001013,0.3085938,-0.3496094,-0.02539062,0.984375,-1.476562,-14.76562,0.1855469,-0.2910156,-0.02929688,-0.01757812,0.01171875,0,-0.00378418,-0.04223633,3.119507,0,0,3.119507,0.06530762,3.741,0,0,0,0,nan,4,0.176,1,128,0.1000061,0.1000061,0.1000061,0.1000061,0,0,0,1,6,0
3721.233,0.001013,0.2695312,0.09179688,0,-1.484375,5.46875,-4.65625,0.1523438,-0.0546875,-0.01757812,-0.01757812,0.01171875,0,-0.002075195,-0.04394531,3.119263,0,0,3.119263,0.06698608,3.741,0,0,0,0,nan,4,0.186,1,128,0.1000061,0.1000061,0.1000061,0.1000061,0,0,0,1,6,0
3721.243,0.001031,-0.0234375,-0.1757812,-0.3398438,-1.984375,0.234375,17.35156,-0.2402344,0.1289062,-0.1933594,-0.01757812,0.01171875,0,-0.004150391,-0.04162598,3.118408,0,0,3.118408,0.06869507,3.741,0,0,0,0,nan,4,0.196,1,128,0.1000061,0.1000061,0.1000061,0.1000061,0,0,0,1,6,0
3721.253,0.001037,0.3691406,-0.02734375,-0.34375,1.28125,-0.1171875,6.742188,0.05859375,0.04296875,-0.3183594,-0.01757812,0.01171875,0,-0.004882812,-0.04064941,3.115601,0,0,3.115601,0.07037354,3.741,0,0,0,0,nan,4,0.002,1,128,0.1000061,0.1000061,0.1000061,0.1000061,0,0,0,1,6,0
3721.263,0.001013,-0.1894531,-0.09570312,-0.2753906,-1.132812,5.671875,8.828125,-0.02929688,-0.001953125,-0.2988281,-0.01757812,0.01171875,0,-0.004760742,-0.04089355,3.112427,0,0,3.112427,0.072052,3.741,0,0,0,0,nan,4,0.012,1,128,0.1000061,0.1000061,0.1000061,0.1000061,0,0,0,1,6,0
3721.272,0.001038,0.2011719,0.0234375,-0.2011719,-3.828125,0.125,13.0625,0.02148438,-0.01757812,-0.2382812,-0.01757812,0.01171875,0,-0.004638672,-0.04089355,3.109985,0,0,3.109985,0.07357788,3.741,0,0,0,0,nan,4,0.021,1,128,0.1000061,0.1000061,0.1000061,0.1000061,0,0,0,1,6,0
3721.282,0.001007,-0.09765625,-0.0390625,-0.0625,1.601562,1.257812,7.976562,-0.046875,-0.01367188,-0.1074219,-0.01757812,0.01171875,0,-0.004760742,-0.04089355,3.108276,0,0,3.108276,0.07525635,3.741,0,0,0,0,nan,4,0.031,1,128,0.1000061,0.1000061,0.1000061,0.1000061,0,0,0,1,6,0
3721.292,0.001008,0.03515625,0.005859375,0.06640625,-1.351562,-0.7109375,10.15625,0.04296875,0.01171875,0.01171875,-0.01757812,0.01171875,0,-0.004638672,-0.04077148,3.10791,0,0,3.10791,0.07693481,3.741,0,0,0,0,nan,4,0.041,1,128,0.1000061,0.1000061,0.1000061,0.1000061,0,0,0,1,6,0.04761905
3721.302,0.001015,0.03515625,0.009765625,-0.04101562,0.4296875,-0.375,9.726562,-0.01757812,0.0078125,-0.005859375,-0.01757812,0.01171875,0,-0.004638672,-0.04064941,3.108032,0,0,3.108032,0.07861328,3.741,0,0,0,0,nan,4,0.052,1,128,0.1000061,0.1000061,0.1000061,0.1000061,0,0,0,1,6,0.7142857
3721.312,0.001009,-0.09375,-0.0234375,0.0234375,0.8828125,0.2578125,8.234375,-0.00390625,-0.01171875,0,-0.01757812,0.01171875,0,-0.004638672,-0.04064941,3.10791,0,0,3.10791,0.08029175,3.741,0,0,0,0,nan,4,0.062,1,128,0.1000061,0.1000061,0.1000061,0.1000061,0,0,0,1,6,0
3721.322,0.001006,0.06835938,0.05664062,-0.001953125,-2.570312,0.3203125,11.39844,0.009765625,0.02929688,-0.001953125,-0.01757812,0.01171875,0,-0.004638672,-0.04064941,3.10791,0,0,3.10791,0.08197021,3.741,0,0,0,0,nan,4,0.072,1,128,0.1000061,0.1000061,0.1000061,0.1000061,0,0,0,1,6,0
3721.333,0.001007,-0.01171875,-0.06445312,0,3.671875,-0.203125,8.289062,-0.001953125,-0.03320312,0.0078125,-0.01757812,0.01171875,0,-0.004638672,-0.04064941,3.108032,0,0,3.108032,0.08364868,3.741,0,0,0,0,nan,4,0.082,1,128,0.1000061,0.1000061,0.1000061,0.1000061,0,0,0,1,6,0
3721.343,0.001007,-0.04492188,0.04492188,0,-3.226562,-0.609375,10.01562,-0.005859375,0.03515625,-0.0078125,-0.01757812,0.01171875,0,-0.004638672,-0.04064941,3.10791,0,0,3.10791,0.08532715,3.741,0,0,0,0,nan,4,0.092,1,128,0.1000061,0.1000061,0.1000061,0.1000061,0,0,0,1,6,0
3721.353,0.001007,0.06835938,-0.02929688,0.005859375,3.351562,-0.1875,9.953125,0.015625,-0.03320312,0.005859375,-0.01757812,0.01171875,0,-0.004638672,-0.04064941,3.10791,0,0,3.10791,0.08703613,3.741,0,0,0,0,nan,4,0.102,1,128,0.1000061,0.1000061,0.1000061,0.1000061,0,0,0,1,6,0
3721.363,0.001007,-0.08007812,0.001953125,-0.015625,-2.679688,-0.25,9.585938,-0.03125,0.03710938,-0.005859375,-0.01757812,0.01171875,0,-0.004638672,-0.04052734,3.10791,0,0,3.10791,0.0887146,3.741,0,0,0,0,nan,4,0.112,1,128,0.1000061,0.1000061,0.1000061,0.1000061,0,0,0,1,6,0.5238096
3721.373,0.001008,-0.0625,0.15625,-0.00390625,-0.6875,0.6796875,10.83594,0.00390625,-0.001953125,0.00390625,-0.01757812,0.01171875,0,-0.004638672,-0.04052734,3.10791,0,0,3.10791,0.09039307,3.741,0,0,0,0,nan,4,0.122,1,128,0.1000061,0.1000061,0.1000061,0.1000061,0,0,0,1,6,0
3721.382,0.001013,-0.0546875,-0.02148438,-0.02734375,-1.34375,0.4765625,8.804688,-0.03710938,0.03125,-0.0078125,-0.01757812,0.01171875,0,-0.004760742,-0.04040527,3.10791,0,0,3.10791,0.09191895,3.741,0,0,0,0,nan,4,0.131,1,128,0.1000061,0.1000061,0.1000061,0.1000061,0,0,0,1,6,0
3721.392,0.001015,0.01757812,0.04101562,0.046875,0.359375,-0.890625,10.375,0.02734375,-0.02148438,0.01953125,-0.01757812,0.01171875,0,-0.004760742,-0.04052734,3.108032,0,0,3.108032,0.09359741,3.741,0,0,0,0,nan,4,0.141,1,128,0.1000061,0.1000061,0.1000061,0.1000061,0,0,0,1,6,0
3721.402,0.001026,-0.005859375,-0.03125,-0.06054688,-0.3515625,1.109375,9.023438,-0.02734375,0.02148438,-0.01757812,-0.01757812,0.01171875,0,-0.004760742,-0.0402832,3.108032,0,0,3.108032,0.09527588,3.741,0,0,0,0,nan,4,0.152,1,128,0.1000061,0.1000061,0.1000061,0.1000061,0,0,0,1,6,0
3721.412,0.001017,-0.005859375,0.01367188,0.07226562,-0.6015625,-1.054688,9.960938,0.02539062,-0.01757812,0.0234375,-0.01757812,0.01171875,0,-0.004638672,-0.0402832,3.108032,0,0,3.108032,0.09695435,3.741,0,0,0,0,nan,4,0.162,1,128,0.1000061,0.1000061,0.1000061,0.1000061,0,0,0,1,6,0.4444444
3721.422,0.001012,0.02148438,-0.001953125,-0.0859375,0.265625,1.203125,10.5625,-0.0234375,0.02148438,-0.0234375,-0.01757812,0.01171875,0,-0.004760742,-0.0402832,3.108032,0,0,3.108032,0.09863281,3.741,0,0,0,0,nan,4,0.172,1,128,0.1000061,0.1000061,0.1000061,0.1000061,0,0,0,1,6,0
3721.433,0.001025,-0.0390625,0.01367188,0.08984375,-0.78125,-0.8828125,8.140625,0.01757812,-0.01367188,0.02539062,0.02734375,0.2421875,0,-0.004638672,-0.0402832,3.108032,0,0,3.108032,0.1003113,3.741,0,0,0,0,nan,4,0.182,1,128,0.15802,0.07070923,0.1229553,0.04959106,0,0,0,1,6,0
3721.443,0.001011,0.06835938,-0.0078125,-0.078125,0.28125,0.5859375,11.48438,-0.0078125,0.0078125,-0.01757812,0.02929688,0.2421875,0,-0.004760742,-0.04016113,3.108032,0,0,3.108032,0.1020203,3.741,0,0,0,0,nan,4,0.192,1,128,0.06655884,0.1630859,0.03582764,0.1425476,0,0,0,1,6,0
3721.453,0.001011,-0.03710938,-0.015625,0.1015625,-0.671875,-1.085938,8.210938,0.009765625,-0.009765625,0.0234375,0.02929688,0.2421875,0,-0.004760742,-0.0402832,3.108032,0,0,3.108032,0.1036987,3.741,0,0,0,0,nan,4,0.202,1,128,0.1828003,0.05923462,0.1479797,0.02474976,0,0.0009765625,0,1,6,0
3721.462,0.000993,-0.03515625,0.02539062,-0.09765625,0.1015625,0.7421875,10.07031,-0.01171875,0.00390625,0,0.02929688,0.2421875,0,-0.004760742,-0.04016113,3.108154,0,0,3.108154,0.1052246,3.741,0,0,0,0,nan,4,0.211,1,128,0.1064758,0.131897,0.06845093,0.1140747,0,0.0009765625,0,1,6,0.3174603
3721.472,0.001007,-0.01171875,-0.02734375,0.078125,0.171875,0.421875,8.640625,0,-0.005859375,0,0.02929688,0.2421875,0,-0.004882812,-0.0402832,3.108032,0,0,3.108032,0.1069031,3.741,0,0,0,0,nan,4,0.221,1,128,0.1407776,0.1075439,0.105835,0.07342529,0,0.0009765625,0,1,6,0
3721.482,0.001045,0.04882812,-0.01171875,-0.06445312,-0.625,-0.7109375,11.99219,0.005859375,0,-0.015625,0.02929688,0.2421875,0,-0.004882812,-0.0402832,3.108032,0,0,3.108032,0.1085815,3.741,0,0,0,0,nan,4,0.231,1,128,0.08178711,0.1667175,0.05151367,0.1343384,0,0.0009765625,0,1,6,0
3721.492,0.001003,-0.06445312,0.04882812,0.02929688,1.273438,1.398438,7.257812,-0.0078125,0.0078125,0.01171875,0.02929688,0.2421875,0,-0.004760742,-0.04016113,3.108032,0,0,3.108032,0.11026,3.741,0,0,0,0,nan,4,0,1,128,0.1539001,0.09359741,0.1162415,0.07730103,0,0.001953125,0,1,6,0
3721.502,0.001003,0.04882812,-0.09375,0.009765625,-1.585938,-0.8671875,12.08594,0.0078125,-0.005859375,0,0.02929688,0.2402344,0,-0.004760742,-0.04016113,3.108032,0,0,3.108032,0.1119385,3.741,0,0,0,0,nan,4,0.01,1,128,0.1256714,0.1363525,0.0874939,0.09823608,0,0.001953125,0,1,6,0
3721.513,0.000941,-0.02148438,0.1269531,-0.02734375,1.960938,0.953125,9.132812,0.00390625,0.00390625,0.001953125,0.02929688,0.2421875,0,-0.004760742,-0.04016113,3.108154,0,0,3.108154,0.1136169,3.741,0,0,0,0,nan,4,0.02,1,128,0.1242065,0.1292725,0.09463501,0.1063843,0,0.001953125,0,1,6,0.1111111
3721.522,0.001007,-0.02929688,-0.1425781,0.02734375,-0.3515625,-0.3203125,8.90625,-0.02148438,-0.00390625,-0.001953125,0.02929688,0.2402344,0,-0.004760742,-0.04016113,3.108154,0,0,3.108154,0.1152954,3.741,0,0,0,0,nan,4,0.03,1,128,0.1411133,0.1292419,0.08810425,0.1027527,0,0.001953125,0,1,6,0
3721.533,0.001008,0.01171875,0.125,-0.01953125,-0.640625,0.0625,11.625,0.02539062,-0.001953125,0.01171875,0.02929688,0.2421875,0,-0.004760742,-0.04016113,3.108154,0,0,3.108154,0.1170044,3.741,0,0,0,0,nan,4,0.04,1,128,0.1400757,0.1245728,0.1164856,0.08685303,0,0.002929688,0,1,6,0
3721.543,0.001006,-0.00390625,-0.07421875,-0.009765625,1.882812,1.1875,7.648438,-0.01757812,-0.001953125,-0.01367188,0.02929688,0.2402344,0,-0.004760742,-0.04016113,3.108154,0,0,3.108154,0.1186829,3.741,0,0,0,0,nan,4,0.05,1,128,0.1120911,0.1616211,0.06295776,0.138031,0,0.002929688,0,1,6,0
3721.553,0.001007,0.0078125,-0.02539062,0.01757812,-2.429688,-0.8359375,10.03125,-0.005859375,-0.001953125,0.015625,0.02929688,0.2402344,0,-0.004760742,-0.04016113,3.108154,0,0,3.108154,0.1203613,3.741,0,0,0,0,nan,4,0.061,1,128,0.1741028,0.1029663,0.1327209,0.07162476,0,0.002929688,0,1,6,0
3721.562,0.001013,0.009765625,0.05078125,-0.06445312,1.984375,0.5390625,7.84375,0.01367188,-0.001953125,-0.015625,0.02929688,0.2402344,0,-0.004882812,-0.04016113,3.108154,0,0,3.108154,0.1218872,3.741,0,0,0,0,nan,4,0.07,1,128,0.1010132,0.1773071,0.06939697,0.139801,0,0.002929688,0,1,6,0
3721.572,0.001011,-0.03320312,-0.0703125,0.01757812,-0.4609375,-0.0703125,9.34375,-0.03320312,0.001953125,0.001953125,0.02929688,0.2402344,0,-0.004882812,-0.04003906,3.108154,0,0,3.108154,0.1235657,3.741,0,0,0,0,nan,4,0.08,1,128,0.1613159,0.12323,0.1043091,0.1053772,0,0.002929688,0,1,6,0.06349207
3721.582,0.001011,-0.1542969,0.08789062,0.00390625,-2.117188,0.4140625,11.94531,-0.01367188,0.01953125,0.009765625,0.02929688,0.2402344,0,-0.004882812,-0.04016113,3.108154,0,0,3.108154,0.1252441,3.741,0,0,0,0,nan,4,0.09,1,128,0.1655884,0.1078186,0.1270142,0.1005554,0,0.00390625,0,1,6,0
3721.592,0.001014,0.1425781,-0.009765625,0.015625,2.304688,1.804688,10.16406,0.02929688,-0.015625,-0.009765625,0.02929688,0.2402344,0,-0.004882812,-0.04016113,3.108154,0,0,3.108154,0.1269226,3.741,0,0,0,0,nan,4,0.1,1,128,0.1206055,0.1780701,0.08847046,0.1205444,0,0.00390625,0,1,6,0
3721.602,0.001009,-0.015625,-0.06835938,-0.0390625,-0.5390625,-1.648438,6.84375,-0.02929688,0.00390625,0.00390625,0.02929688,0.2402344,0,-0.004882812,-0.04003906,3.108154,0,0,3.108154,0.1286011,3.741,0,0,0,0,nan,4,0.11,1,128,0.1572876,0.1375427,0.1008911,0.1187439,0.0009765625,0.00390625,0,1,6,0
3721.612,0.001013,-0.1074219,0.09179688,0.03710938,-0.703125,0.9140625,11.85938,-0.001953125,0.009765625,0.01171875,0.02929688,0.2402344,0,-0.004882812,-0.04016113,3.108276,0,0,3.108276,0.1302795,3.741,0,0,0,0,nan,4,0.12,1,128,0.1750793,0.116333,0.1362,0.09356689,0.0009765625,0.00390625,0,1,6,0
3721.623,0.001011,0.05859375,0.0078125,0.02539062,-0.25,0.234375,10.71875,0.015625,0,-0.009765625,0.02929688,0.2402344,0,-0.004882812,-0.04016113,3.108276,0,0,3.108276,0.131958,3.741,0,0,0,0,nan,4,0.13,1,128,0.1289978,0.1734314,0.09509277,0.1303711,0.0009765625,0.004882812,0,1,6,0
3721.633,0.001011,0.1425781,-0.1074219,-0.06054688,2.726562,-1.90625,7.242188,0.00390625,-0.03515625,0,0.02929688,0.2402344,0,-0.005004883,-0.04016113,3.108276,0,0,3.108276,0.133667,3.741,0,0,0,0,nan,4,0.14,1,128,0.1505737,0.1726074,0.09579468,0.1156921,0.0009765625,0.004882812,0,1,6,0
3721.643,0.001026,-0.2734375,0.1445312,0.01171875,-2.625,1.234375,11.9375,-0.04882812,0.046875,0.009765625,0.02929688,0.2402344,0,-0.004882812,-0.04016113,3.108276,0,0,3.108276,0.1353455,3.741,0,0,0,0,nan,4,0.151,1,128,0.1751099,0.1081848,0.1294861,0.1286011,0.0009765625,0.004882812,0,1,6,0
3721.653,0.000997,0.1425781,-0.09179688,0.1054688,0.6953125,0.875,10.5,0.04882812,-0.05273438,0.0234375,0.02929688,0.2421875,0,-0.005004883,-0.0402832,3.108398,0,0,3.108398,0.1370239,3.741,0,0,0,0,nan,4,0,1,128,0.2046814,0.1360779,0.1607056,0.04666138,0.0009765625,0.005859375,0,1,6,0
3721.663,0.000973,0.08984375,-0.001953125,-0.08398438,0.9140625,-0.265625,10.00781,0.0078125,0.009765625,-0.03125,0.02929688,0.2402344,0,-0.005004883,-0.04016113,3.108398,0,0,3.108398,0.1387024,3.714,0,0,0,0,nan,4,0.01,1,128,0.07516479,0.2366333,0.04144287,0.2015686,0.0009765625,0.005859375,0,1,6,0.3492064
3721.672,0.001018,-0.1074219,-0.01171875,0.04492188,-0.546875,1.398438,9.21875,-0.04882812,0.01757812,0.01367188,0.03125,0.2402344,0,-0.005126953,-0.04016113,3.108398,0,0,3.108398,0.1402283,3.714,0,0,0,0,nan,4,0.019,1,128,0.2013855,0.1118469,0.1408997,0.106781,0.0009765625,0.005859375,0,1,6,0.03174603
3721.682,0.001006,-0.2089844,0.1464844,-0.0234375,-1.648438,2.382812,11.47656,-0.02148438,0.03320312,0.015625,0.02929688,0.2402344,0,-0.004882812,-0.04016113,3.108521,0,0,3.108521,0.1419067,3.714,0,0,0,0,nan,4,0.029,1,128,0.1806641,0.1243896,0.1351624,0.1274109,0.0009765625,0.005859375,0,1,6,0
3721.692,0.001007,0,0.015625,0.1132812,-0.0546875,2.539062,10.29688,0.0234375,-0.015625,0.01367188,0.02929688,0.2402344,0,-0.004882812,-0.04016113,3.108521,0,0,3.108521,0.1435852,3.714,0,0,0,0,nan,4,0.039,1,128,0.2054443,0.131073,0.1625061,0.07531738,0.0009765625,0.005859375,0,1,6,0
3721.702,0.001012,0.1289062,-0.1347656,-0.0078125,0.1796875,0.8046875,11.21094,0.02148438,-0.01953125,-0.01367188,0.02929688,0.2402344,0,-0.005004883,-0.04003906,3.108521,0,0,3.108521,0.1452637,3.714,0,0,0,0,nan,4,0.049,1,128,0.1384583,0.2077637,0.09286499,0.1419983,0.0009765625,0.006835938,0,1,6,0
3721.712,0.001002,0.171875,-0.005859375,-0.05078125,-0.046875,-1.109375,9.789062,0.01367188,0.0078125,-0.01757812,0.02929688,0.2402344,0,-0.005004883,-0.04003906,3.108398,0,0,3.108398,0.1469421,3.714,0,0,0,0,nan,4,0.06,1,128,0.1241455,0.2077026,0.09124756,0.1647339,0.0009765625,0.006835938,0,1,6,0.7619048
3721.722,0.001031,-0.03125,-0.05078125,-0.04882812,0.1015625,-3.703125,7.90625,-0.04101562,0.01367188,0.001953125,0.02929688,0.2402344,0,-0.005004883,-0.04003906,3.108521,0,0,3.108521,0.1486511,3.714,0,0,0,0,nan,4,0.07,1,128,0.1758118,0.1600037,0.1109619,0.1477661,0.0009765625,0.006835938,0,1,6,0
3721.733,0.001007,-0.1875,0.2714844,-0.0546875,-0.15625,0.8359375,9.828125,-0.0234375,0.02929688,0.001953125,0.02929688,0.2402344,0,-0.005004883,-0.04003906,3.108521,0,0,3.108521,0.1503296,3.714,0,0,0,0,nan,4,0.08,1,128,0.1632996,0.1612854,0.1200562,0.1566162,0.0009765625,0.006835938,0,1,6,0.7460318
3721.743,0.001008,-0.1269531,-0.08984375,0.07421875,1.632812,0.3203125,8.929688,-0.03125,-0.02929688,0.005859375,0.02929688,0.2402344,0,-0.005004883,-0.03991699,3.108398,0,0,3.108398,0.1520081,3.714,0,0,0,0,nan,4,0.09,1,128,0.2353821,0.1288757,0.1540833,0.08969116,0.0009765625,0.0078125,0,1,6,0
