t,dt_s,gyro_x,gyro_y,gyro_z,acc_x,acc_y,acc_z,rates.x,rates.y,rates.z,ratesTarget.x,ratesTarget.y,ratesTarget.z,attitude.x,attitude.y,attitude.z,attitudeTarget.x,attitudeTarget.y,attitudeTarget.z,thrustTarget,battery_v,rc_roll,rc_pitch,rc_yaw,rc_throttle,rc_mode,flight_mode,rc_age_s,armed,fault_mask,motor_rl,motor_rr,motor_fr,motor_fl,rate_i_x,rate_i_y,rate_i_z,mix_scale,control_source,accel_correction_confidence
2629.428,0.00101,-0.09765625,-0.01171875,-0.01171875,0.0703125,-0.78125,9.492188,-0.046875,0.0078125,-0.015625,-0.01757812,-0.04882812,0,0.003051758,0.008178711,-0.2087402,0,0,-0.2169189,0.8999939,4.075,0,0,0,1,nan,2,0.054,1,0,0.8883057,0.9037476,0.8866272,0.9213257,-0.001953125,-0.002929688,0,1,2,0.2698413
2629.438,0.00101,-0.005859375,-0.0078125,-0.009765625,0.1640625,0.1640625,9.71875,0.03320312,-0.03320312,-0.005859375,-0.02148438,-0.04492188,0,0.003417969,0.007568359,-0.2088623,0,0,-0.2169189,0.8999939,4.075,0,0,0,1,nan,2,0.064,1,0,0.8969421,0.8937988,0.9147339,0.8945312,-0.001953125,-0.002929688,0,1,2,0.3968254
2629.448,0.00101,0.02929688,0.046875,-0.02539062,-0.109375,0.3828125,10.90625,0.00390625,0.00390625,-0.005859375,-0.01953125,-0.04296875,0,0.003295898,0.007202148,-0.2088623,0,0,-0.2169189,0.8999939,4.075,0,0,0,1,nan,2,0.074,1,0,0.8652954,0.9102783,0.9004517,0.9239502,-0.001953125,-0.002929688,0,1,2,0
2629.457,0.001001,0.1308594,0.01757812,-0.02539062,-1.46875,-0.2578125,10.96875,0.02734375,-0.001953125,-0.01757812,-0.01953125,-0.04296875,0,0.003295898,0.007080078,-0.2089844,0,0,-0.2169189,0.8999939,4.075,0,0,0,1,nan,2,0.083,1,0,0.8667603,0.9183655,0.905304,0.9095764,-0.001953125,-0.002929688,0,1,2,0
2629.467,0.001012,0.0625,0.140625,-0.01367188,-0.0078125,1.296875,10.77344,0.015625,-0.01367188,-0.00390625,-0.01953125,-0.04101562,0,0.003417969,0.006835938,-0.2091064,0,0,-0.2169189,0.8999939,4.075,0,0,0,1,nan,2,0.093,1,0,0.8892517,0.8909912,0.9185791,0.9012146,-0.001953125,-0.002929688,0,1,2,0
2629.477,0.001016,0.046875,-0.06054688,0.01757812,0.0390625,-0.3125,7.640625,-0.01367188,-0.05859375,0.00390625,-0.01953125,-0.04101562,0,0.003295898,0.006835938,-0.2091064,0,0,-0.2169189,0.8999939,4.075,0,0,0,1,nan,2,0.103,1,0,0.9197388,0.8947449,0.9111938,0.8743286,-0.001953125,-0.002929688,0,1,2,0
2629.487,0.001011,0.0078125,-0.005859375,-0.02539062,-2.3125,-1.695312,9.28125,0.001953125,0.04296875,-0.01367188,-0.01953125,-0.04492188,0,0.003417969,0.007446289,-0.2092285,0,0,-0.2169189,0.8999939,4.075,0,0,0,1,nan,2,0.113,1,0,0.8656616,0.9203796,0.8863525,0.9276123,-0.001953125,-0.002929688,0,1,2,0.6984127
2629.497,0.001017,0.001953125,-0.1816406,-0.005859375,-0.8828125,0.6875,8.632812,-0.01171875,-0.06445312,-0.001953125,-0.01953125,-0.04492188,0,0.003173828,0.007324219,-0.2092285,0,0,-0.2169189,0.8999939,4.075,0,0,0,1,nan,2,0.123,1,0,0.9134216,0.9112244,0.8971252,0.8782349,-0.001953125,-0.002929688,0,1,2,0
2629.507,0.001011,0.005859375,0.05859375,-0.01171875,0.578125,-0.8125,9.054688,0.02734375,0.05859375,-0.005859375,-0.01953125,-0.04492188,0,0.003173828,0.007568359,-0.2092285,0,0,-0.2169189,0.8999939,4.075,0,0,0,1,nan,2,0.133,1,0,0.8702698,0.8984375,0.9196167,0.9116516,-0.001953125,-0.002929688,0,1,2,0
2629.517,0.001011,-0.09765625,0.3730469,-0.0078125,-1.609375,-2.40625,8.429688,-0.03125,0.08984375,-0.005859375,-0.01953125,-0.04492188,0,0.003417969,0.007568359,-0.2093506,0,0,-0.2169189,0.8999939,4.075,0,0,0,1,nan,2,0.143,1,0,0.8742371,0.8649597,0.9179688,0.9428101,-0.001953125,-0.002929688,0,1,2,0
2629.528,0.001017,-0.04101562,-0.03320312,-0.02148438,0.1328125,-0.3125,7.265625,-0.03125,0.00390625,-0.01171875,-0.01953125,-0.04882812,0,0.003173828,0.008178711,-0.2094727,0,0,-0.2169189,0.8999939,4.075,0,0,0,1,nan,2,0.154,1,0,0.8913879,0.9100952,0.8829041,0.9156189,-0.001953125,-0.002929688,0,1,2,0
2629.538,0.001011,0.06835938,0.01757812,-0.01171875,-0.125,-1.023438,8.421875,0.06835938,-0.03515625,-0.00390625,-0.01953125,-0.04882812,0,0.003295898,0.008178711,-0.2094727,0,0,-0.2169189,0.8999939,4.075,0,0,0,1,nan,2,0.164,1,0,0.8754272,0.9282837,0.9090271,0.8872681,-0.001953125,-0.002929688,0,1,2,0
2629.548,0.001011,0.02148438,-0.1953125,0.0078125,-1.484375,-2.070312,7.851562,0.02929688,-0.06835938,0,-0.02148438,-0.04882812,0,0.003662109,0.008178711,-0.2094727,0,0,-0.2169189,0.8999939,4.075,0,0,0,1,nan,2,0.174,1,0,0.9091492,0.9154053,0.8953552,0.8800964,-0.001953125,-0.002929688,0,1,2,0
2629.557,0.001007,0.05078125,-0.06445312,-0.01171875,0.765625,0.859375,11.33594,0.01953125,-0.02539062,0,-0.02148438,-0.046875,0,0.003417969,0.00769043,-0.2093506,0,0,-0.2169189,0.8999939,4.075,0,0,0,1,nan,2,0.183,1,0,0.8717041,0.9165344,0.9022827,0.9094849,-0.001953125,-0.002929688,0,1,2,0
2629.567,0.001018,0.04882812,0.06835938,-0.02929688,-1.03125,-1.25,8.796875,-0.02148438,-0.02734375,-0.0078125,-0.01953125,-0.04296875,0,0.003295898,0.007202148,-0.2094727,0,0,-0.2169189,0.8999939,4.075,0,0,0,1,nan,2,0.193,1,0,0.8744202,0.907196,0.8967896,0.9216003,-0.001953125,-0.002929688,0,1,2,0
2629.577,0.001007,0.001953125,0.009765625,0.00390625,-1.648438,-1.757812,9.632812,-0.005859375,0.001953125,-0.005859375,-0.01953125,-0.04296875,0,0.003051758,0.007202148,-0.2094727,0,0,-0.2169189,0.8999939,4.075,0,0,0,1,nan,2,0,1,0,0.8927307,0.8938904,0.9171753,0.8962097,-0.001953125,-0.002929688,0,1,2,0.5396826
2629.587,0.001003,0.08984375,-0.08984375,0,0.546875,-0.1171875,8.25,0.0078125,-0.02539062,-0.005859375,-0.01757812,-0.04101562,0,0.003051758,0.006958008,-0.2095947,0,0,-0.2169189,0.8999939,4.075,0,0,0,1,nan,2,0.01,1,0,0.8814392,0.9104919,0.9057007,0.9023743,-0.001953125,-0.002929688,0,1,2,0
2629.597,0.001009,0.0234375,-0.01953125,-0.0078125,-0.7734375,-1.632812,6.070312,-0.005859375,0.03515625,-0.015625,-0.01953125,-0.04101562,0,0.003173828,0.006958008,-0.2095947,0,0,-0.2169189,0.8999939,4.075,0,0,0,1,nan,2,0.02,1,0,0.8721924,0.9013367,0.9003906,0.9260864,-0.001953125,-0.002929688,0,1,2,0
2629.607,0.000985,-0.01367188,0.04101562,0.005859375,-1.367188,-1.5,7.585938,-0.02539062,0.08789062,-0.009765625,-0.01757812,-0.04492188,0,0.003051758,0.007446289,-0.2097168,0,0,-0.2169189,0.8999939,4.075,0,0,0,1,nan,2,0.03,1,0,0.8835449,0.8816223,0.917572,0.9172974,-0.001953125,-0.002929688,0,1,2,0
2629.617,0.001012,-0.0546875,-0.015625,0.01367188,0.9609375,0.3828125,7.140625,-0.05078125,0.04882812,-0.001953125,-0.015625,-0.046875,0,0.002685547,0.00793457,-0.2098389,0,0,-0.2169189,0.8999939,4.075,0,0,0,1,nan,2,0.04,1,0,0.9028015,0.8788147,0.909729,0.9086304,-0.001953125,-0.002929688,0,1,2,0
2629.628,0.001041,-0.0234375,0.05273438,0.0078125,-0.6328125,-0.7109375,8.171875,0.03320312,0.03320312,0.005859375,-0.01953125,-0.046875,0,0.003295898,0.00793457,-0.2097168,0,0,-0.2169189,0.8999939,4.075,0,0,0,1,nan,2,0.008,1,0,0.8884583,0.8815308,0.9214783,0.9085388,-0.001953125,-0.002929688,0,1,2,0
2629.638,0.001016,-0.01171875,-0.06054688,0,-1.578125,-0.1953125,9.296875,0.02929688,-0.1113281,0.00390625,-0.02148438,-0.04296875,0,0.003540039,0.007202148,-0.2097168,0,0,-0.2169189,0.8999939,4.075,0,0,0,1,nan,2,0.018,1,0,0.8998413,0.9165955,0.8943787,0.8891602,-0.001953125,-0.002929688,0,1,2,0.1746032
2629.647,0.001011,0.0078125,-0.1289062,0.015625,0.03125,0.4921875,10.10938,0.00390625,-0.04296875,0.001953125,-0.02148438,-0.04101562,0,0.003540039,0.006835938,-0.2097168,0,0,-0.2169189,0.8999939,4.075,0,0,0,1,nan,2,0.002,1,0,0.8984985,0.899292,0.9078674,0.8943176,-0.001953125,-0.002929688,0,1,2,0.3333333
2629.657,0.001019,0.05859375,0.1855469,-0.001953125,-1.234375,-1.976562,8,0.02929688,-0.01367188,0.009765625,-0.02148438,-0.03710938,0,0.003540039,0.006225586,-0.2095947,0,0,-0.2169189,0.8999939,4.075,0,0,0,1,nan,2,0.012,1,0,0.8824768,0.8887329,0.9342346,0.8945618,-0.001953125,-0.002929688,0,1,2,0
2629.667,0.001011,-0.05078125,0.06640625,0.01757812,0.6640625,-0.2890625,7.140625,-0.01367188,-0.005859375,0.01367188,-0.02148438,-0.03710938,0,0.00378418,0.006347656,-0.2095947,0,0,-0.2169189,0.8999939,4.075,0,0,0,1,nan,2,0.022,1,0,0.9163513,0.8729553,0.920105,0.8905945,-0.001953125,-0.002929688,0,1,2,0
2629.677,0.001001,-0.01171875,0.0078125,-0.0078125,1.007812,0.46875,7.835938,-0.01953125,0.0234375,0.001953125,-0.02148438,-0.04101562,0,0.003540039,0.006713867,-0.2094727,0,0,-0.2169189,0.8999939,4.075,0,0,0,1,nan,2,0.032,1,0,0.8835754,0.9046631,0.8994751,0.912262,-0.001953125,-0.00390625,0,1,2,0
2629.687,0.001016,0.01953125,-0.03320312,0.001953125,-1.875,-1.992188,9.257812,0.03320312,0.01367188,0.00390625,-0.02148438,-0.04101562,0,0.003417969,0.006835938,-0.2094727,0,0,-0.2169189,0.8999939,4.075,0,0,0,1,nan,2,0.042,1,0,0.8825989,0.9059143,0.9176941,0.8937988,-0.001953125,-0.00390625,0,1,2,0.6190476
2629.697,0.001016,-0.001953125,0.06445312,0.009765625,0.5703125,-1.085938,9.109375,0.005859375,0.03710938,0,-0.01953125,-0.04492188,0,0.003295898,0.007446289,-0.2093506,0,0,-0.2169189,0.8999939,4.075,0,0,0,1,nan,2,0.053,1,0,0.8853149,0.90625,0.9071045,0.9013367,-0.001953125,-0.00390625,0,1,2,0
2629.707,0.001004,0.001953125,-0.07226562,0.0234375,-0.5625,0.3125,10.52344,-0.0234375,0.001953125,0.0078125,-0.01757812,-0.04296875,0,0.002929688,0.007324219,-0.2093506,0,0,-0.2169189,0.8999939,4.075,0,0,0,1,nan,2,0.063,1,0,0.894928,0.8850708,0.9195557,0.9004517,-0.001953125,-0.00390625,0,1,2,0
2629.717,0.00101,0.02148438,0.1191406,0.02734375,-2,-2.375,9.257812,0.0078125,-0.001953125,0.005859375,-0.01757812,-0.0390625,0,0.002929688,0.006591797,-0.2093506,0,0,-0.2169189,0.8999939,4.075,0,0,0,1,nan,2,0.073,1,0,0.8819885,0.8829346,0.9328613,0.9022217,-0.001953125,-0.00390625,0,1,2,0.5714286
2629.728,0.001016,0.0078125,0.04492188,-0.01171875,-0.1796875,0.2890625,8.929688,-0.02148438,-0.03515625,0.0078125,-0.01757812,-0.03710938,0,0.002929688,0.006103516,-0.2092285,0,0,-0.2169189,0.8999939,4.075,0,0,0,1,nan,2,0.083,1,0,0.8898621,0.8935547,0.9049072,0.9116516,-0.001953125,-0.00390625,0,1,2,0
2629.738,0.001016,-0.06445312,-0.0546875,0.001953125,-0.1875,0.1953125,7.984375,-0.03320312,-0.005859375,-0.005859375,-0.01757812,-0.03710938,0,0.002929688,0.006103516,-0.2092285,0,0,-0.2169189,0.8999939,4.075,0,0,0,1,nan,2,0.093,1,0,0.894928,0.8950806,0.8943176,0.9157104,-0.001953125,-0.00390625,0,1,2,0
2629.748,0.001016,-0.0625,0.02929688,-0.00390625,-1.40625,-2.320312,7.101562,0.0078125,-0.05078125,0.00390625,-0.01953125,-0.03320312,0,0.003173828,0.005615234,-0.2092285,0,0,-0.2169189,0.8999939,4.075,0,0,0,1,nan,2,0.103,1,0,0.8981018,0.8918152,0.907135,0.9029541,-0.001953125,-0.00390625,0,1,2,0
2629.757,0.00104,-0.04101562,0.1328125,0.01953125,0.9765625,-0.1484375,9.867188,-0.02539062,0.0234375,0.01171875,-0.01757812,-0.03320312,0,0.003051758,0.005493164,-0.2092285,0,0,-0.2169189,0.8999939,4.075,0,0,0,1,nan,2,0.112,1,0,0.8999939,0.8688049,0.9277344,0.9034729,-0.001953125,-0.00390625,0,1,2,0.1746032
2629.767,0.001012,0.01367188,-0.08789062,-0.00390625,-1.085938,0.0078125,10.97656,0.01757812,-0.03515625,0.001953125,-0.01757812,-0.03125,0,0.003051758,0.005371094,-0.2091064,0,0,-0.2169189,0.8999939,4.075,0,0,0,1,nan,2,0.122,1,0,0.8785706,0.9201355,0.8965454,0.9047546,-0.001953125,-0.00390625,0,1,2,0
2629.777,0.001013,-0.01757812,0.1699219,0.0234375,-1.484375,-2.007812,9.023438,-0.06640625,0.1347656,0.01953125,-0.015625,-0.03515625,0,0.002563477,0.005737305,-0.2089844,0,0,-0.2169189,0.8999939,4.075,0,0,0,1,nan,2,0.132,1,0,0.8975525,0.8372192,0.9519958,0.9132385,-0.001953125,-0.00390625,0,1,2,0.06349207
2629.787,0.00101,-0.078125,-0.03125,0.005859375,-0.0390625,-0.09375,7.335938,-0.03320312,-0.04101562,0,-0.01367188,-0.03710938,0,0.002319336,0.006103516,-0.2088623,0,0,-0.2169189,0.8999939,4.075,0,0,0,1,nan,2,0.142,1,0,0.90271,0.9155884,0.8829346,0.8987732,-0.001953125,-0.00390625,0,1,2,0
2629.797,0.00101,-0.05078125,-0.02539062,-0.0078125,-0.6640625,1.085938,10.13281,-0.005859375,0.01171875,-0.00390625,-0.01171875,-0.03710938,0,0.002075195,0.006103516,-0.2088623,0,0,-0.2169189,0.8999939,4.075,0,0,0,1,nan,2,0.153,1,0,0.8734436,0.9103394,0.9039612,0.9122314,-0.001953125,-0.00390625,0,1,2,0.1587302
2629.807,0.00101,0.01953125,-0.08398438,0.02734375,-0.859375,-2.796875,6.539062,0.02539062,0.001953125,0.01367188,-0.01367188,-0.0390625,0,0.002197266,0.006713867,-0.2088623,0,0,-0.2169189,0.8999939,4.075,0,0,0,1,nan,2,0.163,1,0,0.9220886,0.8870239,0.9251709,0.8657227,-0.001953125,-0.00390625,0,1,2,0
2629.817,0.00104,-0.005859375,-0.265625,0,-0.2578125,0.046875,8.164062,0.015625,-0.06835938,0.001953125,-0.01367188,-0.03710938,0,0.002441406,0.006347656,-0.2087402,0,0,-0.2169189,0.8999939,4.075,0,0,0,1,nan,2,0.173,1,0,0.8961182,0.9189148,0.8873596,0.8976135,-0.001953125,-0.00390625,0,1,2,0
2629.828,0.001012,-0.0859375,0.07226562,-0.0390625,0.9140625,0.125,9.71875,-0.01171875,0.0390625,-0.0078125,-0.015625,-0.03515625,0,0.002563477,0.005981445,-0.2087402,0,0,-0.2169189,0.8999939,4.075,0,0,0,1,nan,2,0.183,1,0,0.8591309,0.9041748,0.8886719,0.9480591,-0.001953125,-0.00390625,0,1,2,0.8253968
2629.838,0.001007,0.04882812,-0.1015625,-0.015625,-0.9609375,-0.9296875,9.828125,0.01757812,-0.0390625,0.001953125,-0.015625,-0.03515625,0,0.002563477,0.005737305,-0.2087402,0,0,-0.2169189,0.8999939,4.075,0,0,0,1,nan,2,0.193,1,0,0.9013672,0.8998413,0.9156189,0.8831787,-0.001953125,-0.00390625,0,1,2,0.6984127
2629.848,0.001051,0.01367188,0.2714844,-0.01757812,-1.8125,-2.460938,8.53125,0.009765625,0.04101562,-0.0078125,-0.01757812,-0.03320312,0,0.002929688,0.005615234,-0.2087402,0,0,-0.2169189,0.8999939,4.075,0,0,0,1,nan,2,0.009,1,0,0.8603821,0.8974609,0.9066467,0.9355164,-0.001953125,-0.00390625,0,1,2,0
2629.857,0.001019,-0.04101562,0.1484375,-0.046875,0.46875,0.8828125,10.09375,0,0.0859375,-0.005859375,-0.01757812,-0.03710938,0,0.003051758,0.006225586,-0.2087402,0,0,-0.2169189,0.8999939,4.075,0,0,0,1,nan,2,0.018,1,0,0.8561401,0.9006653,0.8963623,0.9468079,-0.002929688,-0.00390625,0,1,2,0.1904762
2629.867,0.001013,-0.1328125,0.1796875,-0.02929688,1.109375,2.523438,11.64844,-0.04296875,0.07226562,-0.01757812,-0.01757812,-0.0390625,0,0.003051758,0.006591797,-0.2088623,0,0,-0.2169189,0.8999939,4.075,0,0,0,1,nan,2,0.028,1,0,0.8572998,0.905365,0.8764648,0.9608459,-0.002929688,-0.00390625,0,1,2,0
2629.877,0.001009,0.03125,-0.125,0.03320312,0.109375,-0.1484375,10.58594,0.03125,-0.001953125,0.005859375,-0.01757812,-0.04296875,0,0.003051758,0.007202148,-0.2088623,0,0,-0.2169189,0.8999939,4.075,0,0,0,1,nan,2,0.038,1,0,0.9120789,0.8990173,0.9216614,0.8672485,-0.002929688,-0.00390625,0,1,2,0
2629.887,0.00101,0.04101562,0.03320312,0.001953125,-1.804688,-0.96875,11.33594,0.0625,0.01367188,0.0078125,-0.02148438,-0.04296875,0,0.003540039,0.007324219,-0.2088623,0,0,-0.2169189,0.8999939,4.075,0,0,0,1,nan,2,0.048,1,0,0.895874,0.8883972,0.934082,0.8816223,-0.002929688,-0.00390625,0,1,2,0
2629.897,0.00101,0.05664062,0.0859375,-0.005859375,-0.359375,-0.1953125,11.47656,-0.01171875,-0.04492188,0.00390625,-0.01953125,-0.04296875,0,0.003295898,0.007080078,-0.2088623,0,0,-0.2169189,0.8999939,4.075,0,0,0,1,nan,2,0.059,1,0,0.9017334,0.8932495,0.9144287,0.8905945,-0.002929688,-0.00390625,0,1,2,0
2629.907,0.00101,-0.03125,-0.0546875,-0.02539062,1.132812,1.835938,11.03906,-0.02929688,0.01171875,0,-0.01953125,-0.04296875,0,0.003173828,0.007202148,-0.2088623,0,0,-0.2169189,0.8999939,4.075,0,0,0,1,nan,2,0.069,1,0,0.8835449,0.8981934,0.8999939,0.9182739,-0.002929688,-0.004882812,0,1,2,0
2629.917,0.00101,0.04101562,0.03320312,-0.01953125,0.6171875,1.539062,9.914062,0.01171875,0,-0.00390625,-0.01953125,-0.0390625,0,0.003295898,0.006469727,-0.2087402,0,0,-0.2169189,0.8999939,4.075,0,0,0,1,nan,2,0.079,1,0,0.8573914,0.9067993,0.9052734,0.930542,-0.002929688,-0.00390625,0,1,2,0.3968254
2629.927,0.00101,0.1113281,0.01171875,0.005859375,-1.09375,-0.8125,8.96875,-0.03515625,0.1054688,-0.009765625,-0.01757812,-0.04296875,0,0.002929688,0.007080078,-0.2088623,0,0,-0.2169189,0.8999939,4.075,0,0,0,1,nan,2,0.089,1,0,0.8595276,0.8955994,0.9092712,0.9356079,-0.002929688,-0.004882812,0,1,2,0
2629.938,0.001016,-0.01953125,-0.296875,-0.01953125,-0.40625,0.4375,10.82812,-0.02539062,-0.1289062,-0.01367188,-0.01757812,-0.04101562,0,0.002929688,0.006958008,-0.2088623,0,0,-0.2169189,0.8999939,4.075,0,0,0,1,nan,2,0.099,1,0,0.9116211,0.9371643,0.8622742,0.8889465,-0.002929688,-0.004882812,0,1,2,0
2629.948,0.00101,0.01953125,-0.05273438,0.02148438,1.757812,2.5625,11.54688,0.00390625,-0.05078125,-0.005859375,-0.01757812,-0.03710938,0,0.002807617,0.006103516,-0.2088623,0,0,-0.2169189,0.8999939,4.071,0,0,0,1,nan,2,0.109,1,0,0.8853149,0.9012451,0.9089355,0.90448,-0.002929688,-0.004882812,0,1,2,0
2629.957,0.001011,0.078125,-0.08398438,0.04492188,0.359375,1.226562,10.95312,0.00390625,-0.03125,0.01367188,-0.015625,-0.03515625,0,0.002685547,0.005859375,-0.2088623,0,0,-0.2169189,0.8999939,4.071,0,0,0,1,nan,2,0.118,1,0,0.9246826,0.8673096,0.9452209,0.862793,-0.002929688,-0.004882812,0,1,2,0
2629.967,0.001013,0.04882812,-0.05664062,0.01171875,-1.234375,0.125,12.375,-0.015625,0.0390625,-0.00390625,-0.015625,-0.03710938,0,0.002685547,0.006103516,-0.2088623,0,0,-0.2169189,0.8999939,4.071,0,0,0,1,nan,2,0.128,1,0,0.8786316,0.8978882,0.9064636,0.9169922,-0.002929688,-0.004882812,0,1,2,0
2629.977,0.001007,0.001953125,0.03125,-0.02148438,0.515625,0.1953125,10.90625,0.015625,-0.01367188,-0.009765625,-0.01757812,-0.03320312,0,0.002929688,0.005493164,-0.2088623,0,0,-0.2169189,0.8999939,4.071,0,0,0,1,nan,2,0.138,1,0,0.861084,0.9159546,0.8913879,0.9315796,-0.002929688,-0.004882812,0,1,2,0
2629.987,0.001011,0.0703125,-0.0703125,0.01367188,1.570312,2.5,11.61719,0.005859375,-0.02929688,-0.005859375,-0.01757812,-0.03125,0,0.002807617,0.005126953,-0.2088623,0,0,-0.2169189,0.8999939,4.071,0,0,0,1,nan,2,0.148,1,0,0.884613,0.9091492,0.9035034,0.902771,-0.002929688,-0.004882812,0,1,2,0
2629.997,0.001011,0.046875,0.109375,0.015625,0.8046875,1.914062,9.734375,-0.01757812,0.08789062,-0.005859375,-0.01757812,-0.03125,0,0.002929688,0.005004883,-0.2088623,0,0,-0.2169189,0.8999939,4.071,0,0,0,1,nan,2,0.159,1,0,0.8633423,0.8780823,0.9206238,0.9379578,-0.002929688,-0.004882812,0,1,2,0.5396826
2630.007,0.001011,0.1269531,-0.1582031,0,-0.9140625,-0.1015625,8.554688,0.009765625,-0.03125,-0.01367188,-0.01757812,-0.03125,0,0.003051758,0.005126953,-0.2088623,0,0,-0.2169189,0.8999939,4.071,0,0,0,1,nan,2,0.169,1,0,0.8755798,0.9302063,0.8822021,0.9119873,-0.002929688,-0.004882812,0,1,2,0
2630.018,0.001043,0.078125,0.009765625,0.02539062,-0.3828125,0.5625,9.359375,0.01757812,-0.03515625,0.005859375,-0.01953125,-0.02734375,0,0.003295898,0.004394531,-0.2089844,0,0,-0.2169189,0.8999939,4.071,0,0,0,1,nan,2,0.179,1,0,0.9114685,0.874054,0.9337158,0.8807678,-0.002929688,-0.004882812,0,1,2,0.1111111
2630.027,0.001011,-0.0234375,-0.2578125,0.046875,1.671875,1.890625,11.875,-0.001953125,-0.03125,0.02148438,-0.01953125,-0.02929688,0,0.003417969,0.004760742,-0.2089844,0,0,-0.2169189,0.8999939,4.071,0,0,0,1,nan,2,0.189,1,0,0.9541321,0.8669739,0.9364624,0.8424377,-0.002929688,-0.004882812,0,1,2,0
2630.038,0.00101,0.05859375,-0.0390625,0.02148438,1.921875,2.601562,12.14844,0.01757812,0.04101562,0.009765625,-0.01953125,-0.02929688,0,0.003295898,0.004882812,-0.2088623,0,0,-0.2169189,0.8999939,4.071,0,0,0,1,nan,2,0.199,1,0,0.899292,0.8789062,0.9384155,0.8833923,-0.002929688,-0.004882812,0,1,2,0
2630.047,0.001007,-0.05078125,0.1542969,0.00390625,-1.867188,-0.109375,11.89844,0.015625,0.04101562,0.0078125,-0.02148438,-0.03320312,0,0.003540039,0.005493164,-0.2088623,0,0,-0.2169189,0.8999939,4.071,0,0,0,1,nan,2,0.006,1,0,0.8983459,0.8828735,0.9249878,0.8937683,-0.002929688,-0.004882812,0,1,2,0
2630.057,0.001042,-0.04882812,0.03710938,0.009765625,-0.578125,1.5,11.55469,-0.0078125,-0.06445312,0.005859375,-0.02148438,-0.03320312,0,0.003662109,0.005371094,-0.2088623,0,0,-0.2169189,0.8999939,4.071,0,0,0,1,nan,2,0.016,1,0,0.9064026,0.907135,0.8955383,0.8909302,-0.002929688,-0.004882812,0,1,2,0
2630.067,0.001032,0.0625,-0.2226562,-0.00390625,0.6953125,2.757812,11.41406,0.015625,-0.09960938,0.005859375,-0.02148438,-0.03125,0,0.003662109,0.005249023,-0.2087402,0,0,-0.2169189,0.8999939,4.071,0,0,0,1,nan,2,0.026,1,0,0.9174194,0.9168701,0.8992615,0.8664551,-0.002929688,-0.004882812,0,1,2,0
2630.077,0.000997,-0.04101562,0.0625,-0.05078125,1.484375,3.726562,12.17188,0.001953125,-0.009765625,-0.0078125,-0.02148438,-0.02929688,0,0.003540039,0.004882812,-0.2087402,0,0,-0.2169189,0.8999939,4.071,0,0,0,1,nan,2,0.036,1,0,0.8588562,0.9197998,0.8888855,0.9324951,-0.002929688,-0.004882812,0,1,2,0
2630.087,0.001009,0.00390625,0.0390625,0.01367188,-0.3203125,1.132812,11.8125,0.02734375,0.05859375,0.001953125,-0.02148438,-0.03125,0,0.003662109,0.005249023,-0.2087402,0,0,-0.2169189,0.8999939,4.071,0,0,0,1,nan,2,0.046,1,0,0.8791809,0.8891602,0.9290771,0.9025574,-0.002929688,-0.004882812,0,1,2,0
2630.097,0.001009,-0.1933594,0.328125,-0.02929688,0,0.109375,10.38281,-0.02148438,0.07617188,-0.005859375,-0.0234375,-0.03125,0,0.00390625,0.005249023,-0.2087402,0,0,-0.2169189,0.8999939,4.071,0,0,0,1,nan,2,0.057,1,0,0.8623352,0.8850403,0.9022827,0.9503479,-0.002929688,-0.004882812,0,1,2,0
2630.107,0.001009,-0.07421875,-0.1933594,-0.02929688,1.664062,1.460938,9.796875,-0.04101562,-0.07421875,-0.0078125,-0.02148438,-0.03320312,0,0.003662109,0.005371094,-0.2087402,0,0,-0.2169189,0.8999939,4.071,0,0,0,1,nan,2,0.067,1,0,0.899231,0.9268494,0.8661194,0.9078064,-0.002929688,-0.004882812,0,1,2,0.4920635
2630.117,0.001009,-0.04101562,0.08007812,-0.001953125,1.304688,1.632812,10.625,-0.02929688,0.05664062,0.00390625,-0.02148438,-0.03320312,0,0.003662109,0.005371094,-0.2087402,0,0,-0.2169189,0.8999939,4.071,0,0,0,1,nan,2,0.077,1,0,0.8955078,0.8656921,0.9310608,0.9077148,-0.002929688,-0.004882812,0,1,2,0
2630.127,0.001003,-0.1132812,-0.08203125,0.03320312,-0.90625,-0.15625,10.67969,-0.02148438,-0.109375,0.01171875,-0.02148438,-0.03125,0,0.003662109,0.005126953,-0.2087402,0,0,-0.2169189,0.8999939,4.071,0,0,0,1,nan,2,0.087,1,0,0.9433594,0.8867798,0.9095764,0.8602905,-0.002929688,-0.004882812,0,1,2,0
2630.138,0.001003,0.05664062,-0.03515625,0.009765625,-0.3515625,0.5078125,11.22656,0.015625,-0.0859375,0.01367188,-0.02148438,-0.02539062,0,0.003540039,0.004272461,-0.2087402,0,0,-0.2169189,0.8999939,4.071,0,0,0,1,nan,2,0.097,1,0,0.9021606,0.8998718,0.9219666,0.8759766,-0.002929688,-0.004882812,0,1,2,0
2630.148,0.001018,0.0234375,-0.05859375,0.005859375,1.710938,1.898438,11.26562,-0.04101562,0.04882812,0,-0.01953125,-0.02734375,0,0.003173828,0.004638672,-0.2086182,0,0,-0.2169189,0.8999939,4.071,0,0,0,1,nan,2,0.107,1,0,0.8841858,0.8936157,0.9109497,0.9112549,-0.002929688,-0.004882812,0,1,2,0
2630.157,0.001016,0.001953125,-0.05078125,0.00390625,0.09375,-0.90625,10.07812,-0.03320312,0.0078125,-0.009765625,-0.01757812,-0.02929688,0,0.002807617,0.004760742,-0.2087402,0,0,-0.2169189,0.8999939,4.071,0,0,0,1,nan,2,0.116,1,0,0.8837585,0.9055176,0.8992615,0.9114685,-0.002929688,-0.004882812,0,1,2,0.2698413
2630.167,0.001021,-0.1035156,-0.05078125,0.00390625,-0.890625,-1.609375,9.859375,-0.046875,0.009765625,-0.00390625,-0.015625,-0.02929688,0,0.002441406,0.004760742,-0.2088623,0,0,-0.2169189,0.8999939,4.071,0,0,0,1,nan,2,0.126,1,0,0.8986206,0.885376,0.9087219,0.9072571,-0.002929688,-0.004882812,0,1,2,0.4920635
2630.177,0.001011,0.1074219,-0.001953125,0.0078125,0.4453125,-0.265625,10.46094,0.009765625,0.01953125,0.01367188,-0.01171875,-0.02929688,0,0.001831055,0.005004883,-0.2087402,0,0,-0.2169189,0.8999939,4.071,0,0,0,1,nan,2,0.136,1,0,0.8959351,0.8875427,0.9462891,0.8702393,-0.002929688,-0.004882812,0,1,2,0
2630.187,0.001008,-0.1035156,0.2753906,0.015625,1.078125,-0.1875,9.8125,-0.08789062,0.046875,0.01171875,-0.009765625,-0.02929688,0,0.001586914,0.005004883,-0.2087402,0,0,-0.2169189,0.8999939,4.071,0,0,0,1,nan,2,0.146,1,0,0.9047546,0.8542175,0.9199524,0.9210815,-0.002929688,-0.004882812,0,1,2,0.3492064
2630.197,0.00101,0.01953125,0.0234375,-0.02734375,-1.273438,-1.664062,8.90625,-0.02734375,0.02539062,-0.005859375,-0.005859375,-0.03320312,0,0.001098633,0.005493164,-0.2087402,0,0,-0.2169189,0.8999939,4.071,0,0,0,1,nan,2,0.157,1,0,0.864624,0.9200439,0.8927002,0.9226379,-0.002929688,-0.004882812,0,1,2,0
2630.207,0.00101,-0.0234375,0.02734375,0.015625,0.40625,0.21875,9.210938,-0.06054688,0.01367188,0.00390625,-0.00390625,-0.03125,0,0.0007324219,0.005249023,-0.2087402,0,0,-0.2169189,0.8999939,4.071,0,0,0,1,nan,2,0.167,1,0,0.9124146,0.8628845,0.9270325,0.897644,-0.002929688,-0.004882812,0,1,2,0
2630.217,0.001035,0.08007812,-0.1640625,0.0078125,-0.9140625,-0.78125,8.726562,0.03515625,-0.03320312,0.001953125,-0.00390625,-0.03125,0,0.0007324219,0.005249023,-0.2087402,0,0,-0.2169189,0.8999939,4.071,0,0,0,1,nan,2,0.177,1,0,0.8927917,0.9104919,0.9141846,0.8825378,-0.002929688,-0.004882812,0,1,2,0
2630.227,0.001004,-0.0234375,0.01171875,0,-1.226562,-1.789062,8.4375,0.02734375,-0.0234375,0.0078125,-0.005859375,-0.02734375,0,0.001098633,0.004638672,-0.2087402,0,0,-0.2169189,0.8999939,4.071,0,0,0,1,nan,2,0.187,1,0,0.8946533,0.888092,0.9165649,0.9006958,-0.002929688,-0.004882812,0,1,2,0
2630.238,0.000996,0.04492188,0.001953125,0.009765625,0.796875,0.3203125,9.953125,0.02734375,0.02539062,-0.001953125,-0.0078125,-0.03125,0,0.001342773,0.005126953,-0.2087402,0,0,-0.2169189,0.8999939,4.071,0,0,0,1,nan,2,0.197,1,0,0.8858337,0.9006042,0.9128723,0.9007263,-0.002929688,-0.004882812,0,1,2,0.5873016
2630.247,0.001019,0.09570312,-0.01171875,-0.005859375,-1.101562,-1.570312,8.6875,0.03125,0.00390625,-0.001953125,-0.0078125,-0.03320312,0,0.001220703,0.005493164,-0.2087402,0,0,-0.2169189,0.8999939,4.071,0,0,0,1,nan,2,0.005,1,0,0.8857422,0.9100037,0.9124756,0.8918152,-0.002929688,-0.004882812,0,1,2,0
2630.258,0.00101,-0.01757812,0.02929688,-0.02148438,-1.351562,-1.390625,9.382812,0.0234375,0.04492188,0,-0.009765625,-0.0390625,0,0.001586914,0.006469727,-0.2087402,0,0,-0.2169189,0.8999939,4.071,0,0,0,1,nan,2,0.016,1,0,0.8946533,0.8986206,0.9089355,0.8978271,-0.002929688,-0.005859375,0,1,2,0.4761905
2630.267,0.001021,0.1015625,-0.009765625,-0.00390625,0.90625,1.554688,9.460938,0.03515625,0.001953125,-0.005859375,-0.009765625,-0.0390625,0,0.001708984,0.006591797,-0.2088623,0,0,-0.2169189,0.8999939,4.071,0,0,0,1,nan,2,0.025,1,0,0.8827515,0.9104614,0.9095459,0.8972473,-0.002929688,-0.005859375,0,1,2,0.5396826
2630.277,0.001015,0.01953125,0.0390625,0.01367188,-1.28125,-1.257812,9.476562,0.009765625,0.00390625,0.00390625,-0.01171875,-0.0390625,0,0.001831055,0.006591797,-0.2087402,0,0,-0.2169189,0.8999939,4.071,0,0,0,1,nan,2,0.035,1,0,0.8908691,0.8911133,0.9180603,0.8999634,-0.002929688,-0.005859375,0,1,2,0.5555556
2630.287,0.001008,-0.1113281,-0.06054688,0.02929688,-1.390625,-1.390625,6.765625,-0.07226562,-0.08789062,0.005859375,-0.009765625,-0.03515625,0,0.001708984,0.005981445,-0.2087402,0,0,-0.2169189,0.8999939,4.071,0,0,0,1,nan,2,0.045,1,0,0.9293213,0.8712463,0.9064331,0.8929749,-0.002929688,-0.005859375,0,1,2,0
2630.297,0.00101,-0.02929688,0.2148438,0.005859375,-0.0625,0.796875,10.79688,-0.015625,0.07226562,-0.00390625,-0.009765625,-0.03515625,0,0.001464844,0.005859375,-0.2087402,0,0,-0.2169189,0.8999939,4.071,0,0,0,1,nan,2,0.056,1,0,0.8684998,0.8721008,0.9342651,0.9251099,-0.002929688,-0.005859375,0,1,2,0
2630.307,0.001004,0.0078125,0.01171875,0.01171875,-0.2578125,-1.367188,8.085938,-0.02929688,0.03515625,0.0078125,-0.0078125,-0.03710938,0,0.001342773,0.006103516,-0.2088623,0,0,-0.2169189,0.8999939,4.071,0,0,0,1,nan,2,0.066,1,0,0.9077759,0.8693237,0.927948,0.8949585,-0.002929688,-0.005859375,0,1,2,0
2630.317,0.001016,0.001953125,-0.2207031,0.0078125,-0.6171875,-0.515625,8.875,-0.01171875,-0.09570312,0,-0.0078125,-0.03710938,0,0.001342773,0.006103516,-0.2087402,0,0,-0.2169189,0.8999939,4.071,0,0,0,1,nan,2,0.076,1,0,0.912323,0.9229736,0.8817139,0.8829956,-0.002929688,-0.005859375,0,1,2,0
2630.327,0.001016,-0.01757812,0.0546875,0.001953125,0.984375,0.859375,9.5625,-0.02539062,-0.01953125,-0.00390625,-0.005859375,-0.03320312,0,0.0009765625,0.005615234,-0.2087402,0,0,-0.2169189,0.8999939,4.071,0,0,0,1,nan,2,0.086,1,0,0.8805847,0.8971863,0.9077148,0.9145203,-0.002929688,-0.005859375,0,1,2,0.5714286
2630.338,0.001016,0.09570312,-0.06445312,0.02539062,-1.140625,-1.929688,10.49219,0.01953125,-0.04882812,0,-0.005859375,-0.03320312,0,0.0008544922,0.005493164,-0.2088623,0,0,-0.2169189,0.8999939,4.071,0,0,0,1,nan,2,0.096,1,0,0.8962708,0.9038086,0.9165344,0.8833923,-0.002929688,-0.005859375,0,1,2,0
2630.348,0.00101,0.04882812,0.009765625,-0.001953125,0.484375,-0.4140625,10.42969,0.0234375,-0.03125,0.0078125,-0.005859375,-0.02929688,0,0.001098633,0.004882812,-0.2086182,0,0,-0.2169189,0.8999939,4.071,0,0,0,1,nan,2,0.106,1,0,0.8770142,0.9060974,0.9083557,0.9085388,-0.002929688,-0.005859375,0,1,2,0
2630.357,0.00101,0.0234375,0.015625,0.0078125,0.71875,1.117188,9.546875,-0.01171875,0.01757812,-0.001953125,-0.005859375,-0.02929688,0,0.0009765625,0.005004883,-0.2086182,0,0,-0.2169189,0.8999939,4.071,0,0,0,1,nan,2,0.115,1,0,0.8805237,0.8962097,0.9024353,0.9208069,-0.002929688,-0.005859375,0,1,2,0.4444444
2630.367,0.001007,0.046875,-0.171875,-0.02539062,-1.007812,-1.21875,8.195312,0.03125,-0.04101562,-0.01757812,-0.0078125,-0.02929688,0,0.001342773,0.004882812,-0.2086182,0,0,-0.2169189,0.8999939,4.071,0,0,0,1,nan,2,0.125,1,0,0.8638,0.9415283,0.8731384,0.9215393,-0.002929688,-0.005859375,0,1,2,0
2630.377,0.00102,0.01953125,-0.0625,0.009765625,0.109375,0.765625,10.30469,-0.02148438,0.04101562,-0.00390625,0.4199219,0.02539062,0,0.0009765625,0.005126953,-0.2087402,0.07104492,0.009521484,-0.2169189,0.8999939,4.071,0.1356201,0.01806641,0,1,nan,2,0.002,1,0,0.9799805,0.8218384,0.8294067,0.968811,-0.002929688,-0.005859375,0,1,2,0
2630.387,0.001009,-0.2324219,0.1425781,-0.01953125,0.3203125,0.515625,8.578125,-0.1074219,0.09375,-0.005859375,0.421875,0.02148438,0,0.0006103516,0.005737305,-0.2087402,0.07104492,0.009521484,-0.2169189,0.8999939,4.071,0.1356201,0.01806641,0,1,nan,2,0.012,1,0,0.9247742,0.8458252,0.855072,0.9743347,-0.001953125,-0.005859375,0,1,2,0
2630.397,0.001019,-0.08789062,-0.1269531,0,-1.609375,-1.992188,8.578125,-0.02734375,-0.05273438,-0.00390625,0.4257812,0.01953125,0,0.0001220703,0.006347656,-0.2087402,0.07104492,0.009521484,-0.2169189,0.8999939,4.071,0.1356201,0.01806641,0,1,nan,2,0.022,1,0,0.9376526,0.8955383,0.856842,0.9099426,-0.001953125,-0.005859375,0,1,2,0
2630.407,0.001016,-0.05859375,0.02148438,0.001953125,0.6875,-0.0390625,9.054688,-0.001953125,-0.08984375,0.00390625,0.4257812,0.0234375,0,0,0.005371094,-0.2087402,0.07104492,0.009521484,-0.2169189,0.8999939,4.071,0.1356201,0.01806641,0,1,nan,2,0.032,1,0,0.9302368,0.8731995,0.8766479,0.9199219,-0.001953125,-0.005859375,0,1,2,0
2630.417,0.000997,0.1523438,0.07617188,-0.01171875,-0.3359375,-1.625,9.539062,0.03515625,0.09179688,-0.0078125,0.4277344,0.0234375,0,-0.0001220703,0.005615234,-0.2087402,0.07104492,0.009521484,-0.2169189,0.8999939,4.071,0.1356201,0.01806641,0,1,nan,2,0.042,1,0,0.869751,0.8788757,0.8959961,0.9553833,-0.0009765625,-0.005859375,0,1,2,0.1587302
2630.428,0.001048,-0.05273438,-0.03320312,0.005859375,-0.7734375,-1.085938,9.875,-0.02734375,0.01953125,0,0.4277344,0.01953125,0,-0.0002441406,0.006225586,-0.2087402,0.07104492,0.009521484,-0.2169189,0.8999939,4.071,0.1356201,0.01806641,0,1,nan,2,0.053,1,0,0.9301453,0.8701477,0.872345,0.9273376,-0.0009765625,-0.005859375,0,1,2,0.2063492
2630.438,0.001025,-0.046875,-0.009765625,0.03320312,1.398438,2.476562,12.76562,-0.01367188,-0.02148438,0.01757812,0.4296875,0.01953125,0,-0.0004882812,0.006103516,-0.2087402,0.07104492,0.009521484,-0.2169189,0.8999939,4.071,0.1356201,0.01806641,0,1,nan,2,0.063,1,0,0.9538269,0.846283,0.901947,0.8979492,0,-0.005859375,0,1,2,0
2630.447,0.001015,0.04101562,0.05664062,-0.01953125,0.109375,0.328125,11.71094,0.01757812,-0.001953125,-0.001953125,0.4277344,0.02148438,0,-0.0003662109,0.005981445,-0.2086182,0.07104492,0.009521484,-0.2169189,0.8999939,4.071,0.1356201,0.01806641,0,1,nan,2,0.072,1,0,0.8966064,0.8909302,0.8658447,0.9466248,0,-0.005859375,0,1,2,0
2630.457,0.000997,0.05273438,0,-0.01367188,0.3046875,1.578125,11.13281,0.03710938,-0.00390625,-0.005859375,0.4277344,0.01953125,0,-0.0002441406,0.006225586,-0.2087402,0.07104492,0.009521484,-0.2169189,0.8999939,4.071,0.1356201,0.01806641,0,1,nan,2,0.082,1,0,0.9168396,0.8799438,0.8783875,0.9248657,0.0009765625,-0.005859375,0,1,2,0
2630.467,0.000998,-0.09570312,0.09570312,-0.015625,1.578125,2.078125,9.28125,-0.07617188,-0.02929688,-0.01171875,0.4277344,0.02148438,0,-0.0001220703,0.005859375,-0.2088623,0.07104492,0.009521484,-0.2169189,0.8999939,4.071,0.1356201,0.01806641,0,1,nan,2,0.092,1,0,0.9371033,0.849823,0.8573303,0.9557495,0.0009765625,-0.005859375,0,1,2,0.2063492
2630.477,0.001028,0,0.1230469,-0.04101562,-0.3515625,-0.84375,8.234375,0,0.02539062,-0.015625,0.001953125,0.05078125,0,-0.0003662109,0.005737305,-0.2089844,0,0.01416016,-0.2169189,0.8999939,4.071,0,0.02709961,0,1,nan,2,0.006,1,0,0.8503723,0.9299927,0.9141541,0.9054871,0.0009765625,-0.005859375,0,1,2,0
2630.487,0.001024,0.0234375,0.04296875,0.01757812,-1.3125,-1.796875,6.851562,-0.03515625,0.01171875,0.0078125,0.001953125,0.05078125,0,-0.0004882812,0.005859375,-0.2089844,0,0.01416016,-0.2169189,0.8999939,4.071,0,0.02709961,0,1,nan,2,0.016,1,0,0.909668,0.8802795,0.9107971,0.899231,0.0009765625,-0.005859375,0,1,2,0
2630.497,0.0009860001,-0.04882812,0.01757812,0.00390625,-0.0234375,-0.2265625,9.03125,-0.015625,0.001953125,0.001953125,0.00390625,0.046875,0,-0.0004882812,0.006347656,-0.2088623,0,0.01416016,-0.2169189,0.8999939,4.071,0,0.02709961,0,1,nan,2,0.026,1,0,0.9022522,0.9046326,0.8870544,0.9060364,0.0009765625,-0.005859375,0,1,2,0
2630.507,0.001011,0.08789062,0.1835938,-0.05078125,0.5546875,0.34375,10.21094,0.0625,0.1269531,-0.0078125,-0.6230469,0.01757812,0,-0.0003662109,0.006713867,-0.2088623,-0.104126,0.009521484,-0.2169189,0.8999939,4.071,-0.1989136,0.01806641,0,1,nan,2,0.009,1,0,0.7824707,0.9579468,0.9729919,0.8865662,0.0009765625,-0.005859375,0,1,2,0
2630.517,0.000979,0.109375,0.01171875,0.03125,-0.9765625,-1.757812,8.851562,0.05078125,-0.05078125,0.01953125,-0.625,0.01757812,0,-0.0001220703,0.006713867,-0.2088623,-0.104126,0.009521484,-0.2169189,0.8999939,4.071,-0.1989136,0.01806641,0,1,nan,2,0.019,1,0,0.8964233,0.9190674,0.9757385,0.8087463,0,-0.005859375,0,1,2,0
2630.527,0.001009,-0.01171875,0.06445312,-0.03710938,-1.664062,-2.109375,8.242188,-0.02148438,0.02148438,-0.01757812,-0.625,0.01757812,0,0.0001220703,0.006591797,-0.2088623,-0.104126,0.009521484,-0.2169189,0.8999939,4.071,-0.1989136,0.01806641,0,1,nan,2,0.029,1,0,0.8137817,0.9602966,0.9007874,0.9251099,-0.0009765625,-0.005859375,0,1,2,0
2630.538,0.001009,-0.2265625,0.1796875,-0.0078125,0,-1.476562,8.8125,-0.0859375,0.05664062,-0.02539062,-0.625,0.01757812,0,0,0.006591797,-0.2091064,-0.104126,0.009521484,-0.2169189,0.8999939,4.071,-0.1989136,0.01806641,0,1,nan,2,0.039,1,0,0.8509216,0.9082031,0.9265137,0.9143677,-0.0009765625,-0.005859375,0,1,2,0
2630.547,0.001006,0.005859375,0.1289062,0.001953125,1.125,0.3125,9.039062,-0.03515625,0.03710938,-0.005859375,-0.6210938,0.01757812,0,-0.0004882812,0.006713867,-0.2092285,-0.104126,0.009521484,-0.2169189,0.8999939,4.071,-0.1989136,0.01806641,0,1,nan,2,0.048,1,0,0.8627625,0.9126892,0.9673767,0.8571777,-0.001953125,-0.005859375,0,1,2,0
2630.557,0.001026,0.03710938,-0.0078125,-0.02734375,-0.4140625,-0.75,9.757812,0.04492188,-0.04296875,-0.0078125,-1.277344,-0.03710938,0,-0.0002441406,0.006469727,-0.2091064,-0.2130127,0,-0.2169189,0.8999939,4.071,-0.4069214,0,0,1,nan,2,0.002,1,0,0.615509,1,0.9737549,0.6825256,-0.002929688,-0.005859375,0,1,2,0
2630.567,0.000992,0.06054688,0.04101562,0.01757812,-0.578125,-2.25,6.640625,-0.04882812,-0.03125,-0.00390625,-1.275391,-0.03515625,0,-0.0006103516,0.006103516,-0.2092285,-0.2130127,0,-0.2169189,0.8999939,4.071,-0.4069214,0,0,1,nan,2,0.012,1,0,0.8181763,0.9553833,1,0.8038025,-0.00390625,-0.005859375,0,1,2,0
2630.577,0.000984,-0.005859375,0.1425781,0,-2.023438,-2.40625,8.25,0.01171875,0.15625,0.01171875,-1.275391,-0.0390625,0,-0.0004882812,0.006591797,-0.2091064,-0.2130127,0,-0.2169189,0.8999939,4.071,-0.4069214,0,0,1,nan,2,0.022,1,0,0.756073,0.9083862,1,0.8110046,-0.004882812,-0.005859375,0,1,2,0
2630.587,0.00103,0.00390625,0.009765625,0.005859375,-1.632812,-1.46875,10.33594,0.01953125,0.01171875,0.01171875,-1.273438,-0.04101562,0,-0.0006103516,0.007080078,-0.2089844,-0.2130127,0,-0.2169189,0.8999939,4.071,-0.4069214,0,0,1,nan,2,0.032,1,0,0.8055725,0.9867249,0.991272,0.8164062,-0.006835938,-0.005859375,0,1,2,0
2630.597,0.001022,0.1132812,0.01953125,0.01171875,-1.234375,0.1953125,12.17188,0.05273438,0.0234375,-0.0078125,-1.275391,-0.04492188,0,-0.0006103516,0.007446289,-0.2091064,-0.2130127,0,-0.2169189,0.8999939,4.068,-0.4069214,0,0,1,nan,2,0.042,1,0,0.7918091,0.9917297,0.9987488,0.8177185,-0.0078125,-0.005859375,0,1,2,0
2630.607,0.000985,0.109375,0.02734375,-0.01367188,0.171875,1.671875,12.21094,0.06054688,0.02539062,-0.02148438,-1.787109,-0.04296875,0,-0.0003662109,0.007324219,-0.2092285,-0.2983398,0,-0.2169189,0.8999939,4.068,-0.5697021,0,0,1,nan,2,0.008,1,0,0.6691895,1,0.9951172,0.740448,-0.009765625,-0.005859375,0,1,2,0
2630.617,0.001028,0.02148438,0.09375,0.01953125,1.484375,1.367188,11.625,-0.0234375,0.04296875,0,-1.787109,-0.04492188,0,-0.0002441406,0.00769043,-0.2093506,-0.2983398,0,-0.2169189,0.8999939,4.068,-0.5697021,0,0,1,nan,2,0.018,1,0,0.7424927,0.9301147,1,0.7258606,-0.01171875,-0.005859375,0,1,2,0
2630.627,0.00101,0.09179688,-0.046875,-0.01757812,2.179688,0.125,9.546875,0.03710938,-0.01953125,-0.001953125,-1.787109,-0.046875,0,-0.0002441406,0.008056641,-0.2093506,-0.2983398,0,-0.2169189,0.8999939,4.068,-0.5697021,0,0,1,nan,2,0.028,1,0,0.7382507,1,0.9959106,0.7387085,-0.01367188,-0.005859375,0,1,2,0
2630.638,0.001009,0.0703125,0.00390625,-0.03710938,1.796875,0.6328125,9.515625,0.08007812,0.02929688,-0.005859375,-1.789062,-0.046875,0,-0.0001220703,0.008178711,-0.2093506,-0.2983398,0,-0.2169189,0.8999939,4.068,-0.5697021,0,0,1,nan,2,0.038,1,0,0.6885376,1,0.9896545,0.7488403,-0.01464844,-0.005859375,0,1,2,0
2630.648,0.000988,0.140625,-0.109375,-0.015625,0.71875,1.679688,10.3125,0.02734375,-0.0078125,-0.015625,-2.416016,-0.04882812,0,0.0001220703,0.008544922,-0.2094727,-0.4024658,0,-0.2169189,0.8999939,4.068,-0.7686157,0,0,1,nan,2,0.008,1,0,0.5857849,1,0.9597168,0.6224976,-0.01757812,-0.005859375,0,1,2,0
2630.657,0.001033,0.01367188,0.1367188,-0.009765625,0.0546875,1.148438,10.57812,-0.02734375,0.1132812,-0.01953125,-2.416016,-0.04882812,0,0.0002441406,0.008422852,-0.2095947,-0.4024658,0,-0.2169189,0.8999939,4.068,-0.7686157,0,0,1,nan,2,0.017,1,0,0.6078186,0.9601746,1,0.709198,-0.01953125,-0.005859375,0,1,2,0
2630.667,0.001036,0.01171875,-0.03710938,0.001953125,0.171875,2.539062,11.13281,0.00390625,0.001953125,0.009765625,-2.416016,-0.046875,0,0.0002441406,0.008300781,-0.2094727,-0.4024658,0,-0.2169189,0.8999939,4.068,-0.7686157,0,0,1,nan,2,0.027,1,0,0.6430664,0.9544983,1,0.6376953,-0.02246094,-0.005859375,0,1,2,0
2630.677,0.001011,0.05859375,0.001953125,0.00390625,0.6875,0.578125,9.976562,0.0625,-0.0703125,0.0078125,-2.417969,-0.04492188,0,0.0004882812,0.0078125,-0.2094727,-0.4024658,0,-0.2169189,0.8999939,4.068,-0.7686157,0,0,1,nan,2,0.037,1,0,0.6429138,0.9977722,1,0.6395874,-0.02441406,-0.005859375,0,1,2,0
2630.687,0.001007,0.08398438,0.125,-0.00390625,0.90625,-0.4375,8.734375,-0.03710938,0.09179688,-0.005859375,-2.416016,-0.046875,0,0.0003662109,0.008178711,-0.2094727,-0.4024658,0,-0.2169189,0.8999939,4.068,-0.7686157,0,0,1,nan,2,0.047,1,0,0.6085815,0.9581299,1,0.6802979,-0.02734375,-0.005859375,0,1,2,0
2630.697,0.000975,0.046875,0.08984375,-0.02148438,0.765625,1.070312,7.984375,-0.02148438,0.009765625,-0.01757812,-2.669922,-0.046875,0,0,0.008422852,-0.2095947,-0.4450684,0,-0.2169189,0.8999939,4.068,-0.8499756,0,0,1,nan,2,0.007,1,0,0.5604858,1,0.9802856,0.6169128,-0.02929688,-0.005859375,0,1,2,0
2630.707,0.001023,-0.046875,-0.07617188,0.01953125,-0.6328125,0.8984375,8.875,-0.03710938,0.04492188,0.01953125,-2.669922,-0.04882812,0,0,0.008789062,-0.2094727,-0.4450684,0,-0.2169189,0.8999939,4.068,-0.8499756,0,0,1,nan,2,0.017,1,0,0.6057739,0.9230042,1,0.5753479,-0.03222656,-0.006835938,0,1,2,0
2630.717,0.00101,-0.0625,-0.02539062,0.01757812,-0.8125,1.4375,10.46875,-0.001953125,0.08984375,0.01171875,-2.667969,-0.05664062,0,-0.0003662109,0.01025391,-0.2093506,-0.4450684,0,-0.2169189,0.8999939,4.068,-0.8499756,0,0,1,nan,2,0.027,1,0,0.586792,0.9815369,1,0.5963745,-0.03515625,-0.006835938,0,1,2,0
2630.727,0.00101,0.08398438,0.06640625,0.0234375,-1.648438,-2.140625,9.34375,0.0078125,0.07617188,0.01367188,-2.667969,-0.05859375,0,-0.0004882812,0.01062012,-0.2092285,-0.4450684,0,-0.2169189,0.8999939,4.068,-0.8499756,0,0,1,nan,2,0.037,1,0,0.5511169,0.9359436,1,0.5688782,-0.03808594,-0.006835938,0,1,2,0
2630.738,0.00101,-0.05664062,0.0703125,-0.01171875,-0.5625,-2.257812,6.546875,-0.0625,0.04101562,-0.0078125,-2.667969,-0.06054688,0,-0.0004882812,0.01098633,-0.2092285,-0.4450684,0,-0.2169189,0.8999939,4.068,-0.8499756,0,0,1,nan,2,0.047,1,0,0.5897827,1,0.9858093,0.6529846,-0.04003906,-0.006835938,0,1,2,0
2630.748,0.00101,-0.1503906,-0.3222656,-0.01953125,-1.9375,-1.125,7.734375,-0.046875,-0.1777344,-0.001953125,-2.667969,-0.05859375,0,-0.0003662109,0.01062012,-0.2092285,-0.4450684,0,-0.2169189,0.8999939,4.068,-0.8499756,0,0,1,nan,2,0.058,1,0,0.6217957,1,0.9440308,0.5662537,-0.04296875,-0.006835938,0,1,2,0
2630.758,0.00101,-0.01171875,0.09179688,0.009765625,-2.117188,-0.4453125,11.72656,-0.01367188,0.06835938,0.005859375,-2.666016,-0.06054688,0,-0.0007324219,0.01062012,-0.2092285,-0.4450684,0,-0.2169189,0.8999939,4.068,-0.8499756,0,0,1,nan,2,0.068,1,0,0.5340271,0.9333496,1,0.5700989,-0.04589844,-0.006835938,0,1,2,0
2630.767,0.001024,0.09375,-0.03515625,0.00390625,-2.0625,0.546875,10.60938,0.03710938,0.00390625,0.00390625,-2.666016,-0.06054688,0,-0.0006103516,0.01086426,-0.2092285,-0.4450684,0,-0.2169189,0.8999939,4.068,-0.8499756,0,0,1,nan,2,0.077,1,0,0.5496826,0.9906616,1,0.5700684,-0.04785156,-0.006835938,0,1,2,0
2630.777,0.001012,0.03125,0.01367188,-0.005859375,-0.8671875,-2.101562,7.773438,0.00390625,-0.001953125,0,-2.667969,-0.06054688,0,-0.0004882812,0.01074219,-0.2092285,-0.4450684,0,-0.2169189,0.8999939,4.068,-0.8499756,0,0,1,nan,2,0.087,1,0,0.5571594,0.9829407,1,0.5844116,-0.05078125,-0.006835938,0,1,2,0
2630.787,0.001009,-0.05273438,0.1074219,-0.0078125,0.6171875,-1.671875,7.296875,-0.04882812,0.07617188,-0.009765625,-2.666016,-0.06445312,0,-0.0007324219,0.01135254,-0.2092285,-0.4450684,0,-0.2169189,0.8999939,4.068,-0.8499756,0,0,1,nan,2,0.097,1,0,0.5500793,0.9743042,1,0.6026001,-0.05371094,-0.006835938,0,1,2,0
2630.797,0.000963,-0.08789062,0.2167969,0.01757812,1.890625,0.5703125,8.8125,-0.04492188,0.09375,-0.005859375,-2.666016,-0.06640625,0,-0.0007324219,0.01184082,-0.2093506,-0.4450684,0,-0.2169189,0.8999939,4.068,-0.8499756,0,0,1,nan,2,0.107,1,0,0.5319214,0.9344482,1,0.5808716,-0.05664062,-0.006835938,0,1,2,0
2630.807,0.00101,-0.109375,0.2089844,0.01171875,0.8984375,1.601562,11.63281,0.00390625,0.1230469,0.005859375,-2.666016,-0.0703125,0,-0.0006103516,0.01257324,-0.2093506,-0.4450684,0,-0.2169189,0.8999939,4.068,-0.8499756,0,0,1,nan,2,0.117,1,0,0.506897,0.9307556,1,0.561676,-0.05859375,-0.0078125,0,1,2,0
2630.817,0.00101,0.07421875,0.1054688,-0.02539062,2.820312,-1.070312,11.88281,0.0703125,0.08203125,0.005859375,-2.667969,-0.07617188,0,-0.0004882812,0.01342773,-0.2092285,-0.4450684,0,-0.2169189,0.8999939,4.068,-0.8499756,0,0,1,nan,2,0.127,1,0,0.4947815,0.9831543,1,0.5475159,-0.06152344,-0.0078125,0,1,2,0
2630.827,0.00101,0.1074219,-0.046875,0.001953125,0.96875,-1.03125,11.36719,0.06054688,0.046875,0.005859375,-2.666016,-0.08007812,0,-0.0004882812,0.0144043,-0.2092285,-0.4450684,0,-0.2169189,0.8999939,4.068,-0.8499756,0,0,1,nan,2,0.137,1,0,0.507843,0.9730225,1,0.5072021,-0.06445312,-0.0078125,0,1,2,0
2630.837,0.00101,0.1074219,0.02148438,0.02734375,-1.75,-0.953125,10.83594,0.0234375,0.03710938,0.001953125,-2.666016,-0.08007812,0,-0.0006103516,0.01416016,-0.2092285,-0.4450684,0,-0.2169189,0.8999939,4.068,-0.8499756,0,0,1,nan,2,0.147,1,0,0.4850159,0.9365234,1,0.5091248,-0.06738281,-0.0078125,0,1,2,0
2630.848,0.00101,0.046875,-0.046875,0.015625,-3.039062,-1.953125,10.0625,-0.001953125,-0.04296875,0.01171875,-2.666016,-0.078125,0,-0.0006103516,0.01391602,-0.2091064,-0.4450684,0,-0.2169189,0.8999939,4.068,-0.8499756,0,0,1,nan,2,0.158,1,0,0.5236511,0.9607544,1,0.5139771,-0.06933594,-0.0078125,0,1,2,0
2630.858,0.00101,-0.05859375,-0.06445312,-0.01171875,-0.59375,-5.539062,6.320312,-0.08984375,0.05859375,0.005859375,-2.664062,-0.08203125,0,-0.0008544922,0.01464844,-0.2089844,-0.4450684,0,-0.2169189,0.8999939,4.068,-0.8499756,0,0,1,nan,2,0.168,1,0,0.5383606,0.9899292,1,0.5822449,-0.07226562,-0.0078125,0,1,2,0
2630.867,0.001019,0.02539062,-0.08984375,-0.02734375,-0.984375,-0.0390625,9.484375,0.0390625,-0.05078125,-0.00390625,-2.666016,-0.08007812,0,-0.0008544922,0.01428223,-0.2088623,-0.4450684,0,-0.2169189,0.8999939,4.068,-0.8499756,0,0,1,nan,2,0.177,1,0,0.4474792,1,0.9405823,0.5213013,-0.07519531,-0.0078125,0,1,2,0
2630.877,0.000995,-0.09960938,0.1210938,-0.0234375,2.148438,-0.46875,8.109375,-0.01953125,0.2070312,-0.0078125,-2.666016,-0.0859375,0,-0.0007324219,0.01550293,-0.2088623,-0.4450684,0,-0.2169189,0.8999939,4.068,-0.8499756,0,0,1,nan,2,0.187,1,0,0.4577942,0.9472656,1,0.5716858,-0.07714844,-0.0078125,0,1,2,0
2630.887,0.000969,0.001953125,0.09375,-0.001953125,0.7734375,-1.09375,11.75781,0.0546875,0.0234375,-0.001953125,-2.666016,-0.08984375,0,-0.0006103516,0.01599121,-0.2089844,-0.4450684,0,-0.2169189,0.8999939,4.068,-0.8499756,0,0,1,nan,2,0.197,1,0,0.4743652,0.9614563,1,0.4893494,-0.08007812,-0.008789062,0,1,2,0
2630.897,0.001011,0.001953125,-0.06054688,0.03125,-1.179688,-2.210938,8.835938,-0.0078125,0.05859375,0.01757812,-2.667969,-0.09179688,0,-0.0004882812,0.01647949,-0.2088623,-0.4450684,0,-0.2169189,0.8999939,4.068,-0.8499756,0,0,1,nan,2,0.207,1,0,0.4873657,0.911377,1,0.4650269,-0.08300781,-0.008789062,0,1,2,0
2630.907,0.001012,0.04296875,0.02734375,0.0078125,-1.65625,-4.132812,7.546875,-0.001953125,-0.001953125,0.01171875,-2.666016,-0.09179688,0,-0.0006103516,0.01647949,-0.2087402,-0.4450684,0,-0.2169189,0.8999939,4.068,-0.8499756,0,0,1,nan,2,0.217,1,0,0.4798889,0.9776917,1,0.5049744,-0.0859375,-0.008789062,0,1,2,0
2630.917,0.001014,0.06445312,-0.06835938,-0.01953125,-0.34375,-1.953125,9.0625,0.01367188,0.03125,-0.0078125,-2.666016,-0.09375,0,-0.0006103516,0.0168457,-0.2087402,-0.4450684,0,-0.2169189,0.8999939,4.068,-0.8499756,0,0,1,nan,2,0.007,1,0,0.4419556,1,0.9779968,0.5244446,-0.08789062,-0.008789062,0,1,2,0
2630.927,0.001011,0.03710938,-0.01171875,0.02539062,0.7265625,3.453125,14.25781,0.005859375,-0.046875,0,-2.666016,-0.09375,0,-0.0006103516,0.0168457,-0.2088623,-0.4450684,0,-0.2169189,0.8999939,4.068,-0.8499756,0,0,1,nan,2,0.017,1,0,0.4897766,0.9443665,1,0.4455566,-0.09082031,-0.008789062,0,1,2,0
2630.938,0.000991,-0.02148438,-0.05664062,0.005859375,1.265625,0.7578125,13.57812,0.009765625,-0.05078125,0.01171875,-2.666016,-0.09179688,0,-0.0007324219,0.01647949,-0.2087402,-0.4450684,0,-0.2169189,0.8999939,4.068,-0.8499756,0,0,1,nan,2,0.027,1,0,0.4710693,0.9585876,1,0.4639587,-0.09375,-0.008789062,0,1,2,0
2630.948,0.001011,0.009765625,-0.03515625,0.02539062,-1.375,-3.453125,6.304688,-0.02539062,-0.01757812,0.001953125,-2.666016,-0.09179688,0,-0.0008544922,0.01635742,-0.2088623,-0.4450684,0,-0.2169189,0.8999939,4.068,-0.8499756,0,0,1,nan,2,0.037,1,0,0.4693604,0.9437561,1,0.4628296,-0.09667969,-0.008789062,0,1,2,0
2630.958,0.001011,-0.1152344,-0.02148438,0.01757812,-1.390625,-0.2734375,8.484375,-0.01171875,-0.08007812,0.02148438,-2.666016,-0.08789062,0,-0.0007324219,0.01586914,-0.2086182,-0.4450684,0,-0.2169189,0.8999939,4.068,-0.8499756,0,0,1,nan,2,0.047,1,0,0.486084,0.9558716,1,0.4549866,-0.09863281,-0.008789062,0,1,2,0
2630.967,0.001009,-0.0625,-0.1757812,-0.03515625,1.21875,-0.53125,10.375,-0.01171875,-0.1679688,0,-2.666016,-0.08398438,0,-0.0006103516,0.01489258,-0.2084961,-0.4450684,0,-0.2169189,0.8999939,4.068,-0.8499756,0,0,1,nan,2,0.057,1,0,0.4275208,1,0.922821,0.471405,-0.1015625,-0.008789062,0,1,2,0
2630.977,0.001011,0.05273438,-0.04101562,0.009765625,1.273438,-0.7578125,13.00781,0.02539062,0.001953125,-0.00390625,-2.664062,-0.08007812,0,-0.0009765625,0.01428223,-0.2086182,-0.4450684,0,-0.2169189,0.8999939,4.068,-0.8499756,0,0,1,nan,2,0.067,1,0,0.4026489,0.9429626,1,0.4397888,-0.1044922,-0.008789062,0,1,2,0
2630.987,0.000998,0.01757812,0.046875,0.02929688,-1.40625,-1.171875,8.71875,0,0.03515625,0.01171875,-2.662109,-0.08007812,0,-0.001220703,0.0144043,-0.2086182,-0.4450684,0,-0.2169189,0.8999939,4.068,-0.8499756,0,0,1,nan,2,0.077,1,0,0.4197998,0.911499,1,0.4108276,-0.1064453,-0.008789062,0,1,2,0
2630.997,0.001009,-0.01757812,-0.04492188,0.00390625,0.1875,-1.398438,8.164062,0.00390625,-0.02539062,0.005859375,-2.664062,-0.08007812,0,-0.001098633,0.0144043,-0.2084961,-0.4450684,0,-0.2169189,0.8999939,4.068,-0.8499756,0,0,1,nan,2,0.087,1,0,0.4442444,0.9950256,1,0.4741516,-0.109375,-0.008789062,0,1,2,0
2631.007,0.001031,0.03515625,-0.2578125,0.0234375,3.710938,-0.8515625,9,-0.01757812,-0.04882812,-0.001953125,-2.662109,-0.078125,0,-0.001220703,0.01403809,-0.2084961,-0.4450684,0,-0.2169189,0.8999939,4.068,-0.8499756,0,0,1,nan,2,0.097,1,0,0.4508362,0.9865723,1,0.4530945,-0.1123047,-0.008789062,0,1,2,0
2631.017,0.001009,-0.02734375,0.0703125,0.01953125,-0.4453125,-1.953125,8.523438,-0.02539062,-0.01757812,0.001953125,-2.662109,-0.07617188,0,-0.001464844,0.01379395,-0.2084961,-0.4450684,0,-0.2169189,0.8999939,4.068,-0.8499756,0,0,1,nan,2,0.107,1,0,0.425354,0.953064,1,0.4408264,-0.1152344,-0.008789062,0,1,2,0
2631.027,0.001009,0.0078125,-0.0078125,-0.00390625,-3.234375,1.765625,10.66406,-0.00390625,0.03515625,0.00390625,-2.660156,-0.078125,0,-0.001586914,0.01379395,-0.2084961,-0.4450684,0,-0.2169189,0.8999939,4.068,-0.8499756,0,0,1,nan,2,0.117,1,0,0.4008179,0.944397,1,0.4302063,-0.1171875,-0.009765625,0,1,2,0
2631.037,0.001009,-0.05664062,0.0625,-0.02734375,2.453125,2.539062,11.96094,-0.009765625,0.01757812,-0.01367188,-2.662109,-0.08007812,0,-0.001464844,0.01428223,-0.2084961,-0.4450684,0,-0.2169189,0.8999939,4.068,-0.8499756,0,0,1,nan,2,0.127,1,0,0.3949585,1,0.9721069,0.4707947,-0.1201172,-0.009765625,0,1,2,0
2631.048,0.001009,-0.015625,0.08203125,0.03125,1.367188,-3.015625,10.60156,-0.01171875,0.02929688,0,-2.662109,-0.078125,0,-0.001464844,0.01403809,-0.2086182,-0.4450684,0,-0.2169189,0.8999939,4.068,-0.8499756,0,0,1,nan,2,0.137,1,0,0.3922119,0.9069824,1,0.3991089,-0.1230469,-0.009765625,0,1,2,0
2631.058,0.001009,0.06640625,0.07617188,-0.00390625,-1.726562,-2.398438,10.4375,0.0234375,0.05859375,0.005859375,-2.662109,-0.08007812,0,-0.001464844,0.01416016,-0.2086182,-0.4450684,0,-0.2169189,0.8999939,4.068,-0.8499756,0,0,1,nan,2,0.147,1,0,0.3628845,0.9271851,1,0.3969116,-0.1259766,-0.009765625,0,1,2,0
2631.067,0.00101,0.1328125,0.04296875,-0.02734375,-0.9296875,0.9375,11.07812,0,0.03125,-0.009765625,-2.662109,-0.08203125,0,-0.001464844,0.01464844,-0.2086182,-0.4450684,0,-0.2169189,0.8999939,4.068,-0.8499756,0,0,1,nan,2,0.157,1,0,0.3780212,1,0.9881592,0.4488831,-0.1279297,-0.009765625,0,1,2,0
2631.077,0.001013,-0.03710938,-0.06054688,0.01367188,1.492188,-1.109375,8.242188,-0.02539062,0.00390625,-0.001953125,-2.660156,-0.0859375,0,-0.001586914,0.01525879,-0.2087402,-0.4450684,0,-0.2169189,0.8999939,4.068,-0.8499756,0,0,1,nan,2,0.167,1,0,0.4165344,0.9694214,1,0.4089355,-0.1308594,-0.009765625,0,1,2,0
2631.087,0.001005,-0.06835938,0.125,-0.005859375,-1.4375,-2.515625,7.804688,-0.015625,0.02929688,0.001953125,-2.662109,-0.0859375,0,-0.001464844,0.01525879,-0.2087402,-0.4450684,0,-0.2169189,0.8999939,4.068,-0.8499756,0,0,1,nan,2,0.177,1,0,0.3798218,0.9525452,1,0.4232483,-0.1337891,-0.009765625,0,1,2,0
2631.097,0.00101,-0.01757812,-0.001953125,0.00390625,3.03125,-0.09375,10.42969,0.001953125,0.01171875,-0.001953125,-2.660156,-0.0859375,0,-0.001708984,0.01525879,-0.2087402,-0.4450684,0,-0.2169189,0.8999939,4.068,-0.8499756,0,0,1,nan,2,0.187,1,0,0.3662415,0.9672241,1,0.4065247,-0.1357422,-0.009765625,0,1,2,0
2631.107,0.00101,0.08203125,0.00390625,0.01367188,2.296875,-2.351562,11.24219,0.02734375,0.03320312,0.01171875,-2.660156,-0.08789062,0,-0.001586914,0.015625,-0.2086182,-0.4450684,0,-0.2169189,0.8999939,4.068,-0.8499756,0,0,1,nan,2,0.197,1,0,0.3582458,0.9507446,1,0.3756714,-0.1386719,-0.009765625,0,1,2,0
2631.117,0.00101,0.08984375,-0.01171875,0.01171875,-3.992188,0.3515625,11.78125,0.00390625,0.009765625,0.005859375,-2.658203,-0.08789062,0,-0.001831055,0.01550293,-0.2086182,-0.4450684,0,-0.2169189,0.8999939,4.068,-0.8499756,0,0,1,nan,2,0.207,1,0,0.3476257,0.9493103,1,0.3693542,-0.1416016,-0.009765625,0,1,2,0
2631.127,0.00101,0.07617188,-0.05859375,0.02148438,-0.5703125,2.4375,9.445312,-0.01171875,-0.0625,-0.0078125,-2.658203,-0.08398438,0,-0.001953125,0.01513672,-0.2086182,-0.4450684,0,-0.2169189,0.8999939,4.068,-0.8499756,0,0,1,nan,2,0.217,1,0,0.3738708,0.9889832,1,0.3942871,-0.1445312,-0.01074219,0,1,2,0
2631.137,0.00101,-0.05664062,0.08789062,-0.03515625,3.296875,0.09375,10.10938,-0.02539062,0.046875,-0.00390625,-2.658203,-0.0859375,0,-0.001831055,0.01525879,-0.2084961,-0.4450684,0,-0.2169189,0.8999939,4.068,-0.8499756,0,0,1,nan,2,0.227,1,0,0.3510437,1,0.9995117,0.4555664,-0.1464844,-0.01074219,0,1,2,0
2631.148,0.001013,0.01367188,-0.08398438,-0.009765625,-1.179688,-3.445312,7.070312,0.00390625,0.01953125,-0.001953125,-2.660156,-0.0859375,0,-0.001831055,0.01550293,-0.2084961,-0.4450684,0,-0.2169189,0.8999939,4.068,-0.8499756,0,0,1,nan,2,0.237,1,0,0.3507996,0.9951172,1,0.4112854,-0.1494141,-0.01074219,0,1,2,0
2631.157,0.001028,-0.0078125,0.001953125,0.005859375,-1.695312,-1.34375,9.867188,0.015625,0.0078125,0.001953125,-2.660156,-0.0859375,0,-0.001708984,0.01550293,-0.2084961,-0.4450684,0,-0.2169189,0.8999939,4.068,-0.8499756,0,0,1,nan,2,0.005,1,0,0.3393555,0.9757385,1,0.3835144,-0.1523438,-0.01074219,0,1,2,0
2631.167,0.00101,0.09179688,0.08398438,0,1.734375,-0.59375,11.09375,0.0078125,0.09960938,0.01171875,-2.658203,-0.08984375,0,-0.002075195,0.01611328,-0.208374,-0.4450684,0,-0.2169189,0.8999939,4.068,-0.8499756,0,0,1,nan,2,0.015,1,0,0.2973938,0.9292603,1,0.3426819,-0.1542969,-0.01074219,0,1,2,0
2631.177,0.001012,0.1015625,0.05664062,0.0078125,1.1875,-0.828125,11.08594,0.04882812,-0.01757812,-0.0078125,-2.65625,-0.08984375,0,-0.002197266,0.01599121,-0.208374,-0.4450684,0,-0.2169189,0.8999939,4.068,-0.8499756,0,0,1,nan,2,0.025,1,0,0.3076172,0.9902649,1,0.3586426,-0.1572266,-0.01074219,0,1,2,0
2631.187,0.001012,0.0390625,0.140625,-0.01171875,-2.5,1.117188,10.6875,-0.01367188,-0.005859375,0.00390625,-2.658203,-0.09179688,0,-0.001953125,0.01635742,-0.208374,-0.4450684,0,-0.2169189,0.8999939,4.068,-0.8499756,0,0,1,nan,2,0.035,1,0,0.3453674,0.9790955,1,0.3714905,-0.1601562,-0.01074219,0,1,2,0
2631.197,0.001008,0.001953125,0.1601562,-0.0078125,3.257812,-1.195312,8.46875,-0.015625,0.06054688,-0.001953125,-2.658203,-0.09375,0,-0.001953125,0.01672363,-0.208374,-0.4450684,0,-0.2169189,0.8999939,4.068,-0.8499756,0,0,1,nan,2,0.045,1,0,0.3074646,0.955719,1,0.3745422,-0.1621094,-0.01074219,0,1,2,0
2631.207,0.00101,-0.04492188,-0.0859375,0.005859375,-0.2578125,-1.859375,8.328125,-0.0234375,0.01757812,-0.001953125,-2.658203,-0.09375,0,-0.002075195,0.01696777,-0.208374,-0.4450684,0,-0.2169189,0.8999939,4.068,-0.8499756,0,0,1,nan,2,0.056,1,0,0.3241272,0.9689636,1,0.3606567,-0.1650391,-0.01074219,0,1,2,0
2631.217,0.00101,0.06640625,0.1484375,0.0390625,-3.039062,0.1953125,10.32812,-0.001953125,0.009765625,0.01171875,-2.65625,-0.09375,0,-0.002319336,0.0168457,-0.208374,-0.4450684,0,-0.2169189,0.8999939,4.068,-0.8499756,0,0,1,nan,2,0.066,1,0,0.2945862,0.9180298,1,0.2998047,-0.1679688,-0.01171875,0,1,2,0
2631.227,0.00101,0.01757812,-0.1464844,-0.00390625,1.671875,1.601562,12.98438,-0.00390625,-0.02929688,0.0078125,-2.65625,-0.09570312,0,-0.002197266,0.01708984,-0.208252,-0.4450684,0,-0.2169189,0.8999939,4.068,-0.8499756,0,0,1,nan,2,0.076,1,0,0.3300476,0.9891052,1,0.3436279,-0.1708984,-0.01171875,0,1,2,0
2631.237,0.00101,-0.1796875,-0.1425781,-0.00390625,1.867188,-3.320312,7.773438,-0.0546875,-0.078125,0.005859375,-2.65625,-0.09375,0,-0.002319336,0.01660156,-0.208252,-0.4450684,0,-0.2169189,0.8999939,4.068,-0.8499756,0,0,1,nan,2,0.086,1,0,0.3535767,0.9756165,1,0.3452454,-0.1728516,-0.01171875,0,1,2,0
2631.248,0.00101,0.02539062,0.1953125,0.009765625,-2.523438,-0.2265625,8.960938,0.03320312,0.08984375,0.01367188,-2.65625,-0.09375,0,-0.002197266,0.01660156,-0.2081299,-0.4450684,0,-0.2169189,0.8999939,4.074,-0.8499756,0,0,1,nan,2,0.096,1,0,0.2370911,0.8865967,1,0.2867126,-0.1757812,-0.01171875,0,1,2,0
2631.258,0.00101,-0.08007812,-0.06640625,0.02734375,0.609375,2.195312,9.835938,-0.01367188,-0.00390625,0.005859375,-2.65625,-0.09375,0,-0.002197266,0.01672363,-0.2081299,-0.4450684,0,-0.2169189,0.8999939,4.074,-0.8499756,0,0,1,nan,2,0.106,1,0,0.3021545,0.9616089,1,0.3270264,-0.1787109,-0.01171875,0,1,2,0
2631.268,0.00101,0.05859375,-0.02929688,-0.001953125,-0.0625,-0.4609375,12.25781,0.0234375,0.1074219,0.00390625,-2.65625,-0.09375,0,-0.002441406,0.0168457,-0.2080078,-0.4450684,0,-0.2169189,0.8999939,4.074,-0.8499756,0,0,1,nan,2,0.116,1,0,0.2260437,0.9213562,1,0.2954712,-0.1816406,-0.01171875,0,1,2,0
2631.277,0.001009,-0.05078125,0.3085938,-0.01953125,-1.515625,0.9453125,9.109375,-0.02539062,0.1074219,-0.00390625,-2.65625,-0.09765625,0,-0.002441406,0.01733398,-0.2080078,-0.4450684,0,-0.2169189,0.8999939,4.074,-0.8499756,0,0,1,nan,2,0.125,1,0,0.2515259,0.963562,1,0.3601685,-0.1835938,-0.01171875,0,1,2,0
2631.287,0.000996,-0.03320312,-0.1269531,0.00390625,-1.492188,1.429688,9.484375,-0.015625,-0.1367188,0.001953125,-2.65625,-0.09570312,0,-0.002319336,0.01708984,-0.2080078,-0.4450684,0,-0.2169189,0.8999939,4.074,-0.8499756,0,0,1,nan,2,0.135,1,0,0.3129883,1,0.9734802,0.3026123,-0.1865234,-0.01171875,0,1,2,0
2631.297,0.001008,0.0703125,-0.02148438,-0.00390625,3.601562,2.507812,10.14844,0.02148438,-0.03125,0.01171875,-2.65625,-0.09179688,0,-0.002197266,0.01635742,-0.2078857,-0.4450684,0,-0.2169189,0.8999939,4.074,-0.8499756,0,0,1,nan,2,0.145,1,0,0.2535706,0.9398193,1,0.2785339,-0.1894531,-0.01171875,0,1,2,0
2631.307,0.00101,0.001953125,-0.08398438,-0.01171875,-2.34375,-0.8671875,8.914062,-0.01367188,-0.02734375,-0.0078125,-2.65625,-0.08984375,0,-0.002197266,0.01611328,-0.2078857,-0.4450684,0,-0.2169189,0.8999939,4.074,-0.8499756,0,0,1,nan,2,0.156,1,0,0.2675171,1,0.9946899,0.3350525,-0.1914062,-0.01171875,0,1,2,0
2631.317,0.00101,0.01953125,-0.02148438,-0.015625,-2.015625,3.515625,12.85156,0.02734375,0.02539062,0.009765625,-2.65625,-0.09375,0,-0.002319336,0.01660156,-0.2077637,-0.4450684,0,-0.2169189,0.8999939,4.074,-0.8499756,0,0,1,nan,2,0.166,1,0,0.2452698,0.9736328,1,0.280365,-0.1943359,-0.01171875,0,1,2,0
2631.327,0.00101,-0.06835938,0.01757812,-0.02734375,2.109375,0.8046875,15.76562,0.001953125,-0.06640625,-0.001953125,-2.65625,-0.09179688,0,-0.002319336,0.01647949,-0.2077637,-0.4450684,0,-0.2169189,0.8999939,4.074,-0.8499756,0,0,1,nan,2,0.176,1,0,0.2557678,1,0.9806213,0.3002319,-0.1972656,-0.01269531,0,1,2,0
2631.337,0.00101,0.02929688,-0.1523438,0.04101562,-1.546875,-2.140625,6.96875,0.05078125,-0.08203125,0.009765625,-2.65625,-0.09179688,0,-0.002319336,0.01647949,-0.2077637,-0.4450684,0,-0.2169189,0.8999939,4.074,-0.8499756,0,0,1,nan,2,0.186,1,0,0.2659302,0.9477234,1,0.204071,-0.2001953,-0.01269531,0,1,2,0
2631.348,0.00101,-0.09960938,-0.1132812,-0.02148438,-1.460938,0.9765625,8.632812,-0.03125,-0.1035156,-0.00390625,-2.65625,-0.08789062,0,-0.002319336,0.01574707,-0.2077637,-0.4450684,0,-0.2169189,0.8999939,4.074,-0.8499756,0,0,1,nan,2,0.196,1,0,0.2653503,1,0.9820557,0.2973328,-0.2021484,-0.01269531,0,1,2,0
2631.358,0.00102,-0.03515625,0.0703125,0.03320312,1.40625,1.976562,10.49219,0.001953125,-0.01953125,0.01171875,-2.65625,-0.0859375,0,-0.002319336,0.01525879,-0.2077637,-0.4450684,0,-0.2169189,0.8999939,4.074,-0.8499756,0,0,1,nan,2,0.206,1,0,0.223053,0.897644,1,0.2191162,-0.2050781,-0.01269531,0,1,2,0
2631.368,0.001011,-0.04101562,-0.00390625,-0.01367188,-0.90625,-0.53125,10.35156,-0.015625,-0.0390625,0.001953125,-2.65625,-0.08398438,0,-0.002319336,0.01501465,-0.2077637,-0.4450684,0,-0.2169189,0.8999939,4.074,-0.8499756,0,0,1,nan,2,0.216,1,0,0.2470703,0.9833984,1,0.2841797,-0.2080078,-0.01269531,0,1,2,0
2631.377,0.001006,-0.07421875,0.125,-0.03125,-3.109375,-0.921875,8.3125,-0.0703125,0.03515625,-0.01171875,-2.652344,-0.08398438,0,-0.002929688,0.01489258,-0.2076416,-0.4450684,0,-0.2169189,0.8999939,4.074,-0.8499756,0,0,1,nan,2,0.008,1,0,0.2145081,1,0.9977112,0.3352661,-0.2099609,-0.01269531,0,1,2,0
2631.387,0.00098,0.1074219,-0.05273438,0,2.234375,2.914062,11.67969,0.04492188,-0.00390625,-0.0078125,-2.650391,-0.08398438,0,-0.003173828,0.01501465,-0.2077637,-0.4450684,0,-0.2169189,0.8999939,4.074,-0.8499756,0,0,1,nan,2,0.018,1,0,0.1968689,0.9875793,1,0.2414856,-0.2128906,-0.01269531,0,1,2,0
2631.397,0.000997,-0.0859375,-0.1621094,-0.009765625,1.945312,-1.453125,8.789062,0,-0.015625,0,-2.652344,-0.0859375,0,-0.003051758,0.01525879,-0.2077637,-0.4450684,0,-0.2169189,0.8999939,4.074,-0.8499756,0,0,1,nan,2,0.028,1,0,0.2382202,0.9786377,1,0.2492676,-0.2158203,-0.01269531,0,1,2,0
2631.407,0.001009,-0.04101562,0.04296875,-0.0234375,-2.835938,-2.601562,8.992188,-0.009765625,-0.06054688,-0.009765625,-2.650391,-0.08007812,0,-0.003295898,0.0144043,-0.2077637,-0.4450684,0,-0.2169189,0.8999939,4.074,-0.8499756,0,0,1,nan,2,0.038,1,0,0.1899109,1,0.9812622,0.2789917,-0.2177734,-0.01269531,0,1,2,0
2631.417,0.001009,0.03320312,-0.0078125,0.02539062,1.140625,4.3125,13.5625,0.00390625,0.02929688,0.001953125,-2.650391,-0.08007812,0,-0.003173828,0.01428223,-0.2078857,-0.4450684,0,-0.2169189,0.8999939,4.074,-0.8499756,0,0,1,nan,2,0.048,1,0,0.1856079,0.8952637,1,0.1907654,-0.2207031,-0.01269531,0,1,2,0
2631.427,0.001009,-0.04882812,0.04882812,-0.00390625,-0.328125,2.875,12.67969,-0.03515625,0.06445312,-0.009765625,-2.650391,-0.08203125,0,-0.003295898,0.01477051,-0.2078857,-0.4450684,0,-0.2169189,0.8999939,4.074,-0.8499756,0,0,1,nan,2,0.059,1,0,0.1985474,0.9712524,1,0.2689819,-0.2236328,-0.01269531,0,1,2,0
2631.437,0.001009,-0.0390625,-0.005859375,0,-2.625,-1.109375,5.960938,-0.03515625,0.01953125,-0.0078125,-2.650391,-0.08203125,0,-0.003417969,0.01464844,-0.2080078,-0.4450684,0,-0.2169189,0.8999939,4.074,-0.8499756,0,0,1,nan,2,0.069,1,0,0.1980591,0.9567871,1,0.2429504,-0.2265625,-0.01269531,0,1,2,0
2631.448,0.001009,0.05273438,-0.05664062,0.01953125,0.546875,2.179688,10.71094,0.07421875,0.0234375,0.009765625,-2.650391,-0.0859375,0,-0.003173828,0.01538086,-0.2080078,-0.4450684,0,-0.2169189,0.8999939,4.074,-0.8499756,0,0,1,nan,2,0.079,1,0,0.1732483,0.9364014,1,0.1575928,-0.2285156,-0.01269531,0,1,2,0
2631.458,0.001009,-0.00390625,-0.3476562,-0.005859375,4.5,1.328125,8.445312,0.04101562,-0.1699219,0.01171875,-2.654297,-0.08398438,0,-0.002685547,0.01501465,-0.2077637,-0.4450684,0,-0.2169189,0.8999939,4.074,-0.8499756,0,0,1,nan,2,0.089,1,0,0.2045898,1,0.9443359,0.1684875,-0.2314453,-0.01367188,0,1,2,0
2631.467,0.00101,0.1152344,0.09179688,-0.01367188,0.40625,0.90625,9.945312,0.04882812,0.0390625,0.0078125,-2.65625,-0.08007812,0,-0.002319336,0.0144043,-0.2076416,-0.4450684,0,-0.2169189,0.8999939,4.074,-0.8499756,0,0,1,nan,2,0.098,1,0,0.1235352,0.9565735,1,0.2358398,-0.234375,-0.01367188,0,1,2,0
2631.477,0.001001,-0.005859375,0.08789062,-0.00390625,-3.382812,1.53125,10.29688,0.05859375,0.05078125,0.01171875,-2.660156,-0.08203125,0,-0.001586914,0.01452637,-0.2075195,-0.4450684,0,-0.2169189,0.8999939,4.074,-0.8499756,0,0,1,nan,2,0.108,1,0,0.144989,0.9292908,1,0.1932983,-0.2373047,-0.01367188,0,1,2,0
2631.487,0.001007,-0.07421875,0.1035156,-0.01171875,-0.8203125,-0.984375,9.25,-0.03125,0.08007812,-0.01171875,-2.660156,-0.08398438,0,-0.001708984,0.01489258,-0.2076416,-0.4450684,0,-0.2169189,0.8999939,4.074,-0.8499756,0,0,1,nan,2,0.118,1,0,0.1489563,0.9674377,1,0.2519226,-0.2392578,-0.01367188,0,1,2,0
2631.497,0.001006,-0.01367188,0.009765625,-0.04101562,3.171875,-2.304688,9.320312,-0.001953125,0.04101562,-0.005859375,-2.660156,-0.0859375,0,-0.001708984,0.01538086,-0.2076416,-0.4450684,0,-0.2169189,0.8999939,4.074,-0.8499756,0,0,1,nan,2,0.128,1,0,0.1541443,1,0.9933472,0.2372742,-0.2421875,-0.01367188,0,1,2,0
2631.507,0.00101,0.03125,-0.1445312,-0.0078125,-1.851562,-0.2578125,10.60156,0.03320312,-0.1054688,0.0078125,-2.660156,-0.0859375,0,-0.001708984,0.01525879,-0.2075195,-0.4450684,0,-0.2169189,0.8999939,4.074,-0.8499756,0,0,1,nan,2,0.138,1,0,0.1787109,1,0.9949036,0.1712341,-0.2451172,-0.01367188,0,1,2,0
2631.517,0.00101,-0.001953125,0.005859375,0.005859375,-0.953125,1.546875,7.789062,-0.046875,0.1015625,-0.00390625,-2.658203,-0.08789062,0,-0.001953125,0.015625,-0.2075195,-0.4450684,0,-0.2169189,0.8999939,4.074,-0.8499756,0,0,1,nan,2,0.148,1,0,0.1303711,0.9492798,1,0.214447,-0.2480469,-0.01367188,0,1,2,0
2631.527,0.00101,-0.06640625,0.1152344,-0.02148438,2.765625,2.28125,12.71875,-0.01171875,0.09570312,-0.0078125,-2.660156,-0.08984375,0,-0.001708984,0.01611328,-0.2076416,-0.4450684,0,-0.2169189,0.8999939,4.074,-0.8499756,0,0,1,nan,2,0.159,1,0,0.1228943,0.95755,1,0.2167053,-0.25,-0.01367188,0,1,2,0
2631.537,0.00101,0.046875,0.1738281,0.015625,-1.75,-1.6875,9.375,0.005859375,0.07226562,0.01171875,-2.658203,-0.09375,0,-0.001831055,0.0168457,-0.2076416,-0.4450684,0,-0.2169189,0.8999939,4.074,-0.8499756,0,0,1,nan,2,0.169,1,0,0.1138611,0.8923645,1,0.1165161,-0.2529297,-0.01367188,0,1,2,0
2631.548,0.00101,0.04882812,0.1269531,-0.01953125,-2.976562,-1.382812,9.710938,-0.01757812,0.09375,-0.01367188,-2.658203,-0.09765625,0,-0.001831055,0.01745605,-0.2076416,-0.4450684,0,-0.2169189,0.8999939,4.074,-0.8499756,0,0,1,nan,2,0.179,1,0,0.1122437,0.9778748,1,0.2184143,-0.2558594,-0.01464844,0,1,2,0
2631.558,0.00101,-0.00390625,-0.2636719,0.04296875,2.554688,2.75,9.804688,0,-0.08398438,0.01171875,-2.660156,-0.09960938,0,-0.001708984,0.0177002,-0.2076416,-0.4450684,0,-0.2169189,0.8999939,4.074,-0.8499756,0,0,1,nan,2,0.189,1,0,0.1813354,0.9448547,1,0.1004028,-0.2587891,-0.01464844,0,1,2,0
2631.567,0.001016,0.015625,0.2363281,-0.001953125,0.359375,-0.9375,11.61719,0.01953125,-0.015625,0.01757812,-2.660156,-0.09375,0,-0.001586914,0.0168457,-0.2075195,-0.4450684,0,-0.2169189,0.8999939,4.074,-0.8499756,0,0,1,nan,2,0.002,1,0,0.08612061,0.918396,1,0.1394958,-0.2607422,-0.01464844,0,1,2,0
2631.577,0.001023,0.0390625,-0.2226562,-0.02539062,1.15625,3.671875,11.52344,0.015625,-0.05273438,-0.015625,-2.662109,-0.09375,0,-0.001464844,0.0168457,-0.2075195,-0.4450684,0,-0.2169189,0.8999939,4.074,-0.8499756,0,0,1,nan,2,0.012,1,0,0.07131958,1,0.9355164,0.1627197,-0.2636719,-0.01464844,0,1,2,0
2631.587,0.000997,0.07617188,0.1152344,0.02148438,-3.65625,-3.210938,8.179688,0.03320312,-0.009765625,0.009765625,-2.662109,-0.09179688,0,-0.001220703,0.01660156,-0.2075195,-0.4450684,0,-0.2169189,0.8999939,4.074,-0.8499756,0,0,1,nan,2,0.022,1,0,0.0925293,0.8959961,1,0.08361816,-0.2666016,-0.01464844,0,1,2,0
2631.597,0.001006,-0.07617188,0.07617188,-0.02539062,-0.484375,0.0703125,8.101562,-0.07226562,0.01757812,-0.01171875,-2.662109,-0.09179688,0,-0.001220703,0.01647949,-0.2075195,-0.4450684,0,-0.2169189,0.8999939,4.074,-0.8499756,0,0,1,nan,2,0.032,1,0,0.1220398,1,0.9953003,0.2276306,-0.2685547,-0.01464844,0,1,2,0
2631.607,0.00101,0.1484375,0.2109375,0.01171875,1.273438,3.234375,10.52344,0.0234375,-0.02734375,0.00390625,-2.660156,-0.08789062,0,-0.001586914,0.01574707,-0.2075195,-0.4450684,0,-0.2169189,0.8999939,4.074,-0.8499756,0,0,1,nan,2,0.042,1,0,0.05093384,0.9299927,1,0.1047058,-0.2714844,-0.01464844,0,1,2,0
2631.617,0.00101,0.0546875,-0.1445312,0.009765625,0.59375,0.4921875,8.1875,0,-0.015625,0.001953125,-2.662109,-0.08984375,0,-0.001464844,0.01623535,-0.2075195,-0.4450684,0,-0.2169189,0.8999939,4.074,-0.8499756,0,0,1,nan,2,0.053,1,0,0.1123047,0.9675903,1,0.1148071,-0.2744141,-0.01464844,0,1,2,0
2631.627,0.00101,-0.2246094,-0.009765625,-0.01757812,-1.367188,-0.3828125,7.734375,-0.078125,0.04882812,-0.015625,-2.660156,-0.09570312,0,-0.001586914,0.01696777,-0.2076416,-0.4450684,0,-0.2169189,0.8999939,4.074,-0.8499756,0,0,1,nan,2,0.063,1,0,0.1317444,0.9959412,1,0.1931458,-0.2773438,-0.01464844,0,1,2,0
2631.637,0.00101,-0.07421875,0.1113281,0.0390625,0.9453125,3.304688,11.40625,-0.01171875,-0.00390625,0.01171875,-2.658203,-0.09570312,0,-0.001831055,0.01721191,-0.2076416,-0.4450684,0,-0.2169189,0.8999939,4.074,-0.8499756,0,0,1,nan,2,0.073,1,0,0.08618164,0.9012451,1,0.05856323,-0.2792969,-0.01464844,0,1,2,0
2631.648,0.00101,0.1210938,0.05273438,-0.005859375,2.546875,1.265625,9.898438,0.05273438,-0.001953125,0.01367188,-2.658203,-0.09765625,0,-0.001953125,0.01757812,-0.2075195,-0.4450684,0,-0.2169189,0.8999939,4.074,-0.8499756,0,0,1,nan,2,0.083,1,0,0.05471802,0.9526367,1,0.07156372,-0.2822266,-0.015625,0,1,2,0
2631.658,0.00101,0.02539062,0.05273438,-0.009765625,-2.960938,-2.539062,7.546875,0,0.04492188,-0.01171875,-2.658203,-0.1015625,0,-0.001953125,0.01806641,-0.2075195,-0.4450684,0,-0.2169189,0.8999939,4.074,-0.8499756,0,0,1,nan,2,0.093,1,0,0.06573486,0.9896851,1,0.1426697,-0.2851562,-0.015625,0,1,2,0
2631.668,0.00101,-0.01171875,-0.06054688,-0.02929688,-1.859375,-1.640625,8.734375,-0.02929688,-0.046875,-0.01367188,-2.65625,-0.1015625,0,-0.002197266,0.01806641,-0.2076416,-0.4450684,0,-0.2169189,0.8999939,4.074,-0.8499756,0,0,1,nan,2,0.103,1,0,0.05889893,1,0.9663696,0.1312561,-0.2880859,-0.015625,0,1,2,0
2631.677,0.001013,0.04101562,0.001953125,0.01171875,0.640625,4.703125,10.35938,-0.01367188,-0.04492188,-0.005859375,-2.65625,-0.09960938,0,-0.002319336,0.0177002,-0.2076416,-0.4450684,0,-0.2169189,0.8999939,4.074,-0.8499756,0,0,1,nan,2,0.112,1,0,0.06741333,0.9708252,1,0.1012573,-0.2900391,-0.015625,0,1,2,0
2631.687,0.001011,0.03320312,0.109375,0.0078125,2.898438,1.320312,12.53906,-0.04101562,-0.09765625,0.009765625,-2.652344,-0.09570312,0,-0.002807617,0.01721191,-0.2076416,-0.4450684,0,-0.2169189,0.8999939,4.074,-0.8499756,0,0,1,nan,2,0.122,1,0,0.07278442,0.9414368,1,0.06262207,-0.2929688,-0.015625,0,1,2,0
2631.697,0.001006,0.02929688,-0.1640625,-0.01367188,-3.085938,-2.367188,7.804688,0.03125,-0.04492188,-0.0078125,-2.652344,-0.09375,0,-0.002807617,0.01660156,-0.2076416,-0.4450684,0,-0.2169189,0.8999939,4.074,-0.8499756,0,0,1,nan,2,0.132,1,0,0.03240967,0.9736938,1,0.0899353,-0.2949219,-0.015625,0,1,2,0
2631.707,0.001011,-0.05078125,-0.1875,0.005859375,0.4375,1.085938,12.42969,-0.01953125,-0.08203125,0.00390625,-2.652344,-0.08984375,0,-0.002929688,0.01611328,-0.2076416,-0.4450684,0,-0.2169189,0.8999939,4.074,-0.8499756,0,0,1,nan,2,0.142,1,0,0.07949829,0.9720459,1,0.08145142,-0.2978516,-0.015625,0,1,2,0
2631.717,0.001022,-0.0859375,-0.1269531,0,-0.5703125,-2.289062,11.07031,0,-0.06835938,0.001953125,-2.654297,-0.0859375,0,-0.002807617,0.01538086,-0.2076416,-0.4450684,0,-0.2169189,0.8999939,4.074,-0.8499756,0,0,1,nan,2,0.153,1,0,0.05615234,0.9661865,1,0.08532715,-0.2998047,-0.015625,0,1,2,0
2631.727,0.000977,0.09570312,-0.1152344,-0.01171875,-2.75,-3.648438,9.320312,0.03125,-0.09375,0.009765625,-2.597656,-0.08007812,0,-0.002807617,0.01428223,-0.2075195,-0.4355469,0,-0.2169189,0.8999939,4.074,-0.8319092,0,0,1,nan,2,0.008,1,0,0.04794312,0.9627686,1,0.06668091,-0.2998047,-0.015625,0,1,2,0
2631.737,0.00098,0.01171875,0.03125,-0.02539062,2.609375,0.5703125,10.74219,0.05664062,-0.02734375,-0.0078125,-2.597656,-0.078125,0,-0.002563477,0.01391602,-0.2075195,-0.4355469,0,-0.2169189,0.8999939,4.074,-0.8319092,0,0,1,nan,2,0.018,1,0,0.02392578,1,0.9954834,0.1127319,-0.2998047,-0.015625,0,1,2,0
2631.747,0.000995,-0.09960938,0.00390625,0.02539062,1.820312,-0.3203125,8.382812,-0.01757812,-0.04101562,0.01367188,-2.599609,-0.07617188,0,-0.002319336,0.01342773,-0.2075195,-0.4355469,0,-0.2169189,0.8999939,4.074,-0.8319092,0,0,1,nan,2,0.028,1,0,0.07067871,0.9154358,1,0.05560303,-0.2998047,-0.015625,0,1,2,0
2631.758,0.001011,-0.02929688,0.2050781,-0.01171875,-3.929688,-0.7578125,10.58594,0.01953125,0.01171875,-0.009765625,-2.599609,-0.07617188,0,-0.002319336,0.01342773,-0.2075195,-0.4355469,0,-0.2169189,0.8999939,4.074,-0.8319092,0,0,1,nan,2,0.038,1,0,0.02001953,1,0.9949951,0.1378174,-0.2998047,-0.015625,0,1,2,0
2631.768,0.001012,0.046875,-0.3203125,0.005859375,0.09375,3.890625,13.32812,0.03125,-0.07617188,0,-2.599609,-0.07617188,0,-0.002197266,0.01367188,-0.2075195,-0.4355469,0,-0.2169189,0.8999939,4.074,-0.8319092,0,0,1,nan,2,0.048,1,0,0.07348633,1,0.9902954,0.06365967,-0.2998047,-0.015625,0,1,2,0
2631.777,0.000978,-0.05078125,0.203125,-0.03125,2.101562,-1.140625,11.32812,-0.001953125,0.04492188,-0.001953125,-2.144531,-0.07617188,0,-0.002319336,0.01330566,-0.2075195,-0.3598633,0,-0.2169189,0.8999939,4.074,-0.6872559,0,0,1,nan,2,0.006,1,0,0.1151733,0.9470215,1,0.2161255,-0.2998047,-0.015625,0,1,2,0
2631.787,0.001009,-0.0234375,-0.1035156,-0.01367188,0.6015625,-0.734375,8.429688,0.015625,0.01953125,-0.01757812,-2.146484,-0.078125,0,-0.002075195,0.01367188,-0.2076416,-0.3598633,0,-0.2169189,0.8999939,4.074,-0.6872559,0,0,1,nan,2,0.016,1,0,0.1090393,0.9794006,1,0.1669006,-0.2998047,-0.015625,0,1,2,0
2631.797,0.001025,0.1132812,-0.005859375,0.0078125,-2.53125,-0.5390625,9.914062,-0.009765625,0.04296875,-0.005859375,-2.144531,-0.078125,0,-0.002319336,0.01367188,-0.2077637,-0.3598633,0,-0.2169189,0.8999939,4.074,-0.6872559,0,0,1,nan,2,0.026,1,0,0.07403564,0.9162598,1,0.113739,-0.2998047,-0.015625,0,1,2,0
2631.807,0.00102,-0.00390625,0.08203125,0.0234375,3.054688,0.7421875,8.0625,-0.05078125,0.04492188,0.01367188,-2.144531,-0.08007812,0,-0.002563477,0.01403809,-0.2077637,-0.3598633,0,-0.2169189,0.8999939,4.074,-0.6872559,0,0,1,nan,2,0.036,1,0,0.1076355,0.9060059,1,0.1155396,-0.2998047,-0.01660156,0,1,2,0
2631.817,0.001011,-0.08984375,0.06835938,-0.04101562,-2.640625,-0.40625,9.234375,-0.08007812,0.05859375,-0.009765625,-2.142578,-0.08203125,0,-0.002807617,0.01416016,-0.2076416,-0.3598633,0,-0.2169189,0.8999939,4.074,-0.6872559,0,0,1,nan,2,0.046,1,0,0.09869385,0.9912415,1,0.234436,-0.2998047,-0.01660156,0,1,2,0
2631.827,0.000966,-0.1855469,0.3203125,-0.0546875,-2.203125,-1.671875,9.9375,-0.05664062,0.1367188,-0.03125,-1.601562,-0.0859375,0,-0.002807617,0.01464844,-0.2077637,-0.2698975,0,-0.2169189,0.8999939,4.074,-0.5154419,0,0,1,nan,2,0.008,1,0,0.1691589,1,0.9927979,0.3693237,-0.2998047,-0.01660156,0,1,2,0
2631.837,0.001027,0.02929688,0.09960938,0.00390625,1.96875,0.1796875,12.35938,0.0546875,0.02539062,0.001953125,-1.601562,-0.08789062,0,-0.002807617,0.01489258,-0.2078857,-0.2698975,0,-0.2169189,0.8999939,4.074,-0.5154419,0,0,1,nan,2,0.018,1,0,0.1398926,0.9041443,1,0.1436462,-0.2998047,-0.01660156,0,1,2,0
2631.848,0.000989,0.06640625,0.005859375,-0.02539062,2.757812,-2.335938,9.382812,-0.02148438,-0.00390625,-0.0234375,-1.599609,-0.08789062,0,-0.003173828,0.01501465,-0.2080078,-0.2698975,0,-0.2169189,0.8999939,4.074,-0.5154419,0,0,1,nan,2,0.028,1,0,0.1340027,1,0.9692688,0.2467957,-0.2998047,-0.01660156,0,1,2,0
2631.858,0.001009,0.046875,0.04492188,-0.01757812,-2.945312,-1.359375,10.96094,-0.02929688,0,-0.0078125,-1.597656,-0.08789062,0,-0.003662109,0.01501465,-0.2080078,-0.2698975,0,-0.2169189,0.8999939,4.074,-0.5154419,0,0,1,nan,2,0.038,1,0,0.161377,0.973114,1,0.221283,-0.2998047,-0.01660156,0,1,2,0
2631.867,0.001047,0.04101562,-0.05664062,0.03710938,-2.695312,0.734375,12.34375,-0.04101562,-0.0625,0.005859375,-1.595703,-0.08398438,0,-0.00390625,0.0144043,-0.2081299,-0.2698975,0,-0.2169189,0.8999939,4.074,-0.5154419,0,0,1,nan,2,0.048,1,0,0.1755371,0.9080811,1,0.157959,-0.2998047,-0.01660156,0,1,2,0
2631.877,0.00099,0.09960938,-0.1621094,0.03710938,1.851562,1.640625,10.92188,0.0390625,-0.03125,0.02539062,-0.9726562,-0.08398438,0,-0.00378418,0.01416016,-0.2078857,-0.1657715,0,-0.2169189,0.8999939,4.074,-0.3164673,0,0,1,nan,2,0.003,1,0,0.3612366,0.928894,1,0.3558655,-0.2998047,-0.01660156,0,1,2,0
2631.887,0.001011,0.01171875,0.05273438,-0.02929688,4.25,1.445312,8.65625,0.009765625,0.02539062,-0.01953125,-0.9726562,-0.08398438,0,-0.003540039,0.01403809,-0.2078857,-0.1657715,0,-0.2169189,0.8999939,4.074,-0.3164673,0,0,1,nan,2,0.013,1,0,0.2360229,1,0.9953918,0.3566589,-0.2998047,-0.01660156,0,1,2,0
2631.897,0.001,0.04492188,-0.01171875,0.00390625,1.085938,-0.28125,8.914062,0.02929688,0.00390625,-0.005859375,-0.9746094,-0.08398438,0,-0.003295898,0.01416016,-0.2081299,-0.1657715,0,-0.2169189,0.8999939,4.07,-0.3164673,0,0,1,nan,2,0.023,1,0,0.2349548,0.9221191,1,0.2426147,-0.2998047,-0.01660156,0,1,2,0
2631.907,0.001048,0.1328125,-0.125,0.02734375,-2.414062,-4.140625,8.09375,0.015625,-0.005859375,-0.005859375,-0.9726562,-0.08789062,0,-0.003417969,0.01477051,-0.208252,-0.1657715,0,-0.2169189,0.8999939,4.07,-0.3164673,0,0,1,nan,2,0.033,1,0,0.2501221,0.9403076,1,0.2298584,-0.2998047,-0.01757812,0,1,2,0
2631.917,0.000989,-0.1660156,0.08398438,0.0078125,-0.171875,2.367188,10.33594,-0.0625,0.04296875,0.01367188,-0.9726562,-0.08984375,0,-0.003540039,0.01513672,-0.208252,-0.1657715,0,-0.2169189,0.8999939,4.07,-0.3164673,0,0,1,nan,2,0.043,1,0,0.2569885,0.889801,1,0.2524109,-0.2998047,-0.01757812,0,1,2,0
2631.927,0.000997,-0.005859375,-0.1132812,-0.01757812,1.867188,5.367188,12.14844,-0.0234375,0.05859375,-0.009765625,-0.5996094,-0.09765625,0,-0.004150391,0.01623535,-0.208252,-0.104126,0,-0.2169189,0.8999939,4.07,-0.1989136,0,0,1,nan,2,0.006,1,0,0.3018799,1,0.976593,0.3971558,-0.2998047,-0.01757812,0,1,2,0
2631.938,0.001019,-0.04882812,-0.1132812,0.009765625,1.171875,2.132812,11.82031,0,-0.01757812,-0.01171875,-0.5996094,-0.09570312,0,-0.004272461,0.01586914,-0.208374,-0.104126,0,-0.2169189,0.8999939,4.07,-0.1989136,0,0,1,nan,2,0.016,1,0,0.2869568,0.9577026,1,0.3298035,-0.2998047,-0.01757812,0,1,2,0
2631.948,0.001011,0.09375,0.02929688,0.015625,-1.664062,-2.679688,10.01562,0.04492188,-0.02539062,0.0078125,-0.5976562,-0.09570312,0,-0.004638672,0.01586914,-0.208374,-0.104126,0,-0.2169189,0.8999939,4.07,-0.1989136,0,0,1,nan,2,0.026,1,0,0.2561646,0.9264526,1,0.2544556,-0.2998047,-0.01757812,0,1,2,0
2631.958,0.00101,0.02734375,-0.01757812,-0.015625,-1.367188,-2.390625,7.429688,0.01953125,0.00390625,-0.009765625,-0.5996094,-0.09179688,0,-0.004150391,0.01538086,-0.208374,-0.104126,0,-0.2169189,0.8999939,4.07,-0.1989136,0,0,1,nan,2,0.036,1,0,0.269165,0.968811,1,0.3647156,-0.2998047,-0.01757812,0,1,2,0
2631.968,0.001001,0.07226562,0.04492188,0.01953125,-0.0703125,2.09375,12.82031,0.01757812,-0.015625,0.009765625,-0.6015625,-0.08789062,0,-0.00402832,0.01464844,-0.208374,-0.104126,0,-0.2169189,0.8999939,4.07,-0.1989136,0,0,1,nan,2,0.046,1,0,0.2573242,0.9119873,1,0.299408,-0.2998047,-0.01757812,0,1,2,0
2631.977,0.001038,0.05273438,-0.3105469,0.005859375,0.8515625,0.1640625,10.10938,0.02148438,-0.1269531,-0.01171875,-0.4589844,-0.0859375,0,-0.00390625,0.01416016,-0.208252,-0.08044434,0,-0.2169189,0.8999939,4.07,-0.1537476,0,0,1,nan,2,0.006,1,0,0.3123474,1,0.9576721,0.350708,-0.2998047,-0.01757812,0,1,2,0.06349207
2631.987,0.001013,0.0546875,0.125,0.03515625,1.554688,0.125,9.398438,0.01171875,0.015625,0.015625,-0.4589844,-0.08398438,0,-0.00390625,0.01403809,-0.208374,-0.08044434,0,-0.2169189,0.8999939,4.07,-0.1537476,0,0,1,nan,2,0.016,1,0,0.2756653,0.8526917,1,0.2546082,-0.2998047,-0.01757812,0,1,2,0.0952381
2631.997,0.001006,0.04492188,-0.07421875,0,-0.484375,-0.0546875,7.585938,-0.0078125,0.1152344,-0.005859375,-0.4609375,-0.08984375,0,-0.00378418,0.01513672,-0.208252,-0.08044434,0,-0.2169189,0.8999939,4.07,-0.1537476,0,0,1,nan,2,0.026,1,0,0.2850342,0.980835,1,0.3951111,-0.2998047,-0.01757812,0,1,2,0
2632.007,0.001004,0.0078125,0.1796875,-0.005859375,-3.257812,0.390625,10.11719,0.001953125,0.09960938,0.005859375,-0.4609375,-0.09570312,0,-0.00378418,0.01586914,-0.208252,-0.08044434,0,-0.2169189,0.8999939,4.07,-0.1537476,0,0,1,nan,2,0.036,1,0,0.2793274,0.9273987,1,0.3396606,-0.2998047,-0.01855469,0,1,2,0
2632.017,0.001009,-0.04296875,-0.2578125,0.0390625,1.226562,2.84375,11.47656,0.02148438,-0.08984375,0.0234375,-0.375,-0.09765625,0,-0.003662109,0.01623535,-0.2081299,-0.06628418,0,-0.2169189,0.8999939,4.07,-0.1265869,0,0,1,nan,2,0.003,1,0,0.3771362,0.9333801,1,0.2907715,-0.2998047,-0.01855469,0,1,2,0
2632.027,0.00101,0.109375,0.009765625,-0.03515625,0.78125,2.609375,14.21094,0.06835938,-0.046875,-0.0078125,-0.375,-0.09179688,0,-0.003662109,0.01538086,-0.2080078,-0.06628418,0,-0.2169189,0.8999939,4.07,-0.1265869,0,0,1,nan,2,0.013,1,0,0.2489624,1,0.9744263,0.374939,-0.2998047,-0.01855469,0,1,2,0
2632.037,0.00101,0.046875,0.2148438,0.00390625,-1.046875,-0.5390625,11.07031,0.009765625,0.03320312,-0.015625,-0.3769531,-0.08789062,0,-0.003417969,0.01477051,-0.208252,-0.06628418,0,-0.2169189,0.8999939,4.07,-0.1265869,0,0,1,nan,2,0.023,1,0,0.2685242,0.9165955,1,0.3585815,-0.2998047,-0.01855469,0,1,2,0
2632.048,0.001022,0.01367188,0.2832031,0.015625,-2.6875,-1.101562,10.49219,-0.02929688,0.09375,0.009765625,-0.3769531,-0.09179688,0,-0.003417969,0.01550293,-0.208252,-0.06628418,0,-0.2169189,0.8999939,4.07,-0.1265869,0,0,1,nan,2,0.033,1,0,0.2843323,0.8708496,1,0.3245544,-0.2998047,-0.01855469,0,1,2,0
2632.058,0.00101,0.0078125,-0.0078125,0.0078125,3.75,1.390625,9.570312,0.005859375,0.03320312,0.009765625,-0.3769531,-0.09765625,0,-0.003540039,0.01623535,-0.2081299,-0.06628418,0,-0.2169189,0.8999939,4.07,-0.1265869,0,0,1,nan,2,0.043,1,0,0.3092041,0.9503784,1,0.3362732,-0.2998047,-0.01855469,0,1,2,0
2632.068,0.00101,0.07226562,-0.1347656,0.01367188,0.8203125,-1.03125,8.0625,0.0078125,-0.03515625,0.0078125,-0.3769531,-0.09570312,0,-0.003540039,0.01599121,-0.2080078,-0.06628418,0,-0.2169189,0.8999939,4.07,-0.1265869,0,0,1,nan,2,0.054,1,0,0.3140259,0.9741211,1,0.3617859,-0.2998047,-0.01855469,0,1,2,0
2632.077,0.00101,-0.02929688,0.1464844,-0.00390625,-2.65625,-1.289062,8.5,-0.0078125,0.07421875,0.001953125,-0.3769531,-0.09765625,0,-0.003295898,0.01623535,-0.2080078,-0.06628418,0,-0.2169189,0.8999939,4.07,-0.1265869,0,0,1,nan,2,0.063,1,0,0.2850342,0.9438782,1,0.3829041,-0.2998047,-0.01855469,0,1,2,0
2632.087,0.001018,-0.03320312,-0.2226562,0.01953125,-2.007812,-1.515625,6.5,-0.02929688,-0.09765625,0.01757812,-0.3769531,-0.09765625,0,-0.003295898,0.01623535,-0.2078857,-0.06628418,0,-0.2169189,0.8999939,4.07,-0.1265869,0,0,1,nan,2,0.073,1,0,0.3681641,0.9458923,1,0.3199158,-0.2998047,-0.01855469,0,1,2,0
2632.097,0.000999,0.08398438,0.02539062,0.005859375,1.40625,3.070312,11.36719,-0.005859375,0.02929688,-0.00390625,-0.3789062,-0.09570312,0,-0.003295898,0.01586914,-0.2078857,-0.06628418,0,-0.2169189,0.8999939,4.07,-0.1265869,0,0,1,nan,2,0.083,1,0,0.2880554,0.9456177,1,0.3746643,-0.2998047,-0.01855469,0,1,2,0
2632.107,0.000993,-0.1425781,-0.05664062,0.01367188,0.84375,1.117188,10.53125,0.01953125,-0.0625,0.00390625,-0.3789062,-0.09570312,0,-0.003173828,0.01599121,-0.2078857,-0.06628418,0,-0.2169189,0.8999939,4.07,-0.1265869,0,0,1,nan,2,0.093,1,0,0.3377991,0.9549866,1,0.3261108,-0.2998047,-0.01953125,0,1,2,0
2632.117,0.00104,-0.08007812,0.0859375,0.00390625,-1.28125,2.367188,11.15625,-0.02148438,0.08984375,0.0078125,-0.3769531,-0.09765625,0,-0.003417969,0.01623535,-0.2080078,-0.06628418,0,-0.2169189,0.8999939,4.07,-0.1265869,0,0,1,nan,2,0.103,1,0,0.2771912,0.891571,1,0.3383179,-0.2998047,-0.01953125,0,1,2,0
2632.127,0.000978,0.04101562,0.109375,-0.03515625,0.796875,0.078125,10.97656,0,0.001953125,-0.015625,-0.3476562,-0.09960938,0,-0.003540039,0.01647949,-0.2080078,-0.06152344,0,-0.2169189,0.8999939,4.07,-0.1175537,0,0,1,nan,2,0.008,1,0,0.2820435,1,0.9758606,0.401886,-0.2998047,-0.01953125,0,1,2,0
2632.137,0.00101,0.1230469,-0.09179688,0.005859375,-0.5078125,-2.242188,8.351562,0.02929688,-0.08789062,0.001953125,-0.3476562,-0.09765625,0,-0.003540039,0.01635742,-0.2080078,-0.06152344,0,-0.2169189,0.8999939,4.07,-0.1175537,0,0,1,nan,2,0.018,1,0,0.3257141,0.9694214,1,0.3240051,-0.2998047,-0.01953125,0,1,2,0
2632.147,0.00101,0.0234375,-0.06835938,0.03320312,-1.648438,-0.53125,8.351562,-0.009765625,-0.04101562,0.01953125,-0.3476562,-0.09570312,0,-0.003540039,0.01599121,-0.2078857,-0.06152344,0,-0.2169189,0.8999939,4.07,-0.1175537,0,0,1,nan,2,0.028,1,0,0.3230286,0.8968201,1,0.2940369,-0.2998047,-0.01953125,0,1,2,0
2632.158,0.001016,0.07617188,-0.06640625,0.03515625,1.828125,1.3125,7.835938,0.0078125,-0.02929688,0.01367188,-0.3476562,-0.09570312,0,-0.003662109,0.01586914,-0.2078857,-0.06152344,0,-0.2169189,0.8999939,4.07,-0.1175537,0,0,1,nan,2,0.038,1,0,0.308197,0.9133301,1,0.3022461,-0.2998047,-0.01953125,0,1,2,0
2632.168,0.001004,0.01757812,0.0234375,-0.01367188,1.46875,-0.4375,9.726562,0.02929688,0.0078125,-0.005859375,-0.3496094,-0.09375,0,-0.003417969,0.01574707,-0.2078857,-0.06152344,0,-0.2169189,0.8999939,4.07,-0.1175537,0,0,1,nan,2,0.048,1,0,0.2965698,0.9655762,1,0.3773804,-0.2998047,-0.01953125,0,1,2,0.3650794
2632.177,0.001005,-0.07421875,0.06835938,-0.04296875,-3.210938,-1.039062,7.59375,-0.04492188,0.01367188,-0.01757812,-0.3496094,-0.09375,0,-0.003295898,0.01574707,-0.2078857,-0.06152344,0,-0.2169189,0.8999939,4.07,-0.1175537,0,0,1,nan,2,0.058,1,0,0.3233948,0.9933167,1,0.4361267,-0.2998047,-0.01953125,0,1,2,0
2632.187,0.001007,0.05078125,0.0546875,-0.01367188,-0.671875,0.9921875,12.05469,-0.009765625,0.00390625,-0.00390625,-0.3476562,-0.09765625,0,-0.003662109,0.01623535,-0.2080078,-0.06152344,0,-0.2169189,0.8999939,4.07,-0.1175537,0,0,1,nan,2,0.068,1,0,0.3147888,0.9526978,1,0.3457642,-0.2998047,-0.01953125,0,1,2,0
2632.197,0.000985,0.05664062,0.01171875,0.0234375,2.265625,-0.21875,11.89844,-0.009765625,-0.0078125,0.009765625,-0.3457031,-0.09765625,0,-0.00378418,0.01635742,-0.2080078,-0.06152344,0,-0.2169189,0.8999939,4.07,-0.1175537,0,0,1,nan,2,0.078,1,0,0.3014832,0.9098511,1,0.3159485,-0.2998047,-0.01953125,0,1,2,0
2632.207,0.00102,0.05664062,0.0390625,0.001953125,0.15625,-3.710938,3.945312,-0.02929688,-0.02734375,-0.0078125,-0.3457031,-0.09570312,0,-0.00378418,0.01586914,-0.2080078,-0.06152344,0,-0.2169189,0.8999939,4.07,-0.1175537,0,0,1,nan,2,0.088,1,0,0.3157043,0.9560242,1,0.3772583,-0.2998047,-0.02050781,0,1,2,0
2632.217,0.00099,0.0703125,-0.0390625,-0.02734375,1.5,0.5703125,7.132812,-0.01367188,0.1152344,-0.009765625,-0.3457031,-0.09960938,0,-0.00378418,0.01660156,-0.2081299,-0.06152344,0,-0.2169189,0.8999939,4.07,-0.1175537,0,0,1,nan,2,0.098,1,0,0.2827148,0.9468994,1,0.3892212,-0.2998047,-0.02050781,0,1,2,0
2632.227,0.000995,-0.06835938,0.06640625,0.009765625,1.945312,-0.3515625,11.875,0.009765625,-0.01953125,-0.005859375,-0.2910156,-0.09960938,0,-0.003662109,0.01672363,-0.2081299,-0.05212402,0,-0.2169189,0.8999939,4.07,-0.0994873,0,0,1,nan,2,0,1,0,0.3511963,0.9762573,1,0.403717,-0.2998047,-0.02050781,0,1,2,0
2632.237,0.001011,0.04882812,-0.09765625,0.02734375,-3.242188,-0.484375,8.882812,0.08984375,-0.0234375,0.0078125,-0.2929688,-0.09960938,0,-0.003295898,0.01672363,-0.2081299,-0.05212402,0,-0.2169189,0.8999939,4.07,-0.0994873,0,0,1,nan,2,0.01,1,0,0.3019714,0.9147949,1,0.2917175,-0.2998047,-0.02050781,0,1,2,0.03174603
2632.247,0.000971,0.07226562,0.01171875,0.01171875,-0.71875,0.984375,10.40625,0.02734375,0,0.001953125,-0.2929688,-0.1015625,0,-0.003173828,0.01708984,-0.2081299,-0.05212402,0,-0.2169189,0.8999939,4.07,-0.0994873,0,0,1,nan,2,0.02,1,0,0.3114929,0.9240112,1,0.3220825,-0.2998047,-0.02050781,0,1,2,0
2632.258,0.001011,0.07617188,-0.1542969,-0.01171875,3.8125,0.1484375,12.53125,-0.00390625,-0.01757812,0.00390625,-0.2929688,-0.1015625,0,-0.003295898,0.01708984,-0.2081299,-0.05212402,0,-0.2169189,0.8999939,4.07,-0.0994873,0,0,1,nan,2,0.03,1,0,0.3231201,0.9528809,1,0.3496399,-0.2998047,-0.02050781,0,1,2,0
2632.268,0.001012,0.1230469,0.1191406,0.01953125,1.265625,-2.882812,8.609375,0.03125,-0.009765625,0.01367188,-0.2929688,-0.09960938,0,-0.003173828,0.01647949,-0.2080078,-0.05212402,0,-0.2169189,0.8999939,4.07,-0.0994873,0,0,1,nan,2,0.04,1,0,0.2816162,0.9156494,1,0.3349304,-0.2998047,-0.02050781,0,1,2,0
2632.277,0.000998,0.01757812,0.01367188,0.04101562,-1.804688,-1.179688,7.9375,-0.01367188,0.01953125,0.01171875,-0.265625,-0.09960938,0,-0.003173828,0.01660156,-0.2080078,-0.04736328,0,-0.2169189,0.8999939,4.07,-0.0904541,0,0,1,nan,2,0.005,1,0,0.3126526,0.904541,1,0.3450012,-0.2998047,-0.02050781,0,1,2,0
2632.287,0.001042,-0.05078125,-0.06054688,-0.01171875,-2.617188,-2.15625,5.304688,-0.03710938,0.0390625,-0.01171875,-0.2636719,-0.1035156,0,-0.003295898,0.01721191,-0.2080078,-0.04736328,0,-0.2169189,0.8999939,4.07,-0.0904541,0,0,1,nan,2,0.015,1,0,0.3315735,0.9714661,1,0.4048767,-0.2998047,-0.02050781,0,1,2,0
2632.297,0.000998,0.005859375,-0.04296875,0.02148438,-0.4140625,0.1015625,7.382812,0.0234375,0.0234375,-0.0078125,-0.265625,-0.1054688,0,-0.002929688,0.01745605,-0.2081299,-0.04736328,0,-0.2169189,0.8999939,4.07,-0.0904541,0,0,1,nan,2,0.025,1,0,0.3177795,0.93573,1,0.3569641,-0.2998047,-0.02148438,0,1,2,0
2632.307,0.00104,-0.07421875,0.0703125,-0.046875,2.71875,2.390625,10.0625,-0.04492188,0.0625,-0.01757812,-0.265625,-0.1054688,0,-0.002929688,0.01757812,-0.2081299,-0.04736328,0,-0.2169189,0.8999939,4.07,-0.0904541,0,0,1,nan,2,0.035,1,0,0.3164368,0.9877319,1,0.4592896,-0.2998047,-0.02148438,0,1,2,0
2632.317,0.001002,0.04296875,-0.04882812,-0.009765625,-1.515625,0.015625,10.82812,0.03515625,0.02539062,-0.009765625,-0.2695312,-0.1074219,0,-0.002441406,0.01806641,-0.208252,-0.04736328,0,-0.2169189,0.8999939,4.07,-0.0904541,0,0,1,nan,2,0.045,1,0,0.3140564,0.9578247,1,0.3766785,-0.2998047,-0.02148438,0,1,2,0
2632.327,0.001001,-0.1035156,0.015625,0.01171875,-3.351562,-2.8125,8.0625,-0.05273438,0.0546875,-0.001953125,-0.2128906,-0.1132812,0,-0.002441406,0.01879883,-0.208374,-0.0378418,0,-0.2169189,0.8999939,4.07,-0.07232666,0,0,1,nan,2,0.006,1,0,0.3529053,0.9323425,1,0.3987732,-0.2998047,-0.02148438,0,1,2,0
2632.337,0.001009,-0.09179688,-0.01171875,0.005859375,-0.6484375,1.984375,9.875,0.0078125,-0.06054688,0.01171875,-0.2128906,-0.109375,0,-0.002319336,0.01831055,-0.208252,-0.0378418,0,-0.2169189,0.8999939,4.07,-0.07232666,0,0,1,nan,2,0.016,1,0,0.3322449,0.9348145,1,0.358429,-0.2998047,-0.02148438,0,1,2,0.1111111
2632.348,0.001015,0.046875,-0.0078125,0.03320312,3.789062,2.773438,13.52344,0.02734375,-0.0546875,0.01953125,-0.2128906,-0.109375,0,-0.002563477,0.01818848,-0.2081299,-0.0378418,0,-0.2169189,0.8999939,4.07,-0.07232666,0,0,1,nan,2,0.026,1,0,0.3269348,0.9168396,1,0.309845,-0.2998047,-0.02148438,0,1,2,0
2632.358,0.001054,0.05859375,0.03320312,0.01171875,0.7265625,-2.851562,9.804688,0.0234375,0.01757812,0.005859375,-0.2109375,-0.109375,0,-0.002563477,0.01831055,-0.2081299,-0.0378418,0,-0.2169189,0.8999939,4.07,-0.07232666,0,0,1,nan,2,0.036,1,0,0.29245,0.9107056,1,0.3352661,-0.2998047,-0.02148438,0,1,2,0.06349207
2632.367,0.001003,0.09179688,-0.1757812,0.02929688,-2.203125,-0.4140625,8.109375,0.01171875,-0.05664062,0.001953125,-0.2109375,-0.1113281,0,-0.002807617,0.01867676,-0.2081299,-0.0378418,0,-0.2169189,0.8999939,4.07,-0.07232666,0,0,1,nan,2,0.045,1,0,0.3470154,0.9729004,1,0.3443909,-0.2998047,-0.02246094,0,1,2,0
2632.377,0.000976,-0.1914062,0.01757812,-0.01367188,-3.53125,-1.4375,8,-0.078125,0.01757812,0.001953125,-0.1796875,-0.1113281,0,-0.003051758,0.01843262,-0.2080078,-0.03320312,0,-0.2169189,0.8999939,4.07,-0.06329346,0,0,1,nan,2,0.003,1,0,0.3467407,0.9478149,1,0.4311218,-0.2998047,-0.02246094,0,1,2,0
2632.387,0.001004,0.0859375,0.1152344,-0.009765625,0.5078125,2.382812,12.92188,0.05859375,0.0078125,0.00390625,-0.1777344,-0.109375,0,-0.003540039,0.01806641,-0.2080078,-0.03320312,0,-0.2169189,0.8999939,4.07,-0.06329346,0,0,1,nan,2,0.013,1,0,0.2635803,0.9200745,1,0.3312073,-0.2998047,-0.02246094,0,1,2,0
2632.397,0.001018,0.07226562,0.07617188,0.0078125,2.328125,0.421875,12.32812,0.00390625,0.01367188,0.00390625,-0.1777344,-0.109375,0,-0.003417969,0.01818848,-0.2080078,-0.03320312,0,-0.2169189,0.8999939,4.07,-0.06329346,0,0,1,nan,2,0.023,1,0,0.3101501,0.9235535,1,0.3606873,-0.2998047,-0.02246094,0,1,2,0
2632.407,0.000991,0.06640625,0.07617188,-0.01171875,-1.179688,-2.71875,7.132812,0,0.06640625,-0.0078125,-0.1757812,-0.1132812,0,-0.003662109,0.0189209,-0.2081299,-0.03320312,0,-0.2169189,0.8999939,4.07,-0.06329346,0,0,1,nan,2,0.033,1,0,0.3010559,0.9419861,1,0.3804626,-0.2998047,-0.02246094,0,1,2,0
2632.417,0.00101,0.00390625,-0.01757812,-0.02539062,-0.6640625,0.453125,11.08594,0.0234375,-0.0546875,-0.001953125,-0.1796875,-0.1132812,0,-0.003051758,0.0189209,-0.2081299,-0.03320312,0,-0.2169189,0.8999939,4.07,-0.06329346,0,0,1,nan,2,0.043,1,0,0.3500366,0.9794922,1,0.3960266,-0.2998047,-0.02246094,0,1,2,0
2632.433,0.005431,-0.1425781,-0.06835938,-0.001953125,1.273438,-1.1875,12.71094,-0.1132812,-0.03320312,-0.00390625,-0.1777344,-0.1132812,0,-0.003662109,0.0189209,-0.208252,-0.03320312,0,-0.2169189,0.8999939,4.07,-0.06329346,0,0,1,nan,2,0.058,1,128,0.3485107,0.9452209,1,0.4199219,-0.2998047,-0.02246094,0,1,2,0
2632.437,0.001009,-0.07617188,-0.1894531,0.015625,-0.734375,-2.046875,7.742188,-0.05078125,-0.078125,0.01171875,-0.1757812,-0.1113281,0,-0.00390625,0.01867676,-0.208252,-0.03320312,0,-0.2169189,0.8999939,4.07,-0.06329346,0,0,1,nan,2,0.064,1,128,0.3501282,0.9248962,1,0.3413696,-0.2998047,-0.02246094,0,1,2,0
2632.448,0.001027,-0.01953125,0.1640625,-0.01367188,-2.203125,0.5390625,10.73438,-0.03125,0.09570312,0,-0.1464844,-0.109375,0,-0.00402832,0.01806641,-0.2081299,-0.02844238,0,-0.2169189,0.8999939,4.07,-0.05426025,0,0,1,nan,2,0.006,1,128,0.2699585,0.8962708,1,0.4181824,-0.2998047,-0.02246094,0,1,2,0
2632.458,0.001014,0.03125,-0.1289062,0.0234375,0.71875,1.875,9.914062,0.02148438,0.03125,0,-0.1464844,-0.1132812,0,-0.00402832,0.01879883,-0.208252,-0.02844238,0,-0.2169189,0.8999939,4.07,-0.05426025,0,0,1,nan,2,0.016,1,128,0.3235779,0.9206238,1,0.341095,-0.2998047,-0.0234375,0,1,2,0.2063492
2632.468,0.001002,-0.02734375,-0.05078125,-0.01757812,0.1640625,-2.648438,8.9375,-0.03125,-0.046875,-0.0078125,-0.1464844,-0.109375,0,-0.00390625,0.01818848,-0.208252,-0.02844238,0,-0.2169189,0.8999939,4.07,-0.05426025,0,0,1,nan,2,0.026,1,128,0.3496399,0.9707947,1,0.4226074,-0.2998047,-0.0234375,0,1,2,0
2632.478,0.001005,0.04882812,-0.1640625,-0.005859375,-2.757812,-1.304688,8.210938,0,-0.0078125,-0.01171875,-0.1464844,-0.109375,0,-0.00402832,0.01806641,-0.208252,-0.02844238,0,-0.2169189,0.8999939,4.07,-0.05426025,0,0,1,nan,2,0.036,1,128,0.3244019,0.9737549,1,0.4041138,-0.2998047,-0.0234375,0,1,2,0
2632.487,0.001029,0.1386719,-0.1816406,-0.02734375,-1.328125,1.140625,9.078125,0.05078125,0.02929688,0.005859375,-0.1464844,-0.109375,0,-0.00390625,0.01831055,-0.208252,-0.02844238,0,-0.2169189,0.8999939,4.07,-0.05426025,0,0,1,nan,2,0.045,1,128,0.3009949,0.9547119,1,0.3728333,-0.2998047,-0.0234375,0,1,2,0
2632.497,0.001017,0.1152344,-0.1425781,0,2.898438,0.3046875,11.33594,0.05078125,-0.1230469,0.005859375,-0.1503906,-0.1074219,0,-0.003417969,0.01782227,-0.208252,-0.02844238,0,-0.2169189,0.8999939,4.07,-0.05426025,0,0,1,nan,2,0.056,1,128,0.3553467,0.9776306,1,0.3562317,-0.2998047,-0.0234375,0,1,2,0
2632.507,0.001017,-0.05273438,0.001953125,-0.005859375,0.890625,-2.625,8.984375,-0.005859375,-0.01367188,-0.01367188,-0.06640625,-0.1015625,0,-0.003295898,0.01696777,-0.208252,-0.01416016,0,-0.2169189,0.8999939,4.07,-0.02709961,0,0,1,nan,2,0.008,1,128,0.3263245,0.9512024,1,0.4397278,-0.2998047,-0.0234375,0,1,2,0.1111111
2632.517,0.000992,-0.04101562,-0.06054688,-0.02148438,-2.523438,-0.7421875,9.070312,0.001953125,-0.04101562,0,-0.06640625,-0.09960938,0,-0.003173828,0.01672363,-0.208252,-0.01416016,0,-0.2169189,0.8999939,4.07,-0.02709961,0,0,1,nan,2,0.018,1,128,0.3462524,0.9487305,1,0.4003601,-0.2998047,-0.0234375,0,1,2,0.1746032
2632.527,0.00101,0.01757812,-0.1132812,0.01171875,2.40625,4.15625,12.26562,0.009765625,-0.04296875,-0.00390625,-0.06640625,-0.09765625,0,-0.003173828,0.01623535,-0.208252,-0.01416016,0,-0.2169189,0.8999939,4.07,-0.02709961,0,0,1,nan,2,0.028,1,128,0.3351135,0.9524536,1,0.3894348,-0.2998047,-0.0234375,0,1,2,0
2632.537,0.00105,0.01757812,-0.08007812,-0.0078125,0.8671875,-2.171875,10.27344,-0.015625,-0.02929688,0.0078125,-0.06445312,-0.09765625,0,-0.003540039,0.01623535,-0.208252,-0.01416016,0,-0.2169189,0.8999939,4.07,-0.02709961,0,0,1,nan,2,0.038,1,128,0.3439026,0.9384155,1,0.3747253,-0.2998047,-0.0234375,0,1,2,0
2632.547,0.001008,-0.0859375,0.09179688,0.00390625,-1.726562,-4.617188,7.085938,-0.04492188,0.01953125,-0.001953125,-0.0625,-0.09570312,0,-0.003662109,0.01611328,-0.208252,-0.01416016,0,-0.2169189,0.8999939,4.073,-0.02709961,0,0,1,nan,2,0.048,1,128,0.3359375,0.9346008,1,0.4150391,-0.2998047,-0.0234375,0,1,2,0
2632.558,0.001024,-0.03710938,-0.05859375,-0.01953125,0.0859375,1.414062,9.71875,-0.04296875,0.03320312,-0.015625,0.0234375,-0.09765625,0,-0.00390625,0.01635742,-0.208374,0,0,-0.2169189,0.8999939,4.073,0,0,0,1,nan,2,0.002,1,128,0.3736877,0.9679871,1,0.4754028,-0.2998047,-0.0234375,0,1,2,0.8730159
2632.568,0.00101,-0.01171875,-0.03710938,0.01171875,1.65625,1.46875,12.96094,-0.009765625,-0.05078125,-0.001953125,0.02539062,-0.09570312,0,-0.004150391,0.01599121,-0.2084961,0,0,-0.2169189,0.8999939,4.073,0,0,0,1,nan,2,0.012,1,128,0.3555908,0.9265442,1,0.3788147,-0.2998047,-0.0234375,0,1,2,0
2632.578,0.00101,-0.04101562,0.1210938,-0.009765625,-2.242188,-2.53125,8.117188,-0.009765625,0.03710938,-0.009765625,0.02539062,-0.09375,0,-0.004150391,0.015625,-0.2084961,0,0,-0.2169189,0.8999939,4.073,0,0,0,1,nan,2,0.022,1,128,0.3199158,0.9379578,1,0.4399109,-0.2998047,-0.02441406,0,1,2,0
2632.587,0.00101,-0.03710938,0.2890625,-0.001953125,-1.429688,-2.40625,8.648438,-0.01171875,0.08203125,0.00390625,0.02539062,-0.09570312,0,-0.004150391,0.01586914,-0.2084961,0,0,-0.2169189,0.8999939,4.073,0,0,0,1,nan,2,0.006,1,128,0.310791,0.8877563,1,0.395813,-0.2998047,-0.02441406,0,1,2,0
2632.597,0.001013,-0.1894531,-0.08203125,-0.01757812,1.398438,2.703125,10.14844,-0.078125,-0.06640625,-0.01367188,0.02734375,-0.09765625,0,-0.004516602,0.01611328,-0.2086182,0,0,-0.2169189,0.8999939,4.073,0,0,0,1,nan,2,0.016,1,128,0.4126587,0.9963074,1,0.4503479,-0.2998047,-0.02441406,0,1,2,0
2632.607,0.001002,-0.06445312,-0.1367188,-0.01953125,1,1.1875,12.88281,-0.0625,-0.04882812,-0.005859375,0.03320312,-0.09765625,0,-0.005493164,0.01623535,-0.2086182,0,0,-0.2169189,0.8999939,4.073,0,0,0,1,nan,2,0.026,1,128,0.3739319,0.9699402,1,0.4050598,-0.2998047,-0.02441406,0,1,2,0
2632.617,0.000991,0.03710938,-0.046875,0.02148438,-2.375,-2.726562,9.5,0.04492188,-0.03515625,0.005859375,0.03125,-0.09570312,0,-0.005249023,0.01586914,-0.2086182,0,0,-0.2169189,0.8999939,4.073,0,0,0,1,nan,2,0.036,1,128,0.3336182,0.9188843,1,0.3580627,-0.2998047,-0.02441406,0,1,2,0.1587302
2632.627,0.000993,0.1328125,-0.1816406,-0.009765625,-0.6953125,1.53125,10.89062,0.09960938,-0.07421875,-0.001953125,0.02734375,-0.09179688,0,-0.004638672,0.01538086,-0.2084961,0,0,-0.2169189,0.8999939,4.073,0,0,0,1,nan,2,0.046,1,128,0.3382568,1,0.9968567,0.4068909,-0.2998047,-0.02441406,0,1,2,0
2632.637,0.001003,0.0546875,-0.125,0.02734375,2.789062,-1.765625,12.09375,0.04101562,-0.0078125,0,0.02539062,-0.08984375,0,-0.004272461,0.01501465,-0.2086182,0,0,-0.2169189,0.8999939,4.073,0,0,0,1,nan,2,0.057,1,128,0.3361511,0.914917,1,0.3772888,-0.2998047,-0.02441406,0,1,2,0
2632.647,0.000999,0.1972656,0.1289062,-0.02148438,0.6953125,-1.257812,9.945312,0.04296875,0.0859375,-0.0078125,0.02539062,-0.08984375,0,-0.004150391,0.01513672,-0.2086182,0,0,-0.2169189,0.8999939,4.073,0,0,0,1,nan,2,0.006,1,128,0.2827454,0.937561,1,0.4192505,-0.2998047,-0.02441406,0,1,2,0.3015873
2632.658,0.001017,-0.09960938,-0.03320312,-0.0078125,-1.992188,1.226562,9.414062,-0.09179688,0.0078125,-0.01953125,0.02539062,-0.09375,0,-0.004272461,0.01550293,-0.2086182,0,0,-0.2169189,0.8999939,4.073,0,0,0,1,nan,2,0.016,1,128,0.388855,0.9985657,1,0.4933167,-0.2998047,-0.02441406,0,1,2,0.7619048
2632.668,0.000993,-0.02539062,-0.1308594,0.03320312,-1.257812,-1.28125,5.992188,-0.06835938,-0.05273438,0.01953125,0.02734375,-0.09179688,0,-0.004394531,0.01538086,-0.2086182,0,0,-0.2169189,0.8999939,4.073,0,0,0,1,nan,2,0.026,1,128,0.3920898,0.8924255,1,0.3583374,-0.2998047,-0.02441406,0,1,2,0
2632.677,0.001013,0.02539062,-0.0234375,-0.0078125,-0.046875,1.320312,11.53125,0.05273438,-0.0390625,0.001953125,0.1386719,-0.08984375,0,-0.004272461,0.01501465,-0.2084961,0.0189209,0,-0.2169189,0.8999939,4.073,0.03619385,0,0,1,nan,2,0.001,1,128,0.3810425,0.9718933,1,0.4583435,-0.2998047,-0.02441406,0,1,2,0
2632.687,0.001021,0.04882812,-0.1015625,-0.02148438,2.070312,-1.257812,11.25,0.06640625,-0.03125,-0.009765625,0.1367188,-0.0859375,0,-0.00390625,0.0144043,-0.2084961,0.0189209,0,-0.2169189,0.8999939,4.073,0.03619385,0,0,1,nan,2,0.011,1,128,0.3391724,0.9835205,1,0.4493713,-0.2998047,-0.02441406,0,1,2,0
2632.697,0.00101,0.04882812,0.08007812,0.009765625,0.40625,-1.273438,10.39062,-0.02539062,-0.09179688,-0.001953125,0.140625,-0.08398438,0,-0.004516602,0.01403809,-0.2086182,0.0189209,0,-0.2169189,0.8999939,4.073,0.03619385,0,0,1,nan,2,0.021,1,128,0.3739624,0.9350586,1,0.3815002,-0.2988281,-0.02441406,0,1,2,0
2632.707,0.001005,0.1132812,-0.02148438,0.01757812,-3.273438,1.226562,11.02344,0.02539062,0.01171875,0.0234375,0.140625,-0.08203125,0,-0.004638672,0.01379395,-0.2084961,0.0189209,0,-0.2169189,0.8999939,4.073,0.03619385,0,0,1,nan,2,0.031,1,128,0.3255615,0.8739014,1,0.3476257,-0.2988281,-0.02539062,0,1,2,0
2632.717,0.001011,0.005859375,0.09179688,-0.02539062,0.640625,-0.203125,6.757812,-0.01757812,0.02734375,0.001953125,0.1386719,-0.08203125,0,-0.004272461,0.01379395,-0.208374,0.0189209,0,-0.2169189,0.8999939,4.073,0.03619385,0,0,1,nan,2,0.041,1,128,0.3596497,0.9818726,1,0.4948425,-0.2988281,-0.02539062,0,1,2,0
2632.727,0.000968,0.09375,0.03320312,0.015625,2.742188,-1.632812,7.109375,0.005859375,-0.07421875,0.0078125,0.1386719,-0.08203125,0,-0.004150391,0.01379395,-0.208374,0.0189209,0,-0.2169189,0.8999939,4.073,0.03619385,0,0,1,nan,2,0.052,1,128,0.3832397,0.9259644,1,0.3730774,-0.2988281,-0.02539062,0,1,2,0
2632.737,0.001011,-0.125,-0.08398438,-0.01367188,-0.1328125,-3.078125,4.429688,-0.03515625,-0.05273438,-0.005859375,0.1347656,-0.08203125,0,-0.003662109,0.0135498,-0.208374,0.0189209,0,-0.2169189,0.8999939,4.073,0.03619385,0,0,1,nan,2,0.062,1,128,0.414856,0.9969482,1,0.4928894,-0.2988281,-0.02539062,0,1,2,0
2632.747,0.001013,-0.0390625,-0.04492188,-0.02148438,-3.523438,0.1171875,7.75,-0.02734375,0.02734375,-0.01171875,0.1367188,-0.08203125,0,-0.00378418,0.01367188,-0.208374,0.0189209,0,-0.2169189,0.8999939,4.073,0.03619385,0,0,1,nan,2,0.072,1,128,0.3577271,0.9686584,1,0.4692383,-0.2988281,-0.02539062,0,1,2,0
2632.758,0.001012,-0.07226562,0.1171875,0.0234375,0.984375,3.546875,11.375,0,0.07226562,0.005859375,0.421875,-0.08398438,0,-0.00390625,0.01416016,-0.208374,0.06628418,0,-0.2169189,0.8999939,4.073,0.1265869,0,0,1,nan,2,0.005,1,128,0.4132996,0.8953857,1,0.4629517,-0.2988281,-0.02539062,0,1,2,0
2632.768,0.001047,0.08398438,0.0625,0.03125,2.742188,-1.539062,11.70312,-0.01757812,0.06054688,0.009765625,0.4238281,-0.08984375,0,-0.004272461,0.01489258,-0.208374,0.06628418,0,-0.2169189,0.8999939,4.073,0.1265869,0,0,1,nan,2,0.015,1,128,0.3803101,0.9172058,1,0.4381104,-0.2978516,-0.02539062,0,1,2,0
2632.777,0.001047,0.1191406,0.1035156,0.001953125,1.742188,-0.3125,8.625,0.0234375,0.04101562,0.01367188,0.4238281,-0.09179688,0,-0.004394531,0.01538086,-0.2081299,0.06628418,0,-0.2169189,0.8999939,4.073,0.1265869,0,0,1,nan,2,0.024,1,128,0.3685303,0.9290466,1,0.4356384,-0.2978516,-0.02539062,0,1,2,0
2632.787,0.001027,-0.109375,-0.1328125,-0.02539062,-0.875,-0.3046875,9.25,-0.02148438,0.0234375,-0.005859375,0.4238281,-0.09765625,0,-0.004272461,0.01623535,-0.2081299,0.06628418,0,-0.2169189,0.8999939,4.073,0.1265869,0,0,1,nan,2,0.034,1,128,0.4230652,1,0.9910583,0.5111389,-0.296875,-0.02636719,0,1,2,0
2632.797,0.001028,0.1191406,-0.01171875,0.01757812,-3.078125,-0.875,13.03906,0.046875,0.05859375,-0.009765625,0.9042969,-0.09960938,0,-0.00402832,0.01672363,-0.208252,0.1467285,0,-0.2169189,0.8999939,4.073,0.2803345,0,0,1,nan,2,0.005,1,128,0.496521,0.9280701,1,0.5582581,-0.296875,-0.02636719,0,1,2,0
2632.807,0.001036,0.06835938,-0.2265625,0.0234375,-0.375,-0.2421875,9.6875,0.01757812,0.02929688,0,0.9042969,-0.1035156,0,-0.00402832,0.01745605,-0.208374,0.1467285,0,-0.2169189,0.8999939,4.073,0.2803345,0,0,1,nan,2,0.015,1,128,0.4685059,0.9180603,1,0.479126,-0.2958984,-0.02636719,0,1,2,0
2632.817,0.00099,0.08398438,0.09765625,0.01953125,2.640625,0.3515625,9.914062,-0.0234375,-0.01367188,0.0078125,0.9082031,-0.09960938,0,-0.004516602,0.01672363,-0.208252,0.1467285,0,-0.2169189,0.8999939,4.073,0.2803345,0,0,1,nan,2,0.025,1,128,0.430542,0.8860779,1,0.4780884,-0.2949219,-0.02636719,0,1,2,0
2632.827,0.001009,-0.03710938,-0.01953125,-0.00390625,0.6484375,-2.039062,8.117188,0,0.01757812,0.001953125,0.9082031,-0.1015625,0,-0.004516602,0.01721191,-0.208252,0.1467285,0,-0.2169189,0.8999939,4.073,0.2803345,0,0,1,nan,2,0.035,1,128,0.4609985,0.9370117,1,0.5185547,-0.2939453,-0.02636719,0,1,2,0
2632.837,0.001006,0.02148438,0.06640625,-0.03710938,-2.96875,-0.6796875,9.75,-0.0234375,0.04101562,-0.01171875,0.9082031,-0.1035156,0,-0.004760742,0.01745605,-0.208252,0.1467285,0,-0.2169189,0.8999939,4.073,0.2803345,0,0,1,nan,2,0.045,1,128,0.4510193,0.993103,1,0.5949097,-0.2929688,-0.02636719,0,1,2,0
2632.847,0.001011,-0.03515625,-0.1289062,0.0234375,-2.21875,2.078125,11.96875,0.01757812,-0.009765625,-0.005859375,0.9082031,-0.1054688,0,-0.004760742,0.01757812,-0.208374,0.1467285,0,-0.2169189,0.8999939,4.073,0.2803345,0,0,1,nan,2,0.056,1,128,0.4664612,0.9416504,1,0.5111694,-0.2919922,-0.02636719,0,1,2,0
2632.858,0.000989,-0.02734375,0,0.04101562,2.507812,0.8125,11.51562,0.0078125,0.00390625,0.015625,1.419922,-0.1035156,0,-0.004638672,0.01757812,-0.208374,0.2320557,0,-0.2169189,0.8999939,4.073,0.4431152,0,0,1,nan,2,0.007,1,128,0.5630188,0.8566589,1,0.5567932,-0.2900391,-0.02636719,0,1,2,0
2632.868,0.001009,0.1015625,0.06445312,-0.001953125,3.0625,-1.953125,9.585938,0.02929688,-0.03125,0.01367188,1.419922,-0.1035156,0,-0.004516602,0.0177002,-0.2081299,0.2320557,0,-0.2169189,0.8999939,4.073,0.4431152,0,0,1,nan,2,0.017,1,128,0.5322571,0.9455566,1,0.5799255,-0.2890625,-0.02636719,0,1,2,0
2632.878,0.001009,0.06640625,0.015625,0.01367188,-0.859375,-0.0546875,10.41406,0.046875,-0.0390625,0.001953125,1.416016,-0.1015625,0,-0.00402832,0.01733398,-0.2081299,0.2320557,0,-0.2169189,0.8999939,4.073,0.4431152,0,0,1,nan,2,0.027,1,128,0.5253601,0.9291687,1,0.5769653,-0.2880859,-0.02734375,0,1,2,0
2632.887,0.000998,-0.0078125,-0.25,-0.01171875,-2.132812,-0.703125,8.585938,-0.005859375,-0.1191406,-0.00390625,1.416016,-0.09765625,0,-0.004150391,0.01660156,-0.208252,0.2320557,0,-0.2169189,0.8999939,4.073,0.4431152,0,0,1,nan,2,0.036,1,128,0.5693359,0.9669189,1,0.5951233,-0.2861328,-0.02734375,0,1,2,0
2632.897,0.001018,0.02539062,0.1308594,-0.01367188,-3.828125,0.75,11.89062,-0.02539062,0.05078125,-0.01367188,1.845703,-0.09570312,0,-0.004516602,0.01647949,-0.208252,0.3029785,0,-0.2169189,0.8999939,4.073,0.5787354,0,0,1,nan,2,0.004,1,128,0.6239929,0.9306335,1,0.7408142,-0.2841797,-0.02734375,0,1,2,0
2632.907,0.001011,0.1328125,-0.08203125,-0.009765625,2.3125,0.3046875,8.671875,-0.0234375,-0.08789062,0.001953125,1.847656,-0.08984375,0,-0.004882812,0.01550293,-0.208374,0.3029785,0,-0.2169189,0.8999939,4.073,0.5787354,0,0,1,nan,2,0.014,1,128,0.604126,0.9282532,1,0.6428223,-0.2832031,-0.02734375,0,1,2,0
2632.917,0.00101,-0.02539062,-0.04101562,0.01757812,2.890625,0.0703125,8.695312,-0.0078125,0.01953125,0.001953125,1.845703,-0.08984375,0,-0.004516602,0.01538086,-0.208374,0.3029785,0,-0.2169189,0.8999939,4.073,0.5787354,0,0,1,nan,2,0.024,1,128,0.5871887,0.9017334,1,0.6533203,-0.28125,-0.02734375,0,1,2,0
2632.927,0.000984,-0.08203125,-0.1152344,0.0078125,-2.476562,-2.921875,8.445312,0,-0.001953125,0.005859375,1.845703,-0.09179688,0,-0.004516602,0.015625,-0.208252,0.3029785,0,-0.2169189,0.8999939,4.073,0.5787354,0,0,1,nan,2,0.034,1,128,0.6135559,0.9520569,1,0.6715393,-0.2792969,-0.02734375,0,1,2,0
2632.937,0.001007,0.009765625,0.078125,-0.02148438,-2.179688,1.929688,13.66406,0.01953125,0.02148438,-0.005859375,2.271484,-0.08984375,0,-0.004516602,0.01550293,-0.208252,0.3740234,0,-0.2169189,0.8999939,4.073,0.7143555,0,0,1,nan,2,0,1,128,0.7797852,0.9441528,0.9726868,0.9033813,-0.2773438,-0.02734375,0,1,2,0
2632.947,0.000997,-0.01367188,-0.04492188,0.01757812,2.710938,-0.4921875,9.710938,-0.0546875,0.05664062,0.00390625,2.273438,-0.09375,0,-0.005004883,0.01660156,-0.208252,0.3740234,0,-0.2169189,0.8999939,4.073,0.7143555,0,0,1,nan,2,0.01,1,128,0.693512,0.9036865,1,0.7121582,-0.2744141,-0.02734375,0,1,2,0
2632.958,0.00101,0.1621094,0.08203125,0.005859375,1.75,-1.328125,10.67969,0.0390625,0.02929688,0.00390625,2.275391,-0.09179688,0,-0.005371094,0.01611328,-0.208252,0.3740234,0,-0.2169189,0.8999939,4.073,0.7143555,0,0,1,nan,2,0.02,1,128,0.6029968,0.9067078,1,0.6953125,-0.2724609,-0.02734375,0,1,2,0
2632.968,0.00101,0.015625,-0.08203125,-0.01367188,-2.101562,-0.265625,9.53125,-0.01757812,0.0078125,-0.0078125,2.275391,-0.09375,0,-0.005249023,0.01635742,-0.2081299,0.3740234,0,-0.2169189,0.8999939,4.073,0.7143555,0,0,1,nan,2,0.03,1,128,0.6769104,0.9711304,1,0.7723999,-0.2705078,-0.02734375,0,1,2,0
2632.977,0.001037,0.04492188,0.03515625,-0.0078125,-3.703125,-1.820312,6.59375,-0.02734375,0.02539062,-0.01367188,2.277344,-0.09375,0,-0.005615234,0.01647949,-0.208252,0.3740234,0,-0.2169189,0.8999939,4.073,0.7143555,0,0,1,nan,2,0.039,1,128,0.6641541,0.9470215,1,0.755249,-0.2675781,-0.02734375,0,1,2,0
2632.987,0.001,-0.015625,-0.04882812,0.02148438,0.34375,3.125,10.47656,0.005859375,-0.06640625,0.0234375,2.701172,-0.09179688,0,-0.005249023,0.01635742,-0.208252,0.4450684,0,-0.2169189,0.8999939,4.073,0.8499756,0,0,1,nan,2,0,1,128,0.9011841,0.8566895,0.9696655,0.872467,-0.265625,-0.02832031,0,1,2,0
2632.997,0.000998,-0.1738281,0.2070312,-0.02539062,2.867188,0.2109375,11.34375,-0.06835938,0.078125,-0.01171875,2.701172,-0.09179688,0,-0.005004883,0.01647949,-0.2081299,0.4450684,0,-0.2169189,0.8999939,4.073,0.8499756,0,0,1,nan,2,0.01,1,128,0.7380066,0.9571838,0.9845276,0.9202881,-0.2626953,-0.02832031,0,1,2,0
2633.007,0.00101,0.02148438,-0.0546875,0.001953125,0.3046875,-1.1875,11.30469,0.01171875,0.00390625,0.01953125,2.703125,-0.09375,0,-0.005371094,0.0168457,-0.2080078,0.4450684,0,-0.2169189,0.8999939,4.073,0.8499756,0,0,1,nan,2,0.02,1,128,0.7346497,0.8934937,1,0.7456665,-0.2607422,-0.02832031,0,1,2,0
2633.017,0.001041,-0.009765625,-0.09375,0.02148438,-2.984375,-2.148438,8.632812,0.02734375,-0.109375,0.015625,2.703125,-0.09179688,0,-0.005371094,0.01635742,-0.2081299,0.4450684,0,-0.2169189,0.8999939,4.073,0.8499756,0,0,1,nan,2,0.03,1,128,0.7723694,0.9004517,1,0.7260132,-0.2578125,-0.02832031,0,1,2,0
2633.027,0.001005,-0.015625,-0.1191406,0.001953125,0.0859375,2.53125,12.26562,0.0234375,-0.0546875,0.02148438,2.701172,-0.08789062,0,-0.005371094,0.015625,-0.2078857,0.4450684,0,-0.2169189,0.8999939,4.073,0.8499756,0,0,1,nan,2,0.04,1,128,0.7445679,0.9179382,1,0.7832947,-0.2548828,-0.02832031,0,1,2,0
2633.037,0.00101,-0.02148438,-0.1621094,-0.015625,1.6875,-2.046875,11.90625,-0.01757812,-0.05859375,-0.01171875,2.703125,-0.08789062,0,-0.005493164,0.01550293,-0.2078857,0.4450684,0,-0.2169189,0.8999939,4.073,0.8499756,0,0,1,nan,2,0.05,1,128,0.7630615,0.9957886,0.9804077,0.8607483,-0.2519531,-0.02832031,0,1,2,0
2633.047,0.00101,0.1601562,-0.04882812,0.03125,-2.390625,-2.679688,7.007812,0.02148438,0.01757812,0.001953125,2.705078,-0.0859375,0,-0.005859375,0.01538086,-0.2081299,0.4450684,0,-0.2169189,0.8999939,4.073,0.8499756,0,0,1,nan,2,0.061,1,128,0.7212524,0.85495,1,0.7328796,-0.2490234,-0.02832031,0,1,2,0
2633.057,0.00101,0.1367188,-0.2460938,0.0390625,-1.554688,-0.140625,9.554688,0.06054688,-0.05273438,0.0234375,2.705078,-0.08398438,0,-0.005737305,0.01513672,-0.2078857,0.4450684,0,-0.2169189,0.8999939,4.073,0.8499756,0,0,1,nan,2,0.071,1,128,0.7579651,0.8961487,1,0.7450562,-0.2470703,-0.02832031,0,1,2,0
2633.068,0.00101,-0.046875,0.02539062,-0.01367188,1.3125,-0.2109375,8.101562,-0.02734375,0.02539062,-0.00390625,2.703125,-0.08203125,0,-0.005615234,0.01477051,-0.2077637,0.4450684,0,-0.2169189,0.8999939,4.073,0.8499756,0,0,1,nan,2,0.081,1,128,0.7537842,0.9584351,0.9885254,0.899231,-0.2441406,-0.02832031,0,1,2,0
2633.078,0.00101,-0.02734375,0.08203125,-0.0234375,0.5,0.015625,11.21875,0.02539062,-0.009765625,-0.001953125,2.703125,-0.08398438,0,-0.005371094,0.01489258,-0.2077637,0.4450684,0,-0.2169189,0.8999939,4.073,0.8499756,0,0,1,nan,2,0.091,1,128,0.7702637,0.966095,0.9937744,0.869873,-0.2412109,-0.02832031,0,1,2,0
2633.087,0.00101,0.1542969,-0.28125,0.01367188,0.421875,-1.484375,11.03906,0.0859375,-0.078125,0.005859375,2.701172,-0.08398438,0,-0.005249023,0.01489258,-0.2077637,0.4450684,0,-0.2169189,0.8999939,4.073,0.8499756,0,0,1,nan,2,0.1,1,128,0.7840576,0.9509277,1,0.786499,-0.2382812,-0.02832031,0,1,2,0
2633.097,0.001011,-0.03710938,-0.1621094,-0.01367188,-2.617188,-2.578125,8.28125,-0.02929688,-0.1191406,0.009765625,2.699219,-0.078125,0,-0.005004883,0.01403809,-0.2076416,0.4450684,0,-0.2169189,0.8999939,4.073,0.8499756,0,0,1,nan,2,0.11,1,128,0.8157654,0.9506531,0.9768372,0.856781,-0.2363281,-0.02832031,0,1,2,0
2633.107,0.00101,0.1875,-0.1152344,0.00390625,-1.03125,0.5234375,10.95312,0.03710938,0.0078125,-0.01171875,2.703125,-0.078125,0,-0.005371094,0.01391602,-0.2077637,0.4450684,0,-0.2169189,0.8999939,4.073,0.8499756,0,0,1,nan,2,0.12,1,128,0.7565918,0.9465027,1,0.8398132,-0.2333984,-0.02832031,0,1,2,0
2633.117,0.001004,0.08007812,0.01953125,-0.009765625,0.3125,0.6953125,9.078125,0.03710938,-0.02929688,0,2.701172,-0.07617188,0,-0.005126953,0.01367188,-0.2077637,0.4450684,0,-0.2169189,0.8999939,4.073,0.8499756,0,0,1,nan,2,0.13,1,128,0.7835693,0.9283447,1,0.8425293,-0.2304688,-0.02832031,0,1,2,0
2633.127,0.001029,0.0703125,-0.1660156,0,-1.492188,-0.5546875,9.75,0,-0.0625,0.00390625,2.699219,-0.07421875,0,-0.004760742,0.01306152,-0.2077637,0.4450684,0,-0.2169189,0.8999939,4.073,0.8499756,0,0,1,nan,2,0.14,1,128,0.8175354,0.9321594,0.9908447,0.8594666,-0.2275391,-0.02832031,0,1,2,0
2633.137,0.00101,0.03320312,0.08007812,-0.02734375,-2.796875,-3.03125,6.640625,-0.04101562,-0.04492188,0,2.699219,-0.06835938,0,-0.004760742,0.01208496,-0.2076416,0.4450684,0,-0.2169189,0.8999939,4.073,0.8499756,0,0,1,nan,2,0.15,1,128,0.7818909,0.9419861,0.9660339,0.9100647,-0.2255859,-0.02832031,0,1,2,0
2633.147,0.001016,-0.1171875,0.046875,-0.03125,-0.1015625,0.7578125,6.195312,-0.03320312,0.1386719,-0.005859375,2.697266,-0.0703125,0,-0.004638672,0.01257324,-0.2075195,0.4450684,0,-0.2169189,0.8999939,4.073,0.8499756,0,0,1,nan,2,0,1,128,0.7614136,0.9200134,0.9810181,0.937561,-0.2226562,-0.02832031,0,1,2,0
2633.157,0.00101,0.03515625,-0.1640625,-0.01171875,2.3125,0.5859375,10.13281,0.01757812,-0.04296875,0,2.699219,-0.07421875,0,-0.004760742,0.01330566,-0.2075195,0.4450684,0,-0.2169189,0.8999939,4.073,0.8499756,0,0,1,nan,2,0.01,1,128,0.8167725,0.9677429,0.9581909,0.8572693,-0.2197266,-0.02929688,0,1,2,0
2633.168,0.00101,0.1191406,-0.08007812,0.01367188,2.757812,0.2578125,11.40625,0.05273438,0.03515625,0.005859375,2.699219,-0.07617188,0,-0.004760742,0.01342773,-0.2075195,0.4450684,0,-0.2169189,0.8999939,4.073,0.8499756,0,0,1,nan,2,0.02,1,128,0.7923584,0.9040527,1,0.8347168,-0.2167969,-0.02929688,0,1,2,0
2633.178,0.00101,-0.04296875,-0.06835938,-0.01367188,0,0.546875,10.98438,0.02539062,-0.09570312,-0.01171875,2.697266,-0.07421875,0,-0.004516602,0.01318359,-0.2076416,0.4450684,0,-0.2169189,0.8999939,4.073,0.8499756,0,0,1,nan,2,0.03,1,128,0.8117371,0.956665,0.9511719,0.8804016,-0.2138672,-0.02929688,0,1,2,0
2633.187,0.001011,0.01367188,-0.1582031,-0.01757812,-1.726562,1.148438,13.125,0.046875,-0.1015625,-0.01757812,2.695312,-0.0703125,0,-0.004272461,0.01269531,-0.2077637,0.4450684,0,-0.2169189,0.8999939,4.073,0.8499756,0,0,1,nan,2,0.039,1,128,0.8167725,0.9489746,0.9665833,0.8676453,-0.2119141,-0.02929688,0,1,2,0
2633.197,0.001012,0.03320312,-0.02539062,0.005859375,-1.820312,-0.4140625,9.53125,-0.0234375,-0.03710938,0.00390625,2.695312,-0.0703125,0,-0.004272461,0.01257324,-0.2077637,0.4450684,0,-0.2169189,0.8999939,4.068,0.8499756,0,0,1,nan,2,0.049,1,128,0.8493652,0.8974609,0.9862976,0.8668823,-0.2089844,-0.02929688,0,1,2,0
2633.207,0.001013,-0.0703125,0.08789062,-0.03515625,-0.3125,2.90625,7.296875,-0.0078125,0.07226562,-0.01757812,2.695312,-0.0703125,0,-0.004150391,0.01269531,-0.2077637,0.4450684,0,-0.2169189,0.8999939,4.068,0.8499756,0,0,1,nan,2,0.06,1,128,0.780426,0.9199829,0.9577637,0.941864,-0.2060547,-0.02929688,0,1,2,0
2633.217,0.001009,-0.015625,-0.1855469,-0.0078125,2.164062,2.546875,10.19531,0.01757812,-0.0625,-0.01171875,2.695312,-0.07226562,0,-0.00402832,0.01281738,-0.2078857,0.4450684,0,-0.2169189,0.8999939,4.068,0.8499756,0,0,1,nan,2,0.07,1,128,0.8380432,0.9336243,0.9541016,0.8742371,-0.2041016,-0.02929688,0,1,2,0
2633.227,0.001011,-0.01171875,0.1054688,-0.03125,2.6875,-0.2109375,11.86719,0.04296875,0.06835938,-0.02148438,2.693359,-0.07226562,0,-0.00378418,0.01281738,-0.2081299,0.4450684,0,-0.2169189,0.8999939,4.068,0.8499756,0,0,1,nan,2,0.08,1,128,0.7926636,0.9088745,0.9782715,0.920166,-0.2011719,-0.02929688,0,1,2,0
2633.237,0.001011,0.08007812,-0.09570312,0.0390625,-1.929688,-0.25,11.95312,0.02148438,0.005859375,0.01953125,2.691406,-0.07226562,0,-0.003662109,0.01269531,-0.2081299,0.4450684,0,-0.2169189,0.8999939,4.068,0.8499756,0,0,1,nan,2,0.09,1,128,0.8485413,0.8334351,1,0.8222656,-0.1982422,-0.02929688,0,1,2,0
2633.247,0.001011,0.1054688,0.09765625,0.03515625,-2.632812,-3.992188,6.195312,0.00390625,0.03515625,0.02539062,2.693359,-0.07421875,0,-0.00390625,0.01318359,-0.2078857,0.4450684,0,-0.2169189,0.8999939,4.068,0.8499756,0,0,1,nan,2,0.1,1,128,0.8458862,0.879303,1,0.8698425,-0.1953125,-0.02929688,0,1,2,0
2633.257,0.001011,-0.015625,-0.06054688,-0.009765625,-2.78125,-2.015625,6.453125,-0.01367188,0,0.001953125,2.693359,-0.07617188,0,-0.003662109,0.0135498,-0.2077637,0.4450684,0,-0.2169189,0.8999939,4.068,0.8499756,0,0,1,nan,2,0.11,1,128,0.819519,0.9276733,0.9246826,0.9281311,-0.1923828,-0.02929688,0,1,2,0
2633.268,0.001011,-0.03320312,0.2382812,0.02734375,-1.21875,2.820312,11.54688,-0.015625,0.1367188,0.015625,2.691406,-0.078125,0,-0.003662109,0.01403809,-0.2076416,0.4450684,0,-0.2169189,0.8999939,4.068,0.8499756,0,0,1,nan,2,0.12,1,128,0.8264771,0.8521118,0.9960022,0.925415,-0.1904297,-0.03027344,0,1,2,0
2633.278,0.001011,-0.03515625,0.1054688,-0.009765625,1.390625,2.46875,11.15625,-0.005859375,0.08203125,-0.009765625,2.691406,-0.08398438,0,-0.003662109,0.01477051,-0.2075195,0.4450684,0,-0.2169189,0.8999939,4.068,0.8499756,0,0,1,nan,2,0.13,1,128,0.8071899,0.911438,0.9342957,0.947052,-0.1875,-0.03027344,0,1,2,0
2633.287,0.001009,0.001953125,-0.02539062,0.005859375,0.1953125,3.164062,10.125,0,0.03125,0.01171875,2.693359,-0.0859375,0,-0.00378418,0.01538086,-0.2075195,0.4450684,0,-0.2169189,0.8999939,4.068,0.8499756,0,0,1,nan,2,0.139,1,128,0.8615417,0.8762207,0.9725647,0.8897095,-0.1845703,-0.03027344,0,1,2,0
2633.297,0.001009,-0.06835938,0.1523438,-0.02148438,0.53125,2.585938,11.84375,-0.01953125,0.02929688,-0.02148438,2.693359,-0.0859375,0,-0.00390625,0.01538086,-0.2076416,0.4450684,0,-0.2169189,0.8999939,4.068,0.8499756,0,0,1,nan,2,0.149,1,128,0.8097839,0.9035034,0.9316711,0.9550476,-0.1826172,-0.03027344,0,1,2,0
2633.307,0.001005,0.05273438,-0.046875,-0.01953125,0.8984375,0.875,10.25,-0.001953125,0.03320312,-0.02148438,2.695312,-0.08789062,0,-0.004150391,0.01574707,-0.2078857,0.4450684,0,-0.2169189,0.8999939,4.068,0.8499756,0,0,1,nan,2,0.16,1,128,0.8257141,0.897644,0.9473267,0.9293213,-0.1796875,-0.03027344,0,1,2,0
2633.317,0.001039,-0.02929688,0.1621094,-0.02734375,0.8359375,-0.8828125,10.19531,-0.01953125,0.1152344,-0.01757812,2.697266,-0.09179688,0,-0.004394531,0.01647949,-0.2080078,0.4450684,0,-0.2169189,0.8999939,4.068,0.8499756,0,0,1,nan,2,0.17,1,128,0.8334961,0.8656616,0.9647827,0.9360352,-0.1767578,-0.03027344,0,1,2,0
2633.327,0.001,0.03125,0.01367188,-0.046875,1.070312,-1.4375,10.29688,-0.0234375,0.09765625,-0.01757812,2.699219,-0.09765625,0,-0.004760742,0.01757812,-0.2081299,0.4450684,0,-0.2169189,0.8999939,4.068,0.8499756,0,0,1,nan,2,0.18,1,128,0.8242493,0.8953857,0.9303284,0.9500427,-0.1738281,-0.03027344,0,1,2,0
2633.337,0.001019,0.02148438,-0.15625,-0.03320312,-1.460938,-0.078125,11.32812,0.02148438,-0.06445312,-0.01757812,2.699219,-0.09960938,0,-0.004760742,0.01782227,-0.208252,0.4450684,0,-0.2169189,0.8999939,4.068,0.8499756,0,0,1,nan,2,0.19,1,128,0.8540649,0.9160156,0.9124146,0.9175415,-0.1708984,-0.03125,0,1,2,0
