t,dt_s,gyro_x,gyro_y,gyro_z,acc_x,acc_y,acc_z,rates.x,rates.y,rates.z,ratesTarget.x,ratesTarget.y,ratesTarget.z,attitude.x,attitude.y,attitude.z,attitudeTarget.x,attitudeTarget.y,attitudeTarget.z,thrustTarget,battery_v,rc_roll,rc_pitch,rc_yaw,rc_throttle,rc_mode,flight_mode,rc_age_s,armed,fault_mask,motor_rl,motor_rr,motor_fr,motor_fl,rate_i_x,rate_i_y,rate_i_z,mix_scale,control_source
3295.457,0.001013,0.02929688,-0.00390625,-0.009765625,1.59375,-0.0703125,10.625,0.00390625,-0.00390625,-0.005859375,0,0,0,-0.02929688,-0.003540039,-2.825439,0,0,-2.856689,0,4.077,0,0,0,0,nan,2,0.199,1,0,0.1000061,0.1000061,0.1000061,0.1000061,0,0,0,1,2
3295.467,0.00098,-0.009765625,-0.02929688,-0.02148438,-0.078125,-2.476562,9.882812,0.005859375,-0.0078125,-0.00390625,0,0,0,-0.0291748,-0.003295898,-2.825439,0,0,-2.856689,0,4.077,0,0,0,0,nan,2,0.003,1,0,0.1000061,0.1000061,0.1000061,0.1000061,0,0,0,1,2
3295.477,0.00101,-0.005859375,0.01367188,0.01171875,0.2109375,0.6953125,13.19531,-0.001953125,0.0078125,0.001953125,0,0,0,-0.02929688,-0.003295898,-2.825562,0,0,-2.856689,0,4.077,0,0,0,0,nan,2,0.013,1,0,0.1000061,0.1000061,0.1000061,0.1000061,0,0,0,1,2
3295.487,0.001016,0.0234375,-0.005859375,0.01171875,0.6953125,7.375,10.94531,-0.00390625,-0.001953125,0.001953125,0,0,0,-0.02966309,-0.003173828,-2.825562,0,0,-2.856689,0,4.077,0,0,0,0,nan,2,0.023,1,0,0.1000061,0.1000061,0.1000061,0.1000061,0,0,0,1,2
3295.497,0.00101,0.009765625,0.01953125,0.001953125,0.6953125,2.476562,8.554688,-0.00390625,0.00390625,0.01367188,0,0,0,-0.02941895,-0.003295898,-2.825439,0,0,-2.856689,0,4.077,0,0,0,0,nan,2,0.033,1,0,0.1000061,0.1000061,0.1000061,0.1000061,0,0,0,1,2
3295.507,0.00101,-0.01953125,-0.02929688,0.001953125,1.0625,-6.210938,12.01562,0.001953125,-0.01367188,0,0,0,0,-0.02941895,-0.003417969,-2.825439,0,0,-2.856689,0,4.077,0,0,0,0,nan,2,0.043,1,0,0.1000061,0.1000061,0.1000061,0.1000061,0,0,0,1,2
3295.517,0.00101,-0.02539062,0.02929688,0,1.640625,-4.65625,18.57031,-0.0078125,0.0078125,-0.00390625,0,0,0,-0.02929688,-0.003295898,-2.825439,0,0,-2.856689,0,4.077,0,0,0,0,nan,2,0.054,1,0,0.1000061,0.1000061,0.1000061,0.1000061,0,0,0,1,2
3295.527,0.00101,-0.04101562,-0.02148438,0.015625,1.976562,-3.3125,7.664062,-0.009765625,-0.015625,0.0078125,0,0,0,-0.02880859,-0.003662109,-2.825439,0,0,-2.856689,0,4.077,0,0,0,0,nan,2,0.064,1,0,0.1000061,0.1000061,0.1000061,0.1000061,0,0,0,1,2
3295.537,0.00101,0.0078125,-0.005859375,0.009765625,0.3671875,-2.820312,16.66406,0,0.001953125,0.0078125,0,0,0,-0.02880859,-0.003662109,-2.825317,0,0,-2.856689,0,4.077,0,0,0,0,nan,2,0.074,1,0,0.1000061,0.1000061,0.1000061,0.1000061,0,0,0,1,2
3295.547,0.001015,-0.05078125,0.02929688,0.01953125,0.0859375,1.523438,12.78906,-0.00390625,0.0078125,0.01757812,0,0,0,-0.02868652,-0.003540039,-2.825195,0,0,-2.856689,0,4.077,0,0,0,0,nan,2,0.084,1,0,0.1000061,0.1000061,0.1000061,0.1000061,0,0,0,1,2
3295.558,0.001011,0.03710938,0.0078125,-0.01171875,0.6875,0.78125,3.234375,0.015625,0,-0.001953125,0,0,0,-0.02893066,-0.003540039,-2.825073,0,0,-2.856689,0,4.077,0,0,0,0,nan,2,0.094,1,0,0.1000061,0.1000061,0.1000061,0.1000061,0,0,0,1,2
3295.568,0.001016,-0.04492188,-0.02734375,-0.009765625,0.6015625,0.59375,1.421875,-0.00390625,0.001953125,-0.009765625,0,0,0,-0.0291748,-0.003540039,-2.825195,0,0,-2.856689,0,4.077,0,0,0,0,nan,2,0.104,1,0,0.1000061,0.1000061,0.1000061,0.1000061,0,0,0,1,2
3295.577,0.001008,0.01367188,0.01171875,-0.015625,2.992188,2.359375,10.10938,-0.001953125,-0.00390625,-0.009765625,0,0,0,-0.02893066,-0.003540039,-2.825317,0,0,-2.856689,0,4.077,0,0,0,0,nan,2,0.113,1,0,0.1000061,0.1000061,0.1000061,0.1000061,0,0,0,1,2
3295.587,0.00101,0.04101562,-0.01171875,0.0234375,4.1875,-0.0078125,5.90625,0.01171875,0,0.015625,0,0,0,-0.02880859,-0.00378418,-2.825195,0,0,-2.856689,0,4.077,0,0,0,0,nan,2,0.123,1,0,0.1000061,0.1000061,0.1000061,0.1000061,0,0,0,1,2
3295.597,0.00101,-0.03125,0.04101562,0.015625,1.320312,-3.039062,11.58594,-0.005859375,-0.001953125,0.01757812,0,0,0,-0.02893066,-0.003662109,-2.825073,0,0,-2.856689,0,4.077,0,0,0,0,nan,2,0.133,1,0,0.1000061,0.1000061,0.1000061,0.1000061,0,0,0,1,2
3295.607,0.00101,0.001953125,0.0078125,0.01367188,-0.015625,-0.203125,17.63281,-0.0078125,0.0078125,0.015625,0,0,0,-0.02893066,-0.003540039,-2.824951,0,0,-2.856689,0,4.077,0,0,0,0,nan,2,0.143,1,0,0.1000061,0.1000061,0.1000061,0.1000061,0,0,0,1,2
3295.617,0.00101,-0.0078125,-0.0234375,0.01367188,-0.0625,5.476562,11.69531,-0.001953125,-0.0078125,0.00390625,0,0,0,-0.02941895,-0.003662109,-2.824829,0,0,-2.856689,0,4.077,0,0,0,0,nan,2,0.153,1,0,0.1000061,0.1000061,0.1000061,0.1000061,0,0,0,1,2
3295.627,0.00101,-0.02734375,0.00390625,-0.00390625,-1.664062,3.835938,10.8125,-0.005859375,-0.0078125,-0.001953125,0,0,0,-0.02929688,-0.00378418,-2.824829,0,0,-2.856689,0,4.077,0,0,0,0,nan,2,0.164,1,0,0.1000061,0.1000061,0.1000061,0.1000061,0,0,0,1,2
3295.637,0.00101,-0.015625,0.03710938,0.0078125,-2.945312,1.671875,8.078125,-0.0078125,0.00390625,0.005859375,0,0,0,-0.0291748,-0.00378418,-2.824829,0,0,-2.856689,0,4.077,0,0,0,0,nan,2,0.174,1,0,0.1000061,0.1000061,0.1000061,0.1000061,0,0,0,1,2
3295.647,0.00101,-0.01757812,0.001953125,0.001953125,-1.65625,-2.617188,3.734375,-0.001953125,0.00390625,0,0,0,0,-0.02929688,-0.00378418,-2.824829,0,0,-2.856689,0,4.077,0,0,0,0,nan,2,0.184,1,0,0.1000061,0.1000061,0.1000061,0.1000061,0,0,0,1,2
3295.658,0.001009,0.03710938,0.005859375,0.015625,-0.375,-3.109375,6.398438,0.009765625,0.01367188,0.00390625,0,0,0,-0.02941895,-0.00378418,-2.824707,0,0,-2.856689,0,4.077,0,0,0,0,nan,2,0.194,1,0,0.1000061,0.1000061,0.1000061,0.1000061,0,0,0,1,2
3295.667,0.001,-0.0078125,-0.04296875,0.005859375,3.265625,1.132812,7.398438,-0.001953125,-0.005859375,0.00390625,0,0,0,-0.02966309,-0.003662109,-2.824707,0,0,-2.856689,0,4.077,0,0,0,0,nan,2,0.006,1,0,0.1000061,0.1000061,0.1000061,0.1000061,0,0,0,1,2
3295.677,0.001008,0,0,0.02148438,3.023438,0.9296875,3.882812,0.01171875,0.001953125,0.0078125,0,0,0,-0.02990723,-0.00378418,-2.824707,0,0,-2.856689,0,4.077,0,0,0,0,nan,2,0.016,1,0,0.1000061,0.1000061,0.1000061,0.1000061,0,0,0,1,2
3295.687,0.001007,-0.03515625,-0.009765625,0.00390625,-0.0390625,0.90625,12.1875,-0.001953125,-0.0078125,0.009765625,0,0,0,-0.02966309,-0.003662109,-2.824585,0,0,-2.856689,0,4.077,0,0,0,0,nan,2,0.026,1,0,0.1000061,0.1000061,0.1000061,0.1000061,0,0,0,1,2
3295.697,0.00101,-0.03710938,0.02734375,0.009765625,-1.914062,2.507812,14.99219,-0.009765625,0.001953125,0.02148438,0,0,0,-0.02954102,-0.00378418,-2.824463,0,0,-2.856689,0,4.077,0,0,0,0,nan,2,0.036,1,0,0.1000061,0.1000061,0.1000061,0.1000061,0,0,0,1,2
3295.707,0.00101,-0.009765625,0.005859375,-0.0078125,0.6328125,0.296875,11.3125,-0.009765625,-0.00390625,0.001953125,0,0,0,-0.02990723,-0.00378418,-2.824341,0,0,-2.856689,0,4.077,0,0,0,0,nan,2,0.046,1,0,0.1000061,0.1000061,0.1000061,0.1000061,0,0,0,1,2
3295.717,0.00101,0.01171875,0.009765625,0.00390625,3.015625,-3.523438,6.367188,-0.01171875,0,0.005859375,0,0,0,-0.0300293,-0.00390625,-2.824341,0,0,-2.856689,0,4.077,0,0,0,0,nan,2,0.057,1,0,0.1000061,0.1000061,0.1000061,0.1000061,0,0,0,1,2
3295.727,0.00101,-0.02539062,0.00390625,-0.005859375,-2.757812,-4.5,6.421875,-0.00390625,0.005859375,-0.001953125,0,0,0,-0.03063965,-0.003173828,-2.824341,0,0,-2.856689,0,4.077,0,0,0,0,nan,2,0.067,1,0,0.1000061,0.1000061,0.1000061,0.1000061,0,0,0,1,2
3295.737,0.00101,-0.009765625,0.02539062,0.005859375,-1.382812,-7.648438,9.851562,-0.009765625,0.001953125,0.01171875,0,0,0,-0.03088379,-0.002929688,-2.824219,0,0,-2.856689,0,4.077,0,0,0,0,nan,2,0.077,1,0,0.1000061,0.1000061,0.1000061,0.1000061,0,0,0,1,2
3295.747,0.00101,0.009765625,-0.01953125,0.01171875,1.054688,-1.328125,11.30469,-0.00390625,0.005859375,0.0078125,0,0,0,-0.03051758,-0.002929688,-2.824097,0,0,-2.856689,0,4.077,0,0,0,0,nan,2,0.087,1,0,0.1000061,0.1000061,0.1000061,0.1000061,0,0,0,1,2
3295.758,0.001007,0.001953125,0.01171875,-0.02148438,0.0859375,4.382812,7.382812,-0.0078125,0.005859375,-0.001953125,0,0,0,-0.03063965,-0.002929688,-2.823975,0,0,-2.856689,0,4.077,0,0,0,0,nan,2,0.097,1,0,0.1000061,0.1000061,0.1000061,0.1000061,0,0,0,1,2
3295.768,0.00105,-0.0078125,-0.01953125,-0.02148438,-1.453125,-1.445312,4.453125,-0.0078125,-0.009765625,-0.015625,0,0,0,-0.03100586,-0.002807617,-2.824097,0,0,-2.856689,0,4.077,0,0,0,0,nan,2,0.107,1,0,0.1000061,0.1000061,0.1000061,0.1000061,0,0,0,1,2
3295.777,0.001011,-0.04882812,0.04492188,0.00390625,-0.9921875,3.664062,10.92969,-0.001953125,-0.00390625,0.009765625,0,0,0,-0.03100586,-0.003051758,-2.824097,0,0,-2.856689,0,4.077,0,0,0,0,nan,2,0.116,1,0,0.1000061,0.1000061,0.1000061,0.1000061,0,0,0,1,2
3295.787,0.00101,0.02929688,-0.0234375,0.0234375,-0.140625,-2.765625,9.875,0.01953125,-0.00390625,0.01757812,0,0,0,-0.03125,-0.002929688,-2.824097,0,0,-2.856689,0,4.077,0,0,0,0,nan,2,0.126,1,0,0.1000061,0.1000061,0.1000061,0.1000061,0,0,0,1,2
3295.797,0.00101,0.02539062,-0.005859375,0.03125,1.46875,-5.296875,10.32812,0.005859375,-0.0078125,0.01953125,0,0,0,-0.03137207,-0.002929688,-2.823853,0,0,-2.856689,0,4.077,0,0,0,0,nan,2,0.136,1,0,0.1000061,0.1000061,0.1000061,0.1000061,0,0,0,1,2
3295.807,0.00101,0.07617188,-0.02148438,0.0078125,2.21875,-1.070312,11.42188,0.02148438,-0.001953125,0.0078125,0,0,0,-0.03100586,-0.002807617,-2.82373,0,0,-2.856689,0,4.077,0,0,0,0,nan,2,0.146,1,0,0.1000061,0.1000061,0.1000061,0.1000061,0,0,0,1,2
3295.817,0.00101,0.01757812,-0.001953125,-0.02539062,0.421875,6.898438,7.4375,-0.001953125,0.0078125,-0.01367188,0,0,0,-0.03125,-0.002929688,-2.82373,0,0,-2.856689,0,4.077,0,0,0,0,nan,2,0.157,1,0,0.1000061,0.1000061,0.1000061,0.1000061,0,0,0,1,2
3295.827,0.00101,-0.01757812,0.0625,0.001953125,-0.53125,0.0078125,15.21094,-0.001953125,0.02539062,-0.01171875,0,0,0,-0.03173828,-0.002685547,-2.823975,0,0,-2.856689,0,4.077,0,0,0,0,nan,2,0.167,1,0,0.1000061,0.1000061,0.1000061,0.1000061,0,0,0,1,2
3295.837,0.001015,0.01171875,-0.02734375,-0.01953125,0.2109375,3.859375,3.75,-0.005859375,0.001953125,-0.01171875,0,0,0,-0.03198242,-0.002807617,-2.823975,0,0,-2.856689,0,4.077,0,0,0,0,nan,2,0.177,1,0,0.1000061,0.1000061,0.1000061,0.1000061,0,0,0,1,2
3295.847,0.00101,-0.03320312,0.01171875,-0.01367188,-0.515625,0.7578125,1.585938,-0.02148438,0.0078125,-0.001953125,0,0,0,-0.03186035,-0.002807617,-2.823975,0,0,-2.856689,0,4.077,0,0,0,0,nan,2,0.187,1,0,0.1000061,0.1000061,0.1000061,0.1000061,0,0,0,1,2
3295.858,0.001006,0.02148438,0.03320312,-0.02148438,-3.6875,-2.625,10.875,0.00390625,0.001953125,-0.00390625,0,0,0,-0.03173828,-0.002807617,-2.823975,0,0,-2.856689,0,4.077,0,0,0,0,nan,2,0.197,1,0,0.1000061,0.1000061,0.1000061,0.1000061,0,0,0,1,2
3295.867,0.001001,-0.01171875,0.01367188,-0.00390625,1.078125,-2.484375,5.226562,0.001953125,-0.005859375,0.00390625,0,0,0,-0.03186035,-0.002929688,-2.823975,0,0,-2.856689,0,4.077,0,0,0,0,nan,2,0.008,1,0,0.1000061,0.1000061,0.1000061,0.1000061,0,0,0,1,2
3295.877,0.001009,-0.03125,0.0234375,-0.02539062,-1.78125,-6.375,10.98438,-0.009765625,-0.00390625,-0.009765625,0,0,0,-0.03210449,-0.002685547,-2.823975,0,0,-2.856689,0,4.077,0,0,0,0,nan,2,0.018,1,0,0.1000061,0.1000061,0.1000061,0.1000061,0,0,0,1,2
3295.887,0.00101,-0.03320312,-0.02929688,0.00390625,-1.3125,1.257812,13.53906,-0.01367188,-0.01171875,0.005859375,0,0,0,-0.03198242,-0.002807617,-2.824097,0,0,-2.856689,0,4.077,0,0,0,0,nan,2,0.028,1,0,0.1000061,0.1000061,0.1000061,0.1000061,0,0,0,1,2
3295.897,0.00101,-0.01757812,0.0234375,-0.01367188,-1.210938,4.359375,3.078125,-0.005859375,-0.0078125,-0.0078125,0,0,0,-0.03186035,-0.003051758,-2.824097,0,0,-2.856689,0,4.077,0,0,0,0,nan,2,0.038,1,0,0.1000061,0.1000061,0.1000061,0.1000061,0,0,0,1,2
3295.907,0.00101,-0.02539062,0.03515625,-0.00390625,-1.273438,-0.6015625,1.273438,-0.009765625,0.0078125,-0.001953125,0,0,0,-0.03173828,-0.002929688,-2.824219,0,0,-2.856689,0,4.077,0,0,0,0,nan,2,0.048,1,0,0.1000061,0.1000061,0.1000061,0.1000061,0,0,0,1,2
3295.917,0.00101,0.01757812,0.01953125,-0.01367188,-3.328125,-4.125,12.09375,0.001953125,0.005859375,-0.00390625,0,0,0,-0.03173828,-0.002685547,-2.824097,0,0,-2.856689,0,4.077,0,0,0,0,nan,2,0.059,1,0,0.1000061,0.1000061,0.1000061,0.1000061,0,0,0,1,2
3295.927,0.00101,0.02734375,-0.01171875,0.005859375,-0.4609375,-0.765625,8.609375,-0.00390625,0.0078125,0.001953125,0,0,0,-0.03186035,-0.003051758,-2.824097,0,0,-2.856689,0,4.077,0,0,0,0,nan,2,0.069,1,0,0.1000061,0.1000061,0.1000061,0.1000061,0,0,0,1,2
3295.937,0.00101,-0.0078125,-0.05078125,0.01953125,1.085938,5.125,12.94531,0.001953125,-0.009765625,0.009765625,0,0,0,-0.03186035,-0.003051758,-2.824097,0,0,-2.856689,0,4.077,0,0,0,0,nan,2,0.079,1,0,0.1000061,0.1000061,0.1000061,0.1000061,0,0,0,1,2
3295.947,0.00101,0.001953125,0,0.009765625,0.6953125,-0.09375,11.33594,0.0078125,-0.01171875,0.009765625,0,0,0,-0.03161621,-0.003295898,-2.823975,0,0,-2.856689,0,4.077,0,0,0,0,nan,2,0.089,1,0,0.1000061,0.1000061,0.1000061,0.1000061,0,0,0,1,2
3295.958,0.001018,-0.02148438,-0.0078125,-0.02734375,1.03125,-6.914062,13.61719,-0.005859375,-0.0078125,-0.01171875,0,0,0,-0.03125,-0.003173828,-2.824097,0,0,-2.856689,0,4.077,0,0,0,0,nan,2,0.099,1,0,0.1000061,0.1000061,0.1000061,0.1000061,0,0,0,1,2
3295.968,0.001004,-0.0546875,0.04296875,-0.00390625,2.539062,-1.203125,17.88281,-0.01757812,0.01953125,-0.00390625,0,0,0,-0.03137207,-0.003173828,-2.824097,0,0,-2.856689,0,4.077,0,0,0,0,nan,2,0.109,1,0,0.1000061,0.1000061,0.1000061,0.1000061,0,0,0,1,2
3295.977,0.00101,0.009765625,-0.0234375,-0.015625,-2.632812,-3.617188,6.234375,-0.001953125,-0.001953125,-0.01171875,0,0,0,-0.03173828,-0.002929688,-2.824219,0,0,-2.856689,0,4.077,0,0,0,0,nan,2,0.118,1,0,0.1000061,0.1000061,0.1000061,0.1000061,0,0,0,1,2
3295.987,0.00101,0.01757812,0.015625,0.0078125,-1.507812,-1.851562,11.04688,-0.0078125,0.015625,0,0,0,0,-0.03161621,-0.002807617,-2.824219,0,0,-2.856689,0,4.077,0,0,0,0,nan,2,0.128,1,0,0.1000061,0.1000061,0.1000061,0.1000061,0,0,0,1,2
3295.997,0.00101,0.01367188,-0.01953125,0.00390625,0.859375,3.046875,10.58594,0.001953125,0,0,0,0,0,-0.03149414,-0.002807617,-2.824219,0,0,-2.856689,0,4.076,0,0,0,0,nan,2,0.138,1,0,0.1000061,0.1000061,0.1000061,0.1000061,0,0,0,1,2
3296.007,0.00101,0.02148438,-0.0078125,-0.01953125,0.875,-2.273438,10.32031,0.015625,0,-0.01367188,0,0,0,-0.03149414,-0.002807617,-2.824219,0,0,-2.856689,0,4.076,0,0,0,0,nan,2,0.148,1,0,0.1000061,0.1000061,0.1000061,0.1000061,0,0,0,1,2
3296.017,0.00101,-0.046875,-0.015625,-0.03125,-0.5625,-6.679688,12.21875,-0.01171875,-0.0078125,-0.02148438,0,0,0,-0.03149414,-0.002807617,-2.824463,0,0,-2.856689,0,4.076,0,0,0,0,nan,2,0.159,1,0,0.1000061,0.1000061,0.1000061,0.1000061,0,0,0,1,2
3296.027,0.00101,-0.02929688,-0.005859375,0.0078125,3.890625,-1.945312,6.992188,-0.009765625,0,0,0,0,0,-0.03173828,-0.002685547,-2.824585,0,0,-2.856689,0,4.076,0,0,0,0,nan,2,0.169,1,0,0.1000061,0.1000061,0.1000061,0.1000061,0,0,0,1,2
3296.037,0.00101,-0.01953125,-0.005859375,0.01367188,1.828125,-1.726562,14.3125,-0.0078125,-0.005859375,0.009765625,0,0,0,-0.03186035,-0.002319336,-2.824585,0,0,-2.856689,0,4.076,0,0,0,0,nan,2,0.179,1,0,0.1000061,0.1000061,0.1000061,0.1000061,0,0,0,1,2
3296.048,0.001024,-0.04296875,0.005859375,0.02148438,-0.296875,2.671875,14.82812,-0.005859375,0.00390625,0.02539062,0,0,0,-0.03173828,-0.002319336,-2.824463,0,0,-2.856689,0,4.076,0,0,0,0,nan,2,0.189,1,0,0.1000061,0.1000061,0.1000061,0.1000061,0,0,0,1,2
3296.058,0.001005,-0.01367188,0.05078125,-0.01953125,0.5,1.445312,6.03125,-0.00390625,0.001953125,0.00390625,0,0,0,-0.03222656,-0.002319336,-2.824219,0,0,-2.856689,0,4.076,0,0,0,0,nan,2,0,1,0,0.1000061,0.1000061,0.1000061,0.1000061,0,0,0,1,2
3296.068,0.001028,-0.04882812,-0.01171875,-0.009765625,0.6953125,-0.0234375,3.195312,-0.009765625,0,-0.00390625,0,0,0,-0.03210449,-0.002319336,-2.824341,0,0,-2.856689,0,4.076,0,0,0,0,nan,2,0.01,1,0,0.1000061,0.1000061,0.1000061,0.1000061,0,0,0,1,2
3296.077,0.001026,-0.03710938,0.005859375,-0.015625,3.046875,0.6171875,9.507812,-0.01953125,-0.0078125,-0.009765625,0,0,0,-0.03210449,-0.002319336,-2.824341,0,0,-2.856689,0,4.076,0,0,0,0,nan,2,0.019,1,0,0.1000061,0.1000061,0.1000061,0.1000061,0,0,0,1,2
3296.087,0.00101,-0.01367188,-0.0078125,0.02148438,4.015625,-0.984375,7.0625,0.009765625,-0.001953125,0.01367188,0,0,0,-0.03186035,-0.002441406,-2.824341,0,0,-2.856689,0,4.076,0,0,0,0,nan,2,0.029,1,0,0.1000061,0.1000061,0.1000061,0.1000061,0,0,0,1,2
3296.097,0.001042,-0.01367188,-0.00390625,0.009765625,0.5859375,0.96875,15.14062,0.00390625,-0.01171875,0.00390625,0,0,0,-0.03173828,-0.002441406,-2.824341,0,0,-2.856689,0,4.076,0,0,0,0,nan,2,0.039,1,0,0.1000061,0.1000061,0.1000061,0.1000061,0,0,0,1,2
3296.107,0.00101,-0.01757812,-0.03515625,0.02148438,-1.179688,4.078125,14.79688,-0.00390625,-0.01171875,0.009765625,0,0,0,-0.03149414,-0.002441406,-2.824341,0,0,-2.856689,0,4.076,0,0,0,0,nan,2,0.049,1,0,0.1000061,0.1000061,0.1000061,0.1000061,0,0,0,1,2
3296.117,0.00101,-0.01367188,-0.02148438,-0.00390625,0.2265625,0.8359375,7.539062,0,0,-0.01171875,0,0,0,-0.03198242,-0.002441406,-2.824341,0,0,-2.856689,0,4.076,0,0,0,0,nan,2,0.06,1,0,0.1000061,0.1000061,0.1000061,0.1000061,0,0,0,1,2
3296.127,0.00101,0.07226562,-0.02148438,0.015625,-1.382812,3.546875,3.789062,0.009765625,-0.001953125,-0.005859375,0,0,0,-0.03210449,-0.002319336,-2.824463,0,0,-2.856689,0,4.076,0,0,0,0,nan,2,0.07,1,0,0.1000061,0.1000061,0.1000061,0.1000061,0,0,0,1,2
3296.137,0.00101,0.04492188,0.02148438,0.001953125,-2.226562,-4.1875,5.085938,0.01953125,0.01367188,-0.005859375,0,0,0,-0.0324707,-0.002197266,-2.824585,0,0,-2.856689,0,4.076,0,0,0,0,nan,2,0.08,1,0,0.1000061,0.1000061,0.1000061,0.1000061,0,0,0,1,2
3296.148,0.001057,-0.02734375,0.04296875,-0.00390625,-1.796875,-2.5625,12.46094,-0.01171875,0.009765625,0.0078125,0,0,0,-0.03210449,-0.002319336,-2.824463,0,0,-2.856689,0,4.076,0,0,0,0,nan,2,0.09,1,0,0.1000061,0.1000061,0.1000061,0.1000061,0,0,0,1,2
3296.158,0.001017,-0.0234375,0.015625,-0.015625,1,2.335938,7.5,-0.01171875,-0.001953125,-0.00390625,0,0,0,-0.03173828,-0.002319336,-2.824463,0,0,-2.856689,0,4.076,0,0,0,0,nan,2,0.1,1,0,0.1000061,0.1000061,0.1000061,0.1000061,0,0,0,1,2
3296.168,0.001007,0.03515625,0.001953125,0.015625,1.617188,-2.359375,3.695312,0.02148438,-0.001953125,0.005859375,0,0,0,-0.03161621,-0.002319336,-2.824463,0,0,-2.856689,0,4.076,0,0,0,0,nan,2,0.11,1,0,0.1000061,0.1000061,0.1000061,0.1000061,0,0,0,1,2
3296.177,0.001008,0.01757812,-0.0078125,-0.01757812,1.1875,8,8.257812,-0.0078125,0.001953125,-0.01367188,0,0,0,-0.03198242,-0.002075195,-2.824463,0,0,-2.856689,0,4.076,0,0,0,0,nan,2,0.119,1,0,0.1000061,0.1000061,0.1000061,0.1000061,0,0,0,1,2
3296.187,0.00101,-0.02734375,0.005859375,0.0078125,-0.7109375,1.398438,5.390625,-0.01367188,-0.001953125,0.001953125,0,0,0,-0.03222656,-0.002075195,-2.824585,0,0,-2.856689,0,4.076,0,0,0,0,nan,2,0.129,1,0,0.1000061,0.1000061,0.1000061,0.1000061,0,0,0,1,2
3296.197,0.00101,0.02929688,-0.03710938,0.01171875,-1.039062,-4.890625,12.67188,0.01367188,-0.01171875,0.005859375,0,0,0,-0.03186035,-0.002197266,-2.824585,0,0,-2.856689,0,4.076,0,0,0,0,nan,2,0.139,1,0,0.1000061,0.1000061,0.1000061,0.1000061,0,0,0,1,2
3296.207,0.00101,0.03710938,-0.001953125,0,0.7109375,1.078125,13.44531,0.0078125,0.005859375,-0.005859375,0,0,0,-0.03173828,-0.002197266,-2.824585,0,0,-2.856689,0,4.076,0,0,0,0,nan,2,0.149,1,0,0.1000061,0.1000061,0.1000061,0.1000061,0,0,0,1,2
3296.217,0.00101,0.0078125,0.02148438,-0.015625,4.039062,0.546875,5.703125,-0.001953125,0.00390625,0.005859375,0,0,0,-0.03161621,-0.002197266,-2.824463,0,0,-2.856689,0,4.076,0,0,0,0,nan,2,0.16,1,0,0.1000061,0.1000061,0.1000061,0.1000061,0,0,0,1,2
3296.227,0.00101,0.02148438,-0.00390625,0.02148438,-2.085938,-2.898438,11.92969,0.01171875,-0.001953125,0.01171875,0,0,0,-0.03112793,-0.001831055,-2.824463,0,0,-2.856689,0,4.076,0,0,0,0,nan,2,0.17,1,0,0.1000061,0.1000061,0.1000061,0.1000061,0,0,0,1,2
3296.237,0.001009,0.0546875,-0.00390625,0.00390625,0.140625,-6.46875,7.992188,0,0,0.00390625,0,0,0,-0.03100586,-0.001708984,-2.824341,0,0,-2.856689,0,4.076,0,0,0,0,nan,2,0.18,1,0,0.1000061,0.1000061,0.1000061,0.1000061,0,0,0,1,2
3296.247,0.00101,-0.046875,0.01757812,0.009765625,1.335938,-1.851562,10.72656,-0.02539062,0.005859375,0.005859375,0,0,0,-0.03088379,-0.001953125,-2.824341,0,0,-2.856689,0,4.076,0,0,0,0,nan,2,0.19,1,0,0.1000061,0.1000061,0.1000061,0.1000061,0,0,0,1,2
3296.257,0.000996,0.02148438,-0.01171875,-0.005859375,-1.453125,4.710938,8.71875,0.01757812,-0.001953125,-0.01171875,0,0,0,-0.03088379,-0.001831055,-2.824463,0,0,-2.856689,0,4.076,0,0,0,0,nan,2,0.2,1,0,0.1000061,0.1000061,0.1000061,0.1000061,0,0,0,1,2
3296.267,0.001016,0.02539062,0.02734375,-0.0234375,-0.328125,-0.359375,8.757812,0.01171875,0.01367188,-0.01953125,0,0,0,-0.03100586,-0.001831055,-2.824585,0,0,-2.856689,0,4.076,0,0,0,0,nan,2,0.209,1,0,0.1000061,0.1000061,0.1000061,0.1000061,0,0,0,1,2
3296.277,0.001009,0.005859375,-0.01757812,0.01367188,-2.03125,0.4609375,11,0.02148438,-0.00390625,0.00390625,0,0,0,-0.03088379,-0.002197266,-2.824585,0,0,-2.856689,0,4.076,0,0,0,0,nan,2,0.009,1,0,0.1000061,0.1000061,0.1000061,0.1000061,0,0,0,1,2
3296.287,0.00101,0.04492188,0.02539062,-0.001953125,0.1015625,-5.265625,9.390625,-0.00390625,0.01953125,0,0,0,0,-0.03100586,-0.001953125,-2.824585,0,0,-2.856689,0,4.076,0,0,0,0,nan,2,0.019,1,0,0.1000061,0.1000061,0.1000061,0.1000061,0,0,0,1,2
3296.297,0.0009869999,-0.01953125,-0.03320312,0.015625,0.8046875,-4.890625,8.882812,-0.01367188,-0.01757812,0.01757812,0,0,0,-0.03063965,-0.001953125,-2.824463,0,0,-2.856689,0,4.076,0,0,0,0,nan,2,0.029,1,0,0.1000061,0.1000061,0.1000061,0.1000061,0,0,0,1,2
3296.307,0.001009,0.015625,-0.009765625,-0.001953125,-0.046875,4.070312,8.820312,0.009765625,0.00390625,-0.009765625,0,0,0,-0.03076172,-0.002075195,-2.824463,0,0,-2.856689,0,4.076,0,0,0,0,nan,2,0.039,1,0,0.1000061,0.1000061,0.1000061,0.1000061,0,0,0,1,2
3296.317,0.00101,-0.06640625,0.04101562,-0.001953125,-2.398438,3.03125,5.90625,-0.015625,0.001953125,-0.001953125,0,0,0,-0.03076172,-0.002075195,-2.824585,0,0,-2.856689,0,4.076,0,0,0,0,nan,2,0.049,1,0,0.1000061,0.1000061,0.1000061,0.1000061,0,0,0,1,2
3296.327,0.00101,-0.0234375,-0.03320312,0.01171875,0.890625,4.585938,9.96875,0,-0.009765625,0,0,0,0,-0.03027344,-0.0008544922,-2.824585,0,0,-2.856689,0,4.076,0,0,0,0,nan,2,0.06,1,0,0.1000061,0.1000061,0.1000061,0.1000061,0,0,0,1,2
3296.337,0.00101,-0.01953125,0,0,1.414062,2.148438,3.320312,-0.02539062,0.00390625,0.0078125,0,0,0,-0.03051758,-0.0003662109,-2.824463,0,0,-2.856689,0,4.076,0,0,0,0,nan,2,0.07,1,0,0.1000061,0.1000061,0.1000061,0.1000061,0,0,0,1,2
3296.347,0.00101,-0.04296875,-0.005859375,-0.009765625,-1.867188,-0.90625,12.10938,-0.009765625,-0.015625,0.005859375,0,0,0,-0.03039551,-0.0003662109,-2.824463,0,0,-2.856689,0,4.076,0,0,0,0,nan,2,0.08,1,0,0.1000061,0.1000061,0.1000061,0.1000061,0,0,0,1,2
3296.357,0.00101,0.01367188,0.00390625,-0.02148438,-1.960938,1.609375,16.71094,-0.0078125,0.01171875,-0.01171875,0,0,0,-0.03063965,-0.0003662109,-2.824463,0,0,-2.856689,0,4.076,0,0,0,0,nan,2,0.09,1,0,0.1000061,0.1000061,0.1000061,0.1000061,0,0,0,1,2
3296.368,0.00101,0.001953125,0.01757812,-0.0390625,1.75,-0.734375,11.04688,-0.015625,-0.0078125,-0.01953125,0,0,0,-0.03112793,-0.0003662109,-2.824585,0,0,-2.856689,0,4.076,0,0,0,0,nan,2,0.1,1,0,0.1000061,0.1000061,0.1000061,0.1000061,0,0,0,1,2
3296.377,0.000994,0.00390625,-0.02734375,0.02539062,-0.9765625,0.3828125,14.26562,0.001953125,0.00390625,0.001953125,0,0,0,-0.03100586,-0.0003662109,-2.824707,0,0,-2.856689,0,4.076,0,0,0,0,nan,2,0.109,1,0,0.1000061,0.1000061,0.1000061,0.1000061,0,0,0,1,2
3296.387,0.00101,-0.009765625,0,0.0078125,-0.6875,3.953125,2.78125,-0.01171875,-0.015625,0.00390625,0,0,0,-0.03100586,-0.0006103516,-2.824707,0,0,-2.856689,0,4.076,0,0,0,0,nan,2,0.119,1,0,0.1000061,0.1000061,0.1000061,0.1000061,0,0,0,1,2
3296.397,0.00101,0.05664062,-0.03710938,0.01953125,-0.71875,0.4765625,1.296875,0.02734375,-0.009765625,0.0078125,0,0,0,-0.03076172,-0.0006103516,-2.824585,0,0,-2.856689,0,4.076,0,0,0,0,nan,2,0.129,1,0,0.1000061,0.1000061,0.1000061,0.1000061,0,0,0,1,2
3296.407,0.00101,0.009765625,0.0390625,-0.02929688,-3.359375,-3.132812,13.5625,0.001953125,0.01171875,-0.0078125,0,0,0,-0.03063965,-0.0006103516,-2.824585,0,0,-2.856689,0,4.076,0,0,0,0,nan,2,0.139,1,0,0.1000061,0.1000061,0.1000061,0.1000061,0,0,0,1,2
3296.417,0.00101,-0.005859375,0.00390625,0.001953125,-1.773438,-0.296875,14.97656,0.01367188,0,0.001953125,0,0,0,-0.03063965,-0.0007324219,-2.824585,0,0,-2.856689,0,4.076,0,0,0,0,nan,2,0.149,1,0,0.1000061,0.1000061,0.1000061,0.1000061,0,0,0,1,2
3296.427,0.00101,0.009765625,-0.06640625,0.01171875,1.289062,5.21875,11.96875,0,-0.01171875,0.00390625,0,0,0,-0.03198242,-0.0006103516,-2.824585,0,0,-2.856689,0,4.076,0,0,0,0,nan,2,0.16,1,0,0.1000061,0.1000061,0.1000061,0.1000061,0,0,0,1,2
3296.437,0.000974,0.005859375,0.06054688,-0.0078125,-0.0703125,0.21875,11.78125,-0.0078125,0.01367188,0,0,0,0,-0.03259277,-0.0008544922,-2.824585,0,0,-2.856689,0,4.076,0,0,0,0,nan,2,0.17,1,0,0.1000061,0.1000061,0.1000061,0.1000061,0,0,0,1,2
3296.447,0.00101,-0.01757812,0.03320312,-0.015625,1.945312,-5.695312,12.78125,-0.009765625,0.005859375,-0.00390625,0,0,0,-0.0324707,-0.0008544922,-2.824585,0,0,-2.856689,0,4.076,0,0,0,0,nan,2,0.18,1,0,0.1000061,0.1000061,0.1000061,0.1000061,0,0,0,1,2
3296.458,0.001012,-0.06054688,0.001953125,0.00390625,3.148438,-3.601562,13.6875,-0.02539062,-0.001953125,0.001953125,0,0,0,-0.03210449,-0.0008544922,-2.824585,0,0,-2.856689,0,4.076,0,0,0,0,nan,2,0.19,1,0,0.1000061,0.1000061,0.1000061,0.1000061,0,0,0,1,2
3296.468,0.001012,0,-0.04101562,0,2.148438,5.859375,11.17969,0.005859375,-0.009765625,-0.009765625,0,0,0,-0.0324707,-0.0007324219,-2.824585,0,0,-2.856689,0,4.076,0,0,0,0,nan,2,0.009,1,0,0.1000061,0.1000061,0.1000061,0.1000061,0,0,0,1,2
3296.477,0.001004,0.02734375,0.00390625,-0.005859375,0.5703125,-0.90625,6.242188,0,0.009765625,-0.01171875,0,0,0,-0.03271484,-0.0006103516,-2.824707,0,0,-2.856689,0,4.076,0,0,0,0,nan,2,0.018,1,0,0.1000061,0.1000061,0.1000061,0.1000061,0,0,0,1,2
3296.487,0.001031,0.02734375,0.0234375,-0.01367188,1.835938,0.4609375,14.82812,0.0078125,0.0078125,-0.009765625,0,0,0,-0.03271484,-0.0007324219,-2.824829,0,0,-2.856689,0,4.076,0,0,0,0,nan,2,0.028,1,0,0.1000061,0.1000061,0.1000061,0.1000061,0,0,0,1,2
3296.497,0.00101,-0.0078125,0.001953125,-0.0078125,0.828125,0.9453125,15.98438,0.009765625,-0.01171875,0.001953125,0,0,0,-0.03234863,-0.0008544922,-2.824829,0,0,-2.856689,0,4.076,0,0,0,0,nan,2,0.038,1,0,0.1000061,0.1000061,0.1000061,0.1000061,0,0,0,1,2
3296.507,0.00101,-0.02734375,-0.02148438,-0.00390625,2.375,-1.78125,11.6875,-0.001953125,-0.0078125,-0.001953125,0,0,0,-0.03234863,-0.0007324219,-2.824829,0,0,-2.856689,0,4.076,0,0,0,0,nan,2,0.048,1,0,0.1000061,0.1000061,0.1000061,0.1000061,0,0,0,1,2
3296.517,0.00101,0.02539062,0.009765625,-0.0078125,2.9375,-1.75,6.742188,-0.0078125,0.01757812,-0.00390625,0,0,0,-0.03259277,-0.0007324219,-2.824829,0,0,-2.856689,0,4.076,0,0,0,0,nan,2,0.059,1,0,0.1000061,0.1000061,0.1000061,0.1000061,0,0,0,1,2
3296.527,0.00101,-0.01367188,0.02539062,0.00390625,0.3515625,-4.632812,6.773438,-0.01171875,-0.001953125,0.005859375,0,0,0,-0.03198242,-0.0008544922,-2.824829,0,0,-2.856689,0,4.076,0,0,0,0,nan,2,0.069,1,0,0.1000061,0.1000061,0.1000061,0.1000061,0,0,0,1,2
3296.537,0.00101,0,-0.0546875,0.02539062,-0.8125,-5,9.765625,0.01171875,-0.015625,0.02148438,0,0,0,-0.03112793,-0.0008544922,-2.824707,0,0,-2.856689,0,4.076,0,0,0,0,nan,2,0.079,1,0,0.1000061,0.1000061,0.1000061,0.1000061,0,0,0,1,2
3296.547,0.00101,-0.03125,0.02929688,-0.01953125,-0.7734375,1.96875,10.35938,-0.015625,0.01953125,-0.005859375,0,0,0,-0.03100586,-0.0009765625,-2.824585,0,0,-2.856689,0,4.076,0,0,0,0,nan,2,0.089,1,0,0.1000061,0.1000061,0.1000061,0.1000061,0,0,0,1,2
3296.557,0.00101,0.005859375,-0.04492188,0.00390625,-1.664062,6.195312,5.882812,0.005859375,-0.01171875,-0.005859375,0,0,0,-0.03137207,-0.001098633,-2.824707,0,0,-2.856689,0,4.076,0,0,0,0,nan,2,0.099,1,0,0.1000061,0.1000061,0.1000061,0.1000061,0,0,0,1,2
3296.568,0.001009,0.01367188,0,-0.01171875,-3.492188,-1.351562,4.539062,-0.001953125,0.01171875,-0.01757812,0,0,0,-0.03161621,-0.001098633,-2.824951,0,0,-2.856689,0,4.076,0,0,0,0,nan,2,0.109,1,0,0.1000061,0.1000061,0.1000061,0.1000061,0,0,0,1,2
3296.578,0.001008,0.0078125,-0.03710938,0.01171875,-2.148438,-7.710938,9.789062,0.02148438,-0.015625,0.00390625,0,0,0,-0.03137207,-0.001098633,-2.824951,0,0,-2.856689,0,4.076,0,0,0,0,nan,2,0.119,1,0,0.1000061,0.1000061,0.1000061,0.1000061,0,0,0,1,2
3296.587,0.001008,0.02929688,-0.00390625,-0.0078125,0.1796875,1.171875,10.28125,-0.005859375,0.009765625,-0.00390625,0,0,0,-0.03112793,-0.0009765625,-2.824951,0,0,-2.856689,0,4.076,0,0,0,0,nan,2,0.128,1,0,0.1000061,0.1000061,0.1000061,0.1000061,0,0,0,1,2
3296.597,0.00101,-0.01171875,-0.01953125,0.0078125,-0.15625,-1.101562,3.328125,0.005859375,-0.0078125,0.00390625,0,0,0,-0.03125,-0.0009765625,-2.824951,0,0,-2.856689,0,4.076,0,0,0,0,nan,2,0.138,1,0,0.1000061,0.1000061,0.1000061,0.1000061,0,0,0,1,2
3296.607,0.00101,-0.03320312,0.00390625,-0.01757812,-0.265625,-0.0390625,3.929688,-0.03320312,0.00390625,-0.01171875,0,0,0,-0.03137207,-0.001220703,-2.824951,0,0,-2.856689,0,4.076,0,0,0,0,nan,2,0.148,1,0,0.1000061,0.1000061,0.1000061,0.1000061,0,0,0,1,2
3296.617,0.00101,0.0390625,-0.02929688,-0.001953125,-1.078125,2.789062,10.17969,0.015625,-0.005859375,-0.0078125,0,0,0,-0.03149414,-0.001098633,-2.825073,0,0,-2.856689,0,4.076,0,0,0,0,nan,2,0.159,1,0,0.1000061,0.1000061,0.1000061,0.1000061,0,0,0,1,2
3296.627,0.00101,-0.05664062,-0.02539062,0.00390625,-2.015625,-1.578125,11.89062,-0.02929688,-0.01757812,0.005859375,0,0,0,-0.03186035,-0.001342773,-2.825073,0,0,-2.856689,0,4.076,0,0,0,0,nan,2,0.169,1,0,0.1000061,0.1000061,0.1000061,0.1000061,0,0,0,1,2
3296.637,0.001,0.005859375,0.04101562,0.01367188,-0.78125,5.117188,9.664062,-0.00390625,0.01953125,0,0,0,0,-0.0324707,-0.001342773,-2.825073,0,0,-2.856689,0,4.076,0,0,0,0,nan,2,0.179,1,0,0.1000061,0.1000061,0.1000061,0.1000061,0,0,0,1,2
3296.647,0.0009860001,-0.00390625,-0.04492188,0.01953125,-0.140625,1.046875,8.71875,-0.005859375,-0.02148438,0.0234375,0,0,0,-0.03222656,-0.001464844,-2.824951,0,0,-2.856689,0,4.077,0,0,0,0,nan,2,0.189,1,0,0.1000061,0.1000061,0.1000061,0.1000061,0,0,0,1,2
3296.658,0.001008,0.01757812,0.01757812,-0.015625,0.125,-7.242188,12.08594,-0.009765625,0.0078125,-0.005859375,0,0,0,-0.03271484,-0.001464844,-2.824829,0,0,-2.856689,0,4.077,0,0,0,0,nan,2,0.199,1,0,0.1000061,0.1000061,0.1000061,0.1000061,0,0,0,1,2
3296.668,0.001011,0.0234375,-0.0078125,0.01367188,1.328125,-4.875,17.52344,0.02734375,0.001953125,0.001953125,0,0,0,-0.0324707,-0.001342773,-2.824951,0,0,-2.856689,0,4.077,0,0,0,0,nan,2,0.209,1,0,0.1000061,0.1000061,0.1000061,0.1000061,0,0,0,1,2
3296.677,0.00102,-0.02929688,-0.01953125,0.0234375,-2.859375,-1.101562,5.523438,-0.005859375,-0.01757812,0.015625,0,0,0,-0.0324707,-0.001586914,-2.824829,0,0,-2.856689,0,4.077,0,0,0,0,nan,2,0.218,1,0,0.1000061,0.1000061,0.1000061,0.1000061,0,0,0,1,2
3296.687,0.000977,-0.04492188,-0.01171875,-0.001953125,-2,-3.515625,4.046875,-0.03320312,0.001953125,0.0078125,0,0,0,-0.03259277,-0.001586914,-2.824707,0,0,-2.856689,0,4.077,0,0,0,0,nan,2,0.228,1,0,0.1000061,0.1000061,0.1000061,0.1000061,0,0,0,1,2
3296.697,0.000988,-0.02539062,-0.04101562,0.01171875,-0.1484375,-1.226562,11.14062,-0.005859375,-0.005859375,0.01171875,0,0,0,-0.03259277,-0.001586914,-2.824585,0,0,-2.856689,0,4.077,0,0,0,0,nan,2,0.009,1,0,0.1000061,0.1000061,0.1000061,0.1000061,0,0,0,1,2
3296.707,0.00101,-0.03515625,0.02539062,-0.009765625,-1.539062,0.6328125,12.82031,-0.01953125,-0.005859375,0,0,0,0,-0.03259277,-0.001831055,-2.824463,0,0,-2.856689,0,4.077,0,0,0,0,nan,2,0.019,1,0,0.1000061,0.1000061,0.1000061,0.1000061,0,0,0,1,2
3296.717,0.00101,0.02734375,-0.009765625,-0.01953125,-0.4140625,-3.796875,10.95312,0.009765625,0.005859375,-0.02148438,0,0,0,-0.03259277,-0.001586914,-2.824707,0,0,-2.856689,0,4.077,0,0,0,0,nan,2,0.029,1,0,0.1000061,0.1000061,0.1000061,0.1000061,0,0,0,1,2
3296.727,0.000999,-0.046875,0.02539062,-0.00390625,3.5,3.59375,10.14062,-0.01171875,-0.005859375,0.001953125,0,0,0,-0.03259277,-0.001586914,-2.824707,0,0,-2.856689,0,4.077,0,0,0,0,nan,2,0.039,1,0,0.1000061,0.1000061,0.1000061,0.1000061,0,0,0,1,2
3296.737,0.000995,0.009765625,-0.005859375,-0.009765625,2.328125,-2.601562,9.3125,-0.01171875,0.01953125,-0.00390625,0,0,0,-0.03295898,-0.001464844,-2.824707,0,0,-2.856689,0,4.077,0,0,0,0,nan,2,0.049,1,0,0.1000061,0.1000061,0.1000061,0.1000061,0,0,0,1,2
3296.748,0.000995,0.01757812,0.01171875,0.009765625,0.21875,-4.375,13.48438,0.0078125,0.001953125,0.01171875,0.1972656,0.0078125,0,-0.03271484,-0.001220703,-2.824707,0,0,-2.856689,0.1421204,4.077,0,0,0,0.09997559,nan,2,0.009,1,0,0.1688843,0.1174622,0.1455994,0.1364746,0,0,0,1,2
3296.758,0.001046,0.001953125,0.02539062,-0.001953125,-0.828125,4.84375,14,-0.001953125,0,0.001953125,0.1972656,0.0078125,0,-0.03283691,-0.001342773,-2.824585,0,0,-2.856689,0.1421204,4.077,0,0,0,0.09997559,nan,2,0.019,1,0,0.1484985,0.1341858,0.1220093,0.1637268,0,0,0,1,2
3296.768,0.001004,-0.04492188,0.02734375,-0.03710938,2.21875,-4.90625,11.125,-0.02929688,0.015625,-0.0234375,0.1972656,0.0078125,0,-0.03308105,-0.001342773,-2.824707,0,0,-2.856689,0.1421204,4.077,0,0,0,0.09997559,nan,2,0.029,1,0,0.1260681,0.1528931,0.09616089,0.1932983,0.0009765625,0,0,1,2
3296.777,0.001004,-0.03125,0.046875,0.005859375,-2.796875,2.65625,4.132812,-0.0078125,0.0078125,-0.01171875,0.1972656,0.0078125,0,-0.03295898,-0.001464844,-2.824951,0,0,-2.856689,0.1421204,4.077,0,0,0,0.09997559,nan,2,0.038,1,0,0.1741943,0.1098022,0.1480408,0.1363831,0.0009765625,0,0,1,2
3296.787,0.001015,-0.04492188,0.0234375,-0.01367188,4.15625,-1.507812,11.49219,0.01171875,-0.0078125,-0.009765625,0.1953125,0.009765625,0,-0.0324707,-0.001586914,-2.825073,0,0,-2.856689,0.1421204,4.077,0,0,0,0.09997559,nan,2,0.048,1,0,0.152832,0.1320801,0.1249084,0.1585999,0.0009765625,0,0,1,2
3296.797,0.000993,0.01171875,0.05078125,-0.03125,-1.140625,-2.539062,12.4375,0.005859375,-0.001953125,-0.02539062,0.1933594,0.009765625,0,-0.03234863,-0.001708984,-2.825195,0,0,-2.856689,0.1421204,4.077,0,0,0,0.09997559,nan,2,0.059,1,0,0.1343689,0.1496887,0.1088257,0.1755066,0.0009765625,0,0,1,2
3296.807,0.00101,-0.04296875,0.01367188,-0.01367188,-1.6875,1.382812,5.117188,-0.015625,0.005859375,-0.015625,0.1933594,0.01171875,0,-0.03234863,-0.001831055,-2.825439,0,0,-2.856689,0.1421204,4.077,0,0,0,0.09997559,nan,2,0.069,1,0,0.1647949,0.1197815,0.1295166,0.1543274,0.0009765625,0,0,1,2
3296.817,0.00101,-0.01367188,0.02929688,0.0078125,1.117188,-0.3125,9.351562,-0.005859375,0.0078125,0.005859375,0.1914062,0.009765625,0,-0.03210449,-0.001708984,-2.825439,0,0,-2.856689,0.1421204,4.077,0,0,0,0.09997559,nan,2,0.079,1,0,0.1724243,0.1101379,0.1456909,0.1401672,0.001953125,0,0,1,2
3296.827,0.001009,0.02734375,-0.01171875,-0.009765625,1.726562,-2.554688,16.40625,0.00390625,0.00390625,-0.001953125,0.1875,0.01171875,0,-0.03137207,-0.001953125,-2.825439,0,0,-2.856689,0.1421204,4.077,0,0,0,0.09997559,nan,2,0.089,1,0,0.1377869,0.148407,0.115387,0.1668091,0.001953125,0,0,1,2
3296.838,0.000994,0.02734375,-0.009765625,-0.02148438,0.375,-8.59375,10.70312,0.001953125,-0.001953125,-0.005859375,0.1875,0.01367188,0,-0.03137207,-0.002197266,-2.825439,0,0,-2.856689,0.1842041,4.077,0,0,0,0.1500244,nan,2,0.009,1,0,0.1846924,0.1871643,0.1569824,0.2080078,0.001953125,0,0,1,2
3296.848,0.001036,0.03515625,0.0078125,0.015625,1.953125,-4.679688,9.898438,-0.009765625,0.00390625,0.01757812,0.1875,0.01171875,0,-0.03112793,-0.001953125,-2.825439,0,0,-2.856689,0.1842041,4.077,0,0,0,0.1500244,nan,2,0.019,1,0,0.2332153,0.1376648,0.2016602,0.1643066,0.001953125,0,0,1,2
3296.858,0.00104,0.02148438,-0.005859375,0.03320312,3.671875,1.5,3.8125,0.02734375,-0.015625,0.0390625,0.1855469,0.01171875,0,-0.03088379,-0.002075195,-2.825195,0,0,-2.856689,0,4.077,0,0,0,0,nan,2,0,1,0,0.1000061,0.1000061,0.1000061,0.1000061,0,0,0,1,2
3296.868,0.001008,0.01171875,0.00390625,0.03515625,1.945312,-5.242188,1.25,-0.01367188,0.005859375,0.0234375,0.1855469,0.01171875,0,-0.03076172,-0.002441406,-2.824951,0,0,-2.856689,0,4.077,0,0,0,0,nan,2,0.01,1,0,0.1000061,0.1000061,0.1000061,0.1000061,0,0,0,1,2
3296.877,0.000998,-0.01171875,-0.0078125,0.02539062,0.0625,8.273438,7.625,0.001953125,0,0.03515625,0.1855469,0.01171875,0,-0.03051758,-0.002441406,-2.824585,0,0,-2.856689,0,4.077,0,0,0,0,nan,2,0.019,1,0,0.1000061,0.1000061,0.1000061,0.1000061,0,0,0,1,2
3296.887,0.000985,-0.03710938,-0.015625,0.0546875,-3.609375,0.0859375,13.85938,-0.03320312,0.009765625,0.0390625,0.1855469,0.01171875,0,-0.03063965,-0.002197266,-2.824341,0,0,-2.856689,0,4.077,0,0,0,0,nan,2,0.029,1,0,0.1000061,0.1000061,0.1000061,0.1000061,0,0,0,1,2
3296.897,0.001001,0.02148438,0.05859375,0.01757812,1.1875,-6.101562,16.99219,0.01171875,0.00390625,0.0234375,0.1855469,0.01171875,0,-0.03063965,-0.002197266,-2.823975,0,0,-2.856689,0,4.077,0,0,0,0,nan,2,0.039,1,0,0.1000061,0.1000061,0.1000061,0.1000061,0,0,0,1,2
3296.907,0.00101,-0.01953125,-0.08789062,0.0390625,-0.015625,-2.859375,10.10938,0.0078125,-0.015625,0.0390625,0.1855469,0.01171875,0,-0.03088379,-0.002197266,-2.82373,0,0,-2.856689,0,4.077,0,0,0,0,nan,2,0.049,1,0,0.1000061,0.1000061,0.1000061,0.1000061,0,0,0,1,2
3296.917,0.00101,0.04101562,-0.01171875,0.03710938,1.601562,-2.34375,10.875,-0.01171875,-0.005859375,0.03320312,0.1855469,0.01171875,0,-0.03125,-0.002075195,-2.823364,0,0,-2.856689,0,4.077,0,0,0,0,nan,2,0.06,1,0,0.1000061,0.1000061,0.1000061,0.1000061,0,0,0,1,2
3296.927,0.00101,0.02148438,0.01171875,0.0234375,-0.4765625,2.601562,22.33594,0.009765625,-0.0078125,0.02148438,0.1855469,0.01171875,0,-0.03100586,-0.002319336,-2.82312,0,0,-2.856689,0,4.077,0,0,0,0,nan,2,0.07,1,0,0.1000061,0.1000061,0.1000061,0.1000061,0,0,0,1,2
3296.937,0.001191,0.02148438,-0.09375,0.0546875,1.9375,8.257812,14.19531,0.02148438,-0.03125,0.03710938,0.1855469,0.01367188,0,-0.03100586,-0.002197266,-2.822876,0,0,-2.856689,0.2263184,4.077,0,0,0,0.2000122,nan,2,0.001,1,0,0.2618408,0.2026672,0.230835,0.2099304,0,0,0,1,2
3296.947,0.00101,-0.01367188,-0.08789062,0.0703125,1.554688,-3.382812,11.07812,-0.009765625,-0.04101562,0.0546875,0.1835938,0.01367188,0,-0.03076172,-0.002319336,-2.822388,0,0,-2.856689,0.2263184,4.077,0,0,0,0.2000122,nan,2,0.012,1,0,0.2890625,0.1809692,0.2451477,0.1900635,0,0,0,1,2
3296.957,0.00101,0.03320312,0.0625,0.02539062,1.539062,0.953125,4.992188,-0.001953125,0.015625,0.03710938,0.1894531,0.01367188,0,-0.03149414,-0.002441406,-2.821899,0,0,-2.856689,0.2263184,4.077,0,0,0,0.2000122,nan,2,0.022,1,0,0.2197876,0.2240906,0.205719,0.2556763,0,0,0,1,2
3296.968,0.001015,0.03710938,0.01757812,0.0546875,-0.5859375,10.74219,16.0625,0.001953125,0.009765625,0.06640625,0.1875,0.015625,0,-0.03125,-0.002563477,-2.821289,0,0,-2.856689,0.2263184,4.077,0,0,0,0.2000122,nan,2,0.032,1,0,0.2680054,0.1839905,0.2458801,0.2073669,0.0009765625,0,0,1,2
3296.977,0.001,0.0703125,-0.06640625,0.1308594,1.554688,6.070312,14.90625,0.02148438,-0.04296875,0.0703125,0.1875,0.01757812,0,-0.03125,-0.003051758,-2.820801,0,0,-2.856689,0.2263184,4.077,0,0,0,0.2000122,nan,2,0.041,1,0,0.2947693,0.1740417,0.2634888,0.1729736,0.0009765625,0,0,1,2
3296.987,0.00101,0.1054688,-0.015625,0.09179688,2.484375,-5.320312,0.1484375,0.03710938,-0.03710938,0.09570312,0.1816406,0.01953125,0,-0.03039551,-0.003417969,-2.819824,0,0,-2.856689,0.2263184,4.077,0,0,0,0.2000122,nan,2,0.052,1,0,0.2819214,0.1817017,0.2614441,0.1801758,0.0009765625,0,0,1,2
3296.997,0.00105,0.06054688,-0.05664062,0.078125,2.835938,-4.578125,1.546875,0.03320312,-0.015625,0.09960938,0.1894531,0.0234375,0,-0.03161621,-0.00378418,-2.818848,0,0,-2.856689,0.2263184,4.077,0,0,0,0.2000122,nan,2,0.062,1,0,0.2597961,0.1939697,0.2397156,0.211731,0.0009765625,0,0,1,2
3297.007,0.00101,0.009765625,0.04492188,0.06054688,-2.703125,-6.539062,9.960938,0.001953125,0.015625,0.07421875,0.1894531,0.02539062,0,-0.03137207,-0.004272461,-2.817993,0,0,-2.856689,0.2263184,4.077,0,0,0,0.2000122,nan,2,0.072,1,0,0.2427979,0.2012329,0.2169189,0.2442932,0.0009765625,0,0,1,2
3297.017,0.00101,-0.05273438,0.109375,0.1074219,1.007812,-4.726562,4.945312,-0.04101562,0.015625,0.109375,0.1855469,0.02539062,0,-0.03100586,-0.00402832,-2.817017,0,0,-2.856689,0.2263184,4.077,0,0,0,0.2000122,nan,2,0.082,1,0,0.3066406,0.1420593,0.2653809,0.1911621,0.0009765625,0,0,1,2
3297.027,0.001025,0.05273438,-0.01757812,0.1582031,2.21875,-5.695312,2.960938,0.009765625,-0.005859375,0.1269531,0.1816406,0.02148438,0,-0.03039551,-0.003540039,-2.815796,0,0,-2.856689,0.2263184,4.077,0,0,0,0.2000122,nan,2,0.092,1,0,0.2990417,0.1583862,0.2814941,0.1663513,0.001953125,0,0,1,2
3297.037,0.001012,0.009765625,0.00390625,0.01953125,-3.578125,2.242188,17.57812,0.0234375,0,0.06640625,0.1835938,0.02148438,0,-0.03076172,-0.003662109,-2.814697,0,0,-2.856689,0.2263184,4.077,0,0,0,0.2000122,nan,2,0.003,1,0,0.1741028,0.2754517,0.1595459,0.2961731,0.001953125,0,0,1,2
3297.047,0.00101,-0.001953125,-0.1347656,0.07226562,4.078125,4.1875,6.429688,-0.005859375,0.00390625,0.046875,0.1894531,0.0234375,0,-0.03149414,-0.00390625,-2.814331,0,0,-2.856689,0.2263184,4.077,0,0,0,0.2000122,nan,2,0.013,1,0,0.2580872,0.2002869,0.2263489,0.2205505,0.001953125,0,0,1,2
3297.057,0.000989,0.046875,0,0.08789062,-0.9765625,-3.226562,2.46875,0.01757812,-0.0546875,0.1113281,0.1855469,0.0234375,0,-0.03076172,-0.00390625,-2.813354,0,0,-2.856689,0.2263184,4.077,0,0,0,0.2000122,nan,2,0.023,1,0,0.3128967,0.1654968,0.2673645,0.1595154,0.001953125,0,0,1,2
3297.068,0.001012,0.01171875,0,0.015625,-1.9375,5.695312,18.01562,0.009765625,0.01367188,0.05273438,0.1855469,0.0234375,0,-0.03100586,-0.004150391,-2.812622,0,0,-2.856689,0,4.077,0,0,0,0,nan,2,0.006,1,0,0.1000061,0.1000061,0.1000061,0.1000061,0,0,0,1,2
3297.078,0.001016,-0.1015625,0.03710938,0.1289062,0.2421875,1.132812,12.48438,-0.0078125,0.009765625,0.1074219,0.1855469,0.0234375,0,-0.03063965,-0.004394531,-2.81189,0,0,-2.856689,0,4.077,0,0,0,0,nan,2,0.016,1,0,0.1000061,0.1000061,0.1000061,0.1000061,0,0,0,1,2
3297.087,0.001014,-0.0078125,-0.0859375,0.1074219,0.1875,3.515625,2.921875,-0.00390625,0,0.1445312,0.1855469,0.0234375,0,-0.03149414,-0.004516602,-2.810425,0,0,-2.856689,0,4.077,0,0,0,0,nan,2,0.025,1,0,0.1000061,0.1000061,0.1000061,0.1000061,0,0,0,1,2
3297.097,0.000982,0.01757812,0.1855469,0.1386719,1.835938,1.164062,12.125,0.01757812,0.02539062,0.1035156,0.1855469,0.0234375,0,-0.03149414,-0.004394531,-2.809448,0,0,-2.856689,0,4.077,0,0,0,0,nan,2,0.035,1,0,0.1000061,0.1000061,0.1000061,0.1000061,0,0,0,1,2
3297.107,0.001003,-0.03125,-0.1875,0.08398438,0.9140625,-5.664062,16.51562,-0.001953125,-0.02539062,0.1191406,0.1855469,0.0234375,0,-0.03100586,-0.004272461,-2.808105,0,0,-2.856689,0,4.077,0,0,0,0,nan,2,0.045,1,0,0.1000061,0.1000061,0.1000061,0.1000061,0,0,0,1,2
3297.117,0.001005,-0.1132812,0.1464844,0.09179688,0.171875,-3.335938,11.6875,-0.02148438,-0.009765625,0.1113281,0.1855469,0.0234375,0,-0.03137207,-0.004394531,-2.807007,0,0,-2.856689,0,4.077,0,0,0,0,nan,2,0.056,1,0,0.1000061,0.1000061,0.1000061,0.1000061,0,0,0,1,2
3297.127,0.001003,0.04492188,-0.07421875,0.0859375,2.0625,-8.890625,5.0625,0.01367188,-0.02148438,0.09179688,0.1855469,0.0234375,0,-0.0324707,-0.004638672,-2.80603,0,0,-2.856689,0,4.077,0,0,0,0,nan,2,0.066,1,0,0.1000061,0.1000061,0.1000061,0.1000061,0,0,0,1,2
3297.137,0.001003,0.005859375,0.01171875,0.07226562,0.203125,-5.578125,8.84375,0.03320312,0.009765625,0.08984375,0.1953125,0.02929688,0,-0.03259277,-0.004760742,-2.805054,0,0,-2.856689,0.2263184,4.077,0,0,0,0.2000122,nan,2,0.008,1,0,0.2318726,0.2164307,0.2201843,0.2367859,0,0,0,1,2
3297.147,0.00101,0.005859375,0.01953125,0.1171875,-2.28125,3.773438,12.35156,-0.0078125,0.0078125,0.07421875,0.1953125,0.02734375,0,-0.03259277,-0.004638672,-2.804321,0,0,-2.856689,0.2263184,4.077,0,0,0,0.2000122,nan,2,0.018,1,0,0.2679443,0.1881104,0.2351379,0.2141113,0,0,0,1,2
3297.157,0.001015,-0.06835938,-0.03320312,0.06445312,-3.429688,-0.2890625,9.203125,-0.01171875,0.02734375,0.08984375,0.1953125,0.02539062,0,-0.03259277,-0.004272461,-2.803345,0,0,-2.856689,0.2263184,4.077,0,0,0,0.2000122,nan,2,0.028,1,0,0.2579041,0.1913757,0.229248,0.2267456,0.0009765625,0,0,1,2
3297.168,0.001011,0.04882812,0.04296875,0.0859375,3.695312,-1.765625,4.078125,0.00390625,-0.02148438,0.09375,0.1953125,0.02539062,0,-0.03271484,-0.004272461,-2.80249,0,0,-2.856689,0.2263184,4.077,0,0,0,0.2000122,nan,2,0.038,1,0,0.276886,0.1853638,0.2466125,0.1964111,0.0009765625,0,0,1,2
3297.177,0.001006,0,0.09960938,0.1113281,-1.6875,-7.46875,9.960938,0.001953125,0.0078125,0.08203125,0.1875,0.0234375,0,-0.03112793,-0.00402832,-2.801758,0,0,-2.856689,0.2263184,4.077,0,0,0,0.2000122,nan,2,0.047,1,0,0.2685852,0.1756592,0.2523499,0.2086487,0.0009765625,0,0,1,2
3297.187,0.001008,-0.05078125,-0.08789062,0.06445312,2.960938,0.9609375,-2.632812,-0.01367188,-0.0078125,0.07226562,0.1933594,0.0234375,0,-0.03234863,-0.00378418,-2.800903,0,0,-2.856689,0.2263184,4.077,0,0,0,0.2000122,nan,2,0.058,1,0,0.2539062,0.2086792,0.2129211,0.2297668,0.0009765625,0,0,1,2
3297.197,0.00099,0.07226562,0.00390625,0.02148438,-0.6875,-3.25,4.828125,0.01367188,-0.009765625,0.02734375,0.1933594,0.02148438,0,-0.03222656,-0.003662109,-2.800415,0,0,-2.856689,0.2263184,4.077,0,0,0,0.2000122,nan,2,0.068,1,0,0.2009888,0.2585754,0.176239,0.2694397,0.0009765625,0,0,1,2
3297.207,0.00101,-0.009765625,0.03710938,-0.0390625,0.046875,-10.02344,4.390625,-0.005859375,0.01757812,-0.015625,0.1972656,0.02148438,0,-0.03295898,-0.003662109,-2.800293,0,0,-2.856689,0.2263184,4.077,0,0,0,0.2000122,nan,2,0.078,1,0,0.1716919,0.2719421,0.151062,0.3105774,0.001953125,0,0,1,2
3297.217,0.00101,-0.09179688,-0.005859375,-0.02929688,3.078125,-9.96875,3.585938,-0.0390625,-0.0234375,-0.01953125,0.203125,0.02539062,0,-0.03369141,-0.004150391,-2.800415,0,0,-2.856689,0.2263184,4.077,0,0,0,0.2000122,nan,2,0.088,1,0,0.2311707,0.2330322,0.1740417,0.2670288,0.001953125,0,0,1,2
3297.227,0.001025,-0.078125,0.1660156,-0.08789062,2.242188,-0.9140625,1.75,0.0078125,0.03710938,-0.03125,0.1914062,0.02148438,0,-0.03186035,-0.003662109,-2.800415,0,0,-2.856689,0.2263184,4.077,0,0,0,0.2000122,nan,2,0,1,0,0.1698608,0.269043,0.1561584,0.3101807,0.001953125,0,0,1,2
3297.237,0.001016,-0.078125,-0.0703125,-0.02148438,1.21875,1.554688,2.8125,-0.03710938,-0.03320312,-0.01171875,0.1914062,0.02539062,0,-0.03186035,-0.004150391,-2.800659,0,0,-2.856689,0.2263184,4.077,0,0,0,0.2000122,nan,2,0.01,1,0,0.2704163,0.2010498,0.2107544,0.2230835,0.001953125,0,0,1,2
3297.247,0.00101,-0.07226562,0.1835938,0.0078125,2.953125,-6,8.046875,-0.03710938,0.04296875,0.01953125,0.1855469,0.0234375,0,-0.03076172,-0.00378418,-2.800537,0,0,-2.856689,0.2263184,4.077,0,0,0,0.2000122,nan,2,0.02,1,0,0.2549438,0.180481,0.2377319,0.2320862,0.001953125,0,0,1,2
3297.257,0.001012,0.02148438,-0.02929688,0.03710938,0.71875,-6.234375,5.523438,0.04492188,-0.01171875,0.04101562,0.1875,0.02539062,0,-0.03137207,-0.004272461,-2.800293,0,0,-2.856689,0.2263184,4.077,0,0,0,0.2000122,nan,2,0.03,1,0,0.263031,0.1932678,0.25,0.1989441,0.002929688,0,0,1,2
3297.267,0.001016,0.06640625,-0.03125,0.02148438,-0.6328125,-3.171875,11.60938,0.05273438,-0.07226562,0.06054688,0.1894531,0.02539062,0,-0.02905273,-0.004150391,-2.799683,0,0,-2.856689,0,4.077,0,0,0,0,nan,2,0.008,1,0,0.1000061,0.1000061,0.1000061,0.1000061,0,0,0,1,2
3297.278,0.001012,0.01953125,0.1523438,0.1054688,-1.515625,-1.023438,12.25781,0.01757812,0.0390625,0.0859375,0.1894531,0.02539062,0,-0.02978516,-0.004394531,-2.799072,0,0,-2.856689,0,4.077,0,0,0,0,nan,2,0.018,1,0,0.1000061,0.1000061,0.1000061,0.1000061,0,0,0,1,2
3297.287,0.00099,-0.02539062,-0.2226562,0.06054688,-1.765625,0.703125,11.875,-0.0234375,-0.01171875,0.05078125,0.1894531,0.02539062,0,-0.02929688,-0.00378418,-2.798584,0,0,-2.856689,0,4.077,0,0,0,0,nan,2,0.027,1,0,0.1000061,0.1000061,0.1000061,0.1000061,0,0,0,1,2
3297.297,0.000988,0,0.15625,0,-1.375,-2.085938,8.515625,0.009765625,0.0234375,0.05078125,0.1894531,0.02539062,0,-0.02868652,-0.003540039,-2.797852,0,0,-2.856689,0,4.048,0,0,0,0,nan,2,0.037,1,0,0.1000061,0.1000061,0.1000061,0.1000061,0,0,0,1,2
3297.307,0.001048,-0.05273438,-0.08789062,0.0234375,0.484375,9.914062,10.07812,-0.009765625,0.009765625,0.03320312,0.1894531,0.02539062,0,-0.02880859,-0.003417969,-2.797485,0,0,-2.856689,0,4.048,0,0,0,0,nan,2,0.048,1,0,0.1000061,0.1000061,0.1000061,0.1000061,0,0,0,1,2
3297.317,0.00101,0.009765625,0.1074219,0.001953125,-0.6484375,-5.875,9.46875,0.0234375,0.01953125,0.01171875,0.1894531,0.02539062,0,-0.02832031,-0.002929688,-2.797119,0,0,-2.856689,0,4.048,0,0,0,0,nan,2,0.058,1,0,0.1000061,0.1000061,0.1000061,0.1000061,0,0,0,1,2
3297.327,0.001008,0.07226562,0.04101562,0.005859375,-0.2578125,-10.89844,6.328125,0.0078125,-0.001953125,0.01953125,0.1894531,0.02539062,0,-0.02746582,-0.003051758,-2.796997,0,0,-2.856689,0,4.048,0,0,0,0,nan,2,0.068,1,0,0.1000061,0.1000061,0.1000061,0.1000061,0,0,0,1,2
3297.337,0.00101,-0.01757812,0.0078125,0.03125,-3.109375,-7.828125,16.42969,0.01953125,0.02734375,0.03125,0.1601562,0.01953125,0,-0.0267334,-0.003295898,-2.796753,0,0,-2.856689,0.2263184,4.048,0,0,0,0.2000122,nan,2,0.008,1,0,0.2601318,0.1842346,0.2536926,0.2072144,0,0,0,1,2
3297.348,0.00102,-0.01171875,0.05273438,0.04296875,-0.1875,3.9375,9.976562,-0.015625,0.015625,0.02539062,0.1601562,0.01953125,0,-0.02685547,-0.003173828,-2.796509,0,0,-2.856689,0.2263184,4.048,0,0,0,0.2000122,nan,2,0.018,1,0,0.2494507,0.2007141,0.2274475,0.2276611,0,0,0,1,2
3297.357,0.00101,-0.06445312,0.01953125,0.02539062,2.367188,-6.648438,6.085938,-0.02148438,0.005859375,0.01953125,0.1640625,0.015625,0,-0.02746582,-0.002563477,-2.796265,0,0,-2.856689,0.2263184,4.048,0,0,0,0.2000122,nan,2,0.028,1,0,0.233551,0.2170715,0.2007751,0.2538452,0,0,0,1,2
3297.368,0.00101,0.01757812,0.09375,0.0078125,-0.921875,-5.515625,6.664062,-0.01367188,0.01367188,0.01757812,0.1601562,0.01171875,0,-0.0267334,-0.001831055,-2.796021,0,0,-2.856689,0.2263184,4.048,0,0,0,0.2000122,nan,2,0.038,1,0,0.2229309,0.2304688,0.2022705,0.2495728,0.0009765625,0,0,1,2
3297.377,0.001014,-0.00390625,0.09375,0.05664062,0.0234375,-8.84375,2.859375,0.01757812,0.03320312,0.0546875,0.1601562,0.009765625,0,-0.02661133,-0.001586914,-2.795654,0,0,-2.856689,0.2263184,4.048,0,0,0,0.2000122,nan,2,0.047,1,0,0.2733459,0.1644897,0.2802429,0.1871948,0.0009765625,0,0,1,2
3297.387,0.001009,-0.03125,-0.06445312,0.02539062,2.609375,7.046875,3.570312,-0.01367188,-0.0078125,0.02929688,0.1660156,0.009765625,0,-0.02758789,-0.001708984,-2.795288,0,0,-2.856689,0.2263184,4.048,0,0,0,0.2000122,nan,2,0.058,1,0,0.2396545,0.2194214,0.2042542,0.2419128,0.0009765625,0,0,1,2
3297.397,0.001032,0.01171875,0.046875,0.02539062,0.3984375,1.945312,8.734375,0,0.001953125,0.0234375,0.1640625,0.009765625,0,-0.02746582,-0.001586914,-2.795044,0,0,-2.856689,0.2263184,4.048,0,0,0,0.2000122,nan,2,0.068,1,0,0.2420044,0.2123718,0.2177734,0.2331238,0.0009765625,0,0,1,2
3297.407,0.001051,0.04492188,-0.07421875,0.03515625,0.4296875,-4.5625,12.51562,0.01953125,0.00390625,0.02734375,0.1523438,0.005859375,0,-0.02526855,-0.0008544922,-2.7948,0,0,-2.856689,0.2263184,4.048,0,0,0,0.2000122,nan,2,0.078,1,0,0.2488098,0.207489,0.23526,0.2136841,0.0009765625,0,0,1,2
3297.417,0.00104,-0.001953125,0.02929688,0.03515625,1.1875,-6.335938,4.703125,-0.001953125,0.015625,0.03515625,0.1484375,0.005859375,0,-0.02490234,-0.001098633,-2.794434,0,0,-2.856689,0.2263184,4.048,0,0,0,0.2000122,nan,2,0.002,1,0,0.2442322,0.2029419,0.2229309,0.2351685,0.0009765625,0,0,1,2
3297.427,0.00101,0.1640625,0.125,0.140625,4.25,-2.835938,1.523438,0.03710938,0.01757812,0.08398438,0.1503906,0.005859375,0,-0.02514648,-0.0009765625,-2.793945,0,0,-2.856689,0.2263184,4.048,0,0,0,0.2000122,nan,2,0.012,1,0,0.313385,0.1275635,0.3215942,0.1427002,0.001953125,0,0,1,2
3297.437,0.001007,-0.08984375,-0.03515625,0.08007812,-0.375,0.8359375,1.695312,-0.00390625,-0.01953125,0.09179688,0.1445312,0.005859375,0,-0.02404785,-0.0009765625,-2.792969,0,0,-2.856689,0.2263184,4.048,0,0,0,0.2000122,nan,2,0.022,1,0,0.2695923,0.1876526,0.2288818,0.2191162,0.001953125,0,0,1,2
3297.447,0.00101,-0.03515625,-0.00390625,0.078125,-0.9375,7.648438,19.84375,-0.03125,-0.0078125,0.08984375,0.1425781,0.005859375,0,-0.02355957,-0.0008544922,-2.791992,0,0,-2.856689,0.2263184,4.048,0,0,0,0.2000122,nan,2,0.032,1,0,0.2671204,0.190094,0.2318115,0.2162476,0.001953125,0,0,1,2
3297.457,0.001024,-0.01171875,-0.078125,0.2011719,-0.4609375,-4.1875,8.046875,-0.05273438,-0.02734375,0.1328125,0.1503906,0.0078125,0,-0.02514648,-0.001464844,-2.791138,0,0,-2.856689,0.2263184,4.048,0,0,0,0.2000122,nan,2,0.042,1,0,0.3688354,0.1007996,0.3188171,0.1168213,0.001953125,0,0,1,2
3297.467,0.001016,-0.0546875,0.1015625,0.07617188,-3.273438,0.0703125,13.25,0.00390625,0.04296875,0.1015625,0.1523438,0.009765625,0,-0.02539062,-0.001342773,-2.789795,0,0,-2.856689,0,4.048,0,0,0,0,nan,2,0.007,1,0,0.1000061,0.1000061,0.1000061,0.1000061,0,0,0,1,2
3297.477,0.001008,0.07421875,-0.109375,0.06445312,2.375,-3.03125,6.742188,0.03515625,0.03320312,0.08789062,0.1523438,0.009765625,0,-0.02539062,-0.0008544922,-2.78894,0,0,-2.856689,0,4.048,0,0,0,0,nan,2,0.016,1,0,0.1000061,0.1000061,0.1000061,0.1000061,0,0,0,1,2
3297.487,0.000998,0.09765625,0.01171875,0.08007812,-0.5859375,-4.492188,3.539062,0.009765625,-0.02539062,0.09765625,0.1523438,0.009765625,0,-0.02490234,-0.0007324219,-2.787964,0,0,-2.856689,0,4.048,0,0,0,0,nan,2,0.026,1,0,0.1000061,0.1000061,0.1000061,0.1000061,0,0,0,1,2
3297.497,0.000989,0.05273438,0.02734375,0.0546875,2.539062,-5.984375,4.492188,-0.02929688,0.04882812,0.06640625,0.1523438,0.009765625,0,-0.02490234,-0.0003662109,-2.787109,0,0,-2.856689,0,4.048,0,0,0,0,nan,2,0.036,1,0,0.1000061,0.1000061,0.1000061,0.1000061,0,0,0,1,2
3297.507,0.000853,-0.03320312,-0.01367188,0.07226562,-1.28125,8.5,14.96094,-0.01171875,-0.02148438,0.06640625,0.1523438,0.00390625,0,-0.02539062,-0.0007324219,-2.786499,0,0,-2.856689,0.2263184,4.048,0,0,0,0.2000122,nan,2,0.002,1,0,0.2631836,0.1953735,0.2347412,0.2119751,0,0,0,1,2
3297.517,0.00101,0,0.04296875,0.09179688,-2.296875,3.953125,11.03125,0.005859375,0.0078125,0.07226562,0.1542969,0.005859375,0,-0.02587891,-0.0009765625,-2.785889,0,0,-2.856689,0.2263184,4.048,0,0,0,0.2000122,nan,2,0.012,1,0,0.2780151,0.1669922,0.268219,0.1920166,0,0,0,1,2
3297.527,0.00101,0.009765625,-0.1464844,0.08789062,2.671875,-10.875,9.734375,-0.001953125,-0.05273438,0.08007812,0.1542969,0.005859375,0,-0.0255127,-0.001098633,-2.785034,0,0,-2.856689,0.2263184,4.048,0,0,0,0.2000122,nan,2,0.022,1,0,0.2738953,0.2006836,0.2332764,0.1973877,0,0,0,1,2
3297.537,0.00101,0.02929688,0.0859375,0.1308594,0.4140625,-2.5,7.125,0.001953125,-0.0078125,0.1074219,0.1484375,0.005859375,0,-0.02478027,-0.0009765625,-2.78418,0,0,-2.856689,0.2263184,4.048,0,0,0,0.2000122,nan,2,0.032,1,0,0.3125916,0.1347656,0.3017578,0.1561584,0.0009765625,0,0,1,2
3297.547,0.00101,-0.01171875,-0.2148438,0.05664062,0.703125,-4.90625,-1.601562,-0.02148438,-0.04101562,0.0703125,0.1542969,0.005859375,0,-0.02563477,-0.0009765625,-2.783325,0,0,-2.856689,0.2263184,4.048,0,0,0,0.2000122,nan,2,0.042,1,0,0.2480774,0.2260742,0.1937256,0.2373962,0.0009765625,0,0,1,2
3297.557,0.00101,-0.03710938,0.08984375,0.1347656,0.921875,-5.117188,8.625,-0.009765625,-0.009765625,0.08789062,0.1464844,0.00390625,0,-0.02441406,-0.0006103516,-2.782715,0,0,-2.856689,0.2263184,4.048,0,0,0,0.2000122,nan,2,0.052,1,0,0.3021545,0.1511841,0.2798462,0.1720886,0.0009765625,0,0,1,2
3297.568,0.00101,-0.01953125,-0.04492188,0.1230469,-3.007812,2.210938,16.50781,0.01367188,0.00390625,0.1269531,0.1503906,0.00390625,0,-0.02514648,-0.0007324219,-2.781494,0,0,-2.856689,0.2263184,4.048,0,0,0,0.2000122,nan,2,0.063,1,0,0.2928467,0.1618958,0.2784119,0.1721191,0.0009765625,0,0,1,2
3297.577,0.001047,-0.09960938,0,0.03515625,0.21875,-4.710938,1.085938,-0.03125,-0.001953125,0.05273438,0.1542969,0.00390625,0,-0.02563477,-0.0006103516,-2.78064,0,0,-2.856689,0.2263184,4.048,0,0,0,0.2000122,nan,2,0.072,1,0,0.1928406,0.2584534,0.1580505,0.295929,0.0009765625,0,0,1,2
3297.587,0.00101,-0.05859375,-0.0703125,0.1738281,0.4765625,-3.757812,6.398438,-0.0078125,-0.0390625,0.1230469,0.1523438,0.001953125,0,-0.02526855,-0.0003662109,-2.779785,0,0,-2.856689,0.2263184,4.048,0,0,0,0.2000122,nan,2,0.082,1,0,0.3586731,0.1090698,0.3139954,0.1235352,0.0009765625,0,0,1,2
3297.597,0.001025,0.01757812,0.08203125,0.1035156,2.367188,5.335938,13.13281,0.015625,0.02148438,0.1308594,0.1582031,0.00390625,0,-0.02648926,-0.0007324219,-2.77832,0,0,-2.856689,0.2263184,4.048,0,0,0,0.2000122,nan,2,0.001,1,0,0.2472229,0.194397,0.2419434,0.2216797,0.0009765625,0,0,1,2
3297.607,0.001044,-0.08203125,0.08789062,0.04882812,-3.203125,-5.101562,9.9375,-0.03125,0.05273438,0.06835938,0.1621094,0.00390625,0,-0.02697754,-0.0006103516,-2.777344,0,0,-2.856689,0.2263184,4.048,0,0,0,0.2000122,nan,2,0.011,1,0,0.2057495,0.2271729,0.1950684,0.2772827,0.001953125,0,0,1,2
3297.617,0.001011,-0.06054688,-0.1621094,0.078125,0.7578125,-2.195312,9.40625,-0.046875,-0.02539062,0.05273438,0.1679688,0,0,-0.0279541,0,-2.776855,0,0,-2.856689,0.2263184,4.048,0,0,0,0.2000122,nan,2,0.021,1,0,0.2718201,0.2023926,0.2148743,0.2161865,0.001953125,0,0,1,2
3297.627,0.001046,0.02929688,0.1015625,0.09375,4.28125,-4.914062,6.898438,0.02539062,0.01171875,0.09179688,0.1621094,-0.001953125,0,-0.02709961,0.0002441406,-2.776001,0,0,-2.856689,0.2263184,4.048,0,0,0,0.2000122,nan,2,0.031,1,0,0.2683105,0.1727905,0.2644958,0.199707,0.001953125,0,0,1,2
3297.637,0.001009,-0.1132812,-0.0390625,0.09765625,-1.039062,5.359375,12.4375,-0.015625,-0.0078125,0.1132812,0.1601562,0.001953125,0,-0.0267334,-0.0002441406,-2.775024,0,0,-2.856689,0.2263184,4.048,0,0,0,0.2000122,nan,2,0.041,1,0,0.299408,0.1558533,0.2576294,0.1923828,0.001953125,0,0,1,2
3297.647,0.001007,-0.03515625,0.02539062,0.06640625,0.8125,-1.265625,1.992188,-0.01953125,-0.0078125,0.07421875,0.1640625,0.00390625,0,-0.02746582,-0.0006103516,-2.774048,0,0,-2.856689,0.2263184,4.048,0,0,0,0.2000122,nan,2,0.052,1,0,0.2354736,0.2174683,0.2041321,0.2481689,0.001953125,0,0,1,2
3297.658,0.001,0.1914062,0.09375,0.1210938,-3.601562,8.757812,15.49219,0.0703125,0.02539062,0.0859375,0.1679688,0.00390625,0,-0.02722168,-0.0006103516,-2.773438,0,0,-2.856689,0,4.048,0,0,0,0,nan,2,0,1,0,0.1000061,0.1000061,0.1000061,0.1000061,0,0,0,1,2
3297.667,0.000996,-0.05273438,-0.03320312,0.05859375,1.523438,1.890625,2.320312,-0.005859375,-0.00390625,0.09179688,0.1679688,0.00390625,0,-0.02624512,-0.0002441406,-2.772461,0,0,-2.856689,0,4.048,0,0,0,0,nan,2,0.01,1,0,0.1000061,0.1000061,0.1000061,0.1000061,0,0,0,1,2
3297.677,0.001012,-0.08203125,-0.1035156,0.09960938,2.382812,-5.585938,6.28125,0.001953125,-0.03515625,0.0703125,0.1679688,0.00390625,0,-0.02612305,-0.0002441406,-2.771851,0,0,-2.856689,0,4.048,0,0,0,0,nan,2,0.019,1,0,0.1000061,0.1000061,0.1000061,0.1000061,0,0,0,1,2
3297.687,0.000903,-0.01757812,0.1445312,0.01953125,-2.796875,-2.296875,10.65625,0.01953125,0.04296875,0.05078125,0.15625,0.00390625,0,-0.02612305,-0.0006103516,-2.770996,0,0,-2.856689,0.2263184,4.048,0,0,0,0.2000122,nan,2,0.002,1,0,0.206543,0.2238464,0.2165833,0.2583008,0,0,0,1,2
3297.697,0.000994,0.08789062,-0.1074219,0.04101562,0.9296875,-11.60938,-0.7421875,0.01953125,-0.046875,0.06054688,0.1582031,0.001953125,0,-0.02636719,-0.0004882812,-2.770386,0,0,-2.856689,0.2263184,4.048,0,0,0,0.2000122,nan,2,0.012,1,0,0.2549438,0.2214661,0.2198792,0.2089844,0,0,0,1,2
3297.707,0.001033,0.02539062,0.1015625,0.0859375,1.617188,1.101562,5.476562,0.015625,0.0234375,0.0703125,0.15625,0.00390625,0,-0.02600098,-0.0006103516,-2.769897,0,0,-2.856689,0.2263184,4.048,0,0,0,0.2000122,nan,2,0.022,1,0,0.2829895,0.1512756,0.2811279,0.1899109,0,0,0,1,2
3297.717,0.00101,-0.01757812,-0.1152344,0.08203125,-0.3046875,-6.265625,12.24219,-0.03515625,-0.01757812,0.07617188,0.1503906,0.001953125,0,-0.02514648,-0.0004882812,-2.769165,0,0,-2.856689,0.2263184,4.048,0,0,0,0.2000122,nan,2,0.032,1,0,0.2872925,0.1783447,0.2390747,0.2005615,0,0,0,1,2
3297.727,0.00101,0.01953125,0.04296875,0.1191406,-3.257812,-5.296875,9.90625,0.0234375,0.0234375,0.1113281,0.1464844,-0.001953125,0,-0.02453613,0.0001220703,-2.768311,0,0,-2.856689,0.2263184,4.048,0,0,0,0.2000122,nan,2,0.042,1,0,0.2910767,0.1515198,0.2950745,0.167572,0.0009765625,0,0,1,2
3297.737,0.00101,-0.05273438,-0.04296875,0.08007812,-0.03125,4.617188,9.671875,-0.03515625,-0.00390625,0.0625,0.1542969,0,0,-0.02587891,0,-2.767456,0,0,-2.856689,0.2263184,4.048,0,0,0,0.2000122,nan,2,0.053,1,0,0.2363892,0.2220459,0.1958008,0.2510071,0.0009765625,0,0,1,2
3297.747,0.00101,-0.03125,0.07421875,0.09179688,1.6875,4.117188,2.914062,0.00390625,0.015625,0.1074219,0.1582031,0.001953125,0,-0.02624512,-0.0002441406,-2.766357,0,0,-2.856689,0.2263184,4.048,0,0,0,0.2000122,nan,2,0.063,1,0,0.2688599,0.17276,0.2622375,0.201416,0.0009765625,0,0,1,2
3297.757,0.001015,0.01171875,0.1328125,0.1054688,-3.007812,0.28125,15.51562,-0.009765625,0.03125,0.09179688,0.1503906,-0.001953125,0,-0.02502441,0.0002441406,-2.765503,0,0,-2.856689,0.2263184,4.048,0,0,0,0.2000122,nan,2,0.073,1,0,0.2502747,0.1868286,0.2458496,0.2223511,0.0009765625,0,0,1,2
3297.768,0.001033,0.04101562,-0.1152344,0.1152344,2.273438,-0.1796875,15.53906,-0.005859375,-0.02539062,0.1230469,0.1484375,0,0,-0.0246582,0.0001220703,-2.764282,0,0,-2.856689,0.2263184,4.048,0,0,0,0.2000122,nan,2,0.083,1,0,0.2975159,0.1659241,0.2685242,0.1732788,0.0009765625,0,0,1,2
3297.777,0.001,-0.05078125,0.04492188,0.07226562,-0.90625,-1.757812,12.78125,-0.01953125,0,0.078125,0.1523438,-0.001953125,0,-0.02526855,0.0002441406,-2.763428,0,0,-2.856689,0.2263184,4.048,0,0,0,0.2000122,nan,2,0.005,1,0,0.2296448,0.223175,0.2019348,0.2505188,0.0009765625,0,0,1,2
3297.787,0.000974,0.05078125,0.0234375,0.09960938,3.929688,-2.71875,8.296875,0.015625,-0.009765625,0.08398438,0.1582031,0,0,-0.02648926,-0.0001220703,-2.762695,0,0,-2.856689,0.2263184,4.048,0,0,0,0.2000122,nan,2,0.015,1,0,0.2839661,0.1761169,0.2616272,0.1835632,0.001953125,0,0,1,2
3297.797,0.00101,-0.0546875,0.009765625,0.1035156,-3.328125,-3.320312,11.16406,0.0078125,0.0078125,0.1191406,0.1582031,0.00390625,0,-0.02636719,-0.0004882812,-2.761597,0,0,-2.856689,0.2263184,4.048,0,0,0,0.2000122,nan,2,0.025,1,0,0.2801819,0.167511,0.2668762,0.1907043,0.001953125,0,0,1,2
3297.807,0.00101,-0.02539062,-0.1210938,0.1035156,0.359375,-2.265625,7.210938,0.001953125,-0.02734375,0.06640625,0.1601562,0.001953125,0,-0.02648926,-0.0001220703,-2.760864,0,0,-2.856689,0.2263184,4.048,0,0,0,0.2000122,nan,2,0.035,1,0,0.2566528,0.2128601,0.2169189,0.2188416,0.001953125,0,0,1,2
3297.817,0.000968,0.1816406,0.09765625,0.08984375,-3.539062,-5.632812,4.703125,0.1015625,0.0234375,0.09765625,0.1484375,0,0,-0.0246582,0,-2.759888,0,0,-2.856689,0.2263184,4.048,0,0,0,0.2000122,nan,2,0.045,1,0,0.2380066,0.1993408,0.2691956,0.1987305,0.001953125,0,0,1,2
3297.827,0.00101,-0.04296875,0.0390625,0.0546875,3.65625,-3.429688,8.703125,-0.00390625,0.02148438,0.05859375,0.1582031,-0.001953125,0,-0.02636719,0.0002441406,-2.759033,0,0,-2.856689,0.2263184,4.048,0,0,0,0.2000122,nan,2,0.056,1,0,0.223114,0.2200928,0.1968689,0.2651672,0.001953125,0,0,1,2
3297.837,0.000978,-0.02148438,-0.02148438,0.09570312,2.414062,-7.085938,6.164062,0.001953125,-0.02539062,0.1035156,0.1621094,0.001953125,0,-0.02697754,-0.0001220703,-2.758057,0,0,-2.856689,0.2263184,4.048,0,0,0,0.2000122,nan,2,0.066,1,0,0.2887268,0.1728821,0.2472839,0.1963806,0.001953125,0,0,1,2
3297.847,0.00101,-0.02539062,0.078125,0.078125,2.445312,3.6875,9.789062,-0.02929688,0,0.08007812,0.1699219,0.0078125,0,-0.02844238,-0.001220703,-2.757202,0,0,-2.856689,0.2263184,4.048,0,0,0,0.2000122,nan,2,0.076,1,0,0.2543335,0.2026367,0.2071533,0.2411499,0.002929688,0,0,1,2
3297.858,0.001028,-0.1191406,-0.0546875,0.1191406,-1.015625,-3.71875,5.601562,-0.07421875,-0.0234375,0.1269531,0.171875,0.009765625,0,-0.02880859,-0.001831055,-2.755981,0,0,-2.856689,0.2263184,4.048,0,0,0,0.2000122,nan,2,0.086,1,0,0.3096619,0.1451111,0.2620544,0.188446,0.002929688,0,0,1,2
3297.868,0.000968,-0.02929688,-0.03515625,0.09765625,1.25,3.007812,7.15625,-0.01953125,-0.015625,0.08789062,0.171875,0.01171875,0,-0.02929688,-0.001831055,-2.755005,0,0,-2.856689,0,4.048,0,0,0,0,nan,2,0.002,1,0,0.1000061,0.1000061,0.1000061,0.1000061,0,0,0,1,2
3297.878,0.001011,0.04492188,0.03710938,0.1914062,-2.351562,-5.132812,5.3125,0.01757812,0.00390625,0.1679688,0.1699219,0.009765625,0,-0.02832031,-0.001586914,-2.753662,0,0,-2.856689,0.2263184,4.048,0,0,0,0.2000122,nan,2,0,1,0,0.286377,0.1668396,0.2675476,0.1845398,0,0,0,1,2
3297.887,0.001007,-0.1054688,-0.07421875,0.0859375,0.59375,5.078125,13.67188,-0.03515625,0.0078125,0.109375,0.1699219,0.0078125,0,-0.02832031,-0.001464844,-2.752441,0,0,-2.856689,0.2263184,4.048,0,0,0,0.2000122,nan,2,0.009,1,0,0.2128906,0.2380676,0.1734314,0.2808838,0,0,0,1,2
3297.897,0.00096,0.05859375,0.0546875,0.1308594,3.554688,3.585938,5.640625,-0.0078125,-0.005859375,0.1347656,0.1757812,0.009765625,0,-0.02929688,-0.001586914,-2.751099,0,0,-2.856689,0.2263184,4.048,0,0,0,0.2000122,nan,2,0.019,1,0,0.2893372,0.1614075,0.2688904,0.1856384,0,0,0,1,2
3297.907,0.00101,-0.05859375,-0.03320312,0.04101562,-1.828125,-0.53125,8.703125,0,0.009765625,0.07226562,0.1816406,0.009765625,0,-0.03039551,-0.001708984,-2.75,0,0,-2.856689,0.2263184,4.048,0,0,0,0.2000122,nan,2,0.029,1,0,0.1932983,0.2556458,0.1742249,0.282074,0.0009765625,0,0,1,2
3297.917,0.00101,0.2167969,0.08789062,0.06640625,-5.21875,5.421875,16.95312,0.0390625,0.00390625,0.08203125,0.1796875,0.0078125,0,-0.02990723,-0.001342773,-2.749268,0,0,-2.856689,0.2263184,4.048,0,0,0,0.2000122,nan,2,0.039,1,0,0.2352905,0.2109985,0.2504578,0.2085266,0.0009765625,0,0,1,2
3297.927,0.00101,0.0703125,0.005859375,0.09570312,0.5703125,-0.0859375,13.20312,0.001953125,-0.01953125,0.08984375,0.1835938,0.0078125,0,-0.03076172,-0.001220703,-2.748535,0,0,-2.856689,0.2263184,4.048,0,0,0,0.2000122,nan,2,0.049,1,0,0.3013,0.1609497,0.2706909,0.1723022,0.0009765625,0,0,1,2
3297.937,0.00101,0.06054688,-0.09960938,0.1230469,3.765625,-5.015625,11.55469,0.01953125,-0.01953125,0.1015625,0.1894531,0.0078125,0,-0.03173828,-0.001220703,-2.747559,0,0,-2.856689,0.2263184,4.048,0,0,0,0.2000122,nan,2,0.06,1,0,0.3006287,0.1696777,0.2591553,0.1757812,0.0009765625,0,0,1,2
3297.947,0.00101,-0.1113281,0.06835938,0.08007812,-2.351562,0.4375,13.17969,0.005859375,0.03320312,0.07226562,0.1816406,0.0078125,0,-0.03039551,-0.001098633,-2.746704,0,0,-2.856689,0.2263184,4.049,0,0,0,0.2000122,nan,2,0.07,1,0,0.2411499,0.1964417,0.2185059,0.2492065,0.0009765625,0,0,1,2
3297.957,0.00101,-0.1484375,-0.09179688,0.1523438,2.710938,2.21875,8.96875,-0.05664062,-0.02929688,0.1230469,0.1835938,0.0078125,0,-0.03051758,-0.001342773,-2.74585,0,0,-2.856689,0.2263184,4.049,0,0,0,0.2000122,nan,2,0.08,1,0,0.3471375,0.1206665,0.2852478,0.1522217,0.0009765625,0,0,1,2
3297.968,0.001011,-0.02148438,0.04296875,0.05664062,-2.914062,-6.78125,6.773438,-0.02148438,-0.01171875,0.09375,0.1796875,0.0078125,0,-0.0300293,-0.001342773,-2.744507,0,0,-2.856689,0.2263184,4.049,0,0,0,0.2000122,nan,2,0,1,0,0.2089844,0.2464905,0.1842651,0.265564,0.001953125,0,0,1,2
3297.978,0.001015,-0.1933594,-0.04296875,0.1230469,-0.71875,-1.132812,17.10938,-0.07226562,-0.001953125,0.1113281,0.1835938,0.005859375,0,-0.03051758,-0.001098633,-2.743652,0,0,-2.856689,0.2263184,4.049,0,0,0,0.2000122,nan,2,0.01,1,0,0.3234558,0.1298828,0.269165,0.1827698,0.001953125,0,0,1,2
3297.987,0.001047,0.04882812,-0.05664062,0.08203125,-5.007812,0.7421875,12.875,0.0546875,0.01171875,0.0859375,0.1796875,0.005859375,0,-0.0300293,-0.001098633,-2.742798,0,0,-2.856689,0.2263184,4.049,0,0,0,0.2000122,nan,2,0.019,1,0,0.2411194,0.2102661,0.2403564,0.213501,0.001953125,0,0,1,2
3297.997,0.00101,0.02929688,-0.02734375,0.07421875,1.640625,-2.742188,5.859375,0.03710938,-0.03320312,0.09179688,0.1855469,0.005859375,0,-0.03088379,-0.0009765625,-2.741821,0,0,-2.856689,0.2263184,4.049,0,0,0,0.2000122,nan,2,0.029,1,0,0.2683411,0.2019958,0.223053,0.2118835,0.001953125,0,0,1,2
3298.007,0.00101,-0.06640625,0.0625,0.03320312,-2.953125,0.8046875,17.05469,-0.04101562,0.0390625,0.05859375,0.1875,0.005859375,0,-0.03137207,-0.0009765625,-2.741089,0,0,-2.856689,0.2263184,4.049,0,0,0,0.2000122,nan,2,0.039,1,0,0.2260437,0.2067871,0.1986389,0.2738037,0.001953125,0,0,1,2
3298.017,0.00101,-0.04882812,-0.1367188,0.07421875,2.757812,0.1484375,7.15625,-0.03320312,-0.03320312,0.08203125,0.1875,0.0078125,0,-0.03125,-0.001220703,-2.740479,0,0,-2.856689,0.2263184,4.049,0,0,0,0.2000122,nan,2,0.049,1,0,0.3034363,0.1679382,0.2473755,0.1865234,0.002929688,0,0,1,2
3298.027,0.00101,0.03515625,0.1152344,0.08789062,-0.4296875,-0.71875,7.21875,0.005859375,0.009765625,0.0703125,0.1875,0.005859375,0,-0.03125,-0.0009765625,-2.739746,0,0,-2.856689,0.2263184,4.049,0,0,0,0.2000122,nan,2,0.06,1,0,0.2589417,0.1878052,0.2433167,0.21521,0.002929688,0,0,1,2
3298.037,0.00101,-0.06835938,-0.02148438,0.0703125,-0.2578125,9.882812,19.21875,0.0078125,-0.01171875,0.08984375,0.1855469,0.001953125,0,-0.03100586,-0.0004882812,-2.73877,0,0,-2.856689,0.2263184,4.049,0,0,0,0.2000122,nan,2,0.07,1,0,0.2678223,0.1890259,0.2342224,0.2142029,0.002929688,0,0,1,2
3298.047,0.00101,0.02539062,0.03515625,0.1523438,1.125,-0.953125,3.992188,0.01367188,-0.009765625,0.1210938,0.1933594,0.001953125,0,-0.03210449,-0.0002441406,-2.737915,0,0,-2.856689,0.2263184,4.049,0,0,0,0.2000122,nan,2,0.08,1,0,0.3379517,0.1163635,0.3122253,0.1387024,0.002929688,0,0,1,2
3298.058,0.001004,0.05859375,-0.0625,0.1445312,-3.710938,8.507812,16.14062,0.02734375,0.009765625,0.09570312,0.1953125,0.00390625,0,-0.0324707,-0.0006103516,-2.736938,0,0,-2.856689,0.2263184,4.049,0,0,0,0.2000122,nan,2,0.09,1,0,0.2739258,0.1784058,0.2598877,0.1930542,0.002929688,0,0,1,2
3298.068,0.001006,-0.01953125,-0.0859375,0.08007812,0.921875,-2.53125,-0.2890625,0.009765625,-0.05078125,0.1230469,0.1953125,0.00390625,0,-0.03234863,-0.0006103516,-2.735596,0,0,-2.856689,0.1842041,4.049,0,0,0,0.1500244,nan,2,0.004,1,0,0.2350464,0.151123,0.1821289,0.1685486,0.00390625,0,0,1,2
3298.077,0.00104,0.07421875,0.1289062,0.06445312,0.671875,3.320312,11.72656,0.001953125,0.02929688,0.0703125,0.2011719,0.005859375,0,-0.03344727,-0.0009765625,-2.734863,0,0,-2.856689,0.1842041,4.049,0,0,0,0.1500244,nan,2,0.013,1,0,0.1687622,0.1809692,0.1557617,0.2313843,0.00390625,0,0,1,2
3298.087,0.001001,0.009765625,-0.1367188,0.125,2.765625,-2.632812,2.476562,-0.046875,-0.02929688,0.1289062,0.1972656,0.005859375,0,-0.03320312,-0.0008544922,-2.733765,0,0,-2.856689,0,4.049,0,0,0,0,nan,2,0.002,1,0,0.1000061,0.1000061,0.1000061,0.1000061,0,0,0,1,2
3298.097,0.001004,0.08203125,-0.03515625,0.1132812,-2.554688,4.765625,9.953125,0.005859375,-0.01953125,0.1035156,0.1972656,0.005859375,0,-0.03198242,-0.0007324219,-2.732666,0,0,-2.856689,0,4.049,0,0,0,0,nan,2,0.012,1,0,0.1000061,0.1000061,0.1000061,0.1000061,0,0,0,1,2
3298.107,0.00101,-0.06054688,-0.08398438,0.08203125,-1.117188,-2.710938,13.89844,0.001953125,-0.001953125,0.09960938,0.1972656,0.005859375,0,-0.03088379,-0.0001220703,-2.731567,0,0,-2.856689,0,4.049,0,0,0,0,nan,2,0.022,1,0,0.1000061,0.1000061,0.1000061,0.1000061,0,0,0,1,2
3298.117,0.00101,0.005859375,0.005859375,0.08789062,-1.992188,-2.421875,6.4375,0.00390625,-0.03320312,0.09570312,0.1972656,0.005859375,0,-0.03283691,-0.0006103516,-2.730713,0,0,-2.856689,0,4.049,0,0,0,0,nan,2,0.032,1,0,0.1000061,0.1000061,0.1000061,0.1000061,0,0,0,1,2
3298.127,0.00101,-0.05664062,-0.140625,0.1113281,4.023438,-1.335938,9.460938,-0.05859375,-0.005859375,0.05664062,0.1972656,0.005859375,0,-0.0333252,-0.0004882812,-2.730103,0,0,-2.856689,0,4.049,0,0,0,0,nan,2,0.042,1,0,0.1000061,0.1000061,0.1000061,0.1000061,0,0,0,1,2
3298.137,0.00101,-0.03320312,0.05078125,0.06640625,1.640625,-2.523438,8.992188,-0.009765625,0.01367188,0.04296875,0.1972656,0.005859375,0,-0.0333252,-0.0008544922,-2.729492,0,0,-2.856689,0,4.049,0,0,0,0,nan,2,0.052,1,0,0.1000061,0.1000061,0.1000061,0.1000061,0,0,0,1,2
3298.147,0.00101,0,-0.01171875,0.05078125,2.835938,3.273438,8.265625,0.015625,-0.03710938,0.07617188,0.1972656,0.005859375,0,-0.03430176,-0.0009765625,-2.72876,0,0,-2.856689,0,4.049,0,0,0,0,nan,2,0.063,1,0,0.1000061,0.1000061,0.1000061,0.1000061,0,0,0,1,2
3298.157,0.001011,0.01367188,0.02539062,0.09570312,3.5625,-9.195312,6.328125,0.02539062,-0.0078125,0.1074219,0.1972656,0.005859375,0,-0.03308105,-0.001220703,-2.727783,0,0,-2.856689,0,4.049,0,0,0,0,nan,2,0.073,1,0,0.1000061,0.1000061,0.1000061,0.1000061,0,0,0,1,2
3298.167,0.001001,-0.0546875,-0.02929688,0.1152344,-3.351562,-4.398438,18.21094,-0.01953125,-0.0234375,0.09765625,0.1933594,0.00390625,0,-0.03210449,-0.0007324219,-2.726929,0,0,-2.856689,0.1421204,4.049,0,0,0,0.09997559,nan,2,0.007,1,0,0.2024841,0.08837891,0.1674805,0.1100464,0,0,0,1,2
3298.178,0.001013,0.03320312,0.1132812,0.1152344,1.945312,2.40625,11.84375,-0.005859375,0.01367188,0.08398438,0.1972656,0.005859375,0,-0.03295898,-0.0009765625,-2.725952,0,0,-2.856689,0.1421204,4.049,0,0,0,0.09997559,nan,2,0.018,1,0,0.1801453,0.09597778,0.1703796,0.1219177,0,0,0,1,2
3298.187,0.001006,-0.06640625,-0.08007812,0.03710938,1.34375,-1.695312,4.101562,-0.02539062,-0.0078125,0.07421875,0.2011719,0.005859375,0,-0.03356934,-0.0008544922,-2.725098,0,0,-2.856689,0.1421204,4.049,0,0,0,0.09997559,nan,2,0.027,1,0,0.1481934,0.1405029,0.1086121,0.1711426,0.0009765625,0,0,1,2
3298.197,0.001028,0.02539062,0.1425781,0.0390625,-1.3125,-1.507812,13.41406,0.009765625,0.01367188,0.05859375,0.2011719,0.005859375,0,-0.03344727,-0.0008544922,-2.724487,0,0,-2.856689,0.1421204,4.049,0,0,0,0.09997559,nan,2,0.037,1,0,0.1405029,0.1313782,0.1345215,0.1620178,0.0009765625,0,0,1,2
3298.207,0.00101,-0.001953125,-0.02929688,0.08984375,-3.84375,3.140625,17.78906,-0.00390625,-0.00390625,0.06835938,0.1972656,0.00390625,0,-0.03283691,-0.0006103516,-2.723999,0,0,-2.856689,0.1421204,4.049,0,0,0,0.09997559,nan,2,0.047,1,0,0.2080078,0.08093262,0.1776123,0.1018677,0.0009765625,0,0,1,2
3298.217,0.00101,-0.046875,-0.01757812,0.109375,-4.398438,5.4375,17.125,0,-0.00390625,0.09179688,0.1992188,0.00390625,0,-0.03320312,-0.0004882812,-2.723145,0,0,-2.856689,0.1421204,4.049,0,0,0,0.09997559,nan,2,0.058,1,0,0.2134094,0.07000732,0.1844788,0.1005249,0.0009765625,0,0,1,2
3298.227,0.001051,0.09570312,0.009765625,0.04101562,0.0390625,-1.742188,11.53125,0.02148438,-0.005859375,0.06054688,0.1992188,0.00390625,0,-0.0333252,-0.0007324219,-2.72229,0,0,-2.856689,0.1421204,4.049,0,0,0,0.09997559,nan,2,0.068,1,0,0.1264343,0.1539917,0.1181335,0.1698608,0.0009765625,0,0,1,2
3298.237,0.00101,-0.08007812,0.1289062,0.02734375,-1.101562,-6.523438,2.914062,-0.009765625,-0.001953125,0.0546875,0.1992188,0.00390625,0,-0.03320312,-0.0008544922,-2.721558,0,0,-2.856689,0.1421204,4.049,0,0,0,0.09997559,nan,2,0.078,1,0,0.1401978,0.1373596,0.1095886,0.1812744,0.001953125,0,0,1,2
3298.247,0.00101,0.09960938,-0.046875,0.1328125,2.023438,-6.546875,9.828125,0,-0.001953125,0.1113281,0.1992188,0.005859375,0,-0.03308105,-0.0008544922,-2.720825,0,0,-2.856689,0.1421204,4.049,0,0,0,0.09997559,nan,2,0.088,1,0,0.2496033,0.04238892,0.2251892,0.05123901,0.001953125,0,0,1,2
3298.257,0.001013,-0.03320312,-0.06445312,0.109375,0.9453125,4.023438,13.36719,-0.001953125,-0.005859375,0.09765625,0.2011719,0.0078125,0,-0.03356934,-0.001220703,-2.719727,0,0,-2.856689,0.1421204,4.049,0,0,0,0.09997559,nan,2,0.098,1,0,0.175415,0.1072083,0.1488647,0.1369324,0.001953125,0,0,1,2
3298.268,0.001006,0.005859375,0.1230469,0.07226562,2.070312,2.796875,6.3125,0.0078125,0.01171875,0.09375,0.2011719,0.0078125,0,-0.03344727,-0.001342773,-2.71875,0,0,-2.856689,0,4.049,0,0,0,0,nan,2,0.007,1,0,0.1000061,0.1000061,0.1000061,0.1000061,0,0,0,1,2
3298.278,0.001031,0.07421875,-0.0234375,0.1210938,-0.6328125,1.953125,7.453125,-0.005859375,-0.00390625,0.08984375,0.2011719,0.0078125,0,-0.03405762,-0.001342773,-2.717896,0,0,-2.856689,0,4.049,0,0,0,0,nan,2,0.017,1,0,0.1000061,0.1000061,0.1000061,0.1000061,0,0,0,1,2
3298.287,0.001018,-0.1445312,-0.0078125,0.0625,-1.195312,9.273438,18.67188,-0.046875,0.001953125,0.0859375,0.2011719,0.0078125,0,-0.03405762,-0.001098633,-2.717041,0,0,-2.856689,0,4.049,0,0,0,0,nan,2,0.007,1,0,0.1000061,0.1000061,0.1000061,0.1000061,0,0,0,1,2
3298.297,0.001013,0.0625,-0.02929688,0.09960938,-2.46875,0.1796875,17.03906,0.01171875,0.001953125,0.1035156,0.2011719,0.0078125,0,-0.03466797,-0.001464844,-2.716187,0,0,-2.856689,0,4.049,0,0,0,0,nan,2,0.017,1,0,0.1000061,0.1000061,0.1000061,0.1000061,0,0,0,1,2
3298.307,0.00101,0.04101562,0.1152344,0.1171875,2.601562,2.1875,11.13281,0.03125,0.015625,0.09375,0.2011719,0.0078125,0,-0.0357666,-0.001586914,-2.71521,0,0,-2.856689,0,4.049,0,0,0,0,nan,2,0.027,1,0,0.1000061,0.1000061,0.1000061,0.1000061,0,0,0,1,2
3298.317,0.00101,0.09960938,-0.1855469,0.06640625,-3.023438,9.703125,15.54688,-0.009765625,-0.02734375,0.08789062,0.2011719,0.0078125,0,-0.03540039,-0.001464844,-2.714233,0,0,-2.856689,0,4.049,0,0,0,0,nan,2,0.037,1,0,0.1000061,0.1000061,0.1000061,0.1000061,0,0,0,1,2
3298.327,0.00101,-0.03125,-0.02148438,0.078125,-0.71875,-6.164062,12.35938,-0.015625,0.00390625,0.07226562,0.2011719,0.0078125,0,-0.03540039,-0.001708984,-2.713501,0,0,-2.856689,0,4.049,0,0,0,0,nan,2,0.047,1,0,0.1000061,0.1000061,0.1000061,0.1000061,0,0,0,1,2
3298.337,0.00101,-0.1074219,0.0390625,0.0546875,-2,-3.039062,10.28906,-0.0234375,0.01757812,0.05664062,0.2011719,0.0078125,0,-0.03540039,-0.001342773,-2.712891,0,0,-2.856689,0,4.049,0,0,0,0,nan,2,0.058,1,0,0.1000061,0.1000061,0.1000061,0.1000061,0,0,0,1,2
3298.347,0.00101,-0.009765625,-0.05078125,0.05078125,-0.6640625,4.554688,4.460938,0.02539062,-0.015625,0.06640625,0.2011719,0.0078125,0,-0.03527832,-0.001464844,-2.71228,0,0,-2.856689,0,4.049,0,0,0,0,nan,2,0.068,1,0,0.1000061,0.1000061,0.1000061,0.1000061,0,0,0,1,2
3298.357,0.00101,0.0234375,0.02929688,0.03320312,2.367188,-0.671875,15.52344,0.001953125,0.001953125,0.046875,0.2011719,0.0078125,0,-0.03527832,-0.001098633,-2.71167,0,0,-2.856689,0,4.049,0,0,0,0,nan,2,0.078,1,0,0.1000061,0.1000061,0.1000061,0.1000061,0,0,0,1,2
3298.367,0.00101,0.05273438,0.06640625,-0.001953125,0.734375,-1.453125,15.28125,0.015625,0.02539062,0.01171875,0.2011719,0.0078125,0,-0.03515625,-0.0006103516,-2.711304,0,0,-2.856689,0,4.049,0,0,0,0,nan,2,0.088,1,0,0.1000061,0.1000061,0.1000061,0.1000061,0,0,0,1,2
3298.377,0.00101,0.05859375,0.03125,0.02539062,-0.578125,3.859375,6.328125,0.00390625,-0.0078125,0.01953125,0.2011719,0.0078125,0,-0.03540039,-0.0006103516,-2.711182,0,0,-2.856689,0,4.049,0,0,0,0,nan,2,0.098,1,0,0.1000061,0.1000061,0.1000061,0.1000061,0,0,0,1,2
3298.388,0.00101,-0.06835938,-0.01171875,0.005859375,-2.101562,4.46875,6.890625,-0.009765625,-0.009765625,0.01757812,0.2011719,0.0078125,0,-0.0357666,-0.0006103516,-2.710938,0,0,-2.856689,0,4.049,0,0,0,0,nan,2,0.108,1,0,0.1000061,0.1000061,0.1000061,0.1000061,0,0,0,1,2
3298.397,0.001015,0.01367188,0.01367188,0.02539062,-0.9296875,-2.53125,14.47656,0.00390625,-0.01953125,0.03515625,0.2011719,0.0078125,0,-0.03552246,-0.0007324219,-2.710693,0,0,-2.856689,0,4.049,0,0,0,0,nan,2,0.117,1,0,0.1000061,0.1000061,0.1000061,0.1000061,0,0,0,1,2
3298.407,0.00101,0.08398438,0.01953125,0.04296875,0.390625,-8.703125,12.95312,0.04101562,0.009765625,0.02929688,0.2011719,0.0078125,0,-0.03564453,-0.0006103516,-2.710449,0,0,-2.856689,0,4.049,0,0,0,0,nan,2,0.127,1,0,0.1000061,0.1000061,0.1000061,0.1000061,0,0,0,1,2
3298.417,0.00101,0.06640625,-0.06445312,0.06445312,0.234375,-0.609375,13.96094,0.009765625,-0.01953125,0.05273438,0.2011719,0.0078125,0,-0.03540039,-0.0006103516,-2.710083,0,0,-2.856689,0,4.049,0,0,0,0,nan,2,0.137,1,0,0.1000061,0.1000061,0.1000061,0.1000061,0,0,0,1,2
3298.427,0.00101,0.02929688,0.005859375,0.0546875,1.304688,-4.78125,15.77344,-0.01367188,-0.0078125,0.0390625,0.2011719,0.0078125,0,-0.03527832,-0.0004882812,-2.709717,0,0,-2.856689,0,4.049,0,0,0,0,nan,2,0.147,1,0,0.1000061,0.1000061,0.1000061,0.1000061,0,0,0,1,2
3298.437,0.000985,0.05859375,-0.0703125,0.04101562,-2.171875,-3.195312,12.22656,0.0078125,-0.0234375,0.04101562,0.2011719,0.0078125,0,-0.03588867,0,-2.709351,0,0,-2.856689,0,4.049,0,0,0,0,nan,2,0.158,1,0,0.1000061,0.1000061,0.1000061,0.1000061,0,0,0,1,2
3298.447,0.001022,-0.03710938,0.03710938,0.0234375,-1.828125,-3.8125,2.085938,-0.001953125,0.005859375,0.02539062,0.2011719,0.0078125,0,-0.03601074,0.0002441406,-2.708984,0,0,-2.856689,0,4.049,0,0,0,0,nan,2,0.168,1,0,0.1000061,0.1000061,0.1000061,0.1000061,0,0,0,1,2
3298.457,0.001022,-0.08398438,-0.07617188,0.03515625,-2.179688,1.945312,11.57812,-0.01171875,-0.005859375,0.02929688,0.2011719,0.0078125,0,-0.03564453,0.0003662109,-2.70874,0,0,-2.856689,0,4.049,0,0,0,0,nan,2,0.178,1,0,0.1000061,0.1000061,0.1000061,0.1000061,0,0,0,1,2
3298.467,0.001001,0.00390625,0.01171875,0.02734375,0.6484375,-0.78125,9.164062,0.00390625,0,0.03320312,0.2011719,0.0078125,0,-0.03540039,0.0004882812,-2.708374,0,0,-2.856689,0,4.049,0,0,0,0,nan,2,0.006,1,0,0.1000061,0.1000061,0.1000061,0.1000061,0,0,0,1,2
3298.478,0.001014,0.00390625,0.01171875,0.00390625,1.28125,-4.75,19.54688,0.02734375,0,0.01757812,0.2011719,0.0078125,0,-0.03491211,0.0004882812,-2.708008,0,0,-2.856689,0,4.049,0,0,0,0,nan,2,0.005,1,0,0.1000061,0.1000061,0.1000061,0.1000061,0,0,0,1,2
3298.487,0.001006,-0.01367188,0.01953125,0.01367188,2.4375,-2.890625,13.77344,-0.01171875,0.001953125,0.015625,0.2011719,0.0078125,0,-0.03466797,0.0003662109,-2.707886,0,0,-2.856689,0,4.049,0,0,0,0,nan,2,0.014,1,0,0.1000061,0.1000061,0.1000061,0.1000061,0,0,0,1,2
3298.497,0.00101,-0.0078125,-0.02539062,0.02148438,-0.921875,3.84375,11.71094,-0.00390625,-0.005859375,0.01953125,0.2011719,0.0078125,0,-0.03466797,0.0003662109,-2.707764,0,0,-2.856689,0,4.049,0,0,0,0,nan,2,0.024,1,0,0.1000061,0.1000061,0.1000061,0.1000061,0,0,0,1,2
3298.507,0.00102,0.001953125,-0.02734375,0.02734375,0.4921875,1.242188,6.484375,0.0078125,-0.015625,0.02734375,0.2011719,0.0078125,0,-0.0345459,0.0003662109,-2.70752,0,0,-2.70752,0,4.049,0,0,0,0,nan,2,0.034,0,0,0,0,0,0,0,0,0,1,2
3298.517,0.000991,-0.01171875,0.0390625,0.001953125,1.28125,-5.992188,17.375,0.0078125,0.001953125,0.01367188,0.2011719,0.0078125,0,-0.03430176,0.0003662109,-2.707275,0,0,-2.707275,0,4.049,0,0,0,0,nan,2,0.044,0,0,0,0,0,0,0,0,0,1,2
3298.527,0.000985,-0.00390625,-0.01757812,0.015625,-0.4453125,1.664062,11.42969,-0.009765625,-0.0078125,0.01953125,0.2011719,0.0078125,0,-0.03442383,0.0002441406,-2.707031,0,0,-2.707031,0,4.049,0,0,0,0,nan,2,0.055,0,0,0,0,0,0,0,0,0,1,2
3298.537,0.000975,-0.03125,0.01757812,0.015625,-0.109375,-0.5078125,8.234375,-0.01367188,-0.001953125,0.01367188,0.2011719,0.0078125,0,-0.03442383,0.0003662109,-2.706909,0,0,-2.706909,0,4.049,0,0,0,0,nan,2,0.065,0,0,0,0,0,0,0,0,0,1,2
3298.547,0.00101,-0.04101562,-0.04296875,0.015625,-2.507812,3.085938,8.34375,-0.015625,0.00390625,0.015625,0.2011719,0.0078125,0,-0.03442383,0.0004882812,-2.706787,0,0,-2.706787,0,4.049,0,0,0,0,nan,2,0.075,0,0,0,0,0,0,0,0,0,1,2
3298.557,0.00101,0.001953125,0.046875,-0.001953125,-1.265625,1.171875,7.398438,-0.00390625,-0.00390625,0.001953125,0.2011719,0.0078125,0,-0.03442383,0.0004882812,-2.706665,0,0,-2.706665,0,4.049,0,0,0,0,nan,2,0.085,0,0,0,0,0,0,0,0,0,1,2
3298.567,0.00101,0.02539062,0.02148438,-0.001953125,-0.953125,0.7265625,8.085938,0.01953125,0.005859375,-0.001953125,0.2011719,0.0078125,0,-0.0345459,0.0003662109,-2.706665,0,0,-2.706665,0,4.049,0,0,0,0,nan,2,0.095,0,0,0,0,0,0,0,0,0,1,2
3298.577,0.00101,0.046875,0.03125,0.00390625,-0.0390625,-1.578125,11.38281,-0.00390625,0.009765625,-0.001953125,0.2011719,0.0078125,0,-0.0345459,0.0002441406,-2.706665,0,0,-2.706665,0,4.049,0,0,0,0,nan,2,0.105,0,0,0,0,0,0,0,0,0,1,2
3298.588,0.001014,0.04492188,0.0234375,-0.01367188,-0.28125,0.6796875,10.54688,0.03320312,-0.009765625,-0.001953125,0.2011719,0.0078125,0,-0.0345459,0.0003662109,-2.706665,0,0,-2.706665,0,4.049,0,0,0,0,nan,2,0.115,0,0,0,0,0,0,0,0,0,1,2
3298.598,0.001009,-0.03320312,-0.0234375,-0.015625,-1.171875,-1.304688,7.03125,-0.015625,0,-0.01757812,0.2011719,0.0078125,0,-0.03442383,0.0003662109,-2.706787,0,0,-2.706787,0,4.077,0,0,0,0,nan,2,0.125,0,0,0,0,0,0,0,0,0,1,2
3298.607,0.001008,0.04882812,0.0390625,-0.03125,0.140625,0.671875,8.265625,0.0078125,0.00390625,-0.03125,0.2011719,0.0078125,0,-0.03442383,0.0004882812,-2.707031,0,0,-2.707031,0,4.077,0,0,0,0,nan,2,0.134,0,0,0,0,0,0,0,0,0,1,2
3298.617,0.001012,0,0.06445312,-0.046875,-0.2578125,-2.585938,9.078125,0.01367188,0.02148438,-0.0390625,0.2011719,0.0078125,0,-0.03430176,0.0007324219,-2.707275,0,0,-2.707275,0,4.077,0,0,0,0,nan,2,0.144,0,0,0,0,0,0,0,0,0,1,2
3298.627,0.00101,0.015625,-0.07226562,-0.07617188,0.8046875,2.28125,8.539062,-0.01757812,-0.01757812,-0.0546875,0.2011719,0.0078125,0,-0.03417969,0.0006103516,-2.707764,0,0,-2.707764,0,4.077,0,0,0,0,nan,2,0.155,0,0,0,0,0,0,0,0,0,1,2
3298.637,0.00101,0.01171875,0.0625,-0.06640625,-1.726562,-1,12.6875,-0.00390625,0.01757812,-0.06445312,0.2011719,0.0078125,0,-0.03442383,0.0004882812,-2.708374,0,0,-2.708374,0,4.077,0,0,0,0,nan,2,0.165,0,0,0,0,0,0,0,0,0,1,2
3298.647,0.00103,0.001953125,-0.09179688,-0.0546875,0.4296875,1.242188,7.53125,-0.009765625,-0.02148438,-0.046875,0.2011719,0.0078125,0,-0.03442383,0.0004882812,-2.708984,0,0,-2.708984,0,4.077,0,0,0,0,nan,2,0.175,0,0,0,0,0,0,0,0,0,1,2
3298.657,0.001023,-0.03320312,0.03125,-0.0078125,-1.03125,1.914062,10.24219,-0.00390625,0.02734375,-0.03320312,0.2011719,0.0078125,0,-0.03430176,0.0004882812,-2.709473,0,0,-2.709473,0,4.077,0,0,0,0,nan,2,0.185,0,0,0,0,0,0,0,0,0,1,2
3298.667,0.001001,0.001953125,0.01953125,0.015625,-1.640625,1.226562,13.15625,-0.009765625,0.001953125,0.001953125,0.2011719,0.0078125,0,-0.03417969,0.0004882812,-2.709595,0,0,-2.709595,0,4.077,0,0,0,0,nan,2,0.195,0,0,0,0,0,0,0,0,0,1,2
3298.677,0.001043,-0.001953125,0.06640625,0.0390625,-0.3515625,-5.132812,10.70312,-0.005859375,0.009765625,0.03125,0.2011719,0.0078125,0,-0.03393555,0.0004882812,-2.709351,0,0,-2.709351,0,4.077,0,0,0,0,nan,2,0.205,0,0,0,0,0,0,0,0,0,1,2
3298.688,0.001006,0.005859375,-0.0625,0.02539062,2.09375,5.164062,5.382812,-0.00390625,-0.009765625,0.02929688,0.2011719,0.0078125,0,-0.03393555,0.0006103516,-2.708984,0,0,-2.708984,0,4.077,0,0,0,0,nan,2,0.215,0,0,0,0,0,0,0,0,0,1,2
3298.698,0.001,-0.01953125,0.01171875,0.015625,-2.421875,-2.125,17.63281,0,0.00390625,0.01953125,0.2011719,0.0078125,0,-0.03381348,0.0007324219,-2.70874,0,0,-2.70874,0,4.077,0,0,0,0,nan,2,0.225,0,0,0,0,0,0,0,0,0,1,2
3298.707,0.001029,0.0078125,-0.01757812,0.01171875,0.6015625,-5.039062,8.703125,-0.00390625,-0.01171875,0.009765625,0.2011719,0.0078125,0,-0.03405762,0.0007324219,-2.708618,0,0,-2.708618,0,4.077,0,0,0,0,nan,2,0.001,0,0,0,0,0,0,0,0,0,1,2
3298.717,0.001042,0.01757812,-0.01953125,-0.02734375,0.5546875,-3.90625,4.75,0.005859375,-0.001953125,-0.02539062,0.2011719,0.0078125,0,-0.03381348,0.0007324219,-2.70874,0,0,-2.70874,0,4.077,0,0,0,0,nan,2,0.011,0,0,0,0,0,0,0,0,0,1,2
3298.727,0.00101,-0.07226562,-0.03515625,-0.08007812,0.90625,-1.726562,5.539062,-0.01367188,0.0078125,-0.06640625,0.2011719,0.0078125,0,-0.03381348,0.0007324219,-2.709229,0,0,-2.709229,0,4.077,0,0,0,0,nan,2,0.021,0,0,0,0,0,0,0,0,0,1,2
3298.737,0.001048,0.03320312,-0.009765625,-0.0625,2.929688,3.109375,10.5,-0.0078125,-0.00390625,-0.05078125,0.2011719,0.0078125,0,-0.03442383,0.0008544922,-2.709717,0,0,-2.709717,0,4.077,0,0,0,0,nan,2,0.031,0,0,0,0,0,0,0,0,0,1,2
3298.747,0.00101,0.04101562,-0.00390625,-0.001953125,1.875,-1.109375,10.67188,0.005859375,-0.0078125,-0.015625,0.2011719,0.0078125,0,-0.0345459,0.0007324219,-2.710083,0,0,-2.710083,0,4.077,0,0,0,0,nan,2,0.041,0,0,0,0,0,0,0,0,0,1,2
3298.757,0.00101,0.0234375,0.109375,0.01171875,-1.476562,3.398438,13.89844,0.005859375,0.0078125,0,0.2011719,0.0078125,0,-0.03515625,0.0007324219,-2.710205,0,0,-2.710205,0,4.077,0,0,0,0,nan,2,0.051,0,0,0,0,0,0,0,0,0,1,2
3298.767,0.00101,0.00390625,-0.06445312,-0.009765625,1.476562,-4.75,3.8125,0,-0.0234375,-0.00390625,0.2011719,0.0078125,0,-0.03552246,0.0006103516,-2.710205,0,0,-2.710205,0,4.077,0,0,0,0,nan,2,0.062,0,0,0,0,0,0,0,0,0,1,2
3298.777,0.00101,-0.0234375,-0.08789062,0,1.859375,-3.5,12,-0.015625,-0.0234375,0,0.2011719,0.0078125,0,-0.03540039,0.0006103516,-2.710205,0,0,-2.710205,0,4.077,0,0,0,0,nan,2,0.072,0,0,0,0,0,0,0,0,0,1,2
3298.787,0.001014,-0.02929688,-0.01367188,-0.0234375,3.171875,-3.25,6.90625,0.00390625,0,-0.009765625,0.2011719,0.0078125,0,-0.03552246,0.0004882812,-2.710327,0,0,-2.710327,0,4.077,0,0,0,0,nan,2,0.081,0,0,0,0,0,0,0,0,0,1,2
3298.797,0.001079,-0.09960938,-0.0078125,-0.005859375,1.445312,-2.398438,8.382812,-0.0078125,0.0078125,-0.01171875,0.2011719,0.0078125,0,-0.03515625,0.0007324219,-2.710449,0,0,-2.710449,0,4.077,0,0,0,0,nan,2,0.091,0,0,0,0,0,0,0,0,0,1,2
3298.807,0.001239,-0.015625,0.01953125,0.01953125,-0.6015625,-2.382812,11.64844,-0.00390625,0.00390625,-0.005859375,0.2011719,0.0078125,0,-0.03527832,0.0007324219,-2.710571,0,0,-2.710571,0,4.077,0,0,0,0,nan,2,0.101,0,128,0,0,0,0,0,0,0,1,2
3298.817,0.001043,0.08203125,0.04882812,0.03125,-0.953125,-0.625,15.25781,0.005859375,0.005859375,0.01171875,0.2011719,0.0078125,0,-0.03527832,0.0007324219,-2.710571,0,0,-2.710571,0,4.077,0,0,0,0,nan,2,0.111,0,128,0,0,0,0,0,0,0,1,2
3298.827,0.001053,0.07226562,0.02929688,0.001953125,-0.796875,0.5859375,12.82031,0.005859375,0.009765625,-0.00390625,0.2011719,0.0078125,0,-0.03503418,0.0007324219,-2.710571,0,0,-2.710571,0,4.077,0,0,0,0,nan,2,0.121,0,128,0,0,0,0,0,0,0,1,2
3298.837,0.001029,-0.02734375,-0.0625,-0.01757812,4.085938,-0.546875,6.640625,0.001953125,0,-0.0078125,0.2011719,0.0078125,0,-0.03527832,0.0008544922,-2.710571,0,0,-2.710571,0,4.077,0,0,0,0,nan,2,0.131,0,128,0,0,0,0,0,0,0,1,2
3298.901,0.001033,0.01171875,-0.03320312,-0.00390625,-1.734375,-0.5546875,10.94531,0.00390625,-0.009765625,-0.001953125,0.2011719,0.0078125,0,-0.03491211,0.0009765625,-2.710693,0,0,-2.710693,0,4.077,0,0,0,0,nan,2,0.142,0,128,0,0,0,0,0,0,0,1,2
3298.909,0.002588,-0.01953125,0.0078125,0.00390625,-0.5234375,-1.34375,9.296875,-0.01171875,0.01367188,-0.005859375,0.2011719,0.0078125,0,-0.05407715,0.07250977,-2.712036,0,0,-2.712036,0,4.077,0,0,0,0,nan,2,0.203,0,128,0,0,0,0,0,0,0,1,2
3298.917,0.001022,-0.04492188,0.02929688,0.02148438,-0.4609375,0.0234375,10.65625,0,0.015625,0,0.2011719,0.0078125,0,-0.05395508,0.07177734,-2.712158,0,0,-2.712158,0,4.077,0,0,0,0,nan,2,0.003,0,128,0,0,0,0,0,0,0,1,2
3298.927,0.001037,-0.03320312,0.0234375,-0.01367188,-0.8515625,-1.195312,9.898438,-0.005859375,0.001953125,0.00390625,0.2011719,0.0078125,0,-0.05334473,0.07019043,-2.712036,0,0,-2.712036,0,4.077,0,0,0,0,nan,2,0.013,0,128,0,0,0,0,0,0,0,1,2
3298.937,0.00101,-0.02539062,0.02539062,-0.03125,0.2734375,-1.296875,9.445312,-0.0078125,-0.005859375,-0.0078125,0.2011719,0.0078125,0,-0.05285645,0.06872559,-2.711914,0,0,-2.711914,0,4.077,0,0,0,0,nan,2,0.023,0,128,0,0,0,0,0,0,0,1,2
3298.947,0.00101,-0.0078125,-0.06640625,-0.001953125,1.546875,1.546875,8.789062,0,-0.005859375,-0.005859375,0.2011719,0.0078125,0,-0.05212402,0.0670166,-2.711914,0,0,-2.711914,0,4.077,0,0,0,0,nan,2,0.033,0,128,0,0,0,0,0,0,0,1,2
3298.957,0.00101,-0.04492188,0.04882812,-0.02734375,-1.546875,-0.453125,10.77344,-0.009765625,0.0078125,-0.009765625,0.2011719,0.0078125,0,-0.05163574,0.06555176,-2.711914,0,0,-2.711914,0,4.077,0,0,0,0,nan,2,0.043,0,128,0,0,0,0,0,0,0,1,2
3298.967,0.00101,0.02148438,-0.05078125,-0.02148438,1.179688,0.1640625,8.96875,0.009765625,-0.001953125,-0.0078125,0.2011719,0.0078125,0,-0.05114746,0.06445312,-2.711914,0,0,-2.711914,0,4.077,0,0,0,0,nan,2,0.053,0,128,0,0,0,0,0,0,0,1,2
3298.977,0.00101,-0.0546875,0.02734375,0.01171875,-0.09375,-0.96875,9.992188,-0.009765625,-0.001953125,0,0.2011719,0.0078125,0,-0.05090332,0.06347656,-2.711914,0,0,-2.711914,0,4.077,0,0,0,0,nan,2,0.064,0,128,0,0,0,0,0,0,0,1,2
3298.987,0.001009,0.0390625,0.02734375,-0.02148438,-1.265625,0.3515625,11.17969,-0.001953125,0.005859375,0.00390625,0.2011719,0.0078125,0,-0.05065918,0.06274414,-2.711914,0,0,-2.711914,0,4.077,0,0,0,0,nan,2,0.074,0,128,0,0,0,0,0,0,0,1,2
3298.998,0.00101,0.05664062,0.02539062,-0.01367188,-0.328125,-0.7265625,10.98438,0.01367188,0.005859375,0.00390625,0.2011719,0.0078125,0,-0.0501709,0.06140137,-2.711792,0,0,-2.711792,0,4.077,0,0,0,0,nan,2,0.084,0,128,0,0,0,0,0,0,0,1,2
3299.007,0.001011,0.03320312,0.03710938,-0.03320312,-0.671875,-0.0390625,11.01562,0.00390625,0.0078125,-0.01171875,0.2011719,0.0078125,0,-0.05004883,0.06079102,-2.711792,0,0,-2.711792,0,4.077,0,0,0,0,nan,2,0.093,0,128,0,0,0,0,0,0,0,1,2
3299.017,0.00101,0.0390625,0.05078125,-0.015625,-0.6953125,-0.7109375,11.86719,0.0078125,0.01171875,-0.00390625,0.2011719,0.0078125,0,-0.04968262,0.05993652,-2.711792,0,0,-2.711792,0,4.077,0,0,0,0,nan,2,0.103,0,128,0,0,0,0,0,0,0,1,2
3299.027,0.00101,0.0234375,0.03710938,-0.001953125,-1.242188,-0.4609375,11.28906,0.001953125,0.009765625,0.005859375,0.2011719,0.0078125,0,-0.04956055,0.05908203,-2.711792,0,0,-2.711792,0,4.077,0,0,0,0,nan,2,0.113,0,128,0,0,0,0,0,0,0,1,2
3299.037,0.00101,0.01171875,-0.00390625,-0.00390625,-0.5078125,-0.390625,10.36719,-0.001953125,0.0078125,-0.005859375,0.2011719,0.0078125,0,-0.04919434,0.05822754,-2.711792,0,0,-2.711792,0,4.077,0,0,0,0,nan,2,0.123,0,128,0,0,0,0,0,0,0,1,2
3299.047,0.00101,0.00390625,0.01367188,0.0234375,-0.234375,-0.2421875,10.14062,0,0.001953125,0.01171875,0.2011719,0.0078125,0,-0.04858398,0.05627441,-2.711792,0,0,-2.711792,0,4.077,0,0,0,0,nan,2,0.133,0,128,0,0,0,0,0,0,0,1,2
3299.057,0.00101,-0.02148438,0,0.009765625,0.4609375,-0.8359375,9.257812,0,0,0,0.2011719,0.0078125,0,-0.0480957,0.0546875,-2.71167,0,0,-2.71167,0,4.077,0,0,0,0,nan,2,0.143,0,128,0,0,0,0,0,0,0,1,2
3299.067,0.001042,0.015625,-0.01757812,-0.02539062,-0.484375,-0.328125,10.21875,0.001953125,-0.00390625,-0.01367188,0.2011719,0.0078125,0,-0.04736328,0.05285645,-2.711792,0,0,-2.711792,0,4.077,0,0,0,0,nan,2,0.153,0,128,0,0,0,0,0,0,0,1,2
3299.077,0.000991,-0.0234375,0.0078125,0,0.1640625,0.09375,9.976562,-0.005859375,0.005859375,0.00390625,0.2011719,0.0078125,0,-0.04699707,0.0513916,-2.71167,0,0,-2.71167,0,4.077,0,0,0,0,nan,2,0.003,0,128,0,0,0,0,0,0,0,1,2
3299.088,0.001006,0.01171875,-0.00390625,-0.02148438,-0.4609375,-0.25,9.835938,0.001953125,-0.001953125,-0.005859375,0.2011719,0.0078125,0,-0.04638672,0.04968262,-2.71167,0,0,-2.71167,0,4.077,0,0,0,0,nan,2,0.013,0,128,0,0,0,0,0,0,0,1,2
3299.098,0.001011,-0.01171875,0.001953125,0.01367188,0.125,-0.2421875,9.585938,0,0,-0.001953125,0.2011719,0.0078125,0,-0.04589844,0.04821777,-2.71167,0,0,-2.71167,0,4.077,0,0,0,0,nan,2,0.023,0,128,0,0,0,0,0,0,0,1,2
3299.107,0.001012,-0.0078125,0.00390625,-0.01171875,0,-0.25,9.890625,-0.001953125,0.00390625,0.00390625,0.2011719,0.0078125,0,-0.04553223,0.046875,-2.711548,0,0,-2.711548,0,4.077,0,0,0,0,nan,2,0.032,0,128,0,0,0,0,0,0,0,1,2
3299.117,0.00101,0.009765625,-0.015625,-0.01171875,-0.4140625,-0.4921875,9.953125,0.00390625,-0.00390625,0,0.2011719,0.0078125,0,-0.04492188,0.04528809,-2.711548,0,0,-2.711548,0,4.077,0,0,0,0,nan,2,0.042,0,128,0,0,0,0,0,0,0,1,2
3299.127,0.00101,0.005859375,0,0.005859375,0.1953125,-0.4453125,9.515625,0,0.001953125,-0.00390625,0.2011719,0.0078125,0,-0.04455566,0.04406738,-2.71167,0,0,-2.71167,0,4.077,0,0,0,0,nan,2,0.052,0,128,0,0,0,0,0,0,0,1,2
3299.137,0.00101,-0.001953125,0.0078125,0.009765625,0.09375,-0.5078125,9.804688,0.001953125,0.001953125,-0.001953125,0.2011719,0.0078125,0,-0.04406738,0.04272461,-2.71167,0,0,-2.71167,0,4.077,0,0,0,0,nan,2,0.063,0,128,0,0,0,0,0,0,0,1,2
3299.147,0.001048,-0.01171875,0.00390625,0.0078125,0.21875,-0.1640625,9.976562,-0.00390625,0,0,0.2011719,0.0078125,0,-0.04370117,0.04150391,-2.71167,0,0,-2.71167,0,4.077,0,0,0,0,nan,2,0.073,0,128,0,0,0,0,0,0,0,1,2
3299.157,0.00101,0.00390625,0.001953125,0.01171875,0.28125,-0.5625,9.796875,0.00390625,0.001953125,0.005859375,0.2011719,0.0078125,0,-0.04321289,0.0402832,-2.711548,0,0,-2.711548,0,4.077,0,0,0,0,nan,2,0.083,0,128,0,0,0,0,0,0,0,1,2
3299.167,0.00101,-0.009765625,0.005859375,0.01171875,0.1015625,-0.2109375,9.773438,-0.00390625,0.001953125,-0.001953125,0.2011719,0.0078125,0,-0.04296875,0.0390625,-2.71167,0,0,-2.71167,0,4.077,0,0,0,0,nan,2,0.093,0,128,0,0,0,0,0,0,0,1,2
3299.177,0.00101,0.001953125,0,0.009765625,0,-0.578125,9.671875,0.005859375,0,0.00390625,0.2011719,0.0078125,0,-0.0423584,0.03771973,-2.711548,0,0,-2.711548,0,4.077,0,0,0,0,nan,2,0.103,0,128,0,0,0,0,0,0,0,1,2
3299.188,0.001015,0.001953125,0.00390625,-0.015625,-0.1484375,-0.1953125,9.84375,-0.001953125,-0.001953125,-0.01367188,0.2011719,0.0078125,0,-0.04223633,0.03662109,-2.711548,0,0,-2.711548,0,4.077,0,0,0,0,nan,2,0.113,0,128,0,0,0,0,0,0,0,1,2
3299.198,0.001013,0.005859375,-0.00390625,0.001953125,0.0078125,-0.3203125,9.789062,0.001953125,0,0.0078125,0.2011719,0.0078125,0,-0.04162598,0.03540039,-2.711548,0,0,-2.711548,0,4.077,0,0,0,0,nan,2,0.123,0,128,0,0,0,0,0,0,0,1,2
3299.207,0.001015,-0.005859375,0.00390625,0.001953125,0.125,-0.3203125,9.789062,-0.001953125,0.001953125,0,0.2011719,0.0078125,0,-0.04150391,0.03442383,-2.711548,0,0,-2.711548,0,4.077,0,0,0,0,nan,2,0.132,0,128,0,0,0,0,0,0,0,1,2
3299.217,0.00101,0.01171875,0.001953125,0.001953125,0.03125,-0.3671875,9.796875,0.00390625,0,-0.005859375,0.2011719,0.0078125,0,-0.04101562,0.0333252,-2.711548,0,0,-2.711548,0,4.077,0,0,0,0,nan,2,0.142,0,128,0,0,0,0,0,0,0,1,2
3299.227,0.00101,-0.0078125,0,-0.009765625,0.109375,-0.25,9.867188,-0.00390625,0.001953125,0.005859375,0.2011719,0.0078125,0,-0.04077148,0.03234863,-2.711426,0,0,-2.711426,0,4.077,0,0,0,0,nan,2,0.152,0,128,0,0,0,0,0,0,0,1,2
3299.237,0.00101,0.005859375,0,0.009765625,-0.078125,-0.359375,9.8125,0.001953125,-0.001953125,0,0.2011719,0.0078125,0,-0.0402832,0.03137207,-2.711548,0,0,-2.711548,0,4.077,0,0,0,0,nan,2,0.163,0,128,0,0,0,0,0,0,0,1,2
3299.247,0.00101,-0.001953125,0.001953125,-0.005859375,0.1015625,-0.21875,9.835938,-0.001953125,0.001953125,-0.001953125,0.2011719,0.0078125,0,-0.04016113,0.03027344,-2.711426,0,0,-2.711426,0,4.077,0,0,0,0,nan,2,0.173,0,128,0,0,0,0,0,0,0,1,2
3299.257,0.001013,0.001953125,0.00390625,0,-0.09375,-0.390625,9.835938,0.001953125,0,0,0.2011719,0.0078125,0,-0.03967285,0.02929688,-2.711426,0,0,-2.711426,0,4.077,0,0,0,0,nan,2,0.183,0,128,0,0,0,0,0,0,0,1,2
3299.267,0.00101,-0.0078125,0.001953125,0.0078125,0.09375,-0.1796875,9.859375,-0.005859375,0.001953125,0.00390625,0.2011719,0.0078125,0,-0.03955078,0.02844238,-2.711426,0,0,-2.711426,0,4.077,0,0,0,0,nan,2,0.007,0,128,0,0,0,0,0,0,0,1,2
3299.277,0.00101,0.0078125,-0.00390625,-0.0078125,-0.03125,-0.3671875,9.8125,0.00390625,-0.001953125,-0.005859375,0.2011719,0.0078125,0,-0.03918457,0.02746582,-2.711426,0,0,-2.711426,0,4.077,0,0,0,0,nan,2,0.017,0,128,0,0,0,0,0,0,0,1,2
3299.287,0.001004,-0.001953125,0.005859375,0.001953125,0.046875,-0.2265625,9.796875,-0.001953125,0.00390625,0,0.2011719,0.0078125,0,-0.03894043,0.0267334,-2.711426,0,0,-2.711426,0,4.077,0,0,0,0,nan,2,0.027,0,128,0,0,0,0,0,0,0,1,2
3299.298,0.001006,0.00390625,-0.00390625,0.001953125,0.0390625,-0.3359375,9.765625,0.001953125,0,0.001953125,0.2011719,0.0078125,0,-0.03869629,0.02575684,-2.711426,0,0,-2.711426,0,4.077,0,0,0,0,nan,2,0.037,0,128,0,0,0,0,0,0,0,1,2
3299.307,0.001013,-0.00390625,0.00390625,-0.00390625,-0.0703125,-0.2890625,9.84375,-0.001953125,0,0,0.2011719,0.0078125,0,-0.03845215,0.02514648,-2.711426,0,0,-2.711426,0,4.077,0,0,0,0,nan,2,0.046,0,128,0,0,0,0,0,0,0,1,2
3299.317,0.00101,0.001953125,0,0.00390625,0.0625,-0.296875,9.828125,-0.001953125,0.001953125,0,0.2011719,0.0078125,0,-0.03820801,0.02429199,-2.711426,0,0,-2.711426,0,4.077,0,0,0,0,nan,2,0.057,0,128,0,0,0,0,0,0,0,1,2
3299.327,0.00101,-0.005859375,0.001953125,-0.00390625,-0.0625,-0.3125,9.890625,-0.001953125,0,0,0.2011719,0.0078125,0,-0.03796387,0.0234375,-2.711426,0,0,-2.711426,0,4.077,0,0,0,0,nan,2,0.067,0,128,0,0,0,0,0,0,0,1,2
3299.337,0.00101,0,0,-0.001953125,0.1015625,-0.25,9.828125,-0.001953125,0.001953125,0,0.2011719,0.0078125,0,-0.03771973,0.02282715,-2.711426,0,0,-2.711426,0,4.077,0,0,0,0,nan,2,0.077,0,128,0,0,0,0,0,0,0,1,2
3299.347,0.00101,-0.001953125,-0.005859375,0,-0.0546875,-0.3046875,9.8125,-0.001953125,-0.00390625,-0.001953125,0.2011719,0.0078125,0,-0.03759766,0.02197266,-2.711426,0,0,-2.711426,0,4.077,0,0,0,0,nan,2,0.087,0,128,0,0,0,0,0,0,0,1,2
3299.357,0.00101,0.001953125,0.001953125,0,0.0625,-0.2734375,9.8125,-0.001953125,0,0,0.2011719,0.0078125,0,-0.03735352,0.0213623,-2.711426,0,0,-2.711426,0,4.077,0,0,0,0,nan,2,0.097,0,128,0,0,0,0,0,0,0,1,2
3299.367,0.00101,0,-0.00390625,0.001953125,0,-0.328125,9.796875,0,-0.001953125,0,0.2011719,0.0078125,0,-0.03710938,0.02062988,-2.711426,0,0,-2.711426,0,4.077,0,0,0,0,nan,2,0.107,0,128,0,0,0,0,0,0,0,1,2
3299.377,0.00101,-0.001953125,0,0.001953125,0.0390625,-0.28125,9.734375,-0.001953125,0.001953125,0,0.2011719,0.0078125,0,-0.03686523,0.02001953,-2.711426,0,0,-2.711426,0,4.077,0,0,0,0,nan,2,0.117,0,128,0,0,0,0,0,0,0,1,2
3299.387,0.001013,0,-0.00390625,-0.001953125,0,-0.296875,9.835938,0,0,0,0.2011719,0.0078125,0,-0.03662109,0.01940918,-2.711426,0,0,-2.711426,0,4.077,0,0,0,0,nan,2,0.127,0,128,0,0,0,0,0,0,0,1,2
3299.398,0.001005,0,0.001953125,-0.001953125,0.0234375,-0.2890625,9.765625,0,0,-0.001953125,0.2011719,0.0078125,0,-0.03649902,0.01867676,-2.711426,0,0,-2.711426,0,4.077,0,0,0,0,nan,2,0.137,0,128,0,0,0,0,0,0,0,1,2
3299.407,0.001007,-0.001953125,0.00390625,0,0.03125,-0.3359375,9.765625,-0.001953125,0.001953125,0,0.2011719,0.0078125,0,-0.03637695,0.01818848,-2.711426,0,0,-2.711426,0,4.077,0,0,0,0,nan,2,0.146,0,128,0,0,0,0,0,0,0,1,2
3299.417,0.00101,0,0.001953125,0.001953125,-0.0546875,-0.296875,9.757812,-0.001953125,0.001953125,-0.001953125,0.2011719,0.0078125,0,-0.03625488,0.01757812,-2.711426,0,0,-2.711426,0,4.077,0,0,0,0,nan,2,0.157,0,128,0,0,0,0,0,0,0,1,2
3299.427,0.00101,-0.00390625,0,0.001953125,-0.0234375,-0.3203125,9.757812,-0.001953125,0.001953125,0.001953125,0.2011719,0.0078125,0,-0.03601074,0.01708984,-2.711426,0,0,-2.711426,0,4.077,0,0,0,0,nan,2,0.167,0,128,0,0,0,0,0,0,0,1,2
3299.437,0.00101,-0.001953125,-0.00390625,0,0.0078125,-0.3203125,9.8125,-0.001953125,-0.001953125,0,0.2011719,0.0078125,0,-0.03588867,0.01660156,-2.711426,0,0,-2.711426,0,4.077,0,0,0,0,nan,2,0.177,0,128,0,0,0,0,0,0,0,1,2
3299.447,0.001037,0,0.001953125,0.001953125,0.015625,-0.296875,9.804688,0,0,0,0.2011719,0.0078125,0,-0.0357666,0.01599121,-2.711426,0,0,-2.711426,0,4.077,0,0,0,0,nan,2,0.187,0,128,0,0,0,0,0,0,0,1,2
3299.457,0.001003,0,0.00390625,0.001953125,0.03125,-0.2734375,9.789062,0,0.001953125,0,0.2011719,0.0078125,0,-0.03552246,0.01550293,-2.711426,0,0,-2.711426,0,4.077,0,0,0,0,nan,2,0.003,0,128,0,0,0,0,0,0,0,1,2
3299.467,0.00101,0.001953125,0.00390625,0.001953125,-0.0234375,-0.34375,9.789062,0,0.001953125,0,0.2011719,0.0078125,0,-0.03540039,0.01501465,-2.711426,0,0,-2.711426,0,4.077,0,0,0,0,nan,2,0.013,0,128,0,0,0,0,0,0,0,1,2
3299.477,0.00101,0.001953125,0.001953125,-0.001953125,0.0390625,-0.328125,9.765625,0,0.001953125,-0.001953125,0.2011719,0.0078125,0,-0.03527832,0.01452637,-2.711426,0,0,-2.711426,0,4.077,0,0,0,0,nan,2,0.023,0,128,0,0,0,0,0,0,0,1,2
3299.487,0.001011,-0.00390625,-0.00390625,0.001953125,0.0078125,-0.3203125,9.851562,-0.00390625,-0.001953125,0.001953125,0.2011719,0.0078125,0,-0.03515625,0.01403809,-2.711426,0,0,-2.711426,0,4.077,0,0,0,0,nan,2,0.033,0,128,0,0,0,0,0,0,0,1,2
3299.498,0.001011,0,0.001953125,0.00390625,0.0078125,-0.28125,9.804688,-0.001953125,0,0,0.2011719,0.0078125,0,-0.03503418,0.0135498,-2.711426,0,0,-2.711426,0,4.077,0,0,0,0,nan,2,0.043,0,128,0,0,0,0,0,0,0,1,2
