t,dt_s,gyro_x,gyro_y,gyro_z,acc_x,acc_y,acc_z,rates.x,rates.y,rates.z,ratesTarget.x,ratesTarget.y,ratesTarget.z,attitude.x,attitude.y,attitude.z,attitudeTarget.x,attitudeTarget.y,attitudeTarget.z,thrustTarget,battery_v,rc_roll,rc_pitch,rc_yaw,rc_throttle,rc_mode,flight_mode,rc_age_s,armed,fault_mask,motor_rl,motor_rr,motor_fr,motor_fl,rate_i_x,rate_i_y,rate_i_z,mix_scale,control_source
84.03,0.001008,0,-0.001953125,0,-0.0234375,-0.3203125,9.78125,0,0,0,0,0,0,-0.03112793,-0.002075195,-0.0009765625,0,0,-0.0009765625,0,4.077,0,0,0,0,nan,2,0.02,0,0,0,0,0,0,0,0,0,1,2
84.04,0.001013,0.00390625,0,0,0.0625,-0.296875,9.789062,0.001953125,0,0.001953125,0,0,0,-0.03112793,-0.002075195,-0.0009765625,0,0,-0.0009765625,0,4.077,0,0,0,0,nan,2,0.03,0,0,0,0,0,0,0,0,0,1,2
84.05,0.001042,0.001953125,-0.00390625,0.001953125,0.0390625,-0.2890625,9.734375,0.001953125,-0.001953125,0.001953125,0,0,0,-0.03112793,-0.002075195,-0.0009765625,0,0,-0.0009765625,0,4.077,0,0,0,0,nan,2,0.04,0,0,0,0,0,0,0,0,0,1,2
84.06,0.00101,0,0.001953125,0,-0.015625,-0.3125,9.773438,0,-0.001953125,0,0,0,0,-0.03112793,-0.002075195,-0.0009765625,0,0,-0.0009765625,0,4.077,0,0,0,0,nan,2,0.05,0,0,0,0,0,0,0,0,0,1,2
84.07,0.001025,-0.00390625,0.001953125,0.001953125,0,-0.296875,9.78125,-0.001953125,0,0.001953125,0,0,0,-0.03112793,-0.002075195,-0.0009765625,0,0,-0.0009765625,0,4.077,0,0,0,0,nan,2,0.061,0,0,0,0,0,0,0,0,0,1,2
84.08,0.001019,-0.001953125,-0.00390625,0.001953125,0.0625,-0.2890625,9.859375,0,-0.001953125,0,0,0,0,-0.03112793,-0.002075195,-0.0009765625,0,0,-0.0009765625,0,4.077,0,0,0,0,nan,2,0.002,0,0,0,0,0,0,0,0,0,1,2
84.09,0.00101,0,-0.00390625,0,0.0625,-0.28125,9.835938,0,0,0,0,0,0,-0.03112793,-0.002197266,-0.0009765625,0,0,-0.0009765625,0,4.077,0,0,0,0,nan,2,0.012,0,0,0,0,0,0,0,0,0,1,2
84.1,0.000992,0.001953125,0.00390625,-0.001953125,0.0078125,-0.2890625,9.828125,0,0,0,0,0,0,-0.03112793,-0.002197266,-0.0009765625,0,0,-0.0009765625,0,4.077,0,0,0,0,nan,2,0.022,0,0,0,0,0,0,0,0,0,1,2
84.11,0.00105,0,0,0,0.015625,-0.3125,9.882812,0,0,-0.001953125,0,0,0,-0.03100586,-0.002197266,-0.0009765625,0,0,-0.0009765625,0,4.077,0,0,0,0,nan,2,0.032,0,0,0,0,0,0,0,0,0,1,2
84.12,0.001005,-0.001953125,0,0,-0.0078125,-0.34375,9.8125,0,-0.001953125,0,0,0,0,-0.03100586,-0.002197266,-0.0009765625,0,0,-0.0009765625,0,4.077,0,0,0,0,nan,2,0.002,0,0,0,0,0,0,0,0,0,1,2
84.13,0.000994,-0.001953125,0.001953125,0,0.0234375,-0.296875,9.851562,-0.001953125,0,0,0,0,0,-0.03112793,-0.002197266,-0.0009765625,0,0,-0.0009765625,0,4.077,0,0,0,0,nan,2,0.012,0,0,0,0,0,0,0,0,0,1,2
84.14,0.001003,0,0,-0.001953125,0.046875,-0.296875,9.859375,0,0,-0.001953125,0,0,0,-0.03112793,-0.002197266,-0.0009765625,0,0,-0.0009765625,0,4.077,0,0,0,0,nan,2,0.022,0,0,0,0,0,0,0,0,0,1,2
84.15,0.00101,0.001953125,0,0,0,-0.3125,9.828125,0,0.001953125,0,0,0,0,-0.03112793,-0.002197266,-0.0009765625,0,0,-0.0009765625,0,4.077,0,0,0,0,nan,2,0.032,0,0,0,0,0,0,0,0,0,1,2
84.16,0.00101,-0.001953125,0,-0.00390625,0.0234375,-0.3046875,9.796875,-0.001953125,0,0,0,0,0,-0.03112793,-0.002075195,-0.0009765625,0,0,-0.0009765625,0,4.077,0,0,0,0,nan,2,0.042,0,0,0,0,0,0,0,0,0,1,2
84.17,0.00101,-0.001953125,0.00390625,-0.001953125,0.0234375,-0.3046875,9.804688,0,0.001953125,-0.001953125,0,0,0,-0.03112793,-0.002075195,-0.0009765625,0,0,-0.0009765625,0,4.077,0,0,0,0,nan,2,0.053,0,0,0,0,0,0,0,0,0,1,2
84.18,0.00101,0,0.001953125,0,0.03125,-0.3125,9.835938,0,0.001953125,0,0,0,0,-0.03100586,-0.002075195,-0.0009765625,0,0,-0.0009765625,0,4.077,0,0,0,0,nan,2,0.063,0,0,0,0,0,0,0,0,0,1,2
84.19,0.00101,-0.001953125,-0.001953125,0.001953125,0.015625,-0.3125,9.84375,0,0,0,0,0,0,-0.03100586,-0.002075195,-0.0009765625,0,0,-0.0009765625,0,4.077,0,0,0,0,nan,2,0.073,0,0,0,0,0,0,0,0,0,1,2
84.2,0.00101,0.005859375,-0.001953125,0.001953125,0.03125,-0.3046875,9.835938,0.001953125,0,0,0,0,0,-0.03100586,-0.002075195,-0.0009765625,0,0,-0.0009765625,0,4.077,0,0,0,0,nan,2,0.083,0,0,0,0,0,0,0,0,0,1,2
84.21,0.00101,0,-0.00390625,0.001953125,0.0078125,-0.296875,9.828125,0,-0.001953125,0,0,0,0,-0.03100586,-0.002075195,-0.0009765625,0,0,-0.0009765625,0,4.077,0,0,0,0,nan,2,0.093,0,0,0,0,0,0,0,0,0,1,2
84.22,0.001012,0,0.001953125,-0.001953125,0.0234375,-0.296875,9.84375,0,0,0,0,0,0,-0.03100586,-0.002075195,-0.0009765625,0,0,-0.0009765625,0,4.077,0,0,0,0,nan,2,0.103,0,0,0,0,0,0,0,0,0,1,2
84.23,0.001012,0,0.001953125,0,0,-0.3046875,9.835938,0,0,0,0,0,0,-0.03088379,-0.002075195,-0.0009765625,0,0,-0.0009765625,0,4.077,0,0,0,0,nan,2,0.112,0,0,0,0,0,0,0,0,0,1,2
84.24,0.001032,0,-0.001953125,0.001953125,0.0390625,-0.3046875,9.742188,0,-0.001953125,0,0,0,0,-0.03100586,-0.002075195,-0.0009765625,0,0,-0.0009765625,0,4.077,0,0,0,0,nan,2,0.005,0,0,0,0,0,0,0,0,0,1,2
84.25,0.001039,0.005859375,0,0.00390625,0.046875,-0.3046875,9.796875,0.001953125,0,0.001953125,0,0,0,-0.03100586,-0.002075195,-0.0009765625,0,0,-0.0009765625,0,4.077,0,0,0,0,nan,2,0.015,0,0,0,0,0,0,0,0,0,1,2
84.26,0.00101,0,0,0,0.015625,-0.296875,9.84375,0,-0.001953125,0,0,0,0,-0.03088379,-0.002075195,-0.0009765625,0,0,-0.0009765625,0,4.077,0,0,0,0,nan,2,0.025,0,0,0,0,0,0,0,0,0,1,2
84.27,0.00101,0,-0.001953125,0,-0.0078125,-0.3046875,9.859375,0,0,0,0,0,0,-0.03088379,-0.001953125,-0.0009765625,0,0,-0.0009765625,0,4.077,0,0,0,0,nan,2,0.035,0,0,0,0,0,0,0,0,0,1,2
84.28,0.00101,0,0,0,0.015625,-0.28125,9.820312,0,0,0,0,0,0,-0.03088379,-0.001953125,-0.0009765625,0,0,-0.0009765625,0,4.077,0,0,0,0,nan,2,0.045,0,0,0,0,0,0,0,0,0,1,2
84.29,0.00101,-0.00390625,0,0,0,-0.2890625,9.789062,-0.001953125,0,0,0,0,0,-0.03088379,-0.001953125,-0.0009765625,0,0,-0.0009765625,0,4.077,0,0,0,0,nan,2,0.056,0,0,0,0,0,0,0,0,0,1,2
84.3,0.00101,0,0.001953125,-0.001953125,0.0390625,-0.328125,9.804688,-0.001953125,0.001953125,0,0,0,0,-0.03088379,-0.002075195,-0.0009765625,0,0,-0.0009765625,0,4.077,0,0,0,0,nan,2,0.066,0,0,0,0,0,0,0,0,0,1,2
84.31,0.001028,-0.001953125,-0.00390625,0,0.0234375,-0.296875,9.820312,0,0,0,0,0,0,-0.03088379,-0.001953125,-0.0009765625,0,0,-0.0009765625,0,4.077,0,0,0,0,nan,2,0.076,0,0,0,0,0,0,0,0,0,1,2
84.32,0.001012,0,0.00390625,0.001953125,0.0234375,-0.3046875,9.875,0,0.001953125,0.001953125,0,0,0,-0.03088379,-0.001953125,-0.0009765625,0,0,-0.0009765625,0,4.077,0,0,0,0,nan,2,0.086,0,0,0,0,0,0,0,0,0,1,2
84.33,0.001015,-0.00390625,0,0,0.0390625,-0.3046875,9.867188,0,0,0,0,0,0,-0.03100586,-0.001953125,-0.0009765625,0,0,-0.0009765625,0,4.077,0,0,0,0,nan,2,0.095,0,0,0,0,0,0,0,0,0,1,2
84.34,0.001013,-0.001953125,-0.001953125,0,-0.015625,-0.3125,9.835938,0,-0.001953125,0,0,0,0,-0.03100586,-0.001953125,-0.0009765625,0,0,-0.0009765625,0,4.077,0,0,0,0,nan,2,0.105,0,0,0,0,0,0,0,0,0,1,2
84.35,0.000997,0,-0.00390625,-0.001953125,0.015625,-0.328125,9.8125,0,-0.001953125,0,0,0,0,-0.03100586,-0.001953125,-0.0009765625,0,0,-0.0009765625,0,4.077,0,0,0,0,nan,2,0.009,0,0,0,0,0,0,0,0,0,1,2
84.36,0.001024,0,0.001953125,0.001953125,0.03125,-0.3046875,9.851562,0,0,0,0,0,0,-0.03100586,-0.001953125,-0.0009765625,0,0,-0.0009765625,0,4.077,0,0,0,0,nan,2,0.008,0,0,0,0,0,0,0,0,0,1,2
84.37,0.001014,-0.001953125,0,0,0.0234375,-0.3125,9.8125,0,0,0,0,0,0,-0.03100586,-0.001953125,-0.0009765625,0,0,-0.0009765625,0,4.077,0,0,0,0,nan,2,0.018,0,0,0,0,0,0,0,0,0,1,2
84.38,0.00101,0.001953125,0,0,0.03125,-0.2890625,9.8125,0,0,0,0,0,0,-0.03100586,-0.001953125,-0.0008544922,0,0,-0.0008544922,0,4.077,0,0,0,0,nan,2,0.028,0,0,0,0,0,0,0,0,0,1,2
84.39,0.000993,0,0,-0.001953125,0.0390625,-0.296875,9.773438,0,0,-0.001953125,0,0,0,-0.03088379,-0.002075195,-0.0008544922,0,0,-0.0008544922,0,4.077,0,0,0,0,nan,2,0.038,0,0,0,0,0,0,0,0,0,1,2
84.4,0.0009860001,0,0,0,0.0078125,-0.2890625,9.789062,0,0,0,0,0,0,-0.03088379,-0.002075195,-0.0008544922,0,0,-0.0008544922,0,4.077,0,0,0,0,nan,2,0.048,0,0,0,0,0,0,0,0,0,1,2
84.41,0.00101,0,0.001953125,0,0.03125,-0.3125,9.789062,0,0.001953125,0,0,0,0,-0.03088379,-0.002075195,-0.0008544922,0,0,-0.0008544922,0,4.077,0,0,0,0,nan,2,0.059,0,0,0,0,0,0,0,0,0,1,2
84.42,0.001001,-0.001953125,0.001953125,0.001953125,-0.0078125,-0.28125,9.796875,0,0,0.001953125,0,0,0,-0.03088379,-0.002075195,-0.0008544922,0,0,-0.0008544922,0,4.077,0,0,0,0,nan,2,0.069,0,0,0,0,0,0,0,0,0,1,2
84.43,0.001019,0,-0.005859375,0.001953125,0.0234375,-0.3046875,9.875,-0.001953125,-0.001953125,0.001953125,0,0,0,-0.03100586,-0.002075195,-0.0008544922,0,0,-0.0008544922,0,4.077,0,0,0,0,nan,2,0.078,0,0,0,0,0,0,0,0,0,1,2
84.44,0.001005,-0.001953125,-0.001953125,-0.001953125,0.0078125,-0.296875,9.820312,0,-0.001953125,0,0,0,0,-0.03100586,-0.002075195,-0.0008544922,0,0,-0.0008544922,0,4.077,0,0,0,0,nan,2,0.088,0,0,0,0,0,0,0,0,0,1,2
84.45,0.000999,0,0,0.001953125,0.0234375,-0.3046875,9.757812,0,0,0,0,0,0,-0.03100586,-0.002075195,-0.0008544922,0,0,-0.0008544922,0,4.077,0,0,0,0,nan,2,0.098,0,0,0,0,0,0,0,0,0,1,2
84.46,0.001015,-0.001953125,0.001953125,0,0.0078125,-0.328125,9.828125,0,0.001953125,-0.001953125,0,0,0,-0.03100586,-0.002075195,-0.0008544922,0,0,-0.0008544922,0,4.077,0,0,0,0,nan,2,0.007,0,0,0,0,0,0,0,0,0,1,2
84.47,0.001016,0,-0.001953125,0.001953125,0.015625,-0.28125,9.828125,0.001953125,-0.001953125,0,0,0,0,-0.03088379,-0.002075195,-0.0008544922,0,0,-0.0008544922,0,4.077,0,0,0,0,nan,2,0.017,0,0,0,0,0,0,0,0,0,1,2
84.48,0.00101,-0.001953125,0,0,0.0546875,-0.296875,9.789062,0,0,0,0,0,0,-0.03088379,-0.002075195,-0.0008544922,0,0,-0.0008544922,0,4.077,0,0,0,0,nan,2,0.027,0,0,0,0,0,0,0,0,0,1,2
84.49,0.00101,0,0.001953125,0.001953125,0.0234375,-0.3046875,9.757812,0,0,0,0,0,0,-0.03088379,-0.002075195,-0.0008544922,0,0,-0.0008544922,0,4.077,0,0,0,0,nan,2,0.037,0,0,0,0,0,0,0,0,0,1,2
84.5,0.00101,-0.00390625,0,0,0.0078125,-0.2890625,9.78125,0,0,0,0,0,0,-0.03088379,-0.002197266,-0.0008544922,0,0,-0.0008544922,0,4.077,0,0,0,0,nan,2,0.047,0,0,0,0,0,0,0,0,0,1,2
84.51,0.00101,-0.001953125,0.001953125,0,0.0234375,-0.28125,9.820312,0,0,0,0,0,0,-0.03100586,-0.002197266,-0.0008544922,0,0,-0.0008544922,0,4.077,0,0,0,0,nan,2,0.058,0,0,0,0,0,0,0,0,0,1,2
84.52,0.00101,0.001953125,-0.00390625,0.00390625,0.0390625,-0.3359375,9.84375,0,0,0.00390625,0,0,0,-0.03100586,-0.002197266,-0.0008544922,0,0,-0.0008544922,0,4.077,0,0,0,0,nan,2,0.068,0,0,0,0,0,0,0,0,0,1,2
84.531,0.001016,0.00390625,-0.00390625,-0.001953125,0.015625,-0.3125,9.84375,0.001953125,-0.001953125,0,0,0,0,-0.03100586,-0.002197266,-0.0008544922,0,0,-0.0008544922,0,4.077,0,0,0,0,nan,2,0.078,0,0,0,0,0,0,0,0,0,1,2
84.54,0.001007,0,0,-0.001953125,0.0546875,-0.28125,9.820312,0,0,0,0,0,0,-0.03100586,-0.002197266,-0.0008544922,0,0,-0.0008544922,0,4.077,0,0,0,0,nan,2,0.087,0,0,0,0,0,0,0,0,0,1,2
84.55,0.001,0,-0.00390625,0,0.0078125,-0.3203125,9.765625,-0.001953125,-0.001953125,0,0,0,0,-0.03088379,-0.002197266,-0.0008544922,0,0,-0.0008544922,0,4.077,0,0,0,0,nan,2,0.002,0,0,0,0,0,0,0,0,0,1,2
84.56,0.00101,0,-0.00390625,-0.001953125,0.0234375,-0.3125,9.765625,0,-0.001953125,-0.001953125,0,0,0,-0.03100586,-0.002197266,-0.0008544922,0,0,-0.0008544922,0,4.077,0,0,0,0,nan,2,0.012,0,0,0,0,0,0,0,0,0,1,2
84.57,0.000997,0,-0.00390625,0,0.0078125,-0.3046875,9.867188,0,0,-0.001953125,0,0,0,-0.03100586,-0.002197266,-0.0008544922,0,0,-0.0008544922,0,4.077,0,0,0,0,nan,2,0.022,0,0,0,0,0,0,0,0,0,1,2
84.58,0.001048,0.001953125,0,-0.001953125,0.0546875,-0.3125,9.875,0,0.001953125,-0.001953125,0,0,0,-0.03100586,-0.002197266,-0.0009765625,0,0,-0.0009765625,0,4.077,0,0,0,0,nan,2,0.004,0,0,0,0,0,0,0,0,0,1,2
84.59,0.00101,0.001953125,0,0,0.0390625,-0.328125,9.804688,0.001953125,-0.001953125,0,0,0,0,-0.03100586,-0.002197266,-0.0009765625,0,0,-0.0009765625,0,4.077,0,0,0,0,nan,2,0.014,0,0,0,0,0,0,0,0,0,1,2
84.6,0.00101,-0.001953125,0.001953125,-0.001953125,0.0234375,-0.3046875,9.804688,-0.001953125,0,0,0,0,0,-0.03100586,-0.002197266,-0.0009765625,0,0,-0.0009765625,0,4.077,0,0,0,0,nan,2,0.024,0,0,0,0,0,0,0,0,0,1,2
84.61,0.00101,0.001953125,0,0,-0.03125,-0.3125,9.78125,0,0.001953125,0,0,0,0,-0.03100586,-0.002197266,-0.0009765625,0,0,-0.0009765625,0,4.077,0,0,0,0,nan,2,0.034,0,0,0,0,0,0,0,0,0,1,2
84.62,0.00101,0.001953125,0,0.001953125,0.015625,-0.28125,9.78125,0.001953125,0,0.001953125,0,0,0,-0.03100586,-0.002197266,-0.0009765625,0,0,-0.0009765625,0,4.077,0,0,0,0,nan,2,0.044,0,0,0,0,0,0,0,0,0,1,2
84.63,0.001006,0,0.001953125,0,0.03125,-0.328125,9.851562,0.001953125,0,0,0,0,0,-0.03100586,-0.002075195,-0.0008544922,0,0,-0.0008544922,0,4.077,0,0,0,0,nan,2,0.054,0,0,0,0,0,0,0,0,0,1,2
84.64,0.001007,-0.001953125,0.001953125,-0.001953125,-0.0078125,-0.2890625,9.765625,0,0,0,0,0,0,-0.03100586,-0.002197266,-0.0008544922,0,0,-0.0008544922,0,4.077,0,0,0,0,nan,2,0.064,0,0,0,0,0,0,0,0,0,1,2
84.65,0.000985,0,0.001953125,0,0.015625,-0.328125,9.828125,0,0.001953125,0,0,0,0,-0.03088379,-0.002075195,-0.0009765625,0,0,-0.0009765625,0,4.077,0,0,0,0,nan,2,0.074,0,0,0,0,0,0,0,0,0,1,2
84.66,0.00101,0,0.001953125,0,0.015625,-0.2734375,9.835938,0,0.001953125,0,0,0,0,-0.03088379,-0.002075195,-0.0009765625,0,0,-0.0009765625,0,4.077,0,0,0,0,nan,2,0.084,0,0,0,0,0,0,0,0,0,1,2
84.67,0.001029,-0.001953125,0.001953125,-0.00390625,0.03125,-0.296875,9.828125,-0.001953125,0.001953125,-0.001953125,0,0,0,-0.03088379,-0.002075195,-0.0009765625,0,0,-0.0009765625,0,4.077,0,0,0,0,nan,2,0.094,0,0,0,0,0,0,0,0,0,1,2
84.68,0.00101,0,0,0,0.0078125,-0.328125,9.828125,-0.001953125,0,0,0,0,0,-0.03088379,-0.002075195,-0.0009765625,0,0,-0.0009765625,0,4.077,0,0,0,0,nan,2,0.104,0,0,0,0,0,0,0,0,0,1,2
84.69,0.001045,0,0.00390625,-0.001953125,-0.0078125,-0.3515625,9.773438,0,0,-0.001953125,0,0,0,-0.03100586,-0.002075195,-0.0009765625,0,0,-0.0009765625,0,4.077,0,0,0,0,nan,2,0.114,0,0,0,0,0,0,0,0,0,1,2
84.7,0.001025,0.005859375,-0.001953125,-0.001953125,0.046875,-0.3125,9.851562,0,0.001953125,-0.001953125,0,0,0,-0.03100586,-0.002075195,-0.0009765625,0,0,-0.0009765625,0,4.077,0,0,0,0,nan,2,0.124,1,0,0.1000061,0.1000061,0.1000061,0.1000061,0,0,0,1,2
84.71,0.001009,0.00390625,-0.001953125,0,-0.0390625,-0.2109375,9.804688,0,0,0,0,0,0,-0.03100586,-0.001953125,-0.0009765625,0,0,-0.0009765625,0,4.077,0,0,0,0,nan,2,0.134,1,0,0.1000061,0.1000061,0.1000061,0.1000061,0,0,0,1,2
84.72,0.001011,-0.00390625,-0.01171875,0.01171875,0.296875,-0.5703125,9.765625,0,-0.001953125,-0.001953125,0,0,0,-0.03100586,-0.002075195,-0.0009765625,0,0,-0.0009765625,0,4.077,0,0,0,0,nan,2,0.143,1,0,0.1000061,0.1000061,0.1000061,0.1000061,0,0,0,1,2
84.73,0.001017,-0.015625,0,0.00390625,-0.1796875,-0.109375,9.820312,-0.00390625,0.001953125,-0.005859375,0,0,0,-0.03112793,-0.002075195,-0.0009765625,0,0,-0.0009765625,0,4.077,0,0,0,0,nan,2,0.154,1,0,0.1000061,0.1000061,0.1000061,0.1000061,0,0,0,1,2
84.74,0.001012,0.04296875,-0.015625,-0.009765625,0.34375,-1.039062,9.90625,0.0078125,-0.0078125,0.001953125,0,0,0,-0.03100586,-0.001953125,-0.0009765625,0,0,-0.0009765625,0,4.077,0,0,0,0,nan,2,0.164,1,0,0.1000061,0.1000061,0.1000061,0.1000061,0,0,0,1,2
84.75,0.001012,0.0546875,-0.02929688,0.01367188,0.671875,-1.53125,9.289062,0.005859375,0,0.001953125,0,0,0,-0.03137207,-0.002197266,-0.0009765625,0,0,-0.0009765625,0,4.077,0,0,0,0,nan,2,0.174,1,0,0.1000061,0.1000061,0.1000061,0.1000061,0,0,0,1,2
84.76,0.001011,0.08203125,-0.08007812,0.03125,0.3671875,-0.734375,9.976562,0.01757812,-0.005859375,0.00390625,0,0,0,-0.03137207,-0.002197266,-0.0009765625,0,0,-0.0009765625,0,4.077,0,0,0,0,nan,2,0.184,1,0,0.1000061,0.1000061,0.1000061,0.1000061,0,0,0,1,2
84.77,0.001011,-0.04296875,0.0078125,-0.02734375,0.3046875,-0.65625,8.867188,-0.001953125,0,-0.005859375,0,0,0,-0.03137207,-0.002197266,-0.0009765625,0,0,-0.0009765625,0,4.077,0,0,0,0,nan,2,0.194,1,0,0.1000061,0.1000061,0.1000061,0.1000061,0,0,0,1,2
84.78,0.001011,0.02148438,-0.001953125,0.01367188,-3.28125,-0.5703125,10.21875,0.00390625,-0.00390625,0.001953125,0,0,0,-0.03125,-0.002075195,-0.0009765625,0,0,-0.0009765625,0,4.077,0,0,0,0,nan,2,0.204,1,0,0.1000061,0.1000061,0.1000061,0.1000061,0,0,0,1,2
84.79,0.001011,0.03710938,0.0703125,-0.01367188,-2.445312,0.3046875,10.60938,0.01757812,0.005859375,-0.005859375,0,0,0,-0.03125,-0.001953125,-0.0009765625,0,0,-0.0009765625,0,4.077,0,0,0,0,nan,2,0.214,1,0,0.1000061,0.1000061,0.1000061,0.1000061,0,0,0,1,2
84.8,0.001013,0.08007812,0.01171875,-0.009765625,0.21875,0.0625,6.367188,0.01171875,0.00390625,-0.00390625,0,0,0,-0.03137207,-0.001831055,-0.0009765625,0,0,-0.0009765625,0,4.077,0,0,0,0,nan,2,0.224,1,0,0.1000061,0.1000061,0.1000061,0.1000061,0,0,0,1,2
84.81,0.001015,-0.02539062,-0.03320312,0.02734375,-1.617188,-4.179688,10.25781,0.001953125,-0.005859375,0.00390625,0,0,0,-0.03173828,-0.001708984,-0.001098633,0,0,-0.0009765625,0,4.077,0,0,0,0,nan,2,0.234,1,0,0.1000061,0.1000061,0.1000061,0.1000061,0,0,0,1,2
84.82,0.001011,-0.009765625,-0.05273438,0.04296875,-1.859375,-1,7.734375,-0.001953125,-0.005859375,0.02929688,0,0,0,-0.03186035,-0.001708984,-0.0008544922,0,0,-0.0009765625,0,4.077,0,0,0,0,nan,2,0.244,1,0,0.1000061,0.1000061,0.1000061,0.1000061,0,0,0,1,2
84.831,0.001009,0.09179688,0.02734375,0.03515625,0.578125,0.7734375,12.75781,0.009765625,0.01367188,0.03125,0,0,0,-0.03137207,-0.001464844,-0.0006103516,0,0,-0.0009765625,0,4.077,0,0,0,0,nan,2,0.255,1,0,0.1000061,0.1000061,0.1000061,0.1000061,0,0,0,1,2
84.84,0.001009,-0.06054688,-0.01367188,-0.009765625,0.4609375,-3.164062,10.99219,-0.0078125,0.00390625,0.0078125,0,0,0,-0.03173828,-0.001464844,-0.0003662109,0,0,-0.0009765625,0,4.077,0,0,0,0,nan,2,0.264,1,0,0.1000061,0.1000061,0.1000061,0.1000061,0,0,0,1,2
84.85,0.001033,-0.06445312,-0.005859375,-0.04492188,-2.390625,-0.5234375,10.89062,-0.0078125,0.001953125,-0.0390625,0,0,0,-0.03210449,-0.001342773,-0.0006103516,0,0,-0.0009765625,0,4.077,0,0,0,0,nan,2,0.001,1,0,0.1000061,0.1000061,0.1000061,0.1000061,0,0,0,1,2
84.86,0.001003,0.0078125,-0.04492188,-0.02734375,-1.039062,-1.242188,11.98438,0.01171875,-0.0234375,-0.02539062,0,0,0,-0.03198242,-0.001708984,-0.0008544922,0,0,-0.0009765625,0,4.051,0,0,0,0,nan,2,0.011,1,0,0.1000061,0.1000061,0.1000061,0.1000061,0,0,0,1,2
84.87,0.001011,-0.04296875,0.01953125,-0.03320312,-0.90625,1.203125,11.25,-0.02148438,0.00390625,-0.02734375,0,0,0,-0.03210449,-0.001953125,-0.001098633,0,0,-0.0009765625,0,4.051,0,0,0,0,nan,2,0.021,1,0,0.1000061,0.1000061,0.1000061,0.1000061,0,0,0,1,2
84.88,0.001009,0.07421875,-0.03125,-0.03125,1.695312,3.265625,7.578125,0.0078125,0.00390625,-0.01953125,0,0,0,-0.03210449,-0.002075195,-0.001342773,0,0,-0.0009765625,0,4.051,0,0,0,0,nan,2,0.031,1,0,0.1000061,0.1000061,0.1000061,0.1000061,0,0,0,1,2
84.89,0.001009,0.04882812,-0.06445312,-0.02148438,1.25,-1.539062,8.6875,-0.0078125,-0.0234375,-0.02539062,0,0,0,-0.0324707,-0.002563477,-0.001586914,0,0,-0.0009765625,0,4.051,0,0,0,0,nan,2,0.041,1,0,0.1000061,0.1000061,0.1000061,0.1000061,0,0,0,1,2
84.9,0.001019,-0.01171875,0.01757812,-0.04101562,-1.382812,-0.6953125,13.3125,-0.01953125,-0.0078125,-0.03320312,0,0,0,-0.03283691,-0.002441406,-0.001831055,0,0,-0.0009765625,0,4.051,0,0,0,0,nan,2,0.052,1,0,0.1000061,0.1000061,0.1000061,0.1000061,0,0,0,1,2
84.91,0.001035,-0.009765625,-0.01367188,-0.06835938,0.2890625,1.3125,6.976562,0.009765625,0.00390625,-0.0546875,0,0,0,-0.03283691,-0.002563477,-0.002319336,0,0,-0.0009765625,0,4.051,0,0,0,0,nan,2,0.062,1,0,0.1000061,0.1000061,0.1000061,0.1000061,0,0,0,1,2
84.92,0.001009,-0.07617188,0.06054688,-0.02734375,0.4296875,-0.21875,10.51562,-0.03125,0.00390625,-0.04882812,0,0,0,-0.03320312,-0.002319336,-0.002929688,0,0,-0.0009765625,0,4.051,0,0,0,0,nan,2,0.072,1,0,0.1000061,0.1000061,0.1000061,0.1000061,0,0,0,1,2
84.93,0.001015,-0.00390625,-0.01953125,-0.04492188,0.296875,-0.890625,7.835938,-0.009765625,-0.009765625,-0.03320312,0,0,0,-0.0333252,-0.002319336,-0.003173828,0,0,-0.0009765625,0,4.051,0,0,0,0,nan,2,0.082,1,0,0.1000061,0.1000061,0.1000061,0.1000061,0,0,0,1,2
84.94,0.001008,-0.001953125,-0.04492188,-0.02539062,-0.9453125,-1.03125,12.54688,0.01171875,-0.01757812,-0.05859375,0,0,0,-0.03320312,-0.002319336,-0.00378418,0,0,-0.0009765625,0,4.051,0,0,0,0,nan,2,0.091,1,0,0.1000061,0.1000061,0.1000061,0.1000061,0,0,0,1,2
84.95,0.001011,-0.01953125,-0.05078125,-0.04492188,-0.5703125,-0.2890625,11.86719,-0.01953125,-0.02734375,-0.03320312,0,0,0,-0.03283691,-0.002075195,-0.00402832,0,0,-0.0009765625,0,4.051,0,0,0,0,nan,2,0.101,1,0,0.1000061,0.1000061,0.1000061,0.1000061,0,0,0,1,2
84.96,0.001011,-0.06445312,-0.01757812,0.01171875,-0.5,1.640625,9.523438,-0.0234375,-0.001953125,-0.001953125,0,0,0,-0.03283691,-0.002441406,-0.004272461,0,0,-0.0009765625,0,4.051,0,0,0,0,nan,2,0.111,1,0,0.1000061,0.1000061,0.1000061,0.1000061,0,0,0,1,2
84.97,0.001011,-0.03515625,-0.001953125,-0.03515625,-1.164062,-1.25,10.02344,-0.001953125,0.01171875,-0.03125,0,0,0,-0.03295898,-0.002197266,-0.004516602,0,0,-0.0009765625,0,4.051,0,0,0,0,nan,2,0.121,1,0,0.1000061,0.1000061,0.1000061,0.1000061,0,0,0,1,2
84.98,0.000998,-0.001953125,-0.04882812,-0.01171875,0.1484375,1.492188,10.49219,-0.02734375,-0.005859375,-0.001953125,0,0,0,-0.03271484,-0.001953125,-0.004516602,0,0,-0.0009765625,0,4.051,0,0,0,0,nan,2,0.131,1,0,0.1000061,0.1000061,0.1000061,0.1000061,0,0,0,1,2
84.99,0.001011,-0.0703125,0.02929688,0.00390625,-0.5625,-0.5078125,8.789062,0.005859375,-0.005859375,-0.001953125,0,0,0,-0.03271484,-0.002075195,-0.004638672,0,0,-0.0009765625,0,4.051,0,0,0,0,nan,2,0.141,1,0,0.1000061,0.1000061,0.1000061,0.1000061,0,0,0,1,2
85,0.001011,-0.03710938,0.015625,-0.06640625,-1.640625,0.0625,8.78125,-0.001953125,0.009765625,-0.03710938,0,0,0,-0.03283691,-0.001953125,-0.004760742,0,0,-0.0009765625,0,4.051,0,0,0,0,nan,2,0.151,1,0,0.1000061,0.1000061,0.1000061,0.1000061,0,0,0,1,2
85.01,0.001006,-0.0390625,-0.046875,-0.07617188,0.046875,0.0625,11,-0.01171875,-0.005859375,-0.05859375,0,0,0,-0.03271484,-0.001831055,-0.005249023,0,0,-0.0009765625,0,4.051,0,0,0,0,nan,2,0.162,1,0,0.1000061,0.1000061,0.1000061,0.1000061,0,0,0,1,2
85.02,0.00101,-0.08203125,0.06054688,-0.09570312,-0.1875,-3.078125,10.17188,-0.04101562,0.03320312,-0.08203125,0,0,0,-0.03295898,-0.001708984,-0.005981445,0,0,-0.0009765625,0,4.051,0,0,0,0,nan,2,0.172,1,0,0.1000061,0.1000061,0.1000061,0.1000061,0,0,0,1,2
85.03,0.000999,0.00390625,-0.0546875,-0.05273438,0.3671875,0.84375,7.984375,0,0.01171875,-0.07617188,0,0,0,-0.03295898,-0.001464844,-0.006713867,0,0,-0.0009765625,0,4.051,0,0,0,0,nan,2,0.182,1,0,0.1000061,0.1000061,0.1000061,0.1000061,0,0,0,1,2
85.04,0.001012,-0.06640625,0.015625,-0.04882812,0.046875,-3.71875,10.05469,-0.0078125,-0.00390625,-0.046875,0,0,0,-0.03259277,-0.001586914,-0.007324219,0,0,-0.0009765625,0,4.051,0,0,0,0,nan,2,0.191,1,0,0.1000061,0.1000061,0.1000061,0.1000061,0,0,0,1,2
85.05,0.001009,0.0546875,-0.02148438,-0.02539062,1.3125,1.882812,7.640625,-0.005859375,0,-0.03320312,0,0,0,-0.03186035,-0.001586914,-0.00769043,0,0,-0.0009765625,0,4.051,0,0,0,0,nan,2,0.201,1,0,0.1000061,0.1000061,0.1000061,0.1000061,0,0,0,1,2
85.06,0.001006,0.02734375,0.00390625,0,2.289062,-0.2109375,9.4375,-0.00390625,0.02929688,-0.01757812,0,0,0,-0.03173828,-0.001464844,-0.008056641,0,0,-0.0009765625,0,4.051,0,0,0,0,nan,2,0.211,1,0,0.1000061,0.1000061,0.1000061,0.1000061,0,0,0,1,2
85.07,0.001011,-0.0390625,-0.01953125,0,0.2734375,2.992188,10.78906,-0.0234375,-0.009765625,-0.001953125,0,0,0,-0.03161621,-0.001342773,-0.008056641,0,0,-0.0009765625,0,4.051,0,0,0,0,nan,2,0.221,1,0,0.1000061,0.1000061,0.1000061,0.1000061,0,0,0,1,2
85.08,0.001,-0.01171875,-0.00390625,-0.01757812,3.140625,0.7421875,8.125,-0.0078125,-0.015625,0.005859375,0,0,0,-0.03173828,-0.001464844,-0.008056641,0,0,-0.0009765625,0,4.051,0,0,0,0,nan,2,0.003,1,0,0.1000061,0.1000061,0.1000061,0.1000061,0,0,0,1,2
85.09,0.001036,-0.0078125,0.02929688,-0.00390625,-0.5,0.53125,10.125,0.005859375,0.015625,-0.009765625,0,0,0,-0.03186035,-0.001342773,-0.008056641,0,0,-0.0009765625,0,4.051,0,0,0,0,nan,2,0.013,1,0,0.1000061,0.1000061,0.1000061,0.1000061,0,0,0,1,2
85.1,0.00103,-0.03710938,0.01171875,-0.04492188,1.296875,1.414062,12.66406,-0.0078125,-0.001953125,-0.02734375,0,0,0,-0.03198242,-0.001220703,-0.008178711,0,0,-0.0009765625,0,4.051,0,0,0,0,nan,2,0.023,1,0,0.1000061,0.1000061,0.1000061,0.1000061,0,0,0,1,2
85.11,0.001006,-0.04492188,0.08203125,-0.05664062,-0.421875,-2.4375,13.03125,-0.009765625,0.02148438,-0.03710938,0,0,0,-0.03234863,-0.001464844,-0.008544922,0,0,-0.0009765625,0,4.051,0,0,0,0,nan,2,0.033,1,0,0.1000061,0.1000061,0.1000061,0.1000061,0,0,0,1,2
85.12,0.001006,0.0078125,-0.08789062,-0.0390625,-0.875,2.085938,10.78906,-0.0234375,0.00390625,-0.05078125,0,0,0,-0.03222656,-0.001342773,-0.009033203,0,0,-0.0009765625,0,4.051,0,0,0,0,nan,2,0.043,1,0,0.1000061,0.1000061,0.1000061,0.1000061,0,0,0,1,2
85.13,0.001004,-0.046875,0.01953125,-0.04296875,1.5,-3.140625,9.617188,-0.02148438,0.01171875,-0.05859375,0,0,0,-0.03222656,-0.001342773,-0.009643555,0,0,-0.0009765625,0,4.051,0,0,0,0,nan,2,0.054,1,0,0.1000061,0.1000061,0.1000061,0.1000061,0,0,0,1,2
85.14,0.001012,-0.01757812,-0.03515625,-0.046875,0.4296875,-6.765625,10.5625,0.00390625,-0.009765625,-0.04296875,0,0,0,-0.03198242,-0.001342773,-0.01000977,0,0,-0.0009765625,0,4.051,0,0,0,0,nan,2,0.063,1,0,0.1000061,0.1000061,0.1000061,0.1000061,0,0,0,1,2
85.15,0.001004,0.02148438,-0.04101562,-0.03320312,-0.2109375,-2.984375,8.289062,-0.009765625,-0.009765625,-0.01757812,0,0,0,-0.03125,-0.001098633,-0.01025391,0,0,-0.0009765625,0,4.051,0,0,0,0,nan,2,0.073,1,0,0.1000061,0.1000061,0.1000061,0.1000061,0,0,0,1,2
85.16,0.001009,-0.03515625,0.04101562,0.0078125,-0.6015625,-3.210938,12.99219,0.005859375,0.02148438,-0.00390625,0,0,0,-0.03112793,-0.001220703,-0.01037598,0,0,-0.0009765625,0,4.051,0,0,0,0,nan,2,0.083,1,0,0.1000061,0.1000061,0.1000061,0.1000061,0,0,0,1,2
85.17,0.000997,0.02148438,-0.04101562,0,0.453125,-0.9765625,9.4375,0.009765625,-0.03515625,0,0,0,0,-0.03088379,-0.001220703,-0.01037598,0,0,-0.0009765625,0,4.051,0,0,0,0,nan,2,0.093,1,0,0.1000061,0.1000061,0.1000061,0.1000061,0,0,0,1,2
85.18,0.001002,0.078125,0.08007812,-0.01171875,1.28125,4.382812,6.820312,0.02734375,0.02539062,0,0,0,0,-0.03088379,-0.001342773,-0.01037598,0,0,-0.0009765625,0,4.051,0,0,0,0,nan,2,0.103,1,0,0.1000061,0.1000061,0.1000061,0.1000061,0,0,0,1,2
85.19,0.001002,-0.06640625,0.02539062,0.00390625,-0.5625,-2.859375,17.0625,-0.005859375,0.03710938,-0.001953125,0,0,0,-0.03112793,-0.001098633,-0.01037598,0,0,-0.0009765625,0,4.051,0,0,0,0,nan,2,0.113,1,0,0.1000061,0.1000061,0.1000061,0.1000061,0,0,0,1,2
85.2,0.001006,0.05664062,-0.02929688,-0.03515625,0.375,-4.15625,6.34375,0.03320312,0.001953125,-0.02539062,0,0,0,-0.03125,-0.0009765625,-0.01049805,0,0,-0.0009765625,0,4.051,0,0,0,0,nan,2,0.123,1,0,0.1000061,0.1000061,0.1000061,0.1000061,0,0,0,1,2
85.21,0.001003,0.04882812,0.02539062,-0.02539062,-0.953125,2.796875,7.328125,0.01171875,-0.001953125,-0.02539062,0,0,0,-0.03112793,-0.0008544922,-0.01074219,0,0,-0.0009765625,0,4.051,0,0,0,0,nan,2,0.133,1,0,0.1000061,0.1000061,0.1000061,0.1000061,0,0,0,1,2
85.22,0.001014,0.05664062,0.04101562,-0.01171875,-1.171875,-0.3203125,13.875,0.001953125,0.005859375,-0.02148438,0.1894531,0.00390625,0,-0.03149414,-0.0008544922,-0.0111084,0,0,-0.0009765625,0.1421204,4.051,0,0,0,0.09997559,nan,2,0.008,1,0,0.1628113,0.1182251,0.1442261,0.143158,0,0,0,1,2
85.23,0.001005,-0.03515625,-0.005859375,-0.01953125,-1.453125,-5.359375,12.94531,-0.009765625,0,-0.01757812,0.1875,0.005859375,0,-0.03125,-0.0008544922,-0.01123047,0,0,-0.0009765625,0.1421204,4.051,0,0,0,0.09997559,nan,2,0.017,1,0,0.1538696,0.1322021,0.1229858,0.1593628,0,0,0,1,2
85.24,0.001007,-0.09765625,-0.03125,-0.00390625,2.46875,-1.46875,5.398438,-0.01953125,0,-0.01953125,0.1855469,0.00390625,0,-0.03088379,-0.0008544922,-0.01147461,0,0,-0.0009765625,0.1421204,4.051,0,0,0,0.09997559,nan,2,0.027,1,0,0.162262,0.1238708,0.1251831,0.1571045,0.0009765625,0,0,1,2
85.25,0.001007,-0.05078125,-0.05859375,-0.009765625,-2.789062,-0.5546875,14.64062,-0.009765625,-0.01757812,-0.01953125,0.1894531,0.0078125,0,-0.03161621,-0.001342773,-0.01159668,0,0,-0.0009765625,0.1421204,4.051,0,0,0,0.09997559,nan,2,0.037,1,0,0.1530151,0.1404419,0.1178894,0.1571045,0.0009765625,0,0,1,2
85.26,0.00101,-0.01757812,0.0234375,-0.00390625,1.1875,-4.742188,19.32812,0.01171875,0.02148438,-0.01171875,0.1875,0.0078125,0,-0.03137207,-0.001098633,-0.01184082,0,0,-0.0009765625,0.1421204,4.051,0,0,0,0.09997559,nan,2,0.047,1,0,0.1553955,0.1216125,0.1431885,0.1482239,0.0009765625,0,0,1,2
85.27,0.00101,0.03125,-0.05078125,-0.009765625,-2.554688,-3.4375,14.33594,0.009765625,-0.009765625,-0.009765625,0.1875,0.005859375,0,-0.03137207,-0.001098633,-0.01196289,0,0,-0.0009765625,0.1421204,4.051,0,0,0,0.09997559,nan,2,0.058,1,0,0.1558228,0.1366882,0.1262512,0.1496582,0.0009765625,0,0,1,2
85.28,0.00101,-0.03125,-0.02734375,0.01367188,-2.054688,-3.570312,16.8125,-0.015625,0.0078125,0.0078125,0.1894531,0.005859375,0,-0.03149414,-0.001098633,-0.01196289,0,0,-0.0009765625,0.1421204,4.051,0,0,0,0.09997559,nan,2,0.068,1,0,0.1764526,0.105835,0.1447754,0.1413574,0.0009765625,0,0,1,2
85.29,0.00101,-0.00390625,0.009765625,-0.0078125,-1.03125,6.617188,14.21094,-0.00390625,-0.009765625,0.00390625,0.1875,0.0078125,0,-0.03137207,-0.001098633,-0.01184082,0,0,-0.0009765625,0.1421204,4.051,0,0,0,0.09997559,nan,2,0.078,1,0,0.1517334,0.1345825,0.1244812,0.1576233,0.001953125,0,0,1,2
85.3,0.001057,0.07617188,-0.05859375,0,3.84375,2.515625,10.35156,0.01171875,-0.015625,0,0.1875,0.0078125,0,-0.03125,-0.001342773,-0.01196289,0,0,-0.0009765625,0.1421204,4.051,0,0,0,0.09997559,nan,2,0.088,1,0,0.1630859,0.1294556,0.1356506,0.1402283,0.001953125,0,0,1,2
85.311,0.001023,0.01953125,0.001953125,-0.01171875,-0.2578125,-1.0625,4.148438,-0.009765625,0.00390625,-0.0078125,0.1894531,0.009765625,0,-0.03173828,-0.001586914,-0.01196289,0,0,-0.0009765625,0.1421204,4.051,0,0,0,0.09997559,nan,2,0.098,1,0,0.1524353,0.129364,0.1242371,0.162384,0.001953125,0,0,1,2
85.32,0.001003,-0.01953125,-0.03515625,-0.01171875,0.2578125,9.390625,10.63281,0.005859375,-0.005859375,-0.01757812,0.1875,0.009765625,0,-0.03137207,-0.001586914,-0.01220703,0,0,-0.0009765625,0.1842041,4.051,0,0,0,0.1500244,nan,2,0.003,1,0,0.1929932,0.1808472,0.1622925,0.2007141,0.001953125,0,0,1,2
85.33,0.001037,0.02734375,0.0078125,-0.03125,0.6015625,0.4375,10.44531,0.00390625,0.001953125,-0.01171875,0.1875,0.009765625,0,-0.03112793,-0.001586914,-0.0123291,0,0,-0.0009765625,0.1842041,4.051,0,0,0,0.1500244,nan,2,0.013,1,0,0.1890869,0.1811218,0.160675,0.2059326,0.001953125,0,0,1,2
85.34,0.000995,-0.01367188,0.009765625,-0.04296875,1.40625,-0.8828125,10.17188,-0.009765625,0,-0.02734375,0.1875,0.01171875,0,-0.03125,-0.001953125,-0.01245117,0,0,-0.0009765625,0,4.051,0,0,0,0,nan,2,0.003,1,0,0.1000061,0.1000061,0.1000061,0.1000061,0,0,0,1,2
85.35,0.001019,0.07226562,0.005859375,-0.05859375,-0.7734375,-7.203125,17.08594,0.01757812,-0.01367188,-0.05273438,0.1875,0.01171875,0,-0.03112793,-0.001586914,-0.01281738,0,0,-0.0009765625,0,4.051,0,0,0,0,nan,2,0.013,1,0,0.1000061,0.1000061,0.1000061,0.1000061,0,0,0,1,2
85.36,0.000995,-0.001953125,-0.02734375,-0.02929688,-0.0234375,4.804688,7.671875,0.01171875,-0.01171875,-0.03320312,0.1875,0.01171875,0,-0.03125,-0.001586914,-0.01330566,0,0,-0.0009765625,0,4.051,0,0,0,0,nan,2,0.023,1,0,0.1000061,0.1000061,0.1000061,0.1000061,0,0,0,1,2
85.37,0.00101,0.03710938,-0.05273438,-0.0078125,-3.171875,-3.460938,3.601562,0.009765625,-0.01757812,-0.01953125,0.1875,0.01171875,0,-0.03088379,-0.001831055,-0.0135498,0,0,-0.0009765625,0,4.051,0,0,0,0,nan,2,0.033,1,0,0.1000061,0.1000061,0.1000061,0.1000061,0,0,0,1,2
85.38,0.001008,0.0234375,0.0078125,-0.0234375,-1.585938,-2.960938,10.71094,0.01367188,-0.009765625,-0.015625,0.1875,0.01171875,0,-0.03051758,-0.002075195,-0.01367188,0,0,-0.0009765625,0,4.051,0,0,0,0,nan,2,0.043,1,0,0.1000061,0.1000061,0.1000061,0.1000061,0,0,0,1,2
85.39,0.00101,0,0.01757812,-0.00390625,0.9140625,2.078125,10.23438,-0.001953125,-0.00390625,-0.009765625,0.1875,0.01171875,0,-0.03076172,-0.002075195,-0.01391602,0,0,-0.0009765625,0,4.051,0,0,0,0,nan,2,0.054,1,0,0.1000061,0.1000061,0.1000061,0.1000061,0,0,0,1,2
85.4,0.00101,0.0078125,0.0234375,-0.0078125,-2.335938,5.507812,7.570312,0,0.01757812,-0.001953125,0.1875,0.01171875,0,-0.03088379,-0.001708984,-0.01391602,0,0,-0.0009765625,0,4.051,0,0,0,0,nan,2,0.064,1,0,0.1000061,0.1000061,0.1000061,0.1000061,0,0,0,1,2
85.41,0.00101,-0.03710938,-0.0625,-0.01171875,1.015625,-2.179688,9.335938,0.00390625,-0.01953125,-0.0078125,0.1875,0.01171875,0,-0.03088379,-0.001708984,-0.01391602,0,0,-0.0009765625,0,4.051,0,0,0,0,nan,2,0.074,1,0,0.1000061,0.1000061,0.1000061,0.1000061,0,0,0,1,2
85.42,0.001208,0.00390625,-0.03125,-0.02539062,-1.828125,-2.257812,12.79688,-0.005859375,-0.01367188,-0.01367188,0.1855469,0.01171875,0,-0.03088379,-0.001831055,-0.01403809,0,0,-0.0009765625,0.2263184,4.051,0,0,0,0.2000122,nan,2,0.001,1,0,0.229187,0.228241,0.2022095,0.245636,0,0,0,1,2
85.43,0.00105,0.07226562,0.0546875,-0.001953125,0.96875,-6.78125,17.58594,0.02734375,0.0234375,-0.015625,0.1855469,0.01171875,0,-0.03100586,-0.001953125,-0.01416016,0,0,-0.0009765625,0.2263184,4.051,0,0,0,0.2000122,nan,2,0.011,1,0,0.2286072,0.2102356,0.2347717,0.2316284,0,0,0,1,2
85.44,0.000958,-0.04882812,0.01367188,-0.015625,0.3046875,-8.054688,6.921875,-0.0390625,0.03320312,-0.01171875,0.1953125,0.01171875,0,-0.0324707,-0.002075195,-0.01428223,0,0,-0.0009765625,0.2263184,4.051,0,0,0,0.2000122,nan,2,0.021,1,0,0.2397766,0.2044678,0.2045898,0.2564392,0,0,0,1,2
85.45,0.001032,0.0546875,-0.04492188,-0.00390625,-2.21875,-0.5859375,13.10938,0.02539062,-0.0234375,0.00390625,0.2050781,0.01171875,0,-0.03417969,-0.002075195,-0.01428223,0,0,-0.0009765625,0.2263184,4.051,0,0,0,0.2000122,nan,2,0.031,1,0,0.2503662,0.2181702,0.2200012,0.2167053,0.0009765625,0,0,1,2
85.46,0.00101,0.02734375,-0.015625,0.009765625,-1.515625,-4.8125,18.53906,0.01171875,-0.01757812,0,0.203125,0.01171875,0,-0.03381348,-0.001953125,-0.0144043,0,0,-0.0009765625,0.2263184,4.051,0,0,0,0.2000122,nan,2,0.041,1,0,0.2480164,0.2098083,0.2218323,0.225647,0.0009765625,0,0,1,2
85.47,0.00101,0.0078125,0.05078125,0.005859375,-0.765625,5.859375,19.39844,-0.02148438,0.009765625,-0.01171875,0.2070312,0.01171875,0,-0.03430176,-0.001953125,-0.0144043,0,0,-0.0009765625,0.2263184,4.051,0,0,0,0.2000122,nan,2,0.051,1,0,0.2237244,0.2212524,0.2071838,0.2530823,0.0009765625,0,0,1,2
85.48,0.00101,-0.07226562,0.046875,0.0078125,3.375,4.867188,10.57812,-0.03515625,0.04882812,0.005859375,0.2070312,0.01367188,0,-0.0345459,-0.002197266,-0.0144043,0,0,-0.0009765625,0.2263184,4.051,0,0,0,0.2000122,nan,2,0.062,1,0,0.2566528,0.1792297,0.2389526,0.2304077,0.0009765625,0,0,1,2
85.49,0.00101,-0.02929688,-0.05859375,0.001953125,1.625,-4.304688,3.835938,0.01171875,-0.01953125,0.02734375,0.2089844,0.01367188,0,-0.03479004,-0.002197266,-0.01416016,0,0,-0.0009765625,0.2263184,4.051,0,0,0,0.2000122,nan,2,0.072,1,0,0.2598877,0.20755,0.2223816,0.2154541,0.001953125,0,0,1,2
85.5,0.00101,0.08984375,-0.01171875,0.1015625,-0.875,10.09375,19.53906,-0.0078125,-0.0234375,0.05273438,0.2070312,0.01367188,0,-0.03430176,-0.002197266,-0.01403809,0,0,-0.0009765625,0.2263184,4.051,0,0,0,0.2000122,nan,2,0.082,1,0,0.3237305,0.1437988,0.2850037,0.152771,0.001953125,0,0,1,2
85.51,0.001038,-0.015625,-0.0625,0.05664062,-0.1953125,0.75,9.65625,0,-0.03125,0.0546875,0.2050781,0.01171875,0,-0.03417969,-0.002075195,-0.01342773,0,0,-0.0009765625,0.2263184,4.047,0,0,0,0.2000122,nan,2,0.092,1,0,0.2752075,0.1853943,0.2400818,0.2045898,0.001953125,0,0,1,2
85.52,0.001014,-0.03125,-0.0625,0.08203125,-2.039062,-5.609375,2.75,0.015625,-0.04101562,0.0625,0.2050781,0.01757812,0,-0.03405762,-0.002929688,-0.01269531,0,0,-0.0009765625,0.2263184,4.047,0,0,0,0.2000122,nan,2,0.102,1,0,0.2584839,0.2035522,0.2158813,0.227356,0.001953125,0,0,1,2
85.531,0.00101,0.03320312,0.03515625,0.08398438,0.328125,-6.5,-2.84375,0,-0.02148438,0.08398438,0.2050781,0.01953125,0,-0.03405762,-0.003173828,-0.01196289,0,0,-0.0009765625,0.2263184,4.047,0,0,0,0.2000122,nan,2,0.112,1,0,0.2760315,0.1767883,0.2466431,0.2058105,0.001953125,0,0,1,2
85.54,0.001007,0.1152344,-0.08007812,0.1621094,2.703125,-4.742188,7.914062,0.046875,-0.02734375,0.125,0.1992188,0.01953125,0,-0.03308105,-0.003173828,-0.0111084,0,0,-0.0009765625,0.2263184,4.047,0,0,0,0.2000122,nan,2,0.121,1,0,0.340332,0.1257935,0.3176575,0.12146,0.002929688,0,0,1,2
85.55,0.001046,-0.06054688,-0.03320312,0.1191406,1.398438,-4.679688,6.59375,-0.02148438,-0.02734375,0.1367188,0.1992188,0.01757812,0,-0.03320312,-0.002929688,-0.009643555,0,0,-0.0009765625,0.2263184,4.047,0,0,0,0.2000122,nan,2,0.009,1,0,0.2953186,0.1721191,0.243042,0.1947632,0.002929688,0,0,1,2
85.56,0.001027,-0.0703125,-0.0078125,0.1074219,-0.1640625,1.789062,16.25781,-0.01953125,0.005859375,0.09570312,0.2011719,0.015625,0,-0.03344727,-0.002685547,-0.008544922,0,0,-0.0009765625,0.2263184,4.047,0,0,0,0.2000122,nan,2,0.019,1,0,0.2509766,0.2035522,0.2173767,0.2333679,0.002929688,0,0,1,2
85.57,0.001018,0.09765625,0.03320312,0.1582031,-0.171875,5.101562,13.84375,0,-0.00390625,0.1328125,0.2070312,0.015625,0,-0.03442383,-0.002685547,-0.007446289,0,0,-0.0009765625,0.2263184,4.047,0,0,0,0.2000122,nan,2,0.029,1,0,0.3213196,0.1355591,0.2918701,0.1565247,0.002929688,0,0,1,2
85.58,0.001009,-0.1171875,-0.1328125,0.1347656,1.15625,-4.0625,2.796875,0.03125,-0.02539062,0.1640625,0.203125,0.015625,0,-0.03417969,-0.002441406,-0.005981445,0,0,-0.0009765625,0,4.047,0,0,0,0,nan,2,0.002,1,0,0.1000061,0.1000061,0.1000061,0.1000061,0,0,0,1,2
85.59,0.00101,0.00390625,0.06445312,0.1035156,-3.96875,-1.421875,12.83594,-0.00390625,0.015625,0.125,0.203125,0.015625,0,-0.03417969,-0.002685547,-0.004516602,0,0,-0.0009765625,0,4.047,0,0,0,0,nan,2,0.012,1,0,0.1000061,0.1000061,0.1000061,0.1000061,0,0,0,1,2
85.6,0.000989,0.125,-0.1679688,0.04101562,-2.492188,1.039062,14.30469,0.01367188,-0.009765625,0.04296875,0.203125,0.015625,0,-0.03466797,-0.002563477,-0.00378418,0,0,-0.0009765625,0,4.047,0,0,0,0,nan,2,0.022,1,0,0.1000061,0.1000061,0.1000061,0.1000061,0,0,0,1,2
85.61,0.000979,0.0078125,0.0625,0.1289062,-0.265625,-0.9296875,11.51562,-0.00390625,0.015625,0.08007812,0.203125,0.015625,0,-0.03466797,-0.002685547,-0.003173828,0,0,-0.0009765625,0,4.047,0,0,0,0,nan,2,0.032,1,0,0.1000061,0.1000061,0.1000061,0.1000061,0,0,0,1,2
85.62,0.00101,0.1347656,-0.00390625,0.1308594,3.867188,-4.59375,3.921875,0.0546875,-0.015625,0.1191406,0.203125,0.015625,0,-0.03503418,-0.003173828,-0.002075195,0,0,-0.0009765625,0,4.047,0,0,0,0,nan,2,0.042,1,0,0.1000061,0.1000061,0.1000061,0.1000061,0,0,0,1,2
85.63,0.00101,-0.0859375,-0.1679688,0.05078125,0.6640625,4.03125,9.601562,-0.04492188,-0.0078125,0.0625,0.203125,0.015625,0,-0.03540039,-0.003417969,-0.001098633,0,0,-0.0009765625,0,4.047,0,0,0,0,nan,2,0.053,1,0,0.1000061,0.1000061,0.1000061,0.1000061,0,0,0,1,2
85.64,0.001013,-0.0390625,0.0234375,0.09375,-0.03125,-4.351562,3.757812,0.001953125,-0.04101562,0.1113281,0.203125,0.015625,0,-0.03564453,-0.003540039,-0.0002441406,0,0,-0.0009765625,0,4.047,0,0,0,0,nan,2,0.062,1,0,0.1000061,0.1000061,0.1000061,0.1000061,0,0,0,1,2
85.65,0.001008,0.00390625,-0.01171875,0.08203125,-0.796875,-6.765625,9.921875,-0.04882812,0.0234375,0.1035156,0.203125,0.015625,0,-0.03601074,-0.003540039,0.0009765625,0,0,-0.0009765625,0,4.047,0,0,0,0,nan,2,0.072,1,0,0.1000061,0.1000061,0.1000061,0.1000061,0,0,0,1,2
85.66,0.00113,-0.0078125,-0.05078125,0.0703125,2.210938,-0.1328125,5.429688,-0.02148438,-0.009765625,0.09570312,0.21875,0.0234375,0,-0.03649902,-0.00390625,0.001953125,0,0,-0.0009765625,0.2263184,4.047,0,0,0,0.2000122,nan,2,0.001,1,0,0.2604065,0.200592,0.2240906,0.2201843,0,0,0,1,2
85.67,0.001015,-0.02539062,0.08789062,0.0546875,-1.640625,-4.015625,18.96875,0.015625,-0.001953125,0.07617188,0.21875,0.0234375,0,-0.03637695,-0.00402832,0.002807617,0,0,-0.0009765625,0.2263184,4.047,0,0,0,0.2000122,nan,2,0.011,1,0,0.2375488,0.2126465,0.2171021,0.2379456,0,0,0,1,2
85.68,0.001014,-0.046875,-0.0234375,0.1054688,-1.015625,0.8828125,17.125,-0.03710938,0.01953125,0.09570312,0.21875,0.0234375,0,-0.03662109,-0.00390625,0.003540039,0,0,-0.0009765625,0.2263184,4.047,0,0,0,0.2000122,nan,2,0.021,1,0,0.3085022,0.1422119,0.2702637,0.1842651,0.0009765625,0,0,1,2
85.69,0.00101,-0.1992188,-0.0625,0.046875,-0.828125,-7.09375,3.484375,-0.0703125,-0.03515625,0.05664062,0.2246094,0.0234375,0,-0.03747559,-0.00402832,0.004272461,0,0,-0.0009765625,0.2263184,4.047,0,0,0,0.2000122,nan,2,0.031,1,0,0.2466125,0.2279663,0.166626,0.2640381,0.0009765625,0,0,1,2
85.7,0.00101,-0.02539062,-0.02539062,0.08789062,-4.59375,5.085938,12.48438,-0.02148438,-0.015625,0.0859375,0.2246094,0.02539062,0,-0.03723145,-0.004150391,0.005126953,0,0,-0.0009765625,0.2263184,4.047,0,0,0,0.2000122,nan,2,0.041,1,0,0.2809448,0.182312,0.239563,0.2024841,0.0009765625,0,0,1,2
85.71,0.00101,-0.1777344,-0.04492188,0.015625,-2.476562,3.507812,11.20312,-0.03125,0.01367188,0.04882812,0.2285156,0.02539062,0,-0.03796387,-0.004150391,0.005737305,0,0,-0.0009765625,0.2263184,4.047,0,0,0,0.2000122,nan,2,0.051,1,0,0.2190247,0.2292786,0.1873169,0.2696533,0.0009765625,0,0,1,2
85.72,0.00101,-0.09570312,-0.07421875,0.04296875,-0.1640625,-8.445312,2.8125,-0.03710938,-0.03710938,0.05078125,0.2304688,0.02539062,0,-0.03845215,-0.004150391,0.006347656,0,0,-0.0009765625,0.2263184,4.047,0,0,0,0.2000122,nan,2,0.062,1,0,0.2569275,0.2156982,0.1968079,0.2358398,0.001953125,0,0,1,2
85.73,0.00103,-0.09375,0.06054688,0.06054688,1.273438,-6.929688,8.039062,-0.06445312,-0.005859375,0.05859375,0.2285156,0.0234375,0,-0.03820801,-0.00402832,0.006835938,0,0,-0.0009765625,0.2263184,4.047,0,0,0,0.2000122,nan,2,0.071,1,0,0.2744141,0.1797791,0.2270203,0.2240601,0.001953125,0,0,1,2
85.74,0.001031,0.09570312,0.01171875,0.04101562,1.898438,-0.9375,4.1875,0.04101562,-0.0234375,0.05859375,0.2304688,0.0234375,0,-0.03833008,-0.00402832,0.007446289,0,0,-0.0009765625,0.2263184,4.047,0,0,0,0.2000122,nan,2,0.081,1,0,0.2494202,0.2112732,0.2352295,0.2093811,0.001953125,0,0,1,2
85.75,0.001006,-0.04882812,-0.05078125,0.06835938,2.8125,7.78125,11.52344,-0.01171875,0.005859375,0.08984375,0.2246094,0.0234375,0,-0.03723145,-0.00390625,0.008300781,0,0,-0.0009765625,0.2263184,4.047,0,0,0,0.2000122,nan,2,0.091,1,0,0.2774963,0.1763,0.2413635,0.2101135,0.001953125,0,0,1,2
85.76,0.000984,-0.07421875,0.07617188,0.08203125,1.257812,-3.5625,6.632812,-0.01367188,-0.01367188,0.0703125,0.2304688,0.0234375,0,-0.03833008,-0.00390625,0.008911133,0,0,-0.0009765625,0.2263184,4.047,0,0,0,0.2000122,nan,2,0.101,1,0,0.2824707,0.1742249,0.2368774,0.2117004,0.002929688,0,0,1,2
85.77,0.001014,-0.02734375,-0.03125,0.09375,-0.40625,-3.789062,2.90625,-0.015625,-0.009765625,0.07617188,0.2246094,0.0234375,0,-0.03759766,-0.00378418,0.009643555,0,0,-0.0009765625,0.2263184,4.047,0,0,0,0.2000122,nan,2,0.001,1,0,0.2798157,0.1782837,0.2430115,0.2041626,0.002929688,0,0,1,2
85.78,0.00101,0,-0.0234375,0.09960938,0.8359375,-0.1484375,7.023438,0.0234375,-0.01171875,0.09570312,0.2246094,0.02539062,0,-0.03747559,-0.004272461,0.01062012,0,0,-0.0009765625,0.2263184,4.047,0,0,0,0.2000122,nan,2,0.011,1,0,0.2770081,0.1859131,0.2495728,0.1927795,0.002929688,0,0,1,2
85.79,0.000983,0.05273438,0.07226562,0.1152344,0.5078125,-4.742188,13.04688,0.00390625,0.02734375,0.109375,0.2207031,0.0234375,0,-0.03686523,-0.00402832,0.01171875,0,0,-0.0009765625,0.2263184,4.047,0,0,0,0.2000122,nan,2,0.021,1,0,0.27005,0.172821,0.2459412,0.2164307,0.002929688,0,0,1,2
85.8,0.001034,0.01171875,0.06835938,0.109375,-0.0625,7.46875,10.97656,-0.005859375,-0.00390625,0.1132812,0.2285156,0.02539062,0,-0.03820801,-0.004272461,0.01281738,0,0,-0.0009765625,0.2263184,4.047,0,0,0,0.2000122,nan,2,0.031,1,0,0.2833862,0.1720276,0.2434998,0.2063293,0.00390625,0,0,1,2
85.81,0.00101,0.1347656,-0.0078125,0.1796875,-0.6328125,-4.039062,6.8125,0.02148438,0.0078125,0.15625,0.2207031,0.0234375,0,-0.03674316,-0.00390625,0.01416016,0,0,-0.0009765625,0.2263184,4.047,0,0,0,0.2000122,nan,2,0.041,1,0,0.3270874,0.1235046,0.3148804,0.139801,0.00390625,0,0,1,2
85.821,0.001003,-0.04882812,0.07226562,0.1269531,0.0546875,2.359375,16.35156,-0.02734375,0.001953125,0.1269531,0.2265625,0.0234375,0,-0.03771973,-0.00402832,0.015625,0,0,-0.0009765625,0.2263184,4.047,0,0,0,0.2000122,nan,2,0.052,1,0,0.2544861,0.1942444,0.2151794,0.2413635,0.00390625,0,0,1,2
85.831,0.001022,0.1503906,-0.0703125,0.02539062,2.15625,4.632812,4.398438,0.03125,-0.001953125,0.046875,0.2285156,0.02539062,0,-0.03820801,-0.00390625,0.01647949,0,0,-0.0009765625,0,4.047,0,0,0,0,nan,2,0.004,1,0,0.1000061,0.1000061,0.1000061,0.1000061,0,0,0,1,2
85.84,0.001024,0.01953125,0.015625,0.07421875,-1.484375,-10.55469,8.53125,0.01171875,-0.01953125,0.02929688,0.2285156,0.02539062,0,-0.03759766,-0.003662109,0.01672363,0,0,-0.0009765625,0,4.047,0,0,0,0,nan,2,0.013,1,0,0.1000061,0.1000061,0.1000061,0.1000061,0,0,0,1,2
85.85,0.001051,0.1113281,-0.04296875,0.08984375,-0.84375,-2.539062,6.664062,0.05859375,0.04101562,0.0625,0.2285156,0.02539062,0,-0.03747559,-0.004150391,0.01708984,0,0,-0.0009765625,0,4.047,0,0,0,0,nan,2,0.023,1,0,0.1000061,0.1000061,0.1000061,0.1000061,0,0,0,1,2
85.86,0.001016,0.0234375,-0.1230469,0.046875,-0.5078125,-2.570312,1.921875,-0.03125,-0.04882812,0.04296875,0.2285156,0.02539062,0,-0.03796387,-0.004150391,0.01782227,0,0,-0.0009765625,0,4.047,0,0,0,0,nan,2,0.033,1,0,0.1000061,0.1000061,0.1000061,0.1000061,0,0,0,1,2
85.87,0.001033,-0.04492188,0.01367188,0.09960938,-2.429688,4.1875,16.3125,-0.01953125,-0.01367188,0.09375,0.2285156,0.02539062,0,-0.03796387,-0.00402832,0.01843262,0,0,-0.0009765625,0.2263184,4.047,0,0,0,0.2000122,nan,2,0.004,1,0,0.3020325,0.1464233,0.2709045,0.1859131,0,0,0,1,2
85.88,0.00101,-0.1210938,-0.07226562,0.109375,-0.125,-5.023438,10.59375,0.01953125,-0.001953125,0.1113281,0.2265625,0.02539062,0,-0.03771973,-0.00402832,0.01953125,0,0,-0.0009765625,0.2263184,4.047,0,0,0,0.2000122,nan,2,0.014,1,0,0.2826843,0.1728516,0.2478027,0.2019348,0,0,0,1,2
85.89,0.00101,0.0390625,0.0078125,0.1425781,1.085938,-7.75,8.757812,-0.01171875,0.01367188,0.1328125,0.2265625,0.0234375,0,-0.03771973,-0.00378418,0.02075195,0,0,-0.0009765625,0.2263184,4.047,0,0,0,0.2000122,nan,2,0.024,1,0,0.3024292,0.1482849,0.2730103,0.1815186,0.0009765625,0,0,1,2
85.9,0.00101,0.01171875,0.04492188,0.1621094,-0.171875,-7.21875,4.390625,0.01367188,0.02148438,0.1503906,0.2246094,0.02148438,0,-0.03735352,-0.003540039,0.0222168,0,0,-0.0009765625,0.2263184,4.047,0,0,0,0.2000122,nan,2,0.034,1,0,0.2945251,0.1512756,0.2738647,0.1855774,0.0009765625,0,0,1,2
85.91,0.000988,0.01953125,-0.03320312,0.09375,-1.929688,3.601562,9.65625,-0.001953125,0.00390625,0.1113281,0.2265625,0.02148438,0,-0.03771973,-0.003540039,0.02368164,0,0,-0.0009765625,0.2263184,4.047,0,0,0,0.2000122,nan,2,0.044,1,0,0.2228394,0.227478,0.1980896,0.2568359,0.0009765625,0,0,1,2
85.92,0.00101,-0.06445312,-0.1152344,0.09765625,-3.5,-0.7890625,14.88281,-0.03710938,-0.03515625,0.1113281,0.2226562,0.02148438,0,-0.03723145,-0.003417969,0.02478027,0,0,-0.0009765625,0.2263184,4.047,0,0,0,0.2000122,nan,2,0.055,1,0,0.272522,0.2037354,0.2115173,0.2175293,0.0009765625,0,0,1,2
85.93,0.001029,-0.01171875,0.02539062,0.03710938,0.015625,3.6875,2.023438,-0.01757812,-0.001953125,0.06640625,0.2304688,0.02148438,0,-0.03833008,-0.003540039,0.02563477,0,0,-0.0009765625,0.2263184,4.047,0,0,0,0.2000122,nan,2,0.064,1,0,0.2185669,0.2363281,0.1819458,0.2684326,0.001953125,0,0,1,2
85.94,0.001035,-0.0078125,0.1132812,0.1054688,-0.609375,-5.40625,8.007812,-0.0234375,0.009765625,0.07226562,0.2304688,0.02148438,0,-0.03857422,-0.003417969,0.02612305,0,0,-0.0009765625,0.2263184,4.047,0,0,0,0.2000122,nan,2,0.074,1,0,0.2946777,0.1548462,0.2629395,0.1928101,0.001953125,0,0,1,2
85.95,0.001014,0.04492188,-0.06835938,0.1015625,1.828125,-0.5859375,3.992188,0.01953125,-0.00390625,0.09765625,0.2285156,0.01953125,0,-0.03820801,-0.003417969,0.02709961,0,0,-0.0009765625,0.2263184,4.047,0,0,0,0.2000122,nan,2,0.084,1,0,0.2807617,0.1803894,0.2514648,0.1926575,0.001953125,0,0,1,2
85.96,0.000993,-0.07421875,-0.0703125,0.1035156,2.265625,-4.46875,10.64844,-0.01367188,0.005859375,0.08789062,0.2324219,0.0234375,0,-0.03881836,-0.00378418,0.0279541,0,0,-0.0009765625,0.2263184,4.047,0,0,0,0.2000122,nan,2,0.094,1,0,0.2776794,0.1815796,0.2254944,0.22052,0.001953125,0,0,1,2
85.97,0.001009,0.0859375,0.09960938,0.1308594,-3.984375,3.171875,16.19531,0.02734375,0.0234375,0.1328125,0.234375,0.02734375,0,-0.0390625,-0.004394531,0.02929688,0,0,-0.0009765625,0.2263184,4.047,0,0,0,0.2000122,nan,2,0.104,1,0,0.2909851,0.1548462,0.2812805,0.1781311,0.001953125,0,0,1,2
85.98,0.00101,0.01953125,-0.05859375,0.08398438,1.648438,0.703125,3.679688,0.03710938,-0.00390625,0.09765625,0.2363281,0.02539062,0,-0.03930664,-0.004272461,0.03039551,0,0,-0.0009765625,0.2263184,4.047,0,0,0,0.2000122,nan,2,0.114,1,0,0.2450867,0.2165833,0.2105713,0.2330017,0.002929688,0,0,1,2
85.99,0.001011,-0.1191406,-0.04296875,0.1054688,-0.5546875,-3.085938,13.29688,0.001953125,-0.001953125,0.09960938,0.234375,0.02734375,0,-0.0390625,-0.004638672,0.03137207,0,0,-0.0009765625,0.2263184,4.047,0,0,0,0.2000122,nan,2,0.124,1,0,0.2831116,0.1744995,0.2364807,0.2111816,0.002929688,0,0,1,2
86,0.000994,0.06445312,-0.03710938,0.1074219,-1.40625,2.429688,13.34375,0.04101562,-0.01953125,0.1132812,0.2285156,0.02539062,0,-0.03820801,-0.004272461,0.0324707,0,0,-0.0009765625,0.2263184,4.047,0,0,0,0.2000122,nan,2,0.008,1,0,0.2696838,0.1940918,0.2421265,0.1993408,0.002929688,0,0,1,2
86.01,0.00101,0.08007812,0.04101562,0.009765625,1.039062,-0.3984375,1.164062,0.0234375,0.001953125,0.04101562,0.234375,0.02539062,0,-0.03894043,-0.004150391,0.0333252,0,0,-0.0009765625,0.2263184,4.047,0,0,0,0.2000122,nan,2,0.018,1,0,0.177124,0.2728577,0.1564636,0.2987976,0.002929688,0,0,1,2
86.02,0.00101,-0.09570312,0.02539062,0.04882812,1.070312,-0.3984375,7.695312,-0.046875,0.02734375,0.046875,0.234375,0.02539062,0,-0.03894043,-0.004150391,0.03369141,0,0,-0.0009765625,0.2263184,4.047,0,0,0,0.2000122,nan,2,0.028,1,0,0.2666016,0.1781311,0.2188721,0.2416382,0.00390625,0,0,1,2
86.031,0.001043,-0.1113281,0.07617188,0.06054688,-0.5078125,-1.6875,13.60156,-0.03515625,0.03710938,0.06640625,0.2285156,0.02148438,0,-0.03796387,-0.003662109,0.03442383,0,0,-0.0009765625,0.2263184,4.047,0,0,0,0.2000122,nan,2,0.038,1,0,0.2649231,0.1755066,0.2244873,0.2403259,0.00390625,0,0,1,2
86.04,0.001014,0.078125,0.05859375,0.046875,-2.882812,5.734375,17.42969,-0.0078125,0.06054688,0.0390625,0.234375,0.02148438,0,-0.0390625,-0.003662109,0.03479004,0,0,-0.0009765625,0.2263184,4.047,0,0,0,0.2000122,nan,2,0.047,1,0,0.2204895,0.2227478,0.2021484,0.2598877,0.00390625,0,0,1,2
86.05,0.001012,0.1757812,-0.06640625,0.01171875,1.140625,1.765625,10.10938,0.0234375,-0.01171875,0.03515625,0.2265625,0.015625,0,-0.03796387,-0.002685547,0.03515625,0,0,-0.0009765625,0.2263184,4.047,0,0,0,0.2000122,nan,2,0.058,1,0,0.2485657,0.2241211,0.210083,0.2225037,0.00390625,0,0,1,2
86.06,0.001019,0.2089844,0.1113281,0.04882812,0.453125,-3.78125,7.867188,0.08203125,0.03515625,0.03125,0.2304688,0.015625,0,-0.03833008,-0.002685547,0.03540039,0,0,-0.0009765625,0.2263184,4.047,0,0,0,0.2000122,nan,2,0.068,1,0,0.2409668,0.1947327,0.259491,0.210083,0.004882812,0,0,1,2
86.07,0.00103,0.09375,0.09375,0.06640625,-1.632812,-6.84375,7.789062,-0.01367188,0.04296875,0.08203125,0.2265625,0.01171875,0,-0.03759766,-0.001953125,0.03601074,0,0,-0.0009765625,0.2263184,4.047,0,0,0,0.2000122,nan,2,0.078,1,0,0.2982483,0.1362305,0.2781982,0.192627,0.004882812,0,0,1,2
86.08,0.001012,-0.03320312,0.01367188,0.02734375,0.015625,-8.375,4.945312,-0.04296875,-0.00390625,0.05664062,0.2265625,0.009765625,0,-0.0378418,-0.001708984,0.03686523,0,0,-0.0009765625,0.2263184,4.047,0,0,0,0.2000122,nan,2,0.088,1,0,0.2227783,0.2323914,0.1698608,0.2802124,0.004882812,0,0,1,2
86.09,0.000983,-0.04882812,0.01757812,0.1308594,-2.023438,1.789062,13.34375,-0.005859375,0.01757812,0.09179688,0.2324219,0.009765625,0,-0.03918457,-0.001953125,0.03747559,0,0,-0.0009765625,0,4.047,0,0,0,0,nan,2,0.007,1,0,0.1000061,0.1000061,0.1000061,0.1000061,0,0,0,1,2
86.1,0.001006,-0.109375,-0.05078125,0.06835938,2.789062,2.1875,12.42969,-0.02734375,0.01757812,0.078125,0.2324219,0.0078125,0,-0.03857422,-0.001464844,0.03833008,0,0,-0.0009765625,0.2263184,4.047,0,0,0,0.2000122,nan,2,0,1,0,0.2650452,0.186554,0.2348633,0.218811,0,0,0,1,2
86.11,0.001013,0.02148438,0.1542969,0.03125,-1.34375,8.554688,19.0625,0.03710938,0.03320312,0.0625,0.2324219,0.0078125,0,-0.03881836,-0.001464844,0.03918457,0,0,-0.0009765625,0.2263184,4.047,0,0,0,0.2000122,nan,2,0.011,1,0,0.2076416,0.22995,0.2154846,0.2521973,0,0,0,1,2
86.12,0.00101,0.07226562,-0.1738281,0.0625,-0.109375,-5.578125,12.5,0.001953125,-0.0390625,0.05664062,0.2304688,0.005859375,0,-0.03845215,-0.0009765625,0.03967285,0,0,-0.0009765625,0.2263184,4.047,0,0,0,0.2000122,nan,2,0.021,1,0,0.2717896,0.2050781,0.2237244,0.2046814,0.0009765625,0,0,1,2
86.13,0.001006,0.1328125,0.140625,0.0625,-2.296875,-4.054688,9.023438,-0.0234375,0.02734375,0.03515625,0.234375,0.005859375,0,-0.03894043,-0.0009765625,0.04016113,0,0,-0.0009765625,0.2263184,4.047,0,0,0,0.2000122,nan,2,0.031,1,0,0.2345581,0.2024841,0.2247009,0.2435303,0.0009765625,0,0,1,2
86.14,0.001055,0.001953125,-0.1914062,0.04492188,2.710938,-0.6796875,10.875,-0.07617188,-0.03515625,0.02539062,0.2441406,0.0078125,0,-0.04064941,-0.001220703,0.04040527,0,0,-0.0009765625,0.2263184,4.047,0,0,0,0.2000122,nan,2,0.04,1,0,0.2667236,0.2042847,0.2018127,0.2324219,0.0009765625,0,0,1,2
86.15,0.00101,-0.001953125,0.06640625,0.08007812,-0.3359375,-7.546875,6.28125,-0.02929688,0.001953125,0.04101562,0.2441406,0.0078125,0,-0.04089355,-0.001464844,0.04077148,0,0,-0.0009765625,0.2263184,4.047,0,0,0,0.2000122,nan,2,0.051,1,0,0.2745667,0.1740112,0.2455444,0.2111511,0.0009765625,0,0,1,2
86.16,0.001007,-0.02148438,0.01367188,0.06835938,2.671875,1.84375,7.820312,0.005859375,0.02539062,0.06445312,0.2441406,0.0078125,0,-0.04077148,-0.001464844,0.04138184,0,0,-0.0009765625,0.2263184,4.048,0,0,0,0.2000122,nan,2,0.061,1,0,0.2537537,0.1890259,0.239563,0.2229004,0.001953125,0,0,1,2
86.17,0.00101,-0.1328125,0.1191406,0.09960938,-1.6875,-2.59375,13.07812,-0.1015625,0.0703125,0.08398438,0.2480469,0.005859375,0,-0.04150391,-0.0008544922,0.04211426,0,0,-0.0009765625,0.2263184,4.048,0,0,0,0.2000122,nan,2,0.071,1,0,0.2802734,0.1537781,0.2427979,0.2283936,0.001953125,0,0,1,2
86.18,0.00101,0.02734375,0.0546875,0.0859375,-2.34375,6.867188,19.71094,0.001953125,-0.00390625,0.1308594,0.2558594,0.0078125,0,-0.04248047,-0.001220703,0.04333496,0,0,-0.0009765625,0.2263184,4.048,0,0,0,0.2000122,nan,2,0.081,1,0,0.302124,0.1596985,0.2689514,0.1744995,0.001953125,0,0,1,2
86.19,0.00101,-0.1074219,-0.02929688,0.06835938,2.25,-4.476562,11.75,-0.015625,0.01757812,0.05664062,0.2480469,0.00390625,0,-0.04150391,-0.0004882812,0.04406738,0,0,-0.0009765625,0.2263184,4.048,0,0,0,0.2000122,nan,2,0.091,1,0,0.2376709,0.2087708,0.1975708,0.2612305,0.002929688,0,0,1,2
86.2,0.000974,0.1601562,0.0234375,-0.02539062,-1.632812,-8.664062,2.820312,0.01757812,0.009765625,-0.00390625,0.2578125,0.00390625,0,-0.04309082,-0.0006103516,0.04431152,0,0,-0.0009765625,0.2263184,4.048,0,0,0,0.2000122,nan,2,0.101,1,0,0.1771545,0.2801819,0.1592712,0.2886658,0.002929688,0,0,1,2
86.21,0.00101,-0.02929688,0.005859375,-0.01953125,0.828125,-10.21094,1.140625,0.009765625,0.02148438,0,0.2460938,0.001953125,0,-0.04089355,-0.0003662109,0.04431152,0,0,-0.0009765625,0.2263184,4.048,0,0,0,0.2000122,nan,2,0.008,1,0,0.2266541,0.2188721,0.1911316,0.2685852,0.002929688,0,0,1,2
86.22,0.001039,0.09179688,-0.009765625,0.1171875,-0.65625,5.4375,18.25781,0.0078125,-0.0078125,0.06640625,0.2480469,0.001953125,0,-0.04138184,-0.0004882812,0.04455566,0,0,-0.0009765625,0.2263184,4.048,0,0,0,0.2000122,nan,2,0.017,1,0,0.352356,0.1072388,0.3062744,0.1394043,0.002929688,0,0,1,2
86.23,0.00101,-0.1328125,-0.0546875,0.1113281,-5.03125,0.890625,17.01562,-0.08789062,-0.04882812,0.1054688,0.2421875,0,0,-0.0402832,-0.0001220703,0.04553223,0,0,-0.0009765625,0.2263184,4.048,0,0,0,0.2000122,nan,2,0.028,1,0,0.331543,0.1412964,0.2452393,0.1871948,0.00390625,0,0,1,2
86.24,0.001012,-0.171875,0.1230469,0.1523438,1.617188,-1.085938,12.64844,-0.109375,0.03710938,0.1113281,0.25,0.001953125,0,-0.04162598,-0.0002441406,0.04638672,0,0,-0.0009765625,0.2263184,4.048,0,0,0,0.2000122,nan,2,0.037,1,0,0.3138733,0.1212463,0.2671814,0.2029724,0.00390625,0,0,1,2
86.25,0.001011,-0.04882812,-0.1464844,0.06445312,-0.2421875,-9.242188,8.359375,0.01171875,-0.01171875,0.1054688,0.2519531,0,0,-0.04187012,0,0.04772949,0,0,-0.0009765625,0.2263184,4.048,0,0,0,0.2000122,nan,2,0.047,1,0,0.2378235,0.2280884,0.1920471,0.2472839,0.00390625,0,0,1,2
86.26,0.001007,0.01953125,0.01367188,0.1777344,-3.804688,4.125,14.28125,0.005859375,-0.01367188,0.1582031,0.2402344,0,0,-0.04003906,0.0001220703,0.04907227,0,0,-0.0009765625,0.2263184,4.048,0,0,0,0.2000122,nan,2,0.058,1,0,0.3495483,0.109375,0.3056335,0.1407166,0.00390625,0,0,1,2
86.27,0.00101,0.04296875,-0.05078125,0.00390625,2.875,-1.539062,2.367188,0.015625,0.00390625,0.05664062,0.2421875,-0.00390625,0,-0.04040527,0.0004882812,0.0501709,0,0,-0.0009765625,0.2263184,4.048,0,0,0,0.2000122,nan,2,0.068,1,0,0.155304,0.2954102,0.1247559,0.3298035,0.004882812,0,0,1,2
86.28,0.00101,-0.09375,-0.05078125,0.0390625,0.28125,-0.40625,11.07031,-0.08203125,0.0078125,0.03320312,0.2539062,-0.001953125,0,-0.04223633,0.0003662109,0.05041504,0,0,-0.0009765625,0.2263184,4.048,0,0,0,0.2000122,nan,2,0.078,1,0,0.2644958,0.1896667,0.1970825,0.2540283,0.004882812,0,0,1,2
86.29,0.001019,-0.00390625,-0.03515625,-0.015625,-1.804688,7.703125,14.83594,-0.03710938,0.001953125,0,0.2519531,-0.001953125,0,-0.04187012,0.0004882812,0.05065918,0,0,-0.0009765625,0.2263184,4.048,0,0,0,0.2000122,nan,2,0.088,1,0,0.2086792,0.2474365,0.1625061,0.2866211,0.004882812,0,0,1,2
86.3,0.001001,-0.02734375,0.09179688,-0.001953125,-1.453125,1.296875,10.98438,0.01171875,0.01757812,0.001953125,0.2519531,-0.005859375,0,-0.04211426,0.0008544922,0.05078125,0,0,-0.0009765625,0.2263184,4.048,0,0,0,0.2000122,nan,2,0.005,1,0,0.221344,0.216156,0.2023926,0.2653809,0.005859375,0,0,1,2
86.31,0.00104,-0.1542969,0.005859375,-0.001953125,0.96875,2.804688,10.49219,-0.04296875,0.01953125,0.001953125,0.2558594,-0.005859375,0,-0.04272461,0.0008544922,0.05090332,0,0,-0.0009765625,0.2263184,4.048,0,0,0,0.2000122,nan,2,0.015,1,0,0.2432556,0.2029114,0.1850586,0.2740479,0.005859375,0,0,1,2
86.32,0.001014,-0.009765625,0.04296875,0.009765625,0.375,-1.421875,10.0625,0.02539062,0.02929688,0.0078125,0.2519531,-0.005859375,0,-0.04187012,0.0009765625,0.05102539,0,0,-0.0009765625,0.2263184,4.048,0,0,0,0.2000122,nan,2,0.025,1,0,0.2288513,0.2099915,0.2144775,0.2519531,0.005859375,0,0,1,2
86.331,0.001032,0.04101562,-0.1171875,0.05664062,0.4921875,2.945312,7.523438,0.02148438,-0.001953125,0.04101562,0.2558594,-0.00390625,0,-0.04248047,0.0006103516,0.05126953,0,0,-0.0009765625,0,4.048,0,0,0,0,nan,2,0,1,0,0.1000061,0.1000061,0.1000061,0.1000061,0,0,0,1,2
86.341,0.001022,-0.1582031,-0.00390625,0.0703125,-0.0546875,-0.0703125,9.820312,-0.06835938,0.0234375,0.0546875,0.2558594,-0.00390625,0,-0.04406738,0.001586914,0.05175781,0,0,-0.0009765625,0,4.048,0,0,0,0,nan,2,0.01,1,0,0.1000061,0.1000061,0.1000061,0.1000061,0,0,0,1,2
86.35,0.001008,0.04882812,-0.0234375,0.06445312,0.71875,2.242188,9.367188,0.03710938,0.009765625,0.04882812,0.2558594,-0.00390625,0,-0.04455566,0.001342773,0.05212402,0,0,-0.0009765625,0,4.048,0,0,0,0,nan,2,0.019,1,0,0.1000061,0.1000061,0.1000061,0.1000061,0,0,0,1,2
86.36,0.001011,0.03710938,-0.04101562,0.1015625,-3.867188,4.359375,11.63281,-0.009765625,-0.01953125,0.06835938,0.2558594,-0.00390625,0,-0.04516602,0.001220703,0.05273438,0,0,-0.0009765625,0,4.048,0,0,0,0,nan,2,0.029,1,0,0.1000061,0.1000061,0.1000061,0.1000061,0,0,0,1,2
86.37,0.001021,0.04296875,0.0546875,0.1152344,-2.242188,-0.5390625,6.101562,0.04296875,-0.01171875,0.09960938,0.2558594,-0.00390625,0,-0.04528809,0.0007324219,0.05371094,0,0,-0.0009765625,0,4.048,0,0,0,0,nan,2,0.039,1,0,0.1000061,0.1000061,0.1000061,0.1000061,0,0,0,1,2
86.38,0.00101,-0.08789062,-0.02929688,0.09179688,-3.210938,5.125,12.08594,0.0078125,-0.04882812,0.1035156,0.2558594,-0.00390625,0,-0.04528809,0.0002441406,0.05480957,0,0,-0.0009765625,0,4.048,0,0,0,0,nan,2,0.049,1,0,0.1000061,0.1000061,0.1000061,0.1000061,0,0,0,1,2
86.39,0.001011,0.0703125,0.08398438,0.06054688,0.734375,-4.015625,11.125,0.03515625,0.02929688,0.08789062,0.2558594,-0.00390625,0,-0.04492188,-0.0001220703,0.0559082,0,0,-0.0009765625,0,4.048,0,0,0,0,nan,2,0.06,1,0,0.1000061,0.1000061,0.1000061,0.1000061,0,0,0,1,2
86.4,0.00101,0.04492188,-0.03515625,0.08007812,3.078125,-3.171875,8.007812,0.02929688,-0.02539062,0.0859375,0.2675781,0.001953125,0,-0.04467773,-0.0002441406,0.0567627,0,0,-0.0009765625,0.2263184,4.048,0,0,0,0.2000122,nan,2,0.009,1,0,0.2769775,0.1887512,0.2357483,0.2037964,0,0,0,1,2
86.41,0.000982,0.05664062,0.1074219,0.03515625,-0.6640625,7.984375,7.59375,0.02539062,0.03125,0.05273438,0.2675781,0.00390625,0,-0.04467773,-0.0006103516,0.05749512,0,0,-0.0009765625,0.2263184,4.048,0,0,0,0.2000122,nan,2,0.019,1,0,0.2087708,0.2232971,0.2020874,0.2711182,0.0009765625,0,0,1,2
86.42,0.00101,0.06640625,0.005859375,0.00390625,-0.5859375,-0.984375,4.28125,0.015625,0.01953125,0.04101562,0.2675781,0.001953125,0,-0.04443359,-0.0002441406,0.0579834,0,0,-0.0009765625,0.2263184,4.048,0,0,0,0.2000122,nan,2,0.029,1,0,0.2085266,0.2396545,0.1911316,0.2659607,0.0009765625,0,0,1,2
86.43,0.00101,-0.09570312,0.015625,0.03515625,-3.125,9.796875,16.57812,-0.04882812,0.005859375,0.04296875,0.2636719,0,0,-0.04394531,-0.0001220703,0.05847168,0,0,-0.0009765625,0.2263184,4.048,0,0,0,0.2000122,nan,2,0.039,1,0,0.2658386,0.1925659,0.2080994,0.238739,0.0009765625,0,0,1,2
86.44,0.00101,-0.0234375,0.00390625,0.04101562,-0.734375,-6.015625,6.257812,-0.0390625,0.00390625,0.04492188,0.2675781,0,0,-0.04443359,0,0.05883789,0,0,-0.0009765625,0.2263184,4.048,0,0,0,0.2000122,nan,2,0.048,1,0,0.245636,0.2001343,0.2138977,0.2456055,0.0009765625,0,0,1,2
86.45,0.001017,0.0078125,0.03320312,0.046875,3.25,-0.2265625,2.820312,0.01171875,-0.00390625,0.05078125,0.2636719,0,0,-0.04382324,-0.0001220703,0.05932617,0,0,-0.0009765625,0.2263184,4.048,0,0,0,0.2000122,nan,2,0.059,1,0,0.2615051,0.1900635,0.2288513,0.2248535,0.001953125,0,0,1,2
86.46,0.000998,-0.07226562,-0.02148438,0.03515625,3.429688,4.953125,17.10156,-0.02734375,0.01367188,0.05078125,0.2558594,0,0,-0.04248047,0.0001220703,0.05981445,0,0,-0.0009765625,0.2263184,4.048,0,0,0,0.2000122,nan,2,0.069,1,0,0.2713013,0.1763306,0.2303162,0.2273254,0.001953125,0,0,1,2
86.47,0.00101,-0.009765625,-0.0546875,0.08007812,-3.5,1.789062,18.72656,-0.00390625,-0.005859375,0.05664062,0.25,-0.001953125,0,-0.04162598,0.0003662109,0.06030273,0,0,-0.0009765625,0.2263184,4.048,0,0,0,0.2000122,nan,2,0.079,1,0,0.2838135,0.1727295,0.2461548,0.2025757,0.001953125,0,0,1,2
86.48,0.00101,0.02734375,0.01757812,0.1015625,-3.445312,3.789062,16.84375,-0.00390625,-0.0234375,0.07226562,0.2558594,0.001953125,0,-0.04272461,-0.0002441406,0.06091309,0,0,-0.0009765625,0.2263184,4.048,0,0,0,0.2000122,nan,2,0.089,1,0,0.2919617,0.1694946,0.2530823,0.1907349,0.001953125,0,0,1,2
86.49,0.001029,-0.03125,-0.0546875,0.0703125,0.796875,5.789062,15.25781,-0.0078125,0.02929688,0.03515625,0.2617188,0.001953125,0,-0.04370117,-0.0002441406,0.0612793,0,0,-0.0009765625,0.2263184,4.048,0,0,0,0.2000122,nan,2,0.099,1,0,0.2485352,0.1895447,0.2185669,0.2485962,0.002929688,0,0,1,2
86.5,0.000966,0.02148438,-0.02929688,0.0546875,-1.085938,4.835938,14.64062,0.005859375,-0.02539062,0.05078125,0.2597656,0,0,-0.04321289,-0.0001220703,0.06188965,0,0,-0.0009765625,0.2263184,4.048,0,0,0,0.2000122,nan,2,0.109,1,0,0.2666016,0.1936035,0.2260132,0.2190247,0.002929688,0,0,1,2
86.51,0.001035,0.0234375,0.08007812,0.06835938,-0.5546875,10.30469,12.0625,-0.005859375,0.00390625,0.06835938,0.2636719,0.00390625,0,-0.04394531,-0.0006103516,0.0625,0,0,-0.0009765625,0.2263184,4.048,0,0,0,0.2000122,nan,2,0.119,1,0,0.2663879,0.1780396,0.2363586,0.2244568,0.002929688,0,0,1,2
86.521,0.001035,0.1210938,-0.01171875,0.01171875,4.3125,5.226562,10.28125,0.01757812,0.01367188,0.05859375,0.2597656,0.001953125,0,-0.04333496,-0.0002441406,0.06323242,0,0,-0.0009765625,0.2263184,4.048,0,0,0,0.2000122,nan,2,0.002,1,0,0.2241211,0.2252502,0.2029419,0.2529602,0.00390625,0,0,1,2
86.53,0.001014,0.1699219,-0.02929688,0.01171875,0.0078125,2.429688,9.960938,0.03710938,-0.01171875,0.04101562,0.2539062,0.001953125,0,-0.04248047,-0.0003662109,0.0637207,0,0,-0.0009765625,0.2263184,4.048,0,0,0,0.2000122,nan,2,0.012,1,0,0.2331238,0.2237549,0.210022,0.2383423,0.00390625,0,0,1,2
86.541,0.001016,-0.0078125,0.07617188,0.1308594,0.4140625,1.0625,11.53125,-0.0625,-0.01171875,0.06835938,0.2636719,0.0078125,0,-0.04394531,-0.001342773,0.06408691,0,0,-0.0009765625,0.2263184,4.048,0,0,0,0.2000122,nan,2,0.022,1,0,0.3421021,0.1144714,0.2723083,0.1763916,0.00390625,0,0,1,2
86.55,0.001059,0.01367188,0.00390625,0.1386719,-1.140625,-3.515625,10.15625,0.06445312,0.0625,0.0703125,0.2558594,0.00390625,0,-0.04260254,-0.0006103516,0.06469727,0,0,-0.0009765625,0.2263184,4.048,0,0,0,0.2000122,nan,2,0.031,1,0,0.2774353,0.1534729,0.2761841,0.1981506,0.00390625,0,0,1,2
86.56,0.001005,-0.171875,0.01757812,-0.01953125,-1.648438,1.828125,11.91406,0.02539062,0.01757812,0.06054688,0.2519531,0.0078125,0,-0.04187012,-0.001220703,0.06567383,0,0,-0.0009765625,0.2263184,4.048,0,0,0,0.2000122,nan,2,0.041,1,0,0.2011719,0.2405396,0.1520996,0.3114624,0.00390625,0,0,1,2
86.57,0.001007,0.1230469,0.0078125,0.03515625,0.4921875,4.71875,16.80469,-0.01953125,0.009765625,0.05273438,0.2421875,0.005859375,0,-0.04040527,-0.0009765625,0.06616211,0,0,-0.0009765625,0.2263184,4.048,0,0,0,0.2000122,nan,2,0.051,1,0,0.2459106,0.2023315,0.2147827,0.2422485,0.004882812,0,0,1,2
86.58,0.00101,0.2070312,0.06640625,0.03125,-0.515625,-2.492188,11.375,0.1191406,0.07226562,0.0078125,0.2402344,0.0078125,0,-0.03991699,-0.001098633,0.06640625,0,0,-0.0009765625,0.2263184,4.048,0,0,0,0.2000122,nan,2,0.062,1,0,0.1905823,0.2351074,0.2113342,0.2682495,0.004882812,0,0,1,2
86.59,0.001048,-0.03515625,0.09960938,0.05664062,0.0390625,-2.617188,6.695312,0.02539062,0.04296875,0.046875,0.2285156,0.00390625,0,-0.03796387,-0.0007324219,0.06677246,0,0,-0.0009765625,0.2263184,4.048,0,0,0,0.2000122,nan,2,0.072,1,0,0.2825012,0.1541748,0.256134,0.2124634,0.004882812,0,0,1,2
86.6,0.00101,-0.0078125,0.03125,-0.01757812,0.953125,-4.554688,8.085938,0.0546875,0.015625,-0.00390625,0.2304688,0.00390625,0,-0.03857422,-0.0007324219,0.0670166,0,0,-0.0009765625,0.2263184,4.048,0,0,0,0.2000122,nan,2,0.082,1,0,0.1731262,0.269165,0.1573181,0.3056641,0.004882812,0,0,1,2
86.61,0.000998,-0.05664062,0.15625,0.03125,-3.867188,2.15625,16.08594,-0.02148438,0.01171875,0.04101562,0.2304688,0.005859375,0,-0.03869629,-0.0007324219,0.06726074,0,0,-0.0009765625,0,4.048,0,0,0,0,nan,2,0.006,1,0,0.1000061,0.1000061,0.1000061,0.1000061,0,0,0,1,2
86.62,0.001024,-0.08007812,-0.09765625,0.02929688,1.554688,6.601562,17.28125,-0.02148438,-0.0078125,0.0390625,0.2382812,0.005859375,0,-0.03955078,-0.0008544922,0.06762695,0,0,-0.0009765625,0.1842041,4.048,0,0,0,0.1500244,nan,2,0,1,0,0.2125549,0.1573792,0.1798401,0.1870728,0,0,0,1,2
86.63,0.001031,-0.001953125,0.08203125,0.06835938,0.28125,-12.92188,7.335938,0.00390625,-0.00390625,0.06445312,0.2402344,0.00390625,0,-0.04003906,-0.0006103516,0.06811523,0,0,-0.0009765625,0.1842041,4.048,0,0,0,0.1500244,nan,2,0.01,1,0,0.2366638,0.1292419,0.2160034,0.1549377,0,0,0,1,2
86.64,0.000985,0.08984375,-0.0546875,0.04882812,-0.96875,-6.921875,0.4296875,0.06054688,-0.0234375,0.05078125,0.2402344,0.005859375,0,-0.04003906,-0.001098633,0.06872559,0,0,-0.0009765625,0.1842041,4.048,0,0,0,0.1500244,nan,2,0.02,1,0,0.2009277,0.1734924,0.1879578,0.1744385,0.0009765625,0,0,1,2
86.65,0.001007,-0.1289062,0.0234375,0.06054688,1.859375,8.226562,10.82031,-0.01953125,-0.0234375,0.08007812,0.2441406,0.009765625,0,-0.04064941,-0.001708984,0.06945801,0,0,-0.0009765625,0.1842041,4.048,0,0,0,0.1500244,nan,2,0.03,1,0,0.2523193,0.1227112,0.2007751,0.1610107,0.0009765625,0,0,1,2
86.66,0.001008,-0.009765625,0.02929688,0.1289062,-0.0859375,5.460938,17.99219,0,0,0.1035156,0.25,0.009765625,0,-0.04162598,-0.001708984,0.0703125,0,0,-0.0009765625,0.1842041,4.048,0,0,0,0.1500244,nan,2,0.04,1,0,0.2733154,0.09521484,0.2399292,0.1283875,0.0009765625,0,0,1,2
86.67,0.001009,0.0390625,0.03320312,0.0625,1.609375,6.867188,14.41406,0.01953125,0.02734375,0.0625,0.2480469,0.0078125,0,-0.04125977,-0.001464844,0.07104492,0,0,-0.0009765625,0.1842041,4.048,0,0,0,0.1500244,nan,2,0.05,1,0,0.1820984,0.1751404,0.1670837,0.2125244,0.0009765625,0,0,1,2
86.68,0.00101,0.1289062,-0.07617188,0.07421875,-0.1953125,-3.851562,12.39844,0.02148438,-0.02148438,0.1015625,0.2441406,0.009765625,0,-0.04052734,-0.001708984,0.07214355,0,0,-0.0009765625,0.1842041,4.048,0,0,0,0.1500244,nan,2,0.061,1,0,0.2245789,0.1540527,0.1949768,0.163208,0.001953125,0,0,1,2
86.69,0.00101,0.0546875,-0.01171875,0.1914062,0.65625,3.367188,13.41406,0.0390625,0.01171875,0.1386719,0.2460938,0.009765625,0,-0.04101562,-0.001708984,0.07312012,0,0,-0.0009765625,0.1842041,4.048,0,0,0,0.1500244,nan,2,0.071,1,0,0.3164368,0.05255127,0.2985535,0.0692749,0.001953125,0,0,1,2
86.7,0.00101,-0.1171875,-0.01171875,0.0546875,0.984375,-8.515625,11.5625,-0.02539062,0.0078125,0.09570312,0.2480469,0.009765625,0,-0.04138184,-0.001708984,0.07446289,0,0,-0.0009765625,0.1842041,4.048,0,0,0,0.1500244,nan,2,0.081,1,0,0.1621704,0.2061768,0.1119385,0.2565613,0.001953125,0,0,1,2
86.71,0.001034,-0.09765625,-0.03320312,0.1132812,1.695312,-4.625,4.757812,-0.0390625,0.009765625,0.1074219,0.25,0.009765625,0,-0.04162598,-0.001464844,0.07543945,0,0,-0.0009765625,0.1842041,4.048,0,0,0,0.1500244,nan,2,0.091,1,0,0.2458496,0.1219788,0.1944275,0.1745911,0.001953125,0,0,1,2
86.72,0.001156,0.04296875,-0.0078125,0.07617188,-1.648438,4.179688,18.48438,0.02734375,-0.005859375,0.08984375,0.25,0.0078125,0,-0.04162598,-0.001342773,0.07641602,0,0,-0.0009765625,0.1421204,4.048,0,0,0,0.09997559,nan,2,0.001,1,0,0.1608582,0.133728,0.1295166,0.1442871,0.002929688,0,0,1,2
86.73,0.001038,-0.09179688,0.015625,0.0546875,1.703125,-3.125,8.53125,-0.02539062,0.01953125,0.07421875,0.2519531,0.0078125,0,-0.04211426,-0.001220703,0.07727051,0,0,-0.0009765625,0.1421204,4.048,0,0,0,0.09997559,nan,2,0.011,1,0,0.1605225,0.1125793,0.115448,0.1798706,0.002929688,0,0,1,2
86.74,0.001026,-0.1152344,0.1875,0.01757812,1.078125,-2.273438,7.835938,-0.01953125,0.05273438,0.04882812,0.2617188,0.005859375,0,-0.04345703,-0.0008544922,0.07788086,0,0,-0.0009765625,0.1421204,4.048,0,0,0,0.09997559,nan,2,0.021,1,0,0.1303711,0.1280518,0.1058655,0.2041321,0.002929688,0,0,1,2
86.75,0.001013,0.078125,-0.07226562,0.0234375,-1.046875,0.203125,18.24219,-0.03515625,0.0078125,0.04882812,0.2636719,0.00390625,0,-0.04394531,-0.0006103516,0.07849121,0,0,-0.0009765625,0.1421204,4.048,0,0,0,0.09997559,nan,2,0.031,1,0,0.1593628,0.1286011,0.1180725,0.162384,0.002929688,0,0,1,2
86.76,0.001007,0.1269531,0.04101562,0.07617188,1.242188,-5.289062,1.625,0.03710938,0.01367188,0.0625,0.2636719,0.001953125,0,-0.04394531,-0.0003662109,0.07897949,0,0,-0.0009765625,0.1421204,4.048,0,0,0,0.09997559,nan,2,0.041,1,0,0.1932068,0.08950806,0.177124,0.1086121,0.00390625,0,0,1,2
86.77,0.00101,-0.1289062,-0.03710938,0.06640625,0.3203125,2.335938,14.57812,-0.07617188,-0.001953125,0.04492188,0.2636719,0.001953125,0,-0.04382324,-0.0001220703,0.07946777,0,0,-0.0009765625,0.1421204,4.048,0,0,0,0.09997559,nan,2,0.051,1,0,0.1805725,0.1036682,0.1090393,0.1751709,0.00390625,0,0,1,2
86.78,0.00101,-0.03515625,0.06835938,0.03125,-0.3828125,-6.8125,5.046875,-0.03320312,-0.01171875,0.0625,0.265625,0.00390625,0,-0.04431152,-0.0004882812,0.0802002,0,0,-0.0009765625,0.1421204,4.048,0,0,0,0.09997559,nan,2,0.062,1,0,0.1665955,0.1168213,0.1253967,0.1595764,0.00390625,0,0,1,2
86.79,0.00101,0.1054688,-0.046875,0.05273438,0.4375,-7.421875,12.64844,0.05273438,0.01757812,0.06445312,0.2675781,0.001953125,0,-0.04455566,-0.0004882812,0.08093262,0,0,-0.0009765625,0.1421204,4.048,0,0,0,0.09997559,nan,2,0.072,1,0,0.1646729,0.1210938,0.1412659,0.1413879,0.00390625,0,0,1,2
86.8,0.000995,0.05078125,0,0.06835938,-1.4375,3.398438,17.04688,0.05664062,-0.02148438,0.08203125,0.265625,0.00390625,0,-0.04443359,-0.0006103516,0.08166504,0,0,-0.0009765625,0.1421204,4.048,0,0,0,0.09997559,nan,2,0.082,1,0,0.197998,0.09942627,0.1563416,0.1146851,0.004882812,0,0,1,2
86.81,0.00097,0.06835938,-0.04296875,0.09375,1.03125,-1.78125,3.507812,0.0078125,-0.04882812,0.08203125,0.265625,0.005859375,0,-0.04443359,-0.0009765625,0.08239746,0,0,-0.0009765625,0.1421204,4.067,0,0,0,0.09997559,nan,2,0.092,1,0,0.2210999,0.08398438,0.1610718,0.1022644,0.004882812,0,0,1,2
86.82,0.000977,0.08007812,-0.1015625,0.1171875,1.296875,-5.8125,2.359375,0.01367188,-0.03125,0.07617188,0.265625,0.005859375,0,-0.04394531,-0.001220703,0.08312988,0,0,-0.0009765625,0,4.067,0,0,0,0,nan,2,0.007,1,0,0.1000061,0.1000061,0.1000061,0.1000061,0,0,0,1,2
86.83,0.001011,0.0234375,0.015625,0.08398438,0.7734375,-3.976562,7.882812,0.015625,0.04101562,0.07226562,0.265625,0.005859375,0,-0.04406738,-0.001342773,0.0838623,0,0,-0.0009765625,0,4.067,0,0,0,0,nan,2,0.017,1,0,0.1000061,0.1000061,0.1000061,0.1000061,0,0,0,1,2
86.84,0.001,-0.03125,0.1601562,0.05664062,-2.429688,-1.117188,14.71094,-0.02539062,0.04882812,0.06835938,0.265625,0.005859375,0,-0.04382324,-0.001464844,0.08447266,0,0,-0.0009765625,0,4.067,0,0,0,0,nan,2,0.008,1,0,0.1000061,0.1000061,0.1000061,0.1000061,0,0,0,1,2
86.85,0.001011,0.02929688,-0.078125,0.03320312,-1.234375,-5.71875,15.65625,0.03125,-0.02539062,0.04101562,0.265625,0.005859375,0,-0.04309082,-0.001342773,0.08508301,0,0,-0.0009765625,0,4.067,0,0,0,0,nan,2,0.018,1,0,0.1000061,0.1000061,0.1000061,0.1000061,0,0,0,1,2
86.86,0.001025,-0.01171875,-0.04492188,0.009765625,0.03125,-4.320312,2.03125,0.005859375,-0.015625,0.01953125,0.265625,0.005859375,0,-0.04296875,-0.001831055,0.08532715,0,0,-0.0009765625,0,4.067,0,0,0,0,nan,2,0.028,1,0,0.1000061,0.1000061,0.1000061,0.1000061,0,0,0,1,2
86.87,0.001011,-0.0703125,-0.005859375,0.009765625,1.1875,-6.632812,4.460938,0.0234375,-0.03125,0.01171875,0.265625,0.005859375,0,-0.0423584,-0.001953125,0.08544922,0,0,-0.0009765625,0,4.067,0,0,0,0,nan,2,0.038,1,0,0.1000061,0.1000061,0.1000061,0.1000061,0,0,0,1,2
86.88,0.00101,-0.01367188,-0.0234375,0.001953125,-1.820312,5.367188,8.390625,-0.01367188,-0.001953125,-0.00390625,0.265625,0.005859375,0,-0.04260254,-0.001831055,0.08544922,0,0,-0.0009765625,0,4.067,0,0,0,0,nan,2,0.048,1,0,0.1000061,0.1000061,0.1000061,0.1000061,0,0,0,1,2
86.89,0.00101,0.03710938,0.005859375,-0.001953125,-2.875,1.1875,13,0.01171875,-0.00390625,-0.00390625,0.265625,0.005859375,0,-0.04284668,-0.001708984,0.08544922,0,0,-0.0009765625,0,4.067,0,0,0,0,nan,2,0.059,1,0,0.1000061,0.1000061,0.1000061,0.1000061,0,0,0,1,2
86.9,0.00101,0.01171875,0.001953125,0.03320312,2.789062,1.632812,2.320312,-0.01171875,0.01367188,0.01953125,0.265625,0.005859375,0,-0.04321289,-0.001708984,0.08557129,0,0,-0.0009765625,0,4.067,0,0,0,0,nan,2,0.069,1,0,0.1000061,0.1000061,0.1000061,0.1000061,0,0,0,1,2
86.91,0.00101,-0.05078125,0.01171875,0.03710938,-1.9375,1.664062,12.40625,-0.01367188,0.03515625,0.0234375,0.265625,0.005859375,0,-0.04296875,-0.001342773,0.08569336,0,0,-0.0009765625,0,4.067,0,0,0,0,nan,2,0.079,1,0,0.1000061,0.1000061,0.1000061,0.1000061,0,0,0,1,2
86.92,0.00101,0.04492188,0.02929688,0.01757812,-2.445312,-2.945312,3.21875,0.02929688,0.009765625,0.009765625,0.265625,0.005859375,0,-0.04272461,-0.001098633,0.08581543,0,0,-0.0009765625,0,4.067,0,0,0,0,nan,2,0.089,1,0,0.1000061,0.1000061,0.1000061,0.1000061,0,0,0,1,2
86.93,0.00101,-0.015625,-0.015625,-0.0234375,-1.796875,6.007812,10,-0.009765625,0.009765625,0.001953125,0.265625,0.005859375,0,-0.04223633,-0.0009765625,0.08605957,0,0,-0.0009765625,0,4.067,0,0,0,0,nan,2,0.099,1,0,0.1000061,0.1000061,0.1000061,0.1000061,0,0,0,1,2
86.94,0.00101,0.04296875,-0.01171875,0.001953125,-0.59375,-0.2578125,14.78906,0.01171875,-0.015625,0.0078125,0.265625,0.005859375,0,-0.04174805,-0.0007324219,0.08605957,0,0,-0.0009765625,0,4.067,0,0,0,0,nan,2,0.109,1,0,0.1000061,0.1000061,0.1000061,0.1000061,0,0,0,1,2
86.95,0.001012,0.02734375,0.046875,0.015625,-1.125,-0.9765625,4.210938,0.01367188,0.015625,0,0.265625,0.005859375,0,-0.04162598,-0.0004882812,0.08605957,0,0,-0.0009765625,0,4.067,0,0,0,0,nan,2,0.119,1,0,0.1000061,0.1000061,0.1000061,0.1000061,0,0,0,1,2
86.96,0.000965,-0.01171875,0.0078125,-0.0234375,-2.523438,6.054688,3.773438,0.00390625,0.00390625,-0.01757812,0.265625,0.005859375,0,-0.04150391,-0.0003662109,0.0859375,0,0,-0.0009765625,0,4.067,0,0,0,0,nan,2,0.128,1,0,0.1000061,0.1000061,0.1000061,0.1000061,0,0,0,1,2
86.97,0.001013,0.0625,-0.0234375,-0.015625,3.828125,-1.273438,8.96875,0.01171875,-0.01367188,-0.009765625,0.265625,0.005859375,0,-0.04125977,-0.0003662109,0.08581543,0,0,-0.0009765625,0,4.067,0,0,0,0,nan,2,0.138,1,0,0.1000061,0.1000061,0.1000061,0.1000061,0,0,0,1,2
86.98,0.00101,-0.02148438,0.005859375,0.001953125,0.2890625,-0.4609375,10.44531,-0.005859375,0,-0.00390625,0.265625,0.005859375,0,-0.04077148,-0.0003662109,0.08569336,0,0,-0.0009765625,0,4.067,0,0,0,0,nan,2,0.148,1,0,0.1000061,0.1000061,0.1000061,0.1000061,0,0,0,1,2
86.99,0.0009869999,0.01953125,0.04101562,-0.03125,0.4296875,4.523438,7.476562,0.02734375,0.0078125,-0.02734375,0.265625,0.005859375,0,-0.04064941,-0.0002441406,0.08557129,0,0,-0.0009765625,0,4.067,0,0,0,0,nan,2,0.159,1,0,0.1000061,0.1000061,0.1000061,0.1000061,0,0,0,1,2
87,0.00101,-0.0859375,0.01757812,-0.0390625,2.164062,3.289062,5.03125,-0.02148438,0.015625,-0.03320312,0.265625,0.005859375,0,-0.0402832,-0.0003662109,0.08532715,0,0,-0.0009765625,0,4.067,0,0,0,0,nan,2,0.169,1,0,0.1000061,0.1000061,0.1000061,0.1000061,0,0,0,1,2
87.01,0.001013,-0.001953125,-0.02734375,0.001953125,1.914062,-4.234375,5.390625,-0.001953125,-0.01757812,-0.01757812,0.265625,0.005859375,0,-0.04016113,-0.0003662109,0.08496094,0,0,-0.0009765625,0,4.067,0,0,0,0,nan,2,0.179,1,0,0.1000061,0.1000061,0.1000061,0.1000061,0,0,0,1,2
87.02,0.00105,-0.0078125,0.03710938,-0.04882812,-0.8359375,1.882812,10.8125,0.00390625,0.02929688,-0.0390625,0.265625,0.005859375,0,-0.03979492,-0.0002441406,0.0847168,0,0,-0.0009765625,0,4.067,0,0,0,0,nan,2,0.009,1,0,0.1000061,0.1000061,0.1000061,0.1000061,0,0,0,1,2
87.03,0.001014,0.0078125,-0.01757812,-0.03125,-1.882812,3.234375,12.70312,0.001953125,0.009765625,-0.0234375,0.265625,0.005859375,0,-0.03967285,-0.0002441406,0.08435059,0,0,-0.0009765625,0,4.067,0,0,0,0,nan,2,0.019,1,0,0.1000061,0.1000061,0.1000061,0.1000061,0,0,0,1,2
87.04,0.001001,-0.005859375,0.04492188,-0.005859375,-0.34375,-1.71875,15.89844,-0.009765625,0.015625,-0.009765625,0.265625,0.005859375,0,-0.04101562,-0.0001220703,0.08422852,0,0,-0.0009765625,0,4.067,0,0,0,0,nan,2,0.029,1,0,0.1000061,0.1000061,0.1000061,0.1000061,0,0,0,1,2
87.05,0.000993,-0.03515625,0.05078125,-0.02539062,2.125,-1.460938,11.38281,-0.0078125,0.01367188,-0.02148438,0.265625,0.005859375,0,-0.04125977,0,0.08410645,0,0,-0.0009765625,0,4.067,0,0,0,0,nan,2,0.038,1,0,0.1000061,0.1000061,0.1000061,0.1000061,0,0,0,1,2
87.06,0.00101,0.06835938,-0.015625,-0.00390625,-1.617188,-3.117188,2.835938,0.0234375,0.001953125,0.00390625,0.265625,0.005859375,0,-0.04138184,-0.0002441406,0.08410645,0,0,-0.0009765625,0,4.067,0,0,0,0,nan,2,0.048,1,0,0.1000061,0.1000061,0.1000061,0.1000061,0,0,0,1,2
87.07,0.001026,0.08398438,0.03710938,-0.00390625,1.53125,2.875,6.726562,0.02929688,0.01367188,-0.001953125,0.265625,0.005859375,0,-0.0411377,-0.0001220703,0.08410645,0,0,0.08410645,0,4.067,0,0,0,0,nan,2,0.059,0,0,0,0,0,0,0,0,0,1,2
87.08,0.001009,0.046875,0.03515625,-0.03515625,-2.117188,-2.234375,7.828125,0.009765625,0.01171875,-0.02148438,0.265625,0.005859375,0,-0.04064941,-0.0002441406,0.08398438,0,0,0.08398438,0,4.067,0,0,0,0,nan,2,0.069,0,0,0,0,0,0,0,0,0,1,2
87.09,0.000971,0.1035156,-0.05859375,-0.0390625,1.195312,2.71875,5.929688,0.01367188,-0.02148438,-0.0390625,0.265625,0.005859375,0,-0.04052734,-0.0002441406,0.08374023,0,0,0.08374023,0,4.067,0,0,0,0,nan,2,0.008,0,0,0,0,0,0,0,0,0,1,2
87.1,0.00101,-0.05859375,0.01757812,-0.02539062,0.15625,-1.632812,10.90625,-0.02929688,0.03515625,-0.02539062,0.265625,0.005859375,0,-0.04052734,-0.0002441406,0.08337402,0,0,0.08337402,0,4.067,0,0,0,0,nan,2,0.018,0,0,0,0,0,0,0,0,0,1,2
87.11,0.001011,-0.0625,0.01953125,-0.02148438,0.328125,0.953125,13.27344,-0.015625,0.02539062,-0.03320312,0.265625,0.005859375,0,-0.04064941,-0.0002441406,0.08300781,0,0,0.08300781,0,4.067,0,0,0,0,nan,2,0.028,0,0,0,0,0,0,0,0,0,1,2
87.12,0.00101,0.04101562,-0.009765625,-0.02734375,-0.921875,1.414062,4.023438,0.015625,-0.01367188,-0.03320312,0.265625,0.005859375,0,-0.04040527,-0.0001220703,0.08276367,0,0,0.08276367,0,4.067,0,0,0,0,nan,2,0.038,0,0,0,0,0,0,0,0,0,1,2
87.13,0.00101,0.0078125,-0.02929688,-0.03710938,-1.351562,-1.046875,8.78125,0.009765625,-0.01171875,-0.01953125,0.265625,0.005859375,0,-0.04016113,0,0.08251953,0,0,0.08251953,0,4.067,0,0,0,0,nan,2,0.048,0,0,0,0,0,0,0,0,0,1,2
87.14,0.001009,-0.01171875,-0.04492188,-0.0234375,0.359375,-3.359375,8.703125,0.0078125,-0.0078125,-0.02539062,0.265625,0.005859375,0,-0.04003906,0,0.08227539,0,0,0.08227539,0,4.067,0,0,0,0,nan,2,0.059,0,0,0,0,0,0,0,0,0,1,2
87.15,0.001013,-0.0625,0.03710938,-0.06054688,0.5234375,1.515625,11.0625,-0.04492188,0.02148438,-0.05273438,0.265625,0.005859375,0,-0.0402832,0,0.08178711,0,0,0.08178711,0,4.067,0,0,0,0,nan,2,0.069,0,0,0,0,0,0,0,0,0,1,2
87.16,0.001011,0.05664062,0.046875,-0.06054688,0.515625,1.179688,9.710938,-0.02148438,0.001953125,-0.06640625,0.265625,0.005859375,0,-0.04077148,-0.0002441406,0.08129883,0,0,0.08129883,0,4.067,0,0,0,0,nan,2,0.078,0,0,0,0,0,0,0,0,0,1,2
87.17,0.001007,-0.009765625,0.04101562,-0.03515625,1.398438,3.195312,7.09375,-0.0078125,0,-0.03125,0.265625,0.005859375,0,-0.04077148,-0.0003662109,0.08081055,0,0,0.08081055,0,4.067,0,0,0,0,nan,2,0.088,0,0,0,0,0,0,0,0,0,1,2
87.18,0.001009,-0.001953125,-0.01757812,0.00390625,1.25,2.75,7.875,-0.0078125,-0.001953125,-0.01171875,0.265625,0.005859375,0,-0.04064941,-0.0003662109,0.08056641,0,0,0.08056641,0,4.067,0,0,0,0,nan,2,0.098,0,0,0,0,0,0,0,0,0,1,2
87.19,0.00101,0.0234375,-0.04296875,0.015625,1.0625,1.851562,9.367188,-0.015625,-0.03125,0.015625,0.265625,0.005859375,0,-0.04052734,-0.0002441406,0.08068848,0,0,0.08068848,0,4.067,0,0,0,0,nan,2,0.108,0,0,0,0,0,0,0,0,0,1,2
87.2,0.001043,0.015625,-0.04882812,0.02734375,-0.828125,-4.523438,8.851562,-0.005859375,-0.01171875,0.015625,0.265625,0.005859375,0,-0.04064941,-0.0002441406,0.08081055,0,0,0.08081055,0,4.067,0,0,0,0,nan,2,0.118,0,0,0,0,0,0,0,0,0,1,2
87.21,0.00101,-0.015625,-0.1328125,-0.03320312,2.992188,0.9765625,5.984375,-0.001953125,-0.01367188,0,0.265625,0.005859375,0,-0.0402832,-0.0003662109,0.08093262,0,0,0.08093262,0,4.067,0,0,0,0,nan,2,0.128,0,0,0,0,0,0,0,0,0,1,2
87.22,0.001006,0,-0.01953125,-0.0234375,-1.15625,-5.695312,10.10156,-0.01367188,-0.00390625,-0.0234375,0.265625,0.005859375,0,-0.0402832,-0.0003662109,0.08081055,0,0,0.08081055,0,4.067,0,0,0,0,nan,2,0.138,0,0,0,0,0,0,0,0,0,1,2
87.23,0.000994,-0.02734375,-0.005859375,-0.02148438,1.1875,0.125,5.984375,-0.001953125,0.0078125,-0.015625,0.265625,0.005859375,0,-0.0402832,-0.0006103516,0.08068848,0,0,0.08068848,0,4.067,0,0,0,0,nan,2,0.148,0,0,0,0,0,0,0,0,0,1,2
87.24,0.00101,0.001953125,-0.001953125,-0.015625,-2.414062,4.382812,12.28125,-0.0078125,-0.009765625,-0.01953125,0.265625,0.005859375,0,-0.03979492,-0.001220703,0.08044434,0,0,0.08044434,0,4.067,0,0,0,0,nan,2,0.159,0,0,0,0,0,0,0,0,0,1,2
87.25,0.001014,0,-0.03320312,-0.03515625,0.28125,1.476562,12.38281,0.00390625,-0.015625,-0.01171875,0.265625,0.005859375,0,-0.03955078,-0.001098633,0.08032227,0,0,0.08032227,0,4.067,0,0,0,0,nan,2,0.169,0,0,0,0,0,0,0,0,0,1,2
87.261,0.001007,0.02929688,-0.03320312,-0.0234375,-0.8984375,6.328125,13.80469,-0.015625,-0.009765625,-0.001953125,0.265625,0.005859375,0,-0.03967285,-0.001220703,0.08032227,0,0,0.08032227,0,4.067,0,0,0,0,nan,2,0.179,0,0,0,0,0,0,0,0,0,1,2
87.27,0.00101,-0.08789062,-0.01171875,-0.001953125,-2.375,-3.210938,9.117188,-0.015625,0.0078125,-0.0078125,0.265625,0.005859375,0,-0.03991699,-0.001098633,0.08032227,0,0,0.08032227,0,4.067,0,0,0,0,nan,2,0.188,0,0,0,0,0,0,0,0,0,1,2
87.28,0.001021,0.01171875,0.01367188,-0.009765625,-1.195312,3.070312,13.70312,0.01757812,-0.001953125,-0.01171875,0.265625,0.005859375,0,-0.04003906,-0.001220703,0.0802002,0,0,0.0802002,0,4.067,0,0,0,0,nan,2,0.198,0,0,0,0,0,0,0,0,0,1,2
87.29,0.000996,0.046875,-0.015625,-0.00390625,-1.039062,-1.984375,9.179688,0.001953125,0.001953125,-0.01171875,0.265625,0.005859375,0,-0.0402832,-0.001098633,0.08007812,0,0,0.08007812,0,4.067,0,0,0,0,nan,2,0.208,0,0,0,0,0,0,0,0,0,1,2
87.3,0.00101,-0.07421875,-0.03515625,-0.0234375,0.7265625,-3.648438,11.07812,0,0,-0.01953125,0.265625,0.005859375,0,-0.04016113,-0.001098633,0.07983398,0,0,0.07983398,0,4.067,0,0,0,0,nan,2,0.218,0,0,0,0,0,0,0,0,0,1,2
87.31,0.001009,-0.03710938,0.00390625,-0.01367188,-1.070312,-1.289062,11.71094,-0.005859375,0.001953125,-0.00390625,0.265625,0.005859375,0,-0.04052734,-0.001220703,0.07971191,0,0,0.07971191,0,4.067,0,0,0,0,nan,2,0.228,0,0,0,0,0,0,0,0,0,1,2
87.32,0.00101,0.0859375,0.0390625,0.0078125,-2.1875,2.304688,9.953125,0.00390625,0.001953125,-0.00390625,0.265625,0.005859375,0,-0.04040527,-0.001464844,0.07971191,0,0,0.07971191,0,4.067,0,0,0,0,nan,2,0.238,0,0,0,0,0,0,0,0,0,1,2
87.33,0.00101,0.0703125,0.05273438,0.001953125,-0.90625,0.875,9.804688,0.01171875,0.005859375,-0.001953125,0.265625,0.005859375,0,-0.04016113,-0.001342773,0.07971191,0,0,0.07971191,0,4.067,0,0,0,0,nan,2,0.248,0,0,0,0,0,0,0,0,0,1,2
87.34,0.001043,0.01171875,0.00390625,0.005859375,-1.59375,-0.3984375,7.75,0.01171875,0.01171875,-0.001953125,0.265625,0.005859375,0,-0.03967285,-0.001342773,0.07971191,0,0,0.07971191,0,4.067,0,0,0,0,nan,2,0.259,0,0,0,0,0,0,0,0,0,1,2
87.35,0.001012,-0.05273438,0.02929688,0.01171875,-1.234375,-1.5,8.90625,-0.03320312,0.005859375,-0.005859375,0.265625,0.005859375,0,-0.03967285,-0.001098633,0.07958984,0,0,0.07958984,0,4.067,0,0,0,0,nan,2,0.268,0,0,0,0,0,0,0,0,0,1,2
87.36,0.001015,-0.04101562,-0.015625,0.01171875,2.242188,-0.578125,8.421875,-0.001953125,0.001953125,0.005859375,0.265625,0.005859375,0,-0.03967285,-0.001098633,0.07958984,0,0,0.07958984,0,4.067,0,0,0,0,nan,2,0.278,0,0,0,0,0,0,0,0,0,1,2
87.37,0.000989,0.01953125,-0.015625,-0.0234375,0.3203125,1.351562,10.9375,-0.005859375,-0.005859375,-0.00390625,0.265625,0.005859375,0,-0.03942871,-0.001098633,0.07958984,0,0,0.07958984,0,4.067,0,0,0,0,nan,2,0.006,0,0,0,0,0,0,0,0,0,1,2
87.38,0.001003,-0.00390625,-0.08789062,0.01953125,1.5,-0.3515625,9.039062,-0.02148438,-0.00390625,0.005859375,0.265625,0.005859375,0,-0.03955078,-0.001464844,0.07946777,0,0,0.07946777,0,4.067,0,0,0,0,nan,2,0.016,0,0,0,0,0,0,0,0,0,1,2
87.39,0.00101,0.0078125,-0.015625,-0.015625,-0.3359375,1.460938,10.04688,0,-0.001953125,-0.001953125,0.265625,0.005859375,0,-0.03942871,-0.001831055,0.07958984,0,0,0.07958984,0,4.067,0,0,0,0,nan,2,0.026,0,0,0,0,0,0,0,0,0,1,2
87.4,0.001006,-0.03710938,-0.06640625,0.015625,1.15625,0.171875,9.046875,-0.001953125,-0.0078125,0.001953125,0.265625,0.005859375,0,-0.03918457,-0.001953125,0.07946777,0,0,0.07946777,0,4.067,0,0,0,0,nan,2,0.036,0,0,0,0,0,0,0,0,0,1,2
87.41,0.00101,0.06835938,0.0078125,0.0234375,1.195312,0.28125,10.64062,0.005859375,0.00390625,0,0.265625,0.005859375,0,-0.0390625,-0.002075195,0.07946777,0,0,0.07946777,0,4.067,0,0,0,0,nan,2,0.046,0,0,0,0,0,0,0,0,0,1,2
87.42,0.00101,0.015625,0.0703125,-0.02148438,-0.875,-1.492188,10.95312,-0.005859375,0.009765625,0.001953125,0.265625,0.005859375,0,-0.03869629,-0.001831055,0.07958984,0,0,0.07958984,0,4.067,0,0,0,0,nan,2,0.057,0,0,0,0,0,0,0,0,0,1,2
87.43,0.001009,0.01171875,-0.02148438,0.00390625,-0.6328125,-0.640625,10.21875,0.005859375,-0.009765625,-0.001953125,0.265625,0.005859375,0,-0.03857422,-0.001953125,0.07946777,0,0,0.07946777,0,4.067,0,0,0,0,nan,2,0.067,0,0,0,0,0,0,0,0,0,1,2
87.44,0.00101,0,-0.04296875,-0.005859375,0.734375,0.3828125,8.976562,0.001953125,0,0.001953125,0.265625,0.005859375,0,-0.03833008,-0.001831055,0.07946777,0,0,0.07946777,0,4.067,0,0,0,0,nan,2,0.077,0,0,0,0,0,0,0,0,0,1,2
87.45,0.00101,-0.02734375,0.03710938,0,-1.4375,-0.5390625,9.640625,-0.0078125,0.0078125,0.00390625,0.265625,0.005859375,0,-0.03833008,-0.001831055,0.07958984,0,0,0.07958984,0,4.067,0,0,0,0,nan,2,0.087,0,0,0,0,0,0,0,0,0,1,2
87.46,0.001005,0.04492188,0.02148438,-0.01171875,-0.734375,-0.515625,10.82812,0.0078125,0.005859375,0,0.265625,0.005859375,0,-0.03808594,-0.001831055,0.07946777,0,0,0.07946777,0,4.077,0,0,0,0,nan,2,0.097,0,0,0,0,0,0,0,0,0,1,2
87.47,0.00101,0.03515625,0.015625,-0.015625,0.15625,0.0234375,10.61719,0.00390625,0.009765625,-0.0078125,0.265625,0.005859375,0,-0.03796387,-0.001708984,0.07946777,0,0,0.07946777,0,4.077,0,0,0,0,nan,2,0.106,0,0,0,0,0,0,0,0,0,1,2
87.48,0.00101,0.0078125,-0.02929688,-0.015625,0.3125,-0.0546875,9.242188,0.005859375,0.00390625,0,0.265625,0.005859375,0,-0.03796387,-0.001586914,0.07946777,0,0,0.07946777,0,4.077,0,0,0,0,nan,2,0.116,0,0,0,0,0,0,0,0,0,1,2
87.49,0.00101,-0.001953125,-0.06835938,0.001953125,1.21875,-0.734375,8.242188,0.00390625,-0.001953125,0,0.265625,0.005859375,0,-0.0378418,-0.001708984,0.07946777,0,0,0.07946777,0,4.077,0,0,0,0,nan,2,0.126,0,0,0,0,0,0,0,0,0,1,2
87.5,0.001011,-0.001953125,-0.09375,-0.015625,0.734375,-0.125,7.75,0.00390625,-0.01171875,-0.005859375,0.265625,0.005859375,0,-0.03771973,-0.001586914,0.07946777,0,0,0.07946777,0,4.077,0,0,0,0,nan,2,0.136,0,0,0,0,0,0,0,0,0,1,2
87.51,0.001011,0.01367188,-0.05078125,-0.01171875,0.125,-0.6953125,9.046875,0.001953125,-0.005859375,0.00390625,0.265625,0.005859375,0,-0.03759766,-0.001586914,0.07946777,0,0,0.07946777,0,4.077,0,0,0,0,nan,2,0.146,0,0,0,0,0,0,0,0,0,1,2
87.52,0.00101,-0.00390625,-0.001953125,-0.01953125,-0.90625,-0.2265625,10.0625,-0.005859375,0.001953125,0.00390625,0.265625,0.005859375,0,-0.03747559,-0.001586914,0.07946777,0,0,0.07946777,0,4.077,0,0,0,0,nan,2,0.156,0,0,0,0,0,0,0,0,0,1,2
87.53,0.00101,-0.01367188,0.015625,0.03125,0.34375,0.0078125,9.976562,-0.00390625,-0.001953125,0.001953125,0.265625,0.005859375,0,-0.03723145,-0.001586914,0.07946777,0,0,0.07946777,0,4.077,0,0,0,0,nan,2,0.167,0,0,0,0,0,0,0,0,0,1,2
87.541,0.001005,-0.001953125,0,0.01171875,0.3984375,-0.765625,9.421875,0.001953125,0,0,0.265625,0.005859375,0,-0.0369873,-0.001586914,0.07946777,0,0,0.07946777,0,4.077,0,0,0,0,nan,2,0.177,0,0,0,0,0,0,0,0,0,1,2
87.55,0.000746,0,0.005859375,-0.001953125,-0.109375,-0.2421875,10.14844,0,0.001953125,0.0078125,0.265625,0.005859375,0,-0.03686523,-0.001464844,0.07958984,0,0,0.07958984,0,4.077,0,0,0,0,nan,2,0.186,0,0,0,0,0,0,0,0,0,1,2
87.56,0.001209,0.0078125,-0.015625,-0.009765625,-0.296875,-0.65625,9.875,0.001953125,-0.00390625,-0.001953125,0.265625,0.005859375,0,-0.03649902,-0.001586914,0.07946777,0,0,0.07946777,0,4.077,0,0,0,0,nan,2,0.196,0,0,0,0,0,0,0,0,0,1,2
87.57,0.001049,-0.009765625,0.0078125,0.00390625,0.1484375,-0.3203125,9.585938,0,0.00390625,0,0.265625,0.005859375,0,-0.03649902,-0.001586914,0.07958984,0,0,0.07958984,0,4.077,0,0,0,0,nan,2,0.206,0,0,0,0,0,0,0,0,0,1,2
87.58,0.001146,-0.00390625,-0.005859375,-0.015625,-0.25,-0.25,10.23438,-0.001953125,0,0.001953125,0.265625,0.005859375,0,-0.03625488,-0.001708984,0.07958984,0,0,0.07958984,0,4.077,0,0,0,0,nan,2,0.216,0,0,0,0,0,0,0,0,0,1,2
87.59,0.001155,0.001953125,0.001953125,-0.015625,-0.2578125,-0.1953125,9.875,-0.001953125,0.001953125,-0.001953125,0.265625,0.005859375,0,-0.03625488,-0.001586914,0.07946777,0,0,0.07946777,0,4.077,0,0,0,0,nan,2,0.006,0,0,0,0,0,0,0,0,0,1,2
87.6,0.001221,0.01757812,0.00390625,-0.009765625,-0.03125,-0.515625,9.28125,0.00390625,0,0,0.265625,0.005859375,0,-0.03601074,-0.001586914,0.07946777,0,0,0.07946777,0,4.077,0,0,0,0,nan,2,0.016,0,0,0,0,0,0,0,0,0,1,2
87.61,0.001358,0.009765625,0.005859375,0.0078125,0.03125,-0.3671875,9.164062,0.00390625,0,-0.001953125,0.265625,0.005859375,0,-0.03601074,-0.001586914,0.07946777,0,0,0.07946777,0,4.077,0,0,0,0,nan,2,0.026,0,128,0,0,0,0,0,0,0,1,2
87.666,0.001112,-0.009765625,-0.001953125,0.0078125,0.1875,-0.40625,10.40625,-0.001953125,-0.001953125,0.00390625,0.265625,0.005859375,0,-0.03601074,-0.001586914,0.07946777,0,0,0.07946777,0,4.077,0,0,0,0,nan,2,0.029,0,128,0,0,0,0,0,0,0,1,2
87.672,0.002553,-0.001953125,0.00390625,-0.01367188,-0.15625,-0.2265625,9.710938,-0.001953125,0,-0.01171875,0.265625,0.005859375,0,-0.0369873,-0.002685547,0.07910156,0,0,0.07910156,0,4.077,0,0,0,0,nan,2,0.088,0,128,0,0,0,0,0,0,0,1,2
87.68,0.001013,0,0.00390625,0.01367188,0.0703125,-0.296875,9.796875,-0.001953125,0.001953125,0.005859375,0.265625,0.005859375,0,-0.03674316,-0.002563477,0.07910156,0,0,0.07910156,0,4.077,0,0,0,0,nan,2,0.096,0,128,0,0,0,0,0,0,0,1,2
87.69,0.001008,0.001953125,-0.005859375,-0.009765625,-0.0859375,-0.3046875,9.8125,0,-0.001953125,-0.005859375,0.265625,0.005859375,0,-0.03662109,-0.002685547,0.07910156,0,0,0.07910156,0,4.077,0,0,0,0,nan,2,0.106,0,128,0,0,0,0,0,0,0,1,2
87.7,0.00101,-0.001953125,0.00390625,0,0.0703125,-0.28125,9.804688,-0.001953125,0.001953125,-0.001953125,0.265625,0.005859375,0,-0.03649902,-0.002563477,0.07910156,0,0,0.07910156,0,4.077,0,0,0,0,nan,2,0.116,0,128,0,0,0,0,0,0,0,1,2
87.71,0.00101,0.001953125,-0.00390625,-0.00390625,-0.0625,-0.265625,9.75,-0.001953125,-0.001953125,0,0.265625,0.005859375,0,-0.03637695,-0.002563477,0.07910156,0,0,0.07910156,0,4.077,0,0,0,0,nan,2,0.126,0,128,0,0,0,0,0,0,0,1,2
87.72,0.00101,-0.00390625,0,-0.001953125,0,-0.390625,9.851562,0,0.001953125,-0.00390625,0.265625,0.005859375,0,-0.03625488,-0.002441406,0.07910156,0,0,0.07910156,0,4.077,0,0,0,0,nan,2,0.136,0,128,0,0,0,0,0,0,0,1,2
87.73,0.00101,0.001953125,0,-0.001953125,0.0625,-0.3671875,9.789062,0,0,0.001953125,0.265625,0.005859375,0,-0.03613281,-0.002441406,0.07910156,0,0,0.07910156,0,4.077,0,0,0,0,nan,2,0.146,0,128,0,0,0,0,0,0,0,1,2
87.74,0.00101,-0.001953125,0.001953125,0,-0.0078125,-0.3125,9.757812,0,-0.001953125,0,0.265625,0.005859375,0,-0.03601074,-0.002441406,0.07910156,0,0,0.07910156,0,4.077,0,0,0,0,nan,2,0.156,0,128,0,0,0,0,0,0,0,1,2
87.75,0.00101,-0.001953125,0.00390625,-0.001953125,0.0625,-0.3359375,9.835938,-0.001953125,0.00390625,0,0.265625,0.005859375,0,-0.03588867,-0.002319336,0.07910156,0,0,0.07910156,0,4.077,0,0,0,0,nan,2,0.166,0,128,0,0,0,0,0,0,0,1,2
87.76,0.00101,0,0,-0.001953125,0.0078125,-0.3046875,9.851562,0,0,-0.001953125,0.265625,0.005859375,0,-0.0357666,-0.002319336,0.07910156,0,0,0.07910156,0,4.077,0,0,0,0,nan,2,0.177,0,128,0,0,0,0,0,0,0,1,2
87.77,0.00101,-0.001953125,0,0,0.0390625,-0.3046875,9.835938,0,0.001953125,0,0.265625,0.005859375,0,-0.03564453,-0.002197266,0.07910156,0,0,0.07910156,0,4.077,0,0,0,0,nan,2,0.187,0,128,0,0,0,0,0,0,0,1,2
87.78,0.001009,0,-0.00390625,0,0.0390625,-0.3046875,9.835938,0,-0.001953125,0,0.265625,0.005859375,0,-0.03552246,-0.002319336,0.07910156,0,0,0.07910156,0,4.077,0,0,0,0,nan,2,0.196,0,128,0,0,0,0,0,0,0,1,2
87.79,0.001008,-0.001953125,0.001953125,0,0.0078125,-0.296875,9.8125,-0.001953125,0,0.001953125,0.265625,0.005859375,0,-0.03540039,-0.002197266,0.07910156,0,0,0.07910156,0,4.077,0,0,0,0,nan,2,0.206,0,128,0,0,0,0,0,0,0,1,2
87.8,0.001006,0,0,0,0.015625,-0.3125,9.828125,0,0,0,0.265625,0.005859375,0,-0.03527832,-0.002197266,0.07910156,0,0,0.07910156,0,4.077,0,0,0,0,nan,2,0.216,0,128,0,0,0,0,0,0,0,1,2
87.81,0.00101,0,0,0,-0.015625,-0.296875,9.875,0,0,0,0.265625,0.005859375,0,-0.03515625,-0.002197266,0.07910156,0,0,0.07910156,0,4.077,0,0,0,0,nan,2,0.226,0,128,0,0,0,0,0,0,0,1,2
87.82,0.000997,0.001953125,0,0,0.03125,-0.2734375,9.828125,0,0,0,0.265625,0.005859375,0,-0.03503418,-0.002197266,0.07910156,0,0,0.07910156,0,4.077,0,0,0,0,nan,2,0.236,0,128,0,0,0,0,0,0,0,1,2
87.83,0.00101,0,-0.001953125,0,0.015625,-0.3203125,9.851562,0,0,0,0.265625,0.005859375,0,-0.03491211,-0.002197266,0.07910156,0,0,0.07910156,0,4.077,0,0,0,0,nan,2,0.006,0,128,0,0,0,0,0,0,0,1,2
87.84,0.001035,0,0.001953125,0.001953125,0.015625,-0.2890625,9.71875,0,0,0.001953125,0.265625,0.005859375,0,-0.03479004,-0.002197266,0.07910156,0,0,0.07910156,0,4.077,0,0,0,0,nan,2,0.016,0,128,0,0,0,0,0,0,0,1,2
87.85,0.00101,-0.001953125,0.005859375,-0.001953125,0.0390625,-0.3125,9.828125,-0.001953125,0.001953125,-0.001953125,0.265625,0.005859375,0,-0.03466797,-0.002075195,0.07910156,0,0,0.07910156,0,4.077,0,0,0,0,nan,2,0.026,0,128,0,0,0,0,0,0,0,1,2
87.86,0.00101,0,0,0,0.0390625,-0.296875,9.789062,-0.001953125,0,0,0.265625,0.005859375,0,-0.03466797,-0.002075195,0.07910156,0,0,0.07910156,0,4.077,0,0,0,0,nan,2,0.036,0,128,0,0,0,0,0,0,0,1,2
87.87,0.001012,0,0,0,-0.0078125,-0.296875,9.789062,0,0,0,0.265625,0.005859375,0,-0.0345459,-0.002075195,0.07910156,0,0,0.07910156,0,4.077,0,0,0,0,nan,2,0.046,0,128,0,0,0,0,0,0,0,1,2
87.88,0.001009,0.001953125,-0.00390625,0,0.0390625,-0.328125,9.820312,0,-0.001953125,0,0.265625,0.005859375,0,-0.03442383,-0.002075195,0.07910156,0,0,0.07910156,0,4.077,0,0,0,0,nan,2,0.056,0,128,0,0,0,0,0,0,0,1,2
87.89,0.001011,0,0,-0.001953125,0.0390625,-0.296875,9.8125,0,0,0,0.265625,0.005859375,0,-0.03430176,-0.002075195,0.07910156,0,0,0.07910156,0,4.077,0,0,0,0,nan,2,0.066,0,128,0,0,0,0,0,0,0,1,2
87.9,0.00101,0.001953125,0.001953125,0,0.015625,-0.28125,9.835938,0,0,0,0.265625,0.005859375,0,-0.03417969,-0.001953125,0.07910156,0,0,0.07910156,0,4.077,0,0,0,0,nan,2,0.076,0,128,0,0,0,0,0,0,0,1,2
87.91,0.001031,0,0.00390625,0.001953125,0,-0.3125,9.789062,0,0.001953125,0,0.265625,0.005859375,0,-0.03417969,-0.001953125,0.07897949,0,0,0.07897949,0,4.077,0,0,0,0,nan,2,0.086,0,128,0,0,0,0,0,0,0,1,2
87.92,0.001019,0,0.001953125,-0.001953125,0,-0.296875,9.859375,0,0.001953125,0,0.265625,0.005859375,0,-0.03405762,-0.001953125,0.07897949,0,0,0.07897949,0,4.077,0,0,0,0,nan,2,0.096,0,128,0,0,0,0,0,0,0,1,2
87.93,0.001005,0,0,0,0.015625,-0.3203125,9.828125,0,0,0,0.265625,0.005859375,0,-0.03393555,-0.001953125,0.07897949,0,0,0.07897949,0,4.077,0,0,0,0,nan,2,0.106,0,128,0,0,0,0,0,0,0,1,2
87.94,0.001008,-0.001953125,0,0,0.0390625,-0.2890625,9.90625,0,0.001953125,0,0.265625,0.005859375,0,-0.03393555,-0.001831055,0.07897949,0,0,0.07897949,0,4.077,0,0,0,0,nan,2,0.116,0,128,0,0,0,0,0,0,0,1,2
87.95,0.001011,0,0,0,0.0078125,-0.296875,9.78125,0,0.001953125,0,0.265625,0.005859375,0,-0.03381348,-0.001831055,0.07897949,0,0,0.07897949,0,4.077,0,0,0,0,nan,2,0.126,0,128,0,0,0,0,0,0,0,1,2
87.961,0.001009,-0.001953125,0,-0.00390625,-0.0546875,-0.3125,9.820312,-0.001953125,0,-0.001953125,0.265625,0.005859375,0,-0.03369141,-0.001831055,0.07897949,0,0,0.07897949,0,4.077,0,0,0,0,nan,2,0.136,0,128,0,0,0,0,0,0,0,1,2
87.97,0.000999,-0.00390625,0,0.001953125,0.0234375,-0.328125,9.78125,0,0,0,0.265625,0.005859375,0,-0.03369141,-0.001831055,0.07897949,0,0,0.07897949,0,4.077,0,0,0,0,nan,2,0.146,0,128,0,0,0,0,0,0,0,1,2
87.98,0.001023,0.00390625,0.001953125,0,0,-0.3203125,9.78125,0.001953125,0.001953125,0,0.265625,0.005859375,0,-0.03356934,-0.001708984,0.07897949,0,0,0.07897949,0,4.077,0,0,0,0,nan,2,0.156,0,128,0,0,0,0,0,0,0,1,2
87.99,0.001008,0,0.001953125,0,-0.0078125,-0.3359375,9.835938,-0.001953125,0.001953125,0,0.265625,0.005859375,0,-0.03356934,-0.001708984,0.07897949,0,0,0.07897949,0,4.077,0,0,0,0,nan,2,0.166,0,128,0,0,0,0,0,0,0,1,2
88,0.001038,0,-0.001953125,0,0.0234375,-0.3125,9.757812,0,0,0,0.265625,0.005859375,0,-0.03344727,-0.001708984,0.07897949,0,0,0.07897949,0,4.077,0,0,0,0,nan,2,0.176,0,128,0,0,0,0,0,0,0,1,2
88.01,0.001006,0.00390625,0.001953125,0,0.03125,-0.3125,9.820312,0.001953125,0.001953125,0,0.265625,0.005859375,0,-0.03344727,-0.001586914,0.07897949,0,0,0.07897949,0,4.077,0,0,0,0,nan,2,0.186,0,128,0,0,0,0,0,0,0,1,2
88.02,0.00101,-0.001953125,-0.001953125,0,-0.0234375,-0.328125,9.875,-0.001953125,-0.001953125,-0.001953125,0.265625,0.005859375,0,-0.03344727,-0.001586914,0.07897949,0,0,0.07897949,0,4.077,0,0,0,0,nan,2,0.196,0,128,0,0,0,0,0,0,0,1,2
88.03,0.00101,0,0.001953125,0,0.0234375,-0.296875,9.8125,0,0,0,0.265625,0.005859375,0,-0.0333252,-0.001586914,0.07897949,0,0,0.07897949,0,4.077,0,0,0,0,nan,2,0.206,0,128,0,0,0,0,0,0,0,1,2
88.04,0.00101,0,0.00390625,0,0.0078125,-0.3046875,9.78125,0,0.001953125,0,0.265625,0.005859375,0,-0.03320312,-0.001586914,0.07897949,0,0,0.07897949,0,4.077,0,0,0,0,nan,2,0.216,0,128,0,0,0,0,0,0,0,1,2
88.05,0.00101,0.001953125,0,-0.00390625,0.0234375,-0.3125,9.789062,0,0,-0.001953125,0.265625,0.005859375,0,-0.03320312,-0.001586914,0.07897949,0,0,0.07897949,0,4.077,0,0,0,0,nan,2,0.226,0,128,0,0,0,0,0,0,0,1,2
88.06,0.001005,0,0,-0.001953125,0,-0.296875,9.84375,-0.001953125,0,0,0.265625,0.005859375,0,-0.03308105,-0.001586914,0.07897949,0,0,0.07897949,0,4.077,0,0,0,0,nan,2,0.235,0,128,0,0,0,0,0,0,0,1,2
