t,dt_s,gyro_x,gyro_y,gyro_z,acc_x,acc_y,acc_z,rates.x,rates.y,rates.z,ratesTarget.x,ratesTarget.y,ratesTarget.z,attitude.x,attitude.y,attitude.z,attitudeTarget.x,attitudeTarget.y,attitudeTarget.z,thrustTarget,battery_v,rc_roll,rc_pitch,rc_yaw,rc_throttle,rc_mode,flight_mode,rc_age_s,armed,fault_mask,motor_rl,motor_rr,motor_fr,motor_fl,rate_i_x,rate_i_y,rate_i_z,mix_scale,control_source
123.448,0.001008,-0.04492188,0.01757812,-0.015625,-2.757812,0.7734375,15.89844,-0.03515625,-0.009765625,-0.01757812,0,0,0,-0.04272461,-0.0009765625,-0.03918457,0,0,-0.0008544922,0,4.076,0,0,0,0,nan,2,0.197,1,0,0.1000061,0.1000061,0.1000061,0.1000061,0,0,0,1,2
123.458,0.001008,-0.0234375,0.001953125,-0.02929688,0.1484375,4.179688,12.24219,-0.02539062,-0.00390625,-0.0390625,0,0,0,-0.04284668,-0.001220703,-0.03942871,0,0,-0.0008544922,0,4.076,0,0,0,0,nan,2,0.207,1,0,0.1000061,0.1000061,0.1000061,0.1000061,0,0,0,1,2
123.467,0.00101,0.02539062,0.02734375,-0.04882812,1.789062,-3.695312,10.89844,0.009765625,-0.00390625,-0.0390625,0,0,0,-0.04296875,-0.001220703,-0.03967285,0,0,-0.0008544922,0,4.076,0,0,0,0,nan,2,0.216,1,0,0.1000061,0.1000061,0.1000061,0.1000061,0,0,0,1,2
123.477,0.001036,0.02929688,0,-0.0234375,3.3125,-0.5859375,6.460938,0.02929688,-0.001953125,-0.03515625,0,0,0,-0.04260254,-0.001342773,-0.04016113,0,0,-0.0008544922,0,4.076,0,0,0,0,nan,2,0.226,1,0,0.1000061,0.1000061,0.1000061,0.1000061,0,0,0,1,2
123.487,0.00101,0.02539062,0.07226562,-0.03710938,-0.203125,-0.7109375,9.335938,0.03710938,0.01757812,-0.0390625,0,0,0,-0.04223633,-0.001342773,-0.04052734,0,0,-0.0008544922,0,4.076,0,0,0,0,nan,2,0.236,1,0,0.1000061,0.1000061,0.1000061,0.1000061,0,0,0,1,2
123.498,0.001,0.06835938,-0.02539062,-0.01757812,-3.085938,-3.304688,12.08594,0.046875,0.01367188,-0.01757812,0,0,0,-0.04174805,-0.001098633,-0.04077148,0,0,-0.0008544922,0,4.076,0,0,0,0,nan,2,0.246,1,0,0.1000061,0.1000061,0.1000061,0.1000061,0,0,0,1,2
123.508,0.001011,0.05859375,0.03125,0.01171875,-2.242188,1.804688,14.40625,0.05664062,0.03125,-0.009765625,0,0,0,-0.04125977,-0.0009765625,-0.04101562,0,0,-0.0008544922,0,4.076,0,0,0,0,nan,2,0.004,1,0,0.1000061,0.1000061,0.1000061,0.1000061,0,0,0,1,2
123.518,0.001013,0.08007812,0.02148438,-0.001953125,0.65625,6.515625,10.73438,0.0546875,0.0234375,-0.015625,0,0,0,-0.04077148,-0.0007324219,-0.0411377,0,0,-0.0008544922,0,4.076,0,0,0,0,nan,2,0.014,1,0,0.1000061,0.1000061,0.1000061,0.1000061,0,0,0,1,2
123.528,0.001,0.05273438,0.02539062,-0.03515625,0.0390625,4.679688,10.95312,0.046875,0.0234375,-0.01171875,0,0,0,-0.04040527,-0.0004882812,-0.04125977,0,0,-0.0008544922,0,4.076,0,0,0,0,nan,2,0.024,1,0,0.1000061,0.1000061,0.1000061,0.1000061,0,0,0,1,2
123.538,0.001013,0.0390625,0.09960938,-0.02539062,-1.179688,-2.367188,10.53125,0.05664062,0.0390625,-0.01757812,0,0,0,-0.03979492,-0.0002441406,-0.04150391,0,0,-0.0008544922,0,4.076,0,0,0,0,nan,2,0.034,1,0,0.1000061,0.1000061,0.1000061,0.1000061,0,0,0,1,2
123.548,0.00101,0.05078125,0.02929688,0.005859375,0.8671875,4.929688,12.52344,0.03125,0.03710938,-0.01757812,0,0,0,-0.03942871,0.0001220703,-0.04174805,0,0,-0.0008544922,0,4.076,0,0,0,0,nan,2,0.044,1,0,0.1000061,0.1000061,0.1000061,0.1000061,0,0,0,1,2
123.558,0.00101,0.1054688,0.01367188,0.009765625,-0.453125,3.84375,12.88281,0.0625,0.02148438,0.00390625,0,0,0,-0.03894043,0.0004882812,-0.04174805,0,0,-0.0008544922,0,4.076,0,0,0,0,nan,2,0.055,1,0,0.1000061,0.1000061,0.1000061,0.1000061,0,0,0,1,2
123.568,0.00101,0.0625,0.03515625,0.001953125,-1.070312,-2.054688,12.69531,0.07421875,0.0234375,0.005859375,0,0,0,-0.03833008,0.0008544922,-0.04187012,0,0,-0.0008544922,0,4.076,0,0,0,0,nan,2,0.065,1,0,0.1000061,0.1000061,0.1000061,0.1000061,0,0,0,1,2
123.577,0.00101,0.01953125,0.06054688,0.0078125,-0.4453125,-4.960938,11.02344,0.05273438,0.03515625,0.0078125,0,0,0,-0.03771973,0.001098633,-0.04174805,0,0,-0.0008544922,0,4.076,0,0,0,0,nan,2,0.074,1,0,0.1000061,0.1000061,0.1000061,0.1000061,0,0,0,1,2
123.587,0.00101,0.05859375,-0.05859375,0.02148438,-1.078125,-2.648438,12.23438,0.05664062,0.009765625,0.0234375,0,0,0,-0.03710938,0.001464844,-0.04174805,0,0,-0.0008544922,0,4.076,0,0,0,0,nan,2,0.084,1,0,0.1000061,0.1000061,0.1000061,0.1000061,0,0,0,1,2
123.598,0.001011,0.05078125,-0.001953125,-0.01953125,-0.9375,3.195312,8.8125,0.05664062,0.01171875,-0.001953125,0,0,0,-0.03625488,0.001586914,-0.04162598,0,0,-0.0008544922,0,4.076,0,0,0,0,nan,2,0.094,1,0,0.1000061,0.1000061,0.1000061,0.1000061,0,0,0,1,2
123.608,0.001009,0.0390625,0.02734375,-0.02734375,-0.6484375,7.21875,11.6875,0.05273438,0.0078125,-0.01367188,0,0,0,-0.0357666,0.001708984,-0.04174805,0,0,-0.0008544922,0,4.076,0,0,0,0,nan,2,0.104,1,0,0.1000061,0.1000061,0.1000061,0.1000061,0,0,0,1,2
123.618,0.00101,0.01757812,0.009765625,-0.001953125,-1.195312,3.015625,13.67188,0.03125,0.01953125,-0.009765625,0,0,0,-0.03515625,0.001831055,-0.04174805,0,0,-0.0008544922,0,4.076,0,0,0,0,nan,2,0.114,1,0,0.1000061,0.1000061,0.1000061,0.1000061,0,0,0,1,2
123.628,0.001007,0.05859375,0.02734375,0,-1.101562,0.109375,8.898438,0.05859375,0.01953125,-0.01953125,0,0,0,-0.0345459,0.001953125,-0.04199219,0,0,-0.0008544922,0,4.076,0,0,0,0,nan,2,0.124,1,0,0.1000061,0.1000061,0.1000061,0.1000061,0,0,0,1,2
123.638,0.00101,0.1054688,-0.04296875,0.02148438,0.6640625,-1.265625,2.617188,0.04492188,0,0.00390625,0,0,0,-0.03393555,0.002075195,-0.04199219,0,0,-0.0008544922,0,4.076,0,0,0,0,nan,2,0.134,1,0,0.1000061,0.1000061,0.1000061,0.1000061,0,0,0,1,2
123.648,0.00101,0.01367188,0.0078125,0.02148438,-1.507812,2.625,15.42969,0.04882812,0,0.015625,0,0,0,-0.03344727,0.002075195,-0.04199219,0,0,-0.0008544922,0,4.076,0,0,0,0,nan,2,0.144,1,0,0.1000061,0.1000061,0.1000061,0.1000061,0,0,0,1,2
123.658,0.001007,-0.0625,0.01757812,-0.009765625,-0.4765625,1.695312,9.8125,-0.005859375,-0.001953125,-0.00390625,0,0,0,-0.03320312,0.002075195,-0.04199219,0,0,-0.0008544922,0,4.076,0,0,0,0,nan,2,0.155,1,0,0.1000061,0.1000061,0.1000061,0.1000061,0,0,0,1,2
123.668,0.00101,-0.05859375,-0.04492188,0.01953125,1.367188,-0.46875,2.1875,-0.02929688,-0.02734375,0.01953125,0,0,0,-0.0333252,0.001831055,-0.04187012,0,0,-0.0008544922,0,4.076,0,0,0,0,nan,2,0.165,1,0,0.1000061,0.1000061,0.1000061,0.1000061,0,0,0,1,2
123.677,0.001007,-0.1191406,-0.005859375,0.05273438,1.15625,-1.304688,9.6875,-0.0703125,-0.01953125,0.02929688,0,0,0,-0.03369141,0.001586914,-0.04174805,0,0,-0.0008544922,0,4.076,0,0,0,0,nan,2,0.174,1,0,0.1000061,0.1000061,0.1000061,0.1000061,0,0,0,1,2
123.687,0.00101,-0.08203125,-0.078125,0,-1.101562,3.414062,9.585938,-0.07617188,-0.02539062,0.015625,0,0,0,-0.03430176,0.001342773,-0.04150391,0,0,-0.0008544922,0,4.076,0,0,0,0,nan,2,0.184,1,0,0.1000061,0.1000061,0.1000061,0.1000061,0,0,0,1,2
123.697,0.001012,-0.05664062,0.00390625,0.02148438,-2.328125,3.515625,13.89062,-0.06054688,-0.01171875,0.0234375,0,0,0,-0.03479004,0.001220703,-0.04138184,0,0,-0.0008544922,0,4.076,0,0,0,0,nan,2,0.194,1,0,0.1000061,0.1000061,0.1000061,0.1000061,0,0,0,1,2
123.708,0.001009,-0.009765625,-0.0390625,0.02148438,-0.75,3.578125,12.53125,-0.05664062,-0.009765625,0.01171875,0,0,0,-0.03540039,0.001098633,-0.04125977,0,0,-0.0008544922,0,4.076,0,0,0,0,nan,2,0.204,1,0,0.1000061,0.1000061,0.1000061,0.1000061,0,0,0,1,2
123.718,0.00101,-0.02734375,0.03515625,-0.005859375,0.703125,3.648438,3.96875,-0.03710938,0.0234375,-0.009765625,0,0,0,-0.03564453,0.001220703,-0.0411377,0,0,-0.0008544922,0,4.076,0,0,0,0,nan,2,0.214,1,0,0.1000061,0.1000061,0.1000061,0.1000061,0,0,0,1,2
123.728,0.00101,-0.05273438,0.01367188,0.03320312,-0.234375,0.0859375,1.59375,-0.04296875,0.01171875,0.0078125,0,0,0,-0.03613281,0.001342773,-0.04125977,0,0,-0.0008544922,0,4.076,0,0,0,0,nan,2,0.224,1,0,0.1000061,0.1000061,0.1000061,0.1000061,0,0,0,1,2
123.738,0.001016,-0.005859375,0.02539062,-0.005859375,-0.2578125,-5.546875,9.96875,-0.0234375,0.02539062,-0.015625,0,0,0,-0.03649902,0.001464844,-0.04125977,0,0,-0.0008544922,0,4.076,0,0,0,0,nan,2,0.234,1,0,0.1000061,0.1000061,0.1000061,0.1000061,0,0,0,1,2
123.748,0.001018,-0.0078125,0.04492188,-0.01367188,0.078125,4.140625,3.195312,0.02539062,0.02734375,-0.01367188,0,0,0,-0.03637695,0.001708984,-0.04150391,0,0,-0.0008544922,0,4.076,0,0,0,0,nan,2,0.244,1,0,0.1000061,0.1000061,0.1000061,0.1000061,0,0,0,1,2
123.758,0.001019,0.1308594,0.001953125,0.01171875,-0.59375,0.78125,3.492188,0.04296875,0.02929688,-0.01171875,0,0,0,-0.03637695,0.001953125,-0.04174805,0,0,-0.0008544922,0,4.076,0,0,0,0,nan,2,0.255,1,0,0.1000061,0.1000061,0.1000061,0.1000061,0,0,0,1,2
123.767,0.001009,-0.01171875,0.001953125,-0.015625,0.4375,0.046875,10.9375,0.046875,0.01953125,-0.02148438,0,0,0,-0.0357666,0.002197266,-0.04187012,0,0,-0.0008544922,0,4.076,0,0,0,0,nan,2,0.264,1,0,0.1000061,0.1000061,0.1000061,0.1000061,0,0,0,1,2
123.777,0.000985,-0.01953125,0.01757812,-0.03515625,-1.546875,1.453125,15.28906,0.01171875,0.04101562,-0.02539062,0,0,0,-0.03552246,0.002441406,-0.04211426,0,0,-0.0008544922,0,4.076,0,0,0,0,nan,2,0.274,1,0,0.1000061,0.1000061,0.1000061,0.1000061,0,0,0,1,2
123.788,0.001033,0.005859375,0.02929688,-0.02734375,-0.375,3.117188,15.14062,0.02539062,0.03710938,-0.03320312,0,0,0,-0.03527832,0.002929688,-0.04260254,0,0,-0.0008544922,0,4.076,0,0,0,0,nan,2,0,1,0,0.1000061,0.1000061,0.1000061,0.1000061,0,0,0,1,2
123.797,0.000989,0.01171875,0.02148438,-0.05859375,0.2265625,4.78125,5.632812,0.0234375,0.02539062,-0.0390625,0,0,0,-0.03491211,0.003051758,-0.04284668,0,0,-0.0008544922,0,4.076,0,0,0,0,nan,2,0.01,1,0,0.1000061,0.1000061,0.1000061,0.1000061,0,0,0,1,2
123.808,0.001002,0.02539062,-0.04492188,-0.03320312,-0.4921875,3.992188,0.484375,0.015625,-0.0078125,-0.02734375,0,0,0,-0.03466797,0.003173828,-0.04309082,0,0,-0.0008544922,0,4.076,0,0,0,0,nan,2,0.02,1,0,0.1000061,0.1000061,0.1000061,0.1000061,0,0,0,1,2
123.818,0.001002,0.0078125,0.04882812,-0.01367188,-1.96875,-1.234375,6.796875,0.03515625,0.015625,-0.03320312,0,0,0,-0.03417969,0.003051758,-0.04345703,0,0,-0.0008544922,0,4.076,0,0,0,0,nan,2,0.03,1,0,0.1000061,0.1000061,0.1000061,0.1000061,0,0,0,1,2
123.828,0.001009,0.08789062,-0.04296875,-0.03710938,-0.203125,-4.679688,12.21094,0.05078125,-0.015625,-0.02539062,0,0,0,-0.03393555,0.003051758,-0.0435791,0,0,-0.0008544922,0,4.073,0,0,0,0,nan,2,0.04,1,0,0.1000061,0.1000061,0.1000061,0.1000061,0,0,0,1,2
123.838,0.001009,0.046875,0.02929688,-0.009765625,0.8984375,-3.921875,8.117188,0.046875,0.015625,-0.0234375,0,0,0,-0.0333252,0.003051758,-0.04394531,0,0,-0.0008544922,0,4.073,0,0,0,0,nan,2,0.05,1,0,0.1000061,0.1000061,0.1000061,0.1000061,0,0,0,1,2
123.848,0.001009,0.04101562,0.001953125,-0.03320312,-1.585938,-1.445312,7.40625,0.05078125,-0.001953125,-0.03710938,0,0,0,-0.03283691,0.003173828,-0.04431152,0,0,-0.0008544922,0,4.073,0,0,0,0,nan,2,0.061,1,0,0.1000061,0.1000061,0.1000061,0.1000061,0,0,0,1,2
123.858,0.001009,0.06835938,0.01367188,-0.02734375,0,-3.617188,10.80469,0.0546875,0.03125,-0.03320312,0,0,0,-0.03222656,0.003295898,-0.04455566,0,0,-0.0008544922,0,4.073,0,0,0,0,nan,2,0.071,1,0,0.1000061,0.1000061,0.1000061,0.1000061,0,0,0,1,2
123.868,0.001009,0.01367188,0.009765625,-0.001953125,1.8125,-3.453125,6.484375,0.03125,0.02539062,-0.015625,0,0,0,-0.03161621,0.003540039,-0.04492188,0,0,-0.0008544922,0,4.073,0,0,0,0,nan,2,0.081,1,0,0.1000061,0.1000061,0.1000061,0.1000061,0,0,0,1,2
123.877,0.001008,-0.0078125,0.005859375,-0.02929688,1.507812,4.617188,12.10938,0.0078125,0.02148438,-0.02734375,0,0,0,-0.03149414,0.003662109,-0.04516602,0,0,-0.0008544922,0,4.073,0,0,0,0,nan,2,0.09,1,0,0.1000061,0.1000061,0.1000061,0.1000061,0,0,0,1,2
123.887,0.001014,0.0390625,0.02929688,-0.02148438,1.757812,4.921875,4.132812,0.015625,0.015625,-0.009765625,0,0,0,-0.03149414,0.00378418,-0.04528809,0,0,-0.0008544922,0,4.073,0,0,0,0,nan,2,0.1,1,0,0.1000061,0.1000061,0.1000061,0.1000061,0,0,0,1,2
123.897,0.001011,-0.04882812,0.015625,0.0078125,-2.265625,1.226562,4.570312,-0.015625,0.0078125,0.001953125,0,0,0,-0.03149414,0.00390625,-0.04528809,0,0,-0.0008544922,0,4.073,0,0,0,0,nan,2,0.11,1,0,0.1000061,0.1000061,0.1000061,0.1000061,0,0,0,1,2
123.908,0.001007,-0.02929688,0.00390625,0.0078125,-1.984375,-1.9375,6.8125,-0.03710938,0.00390625,-0.001953125,0,0,0,-0.03173828,0.00390625,-0.04528809,0,0,-0.0008544922,0,4.073,0,0,0,0,nan,2,0.12,1,0,0.1000061,0.1000061,0.1000061,0.1000061,0,0,0,1,2
123.918,0.001012,0.00390625,-0.0234375,-0.005859375,-0.0859375,-0.859375,7.101562,-0.03515625,-0.0078125,0.00390625,0,0,0,-0.03222656,0.00390625,-0.04516602,0,0,-0.0008544922,0,4.073,0,0,0,0,nan,2,0.13,1,0,0.1000061,0.1000061,0.1000061,0.1000061,0,0,0,1,2
123.928,0.001011,-0.0546875,-0.01953125,-0.005859375,1.789062,0.3671875,6.5625,-0.0546875,-0.02148438,-0.009765625,0,0,0,-0.03259277,0.00378418,-0.04528809,0,0,-0.0008544922,0,4.073,0,0,0,0,nan,2,0.14,1,0,0.1000061,0.1000061,0.1000061,0.1000061,0,0,0,1,2
123.938,0.001011,-0.04492188,0.005859375,-0.01367188,-0.625,-4.382812,9.382812,-0.04101562,-0.01367188,-0.02148438,0,0,0,-0.03308105,0.003540039,-0.04541016,0,0,-0.0008544922,0,4.073,0,0,0,0,nan,2,0.15,1,0,0.1000061,0.1000061,0.1000061,0.1000061,0,0,0,1,2
123.948,0.001008,-0.03125,0.009765625,-0.04101562,0.1875,1.429688,5.265625,-0.01757812,-0.015625,-0.02539062,0,0,0,-0.03320312,0.003295898,-0.04553223,0,0,-0.0008544922,0,4.073,0,0,0,0,nan,2,0.161,1,0,0.1000061,0.1000061,0.1000061,0.1000061,0,0,0,1,2
123.958,0.001027,0.02734375,0,-0.015625,1.757812,0.8046875,5.054688,0.04101562,-0.001953125,-0.01953125,0,0,0,-0.03320312,0.003173828,-0.04589844,0,0,-0.0008544922,0,4.073,0,0,0,0,nan,2,0.171,1,0,0.1000061,0.1000061,0.1000061,0.1000061,0,0,0,1,2
123.968,0.001011,0.04296875,-0.02539062,-0.01171875,0.203125,-5.195312,7.929688,0.04492188,0.01757812,-0.02148438,0,0,0,-0.03283691,0.003295898,-0.04614258,0,0,-0.0008544922,0,4.073,0,0,0,0,nan,2,0.181,1,0,0.1000061,0.1000061,0.1000061,0.1000061,0,0,0,1,2
123.977,0.00101,-0.005859375,0.0390625,-0.005859375,1.09375,4.40625,11.64844,0.03125,0.01757812,-0.005859375,0,0,0,-0.03234863,0.003417969,-0.04614258,0,0,-0.0008544922,0,4.073,0,0,0,0,nan,2,0.19,1,0,0.1000061,0.1000061,0.1000061,0.1000061,0,0,0,1,2
123.988,0.001019,-0.0546875,0.02539062,0.03320312,-1.578125,0.3046875,11.44531,-0.015625,0.0234375,0.015625,0,0,0,-0.03210449,0.003540039,-0.04614258,0,0,-0.0008544922,0,4.073,0,0,0,0,nan,2,0.006,1,0,0.1000061,0.1000061,0.1000061,0.1000061,0,0,0,1,2
123.997,0.000996,-0.02734375,0.01757812,0.02539062,-1.59375,1.78125,6.195312,-0.02734375,0.00390625,0.02148438,0,0,0,-0.0324707,0.003540039,-0.04589844,0,0,-0.0008544922,0,4.073,0,0,0,0,nan,2,0.016,1,0,0.1000061,0.1000061,0.1000061,0.1000061,0,0,0,1,2
124.008,0.001012,-0.0703125,-0.02734375,0.02929688,0.328125,4.039062,3.132812,-0.04101562,-0.00390625,0.03125,0,0,0,-0.03283691,0.003417969,-0.04553223,0,0,-0.0008544922,0,4.073,0,0,0,0,nan,2,0.026,1,0,0.1000061,0.1000061,0.1000061,0.1000061,0,0,0,1,2
124.018,0.001014,-0.09960938,-0.009765625,0.04101562,0.765625,2.390625,5.960938,-0.05859375,-0.01757812,0.04101562,0,0,0,-0.03320312,0.003173828,-0.04516602,0,0,-0.0008544922,0,4.073,0,0,0,0,nan,2,0.036,1,0,0.1000061,0.1000061,0.1000061,0.1000061,0,0,0,1,2
124.028,0.00105,-0.0859375,-0.005859375,0.01367188,-0.5703125,-4.109375,8.929688,-0.05273438,-0.01171875,0.02539062,0,0,0,-0.03393555,0.002929688,-0.0447998,0,0,-0.0008544922,0,4.073,0,0,0,0,nan,2,0.046,1,0,0.1000061,0.1000061,0.1000061,0.1000061,0,0,0,1,2
124.038,0.001035,-0.1054688,0.00390625,0.009765625,-1.0625,-5.234375,8.34375,-0.06640625,-0.0234375,0.01757812,0,0,0,-0.03479004,0.002685547,-0.04455566,0,0,-0.0008544922,0,4.073,0,0,0,0,nan,2,0.057,1,0,0.1000061,0.1000061,0.1000061,0.1000061,0,0,0,1,2
124.048,0.00101,-0.0703125,-0.0390625,0.0546875,-0.8828125,3.367188,8.203125,-0.05273438,-0.03320312,0.02929688,0,0,0,-0.03527832,0.002441406,-0.04431152,0,0,-0.0008544922,0,4.073,0,0,0,0,nan,2,0.067,1,0,0.1000061,0.1000061,0.1000061,0.1000061,0,0,0,1,2
124.058,0.00101,-0.1015625,-0.009765625,0.0078125,0.15625,-2.210938,9.320312,-0.0625,-0.00390625,0.01953125,0,0,0,-0.03601074,0.002197266,-0.04406738,0,0,-0.0008544922,0,4.073,0,0,0,0,nan,2,0.077,1,0,0.1000061,0.1000061,0.1000061,0.1000061,0,0,0,1,2
124.068,0.00101,0.01171875,-0.015625,0.01757812,0.546875,-3.664062,4.828125,-0.01953125,0.00390625,0.01171875,0,0,0,-0.03625488,0.002197266,-0.04394531,0,0,-0.0008544922,0,4.073,0,0,0,0,nan,2,0.087,1,0,0.1000061,0.1000061,0.1000061,0.1000061,0,0,0,1,2
124.077,0.00101,0.009765625,0.02734375,0.04492188,1.46875,0.53125,16.0625,0.01367188,0.01367188,0.01757812,0,0,0,-0.03625488,0.002319336,-0.04382324,0,0,-0.0008544922,0,4.073,0,0,0,0,nan,2,0.096,1,0,0.1000061,0.1000061,0.1000061,0.1000061,0,0,0,1,2
124.087,0.00101,0.03320312,0.04296875,-0.009765625,0.8984375,4.929688,8.234375,0.0390625,0.03515625,0.00390625,0,0,0,-0.0357666,0.002685547,-0.0435791,0,0,-0.0008544922,0,4.073,0,0,0,0,nan,2,0.106,1,0,0.1000061,0.1000061,0.1000061,0.1000061,0,0,0,1,2
124.097,0.001012,0.03320312,0.02734375,0.009765625,-1.265625,4.71875,5.875,0.04492188,0.03125,0.009765625,0,0,0,-0.03515625,0.002929688,-0.0435791,0,0,-0.0008544922,0,4.073,0,0,0,0,nan,2,0.116,1,0,0.1000061,0.1000061,0.1000061,0.1000061,0,0,0,1,2
124.108,0.001011,0.0078125,0.01953125,0.0234375,-2.75,1.164062,10.1875,0.05273438,0.009765625,0.009765625,0,0,0,-0.03466797,0.003173828,-0.0435791,0,0,-0.0008544922,0,4.073,0,0,0,0,nan,2,0.126,1,0,0.1000061,0.1000061,0.1000061,0.1000061,0,0,0,1,2
124.118,0.001006,0.02148438,0.001953125,-0.01171875,-0.21875,2.796875,8.648438,0.04882812,0.005859375,0,0,0,0,-0.03405762,0.003173828,-0.04345703,0,0,-0.0008544922,0,4.073,0,0,0,0,nan,2,0.136,1,0,0.1000061,0.1000061,0.1000061,0.1000061,0,0,0,1,2
124.128,0.001007,0.0390625,0.005859375,-0.03320312,1.804688,2.78125,3.75,0.05664062,0.001953125,-0.01171875,0,0,0,-0.03344727,0.003173828,-0.04345703,0,0,-0.0008544922,0,4.073,0,0,0,0,nan,2,0.146,1,0,0.1000061,0.1000061,0.1000061,0.1000061,0,0,0,1,2
124.138,0.001007,0.04492188,-0.03710938,-0.01367188,0.890625,-0.8125,2.984375,0.03515625,-0.005859375,-0.02929688,0,0,0,-0.03308105,0.003173828,-0.04382324,0,0,-0.0008544922,0,4.073,0,0,0,0,nan,2,0.157,1,0,0.1000061,0.1000061,0.1000061,0.1000061,0,0,0,1,2
124.148,0.00101,-0.0078125,-0.03710938,-0.02929688,-1.335938,4.734375,10.57812,0.005859375,-0.0078125,-0.04101562,0,0,0,-0.03271484,0.003051758,-0.04406738,0,0,-0.0008544922,0,4.073,0,0,0,0,nan,2,0.167,1,0,0.1000061,0.1000061,0.1000061,0.1000061,0,0,0,1,2
124.158,0.00101,-0.06054688,-0.005859375,-0.0390625,2.046875,5.320312,6.34375,-0.015625,-0.02734375,-0.02539062,0,0,0,-0.03271484,0.002807617,-0.04443359,0,0,-0.0008544922,0,4.073,0,0,0,0,nan,2,0.177,1,0,0.1000061,0.1000061,0.1000061,0.1000061,0,0,0,1,2
124.168,0.00101,-0.03125,-0.04882812,-0.01367188,0.2734375,1.34375,4.445312,-0.02929688,-0.01953125,-0.0234375,0,0,0,-0.03308105,0.002685547,-0.04467773,0,0,-0.0008544922,0,4.073,0,0,0,0,nan,2,0.187,1,0,0.1000061,0.1000061,0.1000061,0.1000061,0,0,0,1,2
124.177,0.001019,-0.0390625,-0.015625,-0.01757812,2.929688,-0.328125,13.46094,-0.02929688,-0.0234375,-0.03320312,0,0,0,-0.03320312,0.002441406,-0.04492188,0,0,-0.0008544922,0,4.073,0,0,0,0,nan,2,0.196,1,0,0.1000061,0.1000061,0.1000061,0.1000061,0,0,0,1,2
124.187,0.000982,-0.05273438,-0.01367188,-0.01757812,-1.117188,-2.320312,13.67969,-0.0234375,-0.02929688,-0.009765625,0,0,0,-0.03356934,0.002197266,-0.04516602,0,0,-0.0008544922,0,4.073,0,0,0,0,nan,2,0.003,1,0,0.1000061,0.1000061,0.1000061,0.1000061,0,0,0,1,2
124.198,0.001033,-0.0234375,-0.04492188,-0.01171875,-2.03125,1.328125,12.67969,-0.01953125,-0.02148438,-0.015625,0,0,0,-0.03405762,0.001953125,-0.04528809,0,0,-0.0008544922,0,4.073,0,0,0,0,nan,2,0.013,1,0,0.1000061,0.1000061,0.1000061,0.1000061,0,0,0,1,2
124.208,0.001013,-0.01953125,-0.00390625,-0.01171875,-1.1875,6.179688,7.414062,-0.01367188,-0.009765625,-0.0234375,0,0,0,-0.03405762,0.001831055,-0.04553223,0,0,-0.0008544922,0,4.073,0,0,0,0,nan,2,0.023,1,0,0.1000061,0.1000061,0.1000061,0.1000061,0,0,0,1,2
124.218,0.001009,0.015625,-0.046875,0.02148438,0.34375,7.609375,8.265625,0.005859375,-0.015625,0.001953125,0,0,0,-0.03417969,0.001831055,-0.0456543,0,0,-0.0008544922,0,4.073,0,0,0,0,nan,2,0.033,1,0,0.1000061,0.1000061,0.1000061,0.1000061,0,0,0,1,2
124.228,0.00101,-0.02929688,0.02148438,0.03515625,-0.8125,1.390625,9.898438,0.01171875,-0.0078125,0.01367188,0,0,0,-0.03393555,0.001586914,-0.04553223,0,0,-0.0008544922,0,4.073,0,0,0,0,nan,2,0.043,1,0,0.1000061,0.1000061,0.1000061,0.1000061,0,0,0,1,2
124.238,0.000991,-0.02148438,-0.05078125,0.01367188,-0.28125,-2.78125,6.429688,-0.01171875,-0.03320312,0.01367188,0,0,0,-0.03393555,0.001464844,-0.04541016,0,0,-0.0008544922,0,4.073,0,0,0,0,nan,2,0.054,1,0,0.1000061,0.1000061,0.1000061,0.1000061,0,0,0,1,2
124.248,0.00101,-0.06835938,-0.06445312,0.03710938,-1.203125,6.492188,11.35156,-0.0625,-0.02929688,0.04101562,0,0,0,-0.03417969,0.001220703,-0.04516602,0,0,-0.0008544922,0,4.073,0,0,0,0,nan,2,0.064,1,0,0.1000061,0.1000061,0.1000061,0.1000061,0,0,0,1,2
124.258,0.00101,-0.03710938,0.01171875,0.04296875,-1.179688,1.601562,13.85938,-0.05664062,-0.00390625,0.04296875,0,0,0,-0.03479004,0.001098633,-0.04467773,0,0,-0.0008544922,0,4.073,0,0,0,0,nan,2,0.074,1,0,0.1000061,0.1000061,0.1000061,0.1000061,0,0,0,1,2
124.268,0.001007,0.07226562,-0.005859375,-0.01367188,0.375,-0.1953125,8.210938,0.03320312,0.015625,0.0078125,0,0,0,-0.03466797,0.001342773,-0.04443359,0,0,-0.0008544922,0,4.073,0,0,0,0,nan,2,0.084,1,0,0.1000061,0.1000061,0.1000061,0.1000061,0,0,0,1,2
124.277,0.001009,-0.009765625,-0.0078125,0.0234375,1.140625,-4.398438,14.65625,0.0234375,-0.005859375,0.0078125,0,0,0,-0.03430176,0.001342773,-0.04443359,0,0,-0.0008544922,0,4.073,0,0,0,0,nan,2,0.093,1,0,0.1000061,0.1000061,0.1000061,0.1000061,0,0,0,1,2
124.287,0.001006,-0.046875,-0.01757812,0.0390625,0.3203125,-0.1015625,10.02344,-0.05078125,-0.01953125,0.01953125,0,0,0,-0.03430176,0.001220703,-0.04431152,0,0,-0.0008544922,0,4.073,0,0,0,0,nan,2,0.103,1,0,0.1000061,0.1000061,0.1000061,0.1000061,0,0,0,1,2
124.297,0.001007,0.01171875,0.02539062,-0.05078125,-1.445312,3.875,8.226562,0.005859375,0.01171875,-0.01367188,0,0,0,-0.03442383,0.001342773,-0.04418945,0,0,-0.0008544922,0,4.073,0,0,0,0,nan,2,0.113,1,0,0.1000061,0.1000061,0.1000061,0.1000061,0,0,0,1,2
124.308,0.001005,-0.05078125,0.02539062,-0.02539062,-3.015625,3.390625,13.99219,-0.00390625,0.01171875,-0.02539062,0,0,0,-0.03430176,0.001464844,-0.04455566,0,0,-0.0008544922,0,4.073,0,0,0,0,nan,2,0.123,1,0,0.1000061,0.1000061,0.1000061,0.1000061,0,0,0,1,2
124.318,0.00101,-0.05078125,-0.01367188,0.01171875,-0.9921875,3.585938,13.53125,-0.05273438,-0.001953125,-0.001953125,0,0,0,-0.03466797,0.001464844,-0.04467773,0,0,-0.0008544922,0,4.073,0,0,0,0,nan,2,0.133,1,0,0.1000061,0.1000061,0.1000061,0.1000061,0,0,0,1,2
124.328,0.001009,0.0859375,-0.02148438,-0.03320312,1.289062,3.539062,5.6875,0.04296875,0.005859375,-0.009765625,0,0,0,-0.0345459,0.001586914,-0.04467773,0,0,-0.0008544922,0,4.073,0,0,0,0,nan,2,0.143,1,0,0.1000061,0.1000061,0.1000061,0.1000061,0,0,0,1,2
124.338,0.001009,-0.01367188,-0.02929688,0.0078125,-0.1796875,0.4140625,2.6875,0.01953125,-0.0234375,0.0078125,0,0,0,-0.03393555,0.001586914,-0.0447998,0,0,-0.0008544922,0,4.073,0,0,0,0,nan,2,0.154,1,0,0.1000061,0.1000061,0.1000061,0.1000061,0,0,0,1,2
124.348,0.001009,-0.03320312,0.01953125,0.01171875,-0.6328125,4.960938,13.78125,-0.02929688,-0.01367188,0.01367188,0,0,0,-0.03417969,0.001342773,-0.04467773,0,0,-0.0008544922,0,4.073,0,0,0,0,nan,2,0.164,1,0,0.1000061,0.1000061,0.1000061,0.1000061,0,0,0,1,2
124.358,0.001009,0.02734375,0.05273438,-0.03710938,2.007812,4.992188,8.859375,0.02734375,0.01757812,-0.00390625,0,0,0,-0.03417969,0.001464844,-0.04443359,0,0,-0.0008544922,0,4.073,0,0,0,0,nan,2,0.174,1,0,0.1000061,0.1000061,0.1000061,0.1000061,0,0,0,1,2
124.368,0.001009,0.02929688,0.00390625,-0.02148438,-0.6875,0.4453125,6.898438,0.04882812,0.01367188,-0.01757812,0,0,0,-0.03381348,0.001708984,-0.04467773,0,0,-0.0008544922,0,4.073,0,0,0,0,nan,2,0.184,1,0,0.1000061,0.1000061,0.1000061,0.1000061,0,0,0,1,2
124.377,0.001011,0.01171875,-0.02148438,-0.01757812,0.5078125,-0.7109375,8.617188,0.01367188,-0.02148438,-0.02929688,0,0,0,-0.03356934,0.001586914,-0.04492188,0,0,-0.0008544922,0,4.073,0,0,0,0,nan,2,0.193,1,0,0.1000061,0.1000061,0.1000061,0.1000061,0,0,0,1,2
124.387,0.001011,-0.03125,0.0078125,-0.009765625,-2.890625,-3.046875,12.10938,-0.03515625,-0.0234375,-0.01367188,0,0,0,-0.03381348,0.001342773,-0.04516602,0,0,-0.0008544922,0,4.073,0,0,0,0,nan,2,0.203,1,0,0.1000061,0.1000061,0.1000061,0.1000061,0,0,0,1,2
124.397,0.001012,-0.04296875,0.02539062,0.01367188,-1.859375,1.171875,15.26562,-0.04882812,-0.00390625,0,0,0,0,-0.03442383,0.001220703,-0.04528809,0,0,-0.0008544922,0,4.073,0,0,0,0,nan,2,0.213,1,0,0.1000061,0.1000061,0.1000061,0.1000061,0,0,0,1,2
124.408,0.001001,-0.01757812,0.05078125,0.005859375,0.2109375,7.023438,10.86719,-0.02148438,0.01953125,-0.00390625,0,0,0,-0.0345459,0.001220703,-0.04528809,0,0,-0.0008544922,0,4.073,0,0,0,0,nan,2,0.007,1,0,0.1000061,0.1000061,0.1000061,0.1000061,0,0,0,1,2
124.418,0.000974,0.009765625,0.0078125,0.001953125,0.34375,6.046875,9.53125,-0.0078125,0.02539062,0.001953125,0,0,0,-0.03479004,0.001464844,-0.04516602,0,0,-0.0008544922,0,4.073,0,0,0,0,nan,2,0.017,1,0,0.1000061,0.1000061,0.1000061,0.1000061,0,0,0,1,2
124.428,0.001011,0.06835938,0.03710938,0.005859375,-2.03125,-1.421875,9.609375,0.02929688,0.01953125,0.001953125,0,0,0,-0.03466797,0.001586914,-0.04528809,0,0,-0.0008544922,0,4.073,0,0,0,0,nan,2,0.027,1,0,0.1000061,0.1000061,0.1000061,0.1000061,0,0,0,1,2
124.438,0.001043,0.06054688,0.04296875,-0.02148438,-0.7421875,-2.71875,9.53125,0.04296875,0.01757812,-0.005859375,0,0,0,-0.03442383,0.001953125,-0.04528809,0,0,-0.0008544922,0,4.073,0,0,0,0,nan,2,0.037,1,0,0.1000061,0.1000061,0.1000061,0.1000061,0,0,0,1,2
124.448,0.001011,0.03320312,0.05273438,-0.0078125,-0.1171875,3.851562,12.32812,0.03710938,0.03125,0,0,0,0,-0.03393555,0.002319336,-0.04528809,0,0,-0.0008544922,0,4.073,0,0,0,0,nan,2,0.047,1,0,0.1000061,0.1000061,0.1000061,0.1000061,0,0,0,1,2
124.458,0.001011,0.1074219,-0.009765625,-0.00390625,-1.539062,-1.289062,13.14062,0.0703125,0.01367188,-0.005859375,0,0,0,-0.03320312,0.002563477,-0.04528809,0,0,-0.0008544922,0,4.073,0,0,0,0,nan,2,0.058,1,0,0.1000061,0.1000061,0.1000061,0.1000061,0,0,0,1,2
124.468,0.001014,0.046875,0.0390625,-0.01367188,-0.2890625,-0.8203125,10.10938,0.05664062,0.01171875,-0.015625,0,0,0,-0.03271484,0.002563477,-0.04541016,0,0,-0.0008544922,0,4.073,0,0,0,0,nan,2,0.068,1,0,0.1000061,0.1000061,0.1000061,0.1000061,0,0,0,1,2
124.477,0.00101,0.02148438,-0.03125,-0.01171875,-1.65625,-4.023438,10.16406,0.02929688,-0.01367188,-0.00390625,0,0,0,-0.03210449,0.002563477,-0.04541016,0,0,-0.0008544922,0,4.075,0,0,0,0,nan,2,0.077,1,0,0.1000061,0.1000061,0.1000061,0.1000061,0,0,0,1,2
124.487,0.001007,-0.046875,0.001953125,-0.001953125,-1.34375,0.5546875,8.648438,-0.00390625,-0.02148438,-0.001953125,0,0,0,-0.03173828,0.002319336,-0.04553223,0,0,-0.0008544922,0,4.075,0,0,0,0,nan,2,0.087,1,0,0.1000061,0.1000061,0.1000061,0.1000061,0,0,0,1,2
124.497,0.00101,-0.00390625,-0.02148438,0.03125,0.359375,3.640625,12.33594,-0.03125,-0.02734375,0.01953125,0,0,0,-0.03198242,0.002075195,-0.04541016,0,0,-0.0008544922,0,4.075,0,0,0,0,nan,2,0.097,1,0,0.1000061,0.1000061,0.1000061,0.1000061,0,0,0,1,2
124.508,0.001013,-0.00390625,0.03320312,0.03710938,-1.382812,0.7421875,15.59375,-0.02734375,-0.00390625,0.03710938,0,0,0,-0.0324707,0.001953125,-0.04504395,0,0,-0.0008544922,0,4.075,0,0,0,0,nan,2,0.107,1,0,0.1000061,0.1000061,0.1000061,0.1000061,0,0,0,1,2
124.518,0.001006,0.05664062,0.02539062,0.01953125,-0.7265625,0.4375,13.78125,0.0234375,0.02929688,0.015625,0,0,0,-0.03234863,0.002075195,-0.0447998,0,0,-0.0008544922,0,4.075,0,0,0,0,nan,2,0.117,1,0,0.1000061,0.1000061,0.1000061,0.1000061,0,0,0,1,2
124.528,0.001013,0.07421875,-0.0390625,0,0.1171875,1.132812,6.742188,0.05664062,-0.01953125,0.01367188,0,0,0,-0.03198242,0.002075195,-0.04467773,0,0,-0.0008544922,0,4.075,0,0,0,0,nan,2,0.127,1,0,0.1000061,0.1000061,0.1000061,0.1000061,0,0,0,1,2
124.538,0.00101,-0.078125,0.04882812,0.02539062,1.0625,1.890625,8.882812,-0.03320312,-0.001953125,0.03125,0,0,0,-0.03198242,0.001953125,-0.04443359,0,0,-0.0008544922,0,4.075,0,0,0,0,nan,2,0.137,1,0,0.1000061,0.1000061,0.1000061,0.1000061,0,0,0,1,2
124.548,0.00101,0.05664062,-0.001953125,-0.001953125,0.5625,-1.695312,15.30469,0.03320312,-0.00390625,0.005859375,0,0,0,-0.03198242,0.001953125,-0.04431152,0,0,-0.0008544922,0,4.075,0,0,0,0,nan,2,0.147,1,0,0.1000061,0.1000061,0.1000061,0.1000061,0,0,0,1,2
124.558,0.001013,-0.06054688,0.01757812,-0.001953125,1.140625,1.328125,8.34375,-0.005859375,-0.0078125,0.001953125,0,0,0,-0.03186035,0.001953125,-0.04418945,0,0,-0.0008544922,0,4.075,0,0,0,0,nan,2,0.158,1,0,0.1000061,0.1000061,0.1000061,0.1000061,0,0,0,1,2
124.568,0.00101,0.01367188,0.04882812,0,-0.6953125,1.875,12.98438,-0.009765625,0.0234375,0.015625,0,0,0,-0.03222656,0.001831055,-0.04406738,0,0,-0.0008544922,0,4.075,0,0,0,0,nan,2,0.168,1,0,0.1000061,0.1000061,0.1000061,0.1000061,0,0,0,1,2
124.578,0.00101,-0.015625,-0.01757812,0.0078125,0.234375,0.2734375,15.03125,-0.001953125,-0.01171875,-0.00390625,0,0,0,-0.03210449,0.001831055,-0.04406738,0,0,-0.0008544922,0,4.075,0,0,0,0,nan,2,0.178,1,0,0.1000061,0.1000061,0.1000061,0.1000061,0,0,0,1,2
124.587,0.001007,0.005859375,0.04492188,-0.015625,-2.890625,-3.414062,9.929688,-0.0078125,0.01367188,0.005859375,0,0,0,-0.03234863,0.001831055,-0.04394531,0,0,-0.0008544922,0,4.075,0,0,0,0,nan,2,0.187,1,0,0.1000061,0.1000061,0.1000061,0.1000061,0,0,0,1,2
124.598,0.000993,-0.08203125,-0.02734375,-0.001953125,-0.4296875,-2.023438,13.73438,-0.01171875,0,0,0,0,0,-0.0324707,0.001953125,-0.04406738,0,0,-0.0008544922,0,4.075,0,0,0,0,nan,2,0.197,1,0,0.1000061,0.1000061,0.1000061,0.1000061,0,0,0,1,2
124.608,0.001017,0.01757812,0.03710938,-0.001953125,1.757812,-0.1015625,11.34375,-0.01953125,0.009765625,-0.00390625,0,0,0,-0.03259277,0.001831055,-0.04406738,0,0,-0.0008544922,0,4.075,0,0,0,0,nan,2,0.001,1,0,0.1000061,0.1000061,0.1000061,0.1000061,0,0,0,1,2
124.618,0.001006,0.046875,-0.02539062,-0.03320312,0.21875,-0.171875,11.26562,0.03125,-0.001953125,-0.02148438,0,0,0,-0.03234863,0.001953125,-0.04406738,0,0,-0.0008544922,0,4.075,0,0,0,0,nan,2,0.011,1,0,0.1000061,0.1000061,0.1000061,0.1000061,0,0,0,1,2
124.628,0.001002,-0.03515625,0,-0.005859375,-1.695312,-2.382812,15.89062,-0.01953125,-0.0078125,0.00390625,0,0,0,-0.03283691,0.001953125,-0.04418945,0,0,-0.0008544922,0,4.075,0,0,0,0,nan,2,0.021,1,0,0.1000061,0.1000061,0.1000061,0.1000061,0,0,0,1,2
124.638,0.000998,-0.02148438,0.0078125,-0.03125,2.328125,-0.7109375,10.98438,0.03125,0.015625,-0.02539062,0.1972656,-0.01171875,0,-0.03271484,0.002075195,-0.04431152,0,0,-0.0008544922,0.1421204,4.075,0,0,0,0.09997559,nan,2,0.007,1,0,0.1172485,0.1620178,0.1072998,0.1818542,0,0,0,1,2
124.648,0.000963,0.015625,0.00390625,-0.01367188,3.429688,0.2421875,12.82031,0.015625,0.01757812,-0.01953125,0.1953125,-0.01367188,0,-0.03271484,0.002197266,-0.04455566,0,0,-0.0008544922,0.1421204,4.075,0,0,0,0.09997559,nan,2,0.017,1,0,0.1482849,0.1326599,0.1295471,0.1579285,0,0,0,1,2
124.658,0.001012,-0.0703125,-0.015625,-0.0390625,2.585938,5.835938,9.921875,-0.01171875,-0.01171875,-0.02929688,0.1953125,-0.01367188,0,-0.0324707,0.002197266,-0.0447998,0,0,-0.0008544922,0.1421204,4.075,0,0,0,0.09997559,nan,2,0.027,1,0,0.1421204,0.1481018,0.1017151,0.1764832,0.0009765625,0,0,1,2
124.668,0.001008,0.01367188,-0.0625,-0.04101562,1.101562,2.664062,5.03125,0.001953125,-0.02929688,-0.03515625,0.1953125,-0.01171875,0,-0.03259277,0.002075195,-0.04516602,0,0,-0.0008544922,0.1421204,4.075,0,0,0,0.09997559,nan,2,0.037,1,0,0.1404724,0.1526184,0.1050415,0.1702576,0.0009765625,0,0,1,2
124.677,0.001012,0,-0.0390625,-0.06054688,-0.1484375,1.945312,13.5625,0.009765625,-0.015625,-0.05078125,0.1953125,-0.01171875,0,-0.03234863,0.001831055,-0.04553223,0,0,-0.0008544922,0.1421204,4.075,0,0,0,0.09997559,nan,2,0.046,1,0,0.1178589,0.1646729,0.09887695,0.1869812,0.0009765625,0,0,1,2
124.687,0.000984,-0.01367188,-0.04296875,-0.05664062,-1.320312,2.445312,6.234375,-0.01171875,-0.02148438,-0.06445312,0.1953125,-0.009765625,0,-0.03234863,0.001708984,-0.04614258,0,0,-0.0008544922,0.1421204,4.075,0,0,0,0.09997559,nan,2,0.057,1,0,0.1360474,0.1543884,0.0975647,0.1804199,0.0009765625,0,0,1,2
124.697,0.001012,0.0625,-0.0078125,-0.0546875,3.453125,-0.1328125,7.15625,0.009765625,-0.001953125,-0.05664062,0.1953125,-0.009765625,0,-0.0324707,0.001708984,-0.04675293,0,0,-0.0008544922,0.1421204,4.075,0,0,0,0.09997559,nan,2,0.067,1,0,0.1406555,0.1434021,0.1213074,0.1630554,0.0009765625,0,0,1,2
124.708,0.001009,-0.046875,-0.04296875,0.001953125,-3.023438,-1.789062,10.05469,-0.02148438,-0.01757812,-0.01367188,0.1953125,-0.009765625,0,-0.03259277,0.001586914,-0.04711914,0,0,-0.0008544922,0.1421204,4.075,0,0,0,0.09997559,nan,2,0.077,1,0,0.2077332,0.08331299,0.1664734,0.1109009,0.001953125,0,0,1,2
124.718,0.001012,0.078125,0.01367188,-0.005859375,1.5,0.359375,15.28906,0.03515625,-0.01367188,0.00390625,0.1972656,-0.009765625,0,-0.03283691,0.001708984,-0.04711914,0,0,-0.0008544922,0.1421204,4.075,0,0,0,0.09997559,nan,2,0.087,1,0,0.160614,0.12677,0.1553345,0.1256714,0.001953125,0,0,1,2
124.728,0.001012,-0.05664062,0.01367188,0.02929688,-0.3125,-4.546875,3.492188,-0.01367188,0.009765625,0.01953125,0.1953125,-0.009765625,0,-0.03259277,0.001708984,-0.04699707,0,0,-0.0008544922,0.1421204,4.075,0,0,0,0.09997559,nan,2,0.097,1,0,0.1741028,0.1022949,0.1456604,0.1463623,0.001953125,0,0,1,2
124.738,0.001021,-0.06445312,0.01757812,0.05078125,-0.7109375,-0.078125,6.101562,-0.015625,0.005859375,0.03710938,0.1953125,-0.009765625,0,-0.03259277,0.001708984,-0.04675293,0,0,-0.0008544922,0.1421204,4.075,0,0,0,0.09997559,nan,2,0.107,1,0,0.1887817,0.09039307,0.1569824,0.1322937,0.001953125,0,0,1,2
124.748,0.001014,0.09179688,-0.0390625,0.04101562,1.773438,0.7421875,4.195312,0.04492188,-0.02539062,0.02929688,0.1953125,-0.009765625,0,-0.03259277,0.001586914,-0.04638672,0,0,-0.0008544922,0.1421204,4.075,0,0,0,0.09997559,nan,2,0.117,1,0,0.1596985,0.1332397,0.1430054,0.1324768,0.001953125,0,0,1,2
124.758,0.001012,-0.03710938,-0.0078125,0.06054688,-0.78125,-0.78125,3.4375,-0.001953125,0.01757812,0.04882812,0.1953125,-0.009765625,0,-0.0324707,0.001586914,-0.04602051,0,0,-0.0008544922,0.1421204,4.075,0,0,0,0.09997559,nan,2,0.127,1,0,0.180603,0.09063721,0.1581421,0.1390076,0.002929688,0,0,1,2
124.768,0.001012,0.09375,-0.03710938,0.04296875,-2.140625,-7,6.53125,0.05273438,-0.04492188,0.04492188,0.1953125,-0.0078125,0,-0.03259277,0.001220703,-0.04541016,0,0,-0.0008544922,0.1421204,4.075,0,0,0,0.09997559,nan,2,0.137,1,0,0.1594238,0.1333923,0.13797,0.1376343,0.002929688,0,0,1,2
124.777,0.001019,-0.0546875,-0.00390625,0.0546875,1.796875,-0.40625,8.507812,0.01953125,-0.02929688,0.06445312,0.1914062,-0.005859375,0,-0.03198242,0.0008544922,-0.04492188,0,0,-0.0008544922,0.1421204,4.075,0,0,0,0.09997559,nan,2,0.146,1,0,0.1963501,0.08624268,0.1578369,0.1279602,0.002929688,0,0,1,2
124.788,0.001023,-0.001953125,0.001953125,0.0703125,0.3359375,-1.242188,-2.703125,-0.00390625,0.01953125,0.05273438,0.1933594,-0.005859375,0,-0.03222656,0.001098633,-0.04443359,0,0,-0.0008544922,0.1842041,4.075,0,0,0,0.1500244,nan,2,0.007,1,0,0.2148438,0.1512146,0.1908264,0.1799622,0.002929688,0,0,1,2
124.798,0.001025,0.009765625,0.01953125,0.09765625,1,-3.734375,9.476562,0.015625,0.01171875,0.078125,0.1933594,-0.005859375,0,-0.03210449,0.0009765625,-0.04370117,0,0,-0.0008544922,0.1842041,4.075,0,0,0,0.1500244,nan,2,0.017,1,0,0.2358093,0.1262817,0.2210999,0.153656,0.002929688,0,0,1,2
124.808,0.001007,0.0078125,0.0390625,0.07226562,-0.5078125,-7.859375,12.03906,0.0078125,-0.01171875,0.0859375,0.1914062,-0.005859375,0,-0.03198242,0.0009765625,-0.04284668,0,0,-0.0008544922,0.1842041,4.075,0,0,0,0.1500244,nan,2,0.027,1,0,0.2287598,0.1391602,0.1982117,0.1707153,0.002929688,0,0,1,2
124.818,0.001,0.005859375,0.001953125,0.09570312,-2.507812,4.617188,13.53125,0.00390625,0.02539062,0.06835938,0.1914062,-0.005859375,0,-0.03198242,0.0009765625,-0.0423584,0,0,-0.0008544922,0,4.075,0,0,0,0,nan,2,0.008,1,0,0.1000061,0.1000061,0.1000061,0.1000061,0,0,0,1,2
124.828,0.000978,-0.0546875,-0.04492188,0.02539062,3.6875,4.664062,10.92188,-0.04296875,-0.01171875,0.0390625,0.1914062,-0.005859375,0,-0.03210449,0.0009765625,-0.04162598,0,0,-0.0008544922,0,4.075,0,0,0,0,nan,2,0.018,1,0,0.1000061,0.1000061,0.1000061,0.1000061,0,0,0,1,2
124.838,0.001009,-0.1308594,0.1914062,0.05859375,-1.5625,0.65625,6.8125,-0.046875,0.05664062,0.06445312,0.1914062,-0.005859375,0,-0.03271484,0.001220703,-0.04101562,0,0,-0.0008544922,0,4.075,0,0,0,0,nan,2,0.028,1,0,0.1000061,0.1000061,0.1000061,0.1000061,0,0,0,1,2
124.848,0.000961,0.0703125,-0.0390625,0.0625,1.359375,2.203125,13.71875,0.009765625,0.01953125,0.06640625,0.1914062,-0.005859375,0,-0.0333252,0.001586914,-0.04040527,0,0,-0.0008544922,0,4.075,0,0,0,0,nan,2,0.038,1,0,0.1000061,0.1000061,0.1000061,0.1000061,0,0,0,1,2
124.858,0.001009,-0.009765625,0.01757812,0.04492188,-3.664062,-0.984375,15.73438,0.01953125,-0.009765625,0.0703125,0.1914062,-0.005859375,0,-0.03308105,0.001220703,-0.03955078,0,0,-0.0008544922,0,4.075,0,0,0,0,nan,2,0.048,1,0,0.1000061,0.1000061,0.1000061,0.1000061,0,0,0,1,2
124.868,0.001009,-0.01171875,-0.001953125,0.078125,0.15625,0.2421875,4.03125,-0.01757812,-0.00390625,0.07226562,0.1914062,-0.005859375,0,-0.03320312,0.001098633,-0.03894043,0,0,-0.0008544922,0,4.075,0,0,0,0,nan,2,0.059,1,0,0.1000061,0.1000061,0.1000061,0.1000061,0,0,0,1,2
124.878,0.001007,0.0703125,0.001953125,0.0390625,2.648438,-5.898438,2.78125,0.05078125,0.005859375,0.05664062,0.1914062,-0.005859375,0,-0.03308105,0.001098633,-0.03808594,0,0,-0.0008544922,0,4.075,0,0,0,0,nan,2,0.069,1,0,0.1000061,0.1000061,0.1000061,0.1000061,0,0,0,1,2
124.887,0.000979,-0.03320312,0.01171875,0.06054688,1.398438,-3.023438,9.398438,-0.009765625,0.02148438,0.06445312,0.1972656,-0.0078125,0,-0.03283691,0.001220703,-0.03759766,0,0,-0.0008544922,0.2263184,4.075,0,0,0,0.2000122,nan,2,0.007,1,0,0.274292,0.1737671,0.2424622,0.2147522,0,0,0,1,2
124.898,0.001003,-0.046875,-0.005859375,0.07617188,-0.53125,-2.570312,3.398438,-0.02734375,-0.005859375,0.06835938,0.1972656,-0.0078125,0,-0.03283691,0.001342773,-0.0369873,0,0,-0.0008544922,0.2263184,4.075,0,0,0,0.2000122,nan,2,0.017,1,0,0.2876587,0.1682434,0.2447815,0.2045898,0,0,0,1,2
124.908,0.001011,-0.02539062,0.009765625,0.09179688,1.8125,-2.21875,10.78906,-0.015625,0.009765625,0.07421875,0.1992188,-0.0078125,0,-0.03320312,0.001342773,-0.03637695,0,0,-0.0008544922,0.2263184,4.075,0,0,0,0.2000122,nan,2,0.027,1,0,0.2770691,0.1705322,0.2522583,0.2054138,0.0009765625,0,0,1,2
124.918,0.001006,-0.1074219,0.02148438,0.0078125,1.960938,3.09375,8.984375,-0.0625,0.03710938,0.05664062,0.203125,-0.0078125,0,-0.03381348,0.001342773,-0.03564453,0,0,-0.0008544922,0.2263184,4.075,0,0,0,0.2000122,nan,2,0.037,1,0,0.2239685,0.2162476,0.190155,0.2748718,0.0009765625,0,0,1,2
124.928,0.001009,-0.04101562,-0.0546875,0.02929688,-1.914062,-0.1015625,9.210938,-0.005859375,-0.02148438,0.04492188,0.2050781,-0.0078125,0,-0.03417969,0.001342773,-0.03515625,0,0,-0.0008544922,0.2263184,4.075,0,0,0,0.2000122,nan,2,0.047,1,0,0.2444458,0.2191772,0.2062073,0.2354431,0.0009765625,0,0,1,2
124.938,0.001008,-0.04101562,0.01171875,0.07617188,0.1796875,-4.0625,-1.429688,0.005859375,-0.01171875,0.08789062,0.2050781,-0.0078125,0,-0.03417969,0.001342773,-0.03442383,0,0,-0.0008544922,0.2263184,4.075,0,0,0,0.2000122,nan,2,0.058,1,0,0.3045044,0.1505127,0.273407,0.1768494,0.0009765625,0,0,1,2
124.948,0.001008,0.1640625,0.00390625,0.1074219,-0.0546875,5.851562,8.0625,0.06835938,-0.009765625,0.1015625,0.2050781,-0.0078125,0,-0.03405762,0.001220703,-0.03356934,0,0,-0.0008544922,0.2263184,4.075,0,0,0,0.2000122,nan,2,0.068,1,0,0.2796021,0.1724548,0.2808838,0.1723022,0.0009765625,0,0,1,2
124.958,0.000995,0.05859375,-0.03710938,0.203125,0.09375,-1.367188,13.49219,0.02734375,0.01757812,0.1484375,0.2011719,-0.0078125,0,-0.03369141,0.001220703,-0.0324707,0,0,-0.0008544922,0.2263184,4.075,0,0,0,0.2000122,nan,2,0.078,1,0,0.3573608,0.08868408,0.3438721,0.1153564,0.001953125,0,0,1,2
124.968,0.001012,-0.03320312,-0.02539062,0.1894531,-2.765625,-1.40625,4.734375,0.02929688,-0.03125,0.2050781,0.2011719,-0.005859375,0,-0.03369141,0.001098633,-0.03039551,0,0,-0.0008544922,0.2263184,4.075,0,0,0,0.2000122,nan,2,0.088,1,0,0.3214722,0.1440125,0.2834473,0.1563416,0.001953125,0,0,1,2
124.977,0.001012,-0.04101562,0.01367188,0.2285156,-0.5390625,6.945312,12.24219,-0.0234375,0.001953125,0.2148438,0.2011719,-0.0078125,0,-0.03369141,0.001220703,-0.02844238,0,0,-0.0008544922,0.2263184,4.075,0,0,0,0.2000122,nan,2,0.097,1,0,0.3227234,0.1237488,0.2891541,0.1696472,0.001953125,0,0,1,2
124.988,0.00104,-0.1035156,-0.1074219,0.2128906,3.132812,-2.539062,2.203125,-0.03710938,-0.01953125,0.2109375,0.2011719,-0.0078125,0,-0.03369141,0.001342773,-0.02636719,0,0,-0.0008544922,0.2263184,4.075,0,0,0,0.2000122,nan,2,0.007,1,0,0.3129578,0.1540222,0.2521362,0.1861267,0.001953125,0,0,1,2
124.998,0.000993,-0.0234375,0.04882812,0.1484375,-1.492188,2.304688,16.64844,-0.01171875,0.00390625,0.1542969,0.203125,-0.009765625,0,-0.03393555,0.001464844,-0.02453613,0,0,-0.0008544922,0.2263184,4.075,0,0,0,0.2000122,nan,2,0.017,1,0,0.2312622,0.2192688,0.2087097,0.2460327,0.001953125,0,0,1,2
125.008,0.001003,0.0703125,0.02539062,0.1503906,-0.8203125,-3.429688,6.234375,0.04296875,0.015625,0.1679688,0.2011719,-0.009765625,0,-0.03369141,0.001586914,-0.02282715,0,0,-0.0008544922,0.2263184,4.075,0,0,0,0.2000122,nan,2,0.027,1,0,0.2817383,0.159668,0.2826538,0.1812134,0.002929688,0,0,1,2
125.018,0.001007,0.02539062,0.09960938,0.2285156,2.5625,7.359375,13.96875,-0.01171875,0.005859375,0.203125,0.2011719,-0.009765625,0,-0.03381348,0.001586914,-0.02099609,0,0,-0.0008544922,0,4.075,0,0,0,0,nan,2,0.008,1,0,0.1000061,0.1000061,0.1000061,0.1000061,0,0,0,1,2
125.028,0.001014,0.00390625,-0.1132812,0.2597656,2.601562,0.2421875,9.140625,-0.01953125,-0.01757812,0.2460938,0.2011719,-0.009765625,0,-0.03405762,0.001708984,-0.01855469,0,0,-0.0008544922,0,4.075,0,0,0,0,nan,2,0.018,1,0,0.1000061,0.1000061,0.1000061,0.1000061,0,0,0,1,2
125.038,0.00101,0.03515625,0.1386719,0.2578125,1.625,-2.757812,16.33594,0.01953125,0.005859375,0.2441406,0.2011719,-0.009765625,0,-0.03344727,0.001708984,-0.01611328,0,0,-0.0008544922,0,4.075,0,0,0,0,nan,2,0.028,1,0,0.1000061,0.1000061,0.1000061,0.1000061,0,0,0,1,2
125.048,0.00101,0.05078125,-0.08789062,0.1835938,-0.8515625,-3.851562,12.60938,0.001953125,-0.03515625,0.1953125,0.2011719,-0.009765625,0,-0.03320312,0.001831055,-0.01379395,0,0,-0.0008544922,0,4.075,0,0,0,0,nan,2,0.038,1,0,0.1000061,0.1000061,0.1000061,0.1000061,0,0,0,1,2
125.058,0.000994,-0.03515625,0.15625,0.05859375,-1.695312,-7.96875,2.164062,0.001953125,0.02734375,0.109375,0.2011719,-0.009765625,0,-0.0333252,0.001708984,-0.01220703,0,0,-0.0008544922,0,4.075,0,0,0,0,nan,2,0.048,1,0,0.1000061,0.1000061,0.1000061,0.1000061,0,0,0,1,2
125.067,0.000991,-0.04492188,-0.09765625,0.2109375,-1.914062,2.382812,14.84375,-0.03320312,-0.001953125,0.140625,0.2011719,-0.009765625,0,-0.03344727,0.001708984,-0.01123047,0,0,-0.0008544922,0.2263184,4.075,0,0,0,0.2000122,nan,2,0.005,1,0,0.3517761,0.0965271,0.326416,0.1305542,0,0,0,1,2
125.077,0.000989,0.02734375,0.140625,0.203125,-0.578125,-1.289062,10.15625,0.01757812,0.01953125,0.1953125,0.2011719,-0.009765625,0,-0.03344727,0.001708984,-0.009521484,0,0,-0.0008544922,0.2263184,4.075,0,0,0,0.2000122,nan,2,0.015,1,0,0.3408813,0.09509277,0.3462524,0.1230164,0,0,0,1,2
125.087,0.000984,-0.02929688,-0.1738281,0.1835938,3.046875,-1.695312,6.570312,-0.02929688,-0.015625,0.1777344,0.2050781,-0.009765625,0,-0.03405762,0.001708984,-0.00769043,0,0,-0.0008544922,0.2263184,4.075,0,0,0,0.2000122,nan,2,0.025,1,0,0.2989197,0.1636353,0.2589111,0.1838074,0.0009765625,0,0,1,2
125.098,0.001033,-0.0234375,0.08203125,0.3125,0.453125,-1.671875,7.5,-0.01757812,0.001953125,0.2421875,0.2050781,-0.009765625,0,-0.03417969,0.001586914,-0.005737305,0,0,-0.0008544922,0.2263184,4.075,0,0,0,0.2000122,nan,2,0.035,1,0,0.3982544,0.04730225,0.3775024,0.08218384,0.0009765625,0,0,1,2
125.108,0.000993,-0.03320312,0.02734375,0.2675781,-1.617188,5.828125,12.27344,-0.02734375,-0.0078125,0.2871094,0.2070312,-0.009765625,0,-0.0345459,0.001586914,-0.002807617,0,0,-0.0008544922,0.2263184,4.075,0,0,0,0.2000122,nan,2,0.045,1,0,0.345459,0.1021729,0.3149414,0.1427002,0.0009765625,0,0,1,2
125.118,0.000989,-0.07226562,-0.04492188,0.2695312,-1.710938,-3.328125,12.5625,-0.0078125,0.01171875,0.2480469,0.2070312,-0.009765625,0,-0.03466797,0.001586914,-0.0002441406,0,0,-0.0008544922,0.2263184,4.075,0,0,0,0.2000122,nan,2,0.003,1,0,0.2940369,0.1506653,0.2710571,0.1894836,0.0009765625,0,0,1,2
125.128,0.001009,-0.125,0.09570312,0.2421875,1.992188,-1.757812,10.28125,-0.03320312,0.015625,0.2539062,0.2070312,-0.0078125,0,-0.0345459,0.001464844,0.002441406,0,0,-0.0008544922,0.2263184,4.046,0,0,0,0.2000122,nan,2,0.013,1,0,0.3111877,0.1254578,0.280426,0.1882324,0.0009765625,0,0,1,2
125.138,0.001009,-0.05078125,-0.0859375,0.2519531,-4.171875,0.4921875,14.42969,-0.02929688,-0.005859375,0.2324219,0.2089844,-0.009765625,0,-0.03491211,0.001708984,0.004638672,0,0,-0.0008544922,0.2263184,4.046,0,0,0,0.2000122,nan,2,0.023,1,0,0.3281555,0.1315308,0.2816162,0.1639709,0.001953125,0,0,1,2
125.148,0.000976,0,0.015625,0.1699219,2.234375,-7.046875,9.203125,-0.01367188,0.02734375,0.1816406,0.2109375,-0.009765625,0,-0.03503418,0.001831055,0.006713867,0,0,-0.0008544922,0.2263184,4.046,0,0,0,0.2000122,nan,2,0.033,1,0,0.2406921,0.1968994,0.2268982,0.2407837,0.001953125,0,0,1,2
125.158,0.001009,0.06445312,-0.04882812,0.1738281,-1.601562,4.898438,21.82031,0.0390625,-0.01757812,0.1816406,0.2109375,-0.009765625,0,-0.03527832,0.001464844,0.008544922,0,0,-0.0008544922,0.2263184,4.046,0,0,0,0.2000122,nan,2,0.043,1,0,0.2858887,0.1747131,0.2702332,0.1744385,0.001953125,0,0,1,2
125.168,0.001011,0.04492188,-0.01367188,0.078125,2.039062,-2.726562,4.671875,-0.03125,0.005859375,0.109375,0.2128906,-0.009765625,0,-0.03540039,0.001586914,0.01000977,0,0,-0.0008544922,0.2263184,4.046,0,0,0,0.2000122,nan,2,0.054,1,0,0.2084045,0.2416382,0.1729126,0.2823181,0.001953125,0,0,1,2
125.177,0.001008,0.01171875,0.1074219,0.078125,-2.273438,2.25,15.39844,-0.005859375,0.01367188,0.08398438,0.2128906,-0.009765625,0,-0.03552246,0.001708984,0.01086426,0,0,-0.0008544922,0.2263184,4.046,0,0,0,0.2000122,nan,2,0.063,1,0,0.2279053,0.2197876,0.2052917,0.2522888,0.002929688,0,0,1,2
125.187,0.001009,-0.00390625,-0.08984375,0.0546875,1.992188,-1.53125,3.46875,0.03320312,-0.01953125,0.06835938,0.2128906,-0.009765625,0,-0.03540039,0.001708984,0.01171875,0,0,-0.0008544922,0.2263184,4.046,0,0,0,0.2000122,nan,2,0.073,1,0,0.2330322,0.2277832,0.2023926,0.2420349,0.002929688,0,0,1,2
125.197,0.00101,0.1230469,-0.09960938,0.07617188,0.546875,-4.234375,10.17188,0.07226562,-0.015625,0.05664062,0.2109375,-0.009765625,0,-0.03527832,0.001586914,0.01220703,0,0,-0.0008544922,0.2263184,4.046,0,0,0,0.2000122,nan,2,0.083,1,0,0.2687988,0.1945496,0.2514343,0.1904907,0.002929688,0,0,1,2
125.208,0.001009,-0.05664062,0.09179688,0.01367188,-2.640625,5.15625,17.67969,0.01367188,0.05664062,0.04492188,0.2109375,-0.009765625,0,-0.03503418,0.001708984,0.01281738,0,0,-0.0008544922,0.2263184,4.046,0,0,0,0.2000122,nan,2,0.093,1,0,0.2127991,0.2114258,0.2019958,0.2790527,0.002929688,0,0,1,2
125.218,0.001016,-0.0234375,-0.06054688,0.07617188,-1.5625,0.1875,11.61719,-0.009765625,-0.02539062,0.046875,0.2109375,-0.009765625,0,-0.03503418,0.001708984,0.01330566,0,0,-0.0008544922,0.2263184,4.046,0,0,0,0.2000122,nan,2,0,1,0,0.2748108,0.1911926,0.2216797,0.2176208,0.002929688,0,0,1,2
125.228,0.001007,0.015625,0.1464844,0.04101562,4.226562,-3.328125,9.789062,0.01367188,0.02539062,0.06640625,0.2089844,-0.009765625,0,-0.03503418,0.001708984,0.01391602,0,0,-0.0008544922,0.2263184,4.046,0,0,0,0.2000122,nan,2,0.01,1,0,0.250061,0.1828308,0.2420044,0.2303467,0.00390625,0,0,1,2
125.238,0.001023,-0.07226562,-0.09960938,0.05273438,0.9453125,-6.75,2.03125,-0.04296875,-0.01367188,0.0546875,0.2109375,-0.01171875,0,-0.03515625,0.001831055,0.0144043,0,0,-0.0008544922,0.2263184,4.046,0,0,0,0.2000122,nan,2,0.02,1,0,0.2743835,0.1868591,0.2167053,0.2272949,0.00390625,0,0,1,2
125.248,0.000999,-0.05664062,0.0703125,0.1816406,-1.09375,-5.414062,5.429688,-0.04296875,0.03320312,0.1269531,0.2109375,-0.01171875,0,-0.03515625,0.001953125,0.01513672,0,0,-0.0008544922,0.2263184,4.046,0,0,0,0.2000122,nan,2,0.03,1,0,0.3869019,0.04763794,0.3546448,0.1160583,0.00390625,0,0,1,2
125.257,0.001301,-0.02148438,-0.1074219,0.1074219,0.109375,6.625,13.75,-0.015625,-0.0078125,0.08789062,0.2128906,-0.01367188,0,-0.03540039,0.002319336,0.01599121,0,0,-0.0008544922,0,4.046,0,0,0,0,nan,2,0.001,1,0,0.1000061,0.1000061,0.1000061,0.1000061,0,0,0,1,2
125.268,0.001009,0.02929688,0.08789062,0.1035156,-2.0625,8.34375,12.0625,0.02148438,0.01953125,0.1152344,0.2128906,-0.01367188,0,-0.03540039,0.002197266,0.01733398,0,0,-0.0008544922,0,4.046,0,0,0,0,nan,2,0.012,1,0,0.1000061,0.1000061,0.1000061,0.1000061,0,0,0,1,2
125.278,0.00101,0.009765625,-0.1367188,0.1191406,-0.2265625,3.007812,15.14062,-0.01953125,-0.08007812,0.1464844,0.2128906,-0.01367188,0,-0.03540039,0.002197266,0.01867676,0,0,-0.0008544922,0,4.046,0,0,0,0,nan,2,0.022,1,0,0.1000061,0.1000061,0.1000061,0.1000061,0,0,0,1,2
125.288,0.0009,0.0234375,0.09765625,0.125,-0.5,2.921875,14.92188,0.05859375,0.015625,0.1210938,0.2109375,-0.01367188,0,-0.03527832,0.002197266,0.01977539,0,0,-0.0008544922,0.2263184,4.046,0,0,0,0.2000122,nan,2,0.002,1,0,0.2659607,0.1689758,0.2705994,0.1997375,0,0,0,1,2
125.298,0.001033,0.01367188,-0.1113281,0.01367188,0.3828125,-7.046875,7.554688,-0.01757812,-0.009765625,0.046875,0.2109375,-0.01367188,0,-0.03527832,0.002197266,0.02062988,0,0,-0.0008544922,0.2263184,4.046,0,0,0,0.2000122,nan,2,0.012,1,0,0.1877441,0.2711487,0.1452026,0.3011475,0,0,0,1,2
125.308,0.001008,-0.140625,0.1367188,0.046875,-0.7890625,-3.851562,1.953125,-0.04296875,0.03125,0.07226562,0.2128906,-0.01171875,0,-0.03552246,0.001953125,0.0213623,0,0,-0.0008544922,0.2263184,4.046,0,0,0,0.2000122,nan,2,0.022,1,0,0.2531128,0.1684875,0.2424622,0.2412109,0.0009765625,0,0,1,2
125.318,0.000988,0.1132812,0.08789062,0.1015625,2.359375,7.820312,7.476562,0.01367188,-0.03710938,0.08789062,0.2148438,-0.009765625,0,-0.03588867,0.001831055,0.02209473,0,0,-0.0008544922,0.2263184,4.046,0,0,0,0.2000122,nan,2,0.032,1,0,0.2954407,0.1677551,0.2763367,0.1657715,0.0009765625,0,0,1,2
125.328,0.001009,-0.07421875,-0.2285156,0.01757812,-1.53125,3,18.79688,-0.01367188,-0.03320312,0.04296875,0.2148438,-0.01171875,0,-0.03588867,0.001831055,0.02270508,0,0,-0.0008544922,0.2263184,4.046,0,0,0,0.2000122,nan,2,0.042,1,0,0.2315674,0.2363586,0.179657,0.2576904,0.0009765625,0,0,1,2
125.338,0.001009,0.04101562,0.2773438,0.05273438,-1.757812,7.257812,20.44531,0,0.0390625,0.03320312,0.2148438,-0.009765625,0,-0.0357666,0.001708984,0.02294922,0,0,-0.0008544922,0.2263184,4.046,0,0,0,0.2000122,nan,2,0.053,1,0,0.240448,0.1858215,0.2363892,0.2425842,0.0009765625,0,0,1,2
125.348,0.001011,0.009765625,-0.1347656,0.01953125,-0.9296875,-9.90625,5.375,-0.001953125,-0.0234375,0.046875,0.2167969,-0.01171875,0,-0.03601074,0.002075195,0.02355957,0,0,-0.0008544922,0.2263184,4.046,0,0,0,0.2000122,nan,2,0.063,1,0,0.2514954,0.2261047,0.2026062,0.2250366,0.0009765625,0,0,1,2
125.358,0.001011,0.09570312,0.1816406,0.05664062,-2.40625,-5.5625,8.648438,0.03515625,0.0234375,0.05664062,0.2148438,-0.009765625,0,-0.03588867,0.001831055,0.02392578,0,0,-0.0008544922,0.2263184,4.046,0,0,0,0.2000122,nan,2,0.073,1,0,0.2645569,0.1704712,0.2700806,0.2001343,0.001953125,0,0,1,2
125.368,0.001014,0.07617188,-0.1171875,0.08007812,2.3125,-5.539062,15.30469,-0.00390625,-0.03710938,0.04882812,0.2148438,-0.01171875,0,-0.03588867,0.001831055,0.02429199,0,0,-0.0008544922,0.2263184,4.046,0,0,0,0.2000122,nan,2,0.083,1,0,0.2934265,0.178772,0.2449951,0.1880798,0.001953125,0,0,1,2
125.377,0.001025,0.08398438,0.02734375,0.09179688,0.953125,7.257812,15.40625,-0.01367188,-0.01757812,0.07226562,0.2148438,-0.009765625,0,-0.0357666,0.001708984,0.02490234,0,0,-0.0008544922,0.2263184,4.046,0,0,0,0.2000122,nan,2,0.006,1,0,0.2943115,0.163208,0.2563171,0.1914062,0.001953125,0,0,1,2
125.387,0.000971,-0.001953125,0.04492188,0.08398438,1.742188,1.265625,4.890625,0.001953125,0.04101562,0.078125,0.2128906,-0.01171875,0,-0.03564453,0.001831055,0.02563477,0,0,-0.0008544922,0.2263184,4.046,0,0,0,0.2000122,nan,2,0.016,1,0,0.256073,0.1750183,0.2473145,0.2268372,0.001953125,0,0,1,2
125.397,0.001015,-0.04882812,-0.05664062,0.06835938,-0.3828125,-6.382812,-0.3515625,-0.015625,-0.03320312,0.1054688,0.2128906,-0.01171875,0,-0.03564453,0.001831055,0.0267334,0,0,-0.0008544922,0.2263184,4.046,0,0,0,0.2000122,nan,2,0.026,1,0,0.2740784,0.1913147,0.2228394,0.2170105,0.002929688,0,0,1,2
125.408,0.000997,-0.01757812,0.01757812,0.1582031,-0.5625,2.601562,15.38281,0.005859375,-0.0078125,0.1152344,0.2148438,-0.01171875,0,-0.03564453,0.001831055,0.02770996,0,0,-0.0008544922,0.2263184,4.046,0,0,0,0.2000122,nan,2,0.036,1,0,0.3226929,0.1296082,0.2954712,0.1574707,0.002929688,0,0,1,2
125.418,0.001005,-0.05859375,-0.05078125,0.07226562,1.539062,7.335938,15.85938,0.02148438,-0.01953125,0.08789062,0.2128906,-0.009765625,0,-0.03540039,0.001831055,0.02868652,0,0,-0.0008544922,0.2263184,4.046,0,0,0,0.2000122,nan,2,0.004,1,0,0.2496033,0.2102966,0.212616,0.2327576,0.002929688,0,0,1,2
125.428,0.001002,0.1054688,0.005859375,0.05664062,0.2578125,-0.7265625,2.15625,0.015625,-0.02539062,0.05859375,0.2128906,-0.009765625,0,-0.03552246,0.001586914,0.02941895,0,0,-0.0008544922,0.2263184,4.046,0,0,0,0.2000122,nan,2,0.014,1,0,0.2241211,0.2314758,0.2029114,0.2467651,0.002929688,0,0,1,2
125.438,0.001011,-0.03320312,-0.06445312,0.04101562,-1.585938,-1.664062,10.36719,-0.03515625,-0.009765625,0.03515625,0.2128906,-0.0078125,0,-0.03540039,0.001464844,0.02990723,0,0,-0.0008544922,0.2263184,4.046,0,0,0,0.2000122,nan,2,0.024,1,0,0.2523499,0.1993103,0.2003784,0.2532349,0.002929688,0,0,1,2
125.448,0.001014,-0.03515625,0.04101562,0.02539062,-0.625,-1.546875,10.11719,0.01171875,-0.00390625,0.0390625,0.2109375,-0.0078125,0,-0.03527832,0.001342773,0.03039551,0,0,-0.0008544922,0.2263184,4.046,0,0,0,0.2000122,nan,2,0.034,1,0,0.2297058,0.2148743,0.2121277,0.2485352,0.00390625,0,0,1,2
125.458,0.001009,-0.2070312,-0.02929688,0.07421875,-0.34375,6.804688,14.36719,-0.02539062,0.0078125,0.1015625,0.2128906,-0.005859375,0,-0.03552246,0.001098633,0.03112793,0,0,-0.0008544922,0.2263184,4.046,0,0,0,0.2000122,nan,2,0.044,1,0,0.3196106,0.1203003,0.2826843,0.1826477,0.00390625,0,0,1,2
125.467,0.001015,0.1210938,-0.0390625,0.1464844,3.710938,2.46875,6.070312,-0.02539062,-0.02929688,0.1074219,0.2167969,-0.005859375,0,-0.03613281,0.0009765625,0.03186035,0,0,-0.0008544922,0.2263184,4.046,0,0,0,0.2000122,nan,2,0.054,1,0,0.3170471,0.1446228,0.2850647,0.1585388,0.00390625,0,0,1,2
125.477,0.001016,-0.1425781,-0.02148438,0.08984375,-2.484375,1.75,13.22656,-0.03515625,0.03515625,0.078125,0.2148438,-0.0078125,0,-0.03588867,0.001342773,0.03283691,0,0,-0.0008544922,0.2263184,4.046,0,0,0,0.2000122,nan,2,0.002,1,0,0.2514648,0.193634,0.2030334,0.2571106,0.00390625,0,0,1,2
125.487,0.001009,0.203125,-0.02539062,0.0390625,-1.179688,6.539062,15.33594,0.1054688,0.02148438,0.08007812,0.2148438,-0.009765625,0,-0.03564453,0.001464844,0.03381348,0,0,-0.0008544922,0.2263184,4.046,0,0,0,0.2000122,nan,2,0.012,1,0,0.2183228,0.2296753,0.2325134,0.224762,0.004882812,0,0,1,2
125.497,0.001001,-0.078125,0.02148438,0.1152344,2.757812,-0.7890625,2.890625,-0.0546875,-0.01367188,0.1132812,0.2109375,-0.009765625,0,-0.03527832,0.001708984,0.03466797,0,0,-0.0008544922,0.2263184,4.046,0,0,0,0.2000122,nan,2,0.022,1,0,0.3363953,0.1214294,0.2657471,0.1816711,0.004882812,0,0,1,2
125.508,0.000992,-0.06640625,0.015625,0.02539062,0.4296875,0.65625,15.58594,-0.06445312,0.04492188,0.04296875,0.2167969,-0.009765625,0,-0.03613281,0.001586914,0.03540039,0,0,-0.0008544922,0.2263184,4.046,0,0,0,0.2000122,nan,2,0.032,1,0,0.1937256,0.2316589,0.178009,0.3018494,0.004882812,0,0,1,2
125.518,0.001008,0.005859375,0.109375,0.0546875,-0.7578125,9.796875,11.08594,0,-0.02539062,0.06054688,0.2167969,-0.009765625,0,-0.03637695,0.001464844,0.03588867,0,0,-0.0008544922,0,4.046,0,0,0,0,nan,2,0.004,1,0,0.1000061,0.1000061,0.1000061,0.1000061,0,0,0,1,2
125.528,0.001001,0.005859375,-0.02148438,0.03320312,-0.234375,6.03125,10.64844,0.01757812,0.00390625,0.04882812,0.2167969,-0.009765625,0,-0.03601074,0.001708984,0.03649902,0,0,-0.0008544922,0,4.046,0,0,0,0,nan,2,0.014,1,0,0.1000061,0.1000061,0.1000061,0.1000061,0,0,0,1,2
125.538,0.001007,-0.0234375,0.1230469,0.046875,1.320312,2.71875,21.89062,-0.03515625,0.015625,0.04882812,0.2167969,-0.009765625,0,-0.03649902,0.001708984,0.03686523,0,0,-0.0008544922,0,4.046,0,0,0,0,nan,2,0.024,1,0,0.1000061,0.1000061,0.1000061,0.1000061,0,0,0,1,2
125.548,0.00101,-0.078125,-0.05078125,0.1035156,2.359375,-11.26562,3.109375,0.005859375,-0.03125,0.05859375,0.2167969,-0.009765625,0,-0.03613281,0.001708984,0.03723145,0,0,-0.0008544922,0,4.046,0,0,0,0,nan,2,0.034,1,0,0.1000061,0.1000061,0.1000061,0.1000061,0,0,0,1,2
125.558,0.001041,-0.04882812,0.1074219,0.04882812,-4.757812,4.539062,17.55469,-0.00390625,0.01171875,0.03125,0.2167969,-0.009765625,0,-0.03601074,0.001708984,0.03771973,0,0,-0.0008544922,0,4.046,0,0,0,0,nan,2,0.044,1,0,0.1000061,0.1000061,0.1000061,0.1000061,0,0,0,1,2
125.568,0.001009,0.1601562,0.015625,0.01757812,2.984375,2.523438,4.625,0.03710938,-0.0234375,0.02929688,0.2167969,-0.009765625,0,-0.03637695,0.001708984,0.03808594,0,0,-0.0008544922,0,4.046,0,0,0,0,nan,2,0.055,1,0,0.1000061,0.1000061,0.1000061,0.1000061,0,0,0,1,2
125.577,0.00098,-0.0859375,-0.0234375,0.02539062,0.1875,2.390625,20.82031,-0.005859375,0.03515625,0.015625,0.2167969,-0.01171875,0,-0.03625488,0.001953125,0.03820801,0,0,-0.0008544922,0.2263184,4.046,0,0,0,0.2000122,nan,2,0.005,1,0,0.2370605,0.2023926,0.2215881,0.2442017,0,0,0,1,2
125.587,0.001008,0.09570312,0.015625,-0.01757812,-0.34375,0.109375,7.320312,-0.00390625,-0.01757812,-0.001953125,0.21875,-0.01171875,0,-0.03637695,0.001831055,0.03833008,0,0,-0.0008544922,0.2263184,4.046,0,0,0,0.2000122,nan,2,0.015,1,0,0.2094727,0.2507629,0.1794739,0.265564,0,0,0,1,2
125.597,0.00101,-0.06054688,-0.015625,-0.03320312,-0.8984375,-3.796875,7.59375,-0.03710938,0.01757812,-0.01757812,0.2207031,-0.01171875,0,-0.03674316,0.001953125,0.03820801,0,0,-0.0008544922,0.2263184,4.046,0,0,0,0.2000122,nan,2,0.025,1,0,0.2224731,0.2244263,0.1827393,0.2756348,0.0009765625,0,0,1,2
125.608,0.00101,-0.01367188,-0.03515625,-0.01757812,0.1484375,8.234375,21.07031,-0.02148438,0.005859375,-0.03710938,0.2226562,-0.01171875,0,-0.0369873,0.001953125,0.0378418,0,0,-0.0008544922,0.2263184,4.046,0,0,0,0.2000122,nan,2,0.035,1,0,0.2261047,0.2255859,0.197876,0.2556763,0.0009765625,0,0,1,2
125.618,0.000993,0.01757812,0.00390625,-0.08007812,-0.0859375,-3.515625,6.960938,-0.0078125,0.01953125,-0.08398438,0.2246094,-0.01171875,0,-0.03735352,0.001953125,0.03710938,0,0,-0.0008544922,0.2263184,4.046,0,0,0,0.2000122,nan,2,0.045,1,0,0.1815186,0.2637939,0.170105,0.2898254,0.0009765625,0,0,1,2
125.628,0.000979,-0.1425781,-0.1386719,-0.08203125,-4.390625,5.179688,15.64844,0.00390625,0.001953125,-0.046875,0.2246094,-0.01367188,0,-0.03723145,0.002075195,0.03674316,0,0,-0.0008544922,0.2263184,4.046,0,0,0,0.2000122,nan,2,0.008,1,0,0.2213135,0.2373352,0.1842651,0.2623901,0.0009765625,0,0,1,2
125.638,0.00101,0.03515625,0.2167969,-0.06054688,-2.554688,-2.960938,13.46094,0.0234375,0.0234375,-0.05078125,0.2226562,-0.01367188,0,-0.03710938,0.002319336,0.03625488,0,0,-0.0008544922,0.2263184,4.046,0,0,0,0.2000122,nan,2,0.018,1,0,0.2025757,0.237854,0.1904602,0.2743835,0.001953125,0,0,1,2
125.648,0.001035,0.06054688,-0.1699219,0.02148438,0.265625,4.8125,17.55469,-0.005859375,-0.01367188,-0.0234375,0.2226562,-0.015625,0,-0.03710938,0.002563477,0.0357666,0,0,-0.0008544922,0.2263184,4.046,0,0,0,0.2000122,nan,2,0.028,1,0,0.2901917,0.177887,0.2434082,0.1937561,0.001953125,0,0,1,2
125.658,0.001017,0.01367188,0.1738281,0.03515625,0.2265625,0.9609375,14.92969,0.009765625,0.03125,0.00390625,0.2226562,-0.015625,0,-0.03710938,0.002441406,0.03552246,0,0,-0.0008544922,0.2263184,4.046,0,0,0,0.2000122,nan,2,0.038,1,0,0.2805481,0.1506348,0.280426,0.193634,0.001953125,0,0,1,2
125.668,0.000984,-0.03710938,-0.1152344,-0.08398438,1.3125,-4.195312,5.40625,-0.02148438,-0.02148438,-0.04296875,0.2226562,-0.015625,0,-0.03723145,0.002441406,0.03540039,0,0,-0.0008544922,0.2263184,4.046,0,0,0,0.2000122,nan,2,0.048,1,0,0.184021,0.2832947,0.12677,0.3111572,0.001953125,0,0,1,2
125.678,0.00101,0.046875,0.1367188,-0.01757812,0.0390625,1.03125,8.101562,0.01953125,0.03515625,-0.02539062,0.2246094,-0.01367188,0,-0.03735352,0.002441406,0.03503418,0,0,-0.0008544922,0.2263184,4.046,0,0,0,0.2000122,nan,2,0.059,1,0,0.236908,0.1915894,0.2398682,0.236908,0.002929688,0,0,1,2
125.687,0.001012,-0.1347656,-0.2519531,-0.01171875,1.375,-4.359375,6.101562,-0.04296875,-0.01367188,-0.01171875,0.2246094,-0.015625,0,-0.03735352,0.002441406,0.03491211,0,0,-0.0008544922,0.2263184,4.046,0,0,0,0.2000122,nan,2,0.068,1,0,0.2683716,0.1956787,0.2037659,0.2374573,0.002929688,0,0,1,2
125.697,0.001012,-0.08984375,0.2675781,-0.0859375,1.296875,-11.125,4.867188,-0.01757812,0.0078125,-0.04492188,0.2246094,-0.015625,0,-0.03759766,0.002563477,0.03466797,0,0,-0.0008544922,0.2263184,4.046,0,0,0,0.2000122,nan,2,0.078,1,0,0.1831055,0.2583923,0.1554565,0.3082886,0.002929688,0,0,1,2
125.708,0.001012,-0.04296875,0.05664062,-0.005859375,0.3359375,0.828125,5.21875,-0.0234375,0.05664062,-0.03710938,0.2265625,-0.01757812,0,-0.03771973,0.002807617,0.03417969,0,0,-0.0008544922,0.2263184,4.046,0,0,0,0.2000122,nan,2,0.088,1,0,0.2423096,0.1861572,0.224884,0.2518921,0.002929688,0,0,1,2
125.718,0.001016,0,-0.09179688,0.0234375,3.398438,3.671875,8.375,-0.02929688,-0.005859375,0.001953125,0.2285156,-0.01757812,0,-0.03796387,0.002929688,0.03405762,0,0,-0.0008544922,0.2263184,4.046,0,0,0,0.2000122,nan,2,0.098,1,0,0.2894287,0.1765137,0.2342529,0.2050781,0.002929688,0,0,1,2
125.728,0.000992,-0.02929688,0.1679688,-0.02539062,1.726562,1.96875,4.96875,-0.07421875,0.03320312,-0.02148438,0.2304688,-0.01953125,0,-0.03845215,0.003173828,0.03393555,0,0,-0.0008544922,0.2263184,4.046,0,0,0,0.2000122,nan,2,0.009,1,0,0.2148132,0.2191162,0.1850586,0.2862854,0.00390625,0,0,1,2
125.738,0.001012,0.09960938,-0.04882812,-0.0078125,2.085938,-0.5625,1.296875,0.01757812,-0.03515625,-0.02148438,0.2324219,-0.01757812,0,-0.03881836,0.003051758,0.03369141,0,0,-0.0008544922,0.2263184,4.046,0,0,0,0.2000122,nan,2,0.019,1,0,0.245697,0.2189941,0.2107544,0.2298279,0.00390625,0,0,1,2
125.748,0.00101,-0.06054688,0.06640625,-0.04492188,1.007812,2.328125,17.89062,-0.046875,0.0859375,-0.05273438,0.2324219,-0.01757812,0,-0.03869629,0.003051758,0.0333252,0,0,-0.0008544922,0.2263184,4.046,0,0,0,0.2000122,nan,2,0.029,1,0,0.1876221,0.2215576,0.1691589,0.3269348,0.00390625,0,0,1,2
125.758,0.001,0.08007812,-0.06054688,0.00390625,1.4375,10.95312,20.61719,-0.01171875,-0.04296875,-0.02929688,0.2382812,-0.01757812,0,-0.03979492,0.002929688,0.03283691,0,0,-0.0008544922,0.2263184,4.046,0,0,0,0.2000122,nan,2,0.039,1,0,0.2904968,0.1841431,0.2306213,0.2000122,0.004882812,0,0,1,2
125.767,0.001018,0.0546875,0.2226562,0.015625,2.875,-0.1015625,9.21875,0.03515625,0.0625,0.0078125,0.2441406,-0.01757812,0,-0.04052734,0.003051758,0.03271484,0,0,-0.0008544922,0.2263184,4.046,0,0,0,0.2000122,nan,2,0.048,1,0,0.2550354,0.1625671,0.2613831,0.2262878,0.004882812,0,0,1,2
125.778,0.001033,-0.01953125,-0.1601562,-0.02539062,0.15625,5.023438,14.78125,-0.001953125,-0.01367188,-0.02539062,0.2421875,-0.01953125,0,-0.0402832,0.003051758,0.03271484,0,0,-0.0008544922,0.2263184,4.036,0,0,0,0.2000122,nan,2,0.06,1,0,0.2228088,0.241333,0.1602783,0.2808228,0.004882812,0,0,1,2
125.787,0.0009860001,0.1347656,0.1015625,0.08398438,2.648438,-0.359375,9.671875,0.02148438,-0.01171875,0.04882812,0.2421875,-0.01757812,0,-0.04052734,0.003051758,0.03271484,0,0,-0.0008544922,0.2263184,4.036,0,0,0,0.2000122,nan,2,0.069,1,0,0.3334961,0.1211243,0.3095703,0.1410828,0.004882812,-0.0009765625,0,1,2
125.798,0.00099,-0.078125,-0.1425781,0.03515625,0.921875,0.859375,3.835938,-0.005859375,-0.02929688,0.03515625,0.2402344,-0.01757812,0,-0.04016113,0.003051758,0.03320312,0,0,-0.0008544922,0.2263184,4.036,0,0,0,0.2000122,nan,2,0.079,1,0,0.2658386,0.1957703,0.2001038,0.2435608,0.004882812,-0.0009765625,0,1,2
125.808,0.001018,0.09179688,0.03320312,0.0234375,1.382812,-7.070312,5.609375,-0.01757812,-0.01171875,0.01367188,0.2421875,-0.01757812,0,-0.04040527,0.002929688,0.03344727,0,0,-0.0008544922,0.2263184,4.036,0,0,0,0.2000122,nan,2,0.007,1,0,0.2347717,0.2151794,0.1932373,0.2620544,0.005859375,-0.0009765625,0,1,2
125.818,0.001013,-0.1230469,-0.0625,0.03710938,0.015625,-6.421875,14.61719,0,-0.01171875,0.02734375,0.2421875,-0.01757812,0,-0.0402832,0.002929688,0.03356934,0,0,-0.0008544922,0.2263184,4.036,0,0,0,0.2000122,nan,2,0.017,1,0,0.2705688,0.1845398,0.2196655,0.2304993,0.005859375,-0.0009765625,0,1,2
125.828,0.001,0.01171875,-0.08398438,0.04492188,-0.828125,3.773438,18.91406,0,-0.05664062,0.0234375,0.2421875,-0.01757812,0,-0.04016113,0.002685547,0.03381348,0,0,-0.0008544922,0,4.036,0,0,0,0,nan,2,0.009,1,0,0.1000061,0.1000061,0.1000061,0.1000061,0,0,0,1,2
125.838,0.001021,-0.02734375,0.08984375,0.0078125,-1.625,-5.617188,13.55469,-0.009765625,0.03320312,0.02734375,0.2421875,-0.01757812,0,-0.0402832,0.002685547,0.03405762,0,0,-0.0008544922,0,4.036,0,0,0,0,nan,2,0.019,1,0,0.1000061,0.1000061,0.1000061,0.1000061,0,0,0,1,2
125.848,0.00101,-0.02148438,0.1582031,-0.02539062,2.28125,-1.828125,7.007812,0.015625,0.02539062,-0.01367188,0.2421875,-0.01757812,0,-0.04016113,0.002807617,0.03405762,0,0,-0.0008544922,0,4.036,0,0,0,0,nan,2,0.029,1,0,0.1000061,0.1000061,0.1000061,0.1000061,0,0,0,1,2
125.858,0.00101,0.009765625,-0.08398438,-0.0546875,-0.4140625,-2.53125,11.6875,0.009765625,-0.0078125,-0.0390625,0.2421875,-0.01757812,0,-0.04003906,0.002807617,0.03369141,0,0,-0.0008544922,0,4.036,0,0,0,0,nan,2,0.039,1,0,0.1000061,0.1000061,0.1000061,0.1000061,0,0,0,1,2
125.869,0.001002,-0.03320312,0.078125,-0.009765625,0.96875,1.195312,15.46094,-0.01953125,0.03125,-0.03125,0.2402344,-0.01757812,0,-0.04003906,0.002807617,0.0333252,0,0,-0.0008544922,0.2263184,4.036,0,0,0,0.2000122,nan,2,0,1,0,0.2297363,0.2170105,0.2044067,0.2541199,0,0,0,1,2
125.878,0.00101,0.06835938,0.03710938,-0.02539062,-0.859375,-3.484375,6.539062,0.0078125,0.01367188,0.00390625,0.2402344,-0.01757812,0,-0.04016113,0.002929688,0.0333252,0,0,-0.0008544922,0.2263184,4.036,0,0,0,0.2000122,nan,2,0.01,1,0,0.23526,0.2148438,0.2171631,0.2380066,0,0,0,1,2
125.887,0.001011,-0.1113281,0.046875,0.02539062,-0.34375,4.710938,18.80469,0.001953125,0.01953125,0.015625,0.2402344,-0.01757812,0,-0.03991699,0.003051758,0.0333252,0,0,-0.0008544922,0.2263184,4.036,0,0,0,0.2000122,nan,2,0.019,1,0,0.2647705,0.1767883,0.2441101,0.2196045,0.0009765625,0,0,1,2
125.897,0.001008,0.09960938,0.1269531,0.046875,-0.1171875,0.984375,7.757812,-0.015625,0.01171875,0.015625,0.2402344,-0.01953125,0,-0.04016113,0.003051758,0.03356934,0,0,-0.0008544922,0.2263184,4.036,0,0,0,0.2000122,nan,2,0.029,1,0,0.2432861,0.1988831,0.2216492,0.2414246,0.0009765625,0,0,1,2
125.907,0.001008,-0.1035156,-0.171875,0.01757812,-1.117188,1.429688,5.039062,-0.03320312,-0.005859375,0.03125,0.2402344,-0.01953125,0,-0.04003906,0.003417969,0.03393555,0,0,-0.0008544922,0.2263184,4.036,0,0,0,0.2000122,nan,2,0.039,1,0,0.2614136,0.2023926,0.1983948,0.2430725,0.0009765625,0,0,1,2
125.918,0.00101,0.0703125,0.0859375,0.01171875,2,-3.398438,12.35156,0.04101562,-0.01953125,0.03515625,0.2382812,-0.01953125,0,-0.03979492,0.003173828,0.03430176,0,0,-0.0008544922,0.2263184,4.036,0,0,0,0.2000122,nan,2,0.049,1,0,0.2297668,0.2219543,0.2138367,0.2397156,0.0009765625,0,0,1,2
125.928,0.001008,-0.0234375,-0.08398438,0.04882812,1.929688,5.59375,8.882812,-0.00390625,-0.02148438,0.03515625,0.2382812,-0.01757812,0,-0.03967285,0.002807617,0.03466797,0,0,-0.0008544922,0.2263184,4.036,0,0,0,0.2000122,nan,2,0.009,1,0,0.2617188,0.1882935,0.2280273,0.2272034,0.0009765625,0,0,1,2
125.938,0.000979,0,0.1191406,-0.001953125,-2.445312,6.679688,13.11719,0.005859375,0.01367188,0.01953125,0.2382812,-0.015625,0,-0.03979492,0.002807617,0.03503418,0,0,-0.0008544922,0.2263184,4.036,0,0,0,0.2000122,nan,2,0.019,1,0,0.2114258,0.225769,0.1993103,0.2687683,0.001953125,0,0,1,2
125.948,0.000979,-0.1230469,0.005859375,0.06445312,0.921875,1.34375,16.0625,-0.01953125,0.0078125,0.07421875,0.2382812,-0.015625,0,-0.03979492,0.002807617,0.03552246,0,0,-0.0008544922,0.2263184,4.036,0,0,0,0.2000122,nan,2,0.029,1,0,0.2988892,0.1437073,0.2655945,0.1970825,0.001953125,0,0,1,2
125.958,0.001025,0.04882812,-0.08007812,0.1230469,-4.359375,5.460938,19.65625,0.005859375,-0.04296875,0.09570312,0.2402344,-0.015625,0,-0.03991699,0.002685547,0.03625488,0,0,-0.0008544922,0.2263184,4.036,0,0,0,0.2000122,nan,2,0.039,1,0,0.3197632,0.147522,0.2756348,0.1623535,0.001953125,0,0,1,2
125.968,0.001009,-0.0234375,0.02539062,0.0859375,0.9375,-0.734375,17.28906,0.005859375,0.01171875,0.05859375,0.2382812,-0.015625,0,-0.03979492,0.002685547,0.0369873,0,0,-0.0008544922,0.2263184,4.036,0,0,0,0.2000122,nan,2,0.002,1,0,0.247467,0.1938171,0.2228394,0.2411499,0.001953125,0,0,1,2
125.978,0.001008,0.09179688,0.0234375,0.05664062,3.148438,0.390625,4.96875,-0.01367188,0.01367188,0.06640625,0.2402344,-0.015625,0,-0.03991699,0.002685547,0.03759766,0,0,-0.0008544922,0.2263184,4.036,0,0,0,0.2000122,nan,2,0.012,1,0,0.255188,0.1916504,0.2242432,0.2341614,0.002929688,0,0,1,2
125.987,0.001012,-0.05273438,0.01953125,0.06835938,-2.953125,-7.25,5.5,0.001953125,-0.015625,0.078125,0.2402344,-0.015625,0,-0.03991699,0.002807617,0.03833008,0,0,-0.0008544922,0.2263184,4.036,0,0,0,0.2000122,nan,2,0.021,1,0,0.2694702,0.1907043,0.2293091,0.2157593,0.002929688,0,0,1,2
125.998,0.001028,0.2070312,-0.04882812,0.05664062,-2.054688,0.375,19.78125,0.09179688,0.005859375,0.06054688,0.2382812,-0.01757812,0,-0.03967285,0.002807617,0.03894043,0,0,-0.0008544922,0.2263184,4.036,0,0,0,0.2000122,nan,2,0.031,1,0,0.2411804,0.2085876,0.247406,0.2080688,0.002929688,0,0,1,2
126.007,0.000995,0.05859375,0.06640625,0.03710938,0.9296875,0.4296875,12.32031,0.08203125,0.04492188,0.02734375,0.2324219,-0.01953125,0,-0.03894043,0.003173828,0.03930664,0,0,-0.0008544922,0.2263184,4.036,0,0,0,0.2000122,nan,2,0.041,1,0,0.2237244,0.2147522,0.2175293,0.2492371,0.002929688,0,0,1,2
126.018,0.000977,0.08203125,-0.03125,0.05273438,2.65625,-5.570312,3.375,0.02929688,-0.03320312,0.04882812,0.2324219,-0.01953125,0,-0.03857422,0.003173828,0.03979492,0,0,-0.0008544922,0,4.036,0,0,0,0,nan,2,0.002,1,0,0.1000061,0.1000061,0.1000061,0.1000061,0,0,0,1,2
126.028,0.001025,0.08203125,0.05859375,0.03125,-2.953125,-6.304688,6,0.06054688,0.03710938,0.06835938,0.2324219,-0.01953125,0,-0.03808594,0.003173828,0.04040527,0,0,-0.0008544922,0,4.036,0,0,0,0,nan,2,0.012,1,0,0.1000061,0.1000061,0.1000061,0.1000061,0,0,0,1,2
126.038,0.000946,-0.04101562,-0.09765625,0.03515625,1.929688,-13.30469,8.90625,-0.02734375,-0.04492188,0.03320312,0.2285156,-0.01953125,0,-0.03796387,0.003173828,0.04089355,0,0,-0.0008544922,0.1842041,4.036,0,0,0,0.1500244,nan,2,0.007,1,0,0.2169495,0.1667786,0.1588135,0.1943054,0,0,0,1,2
126.048,0.00102,-0.1152344,-0.04492188,0.01367188,0.25,4.359375,10.58594,-0.03125,0.0234375,0.00390625,0.2285156,-0.01953125,0,-0.03820801,0.003173828,0.04089355,0,0,-0.0008544922,0.1842041,4.036,0,0,0,0.1500244,nan,2,0.017,1,0,0.1925354,0.1615906,0.1681213,0.2146301,0,0,0,1,2
126.058,0.00101,0.04101562,0.06640625,-0.02539062,-1.125,7.59375,14.49219,-0.00390625,-0.01953125,-0.015625,0.2304688,-0.01757812,0,-0.03833008,0.003051758,0.04089355,0,0,-0.0008544922,0.1842041,4.036,0,0,0,0.1500244,nan,2,0.027,1,0,0.1588745,0.2150574,0.1222839,0.2406311,0.0009765625,0,0,1,2
126.068,0.00101,-0.0078125,0.01367188,0.02148438,1.890625,0.09375,6.726562,0.009765625,0.04101562,0.01757812,0.2285156,-0.01953125,0,-0.03820801,0.003295898,0.04101562,0,0,-0.0008544922,0.1842041,4.036,0,0,0,0.1500244,nan,2,0.037,1,0,0.2158203,0.1344604,0.2068481,0.179718,0.0009765625,0,0,1,2
126.078,0.001008,-0.09570312,-0.06835938,0.005859375,-0.125,-2.476562,10.40625,-0.02539062,-0.0234375,0.009765625,0.2285156,-0.01953125,0,-0.03808594,0.003417969,0.0411377,0,0,-0.0008544922,0.1842041,4.036,0,0,0,0.1500244,nan,2,0.047,1,0,0.2141724,0.1689758,0.1515503,0.2021179,0.0009765625,0,0,1,2
126.087,0.00101,0.1074219,0.07226562,0.03710938,0.671875,0.7265625,9.5625,0.046875,0.04296875,0.03515625,0.2265625,-0.01953125,0,-0.03771973,0.003417969,0.04138184,0,0,-0.0008544922,0.1842041,4.036,0,0,0,0.1500244,nan,2,0.057,1,0,0.205658,0.1396179,0.2241516,0.16745,0.0009765625,0,0,1,2
126.097,0.00101,0.005859375,-0.06054688,0.01953125,-2.453125,4.875,16.03125,-0.01953125,-0.02148438,0.015625,0.2265625,-0.01953125,0,-0.03771973,0.003295898,0.04150391,0,0,-0.0008544922,0.1842041,4.036,0,0,0,0.1500244,nan,2,0.067,1,0,0.212677,0.1659851,0.1631775,0.1950073,0.001953125,0,0,1,2
126.107,0.001012,0.02929688,0.04296875,0.03710938,0.0625,-3,14.63281,0.02929688,0.01757812,0.03515625,0.2265625,-0.01953125,0,-0.03759766,0.003417969,0.04187012,0,0,-0.0008544922,0.1842041,4.036,0,0,0,0.1500244,nan,2,0.077,1,0,0.1994324,0.1582947,0.1881104,0.190979,0.001953125,0,0,1,2
126.118,0.00099,-0.009765625,-0.02734375,0.01757812,0.953125,-6.445312,-0.90625,-0.01953125,0.02734375,0.015625,0.2246094,-0.02148438,0,-0.03747559,0.003662109,0.04211426,0,0,-0.0008544922,0.1842041,4.036,0,0,0,0.1500244,nan,2,0.087,1,0,0.1882324,0.1743774,0.1492615,0.2249756,0.001953125,0,0,1,2
126.128,0.00098,0.03515625,0.03515625,0.08203125,2.21875,1.148438,6.554688,0.00390625,0,0.05664062,0.2265625,-0.0234375,0,-0.03771973,0.00378418,0.04248047,0,0,-0.0008544922,0.1421204,4.036,0,0,0,0.09997559,nan,2,0.008,1,0,0.2125244,0.07012939,0.1914978,0.09423828,0.001953125,0,0,1,2
126.138,0.001014,0.07226562,0.015625,0.04492188,-0.828125,-4.25,14.22656,0.01171875,-0.009765625,0.04296875,0.2265625,-0.0234375,0,-0.03771973,0.00390625,0.04296875,0,0,-0.0008544922,0.1421204,4.036,0,0,0,0.09997559,nan,2,0.018,1,0,0.1636353,0.1255493,0.1343689,0.1448975,0.002929688,0,0,1,2
126.148,0.001012,0.03320312,-0.06835938,0.06445312,-0.0234375,1.5,5.8125,0.005859375,-0.00390625,0.06640625,0.2246094,-0.0234375,0,-0.03747559,0.00378418,0.04345703,0,0,-0.0008544922,0.1421204,4.036,0,0,0,0.09997559,nan,2,0.028,1,0,0.2020264,0.08151245,0.1719666,0.112915,0.002929688,0,0,1,2
126.158,0.00101,-0.02539062,-0.05273438,0.06835938,-4.390625,4.023438,16.49219,-0.015625,-0.01367188,0.04296875,0.2246094,-0.0234375,0,-0.03747559,0.00378418,0.04394531,0,0,-0.0008544922,0.1421204,4.036,0,0,0,0.09997559,nan,2,0.038,1,0,0.1875916,0.1013184,0.142395,0.137146,0.002929688,0,0,1,2
126.168,0.001012,0.03320312,-0.0390625,-0.00390625,-1.484375,-1.414062,-0.796875,-0.001953125,0.01367188,0.01757812,0.2265625,-0.0234375,0,-0.0378418,0.00378418,0.04431152,0,0,-0.0008544922,0.1421204,4.036,0,0,0,0.09997559,nan,2,0.048,1,0,0.1091003,0.164917,0.08676147,0.2076416,0.002929688,0,0,1,2
126.178,0.001055,0.1679688,0.02734375,0.02539062,-3.664062,2.15625,12.79688,0.0234375,0.005859375,0.01171875,0.2265625,-0.02148438,0,-0.0378418,0.003662109,0.04455566,0,0,-0.0008544922,0.1421204,4.036,0,0,0,0.09997559,nan,2,0.059,1,0,0.1382446,0.1402283,0.1216736,0.1683044,0.002929688,0,0,1,2
126.187,0.001009,-0.1074219,-0.01367188,0.0078125,1.804688,-4.25,3.257812,-0.02929688,0.03515625,0.001953125,0.2246094,-0.0234375,0,-0.03735352,0.00390625,0.04455566,0,0,-0.0008544922,0.1421204,4.036,0,0,0,0.09997559,nan,2,0.068,1,0,0.1525269,0.117157,0.1133118,0.1854248,0.00390625,0,0,1,2
126.197,0.001045,0.09960938,0.02929688,0.001953125,-1.757812,3.476562,16.89844,0.01757812,-0.0078125,0.0078125,0.2246094,-0.0234375,0,-0.03735352,0.00402832,0.04467773,0,0,-0.0008544922,0.1421204,4.036,0,0,0,0.09997559,nan,2,0.078,1,0,0.153717,0.1337585,0.1296997,0.1512756,0.00390625,0,0,1,2
126.207,0.001009,0.1171875,-0.1074219,0.01757812,-0.7421875,9.382812,9.6875,-0.00390625,0.015625,0.001953125,0.2246094,-0.02539062,0,-0.03747559,0.004150391,0.04467773,0,0,-0.0008544922,0.1421204,4.036,0,0,0,0.09997559,nan,2,0.088,1,0,0.1600952,0.1180115,0.1405334,0.1497803,0.00390625,0,0,1,2
126.218,0.001016,-0.03320312,0.08398438,0.00390625,-4.28125,5.046875,13.91406,-0.009765625,0.03515625,-0.009765625,0.2246094,-0.02539062,0,-0.03735352,0.004272461,0.04467773,0,0,-0.0008544922,0,4.036,0,0,0,0,nan,2,0,1,0,0.1000061,0.1000061,0.1000061,0.1000061,0,0,0,1,2
126.228,0.001001,0.05859375,-0.02929688,0.07226562,-0.046875,2.570312,4.898438,0.05859375,0.0078125,0.05859375,0.2246094,-0.02539062,0,-0.03710938,0.004516602,0.04492188,0,0,-0.0008544922,0,4.036,0,0,0,0,nan,2,0.01,1,0,0.1000061,0.1000061,0.1000061,0.1000061,0,0,0,1,2
126.238,0.000972,0.015625,-0.04492188,0.05859375,2.53125,-5.914062,6.007812,0.03125,-0.02539062,0.06445312,0.2246094,-0.02539062,0,-0.0369873,0.004394531,0.04553223,0,0,-0.0008544922,0,4.036,0,0,0,0,nan,2,0.02,1,0,0.1000061,0.1000061,0.1000061,0.1000061,0,0,0,1,2
126.248,0.000979,0.03320312,-0.015625,0.05859375,-0.296875,3.21875,13.85156,-0.00390625,0.009765625,0.05859375,0.2246094,-0.02539062,0,-0.03686523,0.004272461,0.04614258,0,0,-0.0008544922,0,4.036,0,0,0,0,nan,2,0.03,1,0,0.1000061,0.1000061,0.1000061,0.1000061,0,0,0,1,2
126.258,0.001038,0.05273438,0.005859375,0.03710938,-1.828125,-9.945312,13.22656,0.009765625,0.009765625,0.046875,0.2246094,-0.02539062,0,-0.03686523,0.004394531,0.04675293,0,0,-0.0008544922,0,4.036,0,0,0,0,nan,2,0.004,1,0,0.1000061,0.1000061,0.1000061,0.1000061,0,0,0,1,2
126.268,0.00101,-0.005859375,-0.015625,0.0703125,0.96875,-2,8.320312,-0.02148438,0.02929688,0.05664062,0.2246094,-0.02539062,0,-0.03686523,0.004394531,0.04724121,0,0,-0.0008544922,0,4.036,0,0,0,0,nan,2,0.014,1,0,0.1000061,0.1000061,0.1000061,0.1000061,0,0,0,1,2
126.278,0.00101,-0.04492188,0.0546875,0.01171875,-0.1171875,-0.5703125,4.5625,-0.01757812,0.0078125,0.04296875,0.2246094,-0.02539062,0,-0.0369873,0.004394531,0.04785156,0,0,-0.0008544922,0,4.036,0,0,0,0,nan,2,0.024,1,0,0.1000061,0.1000061,0.1000061,0.1000061,0,0,0,1,2
126.288,0.00101,0.0234375,-0.06640625,0.04492188,1.46875,0.5078125,13.14062,-0.00390625,-0.0078125,0.03710938,0.2246094,-0.02539062,0,-0.0369873,0.004394531,0.0480957,0,0,-0.0008544922,0,4.036,0,0,0,0,nan,2,0.034,1,0,0.1000061,0.1000061,0.1000061,0.1000061,0,0,0,1,2
126.297,0.001007,0.05273438,-0.005859375,0.0234375,-0.6015625,5.507812,10.46094,-0.02539062,0,0.04101562,0.2246094,-0.02539062,0,-0.03747559,0.004516602,0.04858398,0,0,-0.0008544922,0,4.036,0,0,0,0,nan,2,0.043,1,0,0.1000061,0.1000061,0.1000061,0.1000061,0,0,0,1,2
126.307,0.00101,0.015625,-0.0625,0.04492188,-2.726562,-2.351562,3.046875,-0.01757812,0.00390625,0.04101562,0.2246094,-0.02539062,0,-0.03747559,0.004516602,0.0489502,0,0,-0.0008544922,0,4.036,0,0,0,0,nan,2,0.054,1,0,0.1000061,0.1000061,0.1000061,0.1000061,0,0,0,1,2
126.317,0.001009,-0.03320312,-0.03515625,0.02929688,1.101562,2.453125,9.46875,0.001953125,-0.0234375,0.04296875,0.2246094,-0.02539062,0,-0.03723145,0.004394531,0.04956055,0,0,-0.0008544922,0,4.036,0,0,0,0,nan,2,0.064,1,0,0.1000061,0.1000061,0.1000061,0.1000061,0,0,0,1,2
126.328,0.001007,-0.01367188,-0.02539062,0.05273438,-0.140625,-1.976562,5.375,-0.03125,-0.009765625,0.04882812,0.2246094,-0.02539062,0,-0.03747559,0.004394531,0.04992676,0,0,-0.0008544922,0,4.036,0,0,0,0,nan,2,0.074,1,0,0.1000061,0.1000061,0.1000061,0.1000061,0,0,0,1,2
126.338,0.001016,-0.0234375,0.00390625,0.02148438,-0.8203125,1.101562,9.382812,-0.01171875,0,0.02734375,0.2246094,-0.02539062,0,-0.03771973,0.004150391,0.05041504,0,0,-0.0008544922,0,4.036,0,0,0,0,nan,2,0.084,1,0,0.1000061,0.1000061,0.1000061,0.1000061,0,0,0,1,2
126.348,0.001007,-0.02734375,0.015625,0.03710938,1.359375,4.023438,13.78125,0.005859375,-0.015625,0.03710938,0.2246094,-0.02539062,0,-0.0378418,0.004150391,0.05065918,0,0,-0.0008544922,0,4.036,0,0,0,0,nan,2,0.094,1,0,0.1000061,0.1000061,0.1000061,0.1000061,0,0,0,1,2
126.358,0.00101,0.02539062,0.04882812,0.02148438,-0.171875,0.25,13.45312,-0.015625,0.07421875,0.01757812,0.2246094,-0.02539062,0,-0.03820801,0.004638672,0.05090332,0,0,-0.0008544922,0,4.036,0,0,0,0,nan,2,0.104,1,0,0.1000061,0.1000061,0.1000061,0.1000061,0,0,0,1,2
126.368,0.001013,0.03710938,-0.01367188,0.01953125,0.390625,-4.101562,12.60938,0.01367188,0.00390625,0.01953125,0.2246094,-0.02539062,0,-0.03808594,0.004882812,0.05114746,0,0,-0.0008544922,0,4.036,0,0,0,0,nan,2,0.114,1,0,0.1000061,0.1000061,0.1000061,0.1000061,0,0,0,1,2
126.378,0.00101,-0.03320312,-0.046875,0.015625,0.9921875,2.59375,10.17188,-0.01367188,-0.0078125,0.01953125,0.2246094,-0.02539062,0,-0.03808594,0.004882812,0.0513916,0,0,-0.0008544922,0,4.036,0,0,0,0,nan,2,0.124,1,0,0.1000061,0.1000061,0.1000061,0.1000061,0,0,0,1,2
126.388,0.00101,0.01757812,-0.005859375,0.01953125,0.09375,2.390625,2.273438,0.02734375,-0.005859375,0.02539062,0.2246094,-0.02539062,0,-0.03808594,0.004882812,0.05163574,0,0,-0.0008544922,0,4.036,0,0,0,0,nan,2,0.134,1,0,0.1000061,0.1000061,0.1000061,0.1000061,0,0,0,1,2
126.397,0.00101,0,0.05273438,0.02929688,-3.921875,1.773438,11.50781,0.0078125,0.01953125,0.01953125,0.2246094,-0.02539062,0,-0.03796387,0.004882812,0.05175781,0,0,-0.0008544922,0,4.036,0,0,0,0,nan,2,0.143,1,0,0.1000061,0.1000061,0.1000061,0.1000061,0,0,0,1,2
126.407,0.000981,-0.005859375,-0.005859375,-0.001953125,0.0390625,-2.101562,7.835938,0.015625,0.00390625,0.001953125,0.2246094,-0.02539062,0,-0.03759766,0.004882812,0.05187988,0,0,-0.0008544922,0,4.036,0,0,0,0,nan,2,0.153,1,0,0.1000061,0.1000061,0.1000061,0.1000061,0,0,0,1,2
126.418,0.00101,0.01757812,0.0625,-0.001953125,-2.609375,-6.085938,6.78125,0.009765625,0.01171875,-0.005859375,0.2246094,-0.02539062,0,-0.03771973,0.004882812,0.05187988,0,0,-0.0008544922,0,4.036,0,0,0,0,nan,2,0.006,1,0,0.1000061,0.1000061,0.1000061,0.1000061,0,0,0,1,2
126.428,0.0009869999,-0.01953125,-0.06445312,-0.01757812,-2.03125,-0.8828125,12.96875,-0.005859375,-0.01367188,-0.01757812,0.2246094,-0.02539062,0,-0.0378418,0.005126953,0.05175781,0,0,-0.0008544922,0,4.075,0,0,0,0,nan,2,0.016,1,0,0.1000061,0.1000061,0.1000061,0.1000061,0,0,0,1,2
126.438,0.001014,0.001953125,0.05273438,-0.01171875,-3.101562,0.5,11.36719,0,0.00390625,-0.015625,0.2246094,-0.02539062,0,-0.0378418,0.005004883,0.05151367,0,0,-0.0008544922,0,4.075,0,0,0,0,nan,2,0.026,1,0,0.1000061,0.1000061,0.1000061,0.1000061,0,0,0,1,2
126.448,0.001018,-0.005859375,-0.015625,-0.00390625,1.882812,-0.453125,19.49219,-0.009765625,-0.00390625,-0.015625,0.2246094,-0.02539062,0,-0.0378418,0.005004883,0.05126953,0,0,0.05126953,0,4.075,0,0,0,0,nan,2,0.036,0,0,0,0,0,0,0,0,0,1,2
126.458,0.001027,0.03710938,0.02148438,-0.01757812,-0.828125,5.546875,11.03906,0.01171875,0.009765625,-0.02539062,0.2246094,-0.02539062,0,-0.0378418,0.004882812,0.05102539,0,0,0.05102539,0,4.075,0,0,0,0,nan,2,0.046,0,0,0,0,0,0,0,0,0,1,2
126.468,0.001014,0.01171875,-0.02148438,-0.06054688,-1.34375,3.023438,7.320312,0.005859375,-0.0078125,-0.04101562,0.2246094,-0.02539062,0,-0.03796387,0.004760742,0.05078125,0,0,0.05078125,0,4.075,0,0,0,0,nan,2,0.057,0,0,0,0,0,0,0,0,0,1,2
126.478,0.001014,-0.02148438,-0.005859375,-0.04492188,-0.578125,-3.125,16.9375,0.0078125,0.00390625,-0.04101562,0.2246094,-0.02539062,0,-0.03796387,0.004638672,0.05041504,0,0,0.05041504,0,4.075,0,0,0,0,nan,2,0.067,0,0,0,0,0,0,0,0,0,1,2
126.488,0.00101,-0.04492188,0.0390625,-0.04492188,-0.7265625,3.921875,6.859375,-0.001953125,0.00390625,-0.0546875,0.2246094,-0.02539062,0,-0.03808594,0.004638672,0.04980469,0,0,0.04980469,0,4.075,0,0,0,0,nan,2,0.077,0,0,0,0,0,0,0,0,0,1,2
126.497,0.00101,0.009765625,-0.02734375,-0.078125,-1.390625,1.578125,9.609375,-0.001953125,0.01953125,-0.0703125,0.2246094,-0.02539062,0,-0.03808594,0.004760742,0.04931641,0,0,0.04931641,0,4.075,0,0,0,0,nan,2,0.086,0,0,0,0,0,0,0,0,0,1,2
126.507,0.000982,0.06054688,0.07421875,-0.07421875,0.4375,-0.3515625,7.085938,0.01171875,0,-0.05664062,0.2246094,-0.02539062,0,-0.03820801,0.004760742,0.04870605,0,0,0.04870605,0,4.075,0,0,0,0,nan,2,0.096,0,0,0,0,0,0,0,0,0,1,2
126.518,0.001006,0.03710938,0.01757812,-0.02929688,-1.625,1.40625,9.992188,0.01953125,0.001953125,-0.02734375,0.2246094,-0.02539062,0,-0.0378418,0.004516602,0.04821777,0,0,0.04821777,0,4.075,0,0,0,0,nan,2,0.003,0,0,0,0,0,0,0,0,0,1,2
126.528,0.000992,0.00390625,0.0078125,0.01171875,1.390625,-1.625,12.27344,-0.00390625,0.001953125,-0.01953125,0.2246094,-0.02539062,0,-0.03723145,0.004272461,0.04797363,0,0,0.04797363,0,4.075,0,0,0,0,nan,2,0.013,0,0,0,0,0,0,0,0,0,1,2
126.538,0.001006,0.04101562,0.04882812,-0.009765625,0.5859375,-1.601562,9.789062,0.01953125,0.0078125,-0.009765625,0.2246094,-0.02539062,0,-0.03710938,0.004272461,0.04785156,0,0,0.04785156,0,4.075,0,0,0,0,nan,2,0.023,0,0,0,0,0,0,0,0,0,1,2
126.548,0.001014,-0.04101562,-0.07421875,-0.03320312,0.2265625,1.703125,5.65625,-0.02148438,-0.01367188,-0.02148438,0.2246094,-0.02539062,0,-0.03723145,0.004150391,0.04772949,0,0,0.04772949,0,4.075,0,0,0,0,nan,2,0.033,0,0,0,0,0,0,0,0,0,1,2
126.558,0.00101,-0.046875,0.07421875,-0.04101562,-0.5703125,-3.617188,11.80469,-0.001953125,0.02734375,-0.04101562,0.2246094,-0.02539062,0,-0.03710938,0.004150391,0.04748535,0,0,0.04748535,0,4.075,0,0,0,0,nan,2,0.043,0,0,0,0,0,0,0,0,0,1,2
126.568,0.001021,0.046875,0.02539062,-0.0390625,-1.617188,-2.625,12.64062,0,-0.0078125,-0.0390625,0.2246094,-0.02539062,0,-0.0369873,0.00402832,0.04699707,0,0,0.04699707,0,4.075,0,0,0,0,nan,2,0.054,0,0,0,0,0,0,0,0,0,1,2
126.578,0.001028,-0.02148438,0.02148438,-0.02148438,-1.921875,-1.726562,12.20312,0.00390625,0.009765625,-0.03125,0.2246094,-0.02539062,0,-0.03674316,0.00390625,0.04663086,0,0,0.04663086,0,4.075,0,0,0,0,nan,2,0.064,0,0,0,0,0,0,0,0,0,1,2
126.588,0.001038,0.04101562,0.02148438,-0.03320312,0.265625,-2.75,11.46875,0,-0.01757812,-0.02929688,0.2246094,-0.02539062,0,-0.03674316,0.003662109,0.04626465,0,0,0.04626465,0,4.075,0,0,0,0,nan,2,0.074,0,0,0,0,0,0,0,0,0,1,2
126.598,0.00101,0.04492188,0.078125,-0.01757812,0.5546875,1.289062,8.867188,0.009765625,0.01757812,-0.01367188,0.2246094,-0.02539062,0,-0.03649902,0.00378418,0.04614258,0,0,0.04614258,0,4.075,0,0,0,0,nan,2,0.084,0,0,0,0,0,0,0,0,0,1,2
126.607,0.001029,-0.01171875,0.0859375,-0.0078125,-0.59375,-3.070312,12.15625,0.01171875,0.005859375,-0.01171875,0.2246094,-0.02539062,0,-0.03649902,0.00390625,0.04589844,0,0,0.04589844,0,4.075,0,0,0,0,nan,2,0.093,0,0,0,0,0,0,0,0,0,1,2
126.617,0.00101,-0.009765625,0.0078125,-0.03515625,0.3203125,1.382812,9.242188,0,-0.009765625,-0.0234375,0.2246094,-0.02539062,0,-0.03625488,0.00390625,0.04577637,0,0,0.04577637,0,4.075,0,0,0,0,nan,2,0.103,0,0,0,0,0,0,0,0,0,1,2
126.627,0.001007,0.06640625,0.07226562,-0.02929688,2.460938,-0.03125,5.804688,0.01953125,0.02539062,-0.02539062,0.2246094,-0.02539062,0,-0.03625488,0.00378418,0.04553223,0,0,0.04553223,0,4.075,0,0,0,0,nan,2,0.113,0,0,0,0,0,0,0,0,0,1,2
126.638,0.00101,0.02539062,-0.02929688,-0.00390625,2.820312,-1.664062,6.257812,0.00390625,-0.00390625,-0.009765625,0.2246094,-0.02539062,0,-0.03601074,0.003662109,0.04528809,0,0,0.04528809,0,4.075,0,0,0,0,nan,2,0.123,0,0,0,0,0,0,0,0,0,1,2
126.648,0.00101,-0.05273438,0.005859375,0.02929688,-3.34375,-3.726562,10.26562,0,0,0.01367188,0.2246094,-0.02539062,0,-0.03601074,0.003662109,0.04541016,0,0,0.04541016,0,4.075,0,0,0,0,nan,2,0.133,0,0,0,0,0,0,0,0,0,1,2
126.658,0.001007,-0.09179688,0.009765625,-0.00390625,-1.304688,-5.0625,9.328125,0.001953125,0.009765625,-0.01367188,0.2246094,-0.02539062,0,-0.03613281,0.003540039,0.04528809,0,0,0.04528809,0,4.075,0,0,0,0,nan,2,0.143,0,0,0,0,0,0,0,0,0,1,2
126.668,0.00101,0.01367188,0.07421875,0.005859375,-2.90625,4.140625,13.75,0.009765625,0.009765625,-0.005859375,0.2246094,-0.02539062,0,-0.03613281,0.003417969,0.04516602,0,0,0.04516602,0,4.075,0,0,0,0,nan,2,0.154,0,0,0,0,0,0,0,0,0,1,2
126.678,0.00101,0.05664062,0.00390625,-0.01757812,0.3203125,1.578125,14.5,0.01367188,0.00390625,0.001953125,0.2246094,-0.02539062,0,-0.03649902,0.003295898,0.04516602,0,0,0.04516602,0,4.075,0,0,0,0,nan,2,0.164,0,0,0,0,0,0,0,0,0,1,2
126.688,0.001007,-0.06835938,-0.005859375,0.009765625,-0.5,-2.960938,6.625,-0.00390625,0,-0.01367188,0.2246094,-0.02539062,0,-0.03637695,0.003051758,0.04516602,0,0,0.04516602,0,4.075,0,0,0,0,nan,2,0.174,0,0,0,0,0,0,0,0,0,1,2
126.698,0.001006,0.08789062,0.03515625,-0.03125,0.96875,6.507812,10,0.01367188,0.001953125,-0.015625,0.2246094,-0.02539062,0,-0.03649902,0.002929688,0.04492188,0,0,0.04492188,0,4.075,0,0,0,0,nan,2,0.184,0,0,0,0,0,0,0,0,0,1,2
126.707,0.001006,0.06445312,0.005859375,-0.01757812,-0.65625,4.9375,13.61719,0.009765625,-0.015625,-0.005859375,0.2246094,-0.02539062,0,-0.03674316,0.002807617,0.04492188,0,0,0.04492188,0,4.075,0,0,0,0,nan,2,0.193,0,0,0,0,0,0,0,0,0,1,2
126.717,0.001014,0.015625,-0.03125,0.005859375,-0.5078125,-3.273438,8.632812,0.0234375,0.001953125,-0.0078125,0.2246094,-0.02539062,0,-0.03674316,0.002807617,0.0447998,0,0,0.0447998,0,4.075,0,0,0,0,nan,2,0.203,0,0,0,0,0,0,0,0,0,1,2
126.727,0.001004,0.02539062,0.01757812,0.02539062,-1.882812,1.132812,13.9375,0.00390625,0,0,0.2246094,-0.02539062,0,-0.03662109,0.002807617,0.0447998,0,0,0.0447998,0,4.075,0,0,0,0,nan,2,0.213,0,0,0,0,0,0,0,0,0,1,2
126.738,0.001014,0.04882812,0.05273438,0.02148438,-2.164062,3.929688,12.03125,0.00390625,0.01171875,0.0078125,0.2246094,-0.02539062,0,-0.03649902,0.002807617,0.0447998,0,0,0.0447998,0,4.075,0,0,0,0,nan,2,0.223,0,0,0,0,0,0,0,0,0,1,2
126.748,0.001,0.04101562,0.02539062,0.01171875,-0.9609375,1.234375,6.929688,0.00390625,0.0078125,-0.005859375,0.2246094,-0.02539062,0,-0.03637695,0.002807617,0.0447998,0,0,0.0447998,0,4.075,0,0,0,0,nan,2,0.233,0,0,0,0,0,0,0,0,0,1,2
126.758,0.001036,-0.05273438,-0.001953125,0.009765625,-0.6875,-3.757812,8.445312,-0.001953125,0.00390625,0,0.2246094,-0.02539062,0,-0.03637695,0.002685547,0.04467773,0,0,0.04467773,0,4.075,0,0,0,0,nan,2,0.001,0,0,0,0,0,0,0,0,0,1,2
126.768,0.00101,0.06640625,0.07617188,-0.005859375,-2.0625,3.648438,8.007812,0.02539062,0.02539062,-0.005859375,0.2246094,-0.02539062,0,-0.03613281,0.002685547,0.04467773,0,0,0.04467773,0,4.075,0,0,0,0,nan,2,0.011,0,0,0,0,0,0,0,0,0,1,2
126.778,0.001006,0.009765625,-0.00390625,-0.03320312,0.7109375,0.6484375,10.88281,-0.00390625,-0.00390625,-0.0078125,0.2246094,-0.02539062,0,-0.03637695,0.002685547,0.04467773,0,0,0.04467773,0,4.075,0,0,0,0,nan,2,0.021,0,0,0,0,0,0,0,0,0,1,2
126.788,0.001007,0.01171875,-0.03515625,0.03515625,0.171875,-2.6875,9.929688,-0.001953125,-0.001953125,0.0078125,0.2246094,-0.02539062,0,-0.03637695,0.002685547,0.04467773,0,0,0.04467773,0,4.075,0,0,0,0,nan,2,0.031,0,0,0,0,0,0,0,0,0,1,2
126.798,0.001006,-0.01367188,0.04296875,-0.009765625,-1.984375,-0.3359375,10.17969,0.009765625,0.009765625,0.009765625,0.2246094,-0.02539062,0,-0.03625488,0.002685547,0.0447998,0,0,0.0447998,0,4.075,0,0,0,0,nan,2,0.041,0,0,0,0,0,0,0,0,0,1,2
126.807,0.001007,-0.02539062,-0.046875,0.0078125,0.3828125,-0.2734375,9.921875,0.001953125,-0.009765625,-0.0078125,0.2246094,-0.02539062,0,-0.03613281,0.002563477,0.0447998,0,0,0.0447998,0,4.075,0,0,0,0,nan,2,0.05,0,0,0,0,0,0,0,0,0,1,2
126.817,0.001014,0.03320312,-0.02148438,0.015625,-0.9921875,0.2578125,10.75781,0.005859375,-0.0078125,-0.00390625,0.2246094,-0.02539062,0,-0.03601074,0.002441406,0.04467773,0,0,0.04467773,0,4.075,0,0,0,0,nan,2,0.061,0,0,0,0,0,0,0,0,0,1,2
126.827,0.001008,-0.02734375,-0.01367188,0.0078125,0.7109375,1.007812,9.875,0.0078125,0.005859375,0.005859375,0.2246094,-0.02539062,0,-0.03601074,0.002441406,0.04467773,0,0,0.04467773,0,4.075,0,0,0,0,nan,2,0.071,0,0,0,0,0,0,0,0,0,1,2
126.838,0.001006,-0.02734375,0.005859375,0.0078125,0.828125,-0.2421875,10.57031,-0.00390625,0.005859375,0.001953125,0.2246094,-0.02539062,0,-0.03601074,0.002197266,0.0447998,0,0,0.0447998,0,4.075,0,0,0,0,nan,2,0.081,0,0,0,0,0,0,0,0,0,1,2
126.848,0.001006,0.0390625,0.04492188,0.001953125,-1.671875,-0.453125,11.46094,0.00390625,0.0078125,-0.005859375,0.2246094,-0.02539062,0,-0.03625488,0.002197266,0.04467773,0,0,0.04467773,0,4.075,0,0,0,0,nan,2,0.091,0,0,0,0,0,0,0,0,0,1,2
126.858,0.00101,-0.02148438,-0.0078125,0.005859375,-0.6875,-1.03125,9.171875,0.009765625,-0.00390625,0.009765625,0.2246094,-0.02539062,0,-0.03625488,0.002197266,0.0447998,0,0,0.0447998,0,4.075,0,0,0,0,nan,2,0.101,0,0,0,0,0,0,0,0,0,1,2
126.868,0.001006,0.03515625,0.01757812,-0.01171875,-0.53125,0.8984375,10.375,0,0.009765625,0,0.2246094,-0.02539062,0,-0.03625488,0.002075195,0.0447998,0,0,0.0447998,0,4.075,0,0,0,0,nan,2,0.111,0,0,0,0,0,0,0,0,0,1,2
126.878,0.00101,-0.06054688,-0.0546875,0.01953125,-0.28125,-0.4453125,8.585938,-0.001953125,-0.0078125,-0.001953125,0.2246094,-0.02539062,0,-0.03625488,0.002075195,0.0447998,0,0,0.0447998,0,4.075,0,0,0,0,nan,2,0.121,0,0,0,0,0,0,0,0,0,1,2
126.888,0.001009,-0.01367188,0.046875,-0.0234375,-1.21875,0.15625,10.69531,-0.009765625,0.0078125,0.001953125,0.2246094,-0.02539062,0,-0.03625488,0.001953125,0.0447998,0,0,0.0447998,0,4.075,0,0,0,0,nan,2,0.131,0,0,0,0,0,0,0,0,0,1,2
126.898,0.001006,0.06445312,0.01367188,-0.0234375,-0.3515625,-0.8125,11.02344,0.01171875,0.0078125,-0.0078125,0.2246094,-0.02539062,0,-0.03613281,0.001831055,0.0447998,0,0,0.0447998,0,4.075,0,0,0,0,nan,2,0.141,0,0,0,0,0,0,0,0,0,1,2
126.907,0.001014,0.0390625,0.02539062,0.005859375,-0.578125,-0.6796875,11.00781,0.005859375,0.005859375,0.005859375,0.2246094,-0.02539062,0,-0.03601074,0.001831055,0.0447998,0,0,0.0447998,0,4.075,0,0,0,0,nan,2,0.15,0,0,0,0,0,0,0,0,0,1,2
126.917,0.001006,0.01757812,0.0078125,-0.01757812,-0.3515625,-0.0390625,10.17969,-0.001953125,0.005859375,-0.00390625,0.2246094,-0.02539062,0,-0.03601074,0.001831055,0.0447998,0,0,0.0447998,0,4.075,0,0,0,0,nan,2,0.161,0,0,0,0,0,0,0,0,0,1,2
126.927,0.001005,0.02929688,0.01171875,-0.03515625,-0.03125,-0.734375,10.46875,0.009765625,0.01171875,-0.0078125,0.2246094,-0.02539062,0,-0.03588867,0.001831055,0.0447998,0,0,0.0447998,0,4.075,0,0,0,0,nan,2,0.171,0,0,0,0,0,0,0,0,0,1,2
126.938,0.001004,0.02734375,-0.005859375,-0.00390625,-0.2421875,-0.34375,10.64844,0,0.001953125,0,0.2246094,-0.02539062,0,-0.0357666,0.001708984,0.0447998,0,0,0.0447998,0,4.075,0,0,0,0,nan,2,0.181,0,0,0,0,0,0,0,0,0,1,2
126.948,0.00101,0.01171875,-0.01953125,-0.03125,-0.453125,-0.1640625,10.24219,0.001953125,0.001953125,-0.0078125,0.2246094,-0.02539062,0,-0.03564453,0.001708984,0.0447998,0,0,0.0447998,0,4.075,0,0,0,0,nan,2,0.191,0,0,0,0,0,0,0,0,0,1,2
126.958,0.001009,0.009765625,0.01171875,0.01367188,-0.015625,-0.046875,10.53906,-0.001953125,0,0,0.2246094,-0.02539062,0,-0.03540039,0.001464844,0.0447998,0,0,0.0447998,0,4.075,0,0,0,0,nan,2,0.201,0,0,0,0,0,0,0,0,0,1,2
126.968,0.001009,-0.0078125,0.001953125,0,0.4765625,-0.6484375,9.273438,0.001953125,0,0,0.2246094,-0.02539062,0,-0.03527832,0.001586914,0.0447998,0,0,0.0447998,0,4.075,0,0,0,0,nan,2,0.211,0,0,0,0,0,0,0,0,0,1,2
126.978,0.001009,0.009765625,-0.009765625,-0.02929688,-0.125,-0.0078125,9.9375,0,0,-0.01367188,0.2246094,-0.02539062,0,-0.03515625,0.001464844,0.0447998,0,0,0.0447998,0,4.075,0,0,0,0,nan,2,0.221,0,0,0,0,0,0,0,0,0,1,2
126.988,0.001009,0,0.01367188,0.02539062,0.734375,-0.28125,9.445312,0,0.001953125,0.0078125,0.2246094,-0.02539062,0,-0.03503418,0.001342773,0.0447998,0,0,0.0447998,0,4.075,0,0,0,0,nan,2,0.231,0,0,0,0,0,0,0,0,0,1,2
126.997,0.001044,0.00390625,-0.005859375,0.01757812,-0.25,-0.375,10.13281,0,-0.001953125,0.01171875,0.2246094,-0.02539062,0,-0.03491211,0.001098633,0.0447998,0,0,0.0447998,0,4.075,0,0,0,0,nan,2,0.24,0,0,0,0,0,0,0,0,0,1,2
127.007,0.000994,0.01171875,-0.005859375,-0.01367188,0.140625,-0.6015625,9.71875,0.00390625,0,-0.009765625,0.2246094,-0.02539062,0,-0.03479004,0.001098633,0.0447998,0,0,0.0447998,0,4.075,0,0,0,0,nan,2,0.25,0,0,0,0,0,0,0,0,0,1,2
127.017,0.000976,-0.005859375,0.009765625,0.001953125,0.0625,-0.4921875,9.671875,0,0.00390625,0.00390625,0.2246094,-0.02539062,0,-0.03479004,0.001098633,0.0447998,0,0,0.0447998,0,4.075,0,0,0,0,nan,2,0.007,0,0,0,0,0,0,0,0,0,1,2
127.028,0.001014,-0.0078125,-0.005859375,0.00390625,-0.0390625,-0.25,10.25781,-0.00390625,0,0.005859375,0.2246094,-0.02539062,0,-0.03466797,0.0008544922,0.0447998,0,0,0.0447998,0,4.075,0,0,0,0,nan,2,0.017,0,0,0,0,0,0,0,0,0,1,2
127.038,0.001009,0,-0.001953125,-0.01757812,-0.1171875,-0.21875,9.96875,-0.001953125,0.001953125,0,0.2246094,-0.02539062,0,-0.0345459,0.0008544922,0.0447998,0,0,0.0447998,0,4.075,0,0,0,0,nan,2,0.027,0,0,0,0,0,0,0,0,0,1,2
127.048,0.001011,0.01171875,-0.00390625,-0.02148438,-0.3125,-0.5234375,9.757812,0.00390625,-0.001953125,-0.00390625,0.2246094,-0.02539062,0,-0.03430176,0.0006103516,0.0447998,0,0,0.0447998,0,4.075,0,0,0,0,nan,2,0.037,0,0,0,0,0,0,0,0,0,1,2
127.058,0.00101,0.001953125,0.001953125,-0.001953125,-0.140625,-0.5078125,9.820312,0,0.001953125,0.00390625,0.2246094,-0.02539062,0,-0.03430176,0.0006103516,0.0447998,0,0,0.0447998,0,4.075,0,0,0,0,nan,2,0.047,0,0,0,0,0,0,0,0,0,1,2
127.068,0.001011,0.0078125,-0.001953125,-0.00390625,-0.0703125,-0.15625,9.78125,0,0,-0.00390625,0.2246094,-0.02539062,0,-0.03417969,0.0004882812,0.0447998,0,0,0.0447998,0,4.075,0,0,0,0,nan,2,0.058,0,0,0,0,0,0,0,0,0,1,2
127.078,0.00101,-0.005859375,0.005859375,-0.01171875,-0.109375,-0.171875,9.78125,-0.00390625,0.001953125,-0.00390625,0.2246094,-0.02539062,0,-0.03417969,0.0004882812,0.0447998,0,0,0.0447998,0,4.077,0,0,0,0,nan,2,0.068,0,0,0,0,0,0,0,0,0,1,2
127.088,0.001011,-0.005859375,-0.00390625,-0.001953125,0.0390625,-0.3125,9.78125,-0.001953125,0,0.009765625,0.2246094,-0.02539062,0,-0.03405762,0.0003662109,0.0447998,0,0,0.0447998,0,4.077,0,0,0,0,nan,2,0.078,0,0,0,0,0,0,0,0,0,1,2
127.098,0.00101,-0.001953125,0.005859375,0.02148438,0.2109375,-0.375,9.890625,0,0.001953125,0.00390625,0.2246094,-0.02539062,0,-0.03393555,0.0004882812,0.04467773,0,0,0.04467773,0,4.077,0,0,0,0,nan,2,0.088,0,0,0,0,0,0,0,0,0,1,2
127.107,0.001009,0,0,-0.02148438,-0.15625,-0.3828125,9.765625,0,-0.001953125,-0.0078125,0.2246094,-0.02539062,0,-0.03381348,0.0002441406,0.0447998,0,0,0.0447998,0,4.077,0,0,0,0,nan,2,0.097,0,0,0,0,0,0,0,0,0,1,2
127.117,0.00101,0,0,0.005859375,0.09375,-0.1875,9.710938,-0.001953125,0.00390625,0.009765625,0.2246094,-0.02539062,0,-0.03381348,0.0003662109,0.0447998,0,0,0.0447998,0,4.077,0,0,0,0,nan,2,0.107,0,0,0,0,0,0,0,0,0,1,2
127.127,0.001011,-0.00390625,0,0.005859375,-0.25,-0.4921875,9.765625,0,0,-0.00390625,0.2246094,-0.02539062,0,-0.03369141,0.0001220703,0.0447998,0,0,0.0447998,0,4.077,0,0,0,0,nan,2,0.117,0,0,0,0,0,0,0,0,0,1,2
127.138,0.001016,0.001953125,-0.001953125,-0.001953125,0.1875,-0.2109375,9.796875,-0.001953125,0.001953125,0,0.2246094,-0.02539062,0,-0.03369141,0.0002441406,0.0447998,0,0,0.0447998,0,4.077,0,0,0,0,nan,2,0.127,0,0,0,0,0,0,0,0,0,1,2
127.148,0.001008,0.001953125,0.00390625,-0.001953125,-0.0234375,-0.5390625,9.84375,0.001953125,0,0.001953125,0.2246094,-0.02539062,0,-0.03356934,0.0001220703,0.0447998,0,0,0.0447998,0,4.077,0,0,0,0,nan,2,0.137,0,0,0,0,0,0,0,0,0,1,2
127.158,0.00101,-0.001953125,-0.00390625,0.005859375,-0.0234375,-0.171875,9.835938,-0.00390625,0,0.001953125,0.2246094,-0.02539062,0,-0.03369141,0,0.0447998,0,0,0.0447998,0,4.077,0,0,0,0,nan,2,0.147,0,0,0,0,0,0,0,0,0,1,2
127.168,0.001009,0,0.001953125,-0.009765625,0.078125,-0.4921875,9.875,0.00390625,0,-0.005859375,0.2246094,-0.02539062,0,-0.03344727,0,0.0447998,0,0,0.0447998,0,4.077,0,0,0,0,nan,2,0.158,0,0,0,0,0,0,0,0,0,1,2
127.178,0.00101,-0.001953125,0.001953125,0.005859375,-0.0234375,-0.171875,9.820312,-0.001953125,0.001953125,0.001953125,0.2246094,-0.02539062,0,-0.03344727,-0.0001220703,0.0447998,0,0,0.0447998,0,4.077,0,0,0,0,nan,2,0.168,0,0,0,0,0,0,0,0,0,1,2
127.188,0.001009,-0.001953125,-0.001953125,-0.001953125,0.0390625,-0.375,9.835938,0,0,0,0.2246094,-0.02539062,0,-0.0333252,-0.0001220703,0.0447998,0,0,0.0447998,0,4.077,0,0,0,0,nan,2,0.178,0,0,0,0,0,0,0,0,0,1,2
127.198,0.00101,0,0.001953125,-0.00390625,-0.015625,-0.2890625,9.828125,0,0.001953125,-0.001953125,0.2246094,-0.02539062,0,-0.0333252,-0.0001220703,0.0447998,0,0,0.0447998,0,4.077,0,0,0,0,nan,2,0.188,0,0,0,0,0,0,0,0,0,1,2
127.207,0.001011,-0.005859375,-0.00390625,0,0.03125,-0.3125,9.820312,-0.001953125,0,0.001953125,0.2246094,-0.02539062,0,-0.0333252,-0.0002441406,0.0447998,0,0,0.0447998,0,4.077,0,0,0,0,nan,2,0.197,0,0,0,0,0,0,0,0,0,1,2
127.217,0.001011,-0.001953125,0.001953125,0,0.03125,-0.265625,9.8125,-0.001953125,0.001953125,-0.001953125,0.2246094,-0.02539062,0,-0.03320312,-0.0002441406,0.04467773,0,0,0.04467773,0,4.077,0,0,0,0,nan,2,0.207,0,0,0,0,0,0,0,0,0,1,2
127.227,0.001011,0.001953125,-0.001953125,0,0.046875,-0.3046875,9.773438,0.001953125,0,0,0.2246094,-0.02539062,0,-0.03320312,-0.0002441406,0.04467773,0,0,0.04467773,0,4.077,0,0,0,0,nan,2,0.217,0,0,0,0,0,0,0,0,0,1,2
127.238,0.00101,-0.001953125,0.001953125,0,0,-0.34375,9.867188,-0.001953125,0,0,0.2246094,-0.02539062,0,-0.03308105,-0.0003662109,0.0447998,0,0,0.0447998,0,4.077,0,0,0,0,nan,2,0.227,0,0,0,0,0,0,0,0,0,1,2
127.248,0.00101,-0.001953125,0.001953125,-0.001953125,0.0625,-0.2734375,9.835938,-0.001953125,0,-0.001953125,0.2246094,-0.02539062,0,-0.03308105,-0.0003662109,0.04467773,0,0,0.04467773,0,4.077,0,0,0,0,nan,2,0.237,0,0,0,0,0,0,0,0,0,1,2
127.258,0.001011,-0.001953125,-0.001953125,0,0,-0.3046875,9.828125,-0.001953125,0,0,0.2246094,-0.02539062,0,-0.03295898,-0.0003662109,0.04467773,0,0,0.04467773,0,4.077,0,0,0,0,nan,2,0.247,0,0,0,0,0,0,0,0,0,1,2
127.268,0.001011,-0.001953125,0.00390625,0.001953125,-0.015625,-0.2890625,9.851562,0,0,0,0.2246094,-0.02539062,0,-0.03295898,-0.0004882812,0.04467773,0,0,0.04467773,0,4.077,0,0,0,0,nan,2,0.258,0,0,0,0,0,0,0,0,0,1,2
127.278,0.00101,-0.00390625,0.001953125,0.001953125,0.0234375,-0.28125,9.773438,-0.001953125,0,0,0.2246094,-0.02539062,0,-0.03283691,-0.0004882812,0.04467773,0,0,0.04467773,0,4.077,0,0,0,0,nan,2,0.268,0,0,0,0,0,0,0,0,0,1,2
127.288,0.001011,0.001953125,0,-0.001953125,0.046875,-0.296875,9.804688,0,0,0,0.2246094,-0.02539062,0,-0.03283691,-0.0004882812,0.04467773,0,0,0.04467773,0,4.077,0,0,0,0,nan,2,0.008,0,0,0,0,0,0,0,0,0,1,2
127.298,0.001011,0,0.001953125,-0.001953125,0.046875,-0.2578125,9.835938,0,0.001953125,-0.001953125,0.2246094,-0.02539062,0,-0.03283691,-0.0006103516,0.04467773,0,0,0.04467773,0,4.077,0,0,0,0,nan,2,0.018,0,0,0,0,0,0,0,0,0,1,2
127.307,0.001019,0,0.001953125,-0.001953125,0,-0.2890625,9.828125,-0.001953125,0.001953125,-0.001953125,0.2246094,-0.02539062,0,-0.03271484,-0.0007324219,0.04467773,0,0,0.04467773,0,4.077,0,0,0,0,nan,2,0.027,0,0,0,0,0,0,0,0,0,1,2
127.317,0.001009,0.001953125,0.00390625,0,0.0234375,-0.3125,9.765625,0.001953125,0.001953125,0,0.2246094,-0.02539062,0,-0.03259277,-0.0007324219,0.04467773,0,0,0.04467773,0,4.077,0,0,0,0,nan,2,0.037,0,0,0,0,0,0,0,0,0,1,2
127.327,0.001008,0,0,0.001953125,0.046875,-0.3046875,9.90625,-0.001953125,0,0.001953125,0.2246094,-0.02539062,0,-0.03259277,-0.0007324219,0.04467773,0,0,0.04467773,0,4.077,0,0,0,0,nan,2,0.047,0,0,0,0,0,0,0,0,0,1,2
127.338,0.001009,0.001953125,0.001953125,0,0.0078125,-0.2578125,9.8125,0,0,0,0.2246094,-0.02539062,0,-0.0324707,-0.0008544922,0.04467773,0,0,0.04467773,0,4.077,0,0,0,0,nan,2,0.058,0,0,0,0,0,0,0,0,0,1,2
127.348,0.001009,0.001953125,-0.00390625,-0.001953125,0.0390625,-0.328125,9.765625,0,0.001953125,0,0.2246094,-0.02539062,0,-0.0324707,-0.0008544922,0.04467773,0,0,0.04467773,0,4.077,0,0,0,0,nan,2,0.068,0,0,0,0,0,0,0,0,0,1,2
127.358,0.001009,0,0.001953125,0.001953125,0.046875,-0.3046875,9.875,0,0.001953125,0,0.2246094,-0.02539062,0,-0.0324707,-0.0008544922,0.04467773,0,0,0.04467773,0,4.077,0,0,0,0,nan,2,0.078,0,0,0,0,0,0,0,0,0,1,2
127.368,0.001009,-0.001953125,0,-0.001953125,0.015625,-0.2890625,9.8125,-0.001953125,0,-0.001953125,0.2246094,-0.02539062,0,-0.03234863,-0.0009765625,0.04467773,0,0,0.04467773,0,4.077,0,0,0,0,nan,2,0.088,0,0,0,0,0,0,0,0,0,1,2
127.378,0.001009,0,0.001953125,0,0.046875,-0.296875,9.835938,0.001953125,0,0,0.2246094,-0.02539062,0,-0.03234863,-0.0009765625,0.04467773,0,0,0.04467773,0,4.077,0,0,0,0,nan,2,0.098,0,0,0,0,0,0,0,0,0,1,2
127.388,0.001009,-0.001953125,-0.001953125,-0.001953125,0.0078125,-0.3046875,9.804688,-0.001953125,0,0,0.2246094,-0.02539062,0,-0.03222656,-0.0009765625,0.04467773,0,0,0.04467773,0,4.077,0,0,0,0,nan,2,0.108,0,0,0,0,0,0,0,0,0,1,2
127.398,0.001009,0,0.001953125,0,0.0078125,-0.3515625,9.742188,-0.001953125,0,0,0.2246094,-0.02539062,0,-0.03222656,-0.0009765625,0.04467773,0,0,0.04467773,0,4.077,0,0,0,0,nan,2,0.118,0,0,0,0,0,0,0,0,0,1,2
127.407,0.001012,0.001953125,0.001953125,0,0.046875,-0.3359375,9.820312,0,0,0,0.2246094,-0.02539062,0,-0.03222656,-0.001098633,0.04467773,0,0,0.04467773,0,4.077,0,0,0,0,nan,2,0.127,0,0,0,0,0,0,0,0,0,1,2
127.417,0.001011,0.001953125,-0.001953125,-0.001953125,0.0390625,-0.3046875,9.820312,0,0.001953125,-0.001953125,0.2246094,-0.02539062,0,-0.03222656,-0.001098633,0.04467773,0,0,0.04467773,0,4.077,0,0,0,0,nan,2,0.137,0,0,0,0,0,0,0,0,0,1,2
127.427,0.001014,-0.001953125,-0.001953125,0.001953125,0.0078125,-0.3046875,9.835938,0,0,0.001953125,0.2246094,-0.02539062,0,-0.03210449,-0.001098633,0.04467773,0,0,0.04467773,0,4.077,0,0,0,0,nan,2,0.147,0,0,0,0,0,0,0,0,0,1,2
127.438,0.00119,-0.001953125,0,-0.001953125,0.0390625,-0.28125,9.828125,-0.001953125,0,-0.001953125,0.2246094,-0.02539062,0,-0.03210449,-0.001220703,0.04467773,0,0,0.04467773,0,4.077,0,0,0,0,nan,2,0.158,0,0,0,0,0,0,0,0,0,1,2
