t,dt_s,gyro_x,gyro_y,gyro_z,acc_x,acc_y,acc_z,rates.x,rates.y,rates.z,ratesTarget.x,ratesTarget.y,ratesTarget.z,attitude.x,attitude.y,attitude.z,attitudeTarget.x,attitudeTarget.y,attitudeTarget.z,thrustTarget,battery_v,rc_roll,rc_pitch,rc_yaw,rc_throttle,rc_mode,flight_mode,rc_age_s,armed,fault_mask,motor_rl,motor_rr,motor_fr,motor_fl,rate_i_x,rate_i_y,rate_i_z,mix_scale,control_source
6616.032,0.000991,0.07421875,-0.02929688,0.02539062,-1.273438,2.96875,15.96094,0.06054688,-0.01953125,-0.001953125,0.1777344,-0.01367188,0,-0.02954102,0.002197266,-2.047852,0,0,-2.042969,0.1421204,4.059,0,0,0,0.09997559,nan,2,0.065,1,0,0.1773071,0.1128235,0.1737671,0.1045227,0.0009765625,0,0,1,2
6616.042,0.001014,0.046875,0.04882812,-0.02734375,0.15625,-5.570312,12.10156,0.05078125,-0.01171875,0,0.1738281,-0.01171875,0,-0.02905273,0.001953125,-2.047729,0,0,-2.042969,0.1421204,4.059,0,0,0,0.09997559,nan,2,0.075,1,0,0.1268311,0.1499634,0.1170959,0.17453,0.0009765625,0,0,1,2
6616.052,0.00101,-0.02929688,-0.03320312,0.01171875,-2.679688,-2.0625,9.34375,-0.03125,0.0078125,-0.009765625,0.1738281,-0.01171875,0,-0.02905273,0.002075195,-2.047974,0,0,-2.042969,0.1421204,4.059,0,0,0,0.09997559,nan,2,0.085,1,0,0.1749878,0.1082764,0.1357727,0.1494141,0.001953125,0,0,1,2
6616.062,0.001008,-0.1074219,0.02734375,0.009765625,-1.226562,4.257812,14.27344,-0.0234375,0.03710938,0.0078125,0.1757812,-0.01367188,0,-0.02929688,0.002319336,-2.047852,0,0,-2.042969,0.1421204,4.059,0,0,0,0.09997559,nan,2,0.095,1,0,0.1660156,0.1078186,0.1446533,0.1499329,0.001953125,0,0,1,2
6616.072,0.001024,-0.001953125,0.02734375,-0.02539062,1.234375,-0.3828125,13.95312,-0.0234375,0.009765625,-0.01953125,0.1777344,-0.01367188,0,-0.02954102,0.002441406,-2.047974,0,0,-2.042969,0.1421204,4.059,0,0,0,0.09997559,nan,2,0.105,1,0,0.1312561,0.1489258,0.1053162,0.1829224,0.001953125,0,0,1,2
6616.082,0.001008,0.08007812,0.001953125,0.01367188,1.617188,5.039062,11.83594,0.05273438,-0.015625,0.009765625,0.1757812,-0.015625,0,-0.02941895,0.002563477,-2.048096,0,0,-2.042969,0.1421204,4.059,0,0,0,0.09997559,nan,2,0.115,1,0,0.1731567,0.113678,0.1643066,0.1173096,0.001953125,0,0,1,2
6616.092,0.001008,0.005859375,-0.01367188,-0.04492188,-0.0703125,8.195312,13.74219,0.03515625,-0.03515625,-0.03125,0.1757812,-0.01171875,0,-0.0291748,0.002075195,-2.048096,0,0,-2.042969,0.1421204,4.059,0,0,0,0.09997559,nan,2,0.125,1,0,0.116272,0.1715393,0.0854187,0.1951904,0.001953125,0,0,1,2
6616.102,0.001051,-0.0234375,0.0234375,-0.01953125,0.078125,3.5,10.54688,0.001953125,0.001953125,-0.02539062,0.1757812,-0.01171875,0,-0.02929688,0.002075195,-2.04834,0,0,-2.042969,0.1421204,4.059,0,0,0,0.09997559,nan,2,0.134,1,0,0.1470337,0.1270142,0.1248169,0.1695557,0.001953125,0,0,1,2
6616.112,0.00101,0.046875,-0.01367188,-0.02539062,-2.976562,-0.640625,15.55469,0.009765625,0.01757812,-0.02148438,0.1757812,-0.01171875,0,-0.02941895,0.002075195,-2.048584,0,0,-2.042969,0.1421204,4.059,0,0,0,0.09997559,nan,2,0.005,1,0,0.1336365,0.1401062,0.1253662,0.169342,0.002929688,0,0,1,2
6616.122,0.000988,0.00390625,-0.01367188,-0.02148438,-0.5546875,-3.859375,11.57031,-0.001953125,-0.0078125,-0.02148438,0.1796875,-0.01367188,0,-0.02990723,0.002197266,-2.048828,0,0,-2.042969,0.1421204,4.059,0,0,0,0.09997559,nan,2,0.015,1,0,0.1569824,0.1312866,0.127594,0.1525574,0.002929688,0,0,1,2
6616.132,0.001011,-0.001953125,-0.02539062,-0.01757812,3.484375,-1.375,5.9375,0.00390625,-0.001953125,-0.009765625,0.1796875,-0.01367188,0,-0.03015137,0.002319336,-2.04895,0,0,-2.042969,0.1421204,4.059,0,0,0,0.09997559,nan,2,0.025,1,0,0.1516418,0.1304321,0.1292114,0.157135,0.002929688,0,0,1,2
6616.142,0.001019,0.00390625,-0.005859375,-0.02148438,-1.078125,-1.09375,4.570312,-0.009765625,0.001953125,-0.02539062,0.1816406,-0.01367188,0,-0.03027344,0.002197266,-2.049194,0,0,-2.042969,0,4.059,0,0,0,0,nan,2,0.007,1,0,0.1000061,0.1000061,0.1000061,0.1000061,0,0,0,1,2
6616.152,0.001041,0.1035156,-0.03710938,-0.04882812,-0.90625,3.960938,13.92969,0.0625,-0.015625,-0.03125,0.1816406,-0.01367188,0,-0.0300293,0.002197266,-2.049316,0,0,-2.042969,0,4.059,0,0,0,0,nan,2,0.017,1,0,0.1000061,0.1000061,0.1000061,0.1000061,0,0,0,1,2
6616.162,0.00101,0.0078125,-0.01757812,-0.05078125,-0.71875,-3.09375,15.125,0.001953125,-0.009765625,-0.05078125,0.1816406,-0.01367188,0,-0.02966309,0.001953125,-2.049805,0,0,-2.042969,0,4.059,0,0,0,0,nan,2,0.027,1,0,0.1000061,0.1000061,0.1000061,0.1000061,0,0,0,1,2
6616.172,0.00101,0.03710938,0.005859375,-0.0078125,-0.5390625,-5.0625,7.226562,-0.00390625,0.01171875,-0.02539062,0.1816406,-0.01367188,0,-0.02966309,0.001953125,-2.050171,0,0,-2.042969,0,4.059,0,0,0,0,nan,2,0.037,1,0,0.1000061,0.1000061,0.1000061,0.1000061,0,0,0,1,2
6616.182,0.000998,0.04101562,0.02539062,-0.03515625,0.796875,-2.265625,9.359375,0.03125,0.005859375,-0.02734375,0.1816406,-0.01367188,0,-0.02941895,0.002075195,-2.050415,0,0,-2.042969,0,4.059,0,0,0,0,nan,2,0.047,1,0,0.1000061,0.1000061,0.1000061,0.1000061,0,0,0,1,2
6616.192,0.001026,-0.04882812,0.02734375,-0.05664062,1.242188,0.8125,7.070312,0.001953125,0.005859375,-0.0546875,0.1816406,-0.01367188,0,-0.0291748,0.002197266,-2.050903,0,0,-2.042969,0,4.059,0,0,0,0,nan,2,0.058,1,0,0.1000061,0.1000061,0.1000061,0.1000061,0,0,0,1,2
6616.202,0.00101,-0.1074219,0.0234375,-0.05273438,-1.820312,1.9375,15.89062,-0.03710938,0.01367188,-0.04101562,0.1816406,-0.01367188,0,-0.0291748,0.002197266,-2.051392,0,0,-2.042969,0,4.059,0,0,0,0,nan,2,0.068,1,0,0.1000061,0.1000061,0.1000061,0.1000061,0,0,0,1,2
6616.212,0.001027,0.04882812,-0.02539062,-0.03320312,-2.125,-5.226562,13.1875,-0.00390625,0.01171875,-0.03710938,0.1816406,-0.01367188,0,-0.02954102,0.002319336,-2.051758,0,0,-2.042969,0,4.059,0,0,0,0,nan,2,0.077,1,0,0.1000061,0.1000061,0.1000061,0.1000061,0,0,0,1,2
6616.222,0.001043,0.015625,-0.04296875,-0.06054688,-1.25,2.117188,5.140625,0.00390625,-0.005859375,-0.05664062,0.1816406,-0.01367188,0,-0.02966309,0.002319336,-2.052246,0,0,-2.042969,0,4.059,0,0,0,0,nan,2,0.087,1,0,0.1000061,0.1000061,0.1000061,0.1000061,0,0,0,1,2
6616.232,0.001002,-0.015625,0.02148438,-0.04296875,-1.320312,-3.5,8.929688,0.001953125,0.01757812,-0.06054688,0.1796875,-0.01367188,0,-0.02990723,0.002319336,-2.052979,0,0,-2.042969,0.1421204,4.059,0,0,0,0.09997559,nan,2,0.003,1,0,0.1386108,0.1351624,0.1314697,0.1631775,0,0,0,1,2
6616.242,0.001058,0.0234375,-0.001953125,0.009765625,-3.953125,1.273438,11.84375,-0.00390625,0.00390625,-0.009765625,0.1816406,-0.01367188,0,-0.03015137,0.002441406,-2.053223,0,0,-2.042969,0.1421204,4.059,0,0,0,0.09997559,nan,2,0.013,1,0,0.1903687,0.09127808,0.1714172,0.1153564,0,0,0,1,2
6616.252,0.00101,0.01367188,-0.02148438,0.0234375,-0.90625,-0.796875,10.85938,-0.0078125,0,0.009765625,0.1816406,-0.01367188,0,-0.03027344,0.002441406,-2.053223,0,0,-2.042969,0.1421204,4.059,0,0,0,0.09997559,nan,2,0.023,1,0,0.1753235,0.1046143,0.1557922,0.1326904,0,0,0,1,2
6616.262,0.001008,-0.01171875,0.06054688,-0.03320312,-0.671875,-6.625,10.55469,-0.015625,0.03320312,-0.001953125,0.1816406,-0.01367188,0,-0.03015137,0.002319336,-2.053101,0,0,-2.042969,0.1421204,4.059,0,0,0,0.09997559,nan,2,0.033,1,0,0.1211243,0.1463013,0.106842,0.1941528,0.0009765625,0,0,1,2
6616.272,0.001012,-0.02734375,-0.01171875,0.01757812,-0.3828125,0.078125,6.859375,-0.02929688,-0.00390625,0,0.1816406,-0.01367188,0,-0.03027344,0.002319336,-2.053223,0,0,-2.042969,0.1421204,4.059,0,0,0,0.09997559,nan,2,0.043,1,0,0.1781006,0.1092224,0.1424866,0.1386108,0.0009765625,0,0,1,2
6616.282,0.001008,0.00390625,0.06054688,0.02734375,0.8515625,-2.789062,14.64844,-0.01171875,0.0234375,0.0390625,0.1835938,-0.01367188,0,-0.03051758,0.002319336,-2.052979,0,0,-2.042969,0.1421204,4.059,0,0,0,0.09997559,nan,2,0.054,1,0,0.1816406,0.08929443,0.1711426,0.1263733,0.0009765625,0,0,1,2
6616.292,0.001012,-0.0703125,0.02148438,-0.01367188,0.28125,-7.851562,11.78125,-0.01171875,-0.01171875,0.00390625,0.1835938,-0.015625,0,-0.03051758,0.002441406,-2.052734,0,0,-2.042969,0.1421204,4.059,0,0,0,0.09997559,nan,2,0.064,1,0,0.1356506,0.1523743,0.1039429,0.1764526,0.0009765625,0,0,1,2
6616.302,0.001027,-0.0625,0.00390625,0.02929688,-3.71875,-1.90625,14.00781,-0.01171875,-0.01171875,0.0234375,0.1835938,-0.01367188,0,-0.03051758,0.002441406,-2.052612,0,0,-2.042969,0.1421204,4.059,0,0,0,0.09997559,nan,2,0.073,1,0,0.1808777,0.1027832,0.1498413,0.1349182,0.0009765625,0,0,1,2
6616.312,0.00104,-0.0546875,0.1152344,-0.015625,-2.78125,-5.304688,12.35938,-0.02929688,0.03515625,-0.02148438,0.1835938,-0.01367188,0,-0.03051758,0.002319336,-2.052734,0,0,-2.042969,0.1421204,4.059,0,0,0,0.09997559,nan,2,0.083,1,0,0.1166687,0.1464844,0.09725952,0.2080078,0.001953125,0,0,1,2
6616.322,0.000991,0.001953125,-0.02734375,-0.0078125,-0.953125,-8.359375,4.351562,-0.005859375,-0.01171875,-0.00390625,0.1855469,-0.015625,0,-0.03100586,0.002441406,-2.052734,0,0,-2.042969,0.1421204,4.059,0,0,0,0.09997559,nan,2,0.093,1,0,0.1595764,0.129303,0.1323853,0.1471558,0.001953125,0,0,1,2
6616.332,0.001007,-0.03710938,0.001953125,-0.0390625,0.140625,-5.53125,3.46875,-0.001953125,-0.001953125,-0.02929688,0.1855469,-0.015625,0,-0.03088379,0.002441406,-2.052979,0,0,-2.042969,0.1421204,4.059,0,0,0,0.09997559,nan,2,0.103,1,0,0.1237793,0.1584167,0.09729004,0.1889343,0.001953125,0,0,1,2
6616.342,0.000966,-0.01953125,0.06445312,0,-0.3515625,-0.359375,9.039062,-0.04492188,0.0390625,-0.01757812,0.1855469,-0.01367188,0,-0.03112793,0.002441406,-2.053223,0,0,-2.042969,0.1421204,4.059,0,0,0,0.09997559,nan,2,0.113,1,0,0.1680908,0.09661865,0.145874,0.1578674,0.001953125,0,0,1,2
6616.352,0.001,0.01367188,0.001953125,-0.03320312,-2.148438,4.601562,14.77344,-0.005859375,0.02929688,-0.02734375,0.1875,-0.015625,0,-0.03125,0.002685547,-2.053345,0,0,-2.042969,0.1421204,4.059,0,0,0,0.09997559,nan,2,0.123,1,0,0.1193848,0.1583862,0.1043701,0.1862793,0.001953125,0,0,1,2
6616.362,0.001037,-0.01953125,-0.1113281,0,-2.625,3.375,12.78125,-0.001953125,-0.04296875,-0.005859375,0.1894531,-0.015625,0,-0.03161621,0.002441406,-2.053589,0,0,-2.042969,0.1421204,4.059,0,0,0,0.09997559,nan,2,0.001,1,0,0.1803284,0.1207581,0.1364441,0.1308899,0.002929688,0,0,1,2
6616.372,0.000985,0.09570312,0.05664062,-0.02734375,2.710938,0.0859375,12.53125,0.02929688,0.03320312,-0.02539062,0.1914062,-0.015625,0,-0.03173828,0.002563477,-2.053711,0,0,-2.042969,0.1421204,4.059,0,0,0,0.09997559,nan,2,0.011,1,0,0.1182556,0.150116,0.1238403,0.176239,0.002929688,0,0,1,2
6616.382,0.000985,-0.03320312,0.00390625,-0.01367188,4.078125,2.289062,5.515625,-0.009765625,0.01953125,-0.015625,0.1914062,-0.01757812,0,-0.03186035,0.002807617,-2.053955,0,0,-2.042969,0.1421204,4.059,0,0,0,0.09997559,nan,2,0.021,1,0,0.1629639,0.1185303,0.1345825,0.1523132,0.002929688,0,0,1,2
6616.392,0.000989,-0.009765625,0.009765625,-0.02539062,-3.21875,-7.09375,7.359375,-0.009765625,0.00390625,-0.03515625,0.1914062,-0.01757812,0,-0.03198242,0.002929688,-2.054199,0,0,-2.042969,0,4.059,0,0,0,0,nan,2,0,1,0,0.1000061,0.1000061,0.1000061,0.1000061,0,0,0,1,2
6616.402,0.001011,0.0078125,0.03710938,-0.03515625,-3.898438,3,15.88281,0.01953125,-0.001953125,-0.0234375,0.1914062,-0.01757812,0,-0.03173828,0.002685547,-2.054443,0,0,-2.042969,0,4.059,0,0,0,0,nan,2,0.011,1,0,0.1000061,0.1000061,0.1000061,0.1000061,0,0,0,1,2
6616.413,0.001013,0.0234375,0.0703125,-0.015625,2.28125,-2.617188,10.25781,0.0234375,0.01367188,-0.02929688,0.1914062,-0.01757812,0,-0.03125,0.002563477,-2.05481,0,0,-2.042969,0,4.059,0,0,0,0,nan,2,0.021,1,0,0.1000061,0.1000061,0.1000061,0.1000061,0,0,0,1,2
6616.422,0.000998,0.04882812,-0.03320312,-0.07421875,-0.6796875,-3.429688,8.4375,0.005859375,0.015625,-0.04882812,0.1914062,-0.01757812,0,-0.03125,0.002685547,-2.055176,0,0,-2.042969,0,4.059,0,0,0,0,nan,2,0.03,1,0,0.1000061,0.1000061,0.1000061,0.1000061,0,0,0,1,2
6616.432,0.001004,0.02734375,-0.005859375,-0.08398438,-0.796875,-4.054688,3.203125,0.009765625,-0.009765625,-0.08007812,0.1914062,-0.01757812,0,-0.03112793,0.002685547,-2.055786,0,0,-2.042969,0,4.059,0,0,0,0,nan,2,0.04,1,0,0.1000061,0.1000061,0.1000061,0.1000061,0,0,0,1,2
6616.442,0.001028,-0.01757812,0.03125,-0.05078125,-3.101562,3.046875,8.976562,0.02148438,0.001953125,-0.05273438,0.1914062,-0.01757812,0,-0.03088379,0.002807617,-2.056519,0,0,-2.042969,0,4.059,0,0,0,0,nan,2,0.051,1,0,0.1000061,0.1000061,0.1000061,0.1000061,0,0,0,1,2
6616.452,0.00102,-0.001953125,-0.0078125,-0.08007812,0.703125,-4.453125,5.140625,0.0078125,0.005859375,-0.06640625,0.1914062,-0.01757812,0,-0.03076172,0.002807617,-2.057007,0,0,-2.042969,0,4.059,0,0,0,0,nan,2,0.061,1,0,0.1000061,0.1000061,0.1000061,0.1000061,0,0,0,1,2
6616.462,0.001024,-0.01953125,0.03710938,-0.05859375,-0.1484375,5.414062,8.835938,-0.005859375,0,-0.06835938,0.1914062,-0.01757812,0,-0.03076172,0.002563477,-2.057739,0,0,-2.042969,0,4.059,0,0,0,0,nan,2,0.071,1,0,0.1000061,0.1000061,0.1000061,0.1000061,0,0,0,1,2
6616.472,0.00101,-0.08984375,0.02539062,-0.04296875,-2.007812,-4.992188,10.67969,-0.046875,0.01757812,-0.04492188,0.1914062,-0.01757812,0,-0.03076172,0.002685547,-2.058228,0,0,-2.042969,0,4.059,0,0,0,0,nan,2,0.081,1,0,0.1000061,0.1000061,0.1000061,0.1000061,0,0,0,1,2
6616.482,0.001013,-0.06054688,0.07226562,-0.001953125,-0.3125,1.195312,12.28125,-0.04101562,0.03125,0,0.1914062,-0.01757812,0,-0.03112793,0.003051758,-2.058472,0,0,-2.042969,0,4.059,0,0,0,0,nan,2,0.091,1,0,0.1000061,0.1000061,0.1000061,0.1000061,0,0,0,1,2
6616.492,0.00101,-0.01953125,0.02929688,-0.06445312,1.632812,1.328125,11.73438,-0.005859375,0.005859375,-0.03710938,0.1914062,-0.01757812,0,-0.03125,0.003173828,-2.058594,0,0,-2.042969,0,4.059,0,0,0,0,nan,2,0.101,1,0,0.1000061,0.1000061,0.1000061,0.1000061,0,0,0,1,2
6616.503,0.001036,-0.01757812,-0.09179688,-0.00390625,1.445312,-2.523438,9.703125,-0.009765625,-0.0234375,-0.02539062,0.1875,-0.01757812,0,-0.03137207,0.003051758,-2.05896,0,0,-2.042969,0.1842041,4.059,0,0,0,0.1500244,nan,2,0,1,0,0.1887512,0.1802063,0.1643066,0.2035522,0,0,0,1,2
6616.512,0.001007,0.01171875,-0.005859375,0.009765625,2.765625,-1.84375,5.453125,0.00390625,0,-0.00390625,0.1894531,-0.01757812,0,-0.03137207,0.003051758,-2.059204,0,0,-2.042969,0.1842041,4.059,0,0,0,0.1500244,nan,2,0.009,1,0,0.2183533,0.1465759,0.2024841,0.1694336,0,0,0,1,2
6616.522,0.000989,0.01171875,-0.0625,0.01367188,0.90625,5.421875,13.05469,0.01367188,-0.01367188,0,0.1894531,-0.01953125,0,-0.03149414,0.003051758,-2.059204,0,0,-2.042969,0.1842041,4.067,0,0,0,0.1500244,nan,2,0.019,1,0,0.2076416,0.168335,0.1852722,0.1755981,0,0,0,1,2
6616.532,0.001019,-0.03320312,0.02148438,0.01757812,-2.945312,3.835938,16.375,-0.02734375,0.01757812,-0.009765625,0.1914062,-0.01953125,0,-0.03186035,0.003295898,-2.059326,0,0,-2.042969,0.1842041,4.067,0,0,0,0.1500244,nan,2,0.029,1,0,0.2098999,0.1556091,0.1852112,0.1860962,0.0009765625,0,0,1,2
6616.542,0.001012,-0.05664062,-0.04296875,0.04882812,-4.023438,-0.3828125,12.54688,-0.00390625,-0.0234375,0.0390625,0.1914062,-0.01953125,0,-0.03186035,0.003295898,-2.059204,0,0,-2.042969,0.1842041,4.067,0,0,0,0.1500244,nan,2,0.039,1,0,0.2512817,0.1245422,0.2174988,0.1435242,0.0009765625,0,0,1,2
6616.552,0.001012,0.015625,-0.0234375,-0.00390625,-0.109375,4.664062,17.375,0.03710938,-0.01171875,0.009765625,0.1914062,-0.02148438,0,-0.03210449,0.003540039,-2.05896,0,0,-2.042969,0.1842041,4.067,0,0,0,0.1500244,nan,2,0.049,1,0,0.1796875,0.1955566,0.1616211,0.1999817,0.0009765625,0,0,1,2
6616.562,0.001012,-0.07421875,0.01953125,0.009765625,-1.71875,5.578125,12.75781,-0.02734375,-0.009765625,0.001953125,0.1914062,-0.01953125,0,-0.03198242,0.003417969,-2.05896,0,0,-2.042969,0.1842041,4.067,0,0,0,0.1500244,nan,2,0.06,1,0,0.1960754,0.1697998,0.1548767,0.2160645,0.0009765625,0,0,1,2
6616.572,0.00101,0.03125,-0.04296875,0.001953125,2.875,0.1953125,1.84375,-0.001953125,-0.0078125,0.00390625,0.1953125,-0.01953125,0,-0.03234863,0.003295898,-2.05896,0,0,-2.042969,0.1842041,4.067,0,0,0,0.1500244,nan,2,0.07,1,0,0.1985779,0.1731567,0.1745605,0.1905518,0.0009765625,0,0,1,2
6616.582,0.00102,-0.078125,-0.04296875,-0.05859375,1.726562,-0.671875,6.28125,-0.009765625,-0.01171875,-0.03320312,0.1953125,-0.01953125,0,-0.0324707,0.003173828,-2.059082,0,0,-2.042969,0.1842041,4.067,0,0,0,0.1500244,nan,2,0.08,1,0,0.1533203,0.2173462,0.1185303,0.2476501,0.001953125,0,0,1,2
6616.592,0.001004,-0.01757812,-0.0234375,-0.04882812,3.492188,-1.757812,9.664062,0.005859375,-0.005859375,-0.04492188,0.1953125,-0.01757812,0,-0.03271484,0.002807617,-2.05957,0,0,-2.042969,0.1842041,4.067,0,0,0,0.1500244,nan,2,0.09,1,0,0.1805115,0.1850891,0.1610718,0.2101746,0.001953125,0,0,1,2
6616.602,0.001004,-0.06640625,0.02148438,-0.05859375,1.726562,-6.640625,9.398438,-0.02539062,0.02734375,-0.06445312,0.1972656,-0.01757812,0,-0.03283691,0.003051758,-2.060181,0,0,-2.042969,0.1842041,4.067,0,0,0,0.1500244,nan,2,0.1,1,0,0.17453,0.1837158,0.1467896,0.2318115,0.001953125,0,0,1,2
6616.613,0.001008,-0.0234375,-0.01367188,-0.08398438,2.523438,-1,13.95312,-0.00390625,-0.0078125,-0.05664062,0.1972656,-0.01953125,0,-0.03295898,0.003051758,-2.060669,0,0,-2.042969,0.1842041,4.067,0,0,0,0.1500244,nan,2,0.11,1,0,0.1704102,0.2021179,0.1385193,0.2257996,0.001953125,0,0,1,2
6616.622,0.001006,-0.01953125,-0.01757812,-0.0703125,0.828125,0.359375,4.515625,0.01171875,-0.001953125,-0.07617188,0.1992188,-0.01757812,0,-0.0333252,0.003051758,-2.061401,0,0,-2.042969,0.1842041,4.067,0,0,0,0.1500244,nan,2,0.119,1,0,0.171814,0.1947021,0.1483154,0.2220154,0.001953125,0,0,1,2
6616.632,0.000999,0.0390625,0.06445312,-0.0703125,0.6875,-2.351562,4.179688,-0.001953125,0.005859375,-0.078125,0.1992188,-0.01953125,0,-0.0333252,0.003051758,-2.062134,0,0,-2.042969,0,4.067,0,0,0,0,nan,2,0.004,1,0,0.1000061,0.1000061,0.1000061,0.1000061,0,0,0,1,2
6616.642,0.001004,-0.0078125,-0.05859375,-0.07617188,2.742188,-1.875,5.078125,-0.0234375,-0.02148438,-0.08203125,0.1992188,-0.01953125,0,-0.03344727,0.003051758,-2.062988,0,0,-2.042969,0,4.067,0,0,0,0,nan,2,0.014,1,0,0.1000061,0.1000061,0.1000061,0.1000061,0,0,0,1,2
6616.652,0.00098,-0.06835938,-0.05859375,-0.0625,0.7578125,-7.507812,7.820312,0.009765625,-0.01171875,-0.06640625,0.1992188,-0.01757812,0,-0.0333252,0.002807617,-2.063721,0,0,-2.042969,0.1842041,4.067,0,0,0,0.1500244,nan,2,0.006,1,0,0.1918335,0.1737976,0.1687927,0.2024231,0,0,0,1,2
6616.662,0.001001,0.1152344,0.02539062,-0.1054688,3.132812,-4.429688,6.039062,0.01367188,0.005859375,-0.078125,0.2011719,-0.01953125,0,-0.03344727,0.003173828,-2.064453,0,0,-2.042969,0.1842041,4.067,0,0,0,0.1500244,nan,2,0.016,1,0,0.1407166,0.2205505,0.1305237,0.2450562,0,0,0,1,2
6616.672,0.001011,-0.005859375,0.01757812,-0.078125,2.179688,-1.414062,13.40625,0.0078125,0.02148438,-0.07421875,0.2011719,-0.01953125,0,-0.0333252,0.003295898,-2.065186,0,0,-2.042969,0.1842041,4.067,0,0,0,0.1500244,nan,2,0.026,1,0,0.1807556,0.1774902,0.1573486,0.2212524,0.0009765625,0,0,1,2
6616.682,0.001007,-0.0703125,0.01171875,-0.09960938,0.0390625,-6.25,8.109375,-0.015625,-0.01171875,-0.1054688,0.2011719,-0.01953125,0,-0.03344727,0.003295898,-2.066284,0,0,-2.042969,0.1842041,4.067,0,0,0,0.1500244,nan,2,0.036,1,0,0.1607361,0.210083,0.1247559,0.2412415,0.0009765625,0,0,1,2
6616.692,0.001011,-0.08984375,-0.03710938,-0.07226562,-2.71875,-8.507812,5.171875,-0.005859375,-0.005859375,-0.07421875,0.2011719,-0.01953125,0,-0.03369141,0.003295898,-2.067139,0,0,-2.042969,0.1842041,4.067,0,0,0,0.1500244,nan,2,0.046,1,0,0.194519,0.1730347,0.1659851,0.2033081,0.0009765625,0,0,1,2
6616.703,0.001028,0.03320312,0.02539062,-0.04492188,-1.773438,-5.734375,12.28125,0.0078125,0.001953125,-0.08203125,0.2011719,-0.01953125,0,-0.03356934,0.003295898,-2.067993,0,0,-2.042969,0.1842041,4.067,0,0,0,0.1500244,nan,2,0.057,1,0,0.1849976,0.1815796,0.164978,0.2052917,0.0009765625,0,0,1,2
6616.712,0.001057,-0.078125,-0.01757812,-0.02539062,-3.828125,1.101562,11.54688,-0.05273438,-0.01953125,-0.06445312,0.2011719,-0.01953125,0,-0.03369141,0.003173828,-2.068848,0,0,-2.042969,0.1842041,4.067,0,0,0,0.1500244,nan,2,0.066,1,0,0.2507935,0.1229248,0.1923218,0.1707764,0.0009765625,0,0,1,2
6616.722,0.001008,-0.2949219,-0.02148438,-0.0625,1.085938,-1.78125,6.921875,-0.171875,-0.04882812,-0.05664062,0.2089844,-0.01757812,0,-0.03466797,0.002807617,-2.069336,0,0,-2.042969,0.1842041,4.067,0,0,0,0.1500244,nan,2,0.076,1,0,0.2217712,0.1541138,0.1329651,0.2280273,0.001953125,0,0,1,2
6616.732,0.001004,0.0703125,-0.01367188,-0.06054688,0.640625,-7.3125,8.617188,0.0390625,0.01171875,-0.06445312,0.2109375,-0.015625,0,-0.03527832,0.002563477,-2.069946,0,0,-2.042969,0.1842041,4.067,0,0,0,0.1500244,nan,2,0.086,1,0,0.1417236,0.2163086,0.1594543,0.2193298,0.001953125,0,0,1,2
6616.742,0.001013,0.2070312,-0.01367188,-0.05664062,-2.203125,-3.023438,14.3125,0.1660156,0.02734375,-0.06445312,0.2050781,-0.01757812,0,-0.03417969,0.002807617,-2.070679,0,0,-2.042969,0.1842041,4.067,0,0,0,0.1500244,nan,2,0.096,1,0,0.1598206,0.2034912,0.1842346,0.1893005,0.001953125,0,0,1,2
6616.752,0.001009,0.1132812,0.2167969,-0.05273438,-1.59375,3.726562,16.09375,0.07617188,0.06445312,-0.05664062,0.2011719,-0.01953125,0,-0.03356934,0.003295898,-2.071289,0,0,-2.042969,0.1842041,4.067,0,0,0,0.1500244,nan,2,0.106,1,0,0.1730652,0.169281,0.172821,0.2216797,0.001953125,0,0,1,2
6616.762,0.001013,-0.009765625,0.0234375,-0.06054688,-0.90625,-3.828125,5.96875,0.05664062,0.06054688,-0.05273438,0.1972656,-0.0234375,0,-0.03283691,0.00390625,-2.071777,0,0,-2.042969,0.1842041,4.067,0,0,0,0.1500244,nan,2,0.116,1,0,0.1785889,0.1799927,0.1534729,0.2247925,0.001953125,0,0,1,2
6616.772,0.001015,-0.005859375,-0.07617188,-0.05859375,0.8515625,-4.203125,13.57812,0.04492188,-0.02734375,-0.06054688,0.1953125,-0.02539062,0,-0.0324707,0.004150391,-2.072388,0,0,-2.042969,0.1842041,4.067,0,0,0,0.1500244,nan,2,0.126,1,0,0.1867981,0.2018738,0.1411438,0.2070007,0.001953125,0,0,1,2
6616.782,0.00103,-0.06640625,-0.08984375,-0.06445312,-1.609375,-6.859375,9.296875,0.005859375,-0.009765625,-0.06054688,0.1953125,-0.0234375,0,-0.0324707,0.00390625,-2.07312,0,0,-2.042969,0.1842041,4.067,0,0,0,0.1500244,nan,2,0.005,1,0,0.1947327,0.17453,0.158905,0.2086792,0.002929688,0,0,1,2
6616.792,0.001013,0.05078125,0.06835938,-0.04492188,-0.8359375,3.304688,15.90625,0.03320312,0.005859375,-0.0546875,0.1953125,-0.0234375,0,-0.0324707,0.00390625,-2.073608,0,0,-2.042969,0.1842041,4.067,0,0,0,0.1500244,nan,2,0.015,1,0,0.1713867,0.1867371,0.1668091,0.2119141,0.002929688,0,0,1,2
6616.802,0.001009,0.0625,0.02539062,-0.08789062,-2.976562,3.914062,12.10156,-0.015625,0.001953125,-0.07226562,0.1933594,-0.02148438,0,-0.03234863,0.00378418,-2.074341,0,0,-2.042969,0.1842041,4.067,0,0,0,0.1500244,nan,2,0.025,1,0,0.1660461,0.1970215,0.1361389,0.2376404,0.002929688,0,0,1,2
6616.813,0.001003,0.0390625,-0.03710938,-0.04882812,4.015625,0.875,8.226562,0,-0.02734375,-0.05859375,0.1933594,-0.02148438,0,-0.03222656,0.003540039,-2.074951,0,0,-2.042969,0.1842041,4.067,0,0,0,0.1500244,nan,2,0.035,1,0,0.1981506,0.1796875,0.1577759,0.2012329,0.002929688,0,0,1,2
6616.823,0.00101,-0.1152344,-0.04296875,-0.05664062,-2.289062,-5.085938,6.4375,-0.0078125,-0.01367188,-0.0625,0.1933594,-0.02148438,0,-0.03222656,0.003540039,-2.075562,0,0,-2.042969,0.1842041,4.067,0,0,0,0.1500244,nan,2,0.045,1,0,0.1877441,0.1821289,0.1475525,0.2194214,0.002929688,0,0,1,2
6616.832,0.001013,-0.009765625,0.06445312,-0.0703125,1.5,7.09375,10.78906,0.01171875,-0.00390625,-0.06640625,0.1933594,-0.02148438,0,-0.03222656,0.003417969,-2.076172,0,0,-2.042969,0.1842041,4.067,0,0,0,0.1500244,nan,2,0.055,1,0,0.1703186,0.1920471,0.1496887,0.224762,0.00390625,0,0,1,2
6616.842,0.001011,0.1503906,-0.0078125,-0.08789062,1.460938,-2.21875,3.367188,0.03320312,-0.001953125,-0.08789062,0.1953125,-0.02148438,0,-0.0324707,0.003417969,-2.077026,0,0,-2.042969,0.1842041,4.067,0,0,0,0.1500244,nan,2,0.065,1,0,0.151825,0.2132263,0.1407166,0.2310791,0.00390625,0,0,1,2
6616.852,0.001021,-0.00390625,0.01367188,-0.09179688,0.0703125,-8.65625,4.015625,-0.009765625,-0.00390625,-0.078125,0.1972656,-0.01953125,0,-0.03283691,0.003417969,-2.077759,0,0,-2.042969,0.1842041,4.067,0,0,0,0.1500244,nan,2,0.075,1,0,0.1747131,0.1908875,0.13797,0.2333069,0.00390625,0,0,1,2
6616.862,0.001036,0.01367188,0.046875,-0.08007812,1.195312,-2.421875,15.78906,0.009765625,-0.00390625,-0.08398438,0.1953125,-0.01953125,0,-0.03271484,0.003295898,-2.078613,0,0,-2.042969,0.1842041,4.067,0,0,0,0.1500244,nan,2,0.085,1,0,0.1787415,0.1864929,0.1509094,0.2207031,0.00390625,-0.0009765625,0,1,2
6616.872,0.001044,0.02929688,-0.001953125,-0.05859375,-3.4375,3.210938,13.23438,-0.015625,0.0078125,-0.07617188,0.1953125,-0.01953125,0,-0.03259277,0.003295898,-2.079468,0,0,-2.042969,0.1842041,4.067,0,0,0,0.1500244,nan,2,0.095,1,0,0.1916504,0.1689453,0.1575928,0.2186279,0.00390625,-0.0009765625,0,1,2
6616.882,0.001005,0.09960938,0.01367188,-0.03125,0.53125,3.75,19.02344,0.015625,-0.009765625,-0.0390625,0.1953125,-0.01953125,0,-0.03259277,0.003173828,-2.080078,0,0,-2.042969,0,4.067,0,0,0,0,nan,2,0.001,1,0,0.1000061,0.1000061,0.1000061,0.1000061,0,0,0,1,2
6616.892,0.001039,0.04882812,0.078125,-0.1132812,-2.148438,4.75,12.76562,0.01953125,0.04492188,-0.08203125,0.1953125,-0.01953125,0,-0.0324707,0.003295898,-2.080566,0,0,-2.042969,0,4.067,0,0,0,0,nan,2,0.011,1,0,0.1000061,0.1000061,0.1000061,0.1000061,0,0,0,1,2
6616.902,0.001022,-0.09570312,-0.06054688,-0.07226562,-0.328125,-1.757812,6.4375,-0.01953125,-0.02734375,-0.0625,0.1953125,-0.01953125,0,-0.03234863,0.003295898,-2.081299,0,0,-2.042969,0,4.067,0,0,0,0,nan,2,0.021,1,0,0.1000061,0.1000061,0.1000061,0.1000061,0,0,0,1,2
6616.912,0.001032,0.06445312,0.02734375,-0.05664062,0.1875,-8.34375,9.359375,0.0390625,0.01757812,-0.0546875,0.1933594,-0.01953125,0,-0.03222656,0.003295898,-2.081787,0,0,-2.042969,0.1842041,4.067,0,0,0,0.1500244,nan,2,0.005,1,0,0.1604614,0.1963501,0.1640625,0.2159729,0,0,0,1,2
6616.922,0.0009860001,0.1113281,0.02929688,-0.06835938,-0.2578125,-3.96875,7.9375,0.03125,-0.01953125,-0.046875,0.1914062,-0.01953125,0,-0.03198242,0.003051758,-2.082153,0,0,-2.042969,0.1842041,4.067,0,0,0,0.1500244,nan,2,0.015,1,0,0.1691284,0.2009277,0.1494141,0.2174072,0,0,0,1,2
6616.932,0.001008,-0.03710938,-0.07226562,-0.04882812,-1.523438,3.273438,11.99219,0.03515625,-0.0234375,-0.04882812,0.1894531,-0.01757812,0,-0.03149414,0.003051758,-2.082642,0,0,-2.042969,0.1842041,4.067,0,0,0,0.1500244,nan,2,0.025,1,0,0.1833191,0.1914978,0.1539001,0.2080994,0,0,0,1,2
6616.942,0.0009869999,0.046875,0.0234375,-0.0625,-1.859375,6.039062,15.94531,0,0.03125,-0.05664062,0.1894531,-0.01757812,0,-0.03149414,0.003051758,-2.08313,0,0,-2.042969,0.1842041,4.067,0,0,0,0.1500244,nan,2,0.035,1,0,0.1588135,0.1919861,0.1515808,0.234436,0.0009765625,0,0,1,2
6616.952,0.001012,-0.09570312,0.02929688,-0.03710938,1.179688,-3.320312,7.4375,-0.03710938,-0.009765625,-0.0546875,0.1894531,-0.01757812,0,-0.03161621,0.003051758,-2.08374,0,0,-2.042969,0.1842041,4.067,0,0,0,0.1500244,nan,2,0.045,1,0,0.2002563,0.1708374,0.1530151,0.2127075,0.0009765625,0,0,1,2
6616.962,0.00096,0.02148438,-0.07226562,-0.04296875,-0.6484375,-8.125,4.140625,0.01171875,-0.015625,-0.04882812,0.1914062,-0.01757812,0,-0.03173828,0.003051758,-2.084229,0,0,-2.042969,0.1842041,4.067,0,0,0,0.1500244,nan,2,0.056,1,0,0.1844177,0.1913757,0.1592407,0.2018127,0.0009765625,0,0,1,2
6616.972,0.00103,-0.005859375,0.08984375,-0.046875,0.0625,-2.015625,11.04688,-0.01757812,0.01757812,-0.0546875,0.1894531,-0.01757812,0,-0.03173828,0.003051758,-2.084839,0,0,-2.042969,0.1842041,4.067,0,0,0,0.1500244,nan,2,0.066,1,0,0.1846008,0.1713257,0.1611938,0.2197266,0.0009765625,0,0,1,2
6616.982,0.001008,-0.07226562,0.01757812,-0.02148438,1.234375,-0.640625,11.16406,-0.015625,-0.009765625,-0.03710938,0.1894531,-0.01757812,0,-0.03161621,0.003051758,-2.085205,0,0,-2.042969,0.1842041,4.067,0,0,0,0.1500244,nan,2,0.076,1,0,0.2029724,0.1674194,0.1664429,0.1999817,0.0009765625,0,0,1,2
6616.992,0.001012,-0.005859375,-0.07421875,-0.04101562,-0.8125,8.695312,13.55469,0,-0.01171875,-0.03515625,0.1894531,-0.01757812,0,-0.03173828,0.003051758,-2.085571,0,0,-2.042969,0.1842041,4.067,0,0,0,0.1500244,nan,2,0.086,1,0,0.1790466,0.1927185,0.1520691,0.2130432,0.001953125,0,0,1,2
6617.002,0.001008,0.06054688,0.1113281,-0.06640625,-0.75,-0.640625,6.976562,0.00390625,0.005859375,-0.04882812,0.1914062,-0.01757812,0,-0.03186035,0.002807617,-2.085938,0,0,-2.042969,0.1842041,4.067,0,0,0,0.1500244,nan,2,0.096,1,0,0.1537476,0.2030945,0.143158,0.2368469,0.001953125,0,0,1,2
6617.012,0.001012,0.0078125,-0.09960938,-0.04882812,2.414062,-6.367188,10.05469,-0.0234375,-0.015625,-0.0546875,0.1914062,-0.01757812,0,-0.03198242,0.002929688,-2.086426,0,0,-2.042969,0.1842041,4.067,0,0,0,0.1500244,nan,2,0.106,1,0,0.1783447,0.1977234,0.1367493,0.2240295,0.001953125,0,0,1,2
6617.023,0.001013,-0.01171875,0.05078125,-0.03320312,-3.78125,-0.84375,15.97656,-0.02539062,0.0234375,-0.04492188,0.1914062,-0.01757812,0,-0.03198242,0.002807617,-2.086914,0,0,-2.042969,0.1842041,4.067,0,0,0,0.1500244,nan,2,0.116,1,0,0.1782837,0.1733704,0.1612244,0.2239685,0.001953125,0,0,1,2
6617.032,0.001031,0.01953125,0.0703125,-0.06835938,2.609375,-2.140625,9.289062,-0.01953125,0.02148438,-0.05859375,0.1933594,-0.015625,0,-0.03210449,0.002685547,-2.087402,0,0,-2.042969,0.1842041,4.067,0,0,0,0.1500244,nan,2,0.125,1,0,0.1593018,0.194397,0.1397095,0.2434692,0.001953125,0,0,1,2
6617.042,0.001011,-0.140625,-0.08789062,-0.04296875,-2.835938,-7.335938,7.882812,0.04882812,-0.03710938,-0.0390625,0.1914062,-0.015625,0,-0.03186035,0.002563477,-2.087769,0,0,-2.042969,0.1842041,4.067,0,0,0,0.1500244,nan,2,0.135,1,0,0.1854553,0.1963806,0.1495056,0.2055054,0.002929688,0,0,1,2
6617.052,0.001007,0.1933594,0.0078125,-0.04296875,0.0859375,4.78125,17.76562,0.1152344,-0.009765625,-0.04101562,0.1894531,-0.015625,0,-0.03149414,0.002441406,-2.088135,0,0,-2.042969,0.1842041,4.067,0,0,0,0.1500244,nan,2,0.145,1,0,0.171875,0.193512,0.1903992,0.1810608,0.002929688,0,0,1,2
6617.062,0.001007,-0.08203125,-0.02539062,-0.02148438,-1.945312,-2.9375,6.070312,-0.01171875,-0.046875,-0.01171875,0.1875,-0.01171875,0,-0.03125,0.002075195,-2.088257,0,0,-2.042969,0.1842041,4.067,0,0,0,0.1500244,nan,2,0.156,1,0,0.2138672,0.1624756,0.1580811,0.2024231,0.002929688,0,0,1,2
6617.072,0.001007,0.05664062,0.005859375,-0.01367188,0.4375,-10.32031,6.25,0.02539062,0,-0.01367188,0.1855469,-0.01171875,0,-0.03112793,0.001831055,-2.088501,0,0,-2.042969,0.1842041,4.067,0,0,0,0.1500244,nan,2,0.166,1,0,0.1952209,0.1639099,0.1879578,0.1897583,0.002929688,0,0,1,2
6617.082,0.001038,0.0234375,0.08789062,-0.02539062,2.859375,-5.078125,8.796875,0,0.01367188,-0.01953125,0.1875,-0.01171875,0,-0.03137207,0.001831055,-2.088745,0,0,-2.042969,0.1842041,4.067,0,0,0,0.1500244,nan,2,0,1,0,0.1970215,0.1617126,0.1782837,0.1998291,0.002929688,0,0,1,2
6617.092,0.001021,-0.02148438,0.0078125,0.01757812,-2.578125,4.054688,10.9375,-0.01367188,-0.009765625,0.009765625,0.1894531,-0.01171875,0,-0.03149414,0.001831055,-2.088867,0,0,-2.042969,0.1842041,4.067,0,0,0,0.1500244,nan,2,0.01,1,0,0.239502,0.1323547,0.2007446,0.1642151,0.002929688,0,0,1,2
6617.102,0.000985,0.06640625,-0.03125,0.01171875,1.546875,-0.4140625,1.429688,0.02539062,-0.00390625,0.009765625,0.1914062,-0.01171875,0,-0.03186035,0.002075195,-2.088745,0,0,-2.042969,0,4.067,0,0,0,0,nan,2,0.002,1,0,0.1000061,0.1000061,0.1000061,0.1000061,0,0,0,1,2
6617.112,0.001011,0.009765625,0.1113281,0,1.890625,1.65625,14.54688,0.001953125,0.02539062,0.01171875,0.1914062,-0.01171875,0,-0.03173828,0.001953125,-2.088623,0,0,-2.042969,0,4.067,0,0,0,0,nan,2,0.012,1,0,0.1000061,0.1000061,0.1000061,0.1000061,0,0,0,1,2
6617.122,0.00101,0.01171875,0.07226562,-0.0078125,-1.179688,2.789062,13.39844,0.0078125,0.01367188,0,0.1914062,-0.01171875,0,-0.03149414,0.002197266,-2.088501,0,0,-2.042969,0,4.067,0,0,0,0,nan,2,0.022,1,0,0.1000061,0.1000061,0.1000061,0.1000061,0,0,0,1,2
6617.133,0.000999,-0.08007812,-0.01953125,-0.04101562,3.140625,9.960938,13.97656,-0.06054688,0.04101562,-0.03320312,0.1914062,-0.01171875,0,-0.03161621,0.002319336,-2.088623,0,0,-2.042969,0,4.067,0,0,0,0,nan,2,0.032,1,0,0.1000061,0.1000061,0.1000061,0.1000061,0,0,0,1,2
6617.142,0.001012,-0.07226562,0.001953125,-0.02734375,1.1875,-6.59375,8.265625,-0.02148438,-0.00390625,-0.03710938,0.1914062,-0.01171875,0,-0.03173828,0.002441406,-2.088989,0,0,-2.042969,0,4.067,0,0,0,0,nan,2,0.041,1,0,0.1000061,0.1000061,0.1000061,0.1000061,0,0,0,1,2
6617.152,0.000979,0.02734375,0.0625,-0.0234375,0.359375,-1.289062,6.34375,0,0.03125,-0.01757812,0.1914062,-0.01171875,0,-0.03173828,0.002441406,-2.089233,0,0,-2.042969,0,4.067,0,0,0,0,nan,2,0.051,1,0,0.1000061,0.1000061,0.1000061,0.1000061,0,0,0,1,2
6617.162,0.001037,0.0390625,-0.04101562,-0.0078125,0.1640625,0.4921875,4.210938,0.005859375,0.009765625,-0.009765625,0.1914062,-0.01171875,0,-0.03186035,0.002441406,-2.089478,0,0,-2.042969,0,4.067,0,0,0,0,nan,2,0.062,1,0,0.1000061,0.1000061,0.1000061,0.1000061,0,0,0,1,2
6617.172,0.001022,-0.05078125,0.01367188,0.001953125,2.1875,6.617188,9.21875,0.001953125,-0.001953125,-0.005859375,0.1914062,-0.01171875,0,-0.03186035,0.002441406,-2.0896,0,0,-2.042969,0,4.061,0,0,0,0,nan,2,0.072,1,0,0.1000061,0.1000061,0.1000061,0.1000061,0,0,0,1,2
6617.182,0.001011,-0.03515625,-0.0234375,0.04101562,-1.148438,5.148438,12.17969,0.005859375,-0.0234375,0.03710938,0.1914062,-0.01171875,0,-0.03198242,0.002563477,-2.089478,0,0,-2.042969,0,4.061,0,0,0,0,nan,2,0.082,1,0,0.1000061,0.1000061,0.1000061,0.1000061,0,0,0,1,2
6617.192,0.001011,0.07421875,-0.0546875,0.046875,-1.523438,-2.617188,8.28125,-0.005859375,-0.015625,0.04101562,0.1914062,-0.01171875,0,-0.03186035,0.002563477,-2.088989,0,0,-2.042969,0,4.061,0,0,0,0,nan,2,0.092,1,0,0.1000061,0.1000061,0.1000061,0.1000061,0,0,0,1,2
6617.202,0.000984,0.06640625,-0.015625,0.0390625,-2.203125,2.476562,13.02344,0.03320312,-0.01757812,0.04492188,0.1914062,-0.01171875,0,-0.03173828,0.002319336,-2.088501,0,0,-2.042969,0,4.061,0,0,0,0,nan,2,0.102,1,0,0.1000061,0.1000061,0.1000061,0.1000061,0,0,0,1,2
6617.212,0.001002,-0.08984375,-0.00390625,-0.01953125,3.09375,-3.148438,8.070312,-0.05273438,0.01367188,0.00390625,0.1914062,-0.01171875,0,-0.03198242,0.002441406,-2.088257,0,0,-2.042969,0,4.061,0,0,0,0,nan,2,0.112,1,0,0.1000061,0.1000061,0.1000061,0.1000061,0,0,0,1,2
6617.222,0.001025,-0.04492188,0.04296875,-0.01757812,-0.5703125,-4.140625,6.414062,-0.0234375,0.02734375,-0.00390625,0.1933594,-0.015625,0,-0.03222656,0.002563477,-2.088257,0,0,-2.042969,0.1842041,4.061,0,0,0,0.1500244,nan,2,0.007,1,0,0.1792603,0.1771851,0.1648865,0.2154846,0,0,0,1,2
6617.232,0.001031,0.01171875,0.01757812,-0.001953125,2.546875,0.6484375,6.015625,0.009765625,0.001953125,-0.00390625,0.1933594,-0.015625,0,-0.03234863,0.002563477,-2.088257,0,0,-2.042969,0.1842041,4.061,0,0,0,0.1500244,nan,2,0.017,1,0,0.1932068,0.1743469,0.177063,0.1922302,0,0,0,1,2
6617.242,0.001012,0.015625,-0.06835938,0.01171875,2.9375,6.484375,10.6875,0.03125,-0.01171875,0.01757812,0.1933594,-0.015625,0,-0.03222656,0.002563477,-2.088135,0,0,-2.042969,0.1842041,4.061,0,0,0,0.1500244,nan,2,0.027,1,0,0.218689,0.1554871,0.198822,0.1638489,0.0009765625,0,0,1,2
6617.252,0.001008,0.02734375,0.00390625,-0.001953125,-0.3203125,3.507812,7.4375,0,-0.001953125,-0.001953125,0.1933594,-0.015625,0,-0.03222656,0.002563477,-2.088135,0,0,-2.042969,0.1842041,4.061,0,0,0,0.1500244,nan,2,0.037,1,0,0.1882935,0.1785278,0.1620483,0.2080078,0.0009765625,0,0,1,2
6617.262,0.001012,0.03320312,-0.046875,-0.00390625,4,2.929688,5.78125,0.02539062,-0.005859375,-0.009765625,0.1933594,-0.015625,0,-0.03210449,0.002563477,-2.088135,0,0,-2.042969,0.1842041,4.061,0,0,0,0.1500244,nan,2,0.047,1,0,0.1834717,0.1880493,0.1637573,0.2015381,0.0009765625,0,0,1,2
6617.272,0.001046,-0.078125,0.001953125,0.03515625,3.484375,-3.5625,3.804688,-0.01367188,-0.001953125,0.01367188,0.1953125,-0.015625,0,-0.0324707,0.002685547,-2.088257,0,0,-2.042969,0.1842041,4.061,0,0,0,0.1500244,nan,2,0.058,1,0,0.2461243,0.1199036,0.211853,0.1589661,0.0009765625,0,0,1,2
6617.282,0.001053,-0.0390625,0.0390625,0.01757812,-2.96875,-7.296875,8.875,-0.04492188,0.01171875,0.02148438,0.1972656,-0.015625,0,-0.03271484,0.002685547,-2.088135,0,0,-2.042969,0.1842041,4.061,0,0,0,0.1500244,nan,2,0.068,1,0,0.2180786,0.1437988,0.185791,0.1891785,0.0009765625,0,0,1,2
6617.292,0.001013,-0.06640625,0.03125,0.015625,0.6953125,-4.007812,12.66406,-0.05078125,0.015625,0.01367188,0.1972656,-0.015625,0,-0.03308105,0.002685547,-2.088013,0,0,-2.042969,0,4.061,0,0,0,0,nan,2,0.006,1,0,0.1000061,0.1000061,0.1000061,0.1000061,0,0,0,1,2
6617.302,0.000989,-0.01953125,-0.01171875,0.02539062,-1.335938,3.15625,12.53125,-0.01953125,-0.01367188,0.009765625,0.1972656,-0.015625,0,-0.0333252,0.002807617,-2.087891,0,0,-2.042969,0,4.061,0,0,0,0,nan,2,0.016,1,0,0.1000061,0.1000061,0.1000061,0.1000061,0,0,0,1,2
6617.312,0.001007,-0.0234375,0.01367188,0.009765625,-0.7265625,4.25,11.6875,-0.02539062,0.005859375,0.02929688,0.1972656,-0.015625,0,-0.03344727,0.002807617,-2.087524,0,0,-2.042969,0,4.061,0,0,0,0,nan,2,0.026,1,0,0.1000061,0.1000061,0.1000061,0.1000061,0,0,0,1,2
6617.323,0.001012,-0.001953125,0.03320312,0.01171875,-1.398438,3.953125,8.640625,-0.015625,0.0078125,0.02148438,0.1972656,-0.015625,0,-0.03356934,0.002807617,-2.08728,0,0,-2.042969,0,4.061,0,0,0,0,nan,2,0.036,1,0,0.1000061,0.1000061,0.1000061,0.1000061,0,0,0,1,2
6617.333,0.001011,0,-0.09375,0.0234375,0.1875,2.601562,11.78906,-0.005859375,-0.02734375,0.03125,0.1972656,-0.015625,0,-0.03369141,0.002807617,-2.087036,0,0,-2.042969,0,4.061,0,0,0,0,nan,2,0.046,1,0,0.1000061,0.1000061,0.1000061,0.1000061,0,0,0,1,2
6617.342,0.001018,0.001953125,0.001953125,0.02148438,-2.632812,4.789062,10.23438,0.00390625,-0.015625,0.02734375,0.1972656,-0.015625,0,-0.03369141,0.002685547,-2.08667,0,0,-2.042969,0,4.061,0,0,0,0,nan,2,0.056,1,0,0.1000061,0.1000061,0.1000061,0.1000061,0,0,0,1,2
6617.352,0.001194,-0.00390625,-0.04101562,0,2.578125,4.109375,12.02344,0,-0.0234375,0.01757812,0.203125,-0.01367188,0,-0.03369141,0.002441406,-2.086426,0,0,-2.042969,0.1842041,4.061,0,0,0,0.1500244,nan,2,0.001,1,0,0.1939392,0.1774597,0.1660767,0.1994019,0,0,0,1,2
6617.362,0.001008,-0.078125,0.09179688,-0.00390625,0.8828125,-2.398438,12.33594,-0.03125,0.001953125,0.009765625,0.203125,-0.01367188,0,-0.03381348,0.002319336,-2.086304,0,0,-2.042969,0.1842041,4.061,0,0,0,0.1500244,nan,2,0.011,1,0,0.1857605,0.1733704,0.1558838,0.2218628,0,0,0,1,2
6617.372,0.000963,0.05078125,-0.04492188,-0.02734375,-1.578125,-5.742188,6.8125,0,0.0078125,-0.02148438,0.2070312,-0.015625,0,-0.0345459,0.002685547,-2.086426,0,0,-2.042969,0.1842041,4.061,0,0,0,0.1500244,nan,2,0.021,1,0,0.1610107,0.2088928,0.1436157,0.2233276,0,0,0,1,2
6617.382,0.001012,0,0.001953125,0.01171875,2.875,-2.53125,6.640625,-0.0078125,0.01367188,-0.01171875,0.2089844,-0.015625,0,-0.03466797,0.002807617,-2.086548,0,0,-2.042969,0.1842041,4.061,0,0,0,0.1500244,nan,2,0.031,1,0,0.2073364,0.1539917,0.1870728,0.1884155,0.0009765625,0,0,1,2
6617.392,0.001008,0.01171875,0.04882812,0.0234375,1.4375,1.757812,3.09375,0.01367188,-0.001953125,0.005859375,0.2070312,-0.015625,0,-0.03466797,0.002685547,-2.08667,0,0,-2.042969,0.1842041,4.061,0,0,0,0.1500244,nan,2,0.041,1,0,0.2180786,0.1482239,0.1983948,0.1721802,0.0009765625,0,0,1,2
6617.403,0.001048,-0.05664062,-0.02148438,-0.02929688,2.890625,-6.101562,6.351562,-0.02539062,-0.015625,-0.005859375,0.2089844,-0.01757812,0,-0.03479004,0.002807617,-2.086548,0,0,-2.042969,0.1842041,4.061,0,0,0,0.1500244,nan,2,0.052,1,0,0.1913757,0.1836548,0.1412659,0.22052,0.0009765625,0,0,1,2
6617.413,0.000992,0.01171875,-0.04882812,0,0.7109375,-4.148438,8.601562,0.00390625,-0.005859375,-0.009765625,0.2070312,-0.015625,0,-0.03466797,0.002685547,-2.08667,0,0,-2.042969,0.1842041,4.061,0,0,0,0.1500244,nan,2,0.062,1,0,0.1997986,0.1679077,0.1695557,0.1996155,0.0009765625,0,0,1,2
6617.422,0.001016,0.09570312,0.02148438,-0.0078125,0.796875,3.804688,13.17188,-0.005859375,0,-0.009765625,0.2109375,-0.015625,0,-0.03503418,0.002563477,-2.086792,0,0,-2.042969,0.1842041,4.061,0,0,0,0.1500244,nan,2,0.071,1,0,0.1896973,0.1724243,0.1730652,0.2016602,0.001953125,0,0,1,2
6617.432,0.001011,0,-0.0078125,-0.009765625,2.59375,1.351562,5.578125,0.0078125,-0.001953125,-0.00390625,0.2109375,-0.015625,0,-0.03503418,0.002563477,-2.086792,0,0,-2.042969,0.1842041,4.061,0,0,0,0.1500244,nan,2,0.081,1,0,0.194519,0.1719666,0.171814,0.1985474,0.001953125,0,0,1,2
6617.442,0.001009,-0.1074219,0.015625,0.0234375,-1.6875,-8.539062,7.421875,-0.03125,0.00390625,0.015625,0.2109375,-0.015625,0,-0.03503418,0.002441406,-2.086792,0,0,-2.042969,0.1842041,4.061,0,0,0,0.1500244,nan,2,0.091,1,0,0.2322388,0.1292114,0.1930237,0.1823425,0.001953125,0,0,1,2
6617.452,0.001008,0.06640625,-0.08398438,0.02734375,0.265625,9.6875,12.48438,-0.01757812,0.009765625,0.009765625,0.2148438,-0.01757812,0,-0.03588867,0.002807617,-2.08667,0,0,-2.042969,0.1842041,4.061,0,0,0,0.1500244,nan,2,0.101,1,0,0.205658,0.1676941,0.1792297,0.1842651,0.001953125,0,0,1,2
6617.462,0.001007,-0.001953125,-0.00390625,-0.03320312,-2.617188,-5.914062,5.648438,-0.01953125,-0.02148438,-0.01171875,0.2148438,-0.015625,0,-0.03588867,0.002563477,-2.086548,0,0,-2.042969,0.1842041,4.061,0,0,0,0.1500244,nan,2,0.111,1,0,0.1658936,0.2037659,0.1270447,0.2401123,0.001953125,0,0,1,2
6617.472,0.001008,0.04882812,-0.01367188,-0.02148438,-0.7265625,-5.835938,7.515625,0.02929688,-0.009765625,-0.02539062,0.21875,-0.01367188,0,-0.03649902,0.002441406,-2.086792,0,0,-2.042969,0.1842041,4.061,0,0,0,0.1500244,nan,2,0.009,1,0,0.1720581,0.1937256,0.1554871,0.2155457,0.002929688,0,0,1,2
6617.482,0.001008,-0.03710938,0.07226562,-0.009765625,-0.171875,6.953125,11.57031,0,0,-0.02539062,0.21875,-0.01171875,0,-0.03637695,0.002075195,-2.087036,0,0,-2.042969,0.1842041,4.061,0,0,0,0.1500244,nan,2,0.019,1,0,0.199646,0.1573792,0.1720581,0.2077637,0.002929688,0,0,1,2
6617.492,0.001008,0.08007812,-0.07617188,-0.02929688,-2.296875,5.28125,16.92969,0.03515625,0,-0.01953125,0.2167969,-0.01367188,0,-0.03625488,0.002197266,-2.08728,0,0,-2.042969,0.1842041,4.061,0,0,0,0.1500244,nan,2,0.029,1,0,0.1883545,0.1838989,0.1689758,0.1956177,0.002929688,0,0,1,2
6617.502,0.001012,-0.125,0.125,0.01367188,1.976562,-0.890625,10.78906,-0.0234375,0.03320312,-0.01757812,0.2207031,-0.01367188,0,-0.03662109,0.002319336,-2.087646,0,0,-2.042969,0.1842041,4.061,0,0,0,0.1500244,nan,2,0.039,1,0,0.2210083,0.1319275,0.1843872,0.1994934,0.002929688,0,0,1,2
6617.512,0.00101,-0.02734375,-0.02148438,-0.04101562,1.664062,-8.335938,4.695312,0.01953125,0,-0.02539062,0.2226562,-0.015625,0,-0.0369873,0.002563477,-2.087646,0,0,-2.042969,0.1842041,4.061,0,0,0,0.1500244,nan,2,0.049,1,0,0.1615601,0.2066345,0.133667,0.2349548,0.00390625,0,0,1,2
6617.522,0.000993,-0.0625,-0.02929688,-0.04296875,-1.0625,4.195312,8.484375,-0.009765625,-0.0078125,-0.0390625,0.2226562,-0.015625,0,-0.03710938,0.002563477,-2.087891,0,0,-2.042969,0.1842041,4.061,0,0,0,0.1500244,nan,2,0.059,1,0,0.1730347,0.2003174,0.1296997,0.2337646,0.00390625,0,0,1,2
6617.532,0.001042,0.01757812,0.046875,-0.1015625,3.523438,-0.8046875,4.109375,0,0.00390625,-0.078125,0.2226562,-0.015625,0,-0.03723145,0.002441406,-2.088501,0,0,-2.042969,0,4.061,0,0,0,0,nan,2,0,1,0,0.1000061,0.1000061,0.1000061,0.1000061,0,0,0,1,2
6617.542,0.001001,0.04882812,-0.04296875,-0.08984375,2.820312,-2.945312,4.835938,-0.005859375,-0.005859375,-0.0625,0.2226562,-0.015625,0,-0.03710938,0.002563477,-2.089111,0,0,-2.042969,0,4.061,0,0,0,0,nan,2,0.01,1,0,0.1000061,0.1000061,0.1000061,0.1000061,0,0,0,1,2
6617.552,0.00099,-0.1816406,-0.06640625,-0.03320312,-0.40625,-3.5,11.45312,-0.03320312,-0.01367188,-0.05078125,0.2226562,-0.015625,0,-0.03710938,0.002441406,-2.089844,0,0,-2.042969,0,4.061,0,0,0,0,nan,2,0.02,1,0,0.1000061,0.1000061,0.1000061,0.1000061,0,0,0,1,2
6617.562,0.001021,-0.0546875,0.08007812,-0.04296875,-1.492188,-9.273438,9.351562,-0.005859375,0.02148438,-0.03320312,0.2226562,-0.015625,0,-0.03723145,0.002563477,-2.090088,0,0,-2.042969,0,4.061,0,0,0,0,nan,2,0.03,1,0,0.1000061,0.1000061,0.1000061,0.1000061,0,0,0,1,2
6617.572,0.001009,-0.08984375,0.01757812,-0.046875,-1.023438,-5.507812,9.820312,-0.05273438,-0.04101562,-0.04296875,0.2226562,-0.015625,0,-0.03723145,0.002197266,-2.090454,0,0,-2.042969,0,4.061,0,0,0,0,nan,2,0.04,1,0,0.1000061,0.1000061,0.1000061,0.1000061,0,0,0,1,2
6617.582,0.001009,0.02148438,-0.04882812,-0.046875,2.640625,-3.679688,5.335938,0.01757812,-0.00390625,-0.04882812,0.2226562,-0.015625,0,-0.03723145,0.002197266,-2.090942,0,0,-2.042969,0,4.061,0,0,0,0,nan,2,0.05,1,0,0.1000061,0.1000061,0.1000061,0.1000061,0,0,0,1,2
6617.592,0.001009,0.03320312,0.02929688,-0.01953125,-2.273438,2.867188,9.5625,0.005859375,-0.005859375,-0.01757812,0.2226562,-0.015625,0,-0.03723145,0.002075195,-2.091187,0,0,-2.042969,0,4.061,0,0,0,0,nan,2,0.061,1,0,0.1000061,0.1000061,0.1000061,0.1000061,0,0,0,1,2
6617.602,0.000998,-0.00390625,-0.01757812,0.005859375,0.671875,-4.640625,12.42188,0.03125,-0.005859375,-0.001953125,0.2226562,-0.015625,0,-0.0369873,0.002075195,-2.091309,0,0,-2.042969,0,4.061,0,0,0,0,nan,2,0.071,1,0,0.1000061,0.1000061,0.1000061,0.1000061,0,0,0,1,2
6617.613,0.000979,0,-0.05273438,0.001953125,1.023438,-6.140625,4.75,0.01171875,0.0078125,-0.001953125,0.2226562,-0.01367188,0,-0.03723145,0.002197266,-2.091309,0,0,-2.042969,0.2263184,4.061,0,0,0,0.2000122,nan,2,0.007,1,0,0.2306824,0.2204285,0.2141113,0.2400513,0,0,0,1,2
6617.623,0.001053,0.01953125,0.09570312,0.0234375,-2.382812,-6.515625,7.539062,-0.005859375,0.01367188,0.009765625,0.2246094,-0.01367188,0,-0.03735352,0.002197266,-2.091309,0,0,-2.042969,0.2263184,4.061,0,0,0,0.2000122,nan,2,0.017,1,0,0.2543945,0.1873779,0.2348938,0.2285767,0,0,0,1,2
6617.633,0.00101,0.0546875,-0.015625,0.015625,1.1875,-2.765625,6.53125,0.01367188,-0.001953125,0,0.2226562,-0.01367188,0,-0.03723145,0.002197266,-2.091187,0,0,-2.042969,0.2263184,4.061,0,0,0,0.2000122,nan,2,0.027,1,0,0.2328186,0.2180786,0.2088928,0.2454834,0.0009765625,0,0,1,2
6617.642,0.001012,0.03710938,-0.04101562,-0.005859375,-4.40625,1.890625,13.46094,0.005859375,0.01171875,-0.00390625,0.2207031,-0.01367188,0,-0.03686523,0.002197266,-2.091187,0,0,-2.042969,0.2263184,4.061,0,0,0,0.2000122,nan,2,0.036,1,0,0.2240906,0.2218933,0.1987,0.2606201,0.0009765625,0,0,1,2
6617.652,0.001013,-0.00390625,-0.03320312,-0.015625,1.070312,-4.15625,2.328125,0,-0.0078125,-0.01367188,0.2246094,-0.01367188,0,-0.03747559,0.002197266,-2.091309,0,0,-2.042969,0.2263184,4.061,0,0,0,0.2000122,nan,2,0.046,1,0,0.2273254,0.2267456,0.1968689,0.254303,0.0009765625,0,0,1,2
6617.662,0.001013,-0.04492188,-0.03710938,0.005859375,0.25,3.257812,12.71094,-0.04101562,-0.001953125,-0.001953125,0.2285156,-0.01367188,0,-0.03796387,0.002197266,-2.091431,0,0,-2.042969,0.2263184,4.061,0,0,0,0.2000122,nan,2,0.057,1,0,0.2680664,0.1877136,0.220459,0.2290344,0.0009765625,0,0,1,2
6617.672,0.001035,0.05859375,0.03515625,0.04101562,1,0.3515625,9.554688,-0.005859375,0.00390625,0.01367188,0.2285156,-0.01367188,0,-0.03808594,0.002197266,-2.091309,0,0,-2.042969,0.2263184,4.061,0,0,0,0.2000122,nan,2,0.067,1,0,0.266571,0.180542,0.2428894,0.2152405,0.001953125,0,0,1,2
6617.682,0.001013,0.03515625,-0.0078125,0.05664062,-2.453125,1.671875,16.36719,0.01953125,-0.001953125,0.02539062,0.2285156,-0.01367188,0,-0.03808594,0.002197266,-2.091064,0,0,-2.042969,0.2263184,4.061,0,0,0,0.2000122,nan,2,0.077,1,0,0.2555237,0.1947021,0.234375,0.2206726,0.001953125,0,0,1,2
6617.692,0.000982,-0.07421875,-0.03710938,0.0234375,1.976562,-8.054688,4.015625,-0.0234375,-0.015625,0.02148438,0.2304688,-0.01367188,0,-0.03833008,0.002197266,-2.09082,0,0,-2.042969,0.2263184,4.061,0,0,0,0.2000122,nan,2,0.087,1,0,0.2466125,0.2135925,0.1969299,0.2481079,0.001953125,0,0,1,2
6617.703,0.001036,0.1152344,0.06445312,0.03320312,2.382812,-0.328125,3.671875,0.01953125,0.0234375,0.02734375,0.2304688,-0.01367188,0,-0.03845215,0.002197266,-2.090576,0,0,-2.042969,0.2263184,4.061,0,0,0,0.2000122,nan,2,0.097,1,0,0.2388916,0.2018433,0.2327881,0.2317505,0.001953125,0,0,1,2
6617.713,0.001037,-0.1894531,0.015625,-0.01757812,0.7421875,3.359375,5.304688,0.00390625,0.01367188,-0.001953125,0.2285156,-0.01367188,0,-0.03808594,0.002197266,-2.090332,0,0,-2.042969,0.2263184,4.061,0,0,0,0.2000122,nan,2,0.107,1,0,0.2067261,0.2407532,0.1636658,0.2941284,0.001953125,0,0,1,2
6617.722,0.001031,0.08203125,0.05664062,-0.04882812,0.7890625,-6.15625,5.265625,-0.05273438,-0.015625,-0.01757812,0.2324219,-0.01171875,0,-0.03869629,0.001953125,-2.090332,0,0,-2.042969,0.2263184,4.061,0,0,0,0.2000122,nan,2,0,1,0,0.1991577,0.2481079,0.1647034,0.2933044,0.002929688,0,0,1,2
6617.733,0.001008,0.015625,0.02929688,-0.01171875,0.59375,6.117188,10.09375,0.009765625,-0.0078125,-0.03320312,0.2324219,-0.01171875,0,-0.03869629,0.001831055,-2.090698,0,0,-2.042969,0.2263184,4.061,0,0,0,0.2000122,nan,2,0.011,1,0,0.2321777,0.2179565,0.207428,0.2476807,0.002929688,0,0,1,2
6617.742,0.001038,0.03710938,-0.03320312,-0.03320312,-2.3125,3.804688,12.0625,0.009765625,-0.01171875,-0.03710938,0.2324219,-0.009765625,0,-0.03869629,0.001586914,-2.091064,0,0,-2.042969,0.2263184,4.061,0,0,0,0.2000122,nan,2,0.02,1,0,0.222229,0.2315369,0.194397,0.2570801,0.002929688,0,0,1,2
6617.752,0.001009,-0.04101562,-0.02539062,-0.01171875,-3.007812,4.648438,13.09375,-0.001953125,-0.04101562,-0.02148438,0.2324219,-0.009765625,0,-0.03869629,0.001464844,-2.091187,0,0,-2.042969,0,4.061,0,0,0,0,nan,2,0.009,1,0,0.1000061,0.1000061,0.1000061,0.1000061,0,0,0,1,2
6617.762,0.000978,0.1347656,0.1679688,-0.06445312,0.6484375,-3.359375,9.53125,0.04492188,0.07226562,-0.0390625,0.2324219,-0.009765625,0,-0.03869629,0.001708984,-2.091553,0,0,-2.042969,0,4.061,0,0,0,0,nan,2,0.019,1,0,0.1000061,0.1000061,0.1000061,0.1000061,0,0,0,1,2
6617.772,0.00101,0.1445312,-0.07617188,-0.05273438,-1.773438,4.75,12.16406,0.05859375,-0.03710938,-0.04882812,0.2324219,-0.009765625,0,-0.03820801,0.001464844,-2.091919,0,0,-2.042969,0,4.061,0,0,0,0,nan,2,0.029,1,0,0.1000061,0.1000061,0.1000061,0.1000061,0,0,0,1,2
6617.782,0.00101,-0.06445312,0.046875,-0.0234375,-0.90625,-10.50781,6.539062,-0.02929688,0,-0.03710938,0.2324219,-0.009765625,0,-0.03833008,0.001342773,-2.092407,0,0,-2.042969,0,4.061,0,0,0,0,nan,2,0.039,1,0,0.1000061,0.1000061,0.1000061,0.1000061,0,0,0,1,2
6617.792,0.001001,0.05078125,0.05859375,-0.078125,-1.945312,-4.429688,7.070312,-0.0234375,0,-0.05859375,0.2324219,-0.009765625,0,-0.03820801,0.001464844,-2.092896,0,0,-2.042969,0,4.061,0,0,0,0,nan,2,0.049,1,0,0.1000061,0.1000061,0.1000061,0.1000061,0,0,0,1,2
6617.802,0.001003,0.06835938,-0.1015625,-0.05664062,-1.617188,-6.546875,4.476562,0.07226562,-0.02539062,-0.0703125,0.2324219,-0.009765625,0,-0.03759766,0.001586914,-2.093628,0,0,-2.042969,0,4.061,0,0,0,0,nan,2,0.06,1,0,0.1000061,0.1000061,0.1000061,0.1000061,0,0,0,1,2
6617.812,0.00101,-0.03320312,-0.01367188,-0.05859375,-2.351562,-7.195312,15.14062,0.015625,0,-0.0703125,0.2324219,-0.009765625,0,-0.03735352,0.001464844,-2.09436,0,0,-2.042969,0,4.061,0,0,0,0,nan,2,0.07,1,0,0.1000061,0.1000061,0.1000061,0.1000061,0,0,0,1,2
6617.822,0.00101,-0.07226562,-0.00390625,-0.0625,0.890625,-3.828125,14.39844,-0.01367188,-0.001953125,-0.06054688,0.2324219,-0.009765625,0,-0.03735352,0.001464844,-2.094971,0,0,-2.042969,0,4.056,0,0,0,0,nan,2,0.08,1,0,0.1000061,0.1000061,0.1000061,0.1000061,0,0,0,1,2
6617.833,0.001005,0.04296875,-0.02148438,-0.046875,-1.359375,-4.867188,7.898438,0.0234375,-0.001953125,-0.04882812,0.2324219,-0.009765625,0,-0.03759766,0.001586914,-2.095581,0,0,-2.042969,0,4.056,0,0,0,0,nan,2,0.09,1,0,0.1000061,0.1000061,0.1000061,0.1000061,0,0,0,1,2
6617.842,0.001012,-0.01953125,0.03125,-0.03125,-0.3203125,-1.78125,10.86719,-0.001953125,0.00390625,-0.02929688,0.2324219,-0.009765625,0,-0.03759766,0.001586914,-2.095825,0,0,-2.042969,0,4.056,0,0,0,0,nan,2,0.099,1,0,0.1000061,0.1000061,0.1000061,0.1000061,0,0,0,1,2
6617.852,0.001013,0.0625,-0.04882812,-0.01757812,2.765625,-2.820312,5.820312,0.03125,0.0078125,-0.02148438,0.2265625,-0.009765625,0,-0.0378418,0.001708984,-2.096191,0,0,-2.042969,0.2263184,4.056,0,0,0,0.2000122,nan,2,0.007,1,0,0.2250061,0.223053,0.2198792,0.2373352,0,0,0,1,2
6617.862,0.001025,-0.02148438,0.001953125,-0.005859375,-0.0234375,-3.8125,3.421875,-0.00390625,0.001953125,0,0.2265625,-0.009765625,0,-0.03771973,0.001708984,-2.096191,0,0,-2.042969,0.2263184,4.056,0,0,0,0.2000122,nan,2,0.017,1,0,0.2590942,0.1893616,0.2288513,0.2279663,0,0,0,1,2
6617.872,0.001012,-0.0078125,-0.03320312,0.03710938,-0.515625,-7.804688,5.125,0.005859375,-0.01171875,0.01171875,0.2285156,-0.009765625,0,-0.03796387,0.001708984,-2.096313,0,0,-2.042969,0.2263184,4.056,0,0,0,0.2000122,nan,2,0.027,1,0,0.2721863,0.1829224,0.2467957,0.2033386,0.0009765625,0,0,1,2
6617.882,0.001008,-0.09960938,0.0390625,0.0234375,-2.054688,5.117188,17.21094,-0.03710938,-0.001953125,0.01757812,0.2285156,-0.009765625,0,-0.03796387,0.001586914,-2.096069,0,0,-2.042969,0.2263184,4.056,0,0,0,0.2000122,nan,2,0.037,1,0,0.2610779,0.1869812,0.217804,0.2394104,0.0009765625,0,0,1,2
6617.892,0.001008,-0.02539062,-0.02929688,0.02539062,2.226562,6.96875,9.054688,-0.0078125,-0.01367188,0.01367188,0.2304688,-0.009765625,0,-0.03845215,0.001586914,-2.095947,0,0,-2.042969,0.2263184,4.056,0,0,0,0.2000122,nan,2,0.047,1,0,0.2503967,0.2096558,0.2156677,0.2295227,0.0009765625,0,0,1,2
6617.902,0.001011,-0.08007812,0,0.015625,-0.875,-2.671875,16.47656,0.001953125,0.001953125,0.01171875,0.2304688,-0.009765625,0,-0.03845215,0.001708984,-2.095825,0,0,-2.042969,0.2263184,4.056,0,0,0,0.2000122,nan,2,0.058,1,0,0.2472534,0.2044067,0.2148132,0.2387695,0.0009765625,0,0,1,2
6617.912,0.001008,-0.0234375,0.02539062,-0.02148438,0.34375,-8.695312,3.765625,0.02148438,-0.005859375,0.01171875,0.2324219,-0.01171875,0,-0.03869629,0.001831055,-2.095581,0,0,-2.042969,0.2263184,4.056,0,0,0,0.2000122,nan,2,0.068,1,0,0.2244568,0.2311096,0.1935425,0.2561646,0.001953125,0,0,1,2
6617.922,0.001018,-0.06835938,-0.01171875,0.015625,2.875,-4.609375,4.15625,-0.015625,0.001953125,0.01757812,0.2324219,-0.01171875,0,-0.03869629,0.001831055,-2.095581,0,0,-2.042969,0.2263184,4.056,0,0,0,0.2000122,nan,2,0.077,1,0,0.2641602,0.1842346,0.2244873,0.2323608,0.001953125,0,0,1,2
6617.932,0.001017,-0.01171875,-0.009765625,0.03710938,3.171875,4.234375,6.867188,0.005859375,-0.02734375,0.04101562,0.2324219,-0.009765625,0,-0.03881836,0.001708984,-2.095215,0,0,-2.042969,0.2263184,4.056,0,0,0,0.2000122,nan,2,0.087,1,0,0.28302,0.1782837,0.239624,0.2043152,0.001953125,0,0,1,2
6617.942,0.001203,0.03125,-0.03125,0.03515625,1.164062,7.34375,5.945312,0.02539062,-0.01953125,0.01953125,0.234375,-0.009765625,0,-0.03894043,0.001708984,-2.095093,0,0,-2.042969,0,4.056,0,0,0,0,nan,2,0.001,1,0,0.1000061,0.1000061,0.1000061,0.1000061,0,0,0,1,2
6617.952,0.000997,-0.03515625,0.04492188,0.04101562,2.851562,9.28125,13.78125,-0.009765625,0.009765625,0.02539062,0.234375,-0.009765625,0,-0.03918457,0.001586914,-2.094849,0,0,-2.042969,0,4.056,0,0,0,0,nan,2,0.011,1,0,0.1000061,0.1000061,0.1000061,0.1000061,0,0,0,1,2
6617.962,0.001009,0.03515625,-0.01757812,0.0078125,-1.429688,-0.359375,19.03906,0.03710938,0.0078125,0.03515625,0.234375,-0.009765625,0,-0.0390625,0.001708984,-2.094482,0,0,-2.042969,0,4.056,0,0,0,0,nan,2,0.021,1,0,0.1000061,0.1000061,0.1000061,0.1000061,0,0,0,1,2
6617.972,0.001022,0.01367188,0.02929688,0.03515625,2.53125,-2.90625,3.242188,-0.01171875,0,0.03320312,0.234375,-0.009765625,0,-0.0390625,0.001708984,-2.094116,0,0,-2.042969,0,4.056,0,0,0,0,nan,2,0.031,1,0,0.1000061,0.1000061,0.1000061,0.1000061,0,0,0,1,2
6617.982,0.001001,0.015625,-0.07617188,-0.05859375,1.773438,-9.226562,7.5,0.03710938,-0.05273438,-0.04101562,0.234375,-0.009765625,0,-0.0390625,0.001586914,-2.094238,0,0,-2.042969,0.2263184,4.056,0,0,0,0.2000122,nan,2,0.005,1,0,0.1824341,0.2901611,0.1462097,0.2864685,0,0,0,1,2
6617.992,0.001008,-0.001953125,-0.0078125,-0.08398438,1.179688,7.046875,14.25781,-0.0078125,0.00390625,-0.07226562,0.234375,-0.0078125,0,-0.0390625,0.001464844,-2.094849,0,0,-2.042969,0.2263184,4.056,0,0,0,0.2000122,nan,2,0.015,1,0,0.1876526,0.2575378,0.1562805,0.303772,0,0,0,1,2
6618.002,0.001008,0.06445312,-0.01367188,-0.05078125,-0.6953125,1.234375,3.773438,0.02539062,-0.001953125,-0.05078125,0.234375,-0.009765625,0,-0.03894043,0.001464844,-2.095459,0,0,-2.042969,0.2263184,4.056,0,0,0,0.2000122,nan,2,0.025,1,0,0.2395325,0.2142944,0.2202759,0.2311707,0.0009765625,0,0,1,2
6618.012,0.001008,-0.1445312,-0.04882812,0.03515625,0.8046875,1.210938,16.66406,-0.06445312,-0.005859375,-0.01757812,0.2363281,-0.0078125,0,-0.03942871,0.001464844,-2.095825,0,0,-2.042969,0.2263184,4.056,0,0,0,0.2000122,nan,2,0.035,1,0,0.300293,0.1565857,0.2467346,0.2016296,0.0009765625,0,0,1,2
6618.022,0.001012,0.06054688,0,-0.01367188,-0.90625,-3.65625,6.851562,0.03320312,0.00390625,-0.009765625,0.2382812,-0.009765625,0,-0.03955078,0.001586914,-2.095825,0,0,-2.042969,0.2263184,4.056,0,0,0,0.2000122,nan,2,0.045,1,0,0.2185364,0.2301331,0.204895,0.2516785,0.0009765625,0,0,1,2
6618.032,0.000983,0.109375,0.09960938,0.01171875,2.601562,0.40625,11.09375,0.0234375,0.03125,-0.01171875,0.2363281,-0.009765625,0,-0.03930664,0.001586914,-2.095947,0,0,-2.042969,0.2263184,4.056,0,0,0,0.2000122,nan,2,0.055,1,0,0.2412109,0.1930542,0.2306213,0.240387,0.0009765625,0,0,1,2
6618.042,0.000989,0.2207031,-0.01171875,0.02734375,-1.289062,6.726562,12.30469,0.08984375,0.015625,-0.0078125,0.2363281,-0.01171875,0,-0.03942871,0.001953125,-2.096191,0,0,-2.042969,0.2263184,4.056,0,0,0,0.2000122,nan,2,0.065,1,0,0.2468567,0.2041626,0.2473145,0.2068787,0.0009765625,0,0,1,2
6618.052,0.001047,0.01953125,-0.0078125,0.001953125,0.375,7.15625,19,0.046875,0.005859375,0.01171875,0.2324219,-0.01171875,0,-0.03894043,0.002075195,-2.095947,0,0,-2.042969,0.2263184,4.056,0,0,0,0.2000122,nan,2,0.075,1,0,0.2344971,0.2198486,0.2069092,0.2440186,0.001953125,0,0,1,2
6618.062,0.001008,0.09765625,0.05273438,0.04101562,0,8.453125,17.0625,-0.001953125,0.005859375,0.02148438,0.2363281,-0.01367188,0,-0.03930664,0.002197266,-2.095947,0,0,-2.042969,0.2263184,4.056,0,0,0,0.2000122,nan,2,0.085,1,0,0.2651062,0.1795654,0.2472229,0.2133484,0.001953125,0,0,1,2
6618.072,0.001012,-0.04882812,0.04101562,0.0390625,-1.429688,5.765625,14.14062,-0.005859375,-0.01171875,0.02539062,0.2363281,-0.01171875,0,-0.03942871,0.002075195,-2.095703,0,0,-2.042969,0.2263184,4.056,0,0,0,0.2000122,nan,2,0.095,1,0,0.2608032,0.1897278,0.2292175,0.2255249,0.001953125,0,0,1,2
6618.082,0.001012,-0.0546875,-0.00390625,0.001953125,2.117188,6.726562,12.46875,-0.015625,0.01757812,0.02734375,0.2363281,-0.01367188,0,-0.03930664,0.002075195,-2.095459,0,0,-2.042969,0.2263184,4.056,0,0,0,0.2000122,nan,2,0.105,1,0,0.2460632,0.195282,0.2142334,0.2496948,0.001953125,0,0,1,2
6618.092,0.001012,0.046875,-0.0078125,0.0234375,-2.234375,6.929688,15.625,-0.005859375,-0.01171875,0.02148438,0.2363281,-0.01171875,0,-0.03942871,0.001953125,-2.095215,0,0,-2.042969,0.2263184,4.056,0,0,0,0.2000122,nan,2,0.115,1,0,0.2564392,0.1963501,0.2251587,0.2273254,0.002929688,0,0,1,2
6618.102,0.001021,-0.1054688,0.04101562,-0.05078125,2.203125,7.484375,13.4375,-0.03710938,0.00390625,-0.009765625,0.2382812,-0.01171875,0,-0.03967285,0.001953125,-2.095215,0,0,-2.042969,0.2263184,4.056,0,0,0,0.2000122,nan,2,0.125,1,0,0.2062378,0.2389526,0.1650696,0.2949829,0.002929688,0,0,1,2
6618.112,0.000984,-0.09960938,0.09765625,-0.1171875,0.03125,3.515625,6.445312,-0.03320312,0.02539062,-0.06054688,0.2402344,-0.01171875,0,-0.03991699,0.001953125,-2.095459,0,0,-2.042969,0.2263184,4.056,0,0,0,0.2000122,nan,2,0.006,1,0,0.1640625,0.2714539,0.1393127,0.3304138,0.002929688,0,0,1,2
6618.123,0.001027,0.001953125,-0.01953125,-0.046875,-1.25,3.296875,8.789062,0.01171875,0.01757812,-0.046875,0.2402344,-0.01367188,0,-0.03991699,0.002197266,-2.096069,0,0,-2.042969,0.2263184,4.056,0,0,0,0.2000122,nan,2,0.016,1,0,0.2255859,0.221405,0.203064,0.255188,0.002929688,0,0,1,2
6618.133,0.00102,-0.001953125,-0.02929688,-0.06054688,0.359375,5.40625,10.03125,-0.00390625,-0.009765625,-0.078125,0.2402344,-0.01171875,0,-0.04003906,0.002075195,-2.09668,0,0,-2.042969,0.2263184,4.056,0,0,0,0.2000122,nan,2,0.026,1,0,0.2024536,0.2542725,0.1645813,0.2839355,0.00390625,0,0,1,2
6618.143,0.00103,0.01367188,0.04492188,-0.02539062,-0.234375,2.875,12.65625,-0.0234375,0.0078125,-0.03125,0.2402344,-0.01171875,0,-0.04003906,0.002197266,-2.09729,0,0,-2.042969,0,4.056,0,0,0,0,nan,2,0.009,1,0,0.1000061,0.1000061,0.1000061,0.1000061,0,0,0,1,2
6618.152,0.000983,0.01953125,-0.0078125,0.015625,0.28125,5.015625,15.79688,0.01953125,0.01367188,-0.005859375,0.2402344,-0.01171875,0,-0.04003906,0.002197266,-2.097412,0,0,-2.042969,0,4.056,0,0,0,0,nan,2,0.018,1,0,0.1000061,0.1000061,0.1000061,0.1000061,0,0,0,1,2
6618.162,0.00101,-0.21875,0.01953125,0.02148438,-1.429688,-5.570312,10.8125,-0.08398438,-0.01757812,-0.015625,0.2402344,-0.01171875,0,-0.0402832,0.002075195,-2.097534,0,0,-2.042969,0,4.056,0,0,0,0,nan,2,0.028,1,0,0.1000061,0.1000061,0.1000061,0.1000061,0,0,0,1,2
6618.172,0.001013,0.02734375,0.005859375,-0.02148438,0.46875,3,14.96875,-0.01367188,0.015625,-0.015625,0.2402344,-0.01171875,0,-0.04101562,0.002319336,-2.097778,0,0,-2.042969,0,4.056,0,0,0,0,nan,2,0.038,1,0,0.1000061,0.1000061,0.1000061,0.1000061,0,0,0,1,2
6618.182,0.00103,-0.04296875,-0.0234375,0.001953125,1.46875,-5.117188,4.796875,0.015625,0.005859375,-0.009765625,0.2402344,-0.01171875,0,-0.04101562,0.002441406,-2.0979,0,0,-2.042969,0,4.056,0,0,0,0,nan,2,0.049,1,0,0.1000061,0.1000061,0.1000061,0.1000061,0,0,0,1,2
6618.192,0.001024,0.02539062,0.03710938,-0.08398438,-0.9140625,-4.398438,6.296875,0.015625,0.00390625,-0.078125,0.2402344,-0.01171875,0,-0.04089355,0.002441406,-2.098267,0,0,-2.042969,0,4.056,0,0,0,0,nan,2,0.059,1,0,0.1000061,0.1000061,0.1000061,0.1000061,0,0,0,1,2
6618.202,0.00101,0.06054688,-0.02148438,-0.08007812,4.109375,1.421875,6.234375,0.00390625,0.03710938,-0.09570312,0.2402344,-0.01171875,0,-0.04125977,0.002685547,-2.099121,0,0,-2.042969,0,4.056,0,0,0,0,nan,2,0.069,1,0,0.1000061,0.1000061,0.1000061,0.1000061,0,0,0,1,2
6618.212,0.001048,-0.01953125,-0.04296875,-0.02929688,3.539062,-2.1875,5.476562,-0.009765625,-0.009765625,-0.05273438,0.2402344,-0.01171875,0,-0.04138184,0.002807617,-2.099854,0,0,-2.042969,0,4.056,0,0,0,0,nan,2,0.079,1,0,0.1000061,0.1000061,0.1000061,0.1000061,0,0,0,1,2
6618.222,0.001013,0.0546875,0.05078125,-0.04101562,-1.242188,-1.1875,6.09375,-0.01953125,0.0078125,-0.02148438,0.2402344,-0.01171875,0,-0.04162598,0.002929688,-2.100098,0,0,-2.042969,0,4.056,0,0,0,0,nan,2,0.089,1,0,0.1000061,0.1000061,0.1000061,0.1000061,0,0,0,1,2
6618.233,0.001034,0.0078125,-0.01171875,0.03710938,-1.6875,3.414062,13.92188,-0.001953125,-0.009765625,0.02539062,0.2480469,-0.01757812,0,-0.04150391,0.002929688,-2.100098,0,0,-2.042969,0.2263184,4.056,0,0,0,0.2000122,nan,2,0,1,0,0.2484131,0.2033081,0.2192688,0.234314,0,0,0,1,2
6618.242,0.001,0.02148438,-0.03320312,0.0390625,3.734375,5.367188,9.820312,0.0078125,-0.00390625,0.03515625,0.2480469,-0.01757812,0,-0.04138184,0.002929688,-2.099731,0,0,-2.042969,0.2263184,4.056,0,0,0,0.2000122,nan,2,0.009,1,0,0.257782,0.1945801,0.230896,0.2220154,0,0,0,1,2
6618.252,0.001062,-0.05273438,0.015625,0.0546875,3.429688,0.4140625,4.007812,-0.01171875,0.00390625,0.04492188,0.2480469,-0.01757812,0,-0.04138184,0.002929688,-2.099365,0,0,-2.042969,0.2263184,4.056,0,0,0,0.2000122,nan,2,0.019,1,0,0.2731628,0.1759338,0.2373352,0.2188416,0.0009765625,0,0,1,2
6618.262,0.00101,-0.05859375,-0.078125,0.01757812,-2.4375,-9.984375,3.96875,-0.001953125,-0.009765625,0.03125,0.2480469,-0.01757812,0,-0.04138184,0.003051758,-2.098999,0,0,-2.042969,0.2263184,4.056,0,0,0,0.2000122,nan,2,0.029,1,0,0.2395325,0.2200012,0.2009583,0.2447815,0.0009765625,0,0,1,2
6618.272,0.00101,0.02539062,-0.05859375,0.04492188,-1.9375,8.289062,14.17188,0.03710938,-0.03710938,0.0390625,0.2480469,-0.01757812,0,-0.04125977,0.002929688,-2.098633,0,0,-2.042969,0.2263184,4.056,0,0,0,0.2000122,nan,2,0.039,1,0,0.2719116,0.1937256,0.2379761,0.2016602,0.0009765625,0,0,1,2
6618.282,0.001013,0.01171875,0.001953125,0.02929688,-0.8359375,-11.625,5.09375,0.0234375,-0.00390625,0.02148438,0.2460938,-0.01757812,0,-0.04101562,0.003051758,-2.098389,0,0,-2.042969,0.2263184,4.056,0,0,0,0.2000122,nan,2,0.049,1,0,0.2329102,0.2186279,0.2069397,0.2467651,0.0009765625,0,0,1,2
6618.292,0.000998,-0.03515625,0.05078125,0.0390625,-2.421875,4.742188,12.33594,0.009765625,0.015625,0.01953125,0.2441406,-0.01757812,0,-0.04077148,0.003051758,-2.098267,0,0,-2.042969,0.2263184,4.056,0,0,0,0.2000122,nan,2,0.06,1,0,0.2550049,0.1872253,0.2314758,0.2315674,0.0009765625,0,0,1,2
6618.302,0.001016,-0.001953125,0.02929688,0.0546875,-0.8203125,-4.070312,11.3125,0.001953125,0.02148438,0.06835938,0.2480469,-0.01953125,0,-0.04125977,0.003295898,-2.097778,0,0,-2.042969,0.2263184,4.056,0,0,0,0.2000122,nan,2,0.07,1,0,0.2996521,0.1432495,0.2739258,0.188446,0.001953125,0,0,1,2
6618.312,0.00101,0.03515625,0.001953125,0.06445312,1.421875,-9.023438,8.351562,0.00390625,0,0.06835938,0.2480469,-0.01953125,0,-0.04125977,0.003295898,-2.097168,0,0,-2.042969,0.2263184,4.056,0,0,0,0.2000122,nan,2,0.08,1,0,0.2765808,0.1736755,0.2479858,0.2070312,0.001953125,0,0,1,2
6618.322,0.001007,-0.02734375,-0.02148438,0.05273438,0.84375,-10.44531,4.867188,-0.0078125,-0.01171875,0.07226562,0.2480469,-0.01953125,0,-0.04125977,0.003173828,-2.096436,0,0,-2.042969,0.2263184,4.056,0,0,0,0.2000122,nan,2,0.09,1,0,0.26651,0.1894836,0.2286377,0.2206421,0.001953125,0,0,1,2
6618.332,0.001048,0.05859375,0.015625,0.07421875,-1.53125,-5.226562,10.75,0.015625,-0.01171875,0.05273438,0.2480469,-0.01953125,0,-0.04125977,0.003173828,-2.095947,0,0,-2.042969,0.2263184,4.056,0,0,0,0.2000122,nan,2,0.099,1,0,0.2532043,0.2004395,0.2268066,0.224823,0.001953125,0,0,1,2
6618.342,0.001008,0.04492188,-0.02929688,0.02539062,1.679688,1.757812,13.57812,0.0078125,-0.01171875,0.0390625,0.2480469,-0.01953125,0,-0.04138184,0.003295898,-2.095459,0,0,-2.042969,0.2263184,4.056,0,0,0,0.2000122,nan,2,0.109,1,0,0.2390137,0.2154236,0.2061768,0.2446594,0.002929688,0,0,1,2
6618.352,0.001024,0.02539062,0.0703125,0.05273438,-2.835938,2.351562,11.30469,0.005859375,0.03515625,0.0703125,0.2519531,-0.01953125,0,-0.04187012,0.003295898,-2.094849,0,0,-2.042969,0.2263184,4.056,0,0,0,0.2000122,nan,2,0.119,1,0,0.2682495,0.1613464,0.2631226,0.2125244,0.002929688,0,0,1,2
6618.362,0.000992,-0.1542969,-0.02148438,0.05859375,-0.2890625,3.273438,10.25781,-0.005859375,0.0078125,0.0625,0.2480469,-0.02148438,0,-0.04138184,0.003662109,-2.094238,0,0,-2.042969,0.2263184,4.056,0,0,0,0.2000122,nan,2,0.006,1,0,0.2714233,0.1857605,0.2088318,0.2392273,0.002929688,0,0,1,2
6618.372,0.001013,-0.1523438,-0.009765625,0.0390625,2.101562,-0.90625,4.8125,-0.1308594,-0.02734375,0.0703125,0.2539062,-0.02148438,0,-0.04223633,0.003417969,-2.093506,0,0,-2.042969,0.2263184,4.056,0,0,0,0.2000122,nan,2,0.016,1,0,0.2719421,0.1828003,0.1880493,0.2624817,0.00390625,0,0,1,2
6618.382,0.001029,-0.04101562,-0.04101562,0.00390625,-0.734375,-10.28906,2.953125,-0.046875,-0.04101562,0.01757812,0.2597656,-0.01953125,0,-0.04321289,0.003051758,-2.093018,0,0,-2.042969,0.2263184,4.056,0,0,0,0.2000122,nan,2,0.026,1,0,0.2120667,0.2457886,0.1765442,0.270874,0.00390625,0,0,1,2
6618.393,0.001034,-0.001953125,0.02148438,-0.001953125,2.695312,-7.617188,8.9375,-0.005859375,-0.02148438,-0.0078125,0.2617188,-0.01757812,0,-0.0435791,0.002807617,-2.09314,0,0,-2.042969,0,4.056,0,0,0,0,nan,2,0,1,0,0.1000061,0.1000061,0.1000061,0.1000061,0,0,0,1,2
6618.402,0.001035,0.009765625,0.08789062,0.03125,-2.257812,-10.94531,6.398438,-0.0234375,0.005859375,0.03125,0.2617188,-0.01757812,0,-0.04370117,0.002685547,-2.092896,0,0,-2.042969,0,4.056,0,0,0,0,nan,2,0.01,1,0,0.1000061,0.1000061,0.1000061,0.1000061,0,0,0,1,2
6618.412,0.00098,0.1875,-0.005859375,-0.03320312,1.28125,-8.46875,7.867188,-0.046875,0.01171875,-0.03710938,0.2617188,-0.01757812,0,-0.04431152,0.002807617,-2.093018,0,0,-2.042969,0,4.056,0,0,0,0,nan,2,0.02,1,0,0.1000061,0.1000061,0.1000061,0.1000061,0,0,0,1,2
6618.422,0.00099,0.01953125,0.005859375,-0.1230469,-1.054688,3.085938,11.74219,0.001953125,0,-0.09375,0.2617188,-0.01757812,0,-0.0447998,0.002807617,-2.09375,0,0,-2.042969,0,4.056,0,0,0,0,nan,2,0.03,1,0,0.1000061,0.1000061,0.1000061,0.1000061,0,0,0,1,2
6618.432,0.001028,0.04492188,-0.02148438,-0.07421875,-2.75,0.90625,10.35156,-0.02148438,0.04492188,-0.08984375,0.2617188,-0.01757812,0,-0.04528809,0.002929688,-2.094727,0,0,-2.042969,0,4.056,0,0,0,0,nan,2,0.039,1,0,0.1000061,0.1000061,0.1000061,0.1000061,0,0,0,1,2
6618.442,0.001036,-0.0390625,0.09570312,-0.05859375,-0.84375,3.515625,7.757812,-0.01171875,0.01171875,-0.06640625,0.2617188,-0.01757812,0,-0.04541016,0.002929688,-2.095459,0,0,-2.042969,0,4.056,0,0,0,0,nan,2,0.049,1,0,0.1000061,0.1000061,0.1000061,0.1000061,0,0,0,1,2
6618.452,0.001018,0.0625,-0.09375,0.001953125,-0.7109375,-6.890625,2.429688,0.02148438,0.02148438,-0.01171875,0.2617188,-0.01757812,0,-0.04541016,0.003173828,-2.095825,0,0,-2.042969,0,4.056,0,0,0,0,nan,2,0.06,1,0,0.1000061,0.1000061,0.1000061,0.1000061,0,0,0,1,2
6618.462,0.001038,-0.02539062,0.01757812,0.0390625,-1.9375,-7.734375,10.39062,0.0078125,0.005859375,0.01953125,0.2617188,-0.01757812,0,-0.04528809,0.003173828,-2.095825,0,0,-2.042969,0,4.056,0,0,0,0,nan,2,0.07,1,0,0.1000061,0.1000061,0.1000061,0.1000061,0,0,0,1,2
6618.472,0.001021,0,0.03320312,0.02734375,0,-2.65625,16.28125,0.02148438,0.005859375,0.02148438,0.2617188,-0.01757812,0,-0.04516602,0.003173828,-2.095459,0,0,-2.042969,0,4.058,0,0,0,0,nan,2,0.08,1,0,0.1000061,0.1000061,0.1000061,0.1000061,0,0,0,1,2
6618.482,0.00101,-0.02539062,0.03710938,0.03515625,-0.3515625,-3.195312,10.74219,-0.01757812,0.00390625,0.03125,0.2617188,-0.01757812,0,-0.04528809,0.003417969,-2.095215,0,0,-2.042969,0,4.058,0,0,0,0,nan,2,0.09,1,0,0.1000061,0.1000061,0.1000061,0.1000061,0,0,0,1,2
6618.492,0.001005,-0.001953125,-0.001953125,0.02539062,1.0625,3.28125,11.57031,0.001953125,0.0078125,0.02929688,0.2617188,-0.01757812,0,-0.04528809,0.003417969,-2.094971,0,0,-2.042969,0,4.058,0,0,0,0,nan,2,0.1,1,0,0.1000061,0.1000061,0.1000061,0.1000061,0,0,0,1,2
6618.502,0.00101,0.00390625,-0.02734375,0.01367188,-3.367188,2.8125,14.58594,0,-0.01367188,0.02539062,0.2617188,-0.01757812,0,-0.04528809,0.003540039,-2.094604,0,0,-2.042969,0,4.058,0,0,0,0,nan,2,0.11,1,0,0.1000061,0.1000061,0.1000061,0.1000061,0,0,0,1,2
6618.513,0.001013,-0.02148438,-0.046875,0.009765625,-0.0859375,-3.117188,13.92969,-0.02734375,0.001953125,0.01367188,0.2734375,-0.02148438,0,-0.0456543,0.003540039,-2.094482,0,0,-2.042969,0.2263184,4.058,0,0,0,0.2000122,nan,2,0,1,0,0.2471619,0.2025757,0.2137756,0.2417603,0,0,0,1,2
6618.522,0.001011,-0.02734375,-0.0546875,0.01953125,-0.2734375,-7.84375,2.671875,0.02148438,-0.01757812,0.01367188,0.2753906,-0.02148438,0,-0.04577637,0.003540039,-2.09436,0,0,-2.042969,0.2263184,4.058,0,0,0,0.2000122,nan,2,0.01,1,0,0.2513733,0.2089844,0.2180176,0.2268677,0,0,0,1,2
6618.533,0.001009,-0.0546875,-0.0078125,0.0625,1.523438,-7.296875,4.085938,-0.01171875,0.00390625,0.04296875,0.2753906,-0.02148438,0,-0.04589844,0.003540039,-2.094116,0,0,-2.042969,0.2263184,4.058,0,0,0,0.2000122,nan,2,0.02,1,0,0.2921448,0.1552734,0.2574158,0.2004395,0.0009765625,0,0,1,2
6618.543,0.00101,-0.1171875,-0.01367188,0.06835938,-2.90625,-3.078125,14.29688,-0.009765625,0.001953125,0.05078125,0.2753906,-0.0234375,0,-0.04589844,0.00378418,-2.09375,0,0,-2.042969,0.2263184,4.058,0,0,0,0.2000122,nan,2,0.03,1,0,0.2838135,0.167572,0.2435608,0.2103271,0.0009765625,0,0,1,2
6618.552,0.001007,0.009765625,-0.005859375,0.0390625,0.1875,-4.890625,2.3125,0.00390625,-0.001953125,0.03515625,0.2773438,-0.0234375,0,-0.04626465,0.00390625,-2.093384,0,0,-2.042969,0.2263184,4.058,0,0,0,0.2000122,nan,2,0.039,1,0,0.2429504,0.2078247,0.2145386,0.2399597,0.0009765625,0,0,1,2
6618.562,0.001011,-0.05859375,-0.01171875,0,-3.507812,0.4453125,12.67188,-0.04101562,-0.03125,0.009765625,0.2792969,-0.02148438,0,-0.04650879,0.003662109,-2.093018,0,0,-2.042969,0.2263184,4.058,0,0,0,0.2000122,nan,2,0.049,1,0,0.2237244,0.2327881,0.1705933,0.2781372,0.0009765625,0,0,1,2
6618.572,0.001009,-0.00390625,-0.015625,0.03710938,0.453125,-3.34375,1.234375,0.00390625,-0.01953125,0.01953125,0.28125,-0.02148438,0,-0.04675293,0.003417969,-2.092896,0,0,-2.042969,0.2263184,4.058,0,0,0,0.2000122,nan,2,0.06,1,0,0.2573853,0.1926575,0.2299194,0.2253113,0.001953125,0,0,1,2
6618.582,0.000984,0.02734375,0.0078125,0.009765625,-0.8125,8.703125,16.69531,-0.03125,0.005859375,0.009765625,0.2832031,-0.02148438,0,-0.04711914,0.003540039,-2.092773,0,0,-2.042969,0.2263184,4.058,0,0,0,0.2000122,nan,2,0.07,1,0,0.242157,0.2042236,0.2093201,0.2495422,0.001953125,0,0,1,2
6618.592,0.001011,-0.06054688,-0.001953125,0.046875,1.289062,-5.328125,14.75781,-0.01171875,-0.00390625,0.00390625,0.2832031,-0.02148438,0,-0.04711914,0.003540039,-2.092773,0,0,-2.042969,0.2263184,4.058,0,0,0,0.2000122,nan,2,0.08,1,0,0.2599487,0.1921387,0.2187805,0.2344055,0.001953125,0,0,1,2
6618.602,0.001011,0.0625,-0.04882812,0.005859375,1.304688,1.140625,10.66406,0.0234375,-0.00390625,0.02734375,0.2832031,-0.02148438,0,-0.04736328,0.003540039,-2.092529,0,0,-2.042969,0.2263184,4.058,0,0,0,0.2000122,nan,2,0.09,1,0,0.2492065,0.1983032,0.2249451,0.2328186,0.002929688,0,0,1,2
6618.612,0.001006,-0.1367188,-0.005859375,0.02734375,-2.21875,3.296875,12.78125,-0.02929688,-0.009765625,0.03125,0.2851562,-0.02148438,0,-0.04736328,0.003417969,-2.092163,0,0,-2.042969,0.2263184,4.058,0,0,0,0.2000122,nan,2,0.1,1,0,0.2667236,0.186615,0.2099915,0.2419128,0.002929688,0,0,1,2
6618.623,0.001011,-0.0703125,-0.08984375,0.015625,0.609375,3.835938,17.23438,0.02734375,0.0078125,0.01367188,0.2851562,-0.02148438,0,-0.04736328,0.003540039,-2.091919,0,0,-2.042969,0.2263184,4.058,0,0,0,0.2000122,nan,2,0.11,1,0,0.2280273,0.2234497,0.1936951,0.2601013,0.002929688,0,0,1,2
6618.633,0.00101,-0.07617188,-0.0546875,-0.03320312,-2.898438,-1.90625,11.78906,0.01171875,-0.0234375,-0.01367188,0.2851562,-0.01953125,0,-0.04736328,0.003173828,-2.091919,0,0,-2.042969,0.2263184,4.058,0,0,0,0.2000122,nan,2,0.12,1,0,0.2163696,0.2366333,0.1755371,0.2767334,0.00390625,0,0,1,2
6618.643,0.000989,0.04492188,0.04882812,-0.08007812,0.015625,-6.203125,11.3125,0.005859375,-0.01757812,-0.06445312,0.2851562,-0.01953125,0,-0.04785156,0.003051758,-2.092285,0,0,-2.042969,0,4.058,0,0,0,0,nan,2,0.008,1,0,0.1000061,0.1000061,0.1000061,0.1000061,0,0,0,1,2
6618.652,0.001002,-0.1777344,0.08007812,-0.05859375,-2.40625,-8.273438,8.625,-0.01171875,0.00390625,-0.06640625,0.2851562,-0.01953125,0,-0.04772949,0.002929688,-2.092896,0,0,-2.042969,0,4.058,0,0,0,0,nan,2,0.003,1,0,0.1000061,0.1000061,0.1000061,0.1000061,0,0,0,1,2
6618.662,0.00104,-0.04296875,-0.03710938,-0.08203125,0.8828125,0.40625,10.32031,-0.01171875,0.01171875,-0.07226562,0.2851562,-0.01953125,0,-0.04797363,0.003051758,-2.093628,0,0,-2.042969,0,4.058,0,0,0,0,nan,2,0.013,1,0,0.1000061,0.1000061,0.1000061,0.1000061,0,0,0,1,2
6618.672,0.001034,0.046875,0.07226562,-0.02148438,1.570312,-3.414062,8.671875,-0.009765625,0.015625,-0.02539062,0.2851562,-0.01953125,0,-0.04846191,0.003051758,-2.093994,0,0,-2.042969,0,4.058,0,0,0,0,nan,2,0.023,1,0,0.1000061,0.1000061,0.1000061,0.1000061,0,0,0,1,2
6618.682,0.001009,0.03125,-0.1015625,-0.01171875,-0.28125,5.625,15.77344,0.00390625,-0.01757812,-0.02539062,0.2851562,-0.01953125,0,-0.04858398,0.003051758,-2.094238,0,0,-2.042969,0,4.058,0,0,0,0,nan,2,0.033,1,0,0.1000061,0.1000061,0.1000061,0.1000061,0,0,0,1,2
6618.692,0.001009,-0.01367188,0.005859375,-0.04492188,1.789062,7.992188,10.33594,-0.01171875,-0.009765625,-0.03320312,0.2851562,-0.01953125,0,-0.04846191,0.002685547,-2.094482,0,0,-2.042969,0,4.058,0,0,0,0,nan,2,0.043,1,0,0.1000061,0.1000061,0.1000061,0.1000061,0,0,0,1,2
6618.702,0.001008,0.0390625,0.02929688,-0.04492188,-2.5625,-0.578125,10.74219,0.01953125,0.01367188,-0.04296875,0.2851562,-0.01953125,0,-0.04833984,0.002685547,-2.094849,0,0,-2.042969,0,4.058,0,0,0,0,nan,2,0.054,1,0,0.1000061,0.1000061,0.1000061,0.1000061,0,0,0,1,2
6618.712,0.001009,0.08203125,-0.0390625,-0.01757812,0.1796875,-2.5625,14.71094,0.01757812,-0.00390625,-0.03320312,0.2851562,-0.01953125,0,-0.04833984,0.002685547,-2.095215,0,0,-2.042969,0,4.058,0,0,0,0,nan,2,0.064,1,0,0.1000061,0.1000061,0.1000061,0.1000061,0,0,0,1,2
6618.722,0.001041,0.01953125,-0.06445312,0.0078125,0.4609375,-4.789062,11.63281,0.01757812,-0.01757812,-0.009765625,0.2851562,-0.01953125,0,-0.04821777,0.002563477,-2.095337,0,0,-2.042969,0,4.058,0,0,0,0,nan,2,0.074,1,0,0.1000061,0.1000061,0.1000061,0.1000061,0,0,0,1,2
6618.733,0.000989,0.04882812,-0.02148438,0.02734375,-1.132812,-8.367188,6.140625,0.02734375,-0.01367188,0.01757812,0.2851562,-0.01953125,0,-0.04821777,0.002441406,-2.095337,0,0,-2.042969,0,4.058,0,0,0,0,nan,2,0.084,1,0,0.1000061,0.1000061,0.1000061,0.1000061,0,0,0,1,2
6618.742,0.001007,0.046875,-0.04101562,0.01757812,0.1953125,-5.734375,15.42969,0.02929688,-0.01367188,0.02148438,0.2851562,-0.01953125,0,-0.0480957,0.002441406,-2.095093,0,0,-2.042969,0,4.058,0,0,0,0,nan,2,0.002,1,0,0.1000061,0.1000061,0.1000061,0.1000061,0,0,0,1,2
6618.752,0.001024,-0.09375,0.0390625,0.02929688,-1.671875,-5.71875,4.679688,-0.02148438,-0.0078125,0.03710938,0.2851562,-0.01953125,0,-0.04760742,0.002441406,-2.094849,0,0,-2.042969,0,4.058,0,0,0,0,nan,2,0.012,1,0,0.1000061,0.1000061,0.1000061,0.1000061,0,0,0,1,2
6618.762,0.00101,0.04882812,0.0390625,0.0390625,0.0703125,5.695312,7.117188,0.001953125,0.015625,0.03515625,0.2851562,-0.01953125,0,-0.04772949,0.002563477,-2.094482,0,0,-2.042969,0,4.058,0,0,0,0,nan,2,0.022,1,0,0.1000061,0.1000061,0.1000061,0.1000061,0,0,0,1,2
6618.772,0.001011,0.0390625,0.02734375,0.02148438,2.5,-0.78125,13.58594,0.001953125,0.00390625,0.02734375,0.2851562,-0.01953125,0,-0.04797363,0.002807617,-2.094116,0,0,-2.042969,0,4.058,0,0,0,0,nan,2,0.032,1,0,0.1000061,0.1000061,0.1000061,0.1000061,0,0,0,1,2
6618.782,0.001011,0.001953125,0.001953125,0,-1.515625,-2.554688,9.90625,-0.01171875,0.005859375,0.01953125,0.2851562,-0.01953125,0,-0.04797363,0.002929688,-2.093872,0,0,-2.042969,0,4.058,0,0,0,0,nan,2,0.042,1,0,0.1000061,0.1000061,0.1000061,0.1000061,0,0,0,1,2
6618.792,0.001011,-0.03710938,0.04296875,0.01171875,-0.6875,2.492188,11.46094,0.001953125,0.01171875,0.03125,0.2851562,-0.01953125,0,-0.0480957,0.003051758,-2.093628,0,0,-2.042969,0,4.058,0,0,0,0,nan,2,0.053,1,0,0.1000061,0.1000061,0.1000061,0.1000061,0,0,0,1,2
6618.802,0.001015,-0.02148438,0.1210938,0.03320312,-1.445312,4.039062,14.8125,-0.04101562,0.0546875,0.03710938,0.2851562,-0.01953125,0,-0.04858398,0.003295898,-2.093262,0,0,-2.042969,0,4.058,0,0,0,0,nan,2,0.063,1,0,0.1000061,0.1000061,0.1000061,0.1000061,0,0,0,1,2
6618.812,0.00104,0.015625,0.01367188,-0.00390625,0.9453125,-3.75,7.734375,0.001953125,0.01367188,0.015625,0.2851562,-0.01953125,0,-0.04858398,0.003540039,-2.093018,0,0,-2.042969,0,4.058,0,0,0,0,nan,2,0.073,1,0,0.1000061,0.1000061,0.1000061,0.1000061,0,0,0,1,2
6618.822,0.00101,-0.009765625,0.005859375,0.046875,-1.8125,2.851562,12.35938,0.00390625,-0.0078125,0.02929688,0.2851562,-0.01953125,0,-0.04870605,0.003662109,-2.092773,0,0,-2.042969,0,4.058,0,0,0,0,nan,2,0.004,1,0,0.1000061,0.1000061,0.1000061,0.1000061,0,0,0,1,2
6618.833,0.001036,0.0234375,0.01757812,0.01953125,-0.53125,-4.71875,8.492188,0,0.0078125,0.03125,0.2851562,-0.01953125,0,-0.04882812,0.003540039,-2.092407,0,0,-2.042969,0,4.058,0,0,0,0,nan,2,0.014,1,0,0.1000061,0.1000061,0.1000061,0.1000061,0,0,0,1,2
6618.843,0.001013,-0.00390625,0.01367188,-0.00390625,1.328125,1.6875,12.75,0.01171875,-0.01367188,0.015625,0.2851562,-0.01953125,0,-0.04870605,0.003662109,-2.092041,0,0,-2.042969,0,4.058,0,0,0,0,nan,2,0.024,1,0,0.1000061,0.1000061,0.1000061,0.1000061,0,0,0,1,2
6618.853,0.001007,0.05664062,-0.09179688,0.009765625,1.195312,3.828125,8.945312,0.02734375,-0.0703125,0.02148438,0.2851562,-0.01953125,0,-0.04846191,0.003295898,-2.091919,0,0,-2.042969,0,4.058,0,0,0,0,nan,2,0.034,1,0,0.1000061,0.1000061,0.1000061,0.1000061,0,0,0,1,2
6618.862,0.001009,-0.0234375,0.05273438,-0.03320312,-2.390625,3.359375,13.66406,0.0078125,-0.01367188,-0.01953125,0.2851562,-0.01953125,0,-0.04846191,0.003051758,-2.091919,0,0,-2.042969,0,4.058,0,0,0,0,nan,2,0.043,1,0,0.1000061,0.1000061,0.1000061,0.1000061,0,0,0,1,2
6618.872,0.00101,-0.04492188,0.015625,-0.0078125,1.679688,3.28125,4.65625,-0.00390625,0.005859375,-0.009765625,0.2851562,-0.01953125,0,-0.04846191,0.003173828,-2.092041,0,0,-2.042969,0,4.058,0,0,0,0,nan,2,0.054,1,0,0.1000061,0.1000061,0.1000061,0.1000061,0,0,0,1,2
6618.882,0.000995,0.02929688,-0.02539062,0.01757812,1.234375,-3.625,7.53125,0.005859375,-0.00390625,0.00390625,0.2851562,-0.01953125,0,-0.04846191,0.003173828,-2.092163,0,0,-2.042969,0,4.058,0,0,0,0,nan,2,0.064,1,0,0.1000061,0.1000061,0.1000061,0.1000061,0,0,0,1,2
6618.892,0.001018,-0.03320312,0.02734375,-0.03320312,-0.234375,2.304688,14.91406,-0.01953125,0.01171875,-0.03125,0.2851562,-0.01953125,0,-0.04858398,0.003173828,-2.092285,0,0,-2.042969,0,4.058,0,0,0,0,nan,2,0.008,1,0,0.1000061,0.1000061,0.1000061,0.1000061,0,0,0,1,2
6618.902,0.001027,-0.02734375,-0.001953125,-0.02929688,-1.632812,-0.984375,8.84375,-0.009765625,0.005859375,-0.02539062,0.2851562,-0.01953125,0,-0.04846191,0.003295898,-2.092529,0,0,-2.042969,0,4.058,0,0,0,0,nan,2,0.002,1,0,0.1000061,0.1000061,0.1000061,0.1000061,0,0,0,1,2
6618.912,0.000982,0.00390625,-0.01171875,0.01171875,-2.578125,3.734375,10.83594,-0.02734375,0.005859375,-0.015625,0.2851562,-0.01953125,0,-0.04882812,0.003295898,-2.092773,0,0,-2.042969,0,4.058,0,0,0,0,nan,2,0.012,1,0,0.1000061,0.1000061,0.1000061,0.1000061,0,0,0,1,2
6618.922,0.00101,-0.01171875,-0.02148438,-0.0078125,0,-2.601562,6.828125,-0.01757812,-0.00390625,0.00390625,0.2851562,-0.01953125,0,-0.04882812,0.003173828,-2.092651,0,0,-2.042969,0,4.058,0,0,0,0,nan,2,0.022,1,0,0.1000061,0.1000061,0.1000061,0.1000061,0,0,0,1,2
6618.932,0.00101,0.0078125,0.00390625,0,0.7265625,-5.9375,10.30469,-0.001953125,-0.005859375,0.001953125,0.2851562,-0.01953125,0,-0.0489502,0.003173828,-2.092651,0,0,-2.042969,0,4.058,0,0,0,0,nan,2,0.032,1,0,0.1000061,0.1000061,0.1000061,0.1000061,0,0,0,1,2
6618.943,0.001009,0.0078125,-0.0234375,0.01367188,-0.9453125,-1.804688,15.375,0.01367188,-0.005859375,-0.00390625,0.2851562,-0.01953125,0,-0.04882812,0.003173828,-2.092773,0,0,-2.042969,0,4.058,0,0,0,0,nan,2,0.042,1,0,0.1000061,0.1000061,0.1000061,0.1000061,0,0,0,1,2
6618.953,0.001011,-0.001953125,-0.00390625,0.04101562,-2.742188,2.179688,13.9375,0.00390625,0.00390625,0.0234375,0.2851562,-0.01953125,0,-0.04882812,0.003173828,-2.092773,0,0,-2.042969,0,4.058,0,0,0,0,nan,2,0.053,1,0,0.1000061,0.1000061,0.1000061,0.1000061,0,0,0,1,2
6618.962,0.001039,0.001953125,0.02929688,-0.005859375,-1.203125,-5.773438,7.890625,-0.01171875,0.01953125,0.009765625,0.2851562,-0.01953125,0,-0.04907227,0.003417969,-2.092529,0,0,-2.042969,0,4.058,0,0,0,0,nan,2,0.062,1,0,0.1000061,0.1000061,0.1000061,0.1000061,0,0,0,1,2
6618.972,0.000996,-0.001953125,0.01367188,-0.01367188,-1.820312,-0.2890625,15.90625,0.01171875,-0.00390625,0.0078125,0.2851562,-0.01953125,0,-0.0489502,0.003417969,-2.092407,0,0,-2.042969,0,4.058,0,0,0,0,nan,2,0.072,1,0,0.1000061,0.1000061,0.1000061,0.1000061,0,0,0,1,2
6618.982,0.000999,-0.09570312,-0.02148438,-0.00390625,-0.03125,3.976562,15.61719,-0.02148438,-0.009765625,-0.01367188,0.2851562,-0.01953125,0,-0.04882812,0.003295898,-2.092529,0,0,-2.042969,0,4.058,0,0,0,0,nan,2,0.082,1,0,0.1000061,0.1000061,0.1000061,0.1000061,0,0,0,1,2
6618.992,0.001015,0.06640625,-0.02929688,0,0.4921875,1.007812,8.710938,0.01367188,-0.005859375,-0.001953125,0.2851562,-0.01953125,0,-0.04882812,0.003417969,-2.092651,0,0,-2.042969,0,4.058,0,0,0,0,nan,2,0.005,1,0,0.1000061,0.1000061,0.1000061,0.1000061,0,0,0,1,2
6619.002,0.001007,0.0390625,-0.01367188,-0.02539062,-0.5078125,3.609375,12.21875,0.02148438,0.0078125,-0.02148438,0.2851562,-0.01953125,0,-0.04870605,0.003295898,-2.092773,0,0,-2.042969,0,4.058,0,0,0,0,nan,2,0.015,1,0,0.1000061,0.1000061,0.1000061,0.1000061,0,0,0,1,2
6619.012,0.00101,0.03320312,0.001953125,-0.046875,1.859375,3.75,5.523438,0.02929688,-0.005859375,-0.02929688,0.2851562,-0.01953125,0,-0.04846191,0.003295898,-2.093018,0,0,-2.042969,0,4.058,0,0,0,0,nan,2,0.025,1,0,0.1000061,0.1000061,0.1000061,0.1000061,0,0,0,1,2
6619.022,0.00101,0.04882812,-0.009765625,-0.05078125,-0.265625,-0.71875,1.984375,0.03320312,-0.01171875,-0.04882812,0.2851562,-0.01953125,0,-0.04821777,0.003173828,-2.093506,0,0,-2.042969,0,4.058,0,0,0,0,nan,2,0.035,1,0,0.1000061,0.1000061,0.1000061,0.1000061,0,0,0,1,2
6619.032,0.001003,-0.03320312,-0.02539062,-0.0234375,1.726562,-2.8125,5.601562,-0.0078125,0.0078125,-0.03320312,0.2851562,-0.01953125,0,-0.0480957,0.003295898,-2.093872,0,0,-2.042969,0,4.058,0,0,0,0,nan,2,0.045,1,0,0.1000061,0.1000061,0.1000061,0.1000061,0,0,0,1,2
6619.043,0.001042,-0.08203125,-0.005859375,-0.03710938,3.085938,-0.1875,8.390625,-0.01757812,0.005859375,-0.04101562,0.2851562,-0.01953125,0,-0.04821777,0.003295898,-2.094238,0,0,-2.042969,0,4.058,0,0,0,0,nan,2,0.056,1,0,0.1000061,0.1000061,0.1000061,0.1000061,0,0,0,1,2
6619.053,0.001009,-0.04296875,-0.0234375,-0.0546875,-0.6015625,-1.140625,9.398438,-0.005859375,-0.00390625,-0.04492188,0.2851562,-0.01953125,0,-0.0480957,0.003295898,-2.094604,0,0,-2.042969,0,4.058,0,0,0,0,nan,2,0.066,1,0,0.1000061,0.1000061,0.1000061,0.1000061,0,0,0,1,2
6619.062,0.001005,0.005859375,-0.05273438,-0.04492188,0.390625,-0.328125,1.78125,-0.0078125,-0.02148438,-0.06054688,0.2851562,-0.01953125,0,-0.0480957,0.003173828,-2.095215,0,0,-2.042969,0,4.058,0,0,0,0,nan,2,0.075,1,0,0.1000061,0.1000061,0.1000061,0.1000061,0,0,0,1,2
6619.072,0.001009,-0.03125,0.015625,-0.04882812,1.34375,-3.03125,5.109375,0.001953125,0.001953125,-0.04492188,0.2851562,-0.01953125,0,-0.04785156,0.003295898,-2.095703,0,0,-2.095703,0,4.058,0,0,0,0,nan,2,0.085,0,0,0,0,0,0,0,0,0,1,2
6619.082,0.00101,0.009765625,0.06835938,0.001953125,1.851562,-4.195312,8.726562,0.001953125,0.02929688,-0.015625,0.2851562,-0.01953125,0,-0.04760742,0.003295898,-2.095947,0,0,-2.095947,0,4.058,0,0,0,0,nan,2,0.095,0,0,0,0,0,0,0,0,0,1,2
6619.092,0.001005,0.02539062,-0.009765625,-0.02539062,-1.046875,0.328125,7.390625,0.03125,-0.00390625,-0.00390625,0.2851562,-0.01953125,0,-0.04699707,0.003295898,-2.095947,0,0,-2.095947,0,4.058,0,0,0,0,nan,2,0.105,0,0,0,0,0,0,0,0,0,1,2
6619.102,0.00101,0.001953125,0.005859375,-0.01171875,0.4375,-2.296875,11.82031,0,0.00390625,-0.01367188,0.2851562,-0.01953125,0,-0.04699707,0.003295898,-2.096069,0,0,-2.096069,0,4.058,0,0,0,0,nan,2,0.115,0,0,0,0,0,0,0,0,0,1,2
6619.112,0.001009,-0.02539062,-0.03125,0,-0.296875,0.34375,16.07812,0.001953125,-0.005859375,0.001953125,0.2851562,-0.01953125,0,-0.04699707,0.003417969,-2.096191,0,0,-2.096191,0,4.058,0,0,0,0,nan,2,0.125,0,0,0,0,0,0,0,0,0,1,2
6619.122,0.001002,0.0703125,-0.02148438,0.03710938,-0.6796875,-0.7890625,11.07031,0.01953125,0.009765625,0.01171875,0.2851562,-0.01953125,0,-0.04699707,0.003417969,-2.096191,0,0,-2.096191,0,4.074,0,0,0,0,nan,2,0.135,0,0,0,0,0,0,0,0,0,1,2
6619.133,0.001025,0.05664062,0.01757812,0.04101562,-0.421875,-0.7109375,10.73438,0.01953125,-0.01367188,0.02734375,0.2851562,-0.01953125,0,-0.04675293,0.003662109,-2.095947,0,0,-2.095947,0,4.074,0,0,0,0,nan,2,0.004,0,0,0,0,0,0,0,0,0,1,2
6619.142,0.000989,-0.02539062,0.02148438,0,-0.25,-1.679688,13.0625,-0.015625,-0.005859375,0.02148438,0.2851562,-0.01953125,0,-0.04675293,0.003540039,-2.095581,0,0,-2.095581,0,4.074,0,0,0,0,nan,2,0.014,0,0,0,0,0,0,0,0,0,1,2
6619.153,0.001014,0.015625,0.046875,-0.0078125,1.078125,0.625,5.757812,-0.00390625,0,-0.001953125,0.2851562,-0.01953125,0,-0.04663086,0.003540039,-2.095459,0,0,-2.095459,0,4.074,0,0,0,0,nan,2,0.024,0,0,0,0,0,0,0,0,0,1,2
6619.162,0.001041,0.03710938,0.005859375,-0.04296875,1.40625,-0.8515625,8.148438,0.03710938,-0.0078125,-0.01367188,0.2851562,-0.01953125,0,-0.04614258,0.003540039,-2.095459,0,0,-2.095459,0,4.074,0,0,0,0,nan,2,0.033,0,0,0,0,0,0,0,0,0,1,2
6619.172,0.001015,0.0625,-0.02734375,-0.02929688,-1.054688,-0.0625,10.91406,0.02734375,0.00390625,-0.0390625,0.2851562,-0.01953125,0,-0.04589844,0.003540039,-2.095825,0,0,-2.095825,0,4.074,0,0,0,0,nan,2,0.043,0,0,0,0,0,0,0,0,0,1,2
6619.182,0.001006,0.02539062,-0.02929688,-0.04296875,0.046875,2.078125,8.039062,0.01171875,0.001953125,-0.02929688,0.2851562,-0.01953125,0,-0.04553223,0.003662109,-2.096191,0,0,-2.096191,0,4.074,0,0,0,0,nan,2,0.054,0,0,0,0,0,0,0,0,0,1,2
6619.192,0.00098,-0.01367188,-0.09570312,-0.0078125,0.9765625,1.90625,7.953125,0.001953125,-0.015625,-0.001953125,0.2851562,-0.01953125,0,-0.04528809,0.00378418,-2.096313,0,0,-2.096313,0,4.074,0,0,0,0,nan,2,0.064,0,0,0,0,0,0,0,0,0,1,2
6619.202,0.00101,0.04492188,-0.00390625,0.001953125,0.4296875,-0.984375,11.66406,0.01171875,0,-0.0078125,0.2851562,-0.01953125,0,-0.04528809,0.003540039,-2.096436,0,0,-2.096436,0,4.074,0,0,0,0,nan,2,0.074,0,0,0,0,0,0,0,0,0,1,2
6619.212,0.001011,-0.03320312,-0.046875,0.05078125,1.898438,4.390625,8.359375,0,-0.001953125,0.04296875,0.2851562,-0.01953125,0,-0.04467773,0.003662109,-2.096313,0,0,-2.096313,0,4.074,0,0,0,0,nan,2,0.084,0,0,0,0,0,0,0,0,0,1,2
6619.222,0.001033,0.009765625,0.001953125,0.05273438,-1.835938,-1.59375,7.953125,0.0078125,0,0.046875,0.2851562,-0.01953125,0,-0.04455566,0.00378418,-2.095825,0,0,-2.095825,0,4.074,0,0,0,0,nan,2,0.094,0,0,0,0,0,0,0,0,0,1,2
6619.232,0.00103,0.01953125,-0.0078125,-0.015625,-0.4609375,4.867188,12.47656,0.00390625,-0.0078125,0.01171875,0.2851562,-0.01953125,0,-0.04406738,0.003662109,-2.095581,0,0,-2.095581,0,4.074,0,0,0,0,nan,2,0.104,0,0,0,0,0,0,0,0,0,1,2
6619.243,0.001013,-0.0546875,-0.046875,0.046875,-1.453125,-4.296875,9.5625,-0.009765625,-0.0078125,0.01171875,0.2851562,-0.01953125,0,-0.04394531,0.00378418,-2.095581,0,0,-2.095581,0,4.074,0,0,0,0,nan,2,0.114,0,0,0,0,0,0,0,0,0,1,2
6619.253,0.001015,0.015625,0.001953125,0.03320312,-1.75,-4.4375,8.875,-0.009765625,0,0.03320312,0.2851562,-0.01953125,0,-0.04431152,0.00402832,-2.095337,0,0,-2.095337,0,4.074,0,0,0,0,nan,2,0.124,0,0,0,0,0,0,0,0,0,1,2
6619.262,0.001009,-0.015625,0.0078125,0.04101562,-1.4375,-5.117188,8.976562,0.01171875,-0.009765625,0.04101562,0.2851562,-0.01953125,0,-0.04431152,0.00402832,-2.094971,0,0,-2.094971,0,4.074,0,0,0,0,nan,2,0.133,0,0,0,0,0,0,0,0,0,1,2
6619.272,0.001006,0.05859375,-0.04296875,0.03320312,0.140625,-5.539062,7.09375,0.02148438,0.001953125,0.02929688,0.2851562,-0.01953125,0,-0.04492188,0.00378418,-2.094604,0,0,-2.094604,0,4.074,0,0,0,0,nan,2,0.143,0,0,0,0,0,0,0,0,0,1,2
6619.282,0.00101,0.05664062,0.02148438,0.01757812,1.101562,0.1796875,8.953125,0.00390625,-0.009765625,0.02929688,0.2851562,-0.01953125,0,-0.0447998,0.003540039,-2.094238,0,0,-2.094238,0,4.074,0,0,0,0,nan,2,0.154,0,0,0,0,0,0,0,0,0,1,2
6619.292,0.00101,0.04296875,0.09570312,0.046875,-1.148438,1.828125,11.69531,0.005859375,0.01171875,0.04492188,0.2851562,-0.01953125,0,-0.04492188,0.003295898,-2.093994,0,0,-2.093994,0,4.074,0,0,0,0,nan,2,0.164,0,0,0,0,0,0,0,0,0,1,2
6619.302,0.001014,-0.02734375,0.03320312,0.01757812,-1.046875,0.2890625,11.35938,-0.0078125,0.001953125,0.02539062,0.2851562,-0.01953125,0,-0.04602051,0.003173828,-2.093628,0,0,-2.093628,0,4.074,0,0,0,0,nan,2,0.174,0,0,0,0,0,0,0,0,0,1,2
6619.312,0.001014,0.04296875,-0.06445312,0.001953125,2.398438,-0.5703125,8.296875,0.0078125,-0.00390625,0.01367188,0.2851562,-0.01953125,0,-0.04614258,0.003051758,-2.093384,0,0,-2.093384,0,4.074,0,0,0,0,nan,2,0.184,0,0,0,0,0,0,0,0,0,1,2
6619.322,0.00101,-0.078125,0.0546875,0,-1.703125,0.4453125,10.34375,-0.01367188,0.005859375,0,0.2851562,-0.01953125,0,-0.04602051,0.002929688,-2.093384,0,0,-2.093384,0,4.074,0,0,0,0,nan,2,0.194,0,0,0,0,0,0,0,0,0,1,2
6619.332,0.001006,-0.01953125,0.02929688,-0.00390625,-0.3671875,-2.953125,9.414062,0.001953125,0.01757812,-0.00390625,0.2851562,-0.01953125,0,-0.04589844,0.002929688,-2.093384,0,0,-2.093384,0,4.074,0,0,0,0,nan,2,0.204,0,0,0,0,0,0,0,0,0,1,2
6619.342,0.001007,0.078125,-0.0078125,0.01953125,0.6171875,-1.59375,10.39062,0.005859375,-0.001953125,0.0078125,0.2851562,-0.01953125,0,-0.0456543,0.003295898,-2.093384,0,0,-2.093384,0,4.074,0,0,0,0,nan,2,0.214,0,0,0,0,0,0,0,0,0,1,2
6619.353,0.001013,-0.02539062,-0.02929688,-0.02148438,2.695312,-2.390625,9.835938,-0.00390625,0.00390625,-0.009765625,0.2851562,-0.01953125,0,-0.04553223,0.003173828,-2.093506,0,0,-2.093506,0,4.074,0,0,0,0,nan,2,0.224,0,0,0,0,0,0,0,0,0,1,2
6619.362,0.001018,0.046875,0.015625,0.0078125,-1.21875,-0.671875,10.52344,-0.00390625,-0.001953125,0.00390625,0.2851562,-0.01953125,0,-0.04516602,0.003173828,-2.093506,0,0,-2.093506,0,4.074,0,0,0,0,nan,2,0.233,0,0,0,0,0,0,0,0,0,1,2
6619.372,0.0009869999,0.009765625,0.00390625,0.01367188,-2.507812,0.6328125,10.125,0.00390625,0.001953125,0.001953125,0.2851562,-0.01953125,0,-0.04467773,0.003051758,-2.093506,0,0,-2.093506,0,4.074,0,0,0,0,nan,2,0.243,0,0,0,0,0,0,0,0,0,1,2
6619.382,0.001034,-0.01757812,0.05859375,0.01171875,-0.8671875,1.273438,9.828125,-0.00390625,0.00390625,-0.001953125,0.2851562,-0.01953125,0,-0.04443359,0.002807617,-2.093506,0,0,-2.093506,0,4.074,0,0,0,0,nan,2,0.004,0,0,0,0,0,0,0,0,0,1,2
6619.392,0.00101,-0.0625,-0.02929688,-0.01171875,1.9375,-1.054688,10.0625,-0.01953125,-0.01171875,0.00390625,0.2851562,-0.01953125,0,-0.04394531,0.002807617,-2.093506,0,0,-2.093506,0,4.074,0,0,0,0,nan,2,0.014,0,0,0,0,0,0,0,0,0,1,2
6619.402,0.00101,-0.02734375,-0.01953125,-0.02929688,1.578125,-1.421875,9,0.00390625,0.001953125,-0.005859375,0.2851562,-0.01953125,0,-0.04321289,0.003051758,-2.093384,0,0,-2.093384,0,4.074,0,0,0,0,nan,2,0.024,0,0,0,0,0,0,0,0,0,1,2
6619.412,0.00101,0.05273438,-0.001953125,-0.0078125,-0.1640625,0.3046875,9.351562,0.00390625,0.005859375,-0.001953125,0.2851562,-0.01953125,0,-0.04296875,0.002929688,-2.093506,0,0,-2.093506,0,4.074,0,0,0,0,nan,2,0.034,0,0,0,0,0,0,0,0,0,1,2
6619.422,0.00101,-0.03710938,-0.009765625,0,0.046875,-0.28125,9.414062,-0.00390625,-0.0078125,0.0078125,0.2851562,-0.01953125,0,-0.04272461,0.002929688,-2.093384,0,0,-2.093384,0,4.074,0,0,0,0,nan,2,0.044,0,0,0,0,0,0,0,0,0,1,2
6619.432,0.00101,-0.015625,-0.001953125,0.00390625,0.546875,-0.2421875,10.48438,-0.00390625,0,-0.005859375,0.2851562,-0.01953125,0,-0.04223633,0.002807617,-2.093384,0,0,-2.093384,0,4.074,0,0,0,0,nan,2,0.055,0,0,0,0,0,0,0,0,0,1,2
6619.442,0.001014,0.03515625,-0.00390625,0.015625,0.0234375,-0.703125,9.851562,0,-0.001953125,0.005859375,0.2851562,-0.01953125,0,-0.04187012,0.002685547,-2.093384,0,0,-2.093384,0,4.074,0,0,0,0,nan,2,0.065,0,0,0,0,0,0,0,0,0,1,2
6619.453,0.001013,0.03125,0.005859375,0.01367188,-0.4765625,-0.5546875,9.9375,0.0078125,-0.00390625,0.0078125,0.2851562,-0.01953125,0,-0.04162598,0.002807617,-2.093384,0,0,-2.093384,0,4.074,0,0,0,0,nan,2,0.075,0,0,0,0,0,0,0,0,0,1,2
6619.462,0.001007,0.0390625,0.00390625,0.01171875,0.3359375,-0.8359375,10.00781,0.005859375,-0.001953125,0.005859375,0.2851562,-0.01953125,0,-0.04125977,0.002685547,-2.093384,0,0,-2.093384,0,4.074,0,0,0,0,nan,2,0.084,0,0,0,0,0,0,0,0,0,1,2
6619.472,0.00101,0.01953125,0.005859375,0.03515625,0.0234375,-1.265625,10.09375,0.009765625,0,0.0078125,0.2851562,-0.01953125,0,-0.04089355,0.002807617,-2.093384,0,0,-2.093384,0,4.074,0,0,0,0,nan,2,0.094,0,0,0,0,0,0,0,0,0,1,2
6619.482,0.000982,0.01953125,0.005859375,0.02539062,0.09375,-0.515625,9.828125,0,0,0.005859375,0.2851562,-0.01953125,0,-0.04052734,0.002929688,-2.093384,0,0,-2.093384,0,4.074,0,0,0,0,nan,2,0.104,0,0,0,0,0,0,0,0,0,1,2
6619.492,0.00101,0.001953125,-0.01367188,0,0.28125,0.1953125,9.546875,-0.005859375,-0.0078125,0,0.2851562,-0.01953125,0,-0.0402832,0.002929688,-2.093384,0,0,-2.093384,0,4.074,0,0,0,0,nan,2,0.114,0,0,0,0,0,0,0,0,0,1,2
6619.502,0.00101,0,-0.0078125,0.009765625,0.1796875,0.2265625,9.671875,-0.001953125,-0.005859375,-0.001953125,0.2851562,-0.01953125,0,-0.03991699,0.002929688,-2.093384,0,0,-2.093384,0,4.074,0,0,0,0,nan,2,0.124,0,0,0,0,0,0,0,0,0,1,2
6619.512,0.00101,-0.009765625,-0.01367188,-0.0078125,-0.25,-0.375,9.578125,0.001953125,0,-0.009765625,0.2851562,-0.01953125,0,-0.03955078,0.002929688,-2.093384,0,0,-2.093384,0,4.074,0,0,0,0,nan,2,0.134,0,0,0,0,0,0,0,0,0,1,2
6619.522,0.00101,0.01367188,0.01367188,-0.009765625,0.5234375,-0.671875,10.10156,0.00390625,0.00390625,-0.00390625,0.2851562,-0.01953125,0,-0.03918457,0.003173828,-2.093384,0,0,-2.093384,0,4.074,0,0,0,0,nan,2,0.144,0,0,0,0,0,0,0,0,0,1,2
6619.532,0.00101,-0.00390625,-0.015625,0,-0.3515625,-0.1015625,9.429688,-0.00390625,-0.005859375,0.001953125,0.2851562,-0.01953125,0,-0.03894043,0.002929688,-2.093384,0,0,-2.093384,0,4.074,0,0,0,0,nan,2,0.155,0,0,0,0,0,0,0,0,0,1,2
6619.542,0.001013,-0.005859375,0.005859375,-0.0078125,0.484375,-0.109375,10.32031,-0.00390625,0.00390625,-0.0078125,0.2851562,-0.01953125,0,-0.03881836,0.003051758,-2.093384,0,0,-2.093384,0,4.074,0,0,0,0,nan,2,0.165,0,0,0,0,0,0,0,0,0,1,2
6619.553,0.001011,0.005859375,0,0,-0.421875,-0.546875,9.53125,0,-0.00390625,0.009765625,0.2851562,-0.01953125,0,-0.03833008,0.002929688,-2.093384,0,0,-2.093384,0,4.074,0,0,0,0,nan,2,0.175,0,0,0,0,0,0,0,0,0,1,2
6619.562,0.001008,-0.015625,-0.009765625,-0.001953125,-0.0546875,-0.5078125,9.789062,0.001953125,0,0,0.2851562,-0.01953125,0,-0.03833008,0.003051758,-2.093384,0,0,-2.093384,0,4.074,0,0,0,0,nan,2,0.184,0,0,0,0,0,0,0,0,0,1,2
6619.572,0.00101,0.0078125,0.00390625,-0.01757812,0.0390625,0.1640625,10.11719,-0.001953125,0,-0.01171875,0.2851562,-0.01953125,0,-0.03796387,0.003173828,-2.093384,0,0,-2.093384,0,4.074,0,0,0,0,nan,2,0.194,0,0,0,0,0,0,0,0,0,1,2
6619.582,0.00101,-0.00390625,-0.001953125,0.0078125,-0.109375,-0.0625,9.617188,-0.001953125,-0.001953125,0.009765625,0.2851562,-0.01953125,0,-0.03771973,0.003051758,-2.093262,0,0,-2.093262,0,4.074,0,0,0,0,nan,2,0.204,0,0,0,0,0,0,0,0,0,1,2
6619.592,0.00101,0.0078125,0.001953125,0.015625,0.2578125,-0.125,9.851562,0.001953125,0.001953125,-0.005859375,0.2851562,-0.01953125,0,-0.03747559,0.003173828,-2.093384,0,0,-2.093384,0,4.074,0,0,0,0,nan,2,0.214,0,0,0,0,0,0,0,0,0,1,2
6619.602,0.00101,-0.001953125,0.005859375,0.00390625,0.109375,-0.4140625,9.851562,0,0.001953125,0.001953125,0.2851562,-0.01953125,0,-0.03723145,0.003051758,-2.093384,0,0,-2.093384,0,4.074,0,0,0,0,nan,2,0.224,0,0,0,0,0,0,0,0,0,1,2
6619.612,0.00101,0.00390625,0.001953125,0.01171875,0.1796875,-0.2734375,9.789062,0,0.001953125,0.00390625,0.2851562,-0.01953125,0,-0.03686523,0.003051758,-2.093384,0,0,-2.093384,0,4.074,0,0,0,0,nan,2,0.234,0,0,0,0,0,0,0,0,0,1,2
6619.622,0.001004,-0.00390625,0.001953125,0.01367188,0.0859375,-0.1328125,9.929688,0,0,-0.001953125,0.2851562,-0.01953125,0,-0.03686523,0.003173828,-2.093384,0,0,-2.093384,0,4.074,0,0,0,0,nan,2,0.244,0,0,0,0,0,0,0,0,0,1,2
6619.633,0.001038,-0.001953125,-0.001953125,-0.0078125,-0.109375,-0.203125,9.734375,-0.001953125,-0.00390625,-0.001953125,0.2851562,-0.01953125,0,-0.03662109,0.003051758,-2.093384,0,0,-2.093384,0,4.074,0,0,0,0,nan,2,0.004,0,0,0,0,0,0,0,0,0,1,2
6619.642,0.00101,-0.0078125,-0.001953125,-0.01953125,-0.078125,-0.5078125,9.765625,0,-0.001953125,-0.00390625,0.2851562,-0.01953125,0,-0.03637695,0.003051758,-2.093262,0,0,-2.093262,0,4.074,0,0,0,0,nan,2,0.014,0,0,0,0,0,0,0,0,0,1,2
6619.653,0.001007,0.009765625,0.00390625,0.01367188,0.140625,-0.375,9.75,0.00390625,0.001953125,0.009765625,0.2851562,-0.01953125,0,-0.03613281,0.003173828,-2.093384,0,0,-2.093384,0,4.074,0,0,0,0,nan,2,0.024,0,0,0,0,0,0,0,0,0,1,2
6619.663,0.001008,-0.00390625,0.00390625,0,-0.0625,-0.1640625,9.78125,-0.001953125,0.001953125,-0.00390625,0.2851562,-0.01953125,0,-0.03601074,0.003173828,-2.093384,0,0,-2.093384,0,4.074,0,0,0,0,nan,2,0.034,0,0,0,0,0,0,0,0,0,1,2
6619.672,0.00101,0,-0.005859375,-0.001953125,-0.0234375,-0.4921875,9.8125,0.001953125,-0.001953125,0.001953125,0.2851562,-0.01953125,0,-0.0357666,0.003051758,-2.093262,0,0,-2.093262,0,4.074,0,0,0,0,nan,2,0.043,0,0,0,0,0,0,0,0,0,1,2
6619.682,0.00101,0.001953125,0.00390625,0.00390625,-0.0390625,-0.1953125,9.78125,0,0.001953125,0,0.2851562,-0.01953125,0,-0.0357666,0.003173828,-2.093384,0,0,-2.093384,0,4.074,0,0,0,0,nan,2,0.054,0,0,0,0,0,0,0,0,0,1,2
6619.692,0.00101,0,-0.005859375,-0.00390625,-0.1015625,-0.4375,9.773438,0.001953125,-0.001953125,-0.001953125,0.2851562,-0.01953125,0,-0.03552246,0.003173828,-2.093262,0,0,-2.093262,0,4.074,0,0,0,0,nan,2,0.064,0,0,0,0,0,0,0,0,0,1,2
6619.702,0.002531,0,0.001953125,0,0.0390625,-0.171875,9.828125,-0.001953125,0,-0.001953125,0.2851562,-0.01953125,0,-0.03540039,0.003173828,-2.093384,0,0,-2.093384,0,4.074,0,0,0,0,nan,2,0.073,0,128,0,0,0,0,0,0,0,1,2
6619.712,0.001373,-0.001953125,-0.001953125,-0.001953125,0,-0.390625,9.78125,0,-0.001953125,0.001953125,0.2851562,-0.01953125,0,-0.03515625,0.003173828,-2.093262,0,0,-2.093262,0,4.074,0,0,0,0,nan,2,0.084,0,128,0,0,0,0,0,0,0,1,2
6619.722,0.001135,-0.001953125,0.001953125,0,-0.0390625,-0.2109375,9.875,-0.001953125,0,-0.00390625,0.2851562,-0.01953125,0,-0.03503418,0.003173828,-2.093384,0,0,-2.093384,0,4.074,0,0,0,0,nan,2,0.093,0,128,0,0,0,0,0,0,0,1,2
6619.733,0.00101,0.001953125,-0.001953125,-0.005859375,0.0234375,-0.3359375,9.734375,0.001953125,0,0,0.2851562,-0.01953125,0,-0.03491211,0.003051758,-2.093384,0,0,-2.093384,0,4.074,0,0,0,0,nan,2,0.104,0,128,0,0,0,0,0,0,0,1,2
6619.742,0.001237,0,0.001953125,0.00390625,-0.1015625,-0.2265625,9.828125,0,-0.001953125,0,0.2851562,-0.01953125,0,-0.03479004,0.003051758,-2.093384,0,0,-2.093384,0,4.074,0,0,0,0,nan,2,0.114,0,128,0,0,0,0,0,0,0,1,2
6619.798,0.001012,0,0.00390625,0.005859375,-0.0546875,-0.296875,9.789062,0,0,0.001953125,0.2851562,-0.01953125,0,-0.03466797,0.003051758,-2.093384,0,0,-2.093384,0,4.074,0,0,0,0,nan,2,0.116,0,128,0,0,0,0,0,0,0,1,2
6619.804,0.002592,-0.001953125,0.001953125,0.001953125,-0.0234375,-0.3046875,9.804688,0,0.001953125,0,0.2851562,-0.01953125,0,-0.03308105,0.003051758,-2.093506,0,0,-2.093506,0,4.074,0,0,0,0,nan,2,0.175,0,128,0,0,0,0,0,0,0,1,2
6619.812,0.00101,0,0,-0.001953125,-0.0390625,-0.296875,9.78125,0.001953125,0,0,0.2851562,-0.01953125,0,-0.03308105,0.002929688,-2.093506,0,0,-2.093506,0,4.074,0,0,0,0,nan,2,0.184,0,128,0,0,0,0,0,0,0,1,2
6619.822,0.001009,0,0,0.00390625,-0.0625,-0.296875,9.757812,0,0,0,0.2851562,-0.01953125,0,-0.03295898,0.002929688,-2.093506,0,0,-2.093506,0,4.077,0,0,0,0,nan,2,0.194,0,128,0,0,0,0,0,0,0,1,2
6619.832,0.00101,-0.00390625,-0.005859375,-0.001953125,-0.0546875,-0.265625,9.726562,-0.001953125,-0.001953125,0,0.2851562,-0.01953125,0,-0.03295898,0.003051758,-2.093506,0,0,-2.093506,0,4.077,0,0,0,0,nan,2,0.204,0,128,0,0,0,0,0,0,0,1,2
6619.842,0.001009,0,0,0.001953125,-0.03125,-0.3046875,9.765625,0,0,0.001953125,0.2851562,-0.01953125,0,-0.03283691,0.003051758,-2.093506,0,0,-2.093506,0,4.077,0,0,0,0,nan,2,0.214,0,128,0,0,0,0,0,0,0,1,2
6619.852,0.00101,0.001953125,0.001953125,0,-0.0078125,-0.296875,9.78125,0.001953125,0,0.001953125,0.2851562,-0.01953125,0,-0.03283691,0.003051758,-2.093506,0,0,-2.093506,0,4.077,0,0,0,0,nan,2,0.224,0,128,0,0,0,0,0,0,0,1,2
6619.862,0.001009,0,0,0,-0.0234375,-0.296875,9.804688,0,0,0,0.2851562,-0.01953125,0,-0.03271484,0.003051758,-2.093506,0,0,-2.093506,0,4.077,0,0,0,0,nan,2,0.234,0,128,0,0,0,0,0,0,0,1,2
6619.873,0.00101,-0.001953125,0,-0.001953125,-0.03125,-0.3046875,9.804688,-0.001953125,0.001953125,0,0.2851562,-0.01953125,0,-0.03259277,0.003051758,-2.093506,0,0,-2.093506,0,4.077,0,0,0,0,nan,2,0.244,0,128,0,0,0,0,0,0,0,1,2
6619.882,0.00101,0,0,0,-0.0625,-0.2890625,9.773438,0,0,0,0.2851562,-0.01953125,0,-0.03259277,0.003051758,-2.093506,0,0,-2.093506,0,4.077,0,0,0,0,nan,2,0.253,0,128,0,0,0,0,0,0,0,1,2
6619.892,0.001001,-0.001953125,0,0,-0.015625,-0.3203125,9.851562,-0.001953125,0,0,0.2851562,-0.01953125,0,-0.03259277,0.003051758,-2.093506,0,0,-2.093506,0,4.077,0,0,0,0,nan,2,0.001,0,128,0,0,0,0,0,0,0,1,2
6619.902,0.001011,0.001953125,0,0,-0.0625,-0.3203125,9.867188,0,0,-0.001953125,0.2851562,-0.01953125,0,-0.03259277,0.003051758,-2.093506,0,0,-2.093506,0,4.077,0,0,0,0,nan,2,0.011,0,128,0,0,0,0,0,0,0,1,2
6619.912,0.000976,-0.001953125,0.001953125,0.001953125,0.0234375,-0.28125,9.835938,0,0.001953125,0.001953125,0.2851562,-0.01953125,0,-0.0324707,0.003051758,-2.093506,0,0,-2.093506,0,4.077,0,0,0,0,nan,2,0.021,0,128,0,0,0,0,0,0,0,1,2
6619.922,0.001011,0,0,-0.001953125,-0.03125,-0.28125,9.742188,0,0,0,0.2851562,-0.01953125,0,-0.03234863,0.003051758,-2.093506,0,0,-2.093506,0,4.077,0,0,0,0,nan,2,0.031,0,128,0,0,0,0,0,0,0,1,2
6619.932,0.00101,0,0,-0.001953125,-0.03125,-0.3046875,9.859375,0,0,0,0.2851562,-0.01953125,0,-0.03234863,0.003051758,-2.093506,0,0,-2.093506,0,4.077,0,0,0,0,nan,2,0.041,0,128,0,0,0,0,0,0,0,1,2
6619.942,0.001011,0,0.001953125,0.001953125,-0.078125,-0.296875,9.875,0,0.001953125,0,0.2851562,-0.01953125,0,-0.03234863,0.002929688,-2.093506,0,0,-2.093506,0,4.077,0,0,0,0,nan,2,0.051,0,128,0,0,0,0,0,0,0,1,2
6619.953,0.001055,0,0,0,-0.015625,-0.3046875,9.757812,-0.001953125,-0.001953125,0,0.2851562,-0.01953125,0,-0.03222656,0.002929688,-2.093506,0,0,-2.093506,0,4.077,0,0,0,0,nan,2,0.062,0,128,0,0,0,0,0,0,0,1,2
6619.962,0.001011,0,0.001953125,0.001953125,-0.0625,-0.2890625,9.84375,0,0,0,0.2851562,-0.01953125,0,-0.03222656,0.003051758,-2.093506,0,0,-2.093506,0,4.077,0,0,0,0,nan,2,0.072,0,128,0,0,0,0,0,0,0,1,2
6619.972,0.001011,0,-0.00390625,0.001953125,0.0390625,-0.265625,9.757812,0,-0.001953125,0.001953125,0.2851562,-0.01953125,0,-0.03222656,0.003051758,-2.093506,0,0,-2.093506,0,4.077,0,0,0,0,nan,2,0.082,0,128,0,0,0,0,0,0,0,1,2
6619.983,0.001011,-0.001953125,-0.001953125,0.001953125,-0.015625,-0.2890625,9.796875,0,-0.001953125,0,0.2851562,-0.01953125,0,-0.03210449,0.002929688,-2.093384,0,0,-2.093384,0,4.077,0,0,0,0,nan,2,0.092,0,128,0,0,0,0,0,0,0,1,2
6619.992,0.001011,0,0.001953125,0,-0.0234375,-0.3125,9.804688,0,0,0,0.2851562,-0.01953125,0,-0.03210449,0.002929688,-2.093384,0,0,-2.093384,0,4.077,0,0,0,0,nan,2,0.101,0,128,0,0,0,0,0,0,0,1,2
6620.002,0.00101,0,0,0.001953125,-0.015625,-0.3046875,9.8125,0,0,0,0.2851562,-0.01953125,0,-0.03198242,0.002929688,-2.093384,0,0,-2.093384,0,4.077,0,0,0,0,nan,2,0.111,0,128,0,0,0,0,0,0,0,1,2
6620.012,0.00101,-0.001953125,-0.00390625,0,-0.046875,-0.3359375,9.804688,0,-0.001953125,0,0.2851562,-0.01953125,0,-0.03198242,0.002929688,-2.093384,0,0,-2.093384,0,4.077,0,0,0,0,nan,2,0.121,0,128,0,0,0,0,0,0,0,1,2
6620.022,0.00101,-0.001953125,-0.001953125,0,-0.0078125,-0.328125,9.773438,0,-0.001953125,0,0.2851562,-0.01953125,0,-0.03186035,0.002929688,-2.093384,0,0,-2.093384,0,4.077,0,0,0,0,nan,2,0.131,0,128,0,0,0,0,0,0,0,1,2
6620.032,0.00101,-0.001953125,-0.001953125,0.001953125,-0.046875,-0.28125,9.859375,-0.001953125,0,0,0.2851562,-0.01953125,0,-0.03186035,0.002929688,-2.093384,0,0,-2.093384,0,4.077,0,0,0,0,nan,2,0.141,0,128,0,0,0,0,0,0,0,1,2
6620.042,0.00101,0,0,-0.001953125,-0.0546875,-0.28125,9.835938,-0.001953125,0,0,0.2851562,-0.01953125,0,-0.03186035,0.002929688,-2.093384,0,0,-2.093384,0,4.077,0,0,0,0,nan,2,0.151,0,128,0,0,0,0,0,0,0,1,2
6620.052,0.00101,0,-0.00390625,-0.001953125,-0.0390625,-0.3125,9.804688,0.001953125,0,0,0.2851562,-0.01953125,0,-0.03173828,0.002929688,-2.093384,0,0,-2.093384,0,4.077,0,0,0,0,nan,2,0.162,0,128,0,0,0,0,0,0,0,1,2
6620.062,0.00101,0,0.001953125,-0.001953125,-0.0234375,-0.2890625,9.804688,0,0.001953125,0,0.2851562,-0.01953125,0,-0.03173828,0.002929688,-2.093384,0,0,-2.093384,0,4.077,0,0,0,0,nan,2,0.172,0,128,0,0,0,0,0,0,0,1,2
