t,dt_s,gyro_x,gyro_y,gyro_z,acc_x,acc_y,acc_z,rates.x,rates.y,rates.z,ratesTarget.x,ratesTarget.y,ratesTarget.z,attitude.x,attitude.y,attitude.z,attitudeTarget.x,attitudeTarget.y,attitudeTarget.z,thrustTarget,battery_v,rc_roll,rc_pitch,rc_yaw,rc_throttle,rc_mode,flight_mode,rc_age_s,armed,fault_mask,motor_rl,motor_rr,motor_fr,motor_fl,rate_i_x,rate_i_y,rate_i_z,mix_scale,control_source
2709.862,0.001007,0.001953125,0,0,-0.03125,-0.328125,9.851562,0,0,0,0,0,0,-0.0333252,-0.001098633,1.496094,0,0,1.496094,0,4.077,0,0,0,0,nan,2,0.094,0,0,0,0,0,0,0,0,0,1,2
2709.872,0.001007,-0.00390625,0,-0.001953125,0.015625,-0.34375,9.789062,0,0,-0.001953125,0,0,0,-0.0333252,-0.001098633,1.496094,0,0,1.496094,0,4.077,0,0,0,0,nan,2,0.104,0,0,0,0,0,0,0,0,0,1,2
2709.882,0.0009869999,0,0,0.00390625,0.0078125,-0.34375,9.851562,-0.001953125,0,0,0,0,0,-0.03320312,-0.001098633,1.496094,0,0,1.496094,0,4.077,0,0,0,0,nan,2,0.114,0,0,0,0,0,0,0,0,0,1,2
2709.892,0.001005,0,0.001953125,0.001953125,-0.015625,-0.3125,9.835938,0.001953125,0,0,0,0,0,-0.03320312,-0.001098633,1.496094,0,0,1.496094,0,4.077,0,0,0,0,nan,2,0.124,0,0,0,0,0,0,0,0,0,1,2
2709.903,0.001007,0,0.001953125,0.001953125,0.03125,-0.3125,9.8125,0,0.001953125,0.001953125,0,0,0,-0.03320312,-0.001098633,1.496094,0,0,1.496094,0,4.077,0,0,0,0,nan,2,0.134,0,0,0,0,0,0,0,0,0,1,2
2709.912,0.001022,0.00390625,0,-0.001953125,0.03125,-0.3046875,9.804688,0,0,0,0,0,0,-0.03320312,-0.001098633,1.496094,0,0,1.496094,0,4.077,0,0,0,0,nan,2,0.143,0,0,0,0,0,0,0,0,0,1,2
2709.922,0.001004,0,0.001953125,0,0.015625,-0.3203125,9.828125,0,0,0,0,0,0,-0.03320312,-0.001098633,1.496094,0,0,1.496094,0,4.077,0,0,0,0,nan,2,0.154,0,0,0,0,0,0,0,0,0,1,2
2709.932,0.000996,-0.001953125,-0.001953125,0,0.015625,-0.296875,9.789062,0,0,0,0,0,0,-0.03320312,-0.001098633,1.496094,0,0,1.496094,0,4.077,0,0,0,0,nan,2,0.164,0,0,0,0,0,0,0,0,0,1,2
2709.942,0.00097,0.001953125,-0.001953125,0.00390625,0.0390625,-0.2890625,9.851562,0.001953125,0,0.001953125,0,0,0,-0.03308105,-0.001098633,1.496094,0,0,1.496094,0,4.077,0,0,0,0,nan,2,0.003,0,0,0,0,0,0,0,0,0,1,2
2709.952,0.001031,-0.005859375,-0.001953125,0.00390625,0,-0.2890625,9.828125,-0.001953125,0,0.001953125,0,0,0,-0.03308105,-0.001098633,1.496216,0,0,1.496216,0,4.077,0,0,0,0,nan,2,0.013,0,0,0,0,0,0,0,0,0,1,2
2709.962,0.00096,-0.001953125,-0.001953125,0.001953125,0.015625,-0.3203125,9.796875,-0.001953125,0,0,0,0,0,-0.03308105,-0.001098633,1.496216,0,0,1.496216,0,4.077,0,0,0,0,nan,2,0.023,0,0,0,0,0,0,0,0,0,1,2
2709.972,0.001005,0,0.001953125,0.001953125,0.0078125,-0.3203125,9.828125,0,0,0,0,0,0,-0.03308105,-0.001098633,1.496216,0,0,1.496216,0,4.077,0,0,0,0,nan,2,0.033,0,0,0,0,0,0,0,0,0,1,2
2709.982,0.000974,-0.001953125,-0.001953125,0,-0.0234375,-0.3359375,9.859375,-0.001953125,-0.001953125,-0.001953125,0,0,0,-0.03308105,-0.001098633,1.496216,0,0,1.496216,0,4.077,0,0,0,0,nan,2,0.008,0,0,0,0,0,0,0,0,0,1,2
2709.992,0.000959,0,0.00390625,0,-0.0234375,-0.34375,9.828125,0,0,0,0,0,0,-0.03320312,-0.001098633,1.496216,0,0,1.496216,0,4.077,0,0,0,0,nan,2,0.018,0,0,0,0,0,0,0,0,0,1,2
2710.002,0.001006,0.001953125,-0.001953125,0,0.03125,-0.2578125,9.757812,0,-0.001953125,0,0,0,0,-0.03320312,-0.001098633,1.496216,0,0,1.496216,0,4.077,0,0,0,0,nan,2,0.028,0,0,0,0,0,0,0,0,0,1,2
2710.012,0.001009,0,0,0.001953125,0.0078125,-0.3203125,9.8125,0,0,0,0,0,0,-0.03308105,-0.001098633,1.496216,0,0,1.496216,0,4.077,0,0,0,0,nan,2,0.038,0,0,0,0,0,0,0,0,0,1,2
2710.023,0.001009,0.001953125,0.001953125,0.00390625,0.015625,-0.3125,9.835938,0,0,0.001953125,0,0,0,-0.03308105,-0.001098633,1.496216,0,0,1.496216,0,4.077,0,0,0,0,nan,2,0.048,0,0,0,0,0,0,0,0,0,1,2
2710.032,0.001065,0,0.001953125,0.001953125,0.0234375,-0.3046875,9.851562,0,0,0.001953125,0,0,0,-0.03308105,-0.001098633,1.496216,0,0,1.496216,0,4.077,0,0,0,0,nan,2,0.058,0,0,0,0,0,0,0,0,0,1,2
2710.042,0.001008,-0.001953125,0.001953125,0,0.0234375,-0.3671875,9.835938,0,0,0,0,0,0,-0.03308105,-0.001098633,1.496216,0,0,1.496216,0,4.077,0,0,0,0,nan,2,0.068,0,0,0,0,0,0,0,0,0,1,2
2710.052,0.001007,0,0,0,0.015625,-0.328125,9.84375,0,-0.001953125,0,0,0,0,-0.03308105,-0.001098633,1.496216,0,0,1.496216,0,4.077,0,0,0,0,nan,2,0.078,0,0,0,0,0,0,0,0,0,1,2
2710.062,0.001006,-0.001953125,0,0,0.015625,-0.328125,9.8125,-0.001953125,0,0,0,0,0,-0.03308105,-0.001098633,1.496216,0,0,1.496216,0,4.077,0,0,0,0,nan,2,0.088,0,0,0,0,0,0,0,0,0,1,2
2710.072,0.000995,0,0.001953125,0.001953125,-0.0078125,-0.3203125,9.78125,0,0,0,0,0,0,-0.03308105,-0.001098633,1.496216,0,0,1.496216,0,4.077,0,0,0,0,nan,2,0.098,0,0,0,0,0,0,0,0,0,1,2
2710.082,0.000964,0,0.00390625,-0.001953125,0,-0.3203125,9.804688,0,0.001953125,0,0,0,0,-0.03308105,-0.001098633,1.496216,0,0,1.496216,0,4.077,0,0,0,0,nan,2,0.108,0,0,0,0,0,0,0,0,0,1,2
2710.092,0.000999,-0.001953125,0,0.001953125,0.03125,-0.3046875,9.789062,0,0,0,0,0,0,-0.03308105,-0.0009765625,1.496216,0,0,1.496216,0,4.077,0,0,0,0,nan,2,0.118,0,0,0,0,0,0,0,0,0,1,2
2710.103,0.001016,0,0,0,-0.0078125,-0.328125,9.820312,0,-0.001953125,0,0,0,0,-0.03320312,-0.0009765625,1.496216,0,0,1.496216,0,4.077,0,0,0,0,nan,2,0.128,0,0,0,0,0,0,0,0,0,1,2
2710.112,0.000995,0,0.001953125,0,-0.015625,-0.3203125,9.8125,0,0,0,0,0,0,-0.03320312,-0.0009765625,1.496216,0,0,1.496216,0,4.077,0,0,0,0,nan,2,0.137,1,0,0,0,0,0,0,0,0,1,2
2710.122,0.001015,0.00390625,0,0.001953125,0.0078125,-0.328125,9.820312,0.001953125,0,0.001953125,0,0,0,-0.03320312,-0.0009765625,1.496216,0,0,1.496216,0,4.077,0,0,0,0,nan,2,0.147,1,0,0,0,0,0,0,0,0,1,2
2710.132,0.001009,0,0,0.00390625,-0.0078125,-0.375,9.835938,0,0.001953125,0.001953125,0,0,0,-0.03320312,-0.0009765625,1.496216,0,0,1.496216,0,4.077,0,0,0,0,nan,2,0.158,1,0,0,0,0,0,0,0,0,1,2
2710.142,0.001007,0.001953125,0,0.001953125,0.0078125,-0.3515625,9.78125,0,0,0.001953125,0,0,0,-0.03320312,-0.0009765625,1.496216,0,0,1.496216,0,4.077,0,0,0,0,nan,2,0.168,1,0,0,0,0,0,0,0,0,1,2
2710.152,0.001007,-0.001953125,-0.001953125,-0.001953125,0.0390625,-0.3046875,9.84375,0,-0.001953125,-0.001953125,0,0,0,-0.03320312,-0.0009765625,1.496216,0,0,1.496216,0,4.077,0,0,0,0,nan,2,0.178,1,0,0,0,0,0,0,0,0,1,2
2710.162,0.001007,-0.001953125,-0.001953125,0,-0.0078125,-0.3125,9.851562,0,-0.001953125,0,0,0,0,-0.03320312,-0.0009765625,1.496216,0,0,1.496216,0,4.077,0,0,0,0,nan,2,0.188,1,0,0,0,0,0,0,0,0,1,2
2710.172,0.001007,0,0,-0.001953125,0.0078125,-0.34375,9.859375,-0.001953125,0,-0.001953125,0,0,0,-0.03320312,-0.0009765625,1.496216,0,0,1.496216,0,4.077,0,0,0,0,nan,2,0.198,1,0,0,0,0,0,0,0,0,1,2
2710.182,0.001007,0,0,0.001953125,-0.03125,-0.3515625,9.8125,-0.001953125,0.001953125,0,0,0,0,-0.03320312,-0.0009765625,1.496216,0,0,1.496216,0,4.077,0,0,0,0,nan,2,0.208,1,0,0,0,0,0,0,0,0,1,2
2710.192,0.001007,0,-0.001953125,-0.001953125,-0.0234375,-0.2890625,9.804688,0,0,-0.001953125,0,0,0,-0.03320312,-0.0009765625,1.496216,0,0,1.496216,0,4.077,0,0,0,0,nan,2,0.218,1,0,0,0,0,0,0,0,0,1,2
2710.202,0.001007,0,0.001953125,0,0.0234375,-0.375,9.804688,0,0.00390625,-0.001953125,0,0,0,-0.03320312,-0.0009765625,1.496094,0,0,1.496216,0,4.077,0,0,0,0,nan,2,0.228,1,0,0,0,0,0,0,0,0,1,2
2710.213,0.001011,0,0,0.00390625,0.0078125,-0.3359375,9.789062,0,0,0.001953125,0,0,0,-0.0333252,-0.0009765625,1.496094,0,0,1.496216,0,4.077,0,0,0,0,nan,2,0.238,1,0,0,0,0,0,0,0,0,1,2
2710.223,0.001025,0,-0.005859375,0,0,-0.359375,9.8125,0,-0.001953125,0,0,0,0,-0.0333252,-0.0009765625,1.496094,0,0,1.496216,0,4.077,0,0,0,0,nan,2,0.004,1,0,0,0,0,0,0,0,0,1,2
2710.232,0.000991,0,-0.001953125,0.001953125,0.0078125,-0.3515625,9.804688,0,-0.001953125,0,0,0,0,-0.03344727,-0.0009765625,1.496094,0,0,1.496216,0,4.077,0,0,0,0,nan,2,0.013,1,0,0,0,0,0,0,0,0,1,2
2710.242,0.001027,-0.001953125,0.001953125,0,0.0078125,-0.3125,9.875,0,0,0,0,0,0,-0.0333252,-0.0009765625,1.496094,0,0,1.496216,0,4.077,0,0,0,0,nan,2,0.023,1,0,0,0,0,0,0,0,0,1,2
2710.252,0.001007,0,0,0.001953125,0.015625,-0.328125,9.75,-0.001953125,0,0,0,0,0,-0.0333252,-0.0009765625,1.496094,0,0,1.496216,0,4.077,0,0,0,0,nan,2,0.033,1,0,0,0,0,0,0,0,0,1,2
2710.262,0.00101,-0.001953125,-0.001953125,0.001953125,0.03125,-0.359375,9.78125,0,0,0.001953125,0,0,0,-0.03344727,-0.0009765625,1.496094,0,0,1.496216,0,4.077,0,0,0,0,nan,2,0.043,1,0,0,0,0,0,0,0,0,1,2
2710.272,0.00098,0.001953125,0,0,0.015625,-0.3125,9.820312,0,-0.001953125,0,0,0,0,-0.03344727,-0.001098633,1.496216,0,0,1.496216,0,4.077,0,0,0,0,nan,2,0.054,1,0,0,0,0,0,0,0,0,1,2
2710.282,0.000963,0,0.001953125,0,-0.0234375,-0.328125,9.8125,0,0,-0.001953125,0,0,0,-0.03344727,-0.001098633,1.496094,0,0,1.496216,0,4.077,0,0,0,0,nan,2,0.064,1,0,0,0,0,0,0,0,0,1,2
2710.292,0.000982,-0.001953125,-0.001953125,0.001953125,0,-0.359375,9.796875,0,-0.001953125,0,0,0,0,-0.03344727,-0.001098633,1.496094,0,0,1.496216,0,4.077,0,0,0,0,nan,2,0.074,1,0,0,0,0,0,0,0,0,1,2
2710.302,0.001028,0,0,0.0078125,-0.015625,-0.2890625,9.828125,-0.01953125,0.00390625,-0.001953125,0.2011719,0.005859375,0,-0.03356934,-0.0009765625,1.496094,0,0,1.496216,0.1421204,4.077,0,0,0,0.09997559,nan,2,0.006,1,0,0.1559753,0.1273804,0.1265564,0.1585083,0,0,0,1,2
2710.313,0.000984,-0.01171875,-0.00390625,-0.001953125,-0.0546875,-0.15625,9.734375,-0.005859375,-0.001953125,-0.001953125,0.2011719,0.005859375,0,-0.03369141,-0.0009765625,1.496094,0,0,1.496216,0.1421204,4.077,0,0,0,0.09997559,nan,2,0.017,1,0,0.1512451,0.1349182,0.1228638,0.1593933,0,0,0,1,2
2710.322,0.001019,-0.0390625,-0.0078125,-0.015625,0.140625,1.078125,9.453125,-0.01171875,0.001953125,0,0.2011719,0.005859375,0,-0.03369141,-0.0009765625,1.496216,0,0,1.496216,0.1421204,4.077,0,0,0,0.09997559,nan,2,0.026,1,0,0.1526794,0.1321411,0.1200562,0.1635742,0.0009765625,0,0,1,2
2710.332,0.000991,-0.04492188,0.01757812,0.02929688,-1.296875,-1.023438,11.6875,0.005859375,-0.001953125,0.0078125,0.2011719,0.005859375,0,-0.03344727,-0.0009765625,1.496094,0,0,1.496216,0.1421204,4.077,0,0,0,0.09997559,nan,2,0.036,1,0,0.1761169,0.1096191,0.1506042,0.1320496,0.0009765625,0,0,1,2
2710.342,0.000992,0.03515625,0.01171875,0.04101562,-1.195312,0.828125,9.835938,0.00390625,0.001953125,0.0078125,0.2011719,0.005859375,0,-0.03344727,-0.0008544922,1.496216,0,0,1.496216,0.1421204,4.077,0,0,0,0.09997559,nan,2,0.046,1,0,0.1748657,0.1061096,0.1515503,0.1358948,0.0009765625,0,0,1,2
2710.352,0.001005,0.09960938,-0.04492188,0.08007812,0.4140625,1.757812,9.734375,0.02539062,-0.02148438,0.07226562,0.2011719,0.005859375,0,-0.03344727,-0.0008544922,1.496582,0,0,1.496216,0.1421204,4.077,0,0,0,0.09997559,nan,2,0.057,1,0,0.2399597,0.05136108,0.2192993,0.05783081,0.0009765625,0,0,1,2
2710.362,0.001005,0.0546875,-0.015625,0.05273438,1.601562,1.117188,9.335938,0.02929688,-0.01953125,0.08398438,0.2011719,0.005859375,0,-0.03344727,-0.0009765625,1.497437,0,0,1.496216,0.1421204,4.077,0,0,0,0.09997559,nan,2,0.067,1,0,0.1676331,0.1204834,0.1471252,0.1331787,0.0009765625,0,0,1,2
2710.372,0.000954,-0.0703125,0.02539062,0.1542969,-0.53125,0.546875,7.5625,-0.01953125,0.02539062,0.1113281,0.2011719,0.005859375,0,-0.0333252,-0.001098633,1.498413,0,0,1.496216,0.1421204,4.077,0,0,0,0.09997559,nan,2,0.077,1,0,0.2339783,0.03509521,0.2093506,0.09002686,0.001953125,0,0,1,2
2710.382,0.00101,-0.01757812,-0.04296875,0.1835938,0.796875,-2.21875,5.859375,-0.00390625,0.001953125,0.1816406,0.2011719,0.00390625,0,-0.03356934,-0.0007324219,1.5,0,0,1.496216,0.1421204,4.077,0,0,0,0.09997559,nan,2,0.087,1,0,0.2565308,0.03442383,0.2268982,0.05053711,0.001953125,0,0,1,2
2710.392,0.001007,-0.0234375,-0.08398438,0.1113281,0.546875,0.984375,10.83594,0.005859375,-0.04296875,0.125,0.2011719,0.00390625,0,-0.0333252,-0.0007324219,1.501465,0,0,1.496216,0.1421204,4.077,0,0,0,0.09997559,nan,2,0.097,1,0,0.1589966,0.1426392,0.1125488,0.1542358,0.001953125,0,0,1,2
2710.403,0.001021,-0.015625,0.0703125,0.1054688,-1.359375,-0.0078125,14.45312,-0.02929688,0.01953125,0.1074219,0.2011719,0.005859375,0,-0.03344727,-0.0009765625,1.502686,0,0,1.496216,0.1421204,4.077,0,0,0,0.09997559,nan,2,0.107,1,0,0.1688538,0.100769,0.1441956,0.1546021,0.001953125,0,0,1,2
2710.412,0.000995,-0.03515625,-0.046875,0.07226562,-0.796875,0.8125,5.578125,-0.02539062,-0.001953125,0.0859375,0.2011719,0.00390625,0,-0.03344727,-0.0007324219,1.503662,0,0,1.496216,0.1421204,4.077,0,0,0,0.09997559,nan,2,0.003,1,0,0.1548767,0.1333618,0.1154785,0.1647034,0.001953125,0,0,1,2
2710.422,0.000998,0.06445312,0.005859375,0.06640625,-1,-1.554688,9.015625,0.009765625,-0.01757812,0.08007812,0.2011719,0.00390625,0,-0.03344727,-0.0007324219,1.504395,0,0,1.496216,0.1421204,4.077,0,0,0,0.09997559,nan,2,0.013,1,0,0.1671143,0.125,0.1389465,0.1373596,0.002929688,0,0,1,2
2710.432,0.001006,0.001953125,-0.001953125,0.0703125,-0.4140625,1.976562,8.539062,-0.00390625,0.03125,0.05664062,0.1992188,0.00390625,0,-0.0333252,-0.0007324219,1.505005,0,0,1.496216,0.1421204,4.077,0,0,0,0.09997559,nan,2,0.023,1,0,0.1676025,0.1027527,0.1496887,0.1483765,0.002929688,0,0,1,2
2710.442,0.001004,0.09765625,0.04882812,0.01953125,0.9609375,-2.5625,13.02344,0.01757812,0.015625,0.02539062,0.2011719,0.00390625,0,-0.03356934,-0.0006103516,1.505371,0,0,1.496216,0.1421204,4.077,0,0,0,0.09997559,nan,2,0.033,1,0,0.1321716,0.1522827,0.115387,0.1685486,0.002929688,0,0,1,2
2710.452,0.001006,-0.09375,-0.0859375,0.0703125,0.421875,-3.992188,12.67188,-0.03515625,-0.01953125,0.04492188,0.2011719,0.001953125,0,-0.03356934,-0.0004882812,1.505737,0,0,1.496216,0.1421204,4.077,0,0,0,0.09997559,nan,2,0.043,1,0,0.2156067,0.08181763,0.1576538,0.1133118,0.002929688,0,0,1,2
2710.462,0.001024,0.0625,-0.01171875,0.06054688,-1.304688,-2.664062,6.984375,0.02148438,0,0.06054688,0.2011719,0.001953125,0,-0.03369141,-0.0004882812,1.506226,0,0,1.496216,0.1421204,4.077,0,0,0,0.09997559,nan,2,0.054,1,0,0.1774292,0.1086731,0.161499,0.1208191,0.002929688,0,0,1,2
2710.472,0.000992,0.05078125,-0.08398438,0.08007812,0.8828125,-4.84375,10.89844,0.02929688,-0.03515625,0.0859375,0.2011719,0.001953125,0,-0.03356934,-0.0004882812,1.506958,0,0,1.496216,0,4.077,0,0,0,0,nan,2,0.003,1,0,0.1000061,0.1000061,0.1000061,0.1000061,0,0,0,1,2
2710.482,0.001033,-0.01953125,0.0546875,0.109375,-0.8046875,-5.023438,13.45312,-0.001953125,0.01757812,0.1054688,0.2011719,0.001953125,0,-0.0333252,-0.0006103516,1.507935,0,0,1.496216,0,4.077,0,0,0,0,nan,2,0.013,1,0,0.1000061,0.1000061,0.1000061,0.1000061,0,0,0,1,2
2710.492,0.001004,-0.01171875,0.0078125,0.109375,0.640625,0.7421875,13.64844,-0.0234375,-0.005859375,0.09765625,0.2011719,0.001953125,0,-0.03356934,-0.0006103516,1.508911,0,0,1.496216,0,4.077,0,0,0,0,nan,2,0.023,1,0,0.1000061,0.1000061,0.1000061,0.1000061,0,0,0,1,2
2710.502,0.001016,0.06054688,-0.0390625,0.05273438,0.453125,1.945312,9.90625,0.01757812,-0.03320312,0.08398438,0.203125,0.00390625,0,-0.03381348,-0.0007324219,1.509888,0,0,1.496216,0.1421204,4.077,0,0,0,0.09997559,nan,2,0.006,1,0,0.1535645,0.1420288,0.1245117,0.1483154,0,0,0,1,2
2710.512,0.001014,-0.0078125,-0.0078125,0.0703125,-1.28125,5.953125,9.335938,-0.0078125,-0.005859375,0.07617188,0.2089844,0.005859375,0,-0.03466797,-0.0008544922,1.51062,0,0,1.496216,0.1421204,4.077,0,0,0,0.09997559,nan,2,0.016,1,0,0.1749573,0.1083679,0.1470642,0.138031,0,0,0,1,2
2710.523,0.001015,0.03125,-0.03515625,0.07617188,-1.65625,-0.7265625,14.09375,0,0.00390625,0.08398438,0.2109375,0.00390625,0,-0.03503418,-0.0007324219,1.511475,0,0,1.496216,0.1421204,4.077,0,0,0,0.09997559,nan,2,0.027,1,0,0.1850891,0.1004333,0.1617432,0.1211548,0.0009765625,0,0,1,2
2710.532,0.001016,0.0390625,0,0.02734375,-0.8046875,-5.070312,14.98438,0.02929688,-0.01367188,0.046875,0.2089844,0.005859375,0,-0.03479004,-0.0008544922,1.512085,0,0,1.496216,0.1421204,4.077,0,0,0,0.09997559,nan,2,0.036,1,0,0.1323547,0.157074,0.1107788,0.1682129,0.0009765625,0,0,1,2
2710.542,0.001005,-0.08203125,0.01171875,0.01953125,-1.242188,3.757812,2.78125,-0.01367188,0.0078125,0.02929688,0.2089844,0.00390625,0,-0.03491211,-0.0007324219,1.512451,0,0,1.496216,0.1421204,4.077,0,0,0,0.09997559,nan,2,0.046,1,0,0.1482849,0.1319275,0.1170349,0.1711731,0.0009765625,0,0,1,2
2710.552,0.001005,0.01171875,-0.03710938,0.0546875,-0.3359375,-0.5546875,1.804688,-0.02929688,-0.03125,0.04492188,0.2109375,0.005859375,0,-0.03515625,-0.001098633,1.512817,0,0,1.496216,0.1421204,4.077,0,0,0,0.09997559,nan,2,0.057,1,0,0.1984253,0.09918213,0.1484375,0.1223755,0.0009765625,0,0,1,2
2710.562,0.001028,-0.0625,0.03125,0.001953125,0.2578125,7.953125,7.257812,-0.03320312,0.01953125,0.01171875,0.2128906,0.0078125,0,-0.03527832,-0.001220703,1.513062,0,0,1.496216,0.1421204,4.077,0,0,0,0.09997559,nan,2,0.067,1,0,0.1357117,0.1390686,0.1101074,0.1835022,0.0009765625,0,0,1,2
2710.572,0.001028,-0.06835938,-0.02929688,0.03515625,3.875,-2.632812,2.023438,-0.0234375,-0.01757812,0.02734375,0.2128906,0.0078125,0,-0.03552246,-0.001220703,1.513184,0,0,1.496216,0.1421204,4.077,0,0,0,0.09997559,nan,2,0.077,1,0,0.1953125,0.1005554,0.1459656,0.1265869,0.001953125,0,0,1,2
2710.582,0.001002,-0.03125,0.05078125,-0.02148438,0.8671875,5.578125,14.75781,-0.0078125,0.005859375,-0.001953125,0.2148438,0.005859375,0,-0.0357666,-0.001098633,1.513306,0,0,1.496216,0.1421204,4.077,0,0,0,0.09997559,nan,2,0.003,1,0,0.129425,0.1532898,0.1013184,0.1843567,0.001953125,0,0,1,2
2710.593,0.001004,0.02539062,-0.08007812,-0.01757812,0.3203125,-4.609375,11.01562,-0.009765625,-0.03320312,-0.009765625,0.2148438,0.0078125,0,-0.03588867,-0.001220703,1.513306,0,0,1.496216,0.1421204,4.077,0,0,0,0.09997559,nan,2,0.013,1,0,0.151825,0.1482849,0.1065674,0.1617432,0.001953125,0,0,1,2
2710.603,0.001017,0.0703125,-0.0078125,0.005859375,2.578125,4.765625,11.54688,0.01367188,-0.015625,0.005859375,0.2167969,0.0078125,0,-0.03601074,-0.001342773,1.513306,0,0,1.496216,0.1421204,4.057,0,0,0,0.09997559,nan,2,0.023,1,0,0.16922,0.1206055,0.1459656,0.1326294,0.001953125,0,0,1,2
2710.612,0.000991,0.01367188,-0.0546875,-0.005859375,0.3125,-5.4375,10.99219,-0.009765625,0.00390625,-0.00390625,0.2167969,0.0078125,0,-0.03613281,-0.001220703,1.513306,0,0,1.496216,0.1421204,4.057,0,0,0,0.09997559,nan,2,0.032,1,0,0.1509094,0.1355591,0.1148376,0.1671143,0.002929688,0,0,1,2
2710.622,0.001018,0.02929688,0.078125,-0.001953125,2.859375,7.8125,13.32031,-0.01367188,0.005859375,0.01367188,0.2167969,0.0078125,0,-0.03625488,-0.001342773,1.513306,0,0,1.496216,0.1421204,4.057,0,0,0,0.09997559,nan,2,0.042,1,0,0.1679993,0.1086426,0.1434937,0.1482544,0.002929688,0,0,1,2
2710.632,0.00102,0.005859375,-0.03710938,0.01367188,-1.101562,-3.46875,9.4375,-0.015625,0,0.001953125,0.2167969,0.0078125,0,-0.03625488,-0.001220703,1.513306,0,0,1.496216,0.1421204,4.057,0,0,0,0.09997559,nan,2,0.053,1,0,0.1710815,0.1132202,0.1323242,0.1517944,0.002929688,0,0,1,2
2710.642,0.0009860001,-0.05859375,0.06640625,-0.01953125,-1.929688,9.765625,10.44531,-0.01953125,0.02148438,-0.01171875,0.21875,0.0078125,0,-0.03637695,-0.001220703,1.513306,0,0,1.496216,0.1421204,4.057,0,0,0,0.09997559,nan,2,0.063,1,0,0.1338806,0.1396179,0.1022949,0.1925964,0.002929688,0,0,1,2
2710.652,0.001016,0.0390625,0.03125,0,0.8984375,-1.773438,6.210938,0.046875,-0.02148438,0.005859375,0.2167969,0.0078125,0,-0.03601074,-0.001464844,1.513306,0,0,1.496216,0.1421204,4.057,0,0,0,0.09997559,nan,2,0.073,1,0,0.1625671,0.1281433,0.1354675,0.1422424,0.00390625,0,0,1,2
2710.662,0.001051,-0.01757812,-0.02929688,-0.009765625,-1,-0.84375,10.45312,0.01367188,-0.0078125,0.001953125,0.2148438,0.0078125,0,-0.0357666,-0.001464844,1.513306,0,0,1.496216,0.1421204,4.057,0,0,0,0.09997559,nan,2,0.083,1,0,0.1560059,0.1313171,0.1187134,0.1624146,0.00390625,0,0,1,2
2710.672,0.001019,0.0625,0.07226562,0.01171875,0.578125,-7.546875,10.21875,0.0078125,0.02929688,0,0.2167969,0.0078125,0,-0.03613281,-0.001220703,1.513306,0,0,1.496216,0.1421204,4.057,0,0,0,0.09997559,nan,2,0.093,1,0,0.1526184,0.1223145,0.1383667,0.1550903,0.00390625,0,0,1,2
2710.682,0.00101,0.05859375,-0.0390625,0,1.726562,2.554688,3.132812,-0.00390625,-0.01953125,0.01171875,0.21875,0.005859375,0,-0.03637695,-0.001098633,1.513428,0,0,1.496216,0.1421204,4.057,0,0,0,0.09997559,nan,2,0.103,1,0,0.1707153,0.1271362,0.1253052,0.1452637,0.00390625,0,0,1,2
2710.692,0.0009860001,0.02539062,-0.05859375,-0.00390625,1.085938,0.0625,8.9375,0,-0.00390625,0.00390625,0.21875,0.005859375,0,-0.03637695,-0.001098633,1.51355,0,0,1.496216,0,4.057,0,0,0,0,nan,2,0.009,1,0,0.1000061,0.1000061,0.1000061,0.1000061,0,0,0,1,2
2710.702,0.00101,0.0234375,0.02148438,0.01367188,-2.296875,6.117188,11.01562,-0.01171875,0.02929688,0.001953125,0.21875,0.005859375,0,-0.03637695,-0.0009765625,1.51355,0,0,1.496216,0,4.057,0,0,0,0,nan,2,0.019,1,0,0.1000061,0.1000061,0.1000061,0.1000061,0,0,0,1,2
2710.712,0.001007,-0.005859375,-0.001953125,0,0.546875,-2.789062,1.375,-0.02734375,-0.001953125,-0.00390625,0.21875,0.005859375,0,-0.03637695,-0.0008544922,1.513428,0,0,1.496216,0,4.057,0,0,0,0,nan,2,0.029,1,0,0.1000061,0.1000061,0.1000061,0.1000061,0,0,0,1,2
2710.722,0.001019,0.001953125,0.0546875,-0.005859375,-0.8984375,-4.390625,7.984375,-0.015625,0.04882812,-0.009765625,0.2207031,0.00390625,0,-0.03686523,-0.0007324219,1.513428,0,0,1.496216,0.1421204,4.057,0,0,0,0.09997559,nan,2,0,1,0,0.1509399,0.1279602,0.1278381,0.1616821,0,0,0,1,2
2710.732,0.001015,-0.03320312,-0.03710938,-0.00390625,-1.039062,-5.71875,6.414062,-0.01757812,0.00390625,-0.0078125,0.21875,0.00390625,0,-0.03649902,-0.0006103516,1.513428,0,0,1.496216,0.1421204,4.057,0,0,0,0.09997559,nan,2,0.01,1,0,0.1578979,0.1327209,0.1151733,0.1626282,0,0,0,1,2
2710.742,0.001008,-0.04101562,0.0390625,-0.009765625,-2.148438,2.179688,12.70312,-0.0078125,0.001953125,0,0.2207031,0.00390625,0,-0.03662109,-0.0007324219,1.513428,0,0,1.496216,0.1421204,4.057,0,0,0,0.09997559,nan,2,0.02,1,0,0.1565857,0.1239929,0.1287231,0.1591187,0,0,0,1,2
2710.752,0.00101,0.01367188,0.02539062,0.01367188,0.625,-6.945312,7.804688,0.01953125,-0.009765625,0.001953125,0.2207031,0.00390625,0,-0.03662109,-0.0007324219,1.513428,0,0,1.496216,0.1421204,4.057,0,0,0,0.09997559,nan,2,0.03,1,0,0.1601868,0.1266785,0.1381836,0.1433716,0.0009765625,0,0,1,2
2710.762,0.00101,0.03710938,-0.1191406,0.04101562,1.492188,2.664062,10.85938,0.00390625,-0.0234375,0.02734375,0.2207031,0.00390625,0,-0.03686523,-0.0007324219,1.51355,0,0,1.496216,0.1421204,4.057,0,0,0,0.09997559,nan,2,0.04,1,0,0.197937,0.1022644,0.1570129,0.1112366,0.0009765625,0,0,1,2
2710.772,0.00101,0.02734375,0.1152344,0.005859375,-0.1640625,-8.039062,15.78906,0.01953125,0.04492188,0.009765625,0.2207031,0.00390625,0,-0.03674316,-0.0007324219,1.513672,0,0,1.496216,0.1421204,4.057,0,0,0,0.09997559,nan,2,0.05,1,0,0.1257019,0.136322,0.1288757,0.1775208,0.0009765625,0,0,1,2
2710.782,0.001007,-0.06445312,0.02734375,-0.001953125,3.117188,-0.6015625,3.992188,-0.02929688,0.005859375,0.009765625,0.2207031,0.00390625,0,-0.03674316,-0.0004882812,1.513794,0,0,1.496216,0.1421204,4.057,0,0,0,0.09997559,nan,2,0.061,1,0,0.1664429,0.1214905,0.1183472,0.1621704,0.0009765625,0,0,1,2
2710.792,0.001007,-0.0390625,0.01953125,-0.00390625,-1.554688,8.117188,12.96094,-0.009765625,0.01367188,-0.001953125,0.2207031,0.00390625,0,-0.03686523,-0.0006103516,1.513916,0,0,1.496216,0.1421204,4.057,0,0,0,0.09997559,nan,2,0.071,1,0,0.146698,0.1309814,0.1188354,0.1719055,0.001953125,0,0,1,2
2710.803,0.001005,0.03710938,-0.01171875,0.01367188,-3.734375,-4.367188,7.929688,-0.00390625,-0.02734375,0.009765625,0.2226562,0.00390625,0,-0.03723145,-0.0006103516,1.513916,0,0,1.496216,0.1421204,4.057,0,0,0,0.09997559,nan,2,0.081,1,0,0.174408,0.1199036,0.1339111,0.1401672,0.001953125,0,0,1,2
2710.812,0.001031,-0.005859375,-0.00390625,-0.00390625,-1.164062,-7.03125,5.164062,0.01171875,0.015625,0.001953125,0.2226562,0.00390625,0,-0.03723145,-0.0006103516,1.513916,0,0,1.496216,0.1421204,4.057,0,0,0,0.09997559,nan,2,0.005,1,0,0.1400757,0.1375427,0.1204529,0.1703186,0.001953125,0,0,1,2
2710.822,0.001006,0.09960938,0.00390625,-0.001953125,0.1328125,1.570312,10.32031,0.04882812,-0.03125,-0.00390625,0.2207031,0.00390625,0,-0.0369873,-0.0007324219,1.513916,0,0,1.496216,0.1421204,4.057,0,0,0,0.09997559,nan,2,0.015,1,0,0.1519165,0.1428833,0.1274109,0.1462097,0.001953125,0,0,1,2
2710.832,0.00096,-0.1074219,0.00390625,0.001953125,1.429688,0.015625,8.398438,-0.00390625,0.009765625,0.009765625,0.2207031,0.00390625,0,-0.03686523,-0.0007324219,1.514038,0,0,1.496216,0.1421204,4.057,0,0,0,0.09997559,nan,2,0.025,1,0,0.1681519,0.1126099,0.1311646,0.1565247,0.001953125,0,0,1,2
2710.842,0.000994,-0.02539062,0.009765625,0.02929688,0.2578125,-1,1.625,0.01757812,-0.01367188,0.009765625,0.2207031,0.005859375,0,-0.03686523,-0.0008544922,1.514038,0,0,1.496216,0.1421204,4.057,0,0,0,0.09997559,nan,2,0.035,1,0,0.1834412,0.1064148,0.1487427,0.1298218,0.002929688,0,0,1,2
2710.852,0.000967,-0.06054688,-0.06640625,-0.02929688,0.40625,1.007812,10.75,-0.015625,-0.02148438,-0.0078125,0.2207031,0.005859375,0,-0.03686523,-0.0009765625,1.514038,0,0,1.496216,0.1421204,4.057,0,0,0,0.09997559,nan,2,0.045,1,0,0.1478882,0.1473694,0.09344482,0.1796875,0.002929688,0,0,1,2
2710.862,0.001008,-0.1132812,0.1191406,0.005859375,1.820312,2.546875,16.70312,-0.05664062,0.005859375,0.001953125,0.2226562,0.0078125,0,-0.0369873,-0.001220703,1.514038,0,0,1.496216,0.1421204,4.057,0,0,0,0.09997559,nan,2,0.056,1,0,0.1653442,0.1044617,0.1237183,0.1748962,0.002929688,0,0,1,2
2710.872,0.001008,0.04882812,-0.0546875,0.001953125,0.3515625,0.7265625,5.820312,0.0234375,-0.03125,0.009765625,0.2226562,0.005859375,0,-0.03723145,-0.001098633,1.514038,0,0,1.496216,0.1421204,4.057,0,0,0,0.09997559,nan,2,0.066,1,0,0.1784058,0.1263733,0.1382141,0.1253967,0.002929688,0,0,1,2
2710.882,0.001009,-0.1621094,0.0625,0.01171875,2.765625,-3.59375,7.375,-0.0625,0.02539062,0.01367188,0.2246094,0.005859375,0,-0.03747559,-0.0009765625,1.51416,0,0,1.496216,0.1421204,4.057,0,0,0,0.09997559,nan,2,0.076,1,0,0.1664124,0.1083679,0.118866,0.1747742,0.00390625,0,0,1,2
2710.892,0.0009860001,0.01367188,0.04296875,-0.0078125,1.179688,10.07031,13.75781,0.00390625,0,-0.0078125,0.2285156,0.00390625,0,-0.03796387,-0.0007324219,1.514282,0,0,1.496216,0.1421204,4.057,0,0,0,0.09997559,nan,2,0.086,1,0,0.1335754,0.1535339,0.1075745,0.1737366,0.00390625,0,0,1,2
2710.902,0.001006,0.02539062,-0.0078125,0.02734375,1.3125,1.898438,11.85156,-0.02929688,0.01757812,0.001953125,0.2285156,0.00390625,0,-0.03833008,-0.0007324219,1.514282,0,0,1.496216,0,4.057,0,0,0,0,nan,2,0.002,1,0,0.1000061,0.1000061,0.1000061,0.1000061,0,0,0,1,2
2710.913,0.001054,-0.09179688,-0.0234375,0,1.351562,-1.179688,9.554688,-0.01953125,0.01171875,0.01367188,0.2285156,0.00390625,0,-0.03833008,-0.0007324219,1.514404,0,0,1.496216,0,4.057,0,0,0,0,nan,2,0.012,1,0,0.1000061,0.1000061,0.1000061,0.1000061,0,0,0,1,2
2710.923,0.000998,-0.02539062,0.046875,-0.001953125,1.4375,-0.453125,18.64062,-0.01171875,0.005859375,-0.005859375,0.2285156,0.00390625,0,-0.03833008,-0.0008544922,1.514404,0,0,1.496216,0,4.057,0,0,0,0,nan,2,0.022,1,0,0.1000061,0.1000061,0.1000061,0.1000061,0,0,0,1,2
2710.932,0.001029,-0.0390625,-0.09179688,-0.00390625,-0.9296875,4.109375,13.25,0,-0.015625,-0.0078125,0.2324219,0.005859375,0,-0.03869629,-0.0009765625,1.514282,0,0,1.496216,0.1421204,4.057,0,0,0,0.09997559,nan,2,0.007,1,0,0.1642456,0.1283569,0.1250305,0.1507874,0,0,0,1,2
2710.942,0.000983,0.04882812,0.03515625,0.01953125,-0.4140625,-3.804688,9.3125,0.02539062,0.001953125,0.01757812,0.2324219,0.005859375,0,-0.03869629,-0.001098633,1.514404,0,0,1.496216,0.1421204,4.057,0,0,0,0.09997559,nan,2,0.017,1,0,0.1672058,0.1118774,0.151886,0.1374512,0,0,0,1,2
2710.952,0.001007,0.1035156,-0.02734375,-0.009765625,-0.4765625,-0.1171875,15.42188,-0.0078125,0.00390625,0.005859375,0.2324219,0.005859375,0,-0.03869629,-0.001098633,1.514648,0,0,1.496216,0.1421204,4.057,0,0,0,0.09997559,nan,2,0.027,1,0,0.1408081,0.1444397,0.1115723,0.1716003,0.0009765625,0,0,1,2
2710.962,0.00101,0.07226562,-0.0390625,0.02148438,0.9453125,2.414062,15.83594,0.02929688,-0.015625,0.02148438,0.2324219,0.005859375,0,-0.03869629,-0.001098633,1.514771,0,0,1.496216,0.1421204,4.057,0,0,0,0.09997559,nan,2,0.037,1,0,0.1651306,0.1281433,0.1417236,0.1334534,0.0009765625,0,0,1,2
2710.972,0.00101,0.07421875,-0.078125,0,0.3046875,-1.304688,3.796875,0.05859375,-0.04492188,0.00390625,0.2285156,0.0078125,0,-0.03820801,-0.001342773,1.514893,0,0,1.496216,0.1421204,4.057,0,0,0,0.09997559,nan,2,0.047,1,0,0.1503296,0.1503906,0.1168518,0.1508179,0.0009765625,0,0,1,2
2710.982,0.001005,0.1425781,-0.0859375,0.04101562,3.09375,-4.296875,6.53125,0.08007812,-0.0390625,0.01367188,0.2285156,0.009765625,0,-0.03796387,-0.001708984,1.514893,0,0,1.496216,0.1421204,4.057,0,0,0,0.09997559,nan,2,0.058,1,0,0.172821,0.1199036,0.1589966,0.1166992,0.0009765625,0,0,1,2
2710.992,0.000972,0.140625,0.03515625,0.03125,2.265625,8.46875,11.97656,-0.015625,0.02539062,0.03320312,0.2285156,0.01171875,0,-0.03796387,-0.001831055,1.515137,0,0,1.496216,0.1421204,4.057,0,0,0,0.09997559,nan,2,0.068,1,0,0.1765137,0.09436035,0.1595764,0.13797,0.001953125,0,0,1,2
2711.002,0.001002,-0.1132812,-0.001953125,0,-0.6640625,7.835938,10.94531,-0.02929688,0.005859375,0.00390625,0.2285156,0.009765625,0,-0.03796387,-0.001831055,1.515381,0,0,1.496216,0.1421204,4.057,0,0,0,0.09997559,nan,2,0.078,1,0,0.1428223,0.13974,0.09539795,0.1904907,0.001953125,0,0,1,2
2711.013,0.00101,0.1015625,-0.0078125,0.0234375,1.492188,-7.4375,8.0625,0.04492188,0.015625,0.005859375,0.2285156,0.009765625,0,-0.03796387,-0.001708984,1.515503,0,0,1.496216,0.1421204,4.057,0,0,0,0.09997559,nan,2,0.007,1,0,0.1391296,0.1410217,0.1352234,0.1530457,0.001953125,0,0,1,2
2711.022,0.001016,0.08203125,-0.06054688,0.01171875,0.28125,2.140625,4.890625,0.04492188,-0.02539062,0,0.2265625,0.009765625,0,-0.0378418,-0.001586914,1.515503,0,0,1.496216,0.1421204,4.057,0,0,0,0.09997559,nan,2,0.016,1,0,0.1487732,0.1481934,0.1218567,0.1495972,0.001953125,0,0,1,2
2711.032,0.00101,-0.01757812,0.01171875,0.02929688,0.0859375,-1.320312,6.6875,-0.01757812,0.0078125,0.01171875,0.2304688,0.01171875,0,-0.03845215,-0.001831055,1.515503,0,0,1.496216,0.1421204,4.057,0,0,0,0.09997559,nan,2,0.026,1,0,0.1740723,0.1066284,0.1460266,0.1416931,0.001953125,0,0,1,2
2711.042,0.001004,0.0625,0.0078125,-0.03320312,-0.6640625,7.617188,13.11719,-0.0234375,0.001953125,-0.01171875,0.234375,0.01171875,0,-0.03894043,-0.001953125,1.515625,0,0,1.496216,0.1421204,4.057,0,0,0,0.09997559,nan,2,0.036,1,0,0.1146545,0.1697693,0.08224487,0.2017517,0.002929688,0,0,1,2
2711.052,0.001009,0.0703125,-0.1152344,0.0078125,-0.3203125,-0.8203125,6.71875,-0.01757812,-0.0546875,0.001953125,0.2363281,0.01171875,0,-0.03942871,-0.002075195,1.515625,0,0,1.496216,0.1421204,4.057,0,0,0,0.09997559,nan,2,0.046,1,0,0.1774597,0.1296692,0.1242676,0.1370239,0.002929688,0,0,1,2
2711.062,0.001005,-0.1757812,0.05078125,0.0234375,3.351562,-6.3125,4.5,-0.06640625,0.02734375,0.01171875,0.2382812,0.01367188,0,-0.03967285,-0.002197266,1.515747,0,0,1.496216,0.1421204,4.057,0,0,0,0.09997559,nan,2,0.057,1,0,0.1786499,0.09341431,0.1315308,0.164856,0.002929688,0,0,1,2
2711.072,0.001009,0.140625,-0.06835938,-0.01953125,0.5546875,2.429688,1.554688,-0.00390625,-0.009765625,-0.01953125,0.2402344,0.01367188,0,-0.04016113,-0.002197266,1.515747,0,0,1.496216,0.1421204,4.057,0,0,0,0.09997559,nan,2,0.067,1,0,0.1162415,0.1774597,0.09176636,0.1829834,0.00390625,0,0,1,2
2711.082,0.000993,0.1210938,0.0078125,0.015625,0.4296875,-0.1484375,15.90625,0.03515625,0.0078125,0.005859375,0.2382812,0.01367188,0,-0.03979492,-0.002319336,1.515747,0,0,1.496216,0.1421204,4.057,0,0,0,0.09997559,nan,2,0.077,1,0,0.1671753,0.1115417,0.1526489,0.1370544,0.00390625,0,0,1,2
2711.092,0.001005,-0.1503906,0.01953125,0.01757812,-1.570312,-2.382812,10.85938,-0.03710938,0.01171875,0.02734375,0.2382812,0.01367188,0,-0.03979492,-0.002319336,1.515869,0,0,1.496216,0.1421204,4.057,0,0,0,0.09997559,nan,2,0.087,1,0,0.1862488,0.09295654,0.1319885,0.1572266,0.00390625,0,0,1,2
2711.103,0.001001,0.04101562,0.015625,-0.009765625,0.765625,-6.460938,10.88281,0,0.01171875,-0.009765625,0.2402344,0.01367188,0,-0.03991699,-0.002319336,1.515991,0,0,1.496216,0.1421204,4.057,0,0,0,0.09997559,nan,2,0.097,1,0,0.1271362,0.1562195,0.09378052,0.1912537,0.00390625,0,0,1,2
2711.112,0.001007,-0.1210938,0.01367188,0.01367188,-1.390625,6.328125,17.20312,-0.03320312,-0.009765625,0.001953125,0.2402344,0.01367188,0,-0.03991699,-0.002441406,1.515869,0,0,1.496216,0.1421204,4.057,0,0,0,0.09997559,nan,2,0.107,1,0,0.1816101,0.1055298,0.1272583,0.1539917,0.004882812,0,0,1,2
2711.123,0.001,-0.04296875,0.03320312,0.001953125,1.859375,-4.789062,10.05469,0,0.005859375,0.015625,0.2402344,0.01367188,0,-0.03991699,-0.002563477,1.516113,0,0,1.496216,0,4.057,0,0,0,0,nan,2,0.008,1,0,0.1000061,0.1000061,0.1000061,0.1000061,0,0,0,1,2
2711.132,0.000702,0.08398438,-0.07617188,-0.015625,0.109375,-0.6640625,-0.4375,0.0234375,-0.015625,-0.0078125,0.2421875,0.01367188,0,-0.04040527,-0.002319336,1.515991,0,0,1.496216,0.1842041,4.057,0,0,0,0.1500244,nan,2,0.002,1,0,0.1948853,0.1895142,0.1644287,0.1879883,0,0,0,1,2
2711.142,0.001013,-0.04101562,-0.09375,0.02539062,0.8203125,-1.195312,7.585938,0.00390625,-0.01953125,-0.00390625,0.2421875,0.01367188,0,-0.04052734,-0.002197266,1.515869,0,0,1.496216,0.1842041,4.057,0,0,0,0.1500244,nan,2,0.012,1,0,0.2373047,0.1460571,0.1893616,0.164093,0,0,0,1,2
2711.152,0.001007,0.1289062,0.02539062,0.02539062,0.0625,4.664062,15.75781,0.0390625,0.03320312,0.01171875,0.2421875,0.01367188,0,-0.04052734,-0.002197266,1.515869,0,0,1.496216,0.1842041,4.057,0,0,0,0.1500244,nan,2,0.022,1,0,0.1982422,0.1577759,0.2005005,0.1803589,0.0009765625,0,0,1,2
2711.162,0.001034,0.1386719,-0.1074219,-0.02148438,-2.429688,-4.148438,17.14062,0.03515625,-0.04882812,0.001953125,0.2402344,0.01367188,0,-0.04003906,-0.002319336,1.516113,0,0,1.496216,0.1842041,4.057,0,0,0,0.1500244,nan,2,0.032,1,0,0.1850586,0.2077332,0.1365356,0.20755,0.0009765625,0,0,1,2
2711.172,0.001004,-0.06835938,-0.03125,0.03515625,-1.15625,7.28125,11.96875,0.001953125,-0.005859375,0.0078125,0.2382812,0.015625,0,-0.03979492,-0.002563477,1.515991,0,0,1.496216,0.1842041,4.057,0,0,0,0.1500244,nan,2,0.042,1,0,0.2296448,0.1383972,0.1887207,0.1800842,0.0009765625,0,0,1,2
2711.182,0.001008,0.09960938,-0.01367188,0.02539062,-0.0234375,5.101562,13.36719,0.0546875,-0.03125,0.02539062,0.2382812,0.015625,0,-0.03955078,-0.002685547,1.516235,0,0,1.496216,0.1842041,4.057,0,0,0,0.1500244,nan,2,0.053,1,0,0.2113342,0.1663818,0.1954041,0.1637268,0.0009765625,0,0,1,2
2711.192,0.001008,0.03320312,-0.08203125,0,-0.21875,-0.4140625,13.50781,0.01757812,-0.02539062,0,0.234375,0.01757812,0,-0.03918457,-0.003051758,1.516357,0,0,1.496216,0.1842041,4.057,0,0,0,0.1500244,nan,2,0.063,1,0,0.1848755,0.1937256,0.1412048,0.217041,0.0009765625,0,0,1,2
2711.202,0.001004,-0.009765625,0.05078125,0.03320312,1.132812,-4.304688,2.59375,0.05859375,0.01757812,-0.001953125,0.2324219,0.01757812,0,-0.03881836,-0.002929688,1.516357,0,0,1.496216,0.1842041,4.057,0,0,0,0.1500244,nan,2,0.073,1,0,0.2027893,0.1591492,0.1933289,0.1815796,0.001953125,0,0,1,2
2711.212,0.001008,0.03710938,0.02734375,0.03710938,0.140625,1.21875,6.421875,0.03125,-0.015625,0.02539062,0.2285156,0.01757812,0,-0.03820801,-0.002929688,1.516479,0,0,1.496216,0.1842041,4.057,0,0,0,0.1500244,nan,2,0.083,1,0,0.2289429,0.1490784,0.193634,0.1651917,0.001953125,0,0,1,2
2711.223,0.001009,0.1210938,-0.1210938,-0.03320312,1,0.3125,5.414062,0.02539062,0.001953125,-0.00390625,0.2285156,0.015625,0,-0.03820801,-0.002563477,1.516724,0,0,1.496216,0.1842041,4.057,0,0,0,0.1500244,nan,2,0.093,1,0,0.1561279,0.2232056,0.1246033,0.2329102,0.001953125,0,0,1,2
2711.232,0.001038,0.07617188,0.0546875,0.01171875,-1.507812,9.289062,13.74219,0.02539062,-0.01367188,-0.00390625,0.2285156,0.015625,0,-0.03808594,-0.002685547,1.516602,0,0,1.496216,0.1842041,4.057,0,0,0,0.1500244,nan,2,0.102,1,0,0.2034912,0.1698303,0.1742554,0.18927,0.001953125,0,0,1,2
2711.242,0.001022,-0.1308594,-0.02539062,-0.005859375,-0.1328125,-4.445312,3.625,-0.015625,-0.0078125,0.02148438,0.2304688,0.01757812,0,-0.03833008,-0.002807617,1.516724,0,0,1.496216,0.1842041,4.057,0,0,0,0.1500244,nan,2,0.002,1,0,0.2240295,0.1492004,0.1737366,0.1898499,0.001953125,0,0,1,2
2711.252,0.001014,-0.1855469,0.078125,-0.01367188,-1.953125,1.460938,9.625,0.00390625,0.04882812,0.009765625,0.2285156,0.015625,0,-0.03808594,-0.002563477,1.516968,0,0,1.496216,0.1842041,4.054,0,0,0,0.1500244,nan,2,0.012,1,0,0.1844177,0.1697388,0.1646118,0.2180786,0.002929688,0,0,1,2
2711.262,0.001012,0.07226562,0.08398438,-0.0078125,-3.445312,8.164062,16.86719,0.02734375,0.005859375,-0.01367188,0.2304688,0.015625,0,-0.03845215,-0.002441406,1.516846,0,0,1.496216,0.1842041,4.054,0,0,0,0.1500244,nan,2,0.022,1,0,0.1792603,0.1893921,0.1635742,0.2046204,0.002929688,0,0,1,2
2711.272,0.001009,0.005859375,-0.078125,-0.001953125,-1.96875,-1.976562,7.796875,-0.01367188,-0.0234375,0.01171875,0.2324219,0.01367188,0,-0.03869629,-0.002441406,1.516846,0,0,1.496216,0.1842041,4.054,0,0,0,0.1500244,nan,2,0.032,1,0,0.2203064,0.1636963,0.1681213,0.1847229,0.002929688,0,0,1,2
2711.282,0.001012,-0.001953125,-0.125,-0.009765625,-0.2890625,-6.820312,3.054688,0.05273438,-0.02734375,0.02539062,0.2304688,0.015625,0,-0.03833008,-0.002563477,1.51709,0,0,1.496216,0.1842041,4.054,0,0,0,0.1500244,nan,2,0.042,1,0,0.209137,0.1748657,0.1716919,0.1811523,0.002929688,0,0,1,2
2711.292,0.001051,0.1269531,0.001953125,-0.05078125,-2.75,4.039062,14.03125,0.0703125,-0.02734375,-0.02148438,0.2304688,0.01757812,0,-0.03820801,-0.002929688,1.51709,0,0,1.496216,0.1842041,4.054,0,0,0,0.1500244,nan,2,0.053,1,0,0.1473694,0.2255249,0.139679,0.2243042,0.00390625,0,0,1,2
2711.303,0.001005,0.1972656,-0.009765625,0.0390625,-2.203125,8.46875,17.61719,0.08007812,-0.01367188,0.00390625,0.2324219,0.01953125,0,-0.03857422,-0.003173828,1.516846,0,0,1.496216,0.1842041,4.054,0,0,0,0.1500244,nan,2,0.063,1,0,0.2279968,0.1418152,0.2169189,0.150116,0.00390625,0,0,1,2
2711.312,0.001009,0.1191406,-0.06445312,0.06445312,-3.6875,0.875,15.20312,-0.0390625,-0.02148438,0.03710938,0.234375,0.01953125,0,-0.03918457,-0.003295898,1.51709,0,0,1.496216,0.1842041,4.054,0,0,0,0.1500244,nan,2,0.073,1,0,0.2669983,0.1118774,0.2138977,0.144043,0.00390625,0,0,1,2
2711.322,0.001018,-0.1777344,0.06445312,0.0859375,-0.0546875,-7.210938,5.664062,-0.00390625,0.01953125,0.06445312,0.234375,0.01953125,0,-0.03942871,-0.003540039,1.517578,0,0,1.496216,0,4.054,0,0,0,0,nan,2,0.008,1,0,0.1000061,0.1000061,0.1000061,0.1000061,0,0,0,1,2
2711.332,0.000803,-0.04492188,0.05859375,0.0078125,0.171875,0.8515625,9.320312,0.01953125,0.01367188,0.03710938,0.2363281,0.01953125,0,-0.03918457,-0.003173828,1.518066,0,0,1.496216,0.1842041,4.054,0,0,0,0.1500244,nan,2,0.002,1,0,0.1869812,0.178009,0.1639099,0.2079468,0,0,0,1,2
2711.342,0.00099,0.03320312,-0.02148438,-0.015625,-3.335938,-4.648438,14,0.0546875,-0.05859375,-0.0078125,0.2324219,0.01953125,0,-0.03881836,-0.003295898,1.518066,0,0,1.496216,0.1842041,4.054,0,0,0,0.1500244,nan,2,0.012,1,0,0.170929,0.222229,0.1296082,0.2140503,0,0,0,1,2
2711.352,0.00101,-0.04296875,0.01171875,0.06835938,-1.328125,-0.9921875,9.890625,-0.04101562,0.0234375,0.06054688,0.234375,0.01953125,0,-0.03894043,-0.003173828,1.518433,0,0,1.496216,0.1842041,4.054,0,0,0,0.1500244,nan,2,0.022,1,0,0.2749329,0.08499146,0.2337341,0.143158,0.0009765625,0,0,1,2
2711.362,0.001005,-0.01367188,0.00390625,0.08203125,-0.734375,0.7890625,8.304688,0.06054688,-0.01953125,0.08789062,0.2304688,0.01953125,0,-0.03833008,-0.003173828,1.519287,0,0,1.496216,0.1842041,4.054,0,0,0,0.1500244,nan,2,0.032,1,0,0.2333679,0.1395569,0.2127075,0.1512146,0.0009765625,0,0,1,2
2711.372,0.00101,0.02539062,0.05664062,-0.0234375,-2.90625,-10.91406,9.453125,0.005859375,-0.001953125,0.0234375,0.2324219,0.02148438,0,-0.03869629,-0.003417969,1.519897,0,0,1.496216,0.1842041,4.054,0,0,0,0.1500244,nan,2,0.042,1,0,0.138855,0.2259216,0.1078796,0.2641907,0.0009765625,0,0,1,2
2711.382,0.001005,0.1054688,-0.09375,0.001953125,0.390625,4.726562,10.46094,0.0234375,-0.01953125,0.0078125,0.234375,0.02148438,0,-0.03894043,-0.003540039,1.519897,0,0,1.496216,0.1842041,4.054,0,0,0,0.1500244,nan,2,0.053,1,0,0.1888733,0.1929932,0.1594238,0.1955566,0.0009765625,0,0,1,2
2711.392,0.00101,-0.1191406,0.01367188,-0.02148438,-0.8671875,-9.53125,7.5625,0.0390625,0.04296875,0.001953125,0.2304688,0.01953125,0,-0.03833008,-0.003417969,1.52002,0,0,1.496216,0.1842041,4.054,0,0,0,0.1500244,nan,2,0.063,1,0,0.1811523,0.1707153,0.1627502,0.2221985,0.0009765625,0,0,1,2
2711.402,0.001019,-0.04296875,0.08398438,0.02539062,-3.789062,-5.835938,14.42969,-0.001953125,0.00390625,0.01953125,0.2285156,0.01953125,0,-0.03820801,-0.003417969,1.52002,0,0,1.496216,0.1842041,4.054,0,0,0,0.1500244,nan,2,0.073,1,0,0.2346191,0.1351318,0.1966248,0.1705017,0.001953125,0,0,1,2
2711.413,0.001022,0.1054688,-0.08398438,0.07617188,-0.4296875,3.210938,11.25,0.05078125,0.00390625,0.06835938,0.2265625,0.01953125,0,-0.0378418,-0.003173828,1.520508,0,0,1.496216,0.1842041,4.054,0,0,0,0.1500244,nan,2,0.083,1,0,0.2687378,0.1072998,0.2408752,0.1199036,0.001953125,0,0,1,2
2711.422,0.001021,-0.08984375,0.1386719,0.01757812,-0.78125,-3.171875,10.34375,-0.009765625,0.04882812,0.046875,0.2265625,0.01953125,0,-0.0378418,-0.003173828,1.520996,0,0,1.496216,0.1842041,4.054,0,0,0,0.1500244,nan,2,0.005,1,0,0.1852722,0.1594543,0.1576843,0.234436,0.001953125,0,0,1,2
2711.432,0.001009,0.08398438,-0.02539062,0.05078125,-0.8671875,-3.015625,7.851562,0.02539062,-0.03125,0.04492188,0.2265625,0.01953125,0,-0.03771973,-0.003173828,1.521484,0,0,1.496216,0.1842041,4.054,0,0,0,0.1500244,nan,2,0.015,1,0,0.2198486,0.1713867,0.1774902,0.1680908,0.001953125,0,0,1,2
2711.442,0.001033,-0.02929688,0.01953125,0.02539062,-3.273438,3.703125,12.10938,0.00390625,-0.00390625,0.05273438,0.2265625,0.01953125,0,-0.03759766,-0.003295898,1.522095,0,0,1.496216,0.1842041,4.054,0,0,0,0.1500244,nan,2,0.025,1,0,0.2077942,0.1585693,0.1785278,0.191925,0.001953125,0,0,1,2
2711.452,0.001056,-0.001953125,0.05664062,0.0390625,-0.4140625,-1.921875,5,-0.03710938,0.02929688,0.03515625,0.2265625,0.01953125,0,-0.03771973,-0.003173828,1.522461,0,0,1.496216,0.1842041,4.054,0,0,0,0.1500244,nan,2,0.035,1,0,0.1970215,0.1592102,0.162323,0.2182922,0.002929688,0,0,1,2
2711.462,0.001005,0.015625,-0.04296875,0.04492188,-0.9375,8.703125,8.492188,0.01953125,0.005859375,0.0390625,0.2285156,0.01953125,0,-0.03808594,-0.003295898,1.522827,0,0,1.496216,0.1842041,4.054,0,0,0,0.1500244,nan,2,0.045,1,0,0.2134094,0.1565857,0.1825562,0.1842957,0.002929688,0,0,1,2
2711.472,0.001005,0.03515625,-0.1269531,0.02929688,-3.585938,0.6484375,13.14844,0.04296875,-0.04492188,0.04882812,0.2285156,0.02148438,0,-0.03808594,-0.003540039,1.523315,0,0,1.496216,0.1842041,4.054,0,0,0,0.1500244,nan,2,0.056,1,0,0.2189941,0.1741333,0.1715088,0.1722107,0.002929688,0,0,1,2
2711.482,0.000976,0.001953125,0.06640625,0.01757812,1.164062,-8.460938,3.460938,0.009765625,0.0234375,0.0234375,0.2304688,0.02148438,0,-0.03833008,-0.003417969,1.523682,0,0,1.496216,0.1842041,4.054,0,0,0,0.1500244,nan,2,0.066,1,0,0.1790466,0.1810303,0.154541,0.222229,0.002929688,0,0,1,2
2711.492,0.001004,-0.1132812,-0.1152344,0.02929688,2.6875,3.039062,6.273438,0.001953125,-0.01953125,0.04296875,0.2285156,0.02148438,0,-0.03820801,-0.003540039,1.524048,0,0,1.496216,0.1842041,4.054,0,0,0,0.1500244,nan,2,0.076,1,0,0.228302,0.1552734,0.1688843,0.1843872,0.00390625,0,0,1,2
2711.503,0.001021,0.1816406,0.0546875,-0.00390625,-2.171875,1.523438,16.03125,0.04492188,0.01757812,0.02539062,0.2304688,0.01953125,0,-0.03820801,-0.003417969,1.524536,0,0,1.496216,0,4.054,0,0,0,0,nan,2,0,1,0,0.1000061,0.1000061,0.1000061,0.1000061,0,0,0,1,2
2711.512,0.001022,0.09570312,-0.1679688,0.0390625,0.578125,-4.671875,2.601562,0.046875,-0.078125,0.02734375,0.2304688,0.01953125,0,-0.03759766,-0.003662109,1.524658,0,0,1.496216,0,4.054,0,0,0,0,nan,2,0.01,1,0,0.1000061,0.1000061,0.1000061,0.1000061,0,0,0,1,2
2711.523,0.001001,0.02148438,0.04492188,0.01367188,-2.578125,-0.5859375,18.71875,0.009765625,-0.00390625,0.01953125,0.2304688,0.01953125,0,-0.03735352,-0.00378418,1.524902,0,0,1.496216,0,4.054,0,0,0,0,nan,2,0.02,1,0,0.1000061,0.1000061,0.1000061,0.1000061,0,0,0,1,2
2711.532,0.001041,-0.1171875,-0.02148438,0.005859375,2.351562,-11.14844,4.875,-0.06054688,0.0234375,0.01171875,0.2265625,0.0234375,0,-0.0378418,-0.00390625,1.525024,0,0,1.496216,0.1842041,4.054,0,0,0,0.1500244,nan,2,0.004,1,0,0.2220459,0.1368103,0.1860352,0.191925,0,0,0,1,2
2711.542,0.000985,0.07421875,0.06445312,0.04101562,-0.390625,0.8359375,17.11719,0.03320312,-0.0078125,0.01953125,0.2285156,0.0234375,0,-0.03796387,-0.00378418,1.525024,0,0,1.496216,0.1842041,4.054,0,0,0,0.1500244,nan,2,0.014,1,0,0.2230225,0.1504517,0.2113342,0.1520081,0,0,0,1,2
2711.552,0.001006,0,-0.04882812,0.01757812,0.6796875,6.132812,1.320312,0.05078125,0.00390625,0.009765625,0.2285156,0.0234375,0,-0.03796387,-0.00402832,1.525146,0,0,1.496216,0.1842041,4.054,0,0,0,0.1500244,nan,2,0.024,1,0,0.1994934,0.1729736,0.1734619,0.190918,0.0009765625,0,0,1,2
2711.562,0.001008,0.1054688,0.0703125,0.009765625,-4.21875,-4.460938,8.859375,0.02734375,0.01367188,0.009765625,0.2265625,0.0234375,0,-0.0378418,-0.00402832,1.525269,0,0,1.496216,0.1842041,4.054,0,0,0,0.1500244,nan,2,0.034,1,0,0.1963806,0.1680908,0.1781006,0.1942444,0.0009765625,0,0,1,2
2711.572,0.001008,-0.05078125,-0.03515625,0.01757812,-1.25,12.82812,11.29688,0.001953125,-0.0078125,0.0234375,0.2265625,0.02539062,0,-0.03771973,-0.004150391,1.525391,0,0,1.496216,0.1842041,4.054,0,0,0,0.1500244,nan,2,0.044,1,0,0.2244263,0.1507874,0.1853027,0.1763306,0.0009765625,0,0,1,2
2711.582,0.001008,-0.03125,0.05078125,0.04101562,-2.242188,-8.46875,9.148438,-0.01171875,0,0.03320312,0.2265625,0.02539062,0,-0.03771973,-0.004150391,1.525635,0,0,1.496216,0.1842041,4.054,0,0,0,0.1500244,nan,2,0.055,1,0,0.2301941,0.1394653,0.192627,0.1745605,0.0009765625,0,0,1,2
2711.592,0.001004,0.02734375,-0.001953125,0.04492188,0.671875,12.46094,13.45312,0.015625,-0.01953125,0.03320312,0.2285156,0.02539062,0,-0.03808594,-0.004272461,1.526001,0,0,1.496216,0.1842041,4.054,0,0,0,0.1500244,nan,2,0.065,1,0,0.2215576,0.1554565,0.1938477,0.1659546,0.0009765625,0,0,1,2
2711.602,0.001004,-0.07421875,-0.015625,0.01757812,0.109375,-7.46875,10.96094,-0.03515625,-0.046875,0.02539062,0.2285156,0.02734375,0,-0.03808594,-0.004638672,1.526367,0,0,1.496216,0.1842041,4.054,0,0,0,0.1500244,nan,2,0.075,1,0,0.2063904,0.1774597,0.1321716,0.2208252,0.001953125,0,0,1,2
2711.613,0.001012,0.04882812,0.01953125,0.06054688,1.109375,10.03906,14.36719,-0.0546875,0.03515625,0.04296875,0.2363281,0.02734375,0,-0.03918457,-0.004638672,1.526733,0,0,1.496216,0.1842041,4.054,0,0,0,0.1500244,nan,2,0.085,1,0,0.2191467,0.1372681,0.1862488,0.1941833,0.001953125,0,0,1,2
2711.623,0.000994,-0.1054688,0.00390625,0.08007812,-0.421875,-8.515625,6.828125,-0.03710938,0,0.06054688,0.2363281,0.02734375,0,-0.03955078,-0.004516602,1.527222,0,0,1.496216,0.1842041,4.054,0,0,0,0.1500244,nan,2,0.003,1,0,0.2567139,0.1191406,0.204895,0.1560669,0.001953125,0,0,1,2
2711.632,0.001013,0.03320312,0.1132812,0.0625,3.296875,-3.523438,0.4375,0.01953125,-0.001953125,0.06835938,0.2382812,0.02929688,0,-0.03991699,-0.004760742,1.527832,0,0,1.496216,0.1842041,4.054,0,0,0,0.1500244,nan,2,0.012,1,0,0.2207642,0.1439514,0.1966858,0.1754456,0.001953125,0,0,1,2
2711.642,0.001005,-0.1132812,-0.1015625,0.03710938,-1.5,3.625,6.835938,-0.03125,0,0.04492188,0.2421875,0.02734375,0,-0.0402832,-0.004394531,1.528442,0,0,1.496216,0.1842041,4.054,0,0,0,0.1500244,nan,2,0.022,1,0,0.1991882,0.1794739,0.1442566,0.2139282,0.002929688,0,0,1,2
2711.652,0.001011,0,0.02539062,-0.00390625,-1.726562,1.320312,9.875,0.00390625,-0.0234375,0.00390625,0.2441406,0.02734375,0,-0.04052734,-0.004516602,1.528809,0,0,1.496216,0.1842041,4.054,0,0,0,0.1500244,nan,2,0.032,1,0,0.1550293,0.2262268,0.1164246,0.2391663,0.002929688,0,0,1,2
2711.662,0.0009869999,-0.0234375,-0.1152344,-0.005859375,0.4296875,-7.796875,5.976562,-0.0078125,-0.005859375,0.005859375,0.2460938,0.02539062,0,-0.04101562,-0.004394531,1.528809,0,0,1.496216,0.1842041,4.054,0,0,0,0.1500244,nan,2,0.042,1,0,0.1990051,0.1822205,0.155304,0.2003174,0.002929688,0,0,1,2
2711.672,0.001009,0.09960938,0.1171875,-0.001953125,-2.007812,1.382812,14.00781,-0.02929688,0.05859375,-0.001953125,0.2480469,0.02539062,0,-0.04138184,-0.004272461,1.528809,0,0,1.496216,0.1842041,4.054,0,0,0,0.1500244,nan,2,0.053,1,0,0.1859436,0.1612854,0.1704712,0.2191467,0.00390625,0,0,1,2
2711.682,0.001006,-0.001953125,-0.1777344,0.00390625,-0.328125,-10.22656,8.273438,0.03320312,-0.02148438,0.01171875,0.2460938,0.0234375,0,-0.04089355,-0.00402832,1.528931,0,0,1.496216,0.1842041,4.054,0,0,0,0.1500244,nan,2,0.063,1,0,0.2181091,0.1725159,0.1751709,0.1710205,0.00390625,0,0,1,2
2711.692,0.001018,-0.0546875,0.08398438,0.0390625,1.359375,4.070312,7.328125,-0.0234375,0.01171875,0.02539062,0.2480469,0.02539062,0,-0.04150391,-0.00402832,1.529053,0,0,1.496216,0.1842041,4.054,0,0,0,0.1500244,nan,2,0.073,1,0,0.2341309,0.1288452,0.188324,0.1855774,0.00390625,0,0,1,2
2711.702,0.000999,-0.01757812,0.07226562,0,1.945312,11.30469,15.71094,-0.03320312,0.04882812,0.015625,0.25,0.0234375,0,-0.04174805,-0.00378418,1.529297,0,0,1.496216,0,4.054,0,0,0,0,nan,2,0,1,0,0.1000061,0.1000061,0.1000061,0.1000061,0,0,0,1,2
2711.712,0.001014,0.1152344,-0.05664062,0.05664062,-1.609375,0.5,9.546875,0.05273438,-0.0625,0.03710938,0.25,0.0234375,0,-0.04174805,-0.00378418,1.529541,0,0,1.496216,0,4.054,0,0,0,0,nan,2,0.011,1,0,0.1000061,0.1000061,0.1000061,0.1000061,0,0,0,1,2
2711.723,0.000993,-0.04492188,0.08984375,0.04882812,-0.9140625,-8.398438,9.078125,-0.001953125,0.0234375,0.03125,0.25,0.0234375,0,-0.04199219,-0.00402832,1.529785,0,0,1.496216,0,4.054,0,0,0,0,nan,2,0.021,1,0,0.1000061,0.1000061,0.1000061,0.1000061,0,0,0,1,2
2711.733,0.001026,0.109375,0.01757812,0.078125,2.195312,-0.3125,12.70312,-0.01757812,0.01171875,0.05273438,0.25,0.0234375,0,-0.0423584,-0.00378418,1.530151,0,0,1.496216,0,4.054,0,0,0,0,nan,2,0.031,1,0,0.1000061,0.1000061,0.1000061,0.1000061,0,0,0,1,2
2711.742,0.001,-0.04882812,-0.05664062,0.08984375,0.2421875,-3.0625,7.367188,0.00390625,-0.02148438,0.08789062,0.2539062,0.0234375,0,-0.0423584,-0.00378418,1.530884,0,0,1.496216,0.1842041,4.054,0,0,0,0.1500244,nan,2,0.008,1,0,0.2468262,0.135376,0.1998901,0.1547546,0,0,0,1,2
2711.752,0.001005,-0.0234375,0.0390625,0.01367188,-1.726562,-0.640625,4.507812,-0.03320312,0.02539062,0.04101562,0.2558594,0.02148438,0,-0.04248047,-0.003662109,1.531616,0,0,1.496216,0.1842041,4.054,0,0,0,0.1500244,nan,2,0.018,1,0,0.1661072,0.1954346,0.1331482,0.242157,0.0009765625,0,0,1,2
2711.762,0.001005,0.06445312,-0.03320312,0.0234375,0.1171875,7.625,12.10156,0.0390625,0.001953125,0.0390625,0.2558594,0.02148438,0,-0.04248047,-0.003417969,1.531982,0,0,1.496216,0.1842041,4.054,0,0,0,0.1500244,nan,2,0.028,1,0,0.2032471,0.1721802,0.1843262,0.1770935,0.0009765625,0,0,1,2
2711.772,0.001007,0.09960938,0.03320312,0.05664062,0.640625,2.914062,16.07812,0.03320312,0.02148438,0.05273438,0.2519531,0.02148438,0,-0.04211426,-0.003540039,1.532349,0,0,1.496216,0.1842041,4.054,0,0,0,0.1500244,nan,2,0.038,1,0,0.2339478,0.1267395,0.2192078,0.1569519,0.0009765625,0,0,1,2
2711.782,0.00101,-0.1328125,-0.0234375,0.07617188,2.367188,-5.953125,4.398438,-0.04882812,0.009765625,0.06445312,0.2539062,0.01953125,0,-0.04223633,-0.003417969,1.532837,0,0,1.496216,0.1842041,4.054,0,0,0,0.1500244,nan,2,0.048,1,0,0.2595825,0.1094971,0.2055969,0.1621399,0.0009765625,0,0,1,2
2711.792,0.00101,-0.001953125,0.06640625,0.01367188,-4.101562,-2.71875,15.95312,-0.0078125,0.001953125,0.01953125,0.2519531,0.01953125,0,-0.04211426,-0.003417969,1.533325,0,0,1.496216,0.1842041,4.054,0,0,0,0.1500244,nan,2,0.059,1,0,0.155365,0.2125854,0.1252441,0.2436523,0.001953125,0,0,1,2
2711.802,0.000963,-0.09179688,0,0.03320312,1.429688,1.367188,7.84375,-0.046875,0.0390625,0.04492188,0.2539062,0.01953125,0,-0.0423584,-0.003173828,1.533691,0,0,1.496216,0.1842041,4.054,0,0,0,0.1500244,nan,2,0.069,1,0,0.2278442,0.1329041,0.1815186,0.1945496,0.001953125,0,0,1,2
2711.813,0.001025,-0.01953125,-0.08984375,0.02539062,3.09375,-10.83594,4.914062,0.009765625,0.02539062,0.03320312,0.2558594,0.015625,0,-0.04260254,-0.002685547,1.534058,0,0,1.496216,0.1842041,4.054,0,0,0,0.1500244,nan,2,0.079,1,0,0.2068787,0.1679688,0.1753845,0.186615,0.001953125,0,0,1,2
2711.823,0.000993,0.0625,0.1542969,0.005859375,-0.9140625,4.914062,16.53906,-0.01171875,-0.001953125,0.02539062,0.2578125,0.01757812,0,-0.04284668,-0.003051758,1.534302,0,0,1.496216,0.1842041,4.054,0,0,0,0.1500244,nan,2,0.004,1,0,0.1958008,0.1660461,0.1630554,0.2119446,0.001953125,0,0,1,2
2711.832,0.001001,-0.0546875,-0.04882812,0.0625,-0.1015625,-9.101562,9.265625,-0.02148438,0.01171875,0.03320312,0.2578125,0.01757812,0,-0.04296875,-0.002929688,1.534546,0,0,1.496216,0.1842041,4.054,0,0,0,0.1500244,nan,2,0.013,1,0,0.2351074,0.1344604,0.1882019,0.1791077,0.002929688,0,0,1,2
2711.842,0.001004,0.0703125,0.06445312,0.02929688,-0.859375,8.375,12.82812,-0.01367188,-0.01367188,0.04296875,0.2597656,0.01757812,0,-0.04333496,-0.003051758,1.534912,0,0,1.496216,0.1842041,4.054,0,0,0,0.1500244,nan,2,0.023,1,0,0.2184448,0.1567383,0.1712952,0.1903992,0.002929688,0,0,1,2
2711.852,0.001009,-0.0703125,-0.0546875,0.01367188,-2.140625,-2.78125,9.046875,-0.02539062,-0.001953125,0.01757812,0.2578125,0.01757812,0,-0.04309082,-0.003051758,1.535278,0,0,1.496216,0.1842041,4.054,0,0,0,0.1500244,nan,2,0.033,1,0,0.1958008,0.1758423,0.1421509,0.223053,0.002929688,0,0,1,2
2711.862,0.001005,0.02929688,0.04296875,0.02734375,-4.257812,6.421875,11.13281,-0.0234375,0.04296875,0.03125,0.2597656,0.01757812,0,-0.04321289,-0.002807617,1.535645,0,0,1.496216,0.1842041,4.054,0,0,0,0.1500244,nan,2,0.043,1,0,0.2045898,0.1507568,0.1753845,0.2061157,0.002929688,0,0,1,2
2711.872,0.001005,0.09765625,-0.1386719,0.03125,-0.6640625,0.3828125,6.40625,0.05078125,-0.05273438,0.03320312,0.2578125,0.01757812,0,-0.04296875,-0.002929688,1.535889,0,0,1.496216,0.1842041,4.054,0,0,0,0.1500244,nan,2,0.054,1,0,0.2180786,0.1799011,0.1699219,0.1689453,0.00390625,0,0,1,2
2711.882,0.001007,0.05664062,-0.04101562,0.0546875,-1.820312,2.617188,8.757812,0.02734375,0.009765625,0.02929688,0.2597656,0.01757812,0,-0.04333496,-0.002929688,1.536133,0,0,1.496216,0.1842041,4.054,0,0,0,0.1500244,nan,2,0.064,1,0,0.21875,0.1519775,0.1930237,0.1730652,0.00390625,0,0,1,2
2711.892,0.00101,0.1230469,0.0625,0.04101562,-0.9140625,-2.835938,12.85938,0.07226562,-0.005859375,0.03320312,0.2558594,0.01757812,0,-0.04272461,-0.003051758,1.536499,0,0,1.496216,0.1842041,4.054,0,0,0,0.1500244,nan,2,0.074,1,0,0.2115784,0.1587219,0.187561,0.1789856,0.00390625,0,0,1,2
2711.902,0.001008,-0.08789062,0.04492188,0.01757812,3.125,7.125,11.40625,-0.03515625,0.05664062,0.01367188,0.2558594,0.01757812,0,-0.04284668,-0.002685547,1.536743,0,0,1.496216,0,4.05,0,0,0,0,nan,2,0.002,1,0,0.1000061,0.1000061,0.1000061,0.1000061,0,0,0,1,2
2711.912,0.001006,0.03125,0.0859375,0.03320312,1.304688,-7.421875,11.33594,0.02734375,0.05078125,0.02539062,0.2558594,0.01757812,0,-0.04272461,-0.002319336,1.536987,0,0,1.496216,0,4.05,0,0,0,0,nan,2,0.012,1,0,0.1000061,0.1000061,0.1000061,0.1000061,0,0,0,1,2
2711.923,0.001009,-0.03320312,-0.078125,0.04101562,-0.546875,10.55469,10,0.03710938,0.001953125,0.03320312,0.2558594,0.01171875,0,-0.04260254,-0.001953125,1.537231,0,0,1.496216,0.1842041,4.05,0,0,0,0.1500244,nan,2,0.004,1,0,0.2294617,0.1535339,0.1851501,0.1687012,0,0,0,1,2
2711.933,0.001013,-0.0078125,0.1464844,-0.00390625,-1.015625,-2.976562,3.054688,-0.01367188,0.03320312,0.0234375,0.2578125,0.01171875,0,-0.04296875,-0.001831055,1.537476,0,0,1.496216,0.1842041,4.05,0,0,0,0.1500244,nan,2,0.014,1,0,0.1896057,0.1652527,0.1626587,0.2193298,0,0,0,1,2
2711.942,0.001003,0.01953125,-0.09570312,0.02929688,-3.265625,13.3125,10.75781,0.05273438,-0.00390625,0.02148438,0.2578125,0.009765625,0,-0.04284668,-0.001708984,1.537598,0,0,1.496216,0.1842041,4.05,0,0,0,0.1500244,nan,2,0.023,1,0,0.2064514,0.1712952,0.1834412,0.1756592,0.0009765625,0,0,1,2
2711.952,0.000983,0.08789062,0.04492188,0.05078125,-0.625,-3.710938,4.6875,0.015625,-0.02148438,0.04101562,0.2558594,0.01171875,0,-0.04260254,-0.001831055,1.537964,0,0,1.496216,0.1842041,4.05,0,0,0,0.1500244,nan,2,0.033,1,0,0.230835,0.1440735,0.1948853,0.1670532,0.0009765625,0,0,1,2
2711.962,0.000962,0.00390625,-0.01757812,0.04101562,-0.8984375,7.507812,18.60156,0.02539062,0.015625,0.03515625,0.2558594,0.009765625,0,-0.04272461,-0.001831055,1.53833,0,0,1.496216,0.1842041,4.05,0,0,0,0.1500244,nan,2,0.043,1,0,0.212738,0.1521606,0.1906433,0.1812744,0.0009765625,0,0,1,2
2711.972,0.00101,0.02539062,0.1035156,0.0625,1.679688,3.921875,8.726562,-0.005859375,-0.001953125,0.05273438,0.2558594,0.009765625,0,-0.04248047,-0.001708984,1.538818,0,0,1.496216,0.1842041,4.05,0,0,0,0.1500244,nan,2,0.054,1,0,0.2371826,0.1306763,0.1963501,0.1726379,0.0009765625,0,0,1,2
2711.982,0.00101,-0.1269531,-0.05859375,0.04101562,-0.0859375,3.257812,14.6875,-0.04296875,0.01171875,0.02929688,0.2578125,0.009765625,0,-0.04296875,-0.001708984,1.539062,0,0,1.496216,0.1842041,4.05,0,0,0,0.1500244,nan,2,0.064,1,0,0.2199402,0.1464844,0.164978,0.2054443,0.001953125,0,0,1,2
2711.992,0.00101,0.015625,0.1230469,0.07617188,-0.796875,4.132812,4.625,-0.00390625,0.005859375,0.0546875,0.2578125,0.01171875,0,-0.04309082,-0.001831055,1.539551,0,0,1.496216,0.1842041,4.05,0,0,0,0.1500244,nan,2,0.074,1,0,0.2424622,0.1211548,0.2064819,0.166748,0.001953125,0,0,1,2
2712.002,0.001013,-0.05078125,-0.02734375,0.005859375,-2.015625,4.140625,11.70312,-0.005859375,-0.009765625,0.02539062,0.2578125,0.009765625,0,-0.04296875,-0.001831055,1.540039,0,0,1.496216,0.1842041,4.05,0,0,0,0.1500244,nan,2,0.084,1,0,0.1820984,0.1907654,0.1351318,0.2288513,0.001953125,0,0,1,2
2712.012,0.001005,-0.03125,-0.00390625,0.001953125,-0.625,9.078125,9.703125,0.015625,0.005859375,0.0078125,0.2578125,0.009765625,0,-0.04296875,-0.001586914,1.540161,0,0,1.496216,0.1842041,4.05,0,0,0,0.1500244,nan,2,0.094,1,0,0.1803589,0.1909485,0.1517944,0.2137146,0.001953125,0,0,1,2
2712.022,0.000976,-0.04101562,0.01171875,0.01367188,2.234375,-1.054688,7.898438,-0.01171875,0.03710938,0.0078125,0.2597656,0.0078125,0,-0.04345703,-0.001220703,1.540283,0,0,1.496216,0.1842041,4.05,0,0,0,0.1500244,nan,2,0.104,1,0,0.1950684,0.1710205,0.1587524,0.2119751,0.002929688,0,0,1,2
2712.032,0.000993,0.1679688,-0.1015625,0.015625,0.0234375,-5.9375,7.789062,0.08398438,-0.0078125,0.02148438,0.265625,0.005859375,0,-0.04406738,-0.0009765625,1.540405,0,0,1.496216,0.1842041,4.05,0,0,0,0.1500244,nan,2,0.113,1,0,0.2029724,0.1828003,0.1824646,0.1686096,0.002929688,0,0,1,2
2712.042,0.001011,-0.03320312,0.08984375,0.0078125,-1.78125,1.820312,11.78125,-0.046875,0.01171875,0.01171875,0.265625,0.0078125,0,-0.04418945,-0.001220703,1.540649,0,0,1.496216,0.2263184,4.05,0,0,0,0.2000122,nan,2,0.006,1,0,0.2350464,0.2076721,0.1822205,0.2803345,0.002929688,0,0,1,2
2712.052,0.001,0.04882812,-0.03320312,-0.01367188,2.03125,-9.742188,5.625,0.01757812,-0.009765625,-0.00390625,0.265625,0.0078125,0,-0.04418945,-0.001342773,1.540771,0,0,1.496216,0.2263184,4.05,0,0,0,0.2000122,nan,2,0.016,1,0,0.2235413,0.2299805,0.1909485,0.2607727,0.002929688,0,0,1,2
2712.062,0.00099,-0.1015625,0.06640625,-0.005859375,-0.0234375,2.921875,5.929688,-0.04296875,0.02539062,-0.01171875,0.2675781,0.0078125,0,-0.04443359,-0.001220703,1.540649,0,0,1.496216,0.2263184,4.05,0,0,0,0.2000122,nan,2,0.026,1,0,0.2394409,0.2046509,0.1896667,0.2714844,0.00390625,0,0,1,2
2712.072,0.001051,0.03515625,0.015625,0.001953125,-0.46875,9.617188,14.42969,0.05078125,0.01171875,0.01171875,0.265625,0.005859375,0,-0.04443359,-0.0009765625,1.540771,0,0,1.496216,0.2263184,4.05,0,0,0,0.2000122,nan,2,0.036,1,0,0.2416992,0.2104492,0.2245789,0.2285767,0.00390625,0,0,1,2
2712.082,0.001007,-0.0078125,-0.001953125,0.02734375,1.21875,6.257812,15.5,-0.04101562,-0.01171875,0.015625,0.2675781,0.005859375,0,-0.04467773,-0.001098633,1.540894,0,0,1.496216,0.2263184,4.05,0,0,0,0.2000122,nan,2,0.046,1,0,0.2758484,0.1826477,0.2105103,0.2362366,0.00390625,0,0,1,2
2712.092,0.001011,0,0.02734375,-0.009765625,0.3203125,-5.046875,9.382812,0.046875,0.02734375,-0.001953125,0.265625,0.00390625,0,-0.04418945,-0.0008544922,1.540894,0,0,1.496216,0.2263184,4.05,0,0,0,0.2000122,nan,2,0.057,1,0,0.2251282,0.2211914,0.1956482,0.2633057,0.00390625,0,0,1,2
2712.102,0.00105,0.01367188,-0.1015625,0.015625,0.3046875,-1.796875,6.929688,0.0859375,-0.0390625,0.015625,0.2617188,0.00390625,0,-0.04345703,-0.0006103516,1.540894,0,0,1.496216,0,4.05,0,0,0,0,nan,2,0.001,1,0,0.1000061,0.1000061,0.1000061,0.1000061,0,0,0,1,2
2712.112,0.000961,0.1132812,0.04492188,-0.0546875,1.648438,3.898438,11.10156,-0.03320312,-0.0078125,-0.01367188,0.2617188,0.00390625,0,-0.04309082,-0.001098633,1.541016,0,0,1.496216,0,4.05,0,0,0,0,nan,2,0.011,1,0,0.1000061,0.1000061,0.1000061,0.1000061,0,0,0,1,2
2712.122,0.000996,0.07421875,-0.009765625,-0.01953125,-2.78125,-1,15.30469,0.06054688,0,-0.02734375,0.2617188,0.00390625,0,-0.04296875,-0.001098633,1.540771,0,0,1.496216,0,4.05,0,0,0,0,nan,2,0.021,1,0,0.1000061,0.1000061,0.1000061,0.1000061,0,0,0,1,2
2712.133,0.00103,-0.09179688,-0.0625,-0.00390625,1.390625,-10.4375,4.914062,0.005859375,-0.03320312,-0.00390625,0.2617188,0.00390625,0,-0.04248047,-0.001220703,1.540649,0,0,1.496216,0,4.05,0,0,0,0,nan,2,0.031,1,0,0.1000061,0.1000061,0.1000061,0.1000061,0,0,0,1,2
2712.143,0.001024,0.1113281,0.0703125,0.03710938,-0.515625,-1.710938,17.5625,-0.02539062,0.03710938,0.02148438,0.2617188,0.00390625,0,-0.04321289,-0.001464844,1.540771,0,0,1.496216,0,4.05,0,0,0,0,nan,2,0.041,1,0,0.1000061,0.1000061,0.1000061,0.1000061,0,0,0,1,2
2712.152,0.001214,-0.03320312,0.0546875,0.01171875,0.265625,-3,3.648438,-0.01171875,0.02148438,0.0234375,0.2578125,0.005859375,0,-0.04309082,-0.001098633,1.541016,0,0,1.496216,0.2263184,4.05,0,0,0,0.2000122,nan,2,0.001,1,0,0.2424927,0.2049561,0.2128296,0.2449951,0,0,0,1,2
2712.162,0.001012,0.01171875,-0.01757812,0.03710938,1.4375,-6,10.57812,0.001953125,-0.001953125,0.02148438,0.2578125,0.005859375,0,-0.04284668,-0.0009765625,1.541138,0,0,1.496216,0.2263184,4.05,0,0,0,0.2000122,nan,2,0.011,1,0,0.2600403,0.1989441,0.2191162,0.2271423,0,0,0,1,2
2712.172,0.001012,0.08789062,0.02734375,0.0390625,1.976562,4.929688,14.29688,0.02929688,0.03710938,0.02734375,0.2558594,0.00390625,0,-0.04272461,-0.0007324219,1.541382,0,0,1.496216,0.2263184,4.05,0,0,0,0.2000122,nan,2,0.021,1,0,0.2488708,0.1928406,0.2333374,0.2301941,0.0009765625,0,0,1,2
2712.182,0.001012,0.046875,-0.0234375,0.04492188,1.742188,-11.29688,9.695312,-0.01367188,0.02148438,0.02539062,0.2597656,0.00390625,0,-0.04321289,-0.0006103516,1.541626,0,0,1.496216,0.2263184,4.05,0,0,0,0.2000122,nan,2,0.031,1,0,0.2550659,0.1991577,0.2134705,0.2375488,0.0009765625,0,0,1,2
2712.192,0.001012,0.05859375,-0.0546875,-0.01171875,1.429688,3.6875,11.02344,0.01367188,-0.03125,0,0.2617188,0.00390625,0,-0.0435791,-0.0006103516,1.541748,0,0,1.496216,0.2263184,4.05,0,0,0,0.2000122,nan,2,0.041,1,0,0.2202148,0.2483826,0.1812744,0.2553711,0.0009765625,0,0,1,2
2712.202,0.001006,0.06054688,0.05078125,0.01757812,2.484375,-4.453125,10.35938,0.0078125,0.001953125,0.01367188,0.2617188,0.005859375,0,-0.0435791,-0.0008544922,1.54187,0,0,1.496216,0.2263184,4.05,0,0,0,0.2000122,nan,2,0.052,1,0,0.2503052,0.1919556,0.2294922,0.23349,0.0009765625,0,0,1,2
2712.212,0.001006,0.03125,-0.06054688,-0.0078125,1.351562,1.140625,10.15625,0.0234375,-0.0234375,-0.0078125,0.2597656,0.005859375,0,-0.04321289,-0.001098633,1.54187,0,0,1.496216,0.2263184,4.05,0,0,0,0.2000122,nan,2,0.062,1,0,0.2247314,0.2342529,0.1877441,0.2585144,0.001953125,0,0,1,2
2712.222,0.001011,0.09570312,0.1425781,-0.05859375,-1.734375,2.984375,16.72656,0.001953125,0.02929688,-0.02929688,0.2558594,0.0078125,0,-0.04260254,-0.001220703,1.541748,0,0,1.496216,0.2263184,4.05,0,0,0,0.2000122,nan,2,0.072,1,0,0.2019958,0.2346802,0.1860046,0.2825928,0.001953125,0,0,1,2
2712.232,0.001028,-0.0703125,-0.04492188,-0.01171875,-0.5625,5.6875,15.59375,0.0078125,0.009765625,-0.03320312,0.2558594,0.005859375,0,-0.04260254,-0.0009765625,1.54126,0,0,1.496216,0.2263184,4.05,0,0,0,0.2000122,nan,2,0.081,1,0,0.2524719,0.2062378,0.2138672,0.232666,0.001953125,0,0,1,2
2712.242,0.001035,-0.08203125,0.0078125,-0.02734375,-0.7421875,5.523438,14.46094,0,0.001953125,-0.02734375,0.2558594,0.005859375,0,-0.04284668,-0.0009765625,1.541016,0,0,1.496216,0.2263184,4.05,0,0,0,0.2000122,nan,2,0.006,1,0,0.2410278,0.2138062,0.1999817,0.2504272,0.001953125,0,0,1,2
2712.252,0.001019,0.02734375,-0.05078125,-0.0078125,-1.25,-1.898438,6.1875,-0.009765625,-0.01367188,-0.0078125,0.2578125,0.005859375,0,-0.04284668,-0.0009765625,1.540894,0,0,1.496216,0.2263184,4.05,0,0,0,0.2000122,nan,2,0.016,1,0,0.265564,0.1981201,0.2158508,0.225708,0.002929688,0,0,1,2
2712.262,0.001005,0.005859375,-0.01171875,-0.01953125,4.046875,-8.28125,5.929688,-0.02148438,0.01367188,-0.015625,0.2578125,0.005859375,0,-0.04309082,-0.0009765625,1.540771,0,0,1.496216,0.2263184,4.05,0,0,0,0.2000122,nan,2,0.026,1,0,0.226593,0.2191772,0.1901855,0.2692871,0.002929688,0,0,1,2
2712.272,0.001024,-0.1054688,0.03710938,0.01953125,-0.515625,-13,5.648438,-0.03710938,0.02929688,0.015625,0.2558594,0.00390625,0,-0.04284668,-0.0007324219,1.540771,0,0,1.496216,0.2263184,4.05,0,0,0,0.2000122,nan,2,0.036,1,0,0.2799072,0.1639099,0.2346497,0.2267761,0.002929688,0,0,1,2
2712.282,0.001006,-0.005859375,0.00390625,0.04296875,1.484375,-8.828125,9.265625,0.03515625,0.001953125,0.01367188,0.2558594,0.00390625,0,-0.04260254,-0.0007324219,1.540771,0,0,1.496216,0.2263184,4.05,0,0,0,0.2000122,nan,2,0.046,1,0,0.2676392,0.1847839,0.2391663,0.2136841,0.002929688,0,0,1,2
2712.292,0.000966,-0.03710938,-0.001953125,-0.02734375,-0.3828125,-8.085938,7.929688,0.04492188,-0.02539062,0.0078125,0.2539062,0.005859375,0,-0.04211426,-0.0008544922,1.541016,0,0,1.496216,0.2263184,4.05,0,0,0,0.2000122,nan,2,0.057,1,0,0.2217712,0.2367249,0.1816711,0.2650757,0.00390625,0,0,1,2
2712.302,0.00101,0.05273438,-0.001953125,0.01757812,1.617188,-7.390625,11.6875,-0.0234375,0.01171875,-0.005859375,0.2519531,0.00390625,0,-0.04211426,-0.0007324219,1.540894,0,0,1.496216,0.2263184,4.05,0,0,0,0.2000122,nan,2,0.067,1,0,0.2478027,0.2006836,0.2082825,0.2485046,0.00390625,0,0,1,2
2712.312,0.00101,0.04492188,-0.03125,0.01367188,0.625,-3.078125,5.34375,0.015625,-0.009765625,0.01171875,0.2539062,0.00390625,0,-0.04223633,-0.0007324219,1.541016,0,0,1.496216,0.2263184,4.05,0,0,0,0.2000122,nan,2,0.077,1,0,0.2593994,0.2001953,0.2264099,0.2192383,0.00390625,0,0,1,2
2712.322,0.001005,-0.0390625,-0.01953125,0.03710938,0.203125,-8.890625,5.296875,-0.01171875,0.001953125,0.03125,0.2558594,0.00390625,0,-0.04260254,-0.0008544922,1.541138,0,0,1.496216,0.2263184,4.05,0,0,0,0.2000122,nan,2,0.087,1,0,0.289032,0.1615906,0.2399902,0.2146301,0.00390625,0,0,1,2
2712.333,0.001004,-0.046875,0.04882812,0.1015625,0.6484375,-3.203125,10.30469,0.015625,-0.00390625,0.0625,0.2539062,0.00390625,0,-0.04223633,-0.0007324219,1.541626,0,0,1.496216,0.2263184,4.05,0,0,0,0.2000122,nan,2,0.097,1,0,0.3139648,0.1366882,0.2726135,0.1820068,0.004882812,0,0,1,2
2712.342,0.00102,0.1503906,-0.1035156,0.1542969,-0.84375,2.539062,8.546875,0.06054688,-0.03125,0.1210938,0.2539062,0.00390625,0,-0.0423584,-0.0006103516,1.54248,0,0,1.496216,0,4.05,0,0,0,0,nan,2,0.004,1,0,0.1000061,0.1000061,0.1000061,0.1000061,0,0,0,1,2
2712.352,0.001011,-0.078125,0.01171875,0.1210938,2.148438,-3.367188,5.25,-0.001953125,0.03320312,0.140625,0.2539062,0.00390625,0,-0.0423584,-0.0003662109,1.543945,0,0,1.496216,0,4.05,0,0,0,0,nan,2,0.014,1,0,0.1000061,0.1000061,0.1000061,0.1000061,0,0,0,1,2
2712.362,0.000999,0.171875,-0.01367188,0.05859375,1.570312,4.40625,7.710938,0.06835938,-0.0234375,0.1035156,0.2539062,0.001953125,0,-0.0423584,-0.0003662109,1.545288,0,0,1.496216,0.2263184,4.05,0,0,0,0.2000122,nan,2,0.005,1,0,0.2015076,0.25354,0.1885681,0.2616272,0,0,0,1,2
2712.372,0.000993,0.07421875,0.02734375,-0.015625,0.8125,9.460938,8.117188,0.009765625,0.005859375,0.0078125,0.2519531,0.001953125,0,-0.04187012,-0.0003662109,1.545654,0,0,1.496216,0.2263184,4.05,0,0,0,0.2000122,nan,2,0.015,1,0,0.1642151,0.2822266,0.1350708,0.323761,0,0,0,1,2
2712.382,0.001004,-0.0625,0.03125,0.02539062,0.7265625,7.648438,11.49219,-0.01367188,-0.02734375,0.02539062,0.25,0.00390625,0,-0.04174805,-0.0006103516,1.545898,0,0,1.496216,0.2263184,4.05,0,0,0,0.2000122,nan,2,0.025,1,0,0.2638245,0.190155,0.2149963,0.2362976,0.0009765625,0,0,1,2
2712.392,0.000999,0.02539062,0.07226562,0.02148438,0.2734375,-2.539062,12.52344,0.02148438,0.01367188,0.0078125,0.2519531,0.00390625,0,-0.04187012,-0.0006103516,1.546021,0,0,1.496216,0.2263184,4.05,0,0,0,0.2000122,nan,2,0.035,1,0,0.2189026,0.2250061,0.2116699,0.2496643,0.0009765625,0,0,1,2
2712.402,0.001004,0.1015625,0.02734375,-0.04101562,-0.9921875,-5.421875,3.609375,-0.005859375,0.00390625,-0.00390625,0.2519531,0.00390625,0,-0.04211426,-0.0004882812,1.546143,0,0,1.496216,0.2263184,4.05,0,0,0,0.2000122,nan,2,0.045,1,0,0.2042542,0.2498474,0.1746521,0.2764893,0.0009765625,0,0,1,2
2712.412,0.001008,0.0234375,-0.01367188,-0.03515625,1.226562,0.859375,5.875,0.0078125,-0.009765625,-0.02929688,0.2519531,0.00390625,0,-0.04199219,-0.0006103516,1.545898,0,0,1.496216,0.2263184,4.05,0,0,0,0.2000122,nan,2,0.056,1,0,0.2174377,0.2379456,0.1850586,0.2648315,0.0009765625,0,0,1,2
2712.422,0.001008,-0.1035156,-0.0078125,-0.05664062,0.0390625,6.359375,6.882812,-0.03320312,0.03125,-0.05273438,0.2539062,0.00390625,0,-0.0423584,-0.0006103516,1.545532,0,0,1.496216,0.2263184,4.05,0,0,0,0.2000122,nan,2,0.066,1,0,0.207489,0.236145,0.1654053,0.2962036,0.001953125,0,0,1,2
2712.433,0.001007,0.0390625,0.04101562,0,-1.804688,6.492188,13.52344,0.02734375,-0.02148438,-0.009765625,0.2558594,0.00390625,0,-0.04248047,-0.0007324219,1.545166,0,0,1.496216,0.2263184,4.05,0,0,0,0.2000122,nan,2,0.076,1,0,0.2732544,0.1868896,0.2457275,0.1993713,0.001953125,0,0,1,2
2712.443,0.001006,0.109375,-0.1152344,-0.01171875,-0.15625,4.945312,14.63281,-0.001953125,-0.02929688,-0.01953125,0.2558594,0.005859375,0,-0.04260254,-0.0008544922,1.545044,0,0,1.496216,0.2263184,4.05,0,0,0,0.2000122,nan,2,0.086,1,0,0.2393799,0.2228088,0.1942444,0.2488403,0.001953125,0,0,1,2
2712.452,0.001039,-0.03320312,-0.046875,0.005859375,-0.0859375,7.828125,10.78906,0.03515625,-0.04101562,0.005859375,0.2539062,0.0078125,0,-0.04223633,-0.001220703,1.545044,0,0,1.496216,0.2263184,4.05,0,0,0,0.2000122,nan,2,0.095,1,0,0.2655029,0.1978455,0.2246704,0.2172546,0.001953125,0,0,1,2
2712.462,0.001026,0,-0.07226562,0.01953125,-0.296875,4.617188,12.05469,0.02734375,-0.04296875,0.009765625,0.25,0.009765625,0,-0.04187012,-0.001586914,1.545044,0,0,1.496216,0.2263184,4.05,0,0,0,0.2000122,nan,2,0.105,1,0,0.2650757,0.2019043,0.214386,0.2239075,0.002929688,0,0,1,2
2712.472,0.001028,-0.005859375,0.0390625,0.0078125,-0.90625,3.484375,14.36719,-0.005859375,0,0.015625,0.25,0.01171875,0,-0.04162598,-0.001831055,1.545288,0,0,1.496216,0.2263184,4.05,0,0,0,0.2000122,nan,2,0.005,1,0,0.2516174,0.1975403,0.2183228,0.237793,0.002929688,0,0,1,2
2712.482,0.001006,0.09765625,-0.06640625,0.0859375,4.03125,9.90625,12.07812,-0.015625,-0.00390625,0.05664062,0.25,0.009765625,0,-0.04174805,-0.001708984,1.545532,0,0,1.496216,0.2263184,4.05,0,0,0,0.2000122,nan,2,0.015,1,0,0.3097839,0.1500549,0.2660522,0.1793518,0.002929688,0,0,1,2
2712.492,0.001009,-0.02539062,-0.03125,0.05273438,1.726562,-0.8671875,5.453125,-0.02539062,-0.015625,0.04101562,0.25,0.01171875,0,-0.04162598,-0.001831055,1.546021,0,0,1.496216,0.2263184,4.05,0,0,0,0.2000122,nan,2,0.025,1,0,0.2613831,0.1941223,0.2052612,0.2445068,0.002929688,0,0,1,2
2712.502,0.000978,0.01757812,0,0.05664062,2.484375,0.3359375,4.78125,0.0078125,0.009765625,0.05664062,0.2519531,0.009765625,0,-0.04187012,-0.001708984,1.546631,0,0,1.496216,0.2263184,4.05,0,0,0,0.2000122,nan,2,0.035,1,0,0.2558594,0.1974182,0.2235107,0.2284546,0.00390625,0,0,1,2
2712.512,0.001038,-0.03320312,0.01171875,0.00390625,-0.8515625,-5.984375,6.976562,0.015625,0.005859375,0.02929688,0.2519531,0.009765625,0,-0.04199219,-0.001586914,1.547119,0,0,1.496216,0.2263184,4.05,0,0,0,0.2000122,nan,2,0.045,1,0,0.2163391,0.2355042,0.181427,0.2720032,0.00390625,0,0,1,2
2712.522,0.001052,-0.1191406,-0.00390625,0.04492188,0.1640625,2.429688,9.96875,-0.01953125,0.00390625,0.02148438,0.2539062,0.009765625,0,-0.0423584,-0.001586914,1.547363,0,0,1.496216,0.2263184,4.05,0,0,0,0.2000122,nan,2,0.055,1,0,0.250946,0.2026367,0.2005615,0.2511292,0.00390625,0,0,1,2
2712.533,0.001015,-0.01367188,-0.0546875,0.02734375,-0.828125,0.6875,11.88281,0.00390625,-0.0234375,0.01171875,0.2558594,0.0078125,0,-0.04260254,-0.001342773,1.547485,0,0,1.496216,0,4.05,0,0,0,0,nan,2,0.004,1,0,0.1000061,0.1000061,0.1000061,0.1000061,0,0,0,1,2
2712.543,0.001038,-0.09570312,0.00390625,0.04296875,0.7734375,5.078125,11.51562,-0.06445312,0.0234375,0.04101562,0.2558594,0.0078125,0,-0.0423584,-0.001342773,1.547852,0,0,1.496216,0,4.05,0,0,0,0,nan,2,0.014,1,0,0.1000061,0.1000061,0.1000061,0.1000061,0,0,0,1,2
2712.553,0.001006,-0.0234375,-0.01757812,0.0078125,-3.679688,3.703125,12.33594,-0.04101562,0.03125,0.01367188,0.2558594,0.0078125,0,-0.04296875,-0.001220703,1.548218,0,0,1.496216,0,4.046,0,0,0,0,nan,2,0.024,1,0,0.1000061,0.1000061,0.1000061,0.1000061,0,0,0,1,2
2712.562,0.001016,-0.015625,0.046875,-0.06445312,-1.6875,1.726562,12.47656,0.01171875,0.005859375,-0.015625,0.2558594,0.0078125,0,-0.04333496,-0.001098633,1.548218,0,0,1.496216,0,4.046,0,0,0,0,nan,2,0.033,1,0,0.1000061,0.1000061,0.1000061,0.1000061,0,0,0,1,2
2712.572,0.001033,-0.0078125,0.01171875,-0.01757812,2.304688,-7.09375,4.96875,0.009765625,0.015625,-0.04101562,0.2558594,0.0078125,0,-0.04321289,-0.0009765625,1.547852,0,0,1.496216,0,4.046,0,0,0,0,nan,2,0.043,1,0,0.1000061,0.1000061,0.1000061,0.1000061,0,0,0,1,2
2712.582,0.001036,0.02148438,-0.00390625,0.02734375,-4.09375,3.929688,10.32031,-0.01367188,0.01171875,0.01367188,0.2558594,0.0078125,0,-0.04321289,-0.0007324219,1.547729,0,0,1.496216,0,4.046,0,0,0,0,nan,2,0.054,1,0,0.1000061,0.1000061,0.1000061,0.1000061,0,0,0,1,2
2712.592,0.000971,-0.02148438,-0.01757812,0.06445312,0.7109375,4.804688,8.234375,0,0.009765625,0.046875,0.2597656,0.001953125,0,-0.04321289,-0.0003662109,1.547974,0,0,1.496216,0.2263184,4.046,0,0,0,0.2000122,nan,2,0.004,1,0,0.2810364,0.1754761,0.2466125,0.2021484,0,0,0,1,2
2712.602,0.001023,0.02148438,-0.0078125,0.1191406,2.882812,-5.335938,3.820312,0.05859375,-0.01953125,0.09179688,0.2578125,0.001953125,0,-0.04296875,-0.0003662109,1.548706,0,0,1.496216,0.2263184,4.046,0,0,0,0.2000122,nan,2,0.014,1,0,0.3108521,0.1521912,0.2893066,0.1528931,0,0,0,1,2
2712.612,0.001,-0.08398438,0.0078125,0.001953125,-2.164062,2.632812,12.57031,0.02148438,-0.02539062,0.04101562,0.2539062,0.00390625,0,-0.04248047,-0.0006103516,1.549438,0,0,1.496216,0.2263184,4.046,0,0,0,0.2000122,nan,2,0.024,1,0,0.1985779,0.2554016,0.1550293,0.2962646,0.0009765625,0,0,1,2
2712.622,0.001007,0.06054688,0.06054688,0.04101562,-1.617188,-5.476562,13.58594,0.0390625,0.01953125,0.0703125,0.2558594,0.001953125,0,-0.04260254,-0.0003662109,1.550171,0,0,1.496216,0.2263184,4.046,0,0,0,0.2000122,nan,2,0.034,1,0,0.2447205,0.2035217,0.2360535,0.2209778,0.0009765625,0,0,1,2
2712.632,0.001025,-0.015625,0.02929688,0.0390625,-2.78125,-4.8125,11.44531,-0.03125,0.02539062,0.03320312,0.2578125,0.001953125,0,-0.04284668,-0.0002441406,1.550537,0,0,1.496216,0.2263184,4.046,0,0,0,0.2000122,nan,2,0.043,1,0,0.2286072,0.2160645,0.192627,0.2679443,0.0009765625,0,0,1,2
2712.642,0.001025,-0.08789062,0.04882812,0.03515625,-0.96875,-5.664062,6.09375,-0.04296875,0.03320312,0.03320312,0.2597656,0,0,-0.04321289,-0.0001220703,1.550903,0,0,1.496216,0.2263184,4.046,0,0,0,0.2000122,nan,2,0.054,1,0,0.2536926,0.1907654,0.2144165,0.2463989,0.0009765625,0,0,1,2
2712.652,0.001012,0.04492188,0.02734375,0.0625,1.625,-3.765625,4,0.03710938,-0.0078125,0.0390625,0.2597656,0,0,-0.04333496,0,1.55127,0,0,1.496216,0.2263184,4.046,0,0,0,0.2000122,nan,2,0.064,1,0,0.2604675,0.1965027,0.241394,0.2069092,0.001953125,0,0,1,2
2712.662,0.001004,0.0859375,-0.015625,0.06640625,3.835938,-5.875,8.296875,0.03125,-0.005859375,0.05859375,0.2597656,0,0,-0.04321289,0,1.551758,0,0,1.496216,0.2263184,4.046,0,0,0,0.2000122,nan,2,0.074,1,0,0.2720337,0.1818848,0.2460938,0.2052612,0.001953125,0,0,1,2
2712.672,0.00101,-0.09375,-0.015625,0.06445312,1.164062,-9.898438,10.89062,-0.0234375,0.0078125,0.06640625,0.2578125,0,0,-0.04284668,0,1.55249,0,0,1.496216,0.2263184,4.046,0,0,0,0.2000122,nan,2,0.084,1,0,0.2763367,0.1738892,0.22052,0.2344971,0.001953125,0,0,1,2
2712.682,0.000991,-0.09375,0.07421875,0.0859375,-3.351562,-5.117188,13.97656,-0.0078125,0.01367188,0.1035156,0.2597656,0,0,-0.04333496,0,1.553223,0,0,1.496216,0.2263184,4.046,0,0,0,0.2000122,nan,2,0.094,1,0,0.3188782,0.1251221,0.2857666,0.1755066,0.001953125,0,0,1,2
2712.692,0.00101,-0.1171875,0.05664062,0.05078125,-3.796875,-0.65625,14.78125,-0.0625,0.005859375,0.05078125,0.2617188,0,0,-0.0435791,-0.0001220703,1.553833,0,0,1.496216,0.2263184,4.046,0,0,0,0.2000122,nan,2,0.008,1,0,0.2399597,0.2102356,0.1835632,0.2715149,0.002929688,0,0,1,2
2712.702,0.00098,-0.1015625,0.03125,-0.005859375,-1.609375,6.898438,10.95312,-0.03710938,0.005859375,0.04296875,0.2617188,0,0,-0.04370117,0,1.554443,0,0,1.496216,0.2263184,4.046,0,0,0,0.2000122,nan,2,0.018,1,0,0.2364807,0.2139587,0.1848145,0.269989,0.002929688,0,0,1,2
2712.712,0.00101,-0.08007812,0.2597656,-0.01171875,2.921875,3.273438,6.171875,0.00390625,0.078125,-0.0078125,0.2597656,-0.001953125,0,-0.04345703,0.0002441406,1.554443,0,0,1.496216,0.2263184,4.046,0,0,0,0.2000122,nan,2,0.028,1,0,0.2018738,0.2131958,0.191864,0.2983093,0.002929688,0,0,1,2
2712.722,0.001007,-0.1621094,0.009765625,-0.04492188,-0.78125,-5.539062,4.875,-0.03125,-0.009765625,-0.03710938,0.2617188,-0.00390625,0,-0.04370117,0.0006103516,1.554077,0,0,1.496216,0.2263184,4.046,0,0,0,0.2000122,nan,2,0.038,1,0,0.2298279,0.2398376,0.1634521,0.2721558,0.00390625,0,0,1,2
2712.732,0.001009,-0.07617188,-0.06054688,-0.0078125,1.257812,0.171875,6.226562,-0.0234375,-0.009765625,-0.01953125,0.2617188,-0.00390625,0,-0.04370117,0.0006103516,1.553833,0,0,1.496216,0,4.046,0,0,0,0,nan,2,0.008,1,0,0.1000061,0.1000061,0.1000061,0.1000061,0,0,0,1,2
2712.742,0.00102,0.1171875,0.046875,-0.04492188,-0.65625,-5.71875,7.390625,0.1113281,-0.001953125,-0.02148438,0.2617188,-0.00390625,0,-0.0435791,0.0003662109,1.553711,0,0,1.496216,0,4.046,0,0,0,0,nan,2,0.017,1,0,0.1000061,0.1000061,0.1000061,0.1000061,0,0,0,1,2
2712.753,0.000978,0.015625,-0.009765625,-0.02539062,-3.976562,-0.4375,14.65625,-0.009765625,-0.00390625,-0.0234375,0.2617188,-0.00390625,0,-0.04394531,0.0001220703,1.553345,0,0,1.496216,0,4.046,0,0,0,0,nan,2,0.028,1,0,0.1000061,0.1000061,0.1000061,0.1000061,0,0,0,1,2
2712.762,0.00098,-0.07226562,0.05664062,0,1.539062,-9.265625,8.109375,-0.00390625,-0.00390625,-0.01367188,0.2617188,-0.00390625,0,-0.04382324,0,1.553223,0,0,1.496216,0,4.046,0,0,0,0,nan,2,0.037,1,0,0.1000061,0.1000061,0.1000061,0.1000061,0,0,0,1,2
2712.772,0.001006,-0.05078125,-0.009765625,0.01171875,0.5234375,15.90625,11.28125,-0.0234375,-0.0390625,0.015625,0.2617188,-0.00390625,0,-0.04382324,-0.0003662109,1.553223,0,0,1.496216,0,4.046,0,0,0,0,nan,2,0.047,1,0,0.1000061,0.1000061,0.1000061,0.1000061,0,0,0,1,2
2712.782,0.001033,-0.03125,-0.0234375,0.05273438,0.375,-4.78125,5.492188,-0.00390625,0.01171875,0.0390625,0.2617188,-0.00390625,0,-0.04418945,-0.0002441406,1.553467,0,0,1.496216,0,4.046,0,0,0,0,nan,2,0,1,0,0.1000061,0.1000061,0.1000061,0.1000061,0,0,0,1,2
2712.792,0.001006,-0.078125,0.08203125,0.05859375,-1.875,-8.109375,7.359375,-0.01953125,0.015625,0.07421875,0.2617188,-0.00390625,0,-0.04455566,-0.0002441406,1.554199,0,0,1.496216,0,4.046,0,0,0,0,nan,2,0.01,1,0,0.1000061,0.1000061,0.1000061,0.1000061,0,0,0,1,2
2712.802,0.001001,0,-0.02734375,0.07226562,-0.953125,-3.679688,10.08594,-0.00390625,-0.0078125,0.06835938,0.2617188,-0.00390625,0,-0.04467773,-0.0002441406,1.554932,0,0,1.496216,0,4.046,0,0,0,0,nan,2,0.02,1,0,0.1000061,0.1000061,0.1000061,0.1000061,0,0,0,1,2
2712.812,0.001006,0.005859375,-0.01367188,0.09570312,-1.445312,7.351562,13.71875,0.03125,0.009765625,0.07226562,0.2617188,-0.00390625,0,-0.04455566,-0.0001220703,1.555542,0,0,1.496216,0,4.046,0,0,0,0,nan,2,0.03,1,0,0.1000061,0.1000061,0.1000061,0.1000061,0,0,0,1,2
2712.822,0.001006,-0.02929688,0.02539062,0.0546875,-5.039062,4.492188,10.92969,0.005859375,0.02148438,0.06054688,0.2617188,-0.00390625,0,-0.04455566,0.0001220703,1.556152,0,0,1.496216,0,4.046,0,0,0,0,nan,2,0.04,1,0,0.1000061,0.1000061,0.1000061,0.1000061,0,0,0,1,2
2712.832,0.001003,-0.07617188,0.03710938,0.046875,-0.0078125,-5.828125,10.63281,-0.03320312,0.0078125,0.0546875,0.2617188,-0.00390625,0,-0.0447998,0.0004882812,1.556885,0,0,1.496216,0,4.046,0,0,0,0,nan,2,0.05,1,0,0.1000061,0.1000061,0.1000061,0.1000061,0,0,0,1,2
2712.842,0.00101,0.1679688,-0.06054688,0.04296875,3.070312,-6.0625,5.5625,0.02539062,-0.00390625,0.03515625,0.2617188,-0.00390625,0,-0.04504395,0.0004882812,1.557251,0,0,1.496216,0,4.046,0,0,0,0,nan,2,0.061,1,0,0.1000061,0.1000061,0.1000061,0.1000061,0,0,0,1,2
2712.853,0.001008,-0.08984375,0.07226562,0.01757812,-0.8671875,3.804688,10.5625,-0.03515625,0.02148438,0.02734375,0.2617188,-0.00390625,0,-0.04443359,0.0002441406,1.557617,0,0,1.496216,0,4.046,0,0,0,0,nan,2,0.071,1,0,0.1000061,0.1000061,0.1000061,0.1000061,0,0,0,1,2
2712.862,0.001017,0.00390625,-0.03515625,0.01171875,-3.085938,0.4140625,13.875,-0.009765625,0.01953125,0.01757812,0.2617188,-0.00390625,0,-0.04467773,0.0004882812,1.557739,0,0,1.496216,0,4.046,0,0,0,0,nan,2,0.08,1,0,0.1000061,0.1000061,0.1000061,0.1000061,0,0,0,1,2
2712.872,0.001008,-0.0234375,0.06835938,0.01171875,-0.3828125,-8.125,7.960938,-0.0078125,0.02539062,0.001953125,0.2617188,-0.00390625,0,-0.0447998,0.0006103516,1.557739,0,0,1.496216,0,4.046,0,0,0,0,nan,2,0.09,1,0,0.1000061,0.1000061,0.1000061,0.1000061,0,0,0,1,2
2712.882,0.001037,-0.03125,0.03320312,-0.01171875,-4.632812,3.242188,9.78125,0.005859375,0.01953125,-0.00390625,0.2617188,-0.00390625,0,-0.04455566,0.0007324219,1.557861,0,0,1.496216,0,4.046,0,0,0,0,nan,2,0.1,1,0,0.1000061,0.1000061,0.1000061,0.1000061,0,0,0,1,2
2712.892,0.00102,-0.0625,0.04101562,0.00390625,1.125,-1.851562,5.507812,-0.04296875,0.01757812,0.001953125,0.2617188,-0.00390625,0,-0.04455566,0.0006103516,1.557861,0,0,1.496216,0,4.046,0,0,0,0,nan,2,0.11,1,0,0.1000061,0.1000061,0.1000061,0.1000061,0,0,0,1,2
2712.902,0.001023,0.06835938,-0.01953125,-0.01757812,1.242188,-4.78125,10.6875,0.01757812,-0.01367188,-0.01171875,0.2617188,-0.00390625,0,-0.0447998,0.0007324219,1.557861,0,0,1.557861,0,4.046,0,0,0,0,nan,2,0.12,0,0,0,0,0,0,0,0,0,1,2
2712.912,0.001008,-0.05273438,0.01367188,0.00390625,-0.1640625,-0.5546875,12.92969,0.0078125,-0.001953125,-0.005859375,0.2617188,-0.00390625,0,-0.04443359,0.0004882812,1.557739,0,0,1.557739,0,4.046,0,0,0,0,nan,2,0.13,0,0,0,0,0,0,0,0,0,1,2
2712.922,0.001004,0.07617188,-0.0234375,0,-3.257812,3.054688,13.67969,0.0234375,-0.01953125,-0.0078125,0.2617188,-0.00390625,0,-0.04443359,0.0002441406,1.557617,0,0,1.557617,0,4.046,0,0,0,0,nan,2,0.14,0,0,0,0,0,0,0,0,0,1,2
2712.932,0.001175,0.001953125,0.0703125,-0.01953125,1.007812,-1.867188,13.39844,0,0.02148438,-0.01757812,0.2617188,-0.00390625,0,-0.04418945,0.0002441406,1.557495,0,0,1.557495,0,4.046,0,0,0,0,nan,2,0.15,0,0,0,0,0,0,0,0,0,1,2
2712.942,0.001153,0.05078125,0.01953125,-0.03515625,3.109375,-2.570312,10.625,0.03125,0.015625,-0.02734375,0.2617188,-0.00390625,0,-0.04345703,0.0003662109,1.557373,0,0,1.557373,0,4.046,0,0,0,0,nan,2,0.16,0,0,0,0,0,0,0,0,0,1,2
2712.952,0.000732,-0.08007812,0.015625,0.02539062,-0.625,-2.46875,9.875,-0.0546875,0.0390625,0.009765625,0.2617188,-0.00390625,0,-0.0435791,0.0003662109,1.557251,0,0,1.557251,0,4.046,0,0,0,0,nan,2,0.17,0,0,0,0,0,0,0,0,0,1,2
2712.962,0.000997,0.0234375,0.005859375,-0.00390625,-0.1015625,0.3828125,8.273438,-0.01367188,-0.0078125,0.009765625,0.2617188,-0.00390625,0,-0.04382324,0.0002441406,1.557373,0,0,1.557373,0,4.046,0,0,0,0,nan,2,0.18,0,128,0,0,0,0,0,0,0,1,2
2712.972,0.000933,-0.01757812,0.08789062,-0.03125,0.8046875,-0.96875,9.28125,0.005859375,0.03515625,-0.02929688,0.2617188,-0.00390625,0,-0.0435791,0.0002441406,1.557251,0,0,1.557251,0,4.046,0,0,0,0,nan,2,0.001,0,128,0,0,0,0,0,0,0,1,2
2712.983,0.001257,-0.0234375,0.05664062,0.0078125,0.0625,-0.984375,12.30469,0.001953125,0.01757812,0.0078125,0.2617188,-0.00390625,0,-0.04333496,0.0006103516,1.557129,0,0,1.557129,0,4.046,0,0,0,0,nan,2,0.011,0,128,0,0,0,0,0,0,0,1,2
2712.993,0.001185,-0.0234375,-0.001953125,0.02539062,0.5390625,1.398438,8.320312,-0.01171875,-0.01367188,0.02734375,0.2617188,-0.00390625,0,-0.04284668,0.0002441406,1.557373,0,0,1.557373,0,4.046,0,0,0,0,nan,2,0.021,0,128,0,0,0,0,0,0,0,1,2
2713.003,0.00103,0.005859375,-0.0234375,0.02929688,0.03125,-2.210938,13.67969,0,0.01171875,0.01953125,0.2617188,-0.00390625,0,-0.04272461,0.0003662109,1.557617,0,0,1.557617,0,4.046,0,0,0,0,nan,2,0.031,0,128,0,0,0,0,0,0,0,1,2
2713.057,0.000946,-0.00390625,0.015625,0.0234375,-1.359375,2.609375,8.882812,0,0.01171875,0.02148438,0.2617188,-0.00390625,0,-0.04272461,0.0003662109,1.557617,0,0,1.557617,0,4.046,0,0,0,0,nan,2,0.035,0,128,0,0,0,0,0,0,0,1,2
2713.062,0.000972,-0.02929688,-0.04296875,0.03125,-0.4609375,2.84375,8.28125,-0.0390625,0,0.02539062,0.2617188,-0.00390625,0,-0.04919434,0.00390625,1.558594,0,0,1.558594,0,4.046,0,0,0,0,nan,2,0.091,0,128,0,0,0,0,0,0,0,1,2
2713.072,0.001054,-0.015625,0.04296875,0.03125,0.9921875,-3.460938,8.625,-0.01757812,0.001953125,0.03320312,0.2617188,-0.00390625,0,-0.04956055,0.003662109,1.558838,0,0,1.558838,0,4.046,0,0,0,0,nan,2,0.101,0,128,0,0,0,0,0,0,0,1,2
2713.082,0.001015,-0.01953125,0,0.01757812,-1.65625,-3.554688,8.5625,-0.0078125,-0.01367188,0.01757812,0.2617188,-0.00390625,0,-0.04980469,0.003662109,1.559082,0,0,1.559082,0,4.046,0,0,0,0,nan,2,0.111,0,128,0,0,0,0,0,0,0,1,2
2713.092,0.001036,0.02734375,-0.001953125,-0.005859375,2.632812,3.476562,6.304688,-0.009765625,0.00390625,-0.00390625,0.2617188,-0.00390625,0,-0.05041504,0.003540039,1.559082,0,0,1.559082,0,4.046,0,0,0,0,nan,2,0.121,0,128,0,0,0,0,0,0,0,1,2
2713.102,0.00101,0.03515625,-0.05664062,-0.01953125,3.835938,1.554688,6.515625,0.01171875,-0.00390625,0.00390625,0.2617188,-0.00390625,0,-0.05078125,0.003662109,1.559204,0,0,1.559204,0,4.046,0,0,0,0,nan,2,0.131,0,128,0,0,0,0,0,0,0,1,2
2713.112,0.001014,-0.03515625,0,-0.03125,2.78125,-0.1953125,6.921875,-0.00390625,-0.005859375,-0.009765625,0.2617188,-0.00390625,0,-0.05078125,0.003662109,1.559082,0,0,1.559082,0,4.046,0,0,0,0,nan,2,0.141,0,128,0,0,0,0,0,0,0,1,2
2713.122,0.00101,-0.07617188,-0.001953125,-0.009765625,-0.640625,-5.375,6.25,-0.005859375,0.005859375,-0.02929688,0.2617188,-0.00390625,0,-0.05065918,0.003540039,1.558838,0,0,1.558838,0,4.046,0,0,0,0,nan,2,0.151,0,128,0,0,0,0,0,0,0,1,2
2713.132,0.00101,0.015625,-0.01171875,0.005859375,0.4140625,-0.9140625,8.984375,0.005859375,-0.005859375,-0.0078125,0.2617188,-0.00390625,0,-0.0501709,0.003417969,1.558716,0,0,1.558716,0,4.046,0,0,0,0,nan,2,0.162,0,128,0,0,0,0,0,0,0,1,2
2713.142,0.001008,-0.03125,0.0625,-0.015625,-0.0859375,3.046875,12.35156,-0.01171875,0.005859375,-0.009765625,0.2617188,-0.00390625,0,-0.0501709,0.003417969,1.558594,0,0,1.558594,0,4.046,0,0,0,0,nan,2,0.172,0,128,0,0,0,0,0,0,0,1,2
2713.153,0.000999,0.09179688,-0.109375,-0.0234375,2.742188,-1.570312,5.398438,0.01757812,-0.01367188,-0.01367188,0.2617188,-0.00390625,0,-0.05029297,0.003540039,1.558472,0,0,1.558472,0,4.046,0,0,0,0,nan,2,0.182,0,128,0,0,0,0,0,0,0,1,2
2713.162,0.001002,0.07226562,0.02148438,0,-0.234375,-1.140625,9.554688,0.02734375,0,-0.005859375,0.2617188,-0.00390625,0,-0.05029297,0.003417969,1.558472,0,0,1.558472,0,4.046,0,0,0,0,nan,2,0.191,0,128,0,0,0,0,0,0,0,1,2
2713.172,0.00101,-0.05859375,-0.02539062,0.01367188,-0.28125,-1.5,9.085938,-0.01757812,-0.00390625,0.01171875,0.2617188,-0.00390625,0,-0.0501709,0.003540039,1.558472,0,0,1.558472,0,4.046,0,0,0,0,nan,2,0.201,0,128,0,0,0,0,0,0,0,1,2
2713.182,0.001013,0.015625,0.0546875,0.0234375,-2.273438,3.007812,11.95312,0.01171875,0,0.01367188,0.2617188,-0.00390625,0,-0.04968262,0.003417969,1.558716,0,0,1.558716,0,4.046,0,0,0,0,nan,2,0.211,0,128,0,0,0,0,0,0,0,1,2
2713.192,0.001006,-0.09375,0.07226562,0.01367188,-2.484375,-0.6953125,9.703125,-0.01171875,0.01367188,0.005859375,0.2617188,-0.00390625,0,-0.04943848,0.003417969,1.558716,0,0,1.558716,0,4.046,0,0,0,0,nan,2,0.221,0,128,0,0,0,0,0,0,0,1,2
2713.202,0.001009,-0.001953125,0.05664062,0.005859375,-0.6015625,-1.9375,10.42969,-0.01367188,0.009765625,0.00390625,0.2617188,-0.00390625,0,-0.04943848,0.003173828,1.558838,0,0,1.558838,0,4.046,0,0,0,0,nan,2,0.231,0,128,0,0,0,0,0,0,0,1,2
2713.212,0.001035,0.01171875,0.08007812,-0.005859375,-0.9140625,1.375,10.85938,-0.01171875,0.015625,0.00390625,0.2617188,-0.00390625,0,-0.04919434,0.003051758,1.558838,0,0,1.558838,0,4.077,0,0,0,0,nan,2,0.241,0,128,0,0,0,0,0,0,0,1,2
2713.222,0.001008,0.02734375,-0.00390625,-0.03125,0.8671875,2.125,9.148438,0,-0.00390625,-0.001953125,0.2617188,-0.00390625,0,-0.0489502,0.002929688,1.558838,0,0,1.558838,0,4.077,0,0,0,0,nan,2,0.002,0,128,0,0,0,0,0,0,0,1,2
2713.232,0.00104,-0.01953125,-0.01757812,0.015625,0.921875,-0.6015625,8.203125,-0.02148438,0.005859375,0.001953125,0.2617188,-0.00390625,0,-0.04858398,0.002807617,1.558838,0,0,1.558838,0,4.077,0,0,0,0,nan,2,0.012,0,128,0,0,0,0,0,0,0,1,2
2713.243,0.001003,-0.0546875,0.07421875,0.01367188,-0.6796875,2.21875,9.609375,-0.009765625,0.02148438,0.001953125,0.2617188,-0.00390625,0,-0.0480957,0.002685547,1.558838,0,0,1.558838,0,4.077,0,0,0,0,nan,2,0.022,0,128,0,0,0,0,0,0,0,1,2
2713.253,0.001009,0.04101562,-0.04492188,0.01367188,1.34375,0.265625,8.554688,0.015625,-0.01757812,0.00390625,0.2617188,-0.00390625,0,-0.04797363,0.002685547,1.55896,0,0,1.55896,0,4.077,0,0,0,0,nan,2,0.032,0,128,0,0,0,0,0,0,0,1,2
2713.263,0.00101,0.0625,-0.00390625,0.00390625,0.4609375,1.945312,9.953125,-0.001953125,0.01367188,0.00390625,0.2617188,-0.00390625,0,-0.04748535,0.002563477,1.55896,0,0,1.55896,0,4.077,0,0,0,0,nan,2,0.042,0,128,0,0,0,0,0,0,0,1,2
2713.272,0.001005,0.046875,-0.04101562,-0.01953125,-0.421875,-0.7109375,9.265625,0.01171875,-0.015625,-0.00390625,0.2617188,-0.00390625,0,-0.04711914,0.002441406,1.55896,0,0,1.55896,0,4.077,0,0,0,0,nan,2,0.051,0,128,0,0,0,0,0,0,0,1,2
2713.282,0.001011,0.005859375,-0.04101562,0.0234375,0.3984375,0.6171875,9.46875,0.00390625,-0.00390625,0.005859375,0.2617188,-0.00390625,0,-0.04675293,0.002319336,1.55896,0,0,1.55896,0,4.077,0,0,0,0,nan,2,0.062,0,128,0,0,0,0,0,0,0,1,2
2713.292,0.001011,-0.04492188,0.03320312,-0.01367188,-1.679688,-0.8828125,10.10156,-0.005859375,0.001953125,-0.001953125,0.2617188,-0.00390625,0,-0.04650879,0.002441406,1.55896,0,0,1.55896,0,4.077,0,0,0,0,nan,2,0.072,0,128,0,0,0,0,0,0,0,1,2
2713.302,0.001011,-0.009765625,0.01953125,-0.00390625,0.1875,-0.0078125,10.07031,0.009765625,-0.005859375,0.00390625,0.2617188,-0.00390625,0,-0.04602051,0.002319336,1.55896,0,0,1.55896,0,4.077,0,0,0,0,nan,2,0.082,0,128,0,0,0,0,0,0,0,1,2
2713.312,0.001014,-0.06640625,0.0625,-0.0234375,-0.296875,-1.164062,10.30469,-0.01171875,0.0078125,-0.00390625,0.2617188,-0.00390625,0,-0.04577637,0.002319336,1.55896,0,0,1.55896,0,4.077,0,0,0,0,nan,2,0.092,0,128,0,0,0,0,0,0,0,1,2
2713.322,0.001011,-0.0078125,0.01171875,-0.005859375,0.3984375,-0.3125,10.49219,0,0,0,0.2617188,-0.00390625,0,-0.04541016,0.002319336,1.55896,0,0,1.55896,0,4.077,0,0,0,0,nan,2,0.102,0,128,0,0,0,0,0,0,0,1,2
2713.332,0.001014,0.015625,-0.0234375,0.01757812,0.578125,-0.3203125,9.226562,0.01367188,-0.01171875,0.005859375,0.2617188,-0.00390625,0,-0.04516602,0.002075195,1.55896,0,0,1.55896,0,4.077,0,0,0,0,nan,2,0.112,0,128,0,0,0,0,0,0,0,1,2
2713.342,0.001021,0.04101562,-0.05664062,0.02929688,1.140625,-0.1015625,9.375,0.0078125,-0.009765625,0.001953125,0.2617188,-0.00390625,0,-0.0447998,0.001953125,1.55896,0,0,1.55896,0,4.077,0,0,0,0,nan,2,0.122,0,128,0,0,0,0,0,0,0,1,2
2713.353,0.001011,-0.009765625,-0.01953125,-0.01171875,0.546875,0.5,9.320312,-0.001953125,0,-0.0078125,0.2617188,-0.00390625,0,-0.04455566,0.001831055,1.55896,0,0,1.55896,0,4.077,0,0,0,0,nan,2,0.132,0,128,0,0,0,0,0,0,0,1,2
2713.362,0.00101,0.04101562,-0.015625,0.01757812,0.4453125,-0.875,9.648438,0.009765625,0.001953125,0.005859375,0.2617188,-0.00390625,0,-0.04394531,0.001708984,1.55896,0,0,1.55896,0,4.077,0,0,0,0,nan,2,0.141,0,128,0,0,0,0,0,0,0,1,2
2713.372,0.00101,-0.01367188,0.005859375,-0.03515625,-0.765625,-0.4140625,9.640625,-0.005859375,0.00390625,-0.01171875,0.2617188,-0.00390625,0,-0.04370117,0.001586914,1.55896,0,0,1.55896,0,4.077,0,0,0,0,nan,2,0.151,0,128,0,0,0,0,0,0,0,1,2
2713.382,0.001011,-0.01171875,0.02148438,0.009765625,-0.0625,0.078125,10.79688,-0.005859375,0.00390625,0.0078125,0.2617188,-0.00390625,0,-0.04333496,0.001464844,1.55896,0,0,1.55896,0,4.077,0,0,0,0,nan,2,0.162,0,128,0,0,0,0,0,0,0,1,2
2713.392,0.00101,-0.0078125,0.0078125,0.01953125,0.5546875,-0.8203125,9.828125,0.001953125,0,-0.001953125,0.2617188,-0.00390625,0,-0.04309082,0.001342773,1.55896,0,0,1.55896,0,4.077,0,0,0,0,nan,2,0.172,0,128,0,0,0,0,0,0,0,1,2
2713.402,0.00101,0.01171875,-0.009765625,-0.02539062,-0.3671875,-0.4140625,9.375,0.001953125,-0.001953125,0,0.2617188,-0.00390625,0,-0.04272461,0.001342773,1.55896,0,0,1.55896,0,4.077,0,0,0,0,nan,2,0.182,0,128,0,0,0,0,0,0,0,1,2
2713.412,0.00101,-0.0078125,0.005859375,0.00390625,0.21875,0.015625,10.29688,-0.00390625,0.001953125,-0.00390625,0.2617188,-0.00390625,0,-0.04248047,0.001220703,1.55896,0,0,1.55896,0,4.077,0,0,0,0,nan,2,0.192,0,128,0,0,0,0,0,0,0,1,2
2713.422,0.00101,0.001953125,-0.00390625,-0.009765625,-0.2265625,-0.171875,9.882812,-0.001953125,0,-0.00390625,0.2617188,-0.00390625,0,-0.04211426,0.001098633,1.55896,0,0,1.55896,0,4.077,0,0,0,0,nan,2,0.202,0,128,0,0,0,0,0,0,0,1,2
2713.432,0.00101,0,0.00390625,0.001953125,0.0078125,-0.2265625,9.546875,-0.005859375,0,-0.001953125,0.2617188,-0.00390625,0,-0.04187012,0.001098633,1.55896,0,0,1.55896,0,4.077,0,0,0,0,nan,2,0.212,0,128,0,0,0,0,0,0,0,1,2
2713.443,0.001041,-0.005859375,0.001953125,0.0078125,0.359375,-0.359375,10.00781,-0.001953125,0.001953125,-0.005859375,0.2617188,-0.00390625,0,-0.04162598,0.001098633,1.55896,0,0,1.55896,0,4.077,0,0,0,0,nan,2,0.222,0,128,0,0,0,0,0,0,0,1,2
2713.453,0.001014,-0.005859375,0,0,0.046875,-0.1796875,10.03906,-0.00390625,0.001953125,0,0.2617188,-0.00390625,0,-0.04138184,0.0009765625,1.55896,0,0,1.55896,0,4.077,0,0,0,0,nan,2,0.232,0,128,0,0,0,0,0,0,0,1,2
2713.462,0.000991,-0.00390625,0,0.01171875,0.1875,-0.4453125,9.867188,0.001953125,0,0.009765625,0.2617188,-0.00390625,0,-0.0411377,0.0009765625,1.55896,0,0,1.55896,0,4.077,0,0,0,0,nan,2,0.241,0,128,0,0,0,0,0,0,0,1,2
2713.472,0.001032,0.00390625,-0.001953125,0.005859375,0.2890625,-0.3671875,9.875,0.001953125,0.001953125,0.0078125,0.2617188,-0.00390625,0,-0.04089355,0.0009765625,1.55896,0,0,1.55896,0,4.077,0,0,0,0,nan,2,0.001,0,128,0,0,0,0,0,0,0,1,2
2713.482,0.00101,-0.001953125,0,0.01757812,0.1953125,-0.28125,9.90625,0,0,0,0.2617188,-0.00390625,0,-0.04064941,0.0008544922,1.55896,0,0,1.55896,0,4.077,0,0,0,0,nan,2,0.011,0,128,0,0,0,0,0,0,0,1,2
2713.492,0.000972,-0.00390625,0,-0.001953125,0.109375,-0.515625,9.9375,0,0,0,0.2617188,-0.00390625,0,-0.04052734,0.0008544922,1.55896,0,0,1.55896,0,4.077,0,0,0,0,nan,2,0.021,0,128,0,0,0,0,0,0,0,1,2
2713.502,0.00101,0.0078125,0.009765625,0.01367188,0.203125,-0.546875,9.765625,0.001953125,0.00390625,0.00390625,0.2617188,-0.00390625,0,-0.04016113,0.0008544922,1.55896,0,0,1.55896,0,4.077,0,0,0,0,nan,2,0.031,0,128,0,0,0,0,0,0,0,1,2
2713.512,0.00101,0.005859375,-0.00390625,-0.015625,-0.265625,-0.1484375,9.851562,-0.001953125,-0.001953125,-0.009765625,0.2617188,-0.00390625,0,-0.04016113,0.0006103516,1.55896,0,0,1.55896,0,4.077,0,0,0,0,nan,2,0.041,0,128,0,0,0,0,0,0,0,1,2
2713.522,0.00101,-0.001953125,0.00390625,0.01171875,0.2578125,-0.3984375,9.851562,0,0.001953125,0.01171875,0.2617188,-0.00390625,0,-0.03991699,0.0007324219,1.55896,0,0,1.55896,0,4.077,0,0,0,0,nan,2,0.052,0,128,0,0,0,0,0,0,0,1,2
2713.532,0.00101,0.005859375,-0.00390625,0.001953125,-0.140625,-0.3203125,9.726562,0,0,-0.00390625,0.2617188,-0.00390625,0,-0.03955078,0.0004882812,1.55896,0,0,1.55896,0,4.077,0,0,0,0,nan,2,0.062,0,128,0,0,0,0,0,0,0,1,2
2713.542,0.001009,-0.005859375,0,-0.009765625,0.0546875,-0.28125,9.820312,-0.001953125,0.001953125,-0.001953125,0.2617188,-0.00390625,0,-0.03942871,0.0004882812,1.55896,0,0,1.55896,0,4.077,0,0,0,0,nan,2,0.072,0,128,0,0,0,0,0,0,0,1,2
2713.553,0.001009,0,0,0.01171875,0.015625,-0.34375,9.898438,0,0,0.005859375,0.2617188,-0.00390625,0,-0.03918457,0.0004882812,1.55896,0,0,1.55896,0,4.077,0,0,0,0,nan,2,0.082,0,128,0,0,0,0,0,0,0,1,2
2713.562,0.000965,-0.001953125,0,-0.0078125,-0.0078125,-0.296875,9.796875,-0.001953125,-0.001953125,-0.001953125,0.2617188,-0.00390625,0,-0.0390625,0.0003662109,1.55896,0,0,1.55896,0,4.077,0,0,0,0,nan,2,0.091,0,128,0,0,0,0,0,0,0,1,2
2713.572,0.00101,0.00390625,0.001953125,0.001953125,-0.0234375,-0.3515625,9.828125,0.001953125,0,0,0.2617188,-0.00390625,0,-0.03869629,0.0003662109,1.55896,0,0,1.55896,0,4.077,0,0,0,0,nan,2,0.101,0,128,0,0,0,0,0,0,0,1,2
2713.582,0.00101,-0.00390625,-0.00390625,0.001953125,-0.015625,-0.3515625,9.882812,-0.001953125,0,-0.001953125,0.2617188,-0.00390625,0,-0.03869629,0.0003662109,1.55896,0,0,1.55896,0,4.077,0,0,0,0,nan,2,0.111,0,128,0,0,0,0,0,0,0,1,2
2713.592,0.00101,0,0,0.00390625,0.03125,-0.3046875,9.828125,-0.001953125,0,0.005859375,0.2617188,-0.00390625,0,-0.03845215,0.0002441406,1.55896,0,0,1.55896,0,4.077,0,0,0,0,nan,2,0.121,0,128,0,0,0,0,0,0,0,1,2
2713.602,0.00101,0.001953125,0.001953125,-0.005859375,0.0078125,-0.3125,9.8125,0.001953125,0,-0.00390625,0.2617188,-0.00390625,0,-0.03820801,0.0001220703,1.559082,0,0,1.559082,0,4.077,0,0,0,0,nan,2,0.131,0,128,0,0,0,0,0,0,0,1,2
2713.612,0.00101,0,0,0.005859375,-0.0078125,-0.3125,9.78125,0,0,0.001953125,0.2617188,-0.00390625,0,-0.03808594,0.0001220703,1.55896,0,0,1.55896,0,4.077,0,0,0,0,nan,2,0.141,0,128,0,0,0,0,0,0,0,1,2
2713.622,0.00101,-0.001953125,0.001953125,0.001953125,0,-0.265625,9.890625,-0.001953125,0,0.00390625,0.2617188,-0.00390625,0,-0.0378418,0.0001220703,1.559082,0,0,1.559082,0,4.077,0,0,0,0,nan,2,0.151,0,128,0,0,0,0,0,0,0,1,2
2713.632,0.00101,0.001953125,-0.00390625,-0.001953125,0.0546875,-0.3125,9.828125,0.001953125,0,-0.001953125,0.2617188,-0.00390625,0,-0.03759766,0.0001220703,1.559082,0,0,1.559082,0,4.077,0,0,0,0,nan,2,0.162,0,128,0,0,0,0,0,0,0,1,2
2713.642,0.001007,-0.00390625,-0.001953125,0,-0.0234375,-0.3359375,9.773438,-0.001953125,0,-0.001953125,0.2617188,-0.00390625,0,-0.03759766,0,1.55896,0,0,1.55896,0,4.077,0,0,0,0,nan,2,0.172,0,128,0,0,0,0,0,0,0,1,2
2713.653,0.001009,0,0,0,0.0078125,-0.3125,9.8125,0,0,0.001953125,0.2617188,-0.00390625,0,-0.03735352,0.0001220703,1.559082,0,0,1.559082,0,4.077,0,0,0,0,nan,2,0.182,0,128,0,0,0,0,0,0,0,1,2
2713.662,0.001014,0,-0.001953125,0,-0.0078125,-0.28125,9.757812,-0.001953125,0,0,0.2617188,-0.00390625,0,-0.03723145,0,1.559082,0,0,1.559082,0,4.077,0,0,0,0,nan,2,0.191,0,128,0,0,0,0,0,0,0,1,2
2713.672,0.00101,0,0.00390625,0.001953125,0.0234375,-0.359375,9.859375,0,0.001953125,0,0.2617188,-0.00390625,0,-0.03710938,0,1.559082,0,0,1.559082,0,4.077,0,0,0,0,nan,2,0.201,0,128,0,0,0,0,0,0,0,1,2
2713.682,0.00101,-0.001953125,0,0,0.0078125,-0.2734375,9.828125,0,0,0.001953125,0.2617188,-0.00390625,0,-0.0369873,0,1.559082,0,0,1.559082,0,4.077,0,0,0,0,nan,2,0.211,0,128,0,0,0,0,0,0,0,1,2
2713.692,0.00101,0,0.001953125,0,0.0390625,-0.2890625,9.820312,0,0,0,0.2617188,-0.00390625,0,-0.03674316,-0.0001220703,1.559082,0,0,1.559082,0,4.077,0,0,0,0,nan,2,0.221,0,128,0,0,0,0,0,0,0,1,2
2713.702,0.00101,0.001953125,0.001953125,0.001953125,0.0078125,-0.3203125,9.75,0,0,0,0.2617188,-0.00390625,0,-0.03662109,-0.0001220703,1.559082,0,0,1.559082,0,4.077,0,0,0,0,nan,2,0.231,0,128,0,0,0,0,0,0,0,1,2
2713.712,0.001022,0.001953125,0,0.00390625,0.03125,-0.3359375,9.828125,0.001953125,0,0.001953125,0.2617188,-0.00390625,0,-0.03649902,-0.0002441406,1.559082,0,0,1.559082,0,4.077,0,0,0,0,nan,2,0.241,0,128,0,0,0,0,0,0,0,1,2
2713.722,0.000991,0.001953125,-0.001953125,-0.005859375,-0.0078125,-0.3046875,9.820312,0,-0.001953125,-0.001953125,0.2617188,-0.00390625,0,-0.03637695,-0.0002441406,1.559082,0,0,1.559082,0,4.077,0,0,0,0,nan,2,0.004,0,128,0,0,0,0,0,0,0,1,2
2713.732,0.000975,0,0.001953125,-0.00390625,0.0078125,-0.3203125,9.835938,0,0,-0.001953125,0.2617188,-0.00390625,0,-0.03625488,-0.0003662109,1.559082,0,0,1.559082,0,4.077,0,0,0,0,nan,2,0.014,0,128,0,0,0,0,0,0,0,1,2
2713.742,0.00101,0,0,0.001953125,0.03125,-0.2890625,9.8125,0,0,0,0.2617188,-0.00390625,0,-0.03613281,-0.0003662109,1.559082,0,0,1.559082,0,4.077,0,0,0,0,nan,2,0.024,0,128,0,0,0,0,0,0,0,1,2
2713.753,0.001021,-0.001953125,0,0,0.03125,-0.28125,9.835938,0,0.001953125,0,0.2617188,-0.00390625,0,-0.03601074,-0.0003662109,1.559082,0,0,1.559082,0,4.077,0,0,0,0,nan,2,0.034,0,128,0,0,0,0,0,0,0,1,2
2713.763,0.001014,0.00390625,0,0,0.03125,-0.34375,9.75,0,0,0,0.2617188,-0.00390625,0,-0.03588867,-0.0004882812,1.559082,0,0,1.559082,0,4.077,0,0,0,0,nan,2,0.044,0,128,0,0,0,0,0,0,0,1,2
2713.772,0.00101,0,0.001953125,0,0.0078125,-0.3203125,9.773438,0,0.001953125,0,0.2617188,-0.00390625,0,-0.0357666,-0.0004882812,1.559082,0,0,1.559082,0,4.077,0,0,0,0,nan,2,0.054,0,128,0,0,0,0,0,0,0,1,2
2713.782,0.00101,0,-0.001953125,0,0.0078125,-0.34375,9.789062,0,0,0,0.2617188,-0.00390625,0,-0.0357666,-0.0004882812,1.559082,0,0,1.559082,0,4.077,0,0,0,0,nan,2,0.064,0,128,0,0,0,0,0,0,0,1,2
2713.792,0.00101,0.001953125,-0.001953125,0.001953125,0.046875,-0.328125,9.84375,0.001953125,0,0,0.2617188,-0.00390625,0,-0.03564453,-0.0004882812,1.559082,0,0,1.559082,0,4.077,0,0,0,0,nan,2,0.074,0,128,0,0,0,0,0,0,0,1,2
2713.802,0.00101,0.00390625,0.001953125,0.001953125,0,-0.3359375,9.828125,0,0.001953125,0.001953125,0.2617188,-0.00390625,0,-0.03552246,-0.0004882812,1.559082,0,0,1.559082,0,4.077,0,0,0,0,nan,2,0.084,0,128,0,0,0,0,0,0,0,1,2
2713.812,0.00101,0,0.00390625,0,0.0078125,-0.34375,9.804688,0,0.001953125,0,0.2617188,-0.00390625,0,-0.03552246,-0.0004882812,1.559082,0,0,1.559082,0,4.077,0,0,0,0,nan,2,0.094,0,128,0,0,0,0,0,0,0,1,2
2713.822,0.00101,0,0,0.001953125,0.03125,-0.2890625,9.8125,-0.001953125,0,0,0.2617188,-0.00390625,0,-0.03540039,-0.0004882812,1.559082,0,0,1.559082,0,4.077,0,0,0,0,nan,2,0.104,0,128,0,0,0,0,0,0,0,1,2
2713.832,0.00101,0,0,-0.001953125,-0.015625,-0.3359375,9.859375,0,0.001953125,0,0.2617188,-0.00390625,0,-0.03527832,-0.0004882812,1.559082,0,0,1.559082,0,4.077,0,0,0,0,nan,2,0.114,0,128,0,0,0,0,0,0,0,1,2
2713.842,0.001012,-0.001953125,0,0,0.0078125,-0.3125,9.773438,-0.001953125,0.00390625,-0.001953125,0.2617188,-0.00390625,0,-0.03527832,-0.0004882812,1.559082,0,0,1.559082,0,4.077,0,0,0,0,nan,2,0.124,0,128,0,0,0,0,0,0,0,1,2
2713.853,0.00104,0.001953125,0,0,0.015625,-0.328125,9.820312,0,0,0,0.2617188,-0.00390625,0,-0.03515625,-0.0006103516,1.559082,0,0,1.559082,0,4.077,0,0,0,0,nan,2,0.134,0,128,0,0,0,0,0,0,0,1,2
2713.862,0.001006,0,0.001953125,0.00390625,0.0078125,-0.3125,9.84375,0,0.001953125,0.001953125,0.2617188,-0.00390625,0,-0.03515625,-0.0006103516,1.559082,0,0,1.559082,0,4.077,0,0,0,0,nan,2,0.143,0,128,0,0,0,0,0,0,0,1,2
2713.872,0.00101,0.001953125,-0.001953125,0,0.046875,-0.3359375,9.835938,0,0,0,0.2617188,-0.00390625,0,-0.03503418,-0.0006103516,1.559082,0,0,1.559082,0,4.077,0,0,0,0,nan,2,0.154,0,128,0,0,0,0,0,0,0,1,2
2713.882,0.00101,-0.001953125,0,0,0.0078125,-0.3046875,9.789062,-0.001953125,0,0,0.2617188,-0.00390625,0,-0.03491211,-0.0006103516,1.559082,0,0,1.559082,0,4.077,0,0,0,0,nan,2,0.164,0,128,0,0,0,0,0,0,0,1,2
2713.892,0.00101,0,0,-0.00390625,0,-0.3359375,9.828125,0,0,-0.001953125,0.2617188,-0.00390625,0,-0.03491211,-0.0006103516,1.559082,0,0,1.559082,0,4.077,0,0,0,0,nan,2,0.174,0,128,0,0,0,0,0,0,0,1,2
