t,dt_s,gyro_x,gyro_y,gyro_z,acc_x,acc_y,acc_z,rates.x,rates.y,rates.z,ratesTarget.x,ratesTarget.y,ratesTarget.z,attitude.x,attitude.y,attitude.z,attitudeTarget.x,attitudeTarget.y,attitudeTarget.z,thrustTarget,battery_v,rc_roll,rc_pitch,rc_yaw,rc_throttle,rc_mode,flight_mode,rc_age_s,armed,fault_mask,motor_rl,motor_rr,motor_fr,motor_fl,rate_i_x,rate_i_y,rate_i_z,mix_scale,control_source
159.79,0.0009860001,0,0,-0.001953125,0.015625,-0.296875,9.820312,0,0.001953125,-0.001953125,0.265625,0.005859375,0,-0.03137207,-0.001586914,0.07910156,0,0,0.07910156,0,4.077,0,0,0,0,nan,2,0.022,0,0,0,0,0,0,0,0,0,1,2
159.8,0.001006,0,0.00390625,0,0.03125,-0.2890625,9.820312,0,0.001953125,0,0.265625,0.005859375,0,-0.03137207,-0.001586914,0.07910156,0,0,0.07910156,0,4.077,0,0,0,0,nan,2,0.032,0,0,0,0,0,0,0,0,0,1,2
159.81,0.001005,-0.001953125,-0.001953125,0.00390625,0.0234375,-0.296875,9.804688,0,-0.001953125,0,0.265625,0.005859375,0,-0.03137207,-0.001586914,0.07910156,0,0,0.07910156,0,4.077,0,0,0,0,nan,2,0.042,0,0,0,0,0,0,0,0,0,1,2
159.82,0.001005,0,0.001953125,-0.001953125,0.0078125,-0.3203125,9.804688,0,0,-0.001953125,0.265625,0.005859375,0,-0.03137207,-0.001586914,0.07910156,0,0,0.07910156,0,4.077,0,0,0,0,nan,2,0.052,0,0,0,0,0,0,0,0,0,1,2
159.83,0.001005,0.001953125,0,0,0.0390625,-0.3203125,9.851562,0.001953125,0,0,0.265625,0.005859375,0,-0.03137207,-0.001464844,0.07910156,0,0,0.07910156,0,4.077,0,0,0,0,nan,2,0.063,0,0,0,0,0,0,0,0,0,1,2
159.84,0.001005,0,-0.00390625,0,0.015625,-0.328125,9.882812,0,-0.001953125,0,0.265625,0.005859375,0,-0.03137207,-0.001586914,0.07910156,0,0,0.07910156,0,4.077,0,0,0,0,nan,2,0.073,0,0,0,0,0,0,0,0,0,1,2
159.85,0.001005,0.001953125,-0.00390625,-0.001953125,0,-0.3125,9.804688,0,-0.001953125,0,0.265625,0.005859375,0,-0.03137207,-0.001586914,0.07910156,0,0,0.07910156,0,4.077,0,0,0,0,nan,2,0.083,0,0,0,0,0,0,0,0,0,1,2
159.86,0.000976,-0.001953125,-0.001953125,0,0.046875,-0.28125,9.820312,-0.001953125,-0.001953125,0,0.265625,0.005859375,0,-0.03137207,-0.001708984,0.07910156,0,0,0.07910156,0,4.077,0,0,0,0,nan,2,0.093,0,0,0,0,0,0,0,0,0,1,2
159.87,0.000999,-0.001953125,0.001953125,0,0.015625,-0.3125,9.8125,0,0,-0.001953125,0.265625,0.005859375,0,-0.03137207,-0.001708984,0.07910156,0,0,0.07910156,0,4.077,0,0,0,0,nan,2,0.007,0,0,0,0,0,0,0,0,0,1,2
159.88,0.001044,-0.001953125,0.001953125,0,-0.0078125,-0.28125,9.765625,-0.001953125,0,0,0.265625,0.005859375,0,-0.03137207,-0.001708984,0.07910156,0,0,0.07910156,0,4.077,0,0,0,0,nan,2,0.016,0,0,0,0,0,0,0,0,0,1,2
159.89,0.00099,0.00390625,0.005859375,-0.001953125,0.0078125,-0.296875,9.867188,0,0.001953125,-0.001953125,0.265625,0.005859375,0,-0.03137207,-0.001708984,0.07910156,0,0,0.07910156,0,4.077,0,0,0,0,nan,2,0.026,0,0,0,0,0,0,0,0,0,1,2
159.9,0.001008,-0.001953125,-0.001953125,0.00390625,0,-0.296875,9.828125,-0.001953125,-0.001953125,0,0.265625,0.005859375,0,-0.03137207,-0.001586914,0.07910156,0,0,0.07910156,0,4.077,0,0,0,0,nan,2,0.036,0,0,0,0,0,0,0,0,0,1,2
159.91,0.000984,0,-0.001953125,0,-0.0078125,-0.296875,9.820312,-0.001953125,0,0,0.265625,0.005859375,0,-0.03137207,-0.001586914,0.07910156,0,0,0.07910156,0,4.077,0,0,0,0,nan,2,0.046,0,0,0,0,0,0,0,0,0,1,2
159.92,0.000996,0.00390625,0.001953125,-0.001953125,0.015625,-0.28125,9.765625,0.001953125,0,-0.001953125,0.265625,0.005859375,0,-0.03137207,-0.001586914,0.07910156,0,0,0.07910156,0,4.077,0,0,0,0,nan,2,0.005,0,0,0,0,0,0,0,0,0,1,2
159.93,0.001011,-0.00390625,-0.001953125,-0.001953125,-0.0078125,-0.3203125,9.898438,-0.001953125,0,0,0.265625,0.005859375,0,-0.03137207,-0.001586914,0.07910156,0,0,0.07910156,0,4.077,0,0,0,0,nan,2,0.015,0,0,0,0,0,0,0,0,0,1,2
159.94,0.001008,0.001953125,-0.001953125,0.001953125,0.0625,-0.2578125,9.84375,0,0,0,0.265625,0.005859375,0,-0.03137207,-0.001586914,0.07910156,0,0,0.07910156,0,4.077,0,0,0,0,nan,2,0.025,0,0,0,0,0,0,0,0,0,1,2
159.95,0.001005,0.00390625,-0.001953125,0,-0.015625,-0.3046875,9.796875,0.001953125,-0.001953125,0.001953125,0.265625,0.005859375,0,-0.03137207,-0.001586914,0.07910156,0,0,0.07910156,0,4.077,0,0,0,0,nan,2,0.035,0,0,0,0,0,0,0,0,0,1,2
159.96,0.001024,-0.001953125,-0.001953125,0,0.015625,-0.3046875,9.84375,-0.001953125,0,0.001953125,0.265625,0.005859375,0,-0.03137207,-0.001586914,0.07910156,0,0,0.07910156,0,4.077,0,0,0,0,nan,2,0.045,0,0,0,0,0,0,0,0,0,1,2
159.97,0.000993,-0.001953125,-0.00390625,0,0.0078125,-0.328125,9.828125,0,-0.001953125,0,0.265625,0.005859375,0,-0.03137207,-0.001586914,0.07910156,0,0,0.07910156,0,4.077,0,0,0,0,nan,2,0.006,0,0,0,0,0,0,0,0,0,1,2
159.98,0.001008,0,0.001953125,-0.00390625,0.0078125,-0.34375,9.835938,0,0.001953125,0,0.265625,0.005859375,0,-0.03137207,-0.001586914,0.07910156,0,0,0.07910156,0,4.077,0,0,0,0,nan,2,0.016,0,0,0,0,0,0,0,0,0,1,2
159.99,0.001004,-0.001953125,0.00390625,0,0.0234375,-0.3359375,9.773438,0,0.001953125,0,0.265625,0.005859375,0,-0.03137207,-0.001586914,0.07910156,0,0,0.07910156,0,4.077,0,0,0,0,nan,2,0.025,0,0,0,0,0,0,0,0,0,1,2
160,0.001002,0,-0.00390625,0.001953125,0.03125,-0.2890625,9.820312,0,0,0,0.265625,0.005859375,0,-0.03137207,-0.001464844,0.07910156,0,0,0.07910156,0,4.077,0,0,0,0,nan,2,0.035,0,0,0,0,0,0,0,0,0,1,2
160.01,0.00101,-0.001953125,0,-0.001953125,0.0078125,-0.3046875,9.789062,0,0,0,0.265625,0.005859375,0,-0.03137207,-0.001464844,0.07910156,0,0,0.07910156,0,4.077,0,0,0,0,nan,2,0.045,0,0,0,0,0,0,0,0,0,1,2
160.02,0.00101,0.00390625,0,0.001953125,0.0390625,-0.328125,9.765625,0.001953125,0.001953125,0,0.265625,0.005859375,0,-0.03137207,-0.001464844,0.07910156,0,0,0.07910156,0,4.077,0,0,0,0,nan,2,0.056,0,0,0,0,0,0,0,0,0,1,2
160.03,0.00101,0,0,-0.001953125,-0.0234375,-0.296875,9.828125,-0.001953125,-0.001953125,-0.001953125,0.265625,0.005859375,0,-0.03137207,-0.001464844,0.07910156,0,0,0.07910156,0,4.077,0,0,0,0,nan,2,0.066,0,0,0,0,0,0,0,0,0,1,2
160.04,0.001002,-0.00390625,0.001953125,-0.001953125,0.0390625,-0.3046875,9.773438,-0.001953125,0,-0.001953125,0.265625,0.005859375,0,-0.03137207,-0.001464844,0.07910156,0,0,0.07910156,0,4.077,0,0,0,0,nan,2,0.076,0,0,0,0,0,0,0,0,0,1,2
160.05,0.001002,0,-0.001953125,0,0.015625,-0.2890625,9.78125,0,0,0,0.265625,0.005859375,0,-0.03137207,-0.001464844,0.07910156,0,0,0.07910156,0,4.077,0,0,0,0,nan,2,0.086,0,0,0,0,0,0,0,0,0,1,2
160.06,0.001016,0,-0.001953125,0,0.015625,-0.328125,9.796875,0,0,0,0.265625,0.005859375,0,-0.03137207,-0.001464844,0.07910156,0,0,0.07910156,0,4.077,0,0,0,0,nan,2,0.096,0,0,0,0,0,0,0,0,0,1,2
160.07,0.001013,0.00390625,0.00390625,0,0.0390625,-0.3046875,9.804688,0,0.001953125,0,0.265625,0.005859375,0,-0.03149414,-0.001464844,0.07910156,0,0,0.07910156,0,4.077,0,0,0,0,nan,2,0.007,0,0,0,0,0,0,0,0,0,1,2
160.081,0.001019,-0.001953125,0,0,0.046875,-0.328125,9.84375,0,0,0,0.265625,0.005859375,0,-0.03149414,-0.001586914,0.07910156,0,0,0.07910156,0,4.077,0,0,0,0,nan,2,0.017,0,0,0,0,0,0,0,0,0,1,2
160.09,0.001012,0,0.001953125,0,0.046875,-0.3359375,9.867188,-0.001953125,0.001953125,0,0.265625,0.005859375,0,-0.03149414,-0.001586914,0.07910156,0,0,0.07910156,0,4.077,0,0,0,0,nan,2,0.026,0,0,0,0,0,0,0,0,0,1,2
160.1,0.000985,0.00390625,0.00390625,0.001953125,-0.0078125,-0.2890625,9.820312,0,0.001953125,0.001953125,0.265625,0.005859375,0,-0.03149414,-0.001586914,0.07910156,0,0,0.07910156,0,4.077,0,0,0,0,nan,2,0.036,0,0,0,0,0,0,0,0,0,1,2
160.11,0.000988,-0.001953125,0,0.001953125,0.0078125,-0.296875,9.84375,0,0,0.001953125,0.265625,0.005859375,0,-0.03149414,-0.001586914,0.07910156,0,0,0.07910156,0,4.077,0,0,0,0,nan,2,0.046,0,0,0,0,0,0,0,0,0,1,2
160.12,0.001045,0.001953125,0,0,0.0078125,-0.3046875,9.789062,0.001953125,0,0,0.265625,0.005859375,0,-0.03137207,-0.001586914,0.07910156,0,0,0.07910156,0,4.077,0,0,0,0,nan,2,0.057,0,0,0,0,0,0,0,0,0,1,2
160.13,0.000971,-0.00390625,0,0,0.03125,-0.3046875,9.773438,0,0.001953125,0,0.265625,0.005859375,0,-0.03137207,-0.001586914,0.07910156,0,0,0.07910156,0,4.077,0,0,0,0,nan,2,0.067,0,0,0,0,0,0,0,0,0,1,2
160.14,0.001006,-0.001953125,0,-0.001953125,0.0078125,-0.3515625,9.875,0,0,0,0.265625,0.005859375,0,-0.03137207,-0.001586914,0.07910156,0,0,0.07910156,0,4.077,0,0,0,0,nan,2,0.005,0,0,0,0,0,0,0,0,0,1,2
160.15,0.00101,0,0.001953125,-0.001953125,0.0390625,-0.28125,9.804688,-0.001953125,0,-0.001953125,0.265625,0.005859375,0,-0.03149414,-0.001464844,0.07910156,0,0,0.07910156,0,4.077,0,0,0,0,nan,2,0.015,0,0,0,0,0,0,0,0,0,1,2
160.16,0.000975,0.001953125,-0.001953125,0.001953125,0.0390625,-0.328125,9.804688,0,0,0,0.265625,0.005859375,0,-0.03149414,-0.001586914,0.07910156,0,0,0.07910156,0,4.077,0,0,0,0,nan,2,0.025,0,0,0,0,0,0,0,0,0,1,2
160.17,0.001003,0,0,0.001953125,0.046875,-0.2578125,9.820312,0.001953125,0,0.001953125,0.265625,0.005859375,0,-0.03149414,-0.001586914,0.07910156,0,0,0.07910156,0,4.077,0,0,0,0,nan,2,0.006,0,0,0,0,0,0,0,0,0,1,2
160.18,0.001012,0,0,0,-0.015625,-0.328125,9.804688,0.001953125,0,0,0.265625,0.005859375,0,-0.03137207,-0.001586914,0.07910156,0,0,0.07910156,0,4.077,0,0,0,0,nan,2,0.016,0,0,0,0,0,0,0,0,0,1,2
160.19,0.001008,0.001953125,0.001953125,0,0.046875,-0.2890625,9.8125,0,0,0,0.265625,0.005859375,0,-0.03137207,-0.001586914,0.07910156,0,0,0.07910156,0,4.077,0,0,0,0,nan,2,0.025,0,0,0,0,0,0,0,0,0,1,2
160.2,0.001008,0,-0.001953125,0.001953125,0.0078125,-0.3046875,9.804688,0,0,0,0.265625,0.005859375,0,-0.03137207,-0.001586914,0.07910156,0,0,0.07910156,0,4.077,0,0,0,0,nan,2,0.035,0,0,0,0,0,0,0,0,0,1,2
160.21,0.00101,-0.001953125,-0.001953125,0,0.0390625,-0.3125,9.820312,0,0,0,0.265625,0.005859375,0,-0.03137207,-0.001586914,0.07910156,0,0,0.07910156,0,4.077,0,0,0,0,nan,2,0.045,0,0,0,0,0,0,0,0,0,1,2
160.22,0.00101,-0.001953125,-0.001953125,-0.00390625,0.0625,-0.34375,9.765625,0,0,-0.001953125,0.265625,0.005859375,0,-0.03137207,-0.001586914,0.07910156,0,0,0.07910156,0,4.077,0,0,0,0,nan,2,0.056,0,0,0,0,0,0,0,0,0,1,2
160.23,0.00101,0,0.00390625,0,0.03125,-0.3359375,9.789062,0,0.001953125,-0.001953125,0.265625,0.005859375,0,-0.03137207,-0.001708984,0.07910156,0,0,0.07910156,0,4.077,0,0,0,0,nan,2,0.066,0,0,0,0,0,0,0,0,0,1,2
160.24,0.00101,0,0,0,0.0078125,-0.3125,9.882812,0,0,0,0.265625,0.005859375,0,-0.03125,-0.001708984,0.07910156,0,0,0.07910156,0,4.077,0,0,0,0,nan,2,0.076,0,0,0,0,0,0,0,0,0,1,2
160.25,0.00101,0.001953125,-0.001953125,0,0.0390625,-0.3203125,9.78125,0,0,0,0.265625,0.005859375,0,-0.03125,-0.001586914,0.07910156,0,0,0.07910156,0,4.077,0,0,0,0,nan,2,0.086,0,0,0,0,0,0,0,0,0,1,2
160.26,0.00101,0,0.001953125,0,0.015625,-0.296875,9.8125,0,0.001953125,0,0.265625,0.005859375,0,-0.03125,-0.001586914,0.07910156,0,0,0.07910156,0,4.077,0,0,0,0,nan,2,0.096,0,0,0,0,0,0,0,0,0,1,2
160.27,0.00101,-0.00390625,-0.00390625,-0.001953125,0.015625,-0.3359375,9.835938,-0.001953125,-0.001953125,0,0.265625,0.005859375,0,-0.03125,-0.001586914,0.07910156,0,0,0.07910156,0,4.077,0,0,0,0,nan,2,0.106,0,0,0,0,0,0,0,0,0,1,2
160.28,0.00101,-0.001953125,-0.001953125,0.001953125,0.0546875,-0.2734375,9.875,-0.001953125,0,0,0.265625,0.005859375,0,-0.03125,-0.001586914,0.07910156,0,0,0.07910156,0,4.077,0,0,0,0,nan,2,0.116,0,0,0,0,0,0,0,0,0,1,2
160.29,0.001016,0.001953125,-0.001953125,0.001953125,0.03125,-0.3125,9.820312,0,-0.001953125,0.001953125,0.265625,0.005859375,0,-0.03125,-0.001586914,0.07910156,0,0,0.07910156,0,4.077,0,0,0,0,nan,2,0.125,0,0,0,0,0,0,0,0,0,1,2
160.3,0.001006,-0.001953125,-0.001953125,0,0.0078125,-0.328125,9.789062,0,-0.001953125,0.001953125,0.265625,0.005859375,0,-0.03125,-0.001586914,0.07910156,0,0,0.07910156,0,4.077,0,0,0,0,nan,2,0.135,0,0,0,0,0,0,0,0,0,1,2
160.31,0.00101,0,0,-0.001953125,-0.0078125,-0.28125,9.835938,0,0,0,0.265625,0.005859375,0,-0.03125,-0.001586914,0.07910156,0,0,0.07910156,0,4.077,0,0,0,0,nan,2,0.145,0,0,0,0,0,0,0,0,0,1,2
160.32,0.00101,0,-0.001953125,-0.00390625,0.0078125,-0.2890625,9.835938,0,0,-0.001953125,0.265625,0.005859375,0,-0.03125,-0.001586914,0.07910156,0,0,0.07910156,0,4.077,0,0,0,0,nan,2,0.156,0,0,0,0,0,0,0,0,0,1,2
160.33,0.001013,0.00390625,0.001953125,-0.00390625,0.0078125,-0.2890625,9.84375,0.001953125,0.001953125,-0.001953125,0.265625,0.005859375,0,-0.03125,-0.001586914,0.07910156,0,0,0.07910156,0,4.077,0,0,0,0,nan,2,0.166,0,0,0,0,0,0,0,0,0,1,2
160.34,0.00101,0,0,0.001953125,0.0078125,-0.3046875,9.804688,0,0,0.001953125,0.265625,0.005859375,0,-0.03125,-0.001586914,0.07910156,0,0,0.07910156,0,4.077,0,0,0,0,nan,2,0.176,0,0,0,0,0,0,0,0,0,1,2
160.35,0.001019,0.001953125,0,0,-0.015625,-0.28125,9.875,0.001953125,0,0,0.265625,0.005859375,0,-0.03125,-0.001586914,0.07910156,0,0,0.07910156,0,4.077,0,0,0,0,nan,2,0.186,0,0,0,0,0,0,0,0,0,1,2
160.36,0.000975,0.00390625,-0.001953125,0,0.0078125,-0.28125,9.851562,0,0,0,0.265625,0.005859375,0,-0.03125,-0.001464844,0.07910156,0,0,0.07910156,0,4.077,0,0,0,0,nan,2,0.007,0,0,0,0,0,0,0,0,0,1,2
160.37,0.0009860001,-0.00390625,0,-0.001953125,-0.0078125,-0.3125,9.851562,0,0,0,0.265625,0.005859375,0,-0.03112793,-0.001464844,0.07910156,0,0,0.07910156,0,4.077,0,0,0,0,nan,2,0.003,0,0,0,0,0,0,0,0,0,1,2
160.38,0.00105,0,0.001953125,0,0.0390625,-0.3125,9.828125,0,0,0,0.265625,0.005859375,0,-0.03112793,-0.001464844,0.07910156,0,0,0.07910156,0,4.077,0,0,0,0,nan,2,0.012,0,0,0,0,0,0,0,0,0,1,2
160.391,0.001019,0,-0.001953125,0,-0.0078125,-0.25,9.804688,0,-0.001953125,0,0.265625,0.005859375,0,-0.03112793,-0.001464844,0.07910156,0,0,0.07910156,0,4.077,0,0,0,0,nan,2,0.023,0,0,0,0,0,0,0,0,0,1,2
160.4,0.000978,-0.001953125,-0.00390625,-0.001953125,0.03125,-0.28125,9.828125,0,0,-0.001953125,0.265625,0.005859375,0,-0.03112793,-0.001464844,0.07910156,0,0,0.07910156,0,4.077,0,0,0,0,nan,2,0.032,0,0,0,0,0,0,0,0,0,1,2
160.41,0.001008,-0.001953125,0,0,0.03125,-0.3359375,9.835938,0,-0.001953125,0,0.265625,0.005859375,0,-0.03112793,-0.001464844,0.07910156,0,0,0.07910156,0,4.077,0,0,0,0,nan,2,0.042,0,0,0,0,0,0,0,0,0,1,2
160.42,0.00101,0.00390625,0,0,0.0078125,-0.328125,9.859375,0.001953125,0,0,0.265625,0.005859375,0,-0.03112793,-0.001586914,0.07910156,0,0,0.07910156,0,4.077,0,0,0,0,nan,2,0.053,0,0,0,0,0,0,0,0,0,1,2
160.43,0.00101,0,0.001953125,0,0.0390625,-0.3203125,9.851562,0.001953125,-0.001953125,0,0.265625,0.005859375,0,-0.03112793,-0.001586914,0.07910156,0,0,0.07910156,0,4.077,0,0,0,0,nan,2,0.063,0,0,0,0,0,0,0,0,0,1,2
160.44,0.001042,0,0.005859375,0,0.0078125,-0.2890625,9.804688,0.001953125,0.001953125,-0.001953125,0.265625,0.005859375,0,-0.03112793,-0.001586914,0.07910156,0,0,0.07910156,0,4.077,0,0,0,0,nan,2,0.073,0,0,0,0,0,0,0,0,0,1,2
160.45,0.001034,-0.001953125,-0.001953125,0,0,-0.3125,9.804688,0,-0.001953125,-0.001953125,0.265625,0.005859375,0,-0.03112793,-0.001464844,0.07910156,0,0,0.07910156,0,4.077,0,0,0,0,nan,2,0.083,0,0,0,0,0,0,0,0,0,1,2
160.46,0.001022,0,0.001953125,0,0,-0.2734375,9.875,0,0,0,0.265625,0.005859375,0,-0.03112793,-0.001586914,0.07910156,0,0,0.07910156,0,4.077,0,0,0,0,nan,2,0.093,0,0,0,0,0,0,0,0,0,1,2
160.47,0.00101,0,-0.0078125,0,0,-0.28125,9.8125,0,-0.001953125,0,0.265625,0.005859375,0,-0.03112793,-0.001464844,0.07910156,0,0,0.07910156,0,4.077,0,0,0,0,nan,2,0.103,0,0,0,0,0,0,0,0,0,1,2
160.48,0.001012,-0.001953125,0.001953125,-0.001953125,0.03125,-0.34375,9.796875,0,0,0,0.265625,0.005859375,0,-0.03125,-0.001464844,0.07910156,0,0,0.07910156,0,4.077,0,0,0,0,nan,2,0.112,1,0,0,0,0,0,0,0,0,1,2
160.49,0.001014,-0.001953125,-0.001953125,-0.001953125,0.0234375,-0.3046875,9.828125,-0.001953125,0,-0.001953125,0.265625,0.005859375,0,-0.03125,-0.001586914,0.07910156,0,0,0.07910156,0,4.077,0,0,0,0,nan,2,0.122,1,0,0,0,0,0,0,0,0,1,2
160.5,0.001012,-0.001953125,0.00390625,0.001953125,0.015625,-0.296875,9.828125,-0.001953125,0,0,0.265625,0.005859375,0,-0.03125,-0.001464844,0.07910156,0,0,0.07910156,0,4.077,0,0,0,0,nan,2,0.132,1,0,0,0,0,0,0,0,0,1,2
160.51,0.001008,-0.001953125,0,-0.00390625,0.046875,-0.3125,9.820312,-0.001953125,0,-0.001953125,0.265625,0.005859375,0,-0.03125,-0.001464844,0.07897949,0,0,0.07910156,0,4.077,0,0,0,0,nan,2,0.142,1,0,0,0,0,0,0,0,0,1,2
160.52,0.001026,0.00390625,-0.001953125,0.001953125,0.0234375,-0.2890625,9.78125,0,-0.001953125,0,0.265625,0.005859375,0,-0.03137207,-0.001586914,0.07897949,0,0,0.07910156,0,4.077,0,0,0,0,nan,2,0.153,1,0,0,0,0,0,0,0,0,1,2
160.53,0.001017,-0.001953125,-0.001953125,0.001953125,0.0390625,-0.2890625,9.765625,0,0,0.001953125,0.265625,0.005859375,0,-0.03125,-0.001586914,0.07897949,0,0,0.07910156,0,4.077,0,0,0,0,nan,2,0.003,1,0,0,0,0,0,0,0,0,1,2
160.54,0.00101,-0.00390625,0,0,0.03125,-0.3203125,9.757812,-0.001953125,0,0,0.265625,0.005859375,0,-0.03125,-0.001586914,0.07910156,0,0,0.07910156,0,4.077,0,0,0,0,nan,2,0.013,1,0,0,0,0,0,0,0,0,1,2
160.55,0.00101,0,0,-0.001953125,0.0078125,-0.3203125,9.851562,0,0,-0.001953125,0.265625,0.005859375,0,-0.03137207,-0.001586914,0.07897949,0,0,0.07910156,0,4.077,0,0,0,0,nan,2,0.023,1,0,0,0,0,0,0,0,0,1,2
160.56,0.00101,0,-0.001953125,0,0.015625,-0.3359375,9.804688,0.001953125,0,0,0.265625,0.005859375,0,-0.03137207,-0.001586914,0.07897949,0,0,0.07910156,0,4.077,0,0,0,0,nan,2,0.033,1,0,0,0,0,0,0,0,0,1,2
160.57,0.00101,0.001953125,0,-0.001953125,0.015625,-0.328125,9.796875,0.001953125,0,-0.001953125,0.265625,0.005859375,0,-0.03137207,-0.001586914,0.07897949,0,0,0.07910156,0,4.077,0,0,0,0,nan,2,0.043,1,0,0,0,0,0,0,0,0,1,2
160.58,0.00101,0,-0.001953125,-0.001953125,0.015625,-0.3125,9.828125,0,-0.001953125,0.001953125,0.265625,0.005859375,0,-0.03137207,-0.001586914,0.07897949,0,0,0.07910156,0,4.077,0,0,0,0,nan,2,0.054,1,0,0,0,0,0,0,0,0,1,2
160.591,0.001008,-0.001953125,-0.001953125,-0.001953125,0.0078125,-0.3125,9.820312,-0.001953125,0,0,0.265625,0.005859375,0,-0.03137207,-0.001708984,0.07897949,0,0,0.07910156,0,4.077,0,0,0,0,nan,2,0.064,1,0,0,0,0,0,0,0,0,1,2
160.6,0.001007,0,-0.001953125,0,0.015625,-0.3046875,9.851562,0.001953125,0,0,0.265625,0.005859375,0,-0.03137207,-0.001708984,0.07897949,0,0,0.07910156,0,4.077,0,0,0,0,nan,2,0.073,1,0,0,0,0,0,0,0,0,1,2
160.61,0.00101,0,0.00390625,-0.001953125,0.0078125,-0.265625,9.804688,0,0,0,0.265625,0.005859375,0,-0.03137207,-0.001586914,0.07897949,0,0,0.07910156,0,4.077,0,0,0,0,nan,2,0.083,1,0,0,0,0,0,0,0,0,1,2
160.62,0.00101,0,0,0,-0.015625,-0.2890625,9.820312,0,0,0,0.265625,0.005859375,0,-0.03137207,-0.001586914,0.07897949,0,0,0.07910156,0,4.077,0,0,0,0,nan,2,0.093,1,0,0,0,0,0,0,0,0,1,2
160.63,0.00101,0,0,-0.001953125,0.03125,-0.3125,9.835938,0,0,-0.001953125,0.265625,0.005859375,0,-0.03137207,-0.001586914,0.07897949,0,0,0.07910156,0,4.077,0,0,0,0,nan,2,0.103,1,0,0,0,0,0,0,0,0,1,2
160.64,0.00104,0,-0.00390625,0,0.0546875,-0.3046875,9.804688,0,-0.001953125,0,0.265625,0.005859375,0,-0.03125,-0.001586914,0.07897949,0,0,0.07910156,0,4.077,0,0,0,0,nan,2,0.113,1,0,0,0,0,0,0,0,0,1,2
160.65,0.001045,-0.005859375,0.001953125,0,0.015625,-0.3203125,9.828125,-0.00390625,0,0,0.265625,0.005859375,0,-0.03125,-0.001708984,0.07897949,0,0,0.07910156,0,4.077,0,0,0,0,nan,2,0.123,1,0,0,0,0,0,0,0,0,1,2
160.66,0.001001,0,0.001953125,0.001953125,0,-0.296875,9.820312,-0.001953125,0,0,0.265625,0.005859375,0,-0.03125,-0.001708984,0.07897949,0,0,0.07910156,0,4.077,0,0,0,0,nan,2,0.133,1,0,0,0,0,0,0,0,0,1,2
160.67,0.00101,0,0,-0.001953125,0.015625,-0.3125,9.835938,0,0,0,0.265625,0.005859375,0,-0.03125,-0.001708984,0.07897949,0,0,0.07910156,0,4.077,0,0,0,0,nan,2,0.143,1,0,0,0,0,0,0,0,0,1,2
160.68,0.00101,0.001953125,0.001953125,0,-0.0078125,-0.3203125,9.859375,0.001953125,-0.001953125,0,0.265625,0.005859375,0,-0.03125,-0.001708984,0.07897949,0,0,0.07910156,0,4.077,0,0,0,0,nan,2,0.154,1,0,0,0,0,0,0,0,0,1,2
160.69,0.001024,-0.001953125,0,0.00390625,0.03125,-0.296875,9.820312,-0.001953125,0.001953125,0,0.265625,0.005859375,0,-0.03137207,-0.001708984,0.07897949,0,0,0.07910156,0,4.077,0,0,0,0,nan,2,0.163,1,0,0,0,0,0,0,0,0,1,2
160.7,0.000979,0.001953125,0.00390625,0,0.0078125,-0.296875,9.84375,0,0,0,0.265625,0.005859375,0,-0.03137207,-0.001708984,0.07897949,0,0,0.07910156,0,4.077,0,0,0,0,nan,2,0.173,1,0,0,0,0,0,0,0,0,1,2
160.71,0.00101,0.005859375,0.001953125,0.001953125,0.015625,-0.328125,9.859375,0.001953125,0.001953125,0,0.265625,0.005859375,0,-0.03137207,-0.001708984,0.07897949,0,0,0.07910156,0,4.077,0,0,0,0,nan,2,0.183,1,0,0,0,0,0,0,0,0,1,2
160.72,0.000973,0.001953125,0.001953125,-0.001953125,0.0234375,-0.328125,9.851562,0,0.001953125,0,0.265625,0.005859375,0,-0.03137207,-0.001708984,0.07897949,0,0,0.07910156,0,4.077,0,0,0,0,nan,2,0.193,1,0,0,0,0,0,0,0,0,1,2
160.73,0.001012,0,0.00390625,-0.001953125,0.03125,-0.2890625,9.84375,0,0.001953125,0,0.265625,0.005859375,0,-0.03137207,-0.001708984,0.07897949,0,0,0.07910156,0,4.077,0,0,0,0,nan,2,0,1,0,0,0,0,0,0,0,0,1,2
160.74,0.00101,-0.001953125,-0.001953125,0.00390625,-0.0546875,-0.296875,9.859375,0,0,0,0.265625,0.005859375,0,-0.03137207,-0.001708984,0.07897949,0,0,0.07910156,0,4.077,0,0,0,0,nan,2,0.01,1,0,0,0,0,0,0,0,0,1,2
160.75,0.00101,0.001953125,-0.001953125,0,0.03125,-0.28125,9.789062,0,-0.001953125,0,0.265625,0.005859375,0,-0.03137207,-0.001708984,0.07897949,0,0,0.07910156,0,4.077,0,0,0,0,nan,2,0.02,1,0,0,0,0,0,0,0,0,1,2
160.76,0.00101,-0.001953125,0,0,-0.0078125,-0.28125,9.820312,-0.001953125,0,0,0.265625,0.005859375,0,-0.03137207,-0.001708984,0.07897949,0,0,0.07910156,0,4.077,0,0,0,0,nan,2,0.03,1,0,0,0,0,0,0,0,0,1,2
160.77,0.00101,0,-0.001953125,0,0.0390625,-0.3125,9.851562,0,0,0,0.265625,0.005859375,0,-0.03125,-0.001708984,0.07897949,0,0,0.07910156,0,4.077,0,0,0,0,nan,2,0.04,1,0,0,0,0,0,0,0,0,1,2
160.78,0.001015,0.00390625,0.00390625,-0.001953125,0.0234375,-0.3515625,9.789062,0.001953125,0,-0.001953125,0.265625,0.005859375,0,-0.03137207,-0.001708984,0.07897949,0,0,0.07910156,0,4.077,0,0,0,0,nan,2,0.05,1,0,0,0,0,0,0,0,0,1,2
160.791,0.001,0,-0.001953125,-0.001953125,0.0390625,-0.2890625,9.765625,0,0,-0.001953125,0.265625,0.005859375,0,-0.03137207,-0.001708984,0.07897949,0,0,0.07910156,0,4.077,0,0,0,0,nan,2,0.061,1,0,0,0,0,0,0,0,0,1,2
160.8,0.000996,0.00390625,0,0,0,-0.328125,9.789062,0.001953125,0,0,0.265625,0.005859375,0,-0.03137207,-0.001708984,0.07897949,0,0,0.07910156,0,4.077,0,0,0,0,nan,2,0.07,1,0,0,0,0,0,0,0,0,1,2
160.81,0.001011,0.001953125,0,0.001953125,-0.0078125,-0.3046875,9.789062,0.001953125,-0.001953125,0,0.265625,0.005859375,0,-0.03137207,-0.001708984,0.07897949,0,0,0.07910156,0,4.077,0,0,0,0,nan,2,0.08,1,0,0,0,0,0,0,0,0,1,2
160.82,0.00101,0.001953125,-0.001953125,0,0.03125,-0.3359375,9.804688,0,0,0,0.265625,0.005859375,0,-0.03125,-0.001708984,0.07897949,0,0,0.07910156,0,4.077,0,0,0,0,nan,2,0.09,1,0,0,0,0,0,0,0,0,1,2
160.83,0.00101,-0.001953125,0.001953125,0.001953125,0.03125,-0.296875,9.796875,0,0,0,0.265625,0.005859375,0,-0.03125,-0.001708984,0.07897949,0,0,0.07910156,0,4.077,0,0,0,0,nan,2,0.1,1,0,0,0,0,0,0,0,0,1,2
160.84,0.00101,-0.00390625,0.001953125,0.001953125,0.0546875,-0.3125,9.8125,-0.001953125,0,0,0.265625,0.005859375,0,-0.03125,-0.001831055,0.07897949,0,0,0.07910156,0,4.077,0,0,0,0,nan,2,0.11,1,0,0,0,0,0,0,0,0,1,2
160.85,0.00101,0,0,0,-0.0078125,-0.3203125,9.796875,0,0,-0.001953125,0.265625,0.005859375,0,-0.03137207,-0.001831055,0.07897949,0,0,0.07910156,0,4.077,0,0,0,0,nan,2,0.12,1,0,0,0,0,0,0,0,0,1,2
160.86,0.00101,-0.00390625,0,0.001953125,0.03125,-0.3046875,9.8125,0,0,0.001953125,0.265625,0.005859375,0,-0.03137207,-0.001708984,0.07897949,0,0,0.07910156,0,4.077,0,0,0,0,nan,2,0.13,1,0,0,0,0,0,0,0,0,1,2
160.87,0.00101,0,0.00390625,0,0.03125,-0.2890625,9.804688,0,0.001953125,0,0.265625,0.005859375,0,-0.03125,-0.001708984,0.07897949,0,0,0.07910156,0,4.077,0,0,0,0,nan,2,0.14,1,0,0,0,0,0,0,0,0,1,2
160.88,0.00101,0.00390625,0,0.001953125,0.0234375,-0.3203125,9.804688,0.001953125,0,0,0.265625,0.005859375,0,-0.03125,-0.001708984,0.07897949,0,0,0.07910156,0,4.077,0,0,0,0,nan,2,0.15,1,0,0,0,0,0,0,0,0,1,2
160.89,0.001007,0,0,0.001953125,0.0234375,-0.265625,9.804688,0.001953125,0,0,0.265625,0.005859375,0,-0.03125,-0.001708984,0.07897949,0,0,0.07910156,0,4.077,0,0,0,0,nan,2,0.161,1,0,0,0,0,0,0,0,0,1,2
160.9,0.00102,0,0.001953125,0,0.0078125,-0.3125,9.851562,0,0,0,0.265625,0.005859375,0,-0.03125,-0.001708984,0.07897949,0,0,0.07910156,0,4.077,0,0,0,0,nan,2,0.17,1,0,0,0,0,0,0,0,0,1,2
160.91,0.001003,-0.001953125,-0.001953125,0.001953125,0.0546875,-0.3046875,9.804688,0,0,0.001953125,0.265625,0.005859375,0,-0.03125,-0.001708984,0.07897949,0,0,0.07910156,0,4.077,0,0,0,0,nan,2,0.18,1,0,0,0,0,0,0,0,0,1,2
160.92,0.000995,-0.00390625,0,-0.001953125,0.0390625,-0.265625,9.789062,0,0,-0.001953125,0.265625,0.005859375,0,-0.03125,-0.001708984,0.07897949,0,0,0.07910156,0,4.077,0,0,0,0,nan,2,0.19,1,0,0,0,0,0,0,0,0,1,2
160.93,0.001012,-0.001953125,0.001953125,-0.001953125,0.0078125,-0.3515625,9.78125,-0.001953125,0,0,0.265625,0.005859375,0,-0.03125,-0.001831055,0.07897949,0,0,0.07910156,0,4.077,0,0,0,0,nan,2,0.002,1,0,0,0,0,0,0,0,0,1,2
160.94,0.001036,-0.001953125,0,0.001953125,0.03125,-0.2890625,9.78125,-0.001953125,0,0.001953125,0.265625,0.005859375,0,-0.03137207,-0.001831055,0.07897949,0,0,0.07910156,0,4.077,0,0,0,0,nan,2,0.012,1,0,0,0,0,0,0,0,0,1,2
160.95,0.00101,0,0,0,-0.015625,-0.3046875,9.789062,0,0.001953125,0,0.265625,0.005859375,0,-0.03137207,-0.001708984,0.07897949,0,0,0.07910156,0,4.077,0,0,0,0,nan,2,0.022,1,0,0,0,0,0,0,0,0,1,2
160.96,0.00101,0,-0.00390625,0.001953125,0.03125,-0.296875,9.804688,0,-0.001953125,0.001953125,0.265625,0.005859375,0,-0.03137207,-0.001708984,0.07897949,0,0,0.07910156,0,4.077,0,0,0,0,nan,2,0.032,1,0,0,0,0,0,0,0,0,1,2
160.97,0.00101,0.001953125,0.001953125,0,-0.015625,-0.3515625,9.796875,0,0,0,0.265625,0.005859375,0,-0.03137207,-0.001708984,0.07897949,0,0,0.07910156,0,4.077,0,0,0,0,nan,2,0.042,1,0,0,0,0,0,0,0,0,1,2
160.98,0.00101,-0.001953125,0.001953125,-0.001953125,0.015625,-0.3125,9.84375,0,0,0,0.265625,0.005859375,0,-0.03137207,-0.001708984,0.07897949,0,0,0.07910156,0,4.077,0,0,0,0,nan,2,0.053,1,0,0,0,0,0,0,0,0,1,2
160.99,0.001015,0,0,0.001953125,-0.046875,-0.3359375,9.796875,0,0,0,0.265625,0.005859375,0,-0.03137207,-0.001708984,0.07897949,0,0,0.07910156,0,4.077,0,0,0,0,nan,2,0.063,1,0,0,0,0,0,0,0,0,1,2
161,0.001044,-0.001953125,0,0,0.0078125,-0.359375,9.765625,0,-0.001953125,0,0.265625,0.005859375,0,-0.03137207,-0.001586914,0.07897949,0,0,0.07910156,0,4.077,0,0,0,0,nan,2,0.072,1,0,0,0,0,0,0,0,0,1,2
161.01,0.0009860001,0.001953125,-0.00390625,0.001953125,0.0078125,-0.34375,9.851562,0.001953125,0,0,0.265625,0.005859375,0,-0.03137207,-0.001586914,0.07897949,0,0,0.07910156,0,4.077,0,0,0,0,nan,2,0.082,1,0,0,0,0,0,0,0,0,1,2
161.02,0.001024,0.00390625,0,-0.001953125,0.0078125,-0.3046875,9.8125,0.001953125,0,0,0.265625,0.005859375,0,-0.03137207,-0.001586914,0.07897949,0,0,0.07910156,0,4.077,0,0,0,0,nan,2,0.092,1,0,0,0,0,0,0,0,0,1,2
161.03,0.00101,0,-0.001953125,0,0.015625,-0.34375,9.789062,0,0,0,0.265625,0.005859375,0,-0.03137207,-0.001586914,0.07897949,0,0,0.07910156,0,4.077,0,0,0,0,nan,2,0.102,1,0,0,0,0,0,0,0,0,1,2
161.04,0.0009860001,-0.001953125,-0.001953125,0,0.0078125,-0.28125,9.789062,0,0,-0.001953125,0.265625,0.005859375,0,-0.03137207,-0.001586914,0.07897949,0,0,0.07910156,0,4.077,0,0,0,0,nan,2,0.112,1,0,0,0,0,0,0,0,0,1,2
161.05,0.000837,0.00390625,0.001953125,0.001953125,0.03125,-0.359375,9.8125,0.001953125,-0.001953125,0.001953125,0.1894531,0.009765625,0,-0.03137207,-0.001586914,0.07897949,0,0,0.07910156,0.1421204,4.077,0,0,0,0.09997559,nan,2,0.002,1,0,0.1548157,0.1306458,0.1312866,0.1516724,0,0,0,1,2
161.06,0.00101,-0.01171875,0.00390625,-0.005859375,0.03125,-0.34375,9.78125,-0.001953125,0.005859375,-0.001953125,0.1894531,0.009765625,0,-0.03149414,-0.001586914,0.07897949,0,0,0.07910156,0.1421204,4.077,0,0,0,0.09997559,nan,2,0.012,1,0,0.1516724,0.132843,0.1268921,0.1570129,0,0,0,1,2
161.07,0.001045,-0.0078125,0,0.005859375,0.296875,0.0078125,10.01562,-0.00390625,0.001953125,0.00390625,0.1894531,0.009765625,0,-0.03149414,-0.001586914,0.07897949,0,0,0.07910156,0.1421204,4.077,0,0,0,0.09997559,nan,2,0.021,1,0,0.163208,0.1221619,0.1380615,0.144989,0,0,0,1,2
161.08,0.00101,-0.01757812,-0.02148438,0.04101562,0.0625,-1.03125,9.367188,-0.005859375,-0.00390625,0.005859375,0.1894531,0.009765625,0,-0.03161621,-0.001586914,0.07897949,0,0,0.07910156,0.1421204,4.077,0,0,0,0.09997559,nan,2,0.032,1,0,0.1793518,0.1083679,0.1505127,0.130188,0.0009765625,0,0,1,2
161.09,0.001045,-0.01171875,-0.01757812,-0.01171875,-1.101562,0.7890625,10.125,-0.00390625,-0.001953125,-0.0078125,0.1894531,0.009765625,0,-0.03149414,-0.001586914,0.07897949,0,0,0.07910156,0.1421204,4.077,0,0,0,0.09997559,nan,2,0.041,1,0,0.136322,0.1506348,0.1087646,0.172699,0.0009765625,0,0,1,2
161.1,0.00101,-0.0546875,0.001953125,0.0390625,0.2734375,-0.4453125,11.0625,-0.01757812,0.01367188,0.0078125,0.1894531,0.009765625,0,-0.03161621,-0.001586914,0.07897949,0,0,0.07910156,0.1421204,4.077,0,0,0,0.09997559,nan,2,0.051,1,0,0.1773376,0.102478,0.1500244,0.1385803,0.0009765625,0,0,1,2
161.11,0.001007,0.1035156,0.078125,-0.01757812,-1.46875,5.070312,13.91406,0.015625,0.01367188,-0.005859375,0.1894531,0.009765625,0,-0.03161621,-0.001586914,0.07897949,0,0,0.07910156,0.1421204,4.077,0,0,0,0.09997559,nan,2,0.062,1,0,0.1377258,0.1415405,0.1273193,0.1618347,0.0009765625,0,0,1,2
161.12,0.000992,0.08398438,0.00390625,-0.02929688,0.109375,3.726562,14.11719,0.001953125,0,-0.009765625,0.1894531,0.009765625,0,-0.03161621,-0.001586914,0.07897949,0,0,0.07910156,0.1421204,4.077,0,0,0,0.09997559,nan,2,0.072,1,0,0.1400146,0.1463928,0.1140747,0.1679382,0.0009765625,0,0,1,2
161.13,0.001046,-0.05078125,0.001953125,0.02734375,-1.070312,-4.25,2.09375,0.01367188,0.02539062,0.009765625,0.1875,0.009765625,0,-0.03125,-0.001464844,0.07885742,0,0,0.07910156,0,4.077,0,0,0,0,nan,2,0.004,1,0,0.1000061,0.1000061,0.1000061,0.1000061,0,0,0,1,2
161.14,0.00101,-0.0625,-0.04296875,-0.005859375,-0.0859375,3.109375,9.296875,-0.015625,0,0.009765625,0.1875,0.009765625,0,-0.03100586,-0.001342773,0.07897949,0,0,0.07910156,0,4.077,0,0,0,0,nan,2,0.014,1,0,0.1000061,0.1000061,0.1000061,0.1000061,0,0,0,1,2
161.15,0.001012,0.04296875,0.01953125,0.01171875,0.75,2.796875,8.039062,0.0234375,-0.001953125,0.01953125,0.1875,0.009765625,0,-0.03088379,-0.001586914,0.07922363,0,0,0.07910156,0,4.077,0,0,0,0,nan,2,0.024,1,0,0.1000061,0.1000061,0.1000061,0.1000061,0,0,0,1,2
161.16,0.000978,-0.02734375,-0.05078125,0.001953125,-0.7734375,-0.453125,10.96875,-0.03320312,-0.005859375,0.01171875,0.1894531,0.009765625,0,-0.03137207,-0.001586914,0.0793457,0,0,0.07910156,0.1842041,4.077,0,0,0,0.1500244,nan,2,0.007,1,0,0.2059937,0.1673889,0.1674194,0.1960449,0,0,0,1,2
161.17,0.00101,-0.03515625,0.02929688,-0.0625,-0.6796875,1.328125,7.9375,-0.00390625,0.0078125,-0.03125,0.1914062,0.009765625,0,-0.03173828,-0.001708984,0.07922363,0,0,0.07910156,0.1842041,4.077,0,0,0,0.1500244,nan,2,0.017,1,0,0.1363525,0.2293701,0.1163635,0.2547913,0,0,0,1,2
161.181,0.001037,0.05273438,0.0078125,-0.02734375,0.9140625,-1.164062,12.19531,0,0.001953125,-0.02929688,0.1914062,0.009765625,0,-0.03198242,-0.001586914,0.07897949,0,0,0.07910156,0.1842041,4.077,0,0,0,0.1500244,nan,2,0.027,1,0,0.1879883,0.1817932,0.1641846,0.2028809,0.0009765625,0,0,1,2
161.19,0.00101,0,0.03515625,-0.07226562,-0.0546875,1.984375,12.19531,-0.0078125,-0.009765625,-0.0546875,0.1933594,0.009765625,0,-0.03222656,-0.001831055,0.07849121,0,0,0.07910156,0.1842041,4.077,0,0,0,0.1500244,nan,2,0.036,1,0,0.1587524,0.2138367,0.1264038,0.237854,0.0009765625,0,0,1,2
161.2,0.000972,0.03320312,0.02539062,-0.05859375,0.3046875,-3.046875,14.20312,0.02929688,0.03125,-0.046875,0.1933594,0.009765625,0,-0.03222656,-0.001708984,0.07800293,0,0,0.07910156,0.1842041,4.077,0,0,0,0.1500244,nan,2,0.046,1,0,0.1750488,0.1817322,0.1724548,0.2076416,0.0009765625,0,0,1,2
161.21,0.001009,0.005859375,0.009765625,-0.046875,-2.007812,-0.9375,7.3125,0.02734375,0.01367188,-0.05273438,0.1914062,0.009765625,0,-0.03186035,-0.001586914,0.07751465,0,0,0.07910156,0.1842041,4.077,0,0,0,0.1500244,nan,2,0.057,1,0,0.1690369,0.1959534,0.1554565,0.2164001,0.0009765625,0,0,1,2
161.22,0.00101,0.0078125,-0.03710938,-0.05078125,-1.414062,2.476562,13.47656,-0.0234375,-0.01171875,-0.05078125,0.1914062,0.009765625,0,-0.03186035,-0.001464844,0.07702637,0,0,0.07910156,0.1842041,4.077,0,0,0,0.1500244,nan,2,0.067,1,0,0.1772156,0.201355,0.1362,0.2220764,0.0009765625,0,0,1,2
161.23,0.00101,0.02148438,-0.01367188,-0.04296875,-1.132812,-2.304688,8.695312,0,-0.009765625,-0.03515625,0.1914062,0.009765625,0,-0.03186035,-0.001464844,0.07666016,0,0,0.07910156,0.1842041,4.077,0,0,0,0.1500244,nan,2,0.077,1,0,0.1946106,0.1818848,0.1649475,0.1953735,0.001953125,0,0,1,2
161.24,0.00101,-0.00390625,-0.04882812,-0.001953125,-0.96875,5.773438,3.585938,0.001953125,-0.02148438,-0.02148438,0.1894531,0.009765625,0,-0.03173828,-0.001464844,0.07629395,0,0,0.07910156,0.1842041,4.077,0,0,0,0.1500244,nan,2,0.087,1,0,0.2119751,0.1635742,0.1842651,0.177002,0.001953125,0,0,1,2
161.25,0.0009860001,-0.02734375,-0.02148438,-0.03515625,0.9375,-1.132812,13.89844,-0.01171875,-0.01367188,-0.04492188,0.1875,0.009765625,0,-0.03137207,-0.001586914,0.07592773,0,0,0.07910156,0.1842041,4.077,0,0,0,0.1500244,nan,2,0.097,1,0,0.1726379,0.1985168,0.1410828,0.2246094,0.001953125,0,0,1,2
161.26,0.001011,-0.00390625,-0.02148438,-0.05664062,-0.484375,-0.875,8.554688,-0.001953125,-0.0078125,-0.046875,0.1894531,0.009765625,0,-0.03149414,-0.001586914,0.07556152,0,0,0.07910156,0.2263184,4.077,0,0,0,0.2000122,nan,2,0.006,1,0,0.2140808,0.2396851,0.190033,0.2614746,0.001953125,0,0,1,2
161.27,0.00101,-0.01953125,0.06835938,-0.1054688,-3.03125,-4.796875,8.804688,-0.015625,0.0078125,-0.08007812,0.1894531,0.01171875,0,-0.03149414,-0.001831055,0.07495117,0,0,0.07910156,0.2263184,4.077,0,0,0,0.2000122,nan,2,0.016,1,0,0.1838684,0.2656555,0.1550598,0.3006897,0.001953125,0,0,1,2
161.28,0.00101,0.009765625,0.02734375,-0.06054688,-2.601562,7.492188,9.546875,-0.04101562,0.015625,-0.07226562,0.1894531,0.01171875,0,-0.03149414,-0.001953125,0.07409668,0,0,0.07910156,0.2263184,4.077,0,0,0,0.2000122,nan,2,0.026,1,0,0.2312317,0.2194824,0.1950684,0.259491,0.002929688,0,0,1,2
161.29,0.00101,-0.005859375,-0.01953125,-0.02734375,-1.40625,1.5,9.53125,0.009765625,0.01367188,-0.05078125,0.1875,0.009765625,0,-0.03125,-0.001708984,0.07348633,0,0,0.07910156,0.2263184,4.077,0,0,0,0.2000122,nan,2,0.035,1,0,0.2497253,0.2019348,0.2290649,0.2245483,0.002929688,0,0,1,2
161.3,0.001012,0.0625,0.009765625,-0.06835938,2.632812,2.101562,16.9375,0.001953125,0.005859375,-0.0625,0.1875,0.009765625,0,-0.03125,-0.001586914,0.07299805,0,0,0.07910156,0.2263184,4.077,0,0,0,0.2000122,nan,2,0.045,1,0,0.2095947,0.2428894,0.1846619,0.2681274,0.002929688,0,0,1,2
161.31,0.001007,-0.03710938,0.03320312,-0.009765625,-4.84375,-1.6875,16.20312,0.005859375,0.01757812,-0.03125,0.1855469,0.009765625,0,-0.03112793,-0.001464844,0.07250977,0,0,0.07910156,0.2263184,4.077,0,0,0,0.2000122,nan,2,0.056,1,0,0.2598267,0.1877136,0.2409973,0.2167358,0.002929688,0,0,1,2
161.32,0.00102,0.0390625,-0.02539062,0.03710938,1.1875,-1.039062,13.01562,-0.03515625,0,0.01953125,0.1875,0.0078125,0,-0.03137207,-0.001220703,0.0723877,0,0,0.07910156,0.2263184,4.077,0,0,0,0.2000122,nan,2,0.066,1,0,0.3063965,0.1499939,0.2681274,0.1807556,0.002929688,0,0,1,2
161.33,0.000988,-0.08203125,0.009765625,0.04492188,0.515625,5.507812,17,-0.01757812,0.03515625,0.04882812,0.1875,0.005859375,0,-0.03137207,-0.001098633,0.07263184,0,0,0.07910156,0.2263184,4.077,0,0,0,0.2000122,nan,2,0.076,1,0,0.2908936,0.1520691,0.2695312,0.1927795,0.00390625,0,0,1,2
161.34,0.00099,0.05078125,0.06445312,0.03320312,-0.6796875,-7.21875,5.601562,0.06445312,0,0.04296875,0.1875,0.0078125,0,-0.03076172,-0.0008544922,0.07312012,0,0,0.07910156,0,4.077,0,0,0,0,nan,2,0.008,1,0,0.1000061,0.1000061,0.1000061,0.1000061,0,0,0,1,2
161.35,0.001041,-0.1601562,-0.0546875,0.04296875,-0.546875,-1.859375,1.242188,-0.01953125,0.005859375,0.05078125,0.1875,0.0078125,0,-0.03100586,-0.0008544922,0.0736084,0,0,0.07910156,0,4.077,0,0,0,0,nan,2,0.018,1,0,0.1000061,0.1000061,0.1000061,0.1000061,0,0,0,1,2
161.36,0.001,0.04296875,0.07226562,0.07226562,-1.601562,-2.375,6.789062,0.01367188,-0.001953125,0.06054688,0.1875,0.005859375,0,-0.03112793,-0.0009765625,0.07421875,0,0,0.07910156,0.2263184,4.077,0,0,0,0.2000122,nan,2,0.006,1,0,0.2525635,0.1998901,0.2375183,0.215271,0,0,0,1,2
161.37,0.000965,-0.00390625,-0.0390625,-0.009765625,-2.085938,-3.65625,18.10156,-0.02148438,0.005859375,0.01171875,0.1894531,0.005859375,0,-0.03161621,-0.001098633,0.07458496,0,0,0.07910156,0.2263184,4.077,0,0,0,0.2000122,nan,2,0.016,1,0,0.1885681,0.2605286,0.1667175,0.2894287,0,0,0,1,2
161.38,0.00101,-0.0703125,-0.06054688,0.02929688,1.632812,5.039062,14.78125,-0.01171875,-0.001953125,0.03320312,0.1894531,0.00390625,0,-0.03149414,-0.0007324219,0.07495117,0,0,0.07910156,0.2263184,4.077,0,0,0,0.2000122,nan,2,0.026,1,0,0.2521057,0.201355,0.2251892,0.226593,0.0009765625,0,0,1,2
161.391,0.00101,-0.03515625,0.04101562,0.05273438,-0.8515625,-2,10.80469,-0.05664062,-0.005859375,0.046875,0.1875,0.005859375,0,-0.03125,-0.0008544922,0.07531738,0,0,0.07910156,0.2263184,4.077,0,0,0,0.2000122,nan,2,0.036,1,0,0.2677612,0.1878662,0.2302856,0.2193604,0.0009765625,0,0,1,2
161.4,0.00101,-0.1640625,-0.05664062,0.02539062,-1.421875,1.25,18.25,-0.046875,0.01757812,0.03710938,0.1914062,0.005859375,0,-0.03173828,-0.0008544922,0.07568359,0,0,0.07910156,0.2263184,4.077,0,0,0,0.2000122,nan,2,0.045,1,0,0.250946,0.197876,0.2156372,0.2407837,0.0009765625,0,0,1,2
161.41,0.001019,0.01171875,0.08398438,0.07226562,0.7890625,1.375,5.679688,0.001953125,0.02929688,0.05078125,0.1933594,0.005859375,0,-0.03234863,-0.0008544922,0.07617188,0,0,0.07910156,0.2263184,4.077,0,0,0,0.2000122,nan,2,0.056,1,0,0.2664795,0.1771851,0.256134,0.2054443,0.0009765625,0,0,1,2
161.42,0.001007,0.2304688,-0.01757812,0.046875,-2.773438,9.578125,15.10938,0.078125,0.00390625,0.05273438,0.1894531,0.00390625,0,-0.03161621,-0.0007324219,0.07666016,0,0,0.07910156,0.2263184,4.077,0,0,0,0.2000122,nan,2,0.066,1,0,0.2476501,0.2151184,0.2475586,0.1949463,0.0009765625,0,0,1,2
161.43,0.001007,-0.1328125,0.01367188,0.05664062,4.078125,-4.984375,0.7421875,-0.04296875,-0.001953125,0.04882812,0.1894531,0.00390625,0,-0.03173828,-0.0004882812,0.07702637,0,0,0.07910156,0.2263184,4.077,0,0,0,0.2000122,nan,2,0.076,1,0,0.2843628,0.1739502,0.2263489,0.2206421,0.001953125,0,0,1,2
161.44,0.000964,-0.009765625,0.1542969,0.046875,-0.203125,3.8125,10.6875,0.01171875,0.02929688,0.07421875,0.1875,0.00390625,0,-0.03112793,-0.0004882812,0.07775879,0,0,0.07910156,0.2263184,4.077,0,0,0,0.2000122,nan,2,0.086,1,0,0.2535706,0.1764221,0.2416382,0.2336121,0.001953125,0,0,1,2
161.45,0.000952,0.04296875,-0.125,0.1035156,0.3984375,8.359375,17.70312,-0.0078125,-0.05859375,0.1035156,0.1894531,0.005859375,0,-0.03149414,-0.0008544922,0.07873535,0,0,0.07910156,0.2263184,4.077,0,0,0,0.2000122,nan,2,0.096,1,0,0.3054504,0.1761169,0.2486572,0.1750183,0.001953125,0,0,1,2
161.46,0.000955,0.02148438,0.07226562,0.140625,-4.320312,0.890625,13.67188,-0.03320312,0.0546875,0.1308594,0.1992188,0.00390625,0,-0.0333252,-0.0007324219,0.07971191,0,0,0.07910156,0.2263184,4.077,0,0,0,0.2000122,nan,2,0.006,1,0,0.3115234,0.1183777,0.3072815,0.1680603,0.001953125,0,0,1,2
161.47,0.000965,-0.03710938,-0.0859375,0.09179688,2.265625,6.289062,11.6875,-0.001953125,-0.04101562,0.1171875,0.2011719,0.00390625,0,-0.03344727,-0.0004882812,0.08117676,0,0,0.07910156,0.2263184,4.077,0,0,0,0.2000122,nan,2,0.016,1,0,0.2567444,0.2199707,0.202179,0.2263794,0.001953125,0,0,1,2
161.48,0.001007,-0.1035156,0.08007812,0.1503906,2.101562,0.4296875,9.09375,-0.04101562,0.02539062,0.1308594,0.2070312,0.00390625,0,-0.03442383,-0.0006103516,0.08227539,0,0,0.07910156,0.2263184,4.077,0,0,0,0.2000122,nan,2,0.026,1,0,0.3040161,0.1359558,0.2713928,0.1939087,0.002929688,0,0,1,2
161.49,0.001013,-0.02929688,0.04882812,0.08789062,-3.84375,-6.640625,7.28125,0.02148438,-0.009765625,0.1054688,0.2050781,0.00390625,0,-0.03430176,-0.0007324219,0.08349609,0,0,0.07910156,0.2263184,4.077,0,0,0,0.2000122,nan,2,0.035,1,0,0.225708,0.2299194,0.2020874,0.2475586,0.002929688,0,0,1,2
161.5,0.001021,-0.140625,-0.03125,0.04101562,0.8125,4.34375,14.21094,-0.03125,-0.00390625,0.06835938,0.2070312,0,0,-0.0345459,-0.0001220703,0.08435059,0,0,0.07910156,0.2263184,4.077,0,0,0,0.2000122,nan,2,0.045,1,0,0.2346802,0.2160339,0.1827393,0.2717896,0.002929688,0,0,1,2
161.51,0.001009,-0.015625,0.1152344,0.07617188,-0.2578125,5.546875,8.625,-0.0078125,0.02734375,0.08789062,0.2148438,0.00390625,0,-0.0357666,-0.0004882812,0.08520508,0,0,0.07910156,0.2263184,4.077,0,0,0,0.2000122,nan,2,0.056,1,0,0.2605896,0.1747742,0.2430115,0.2268982,0.002929688,0,0,1,2
161.52,0.001011,-0.03710938,-0.005859375,0.09375,2.070312,-1.140625,7.679688,0.00390625,0.02929688,0.1035156,0.2070312,0.001953125,0,-0.03442383,-0.0002441406,0.08618164,0,0,0.07910156,0.2263184,4.077,0,0,0,0.2000122,nan,2,0.066,1,0,0.2765808,0.1646118,0.256073,0.2080078,0.002929688,0,0,1,2
161.53,0.001024,0.046875,-0.1542969,0.08007812,0.296875,-10.83594,3.984375,0.05664062,-0.08984375,0.09960938,0.2109375,0.005859375,0,-0.03527832,-0.0009765625,0.08728027,0,0,0.07910156,0.2263184,4.077,0,0,0,0.2000122,nan,2,0.076,1,0,0.2736816,0.2162781,0.221344,0.1939392,0.00390625,0,0,1,2
161.54,0.000998,0.04492188,-0.015625,0.06445312,-1.132812,8.671875,13.28906,-0.001953125,-0.03125,0.05273438,0.2089844,0.0078125,0,-0.0345459,-0.001342773,0.08789062,0,0,0.07910156,0,4.077,0,0,0,0,nan,2,0,1,0,0.1000061,0.1000061,0.1000061,0.1000061,0,0,0,1,2
161.55,0.001004,0.015625,-0.0859375,0.01757812,1.351562,2.953125,14.82812,-0.01171875,-0.01171875,0.03320312,0.2089844,0.0078125,0,-0.03430176,-0.0009765625,0.08837891,0,0,0.07910156,0,4.077,0,0,0,0,nan,2,0.01,1,0,0.1000061,0.1000061,0.1000061,0.1000061,0,0,0,1,2
161.56,0.001013,-0.05078125,-0.01757812,0.08789062,-1.671875,0.6484375,10.08594,-0.02148438,-0.005859375,0.06054688,0.2089844,0.0078125,0,-0.03405762,-0.0009765625,0.08874512,0,0,0.07910156,0,4.077,0,0,0,0,nan,2,0.02,1,0,0.1000061,0.1000061,0.1000061,0.1000061,0,0,0,1,2
161.57,0.001007,0.04492188,0.05664062,0.078125,-0.09375,12.33594,16.83594,0.03320312,-0.0078125,0.078125,0.203125,0.0078125,0,-0.03381348,-0.001342773,0.08959961,0,0,0.07910156,0.2263184,4.077,0,0,0,0.2000122,nan,2,0.005,1,0,0.2588196,0.1994324,0.2402344,0.2067871,0,0,0,1,2
161.58,0.001055,-0.046875,-0.04882812,0.1191406,-1.8125,0.625,15.64062,-0.04492188,0.01757812,0.08984375,0.1992188,0.005859375,0,-0.0333252,-0.001098633,0.09020996,0,0,0.07910156,0.2263184,4.054,0,0,0,0.2000122,nan,2,0.014,1,0,0.3102112,0.1384277,0.2713013,0.1853027,0,0,0,1,2
161.59,0.001031,-0.0703125,-0.05273438,0.1035156,-1.546875,3.632812,13.95312,0.0390625,-0.01367188,0.09179688,0.1972656,0.005859375,0,-0.03295898,-0.001098633,0.09118652,0,0,0.07910156,0.2263184,4.054,0,0,0,0.2000122,nan,2,0.024,1,0,0.2636414,0.1962891,0.242981,0.2023621,0.0009765625,0,0,1,2
161.6,0.001007,-0.06054688,0.0234375,0.1054688,-1.648438,5.210938,16.5,-0.05859375,-0.01757812,0.09375,0.2011719,0.0078125,0,-0.03356934,-0.001342773,0.09204102,0,0,0.07910156,0.2263184,4.054,0,0,0,0.2000122,nan,2,0.034,1,0,0.2867737,0.1734314,0.2342224,0.2108459,0.0009765625,0,0,1,2
161.61,0.000962,-0.02929688,0.01953125,0.04882812,2.609375,7.414062,10.39062,-0.01171875,0.00390625,0.07226562,0.2070312,0.0078125,0,-0.03430176,-0.001220703,0.09289551,0,0,0.07910156,0.2263184,4.054,0,0,0,0.2000122,nan,2,0.044,1,0,0.236084,0.2153931,0.2103271,0.2434692,0.0009765625,0,0,1,2
161.62,0.00101,0.03320312,0.03515625,0.08789062,-0.4765625,-3.554688,11.85156,0.01171875,0.02734375,0.07617188,0.2011719,0.00390625,0,-0.03344727,-0.0006103516,0.09350586,0,0,0.07910156,0.2263184,4.054,0,0,0,0.2000122,nan,2,0.055,1,0,0.279541,0.1624756,0.2709656,0.1922913,0.0009765625,0,0,1,2
161.63,0.00101,-0.03515625,-0.0546875,0.05273438,1.085938,3.835938,3.523438,-0.046875,-0.0078125,0.07226562,0.203125,0.00390625,0,-0.03369141,-0.0004882812,0.09448242,0,0,0.07910156,0.2263184,4.054,0,0,0,0.2000122,nan,2,0.065,1,0,0.2451172,0.2135925,0.192627,0.2539368,0.0009765625,0,0,1,2
161.64,0.00101,-0.04882812,0.08789062,0.06835938,2.132812,-5,10.35938,-0.0234375,-0.00390625,0.0703125,0.2070312,0.005859375,0,-0.0345459,-0.0009765625,0.09509277,0,0,0.07910156,0.2263184,4.054,0,0,0,0.2000122,nan,2,0.075,1,0,0.2670288,0.1839905,0.2257385,0.2284851,0.001953125,0,0,1,2
161.65,0.00101,0.2109375,-0.001953125,0.07617188,-4.695312,-1.507812,11.42969,0.1015625,-0.005859375,0.07421875,0.2050781,0.009765625,0,-0.03417969,-0.001708984,0.09594727,0,0,0.07910156,0.2263184,4.054,0,0,0,0.2000122,nan,2,0.085,1,0,0.2407532,0.2130737,0.2500305,0.201416,0.001953125,0,0,1,2
161.66,0.00101,0.09765625,0.03320312,0.03125,4.140625,2.171875,9.4375,0.08203125,0.00390625,0.02929688,0.2109375,0.01367188,0,-0.03515625,-0.002319336,0.09643555,0,0,0.07910156,0.2263184,4.054,0,0,0,0.2000122,nan,2,0.095,1,0,0.2043762,0.2374878,0.188385,0.2750549,0.001953125,0,0,1,2
161.67,0.001014,0.00390625,-0.05078125,0.05273438,0.578125,-3.835938,1.703125,0.046875,-0.03515625,0.05078125,0.2011719,0.015625,0,-0.03356934,-0.002685547,0.09680176,0,0,0.07910156,0.2263184,4.054,0,0,0,0.2000122,nan,2,0.008,1,0,0.2845154,0.1801758,0.2475281,0.1930237,0.001953125,0,0,1,2
161.68,0.001014,0.0234375,-0.005859375,0.03515625,-0.25,1.429688,12.23438,-0.00390625,0.01953125,0.03710938,0.2011719,0.01757812,0,-0.03356934,-0.002807617,0.09729004,0,0,0.07910156,0.2263184,4.054,0,0,0,0.2000122,nan,2,0.018,1,0,0.2402649,0.2068787,0.2095032,0.2486267,0.001953125,0,0,1,2
161.69,0.001005,-0.02148438,-0.0625,0.09179688,2.765625,3.335938,12.00781,-0.02539062,0,0.09765625,0.1992188,0.015625,0,-0.03308105,-0.002807617,0.09790039,0,0,0.07910156,0.2263184,4.054,0,0,0,0.2000122,nan,2,0.027,1,0,0.323761,0.1380615,0.2776489,0.1657715,0.001953125,0,0,1,2
161.7,0.001018,-0.02929688,-0.0078125,0.02539062,-2.5625,-9.085938,10.40625,-0.01367188,-0.01171875,0.04101562,0.2050781,0.01757812,0,-0.03430176,-0.002929688,0.09863281,0,0,0.07910156,0.2263184,4.054,0,0,0,0.2000122,nan,2,0.037,1,0,0.2225342,0.2409668,0.1749268,0.2668152,0.002929688,0,0,1,2
161.71,0.001014,0.04296875,0.06835938,0.04492188,-2.039062,2.359375,16.14844,-0.0078125,-0.001953125,0.03710938,0.1972656,0.015625,0,-0.03295898,-0.002563477,0.09887695,0,0,0.07910156,0.2263184,4.054,0,0,0,0.2000122,nan,2,0.047,1,0,0.2626038,0.1903687,0.2375183,0.2147827,0.002929688,0,0,1,2
161.72,0.000994,-0.08007812,0,0.05664062,1.71875,0.21875,4.609375,-0.02929688,-0.015625,0.0390625,0.2070312,0.01757812,0,-0.03442383,-0.003051758,0.09912109,0,0,0.07910156,0.2263184,4.054,0,0,0,0.2000122,nan,2,0.058,1,0,0.2792969,0.1807251,0.2266541,0.2185669,0.002929688,0,0,1,2
161.73,0.001076,0.07226562,-0.00390625,-0.03320312,1.679688,-3.492188,1.828125,0.015625,0.02148438,0.00390625,0.2050781,0.01757812,0,-0.0345459,-0.002563477,0.0994873,0,0,0.07910156,0,4.054,0,0,0,0,nan,2,0.001,1,0,0.1000061,0.1000061,0.1000061,0.1000061,0,0,0,1,2
161.74,0.001005,-0.04882812,0.06054688,-0.03320312,2.039062,1.078125,5.40625,-0.01757812,0.009765625,-0.02929688,0.2050781,0.01757812,0,-0.03601074,-0.003051758,0.09936523,0,0,0.07910156,0,4.054,0,0,0,0,nan,2,0.011,1,0,0.1000061,0.1000061,0.1000061,0.1000061,0,0,0,1,2
161.75,0.000988,-0.1113281,0.00390625,-0.01171875,0.34375,-7.75,9.289062,-0.09375,-0.005859375,-0.02734375,0.2050781,0.01757812,0,-0.03588867,-0.002685547,0.09899902,0,0,0.07910156,0,4.054,0,0,0,0,nan,2,0.021,1,0,0.1000061,0.1000061,0.1000061,0.1000061,0,0,0,1,2
161.76,0.000811,0.06445312,0.02929688,-0.0234375,1.273438,-3.125,2.3125,0.04101562,0.01367188,-0.01757812,0.2167969,0.015625,0,-0.03625488,-0.002685547,0.09887695,0,0,0.07910156,0.2263184,4.054,0,0,0,0.2000122,nan,2,0.002,1,0,0.2189331,0.2287292,0.2077637,0.2498474,0,0,0,1,2
161.77,0.00101,0,-0.1015625,0.046875,-0.375,2.335938,15.375,-0.009765625,0.001953125,0.03320312,0.21875,0.01757812,0,-0.03637695,-0.003051758,0.09887695,0,0,0.07910156,0.2263184,4.054,0,0,0,0.2000122,nan,2,0.012,1,0,0.3009644,0.1574402,0.2733765,0.1734619,0,0,0,1,2
161.78,0.001014,0.04296875,0.04882812,0.03710938,1.570312,-1.085938,12.28906,0.00390625,-0.005859375,0.0234375,0.2148438,0.01757812,0,-0.0357666,-0.002807617,0.09912109,0,0,0.07910156,0.2263184,4.054,0,0,0,0.2000122,nan,2,0.022,1,0,0.2586975,0.1944275,0.2382507,0.2138977,0.0009765625,0,0,1,2
161.79,0.00101,0.06445312,0.046875,0.06445312,-2.148438,-3.40625,11.74219,0.01367188,0.01757812,0.04492188,0.2167969,0.015625,0,-0.03601074,-0.002563477,0.09936523,0,0,0.07910156,0.2263184,4.054,0,0,0,0.2000122,nan,2,0.032,1,0,0.276886,0.1686401,0.2637634,0.1959534,0.0009765625,0,0,1,2
161.8,0.00101,0.01171875,-0.06054688,0.08007812,-1.890625,5.359375,18.44531,0.01367188,0,0.05664062,0.21875,0.015625,0,-0.03637695,-0.002563477,0.09985352,0,0,0.07910156,0.2263184,4.054,0,0,0,0.2000122,nan,2,0.041,1,0,0.2741089,0.1824951,0.2430115,0.205658,0.0009765625,0,0,1,2
161.81,0.001005,0.02734375,-0.02539062,0.08203125,-0.0546875,4.4375,11.46875,0.02148438,-0.03710938,0.05859375,0.2226562,0.01367188,0,-0.03710938,-0.002319336,0.1004639,0,0,0.07910156,0.2263184,4.054,0,0,0,0.2000122,nan,2,0.052,1,0,0.2752991,0.1941528,0.2387085,0.1970825,0.0009765625,0,0,1,2
161.82,0.001012,-0.15625,0.00390625,0.03710938,-0.359375,3.226562,13.57031,-0.0234375,-0.01367188,0.07226562,0.21875,0.01757812,0,-0.03637695,-0.002929688,0.1011963,0,0,0.07910156,0.2263184,4.054,0,0,0,0.2000122,nan,2,0.062,1,0,0.2608948,0.1932983,0.2101746,0.2409058,0.0009765625,0,0,1,2
161.83,0.000964,-0.0703125,0.0390625,0.07421875,1.34375,4.992188,11.52344,-0.01757812,-0.015625,0.07226562,0.2246094,0.02148438,0,-0.03747559,-0.003662109,0.1019287,0,0,0.07910156,0.2263184,4.054,0,0,0,0.2000122,nan,2,0.072,1,0,0.281189,0.1802979,0.2341003,0.2096558,0.001953125,0,0,1,2
161.84,0.001032,0.05078125,-0.0078125,0.03320312,3.789062,-3.539062,3.898438,0,0.01171875,0.046875,0.2226562,0.01757812,0,-0.0369873,-0.003051758,0.1025391,0,0,0.07910156,0.2263184,4.054,0,0,0,0.2000122,nan,2,0.082,1,0,0.2080383,0.2391357,0.1856079,0.2724609,0.001953125,0,0,1,2
161.85,0.001006,0.00390625,0.06445312,-0.001953125,-1.796875,-1.515625,10.28125,-0.0078125,0.01171875,-0.00390625,0.2167969,0.01953125,0,-0.03613281,-0.003295898,0.1026611,0,0,0.07910156,0.2263184,4.054,0,0,0,0.2000122,nan,2,0.001,1,0,0.2051392,0.2422485,0.1878967,0.2699585,0.001953125,0,0,1,2
161.86,0.00101,-0.1171875,-0.04882812,-0.015625,-1.4375,-2.664062,11.25,0.00390625,0.01171875,-0.015625,0.2207031,0.01953125,0,-0.03686523,-0.003173828,0.1026611,0,0,0.07910156,0.2263184,4.054,0,0,0,0.2000122,nan,2,0.011,1,0,0.2095032,0.2436523,0.1821594,0.269928,0.001953125,0,0,1,2
161.87,0.001015,-0.06445312,-0.01757812,-0.03710938,-0.3125,1.617188,15.17969,0.0078125,-0.00390625,-0.009765625,0.2207031,0.01757812,0,-0.03662109,-0.003051758,0.1026611,0,0,0.07910156,0.2263184,4.054,0,0,0,0.2000122,nan,2,0.021,1,0,0.2177124,0.2412109,0.177002,0.2693481,0.002929688,0,0,1,2
161.88,0.00101,0.2109375,0.1484375,0.08398438,-3.4375,8.289062,20.50781,0.078125,0.06054688,0.04296875,0.2265625,0.01757812,0,-0.03771973,-0.002929688,0.1027832,0,0,0.07910156,0.2263184,4.054,0,0,0,0.2000122,nan,2,0.031,1,0,0.2933044,0.1403198,0.3175049,0.1541748,0.002929688,0,0,1,2
161.89,0.00101,0,-0.1777344,0.06445312,0.0625,0.2734375,15.96094,0,0.001953125,0.03515625,0.2207031,0.01367188,0,-0.03686523,-0.002197266,0.1031494,0,0,0.07910156,0.2263184,4.054,0,0,0,0.2000122,nan,2,0.041,1,0,0.2845154,0.1842651,0.2164612,0.2200317,0.002929688,0,0,1,2
161.9,0.001009,0.05859375,0.0078125,0.0234375,-0.1484375,-2.867188,6.78125,0.01757812,0.015625,0.0546875,0.2128906,0.01171875,0,-0.03552246,-0.002075195,0.1035156,0,0,0.07910156,0.2263184,4.054,0,0,0,0.2000122,nan,2,0.05,1,0,0.258728,0.1930237,0.2341919,0.2193298,0.002929688,0,0,1,2
161.91,0.000966,-0.1699219,-0.03125,0.06640625,-1.203125,1.359375,14.39844,-0.04492188,0.009765625,0.06835938,0.21875,0.01171875,0,-0.03637695,-0.001831055,0.104248,0,0,0.07910156,0.2263184,4.054,0,0,0,0.2000122,nan,2,0.061,1,0,0.2790833,0.1722717,0.2282715,0.2256165,0.002929688,0,0,1,2
161.92,0.001012,0.1113281,0.1191406,0.07226562,-1.59375,1.4375,17.32812,0.02539062,-0.0078125,0.06054688,0.2109375,0.01171875,0,-0.03515625,-0.002075195,0.1047363,0,0,0.07910156,0.2263184,4.054,0,0,0,0.2000122,nan,2,0.071,1,0,0.2667236,0.1912231,0.2429199,0.2044373,0.00390625,0,0,1,2
161.93,0.00101,-0.078125,0.001953125,0.05273438,3.804688,-3.296875,11.85938,-0.01367188,-0.0078125,0.0390625,0.2167969,0.01367188,0,-0.03601074,-0.002197266,0.1052246,0,0,0.07910156,0.2263184,4.054,0,0,0,0.2000122,nan,2,0.081,1,0,0.2485657,0.2046509,0.2016602,0.2503662,0.00390625,0,0,1,2
161.94,0.001015,0.21875,0.09179688,-0.0390625,-2.164062,-7.867188,4.679688,0.09375,0.02734375,-0.01367188,0.2109375,0.01367188,0,-0.03515625,-0.002197266,0.1053467,0,0,0.07910156,0.2263184,4.054,0,0,0,0.2000122,nan,2,0.091,1,0,0.1517334,0.2846985,0.1812744,0.2875366,0.00390625,0,0,1,2
161.95,0.00104,0.05273438,-0.0625,0.005859375,-1.085938,-9.265625,7.039062,0.015625,-0.01171875,-0.03710938,0.2050781,0.01171875,0,-0.03442383,-0.002075195,0.1049805,0,0,0.07910156,0,4.054,0,0,0,0,nan,2,0.001,1,0,0.1000061,0.1000061,0.1000061,0.1000061,0,0,0,1,2
161.96,0.001028,0.1992188,0.1542969,-0.0625,0.1328125,-5.40625,12.34375,0.06445312,0.03710938,-0.04296875,0.2050781,0.01171875,0,-0.03369141,-0.001953125,0.1047363,0,0,0.07910156,0,4.054,0,0,0,0,nan,2,0.011,1,0,0.1000061,0.1000061,0.1000061,0.1000061,0,0,0,1,2
161.97,0.000996,0.08398438,0.01367188,0.0390625,-1.945312,-6.71875,9.585938,0.00390625,0.001953125,0.001953125,0.2011719,0.009765625,0,-0.03369141,-0.001831055,0.1043701,0,0,0.07910156,0.2263184,4.054,0,0,0,0.2000122,nan,2,0.005,1,0,0.3158569,0.1462708,0.2789612,0.1642151,0,0,0,1,2
161.98,0.00101,0.0546875,-0.1152344,-0.001953125,1.96875,-2.9375,2.164062,0.009765625,0.001953125,-0.01757812,0.2070312,0.0078125,0,-0.0345459,-0.001342773,0.104248,0,0,0.07910156,0.2263184,4.054,0,0,0,0.2000122,nan,2,0.015,1,0,0.2307434,0.2275391,0.2004089,0.2465515,0,0,0,1,2
161.99,0.000984,0.1132812,0.09179688,-0.01757812,2.453125,-8.992188,1.023438,-0.02539062,0.01367188,-0.02148438,0.2109375,0.0078125,0,-0.03503418,-0.001464844,0.104126,0,0,0.07910156,0.2263184,4.054,0,0,0,0.2000122,nan,2,0.024,1,0,0.2261658,0.2257385,0.204071,0.2492676,0.0009765625,0,0,1,2
162,0.001013,-0.05859375,-0.0546875,0.06640625,0.1953125,-7.953125,2.335938,-0.0234375,-0.001953125,0.02148438,0.2089844,0.005859375,0,-0.03479004,-0.001098633,0.1040039,0,0,0.07910156,0.2263184,4.054,0,0,0,0.2000122,nan,2,0.034,1,0,0.3075867,0.1513672,0.2702942,0.1760254,0.0009765625,0,0,1,2
162.01,0.000997,0.0078125,-0.00390625,-0.01953125,2.359375,0.78125,7.921875,0.00390625,-0.00390625,0,0.2089844,0.005859375,0,-0.03466797,-0.001098633,0.104126,0,0,0.07910156,0.2263184,4.054,0,0,0,0.2000122,nan,2,0.044,1,0,0.2161255,0.2388,0.1979065,0.2524109,0.0009765625,0,0,1,2
162.02,0.001006,-0.140625,0.005859375,-0.01757812,-0.7890625,2.664062,5.65625,-0.03515625,0.03125,-0.02929688,0.2148438,0.0078125,0,-0.03564453,-0.001342773,0.1040039,0,0,0.07910156,0.2263184,4.054,0,0,0,0.2000122,nan,2,0.055,1,0,0.2156067,0.2337341,0.1750793,0.2808533,0.0009765625,0,0,1,2
162.03,0.00101,0.125,-0.03320312,0.05664062,4.28125,-0.0703125,5.109375,0.03515625,-0.01171875,-0.005859375,0.2167969,0.005859375,0,-0.03601074,-0.0009765625,0.1037598,0,0,0.07910156,0.2263184,4.054,0,0,0,0.2000122,nan,2,0.065,1,0,0.2643433,0.1955261,0.2602844,0.1850891,0.001953125,0,0,1,2
162.04,0.001033,-0.03125,-0.07421875,0.0234375,1.257812,-1.328125,3.765625,-0.03125,0.01757812,0.005859375,0.2128906,0.005859375,0,-0.03540039,-0.0009765625,0.1037598,0,0,0.07910156,0.2263184,4.054,0,0,0,0.2000122,nan,2,0.075,1,0,0.2695923,0.1794434,0.2304993,0.2257385,0.001953125,0,0,1,2
162.05,0.000995,-0.1425781,-0.08007812,0.046875,-0.375,-0.671875,4.585938,0.001953125,-0.0234375,0.02734375,0.2207031,0.009765625,0,-0.03686523,-0.001831055,0.1038818,0,0,0.07910156,0.2263184,4.054,0,0,0,0.2000122,nan,2,0.085,1,0,0.3008118,0.1638184,0.2447205,0.1959229,0.001953125,0,0,1,2
162.06,0.00101,-0.00390625,0.03710938,0.04101562,2.796875,-7.296875,8.859375,0.07617188,0.01367188,-0.01757812,0.2207031,0.009765625,0,-0.03686523,-0.001708984,0.1037598,0,0,0.07910156,0.2263184,4.054,0,0,0,0.2000122,nan,2,0.095,1,0,0.2247314,0.2183228,0.2162781,0.2459717,0.001953125,0,0,1,2
162.07,0.00101,0.09765625,0.05859375,0.01953125,1.640625,-1.15625,8.71875,0.01953125,-0.02148438,0.02734375,0.2148438,0.009765625,0,-0.03601074,-0.001708984,0.1040039,0,0,0.07910156,0.2263184,4.054,0,0,0,0.2000122,nan,2,0,1,0,0.2588806,0.2050781,0.2183533,0.2229614,0.001953125,0,0,1,2
162.08,0.001012,-0.01953125,-0.04492188,-0.00390625,-3.28125,8.289062,8.03125,0.078125,0.04101562,-0.01171875,0.2148438,0.01171875,0,-0.03588867,-0.001831055,0.1040039,0,0,0.07910156,0.2263184,4.054,0,0,0,0.2000122,nan,2,0.01,1,0,0.2084961,0.23703,0.1889648,0.2707825,0.001953125,0,0,1,2
162.09,0.001003,0.046875,0.0625,-0.005859375,0.3984375,-2.6875,5.96875,0.05078125,-0.001953125,0.0078125,0.2148438,0.009765625,0,-0.0357666,-0.001586914,0.104126,0,0,0.07910156,0.2263184,4.054,0,0,0,0.2000122,nan,2,0.019,1,0,0.251709,0.207428,0.2164307,0.2296753,0.002929688,0,0,1,2
162.1,0.001014,0.01953125,-0.2304688,0.01367188,-0.8203125,-6.671875,4.554688,-0.0078125,-0.03320312,0.03515625,0.2167969,0.0078125,0,-0.03613281,-0.001342773,0.1043701,0,0,0.07910156,0.2263184,4.054,0,0,0,0.2000122,nan,2,0.029,1,0,0.2921448,0.184021,0.225647,0.2034302,0.002929688,0,0,1,2
162.11,0.001038,0.00390625,0.1230469,0.05273438,1.859375,-9.679688,8.914062,-0.03320312,0.01757812,0.02929688,0.21875,0.0078125,0,-0.03649902,-0.001342773,0.1046143,0,0,0.07910156,0.2263184,4.054,0,0,0,0.2000122,nan,2,0.039,1,0,0.2605591,0.1815796,0.2284241,0.2347107,0.002929688,0,0,1,2
162.12,0.001015,0.06445312,0.05664062,-0.015625,-1.046875,0.8984375,12.625,0.0078125,0.03710938,0,0.2148438,0.005859375,0,-0.0357666,-0.0008544922,0.1048584,0,0,0.07910156,0.2263184,4.054,0,0,0,0.2000122,nan,2,0.05,1,0,0.1903381,0.2561035,0.1735229,0.2853394,0.002929688,0,0,1,2
162.13,0.001024,-0.04492188,0,-0.015625,-3.742188,2.84375,11.91406,-0.02929688,0.02734375,0.01171875,0.21875,0.00390625,0,-0.03637695,-0.0006103516,0.1049805,0,0,0.07910156,0.2263184,4.054,0,0,0,0.2000122,nan,2,0.06,1,0,0.2233887,0.2237549,0.1886597,0.2694702,0.00390625,0,0,1,2
162.14,0.000988,0.02929688,-0.02539062,-0.02539062,0.8359375,-0.03125,16.89844,0.00390625,-0.009765625,-0.03515625,0.21875,0.001953125,0,-0.03649902,-0.0002441406,0.1047363,0,0,0.07910156,0,4.054,0,0,0,0,nan,2,0.003,1,0,0.1000061,0.1000061,0.1000061,0.1000061,0,0,0,1,2
162.15,0.001021,-0.09375,-0.05859375,-0.03320312,-0.953125,4.679688,18.71094,-0.06054688,-0.015625,-0.05273438,0.21875,0.001953125,0,-0.03625488,-0.0004882812,0.104248,0,0,0.07910156,0,4.054,0,0,0,0,nan,2,0.013,1,0,0.1000061,0.1000061,0.1000061,0.1000061,0,0,0,1,2
162.16,0.001027,0.001953125,-0.0390625,-0.06835938,-4.039062,3.820312,15.14844,0.00390625,0.02539062,-0.07226562,0.21875,0.001953125,0,-0.03637695,-0.0003662109,0.1036377,0,0,0.07910156,0,4.054,0,0,0,0,nan,2,0.023,1,0,0.1000061,0.1000061,0.1000061,0.1000061,0,0,0,1,2
162.17,0.001042,-0.03515625,-0.07421875,-0.05078125,0.90625,2.164062,8.40625,0.015625,0.0078125,-0.05273438,0.21875,0.001953125,0,-0.03637695,-0.0003662109,0.1030273,0,0,0.07910156,0.2263184,4.054,0,0,0,0.2000122,nan,2,0,1,0,0.2223816,0.2294617,0.1988525,0.2545776,0,0,0,1,2
162.18,0.001007,0.04101562,0.0390625,0.01953125,-0.7421875,9.085938,21.89062,0.01171875,-0.009765625,-0.01953125,0.2226562,0.00390625,0,-0.0369873,-0.0007324219,0.1025391,0,0,0.07910156,0.2263184,4.054,0,0,0,0.2000122,nan,2,0.011,1,0,0.2827148,0.1720581,0.253479,0.1970215,0,0,0,1,2
162.191,0.001035,-0.046875,-0.03320312,0.02929688,-2.296875,-1.882812,14.77344,-0.05273438,0.001953125,0.0234375,0.2246094,0.00390625,0,-0.03735352,-0.0007324219,0.1026611,0,0,0.07910156,0.2263184,4.054,0,0,0,0.2000122,nan,2,0.021,1,0,0.2986755,0.1478882,0.2546387,0.204071,0,0,0,1,2
162.2,0.001013,-0.07421875,-0.02929688,0.03125,1.554688,4.195312,7.53125,-0.02148438,-0.01757812,0.04101562,0.2324219,0.005859375,0,-0.03869629,-0.0008544922,0.1029053,0,0,0.07910156,0.2263184,4.054,0,0,0,0.2000122,nan,2,0.03,1,0,0.2752686,0.1809387,0.2374878,0.2115479,0.0009765625,0,0,1,2
162.21,0.001007,0.02734375,-0.05078125,0.0390625,-0.9765625,-3.96875,14.9375,-0.01171875,0.0234375,0.046875,0.2324219,0.00390625,0,-0.03869629,-0.0004882812,0.1033936,0,0,0.07910156,0.2263184,4.054,0,0,0,0.2000122,nan,2,0.04,1,0,0.2490234,0.1967163,0.2263489,0.2331848,0.0009765625,0,0,1,2
162.22,0.001012,-0.06640625,0.05664062,0.02734375,-3.40625,-6.75,9.234375,-0.02734375,-0.01367188,0.04101562,0.2265625,0.00390625,0,-0.0378418,-0.0006103516,0.1040039,0,0,0.07910156,0.2263184,4.054,0,0,0,0.2000122,nan,2,0.05,1,0,0.246521,0.2105103,0.2048035,0.2434387,0.0009765625,0,0,1,2
162.23,0.001007,-0.08984375,0.06835938,0.0234375,0.5546875,-0.6640625,7.796875,-0.046875,0.06640625,0.01757812,0.2226562,0.001953125,0,-0.03723145,-0.0002441406,0.104126,0,0,0.07910156,0.2263184,4.048,0,0,0,0.2000122,nan,2,0.061,1,0,0.2257385,0.1998291,0.2095032,0.2702026,0.001953125,0,0,1,2
162.24,0.00101,-0.04882812,0.06054688,0.01953125,-0.2578125,-0.8671875,7.773438,0,-0.001953125,0.02929688,0.2304688,0.00390625,0,-0.03820801,-0.0006103516,0.1044922,0,0,0.07910156,0.2263184,4.048,0,0,0,0.2000122,nan,2,0.071,1,0,0.2489929,0.2055359,0.2254944,0.2252502,0.001953125,0,0,1,2
162.25,0.00101,0.02734375,-0.09570312,0.015625,-0.1875,0.3125,12.30469,0.0078125,-0.03710938,0.03320312,0.2265625,0.00390625,0,-0.03771973,-0.0006103516,0.1048584,0,0,0.07910156,0.2263184,4.048,0,0,0,0.2000122,nan,2,0.081,1,0,0.2367249,0.2319031,0.1864014,0.2502441,0.001953125,0,0,1,2
162.26,0.000991,0.09570312,0.1152344,-0.015625,-2.835938,6.0625,20.625,-0.01757812,0.0234375,0.009765625,0.2304688,0.00390625,0,-0.03845215,-0.0007324219,0.1051025,0,0,0.07910156,0.2263184,4.048,0,0,0,0.2000122,nan,2,0.091,1,0,0.2104797,0.2290039,0.190979,0.2747803,0.001953125,0,0,1,2
162.27,0.000972,-0.06054688,0.02929688,0.06445312,1.445312,4.3125,17.125,0.02734375,-0.009765625,0.03515625,0.234375,0.005859375,0,-0.03918457,-0.0009765625,0.1053467,0,0,0.07910156,0.2263184,4.048,0,0,0,0.2000122,nan,2,0.007,1,0,0.2858582,0.1691589,0.2511902,0.1990662,0.001953125,0,0,1,2
162.28,0.001051,-0.01367188,-0.005859375,0.04882812,-0.7734375,-5.070312,6.882812,0.01757812,0.0390625,0.02929688,0.2265625,0.005859375,0,-0.03796387,-0.0008544922,0.1057129,0,0,0.07910156,0.2263184,4.048,0,0,0,0.2000122,nan,2,0.016,1,0,0.2218933,0.2093811,0.2237244,0.2502136,0.002929688,0,0,1,2
162.29,0.00101,-0.08007812,0.0234375,0.04882812,0.6171875,-3.0625,5.320312,0.04101562,0,0.02539062,0.2246094,0.005859375,0,-0.03747559,-0.0009765625,0.1060791,0,0,0.07910156,0.2263184,4.048,0,0,0,0.2000122,nan,2,0.027,1,0,0.2355652,0.219574,0.2080994,0.2420349,0.002929688,0,0,1,2
162.3,0.00101,0.1503906,0.07617188,0.03515625,-0.1171875,-1.0625,15.96094,0.04296875,0.04296875,0.08007812,0.2207031,0.00390625,0,-0.03686523,-0.0004882812,0.1068115,0,0,0.07910156,0.2263184,4.048,0,0,0,0.2000122,nan,2,0.036,1,0,0.2546387,0.1778564,0.2691956,0.2036133,0.002929688,0,0,1,2
162.31,0.001013,-0.08203125,0.1171875,0.08984375,-2.734375,4.1875,20.77344,-0.03125,0.01367188,0.06640625,0.2265625,0.00390625,0,-0.03759766,-0.0004882812,0.1072998,0,0,0.07910156,0.2263184,4.048,0,0,0,0.2000122,nan,2,0.046,1,0,0.299408,0.1531067,0.2413635,0.2113953,0.002929688,0,0,1,2
162.32,0.00101,-0.171875,-0.02734375,0.07226562,2.007812,-2.625,12.42188,0.04296875,0.0234375,0.05664062,0.2226562,0.001953125,0,-0.03710938,-0.0001220703,0.1079102,0,0,0.07910156,0.2263184,4.048,0,0,0,0.2000122,nan,2,0.057,1,0,0.2362366,0.209259,0.2227478,0.23703,0.00390625,0,0,1,2
162.33,0.001017,-0.0546875,-0.04492188,0.02148438,-2.71875,-8.953125,7.179688,0.0546875,0.01953125,0.04492188,0.2226562,0.001953125,0,-0.03686523,0,0.1086426,0,0,0.07910156,0,4.048,0,0,0,0,nan,2,0.001,1,0,0.1000061,0.1000061,0.1000061,0.1000061,0,0,0,1,2
162.34,0.000968,0,-0.03320312,0.0546875,0.109375,-3.21875,11.04688,-0.005859375,-0.01367188,0.03710938,0.2226562,0.001953125,0,-0.03613281,0.0004882812,0.1091309,0,0,0.07910156,0,4.048,0,0,0,0,nan,2,0.011,1,0,0.1000061,0.1000061,0.1000061,0.1000061,0,0,0,1,2
162.35,0.001025,-0.09570312,0.02929688,-0.0234375,-0.28125,7.921875,14.77344,-0.0703125,0.02539062,-0.009765625,0.2226562,0.001953125,0,-0.03710938,0.0004882812,0.1092529,0,0,0.07910156,0,4.048,0,0,0,0,nan,2,0.021,1,0,0.1000061,0.1000061,0.1000061,0.1000061,0,0,0,1,2
162.36,0.001012,0.02734375,-0.07421875,-0.009765625,-4.203125,-1.195312,13.59375,0.03320312,-0.03320312,0.00390625,0.2226562,0.001953125,0,-0.03686523,0.0004882812,0.1092529,0,0,0.07910156,0,4.048,0,0,0,0,nan,2,0.031,1,0,0.1000061,0.1000061,0.1000061,0.1000061,0,0,0,1,2
162.37,0.001011,0.04101562,-0.1386719,-0.01367188,-0.078125,-0.7265625,-3.640625,0.01171875,-0.03515625,0.01367188,0.2265625,-0.001953125,0,-0.03759766,0.0002441406,0.109375,0,0,0.07910156,0.1842041,4.048,0,0,0,0.1500244,nan,2,0.009,1,0,0.2007751,0.1785278,0.169281,0.1882629,0,0,0,1,2
162.38,0.00101,-0.07226562,-0.00390625,0.02734375,-3.6875,1.65625,11.91406,-0.02148438,0.00390625,0.03125,0.2265625,0,0,-0.0378418,0.0001220703,0.1094971,0,0,0.07910156,0.1842041,4.048,0,0,0,0.1500244,nan,2,0.019,1,0,0.2359924,0.1316528,0.1972656,0.171936,0,0,0,1,2
162.39,0.001002,0,-0.08789062,0.01757812,-1.023438,0.6953125,7.234375,0.009765625,-0.00390625,0.02734375,0.2324219,0,0,-0.03881836,0.0001220703,0.1098633,0,0,0.07910156,0.1842041,4.048,0,0,0,0.1500244,nan,2,0.029,1,0,0.1925659,0.1824036,0.1604919,0.2013855,0.0009765625,0,0,1,2
162.401,0.00101,0.1484375,0.05078125,-0.01757812,-1.289062,-11.83594,4.75,0.05273438,-0.02929688,0.02148438,0.234375,0.001953125,0,-0.0390625,-0.0002441406,0.1102295,0,0,0.07910156,0.1842041,4.048,0,0,0,0.1500244,nan,2,0.039,1,0,0.1663818,0.2085876,0.1562195,0.205658,0.0009765625,0,0,1,2
162.41,0.00101,0.03125,0.02539062,0.0625,2.890625,-8.585938,0.84375,0.02539062,0.015625,0.046875,0.2265625,0.001953125,0,-0.03771973,-0.0001220703,0.1104736,0,0,0.07910156,0.1842041,4.048,0,0,0,0.1500244,nan,2,0.048,1,0,0.2343445,0.126709,0.2188721,0.1569214,0.0009765625,0,0,1,2
162.42,0.001006,0,0.02929688,0.009765625,-1.695312,-1.414062,12.64844,0.00390625,-0.001953125,0.04101562,0.2226562,0.001953125,0,-0.03710938,-0.0001220703,0.111084,0,0,0.07910156,0.1842041,4.048,0,0,0,0.1500244,nan,2,0.059,1,0,0.1906433,0.1806946,0.1561279,0.2093811,0.0009765625,0,0,1,2
162.43,0.001007,-0.05078125,0.01953125,0.07421875,-0.2265625,-2.351562,9.023438,-0.02148438,-0.02539062,0.0390625,0.2226562,0,0,-0.0369873,0.0001220703,0.1113281,0,0,0.07910156,0.1842041,4.048,0,0,0,0.1500244,nan,2,0.069,1,0,0.2359619,0.1441956,0.1817017,0.1749878,0.001953125,0,0,1,2
162.44,0.00101,0.03125,-0.009765625,0.01953125,0.03125,-12.21875,1.851562,0.02539062,-0.001953125,0.03125,0.2265625,0,0,-0.03771973,0,0.1119385,0,0,0.07910156,0.1842041,4.048,0,0,0,0.1500244,nan,2,0.079,1,0,0.1707458,0.1965332,0.1460876,0.2234802,0.001953125,0,0,1,2
162.45,0.001025,-0.01953125,-0.0234375,0.05664062,1.460938,2.734375,4.25,-0.0234375,0.005859375,0.06640625,0.2285156,0,0,-0.03808594,0,0.1124268,0,0,0.07910156,0.1842041,4.048,0,0,0,0.1500244,nan,2,0.089,1,0,0.2410583,0.1263428,0.203949,0.1654968,0.001953125,0,0,1,2
162.46,0.00101,-0.01171875,-0.0078125,0.07421875,-2.132812,4.375,19.35938,-0.03320312,0.005859375,0.04492188,0.2324219,0.001953125,0,-0.03881836,-0.0003662109,0.112915,0,0,0.07910156,0.1842041,4.048,0,0,0,0.1500244,nan,2,0.099,1,0,0.2269897,0.1444397,0.1765442,0.1888428,0.001953125,0,0,1,2
162.47,0.00101,-0.1347656,0.1132812,-0.01367188,-1.78125,7.914062,11.1875,-0.03515625,0.05664062,0.02734375,0.2363281,0.00390625,0,-0.03942871,-0.0004882812,0.1134033,0,0,0.07910156,0.1842041,4.048,0,0,0,0.1500244,nan,2,0.109,1,0,0.1677856,0.1738281,0.1434021,0.2518311,0.002929688,0,0,1,2
162.48,0.00101,0.01953125,-0.06445312,0.05664062,-1.359375,-3.25,7.09375,0.01757812,-0.001953125,0.04296875,0.2382812,0.00390625,0,-0.03979492,-0.0007324219,0.1136475,0,0,0.07910156,0.1842041,4.048,0,0,0,0.1500244,nan,2,0.119,1,0,0.231842,0.1453552,0.1969604,0.1626587,0.002929688,0,0,1,2
162.49,0.00101,-0.01171875,0.01367188,0.00390625,1.445312,-2.21875,1.1875,-0.00390625,-0.01367188,0.015625,0.2382812,0.005859375,0,-0.03991699,-0.0008544922,0.1140137,0,0,0.07910156,0.1842041,4.048,0,0,0,0.1500244,nan,2,0.129,1,0,0.1842957,0.1871948,0.1429749,0.2223816,0.002929688,0,0,1,2
162.5,0.0009860001,0,0.0390625,0.02148438,3.039062,2.625,9.984375,0.00390625,0.0234375,0.03320312,0.2402344,0.005859375,0,-0.04003906,-0.0008544922,0.1141357,0,0,0.07910156,0.1842041,4.048,0,0,0,0.1500244,nan,2,0.138,1,0,0.2161865,0.1452942,0.196106,0.1792603,0.002929688,0,0,1,2
162.51,0.001015,0.1171875,0.015625,0.03515625,0.8984375,-9.929688,10.05469,0.0078125,-0.0078125,0.02539062,0.2363281,0.005859375,0,-0.03930664,-0.0009765625,0.1143799,0,0,0.07910156,0.1421204,4.048,0,0,0,0.09997559,nan,2,0.008,1,0,0.1654663,0.1283264,0.1343994,0.1402283,0.00390625,0,0,1,2
162.52,0.001012,0.01171875,-0.005859375,0.009765625,1.234375,0.5859375,7.414062,-0.04296875,0.04882812,0.0234375,0.2421875,0.00390625,0,-0.04016113,-0.0006103516,0.114624,0,0,0.07910156,0.1421204,4.048,0,0,0,0.09997559,nan,2,0.018,1,0,0.1665649,0.1061707,0.1398315,0.1558533,0.00390625,0,0,1,2
162.53,0.001112,-0.0703125,-0.1132812,0.01757812,-0.765625,-7.46875,7.6875,-0.03320312,-0.046875,0.02148438,0.2441406,0.00390625,0,-0.04077148,-0.0007324219,0.1148682,0,0,0.07910156,0,4.048,0,0,0,0,nan,2,0.001,1,0,0.1000061,0.1000061,0.1000061,0.1000061,0,0,0,1,2
162.54,0.001004,-0.1777344,0.1132812,0.009765625,-1.09375,3.476562,11.50781,-0.06445312,0.04101562,0.02734375,0.2441406,0.00390625,0,-0.04174805,-0.0007324219,0.1151123,0,0,0.07910156,0,4.048,0,0,0,0,nan,2,0.011,1,0,0.1000061,0.1000061,0.1000061,0.1000061,0,0,0,1,2
162.55,0.001034,-0.1191406,0.01367188,0.04101562,-0.1796875,0.3046875,8.40625,-0.04882812,0.001953125,0.03710938,0.2441406,0.00390625,0,-0.04260254,-0.0008544922,0.1153564,0,0,0.07910156,0,4.048,0,0,0,0,nan,2,0.021,1,0,0.1000061,0.1000061,0.1000061,0.1000061,0,0,0,1,2
162.56,0.00101,-0.01757812,-0.009765625,0.05078125,-0.0625,-0.5546875,8.195312,0.001953125,0.02929688,0.05078125,0.2441406,0.00390625,0,-0.04211426,-0.0008544922,0.1158447,0,0,0.07910156,0,4.048,0,0,0,0,nan,2,0.031,1,0,0.1000061,0.1000061,0.1000061,0.1000061,0,0,0,1,2
162.57,0.001009,0.005859375,-0.0078125,0.03320312,3.125,-1.109375,6,-0.01367188,-0.0078125,0.03125,0.2441406,0.00390625,0,-0.04187012,-0.0009765625,0.1162109,0,0,0.07910156,0,4.048,0,0,0,0,nan,2,0.041,1,0,0.1000061,0.1000061,0.1000061,0.1000061,0,0,0,1,2
162.58,0.00101,0.04296875,0.02148438,0,1.070312,1.132812,8.679688,0.005859375,0.01171875,0.0078125,0.2441406,0.00390625,0,-0.04187012,-0.0009765625,0.1164551,0,0,0.07910156,0,4.048,0,0,0,0,nan,2,0.051,1,0,0.1000061,0.1000061,0.1000061,0.1000061,0,0,0,1,2
162.59,0.001012,0.03515625,0.03125,0.02148438,-3.835938,4.15625,10.53125,0.005859375,0.005859375,0.02148438,0.2441406,0.00390625,0,-0.04174805,-0.0009765625,0.1166992,0,0,0.07910156,0,4.048,0,0,0,0,nan,2,0,1,0,0.1000061,0.1000061,0.1000061,0.1000061,0,0,0,1,2
162.601,0.001048,0.06640625,-0.0546875,0,-0.7265625,-1.171875,16.8125,-0.001953125,-0.005859375,0.0078125,0.2441406,0.00390625,0,-0.04187012,-0.0009765625,0.1168213,0,0,0.07910156,0,4.048,0,0,0,0,nan,2,0.01,1,0,0.1000061,0.1000061,0.1000061,0.1000061,0,0,0,1,2
162.61,0.001032,-0.001953125,-0.01367188,-0.00390625,-0.8359375,0,14.35938,0.05664062,-0.01367188,0.00390625,0.2441406,0.00390625,0,-0.04125977,-0.0008544922,0.1168213,0,0,0.07910156,0,4.048,0,0,0,0,nan,2,0.019,1,0,0.1000061,0.1000061,0.1000061,0.1000061,0,0,0,1,2
162.62,0.001007,-0.0234375,-0.1015625,0.01367188,1.84375,-2.023438,10.55469,0.015625,-0.03125,0.015625,0.2441406,0.00390625,0,-0.0411377,-0.0009765625,0.1169434,0,0,0.07910156,0,4.048,0,0,0,0,nan,2,0.029,1,0,0.1000061,0.1000061,0.1000061,0.1000061,0,0,0,1,2
162.63,0.00101,-0.08007812,0.04296875,0.001953125,0.171875,-0.9921875,16.10938,0,0.005859375,0,0.2441406,0.00390625,0,-0.04077148,-0.0008544922,0.1169434,0,0,0.07910156,0,4.048,0,0,0,0,nan,2,0.039,1,0,0.1000061,0.1000061,0.1000061,0.1000061,0,0,0,1,2
162.64,0.00101,-0.04296875,0.05859375,0,0.984375,-4.90625,7.421875,0.009765625,0.00390625,0,0.2441406,0.00390625,0,-0.04064941,-0.0009765625,0.1170654,0,0,0.07910156,0,4.048,0,0,0,0,nan,2,0.049,1,0,0.1000061,0.1000061,0.1000061,0.1000061,0,0,0,1,2
162.65,0.00101,-0.01367188,0.02539062,-0.015625,-0.859375,2.15625,11.92969,-0.00390625,0.00390625,-0.009765625,0.2441406,0.00390625,0,-0.04064941,-0.0007324219,0.1170654,0,0,0.07910156,0,4.048,0,0,0,0,nan,2,0.06,1,0,0.1000061,0.1000061,0.1000061,0.1000061,0,0,0,1,2
162.66,0.00101,0.02539062,0.02734375,0.0078125,-1.9375,-3.898438,8.632812,-0.00390625,-0.01757812,0.005859375,0.2441406,0.00390625,0,-0.04052734,-0.0004882812,0.1170654,0,0,0.07910156,0,4.048,0,0,0,0,nan,2,0.07,1,0,0.1000061,0.1000061,0.1000061,0.1000061,0,0,0,1,2
162.67,0.00101,-0.01367188,-0.06054688,0.01953125,0.171875,6.828125,14.99219,-0.0078125,0.001953125,0.00390625,0.2441406,0.00390625,0,-0.04052734,-0.0001220703,0.1170654,0,0,0.07910156,0,4.048,0,0,0,0,nan,2,0.08,1,0,0.1000061,0.1000061,0.1000061,0.1000061,0,0,0,1,2
162.68,0.00101,0.05273438,-0.00390625,-0.01367188,5.1875,1.117188,8.359375,0.005859375,-0.01171875,0.001953125,0.2441406,0.00390625,0,-0.0402832,-0.0001220703,0.1170654,0,0,0.07910156,0,4.048,0,0,0,0,nan,2,0.09,1,0,0.1000061,0.1000061,0.1000061,0.1000061,0,0,0,1,2
162.69,0.00101,0.005859375,-0.02148438,-0.02148438,-1.40625,-3.523438,8.796875,-0.01171875,-0.01171875,-0.001953125,0.2441406,0.00390625,0,-0.04040527,-0.0001220703,0.1170654,0,0,0.07910156,0,4.048,0,0,0,0,nan,2,0.1,1,0,0.1000061,0.1000061,0.1000061,0.1000061,0,0,0,1,2
162.7,0.00101,-0.04882812,0.05078125,-0.01367188,-1.773438,1.429688,14.78906,-0.015625,0.01367188,-0.015625,0.2441406,0.00390625,0,-0.03991699,0.0002441406,0.1169434,0,0,0.07910156,0,4.048,0,0,0,0,nan,2,0.11,1,0,0.1000061,0.1000061,0.1000061,0.1000061,0,0,0,1,2
162.71,0.001018,-0.04882812,0.0078125,-0.04492188,0.3203125,-5.65625,11.46094,0.00390625,0.005859375,-0.03320312,0.2441406,0.00390625,0,-0.03991699,0,0.1166992,0,0,0.07910156,0,4.048,0,0,0,0,nan,2,0.119,1,0,0.1000061,0.1000061,0.1000061,0.1000061,0,0,0,1,2
162.72,0.001007,-0.02929688,-0.001953125,-0.05273438,-0.84375,-3.710938,12.1875,-0.03710938,0.0078125,-0.02929688,0.2441406,0.00390625,0,-0.0411377,-0.0002441406,0.1164551,0,0,0.07910156,0,4.048,0,0,0,0,nan,2,0.129,1,0,0.1000061,0.1000061,0.1000061,0.1000061,0,0,0,1,2
162.73,0.001018,-0.00390625,0.015625,-0.02539062,-1.085938,1.46875,15.64062,-0.001953125,0.0078125,-0.01757812,0.2441406,0.00390625,0,-0.04223633,-0.0008544922,0.1162109,0,0,0.07910156,0,4.048,0,0,0,0,nan,2,0.006,1,0,0.1000061,0.1000061,0.1000061,0.1000061,0,0,0,1,2
162.74,0.001004,0.001953125,0.01367188,-0.01757812,0.1875,-2.875,10.29688,0.01757812,-0.001953125,-0.02148438,0.2441406,0.00390625,0,-0.04199219,-0.0008544922,0.1159668,0,0,0.07910156,0,4.048,0,0,0,0,nan,2,0.016,1,0,0.1000061,0.1000061,0.1000061,0.1000061,0,0,0,1,2
162.75,0.001004,0.00390625,-0.03125,-0.01757812,-1.664062,-2.632812,5.070312,0.001953125,-0.0078125,-0.01757812,0.2441406,0.00390625,0,-0.04150391,-0.0008544922,0.1158447,0,0,0.07910156,0,4.048,0,0,0,0,nan,2,0.026,1,0,0.1000061,0.1000061,0.1000061,0.1000061,0,0,0,1,2
162.76,0.001004,0.00390625,0.03125,-0.02734375,-0.5625,-5.554688,13.33594,0,-0.009765625,-0.01757812,0.2441406,0.00390625,0,-0.04138184,-0.0009765625,0.1157227,0,0,0.07910156,0,4.048,0,0,0,0,nan,2,0.036,1,0,0.1000061,0.1000061,0.1000061,0.1000061,0,0,0,1,2
162.77,0.000993,-0.046875,-0.01953125,-0.01367188,-1.5625,-4.445312,18.07031,-0.01171875,0.005859375,-0.02148438,0.2441406,0.00390625,0,-0.04089355,-0.0009765625,0.1154785,0,0,0.07910156,0,4.048,0,0,0,0,nan,2,0.046,1,0,0.1000061,0.1000061,0.1000061,0.1000061,0,0,0,1,2
162.78,0.001036,0.04492188,-0.0234375,-0.0234375,-1.734375,1.65625,13.29688,0.00390625,-0.02148438,-0.02148438,0.2441406,0.00390625,0,-0.04064941,-0.001098633,0.1152344,0,0,0.07910156,0,4.048,0,0,0,0,nan,2,0.057,1,0,0.1000061,0.1000061,0.1000061,0.1000061,0,0,0,1,2
162.79,0.000974,-0.04882812,-0.01757812,-0.02539062,0.203125,0.5078125,6.726562,-0.01757812,0.001953125,-0.02734375,0.2441406,0.00390625,0,-0.04064941,-0.0009765625,0.1149902,0,0,0.07910156,0,4.048,0,0,0,0,nan,2,0.003,1,0,0.1000061,0.1000061,0.1000061,0.1000061,0,0,0,1,2
162.8,0.001004,0.01757812,0.01953125,-0.04492188,-1.75,-3.554688,4.007812,0.001953125,0.01757812,-0.03515625,0.2441406,0.00390625,0,-0.04040527,-0.0008544922,0.1147461,0,0,0.07910156,0,4.048,0,0,0,0,nan,2,0.013,1,0,0.1000061,0.1000061,0.1000061,0.1000061,0,0,0,1,2
162.81,0.001015,0.06445312,-0.02734375,-0.05273438,-1.375,0.015625,13.21875,0.01953125,-0.01367188,-0.04296875,0.2441406,0.00390625,0,-0.04016113,-0.0008544922,0.1143799,0,0,0.07910156,0,4.048,0,0,0,0,nan,2,0.022,1,0,0.1000061,0.1000061,0.1000061,0.1000061,0,0,0,1,2
162.82,0.001033,0.0234375,-0.0078125,-0.04492188,2.40625,1.023438,11.42969,0.01757812,0.00390625,-0.04101562,0.2441406,0.00390625,0,-0.03967285,-0.001342773,0.1140137,0,0,0.07910156,0,4.048,0,0,0,0,nan,2,0.032,1,0,0.1000061,0.1000061,0.1000061,0.1000061,0,0,0,1,2
162.83,0.001038,-0.00390625,0.02148438,-0.05273438,1.242188,3.929688,12.19531,-0.015625,0.005859375,-0.04492188,0.2441406,0.00390625,0,-0.03942871,-0.002075195,0.1136475,0,0,0.1136475,0,4.048,0,0,0,0,nan,2,0.042,0,0,0,0,0,0,0,0,0,1,2
162.84,0.001002,0.02148438,0.03125,-0.04101562,0.046875,-2.382812,13.24219,0.02148438,0.01953125,-0.04882812,0.2441406,0.00390625,0,-0.03930664,-0.001953125,0.1130371,0,0,0.1130371,0,4.048,0,0,0,0,nan,2,0.053,0,0,0,0,0,0,0,0,0,1,2
162.85,0.001002,0.03320312,0,-0.08203125,2.492188,1.71875,12.08594,-0.00390625,-0.00390625,-0.07226562,0.2441406,0.00390625,0,-0.03930664,-0.002075195,0.1125488,0,0,0.1125488,0,4.048,0,0,0,0,nan,2,0.063,0,0,0,0,0,0,0,0,0,1,2
162.86,0.000993,-0.0078125,0.01367188,-0.05273438,-1.484375,-1.226562,13.78906,0.009765625,-0.01953125,-0.04882812,0.2441406,0.00390625,0,-0.03930664,-0.002197266,0.1119385,0,0,0.1119385,0,4.048,0,0,0,0,nan,2,0.073,0,0,0,0,0,0,0,0,0,1,2
162.87,0.001003,-0.04492188,0.03710938,-0.05273438,0.28125,-1.84375,12.40625,-0.015625,0.0078125,-0.046875,0.2441406,0.00390625,0,-0.03881836,-0.002563477,0.1114502,0,0,0.1114502,0,4.048,0,0,0,0,nan,2,0.083,0,0,0,0,0,0,0,0,0,1,2
162.88,0.001003,0.01757812,0.03710938,-0.04492188,-1.484375,-0.390625,7.367188,0.00390625,0.0234375,-0.05664062,0.2441406,0.00390625,0,-0.03894043,-0.002319336,0.1109619,0,0,0.1109619,0,4.077,0,0,0,0,nan,2,0.093,0,0,0,0,0,0,0,0,0,1,2
162.89,0.001009,-0.03125,0.04296875,-0.07421875,-0.75,-0.3125,11.35156,0.02539062,0.001953125,-0.0546875,0.2441406,0.00390625,0,-0.03894043,-0.002441406,0.1103516,0,0,0.1103516,0,4.077,0,0,0,0,nan,2,0.103,0,0,0,0,0,0,0,0,0,1,2
162.9,0.00101,0.08789062,0.01171875,-0.02929688,-0.9140625,1.242188,11.96875,0.046875,-0.00390625,-0.03320312,0.2441406,0.00390625,0,-0.03857422,-0.002563477,0.1098633,0,0,0.1098633,0,4.077,0,0,0,0,nan,2,0.113,0,0,0,0,0,0,0,0,0,1,2
162.91,0.001005,-0.06054688,0,-0.0703125,-0.0234375,-2.75,10.48438,0.00390625,0.0078125,-0.0625,0.2441406,0.00390625,0,-0.03845215,-0.002685547,0.109375,0,0,0.109375,0,4.077,0,0,0,0,nan,2,0.123,0,0,0,0,0,0,0,0,0,1,2
162.92,0.001009,0.04296875,0.01953125,-0.0703125,-0.09375,0.8359375,9.007812,0.01171875,-0.00390625,-0.06640625,0.2441406,0.00390625,0,-0.03857422,-0.002929688,0.1088867,0,0,0.1088867,0,4.077,0,0,0,0,nan,2,0.132,0,0,0,0,0,0,0,0,0,1,2
162.93,0.001014,0.04296875,-0.001953125,-0.08007812,0.484375,1.117188,5.171875,0.03515625,0.001953125,-0.07421875,0.2441406,0.00390625,0,-0.03833008,-0.002929688,0.1081543,0,0,0.1081543,0,4.077,0,0,0,0,nan,2,0.142,0,0,0,0,0,0,0,0,0,1,2
162.94,0.001036,0.02929688,0.01367188,-0.07421875,0.828125,-2.335938,8.796875,-0.00390625,0.01757812,-0.07617188,0.2441406,0.00390625,0,-0.03833008,-0.003173828,0.1074219,0,0,0.1074219,0,4.077,0,0,0,0,nan,2,0.153,0,0,0,0,0,0,0,0,0,1,2
162.95,0.001003,0,0.01757812,-0.0703125,-0.421875,-0.75,12.1875,0.01367188,0.01171875,-0.07226562,0.2441406,0.00390625,0,-0.03833008,-0.003051758,0.1066895,0,0,0.1066895,0,4.077,0,0,0,0,nan,2,0.007,0,0,0,0,0,0,0,0,0,1,2
162.96,0.001009,-0.04101562,-0.02148438,-0.08007812,2.820312,1.460938,4.242188,-0.00390625,0.001953125,-0.07226562,0.2441406,0.00390625,0,-0.03796387,-0.003173828,0.105957,0,0,0.105957,0,4.077,0,0,0,0,nan,2,0.017,0,0,0,0,0,0,0,0,0,1,2
162.97,0.00101,0.05664062,0.0078125,-0.0390625,1.179688,0.4609375,7.546875,0.009765625,-0.009765625,-0.05078125,0.2441406,0.00390625,0,-0.03796387,-0.003051758,0.1052246,0,0,0.1052246,0,4.077,0,0,0,0,nan,2,0.027,0,0,0,0,0,0,0,0,0,1,2
162.98,0.001021,-0.03320312,-0.02148438,-0.0625,0.640625,-3.632812,7.953125,-0.005859375,-0.0078125,-0.05859375,0.2441406,0.00390625,0,-0.03735352,-0.003173828,0.1047363,0,0,0.1047363,0,4.077,0,0,0,0,nan,2,0.037,0,0,0,0,0,0,0,0,0,1,2
162.99,0.000994,0.02929688,0.07421875,-0.05273438,-0.40625,-1.359375,10.49219,0,0.009765625,-0.0546875,0.2441406,0.00390625,0,-0.03747559,-0.003173828,0.104126,0,0,0.104126,0,4.077,0,0,0,0,nan,2,0.047,0,0,0,0,0,0,0,0,0,1,2
163,0.001009,0.00390625,0.01953125,-0.04882812,0.28125,1.609375,8.179688,0.0078125,0.01171875,-0.05664062,0.2441406,0.00390625,0,-0.03747559,-0.003051758,0.1033936,0,0,0.1033936,0,4.077,0,0,0,0,nan,2,0.058,0,0,0,0,0,0,0,0,0,1,2
163.01,0.001013,0.01757812,-0.01757812,-0.04882812,0.1171875,0.5703125,10.34375,0.01171875,-0.009765625,-0.05273438,0.2441406,0.00390625,0,-0.03735352,-0.003295898,0.1029053,0,0,0.1029053,0,4.077,0,0,0,0,nan,2,0.068,0,0,0,0,0,0,0,0,0,1,2
163.02,0.001014,-0.06054688,0.0078125,-0.04101562,2.203125,-1.875,6.40625,-0.01953125,0.01367188,-0.05273438,0.2441406,0.00390625,0,-0.03747559,-0.003173828,0.102417,0,0,0.102417,0,4.077,0,0,0,0,nan,2,0.077,0,0,0,0,0,0,0,0,0,1,2
163.03,0.001005,-0.009765625,0.04882812,-0.01757812,-0.9453125,0.8671875,11.77344,-0.0234375,0.009765625,-0.02734375,0.2441406,0.00390625,0,-0.03747559,-0.003051758,0.1020508,0,0,0.1020508,0,4.077,0,0,0,0,nan,2,0.087,0,0,0,0,0,0,0,0,0,1,2
163.04,0.000998,0.02148438,0.04296875,-0.00390625,-2.742188,4.203125,10.74219,-0.005859375,0.0078125,-0.015625,0.2441406,0.00390625,0,-0.03771973,-0.003051758,0.1018066,0,0,0.1018066,0,4.077,0,0,0,0,nan,2,0.097,0,0,0,0,0,0,0,0,0,1,2
163.05,0.001039,0.04492188,-0.02539062,-0.02148438,2.0625,-0.40625,6.914062,0.005859375,-0.00390625,-0.01953125,0.2441406,0.00390625,0,-0.03796387,-0.003295898,0.1015625,0,0,0.1015625,0,4.077,0,0,0,0,nan,2,0.107,0,0,0,0,0,0,0,0,0,1,2
163.06,0.00105,-0.0078125,0.05273438,-0.01953125,-2.460938,5.734375,10.10938,-0.01367188,0.001953125,-0.01953125,0.2441406,0.00390625,0,-0.03820801,-0.003295898,0.1013184,0,0,0.1013184,0,4.077,0,0,0,0,nan,2,0.117,0,0,0,0,0,0,0,0,0,1,2
163.07,0.001039,0.1113281,0.04101562,0.0078125,1.367188,-0.5546875,7.289062,0.005859375,0.01757812,-0.0078125,0.2441406,0.00390625,0,-0.03869629,-0.003173828,0.1011963,0,0,0.1011963,0,4.077,0,0,0,0,nan,2,0.127,0,0,0,0,0,0,0,0,0,1,2
163.08,0.001022,-0.05078125,-0.01367188,-0.015625,1.445312,-4.15625,9.929688,0.005859375,0.01367188,-0.00390625,0.2441406,0.00390625,0,-0.03845215,-0.003051758,0.1010742,0,0,0.1010742,0,4.077,0,0,0,0,nan,2,0.137,0,0,0,0,0,0,0,0,0,1,2
163.09,0.001009,-0.09179688,-0.03320312,-0.02148438,0.6953125,0.140625,11.78906,-0.00390625,0.005859375,-0.001953125,0.2441406,0.00390625,0,-0.03833008,-0.002929688,0.1010742,0,0,0.1010742,0,4.077,0,0,0,0,nan,2,0.147,0,0,0,0,0,0,0,0,0,1,2
163.1,0.00101,0.0390625,-0.02929688,-0.0234375,0.890625,2.054688,9.921875,-0.00390625,-0.015625,-0.0078125,0.2441406,0.00390625,0,-0.03833008,-0.003051758,0.1009521,0,0,0.1009521,0,4.077,0,0,0,0,nan,2,0.158,0,0,0,0,0,0,0,0,0,1,2
163.11,0.001013,0.04296875,0.001953125,0.01367188,0.703125,0.0546875,12.0625,0.009765625,0.01171875,0.005859375,0.2441406,0.00390625,0,-0.03820801,-0.003051758,0.1009521,0,0,0.1009521,0,4.077,0,0,0,0,nan,2,0.168,0,0,0,0,0,0,0,0,0,1,2
163.121,0.001009,0.04101562,-0.005859375,0,-0.2578125,0.7109375,9.070312,-0.00390625,-0.001953125,-0.001953125,0.2441406,0.00390625,0,-0.03820801,-0.003051758,0.1009521,0,0,0.1009521,0,4.077,0,0,0,0,nan,2,0.178,0,0,0,0,0,0,0,0,0,1,2
163.13,0.001008,0.009765625,0.0390625,-0.02929688,0.40625,0.1875,8.210938,0.00390625,0.001953125,-0.01367188,0.2441406,0.00390625,0,-0.03833008,-0.002929688,0.1009521,0,0,0.1009521,0,4.077,0,0,0,0,nan,2,0.187,0,0,0,0,0,0,0,0,0,1,2
163.14,0.001047,0.01953125,0.00390625,-0.01171875,-0.84375,0.3203125,9.75,-0.005859375,-0.01171875,-0.00390625,0.2441406,0.00390625,0,-0.03820801,-0.002929688,0.1008301,0,0,0.1008301,0,4.077,0,0,0,0,nan,2,0.197,0,0,0,0,0,0,0,0,0,1,2
163.15,0.00101,0.009765625,0.04101562,0.005859375,1.039062,-0.7109375,9.742188,0,0.001953125,-0.005859375,0.2441406,0.00390625,0,-0.03796387,-0.002685547,0.1008301,0,0,0.1008301,0,4.077,0,0,0,0,nan,2,0.207,0,0,0,0,0,0,0,0,0,1,2
163.16,0.001004,0.05664062,0.04492188,0.01367188,-0.703125,-0.2578125,10.33594,-0.02148438,0.01171875,0.02148438,0.2441406,0.00390625,0,-0.03796387,-0.002807617,0.1009521,0,0,0.1009521,0,4.077,0,0,0,0,nan,2,0.217,0,0,0,0,0,0,0,0,0,1,2
163.17,0.00101,0.01757812,0.02929688,-0.02148438,-0.703125,-1.601562,9.460938,0.001953125,0.001953125,-0.001953125,0.2441406,0.00390625,0,-0.03771973,-0.002929688,0.1010742,0,0,0.1010742,0,4.077,0,0,0,0,nan,2,0.004,0,0,0,0,0,0,0,0,0,1,2
163.18,0.00101,-0.06054688,-0.04882812,0.02148438,0.4609375,-0.8125,8.804688,-0.01367188,-0.01757812,0.001953125,0.2441406,0.00390625,0,-0.03759766,-0.002929688,0.1009521,0,0,0.1009521,0,4.077,0,0,0,0,nan,2,0.014,0,0,0,0,0,0,0,0,0,1,2
163.19,0.00101,0.07421875,-0.02929688,0.05078125,0.7109375,0.3984375,10.67188,0.009765625,0,0.015625,0.2441406,0.00390625,0,-0.03747559,-0.002685547,0.1009521,0,0,0.1009521,0,4.077,0,0,0,0,nan,2,0.024,0,0,0,0,0,0,0,0,0,1,2
163.2,0.00101,0.01171875,0.046875,-0.02539062,-1,-1.007812,10.82812,0.001953125,0.001953125,-0.009765625,0.2441406,0.00390625,0,-0.03735352,-0.002685547,0.1009521,0,0,0.1009521,0,4.077,0,0,0,0,nan,2,0.034,0,0,0,0,0,0,0,0,0,1,2
163.21,0.00101,0.01953125,-0.03320312,0.0078125,0.5,-0.1953125,9.398438,0.0078125,0,-0.001953125,0.2441406,0.00390625,0,-0.03710938,-0.002563477,0.1009521,0,0,0.1009521,0,4.077,0,0,0,0,nan,2,0.044,0,0,0,0,0,0,0,0,0,1,2
163.22,0.001013,-0.03125,0.03125,0,-0.1171875,-0.65625,10.28906,-0.01367188,-0.001953125,0.0078125,0.2441406,0.00390625,0,-0.0369873,-0.002563477,0.1009521,0,0,0.1009521,0,4.077,0,0,0,0,nan,2,0.054,0,0,0,0,0,0,0,0,0,1,2
163.23,0.001009,0.02929688,0.03320312,0.005859375,-0.59375,-0.734375,11.20312,-0.005859375,0.00390625,-0.009765625,0.2441406,0.00390625,0,-0.0369873,-0.002563477,0.1009521,0,0,0.1009521,0,4.077,0,0,0,0,nan,2,0.064,0,0,0,0,0,0,0,0,0,1,2
163.24,0.00105,0.03515625,0.01953125,0.001953125,-0.2265625,-0.4921875,10.96875,0.001953125,0.00390625,0,0.2441406,0.00390625,0,-0.03686523,-0.002441406,0.1009521,0,0,0.1009521,0,4.077,0,0,0,0,nan,2,0.074,0,0,0,0,0,0,0,0,0,1,2
163.25,0.001009,0.03320312,-0.00390625,-0.01171875,-0.3515625,0.1875,9.734375,0.0078125,0.009765625,0.005859375,0.2441406,0.00390625,0,-0.03686523,-0.002441406,0.1009521,0,0,0.1009521,0,4.077,0,0,0,0,nan,2,0.084,0,0,0,0,0,0,0,0,0,1,2
163.26,0.001009,0.02929688,-0.01367188,-0.009765625,0.21875,-0.796875,9.609375,0.005859375,0.00390625,-0.00390625,0.2441406,0.00390625,0,-0.03674316,-0.002319336,0.1009521,0,0,0.1009521,0,4.077,0,0,0,0,nan,2,0.094,0,0,0,0,0,0,0,0,0,1,2
163.27,0.00101,0.0078125,-0.02734375,-0.01953125,-0.3125,0.0234375,9.523438,-0.00390625,0,-0.001953125,0.2441406,0.00390625,0,-0.03662109,-0.002441406,0.1009521,0,0,0.1009521,0,4.077,0,0,0,0,nan,2,0.104,0,0,0,0,0,0,0,0,0,1,2
163.28,0.00101,0.00390625,0.01367188,-0.009765625,-0.6328125,-0.3671875,10.77344,-0.00390625,0.005859375,0.009765625,0.2441406,0.00390625,0,-0.03649902,-0.002441406,0.1009521,0,0,0.1009521,0,4.077,0,0,0,0,nan,2,0.114,0,0,0,0,0,0,0,0,0,1,2
163.29,0.00101,-0.0234375,0.01367188,0.01171875,-0.0234375,0.1875,9.4375,-0.001953125,0.001953125,0.001953125,0.2441406,0.00390625,0,-0.03637695,-0.002319336,0.1009521,0,0,0.1009521,0,4.077,0,0,0,0,nan,2,0.124,0,0,0,0,0,0,0,0,0,1,2
163.3,0.00101,0.009765625,-0.0078125,0.01953125,0.3125,-0.5390625,9.484375,0.00390625,-0.001953125,0.001953125,0.2441406,0.00390625,0,-0.03613281,-0.002319336,0.1009521,0,0,0.1009521,0,4.077,0,0,0,0,nan,2,0.134,0,0,0,0,0,0,0,0,0,1,2
163.31,0.00101,0.00390625,-0.001953125,0.00390625,0.0703125,-0.3671875,10.23438,0.001953125,-0.001953125,0.00390625,0.2441406,0.00390625,0,-0.03588867,-0.002319336,0.1009521,0,0,0.1009521,0,4.077,0,0,0,0,nan,2,0.144,0,0,0,0,0,0,0,0,0,1,2
163.32,0.001016,0.005859375,0.001953125,-0.02929688,0.0390625,-0.6640625,9.507812,0.001953125,0,-0.005859375,0.2441406,0.00390625,0,-0.03588867,-0.002319336,0.1009521,0,0,0.1009521,0,4.077,0,0,0,0,nan,2,0.153,0,0,0,0,0,0,0,0,0,1,2
163.33,0.001006,-0.01367188,0.001953125,0.01757812,-0.0859375,-0.1640625,9.929688,-0.00390625,-0.001953125,0.009765625,0.2441406,0.00390625,0,-0.0357666,-0.002563477,0.1009521,0,0,0.1009521,0,4.077,0,0,0,0,nan,2,0.164,0,0,0,0,0,0,0,0,0,1,2
163.34,0.00099,-0.005859375,-0.00390625,-0.02734375,-0.1875,0,10.40625,-0.005859375,0,-0.009765625,0.2441406,0.00390625,0,-0.0357666,-0.002319336,0.1009521,0,0,0.1009521,0,4.077,0,0,0,0,nan,2,0.174,0,0,0,0,0,0,0,0,0,1,2
163.35,0.000973,0.009765625,0.00390625,-0.01953125,-0.3828125,-0.4296875,9.539062,0.00390625,0,-0.0078125,0.2441406,0.00390625,0,-0.03552246,-0.002441406,0.1009521,0,0,0.1009521,0,4.077,0,0,0,0,nan,2,0.184,0,0,0,0,0,0,0,0,0,1,2
163.36,0.0009860001,-0.00390625,0.001953125,0,-0.0234375,-0.2421875,9.304688,0.001953125,0,-0.00390625,0.2441406,0.00390625,0,-0.03552246,-0.002319336,0.1009521,0,0,0.1009521,0,4.077,0,0,0,0,nan,2,0.194,0,0,0,0,0,0,0,0,0,1,2
163.37,0.000995,-0.005859375,-0.0078125,0,0.015625,-0.8203125,9.609375,0.00390625,-0.001953125,-0.001953125,0.2441406,0.00390625,0,-0.03527832,-0.002319336,0.1009521,0,0,0.1009521,0,4.077,0,0,0,0,nan,2,0.006,0,0,0,0,0,0,0,0,0,1,2
163.38,0.001003,-0.0078125,0,0.01171875,0.1484375,-0.53125,10.04688,-0.001953125,0,0.005859375,0.2441406,0.00390625,0,-0.03527832,-0.002197266,0.1009521,0,0,0.1009521,0,4.077,0,0,0,0,nan,2,0.016,0,0,0,0,0,0,0,0,0,1,2
163.39,0.001003,0,-0.001953125,0.01953125,0.171875,-0.46875,9.976562,0.00390625,-0.001953125,0.001953125,0.2441406,0.00390625,0,-0.03503418,-0.002197266,0.1009521,0,0,0.1009521,0,4.077,0,0,0,0,nan,2,0.026,0,0,0,0,0,0,0,0,0,1,2
163.4,0.001003,-0.001953125,0.001953125,-0.009765625,-0.1640625,-0.265625,9.921875,0,-0.001953125,-0.009765625,0.2441406,0.00390625,0,-0.03503418,-0.002197266,0.1009521,0,0,0.1009521,0,4.077,0,0,0,0,nan,2,0.036,0,0,0,0,0,0,0,0,0,1,2
163.41,0.001003,0.009765625,-0.001953125,-0.009765625,-0.1875,-0.4140625,9.757812,0.00390625,0,0.001953125,0.2441406,0.00390625,0,-0.03479004,-0.002319336,0.1010742,0,0,0.1010742,0,4.077,0,0,0,0,nan,2,0.046,0,0,0,0,0,0,0,0,0,1,2
163.42,0.001014,-0.005859375,-0.001953125,0.0078125,0.140625,-0.078125,9.773438,-0.00390625,0,0.00390625,0.2441406,0.00390625,0,-0.03491211,-0.002075195,0.1009521,0,0,0.1009521,0,4.077,0,0,0,0,nan,2,0.056,0,0,0,0,0,0,0,0,0,1,2
163.43,0.001015,-0.00390625,-0.001953125,0.0078125,-0.046875,-0.53125,9.921875,0.001953125,-0.001953125,0,0.2441406,0.00390625,0,-0.03466797,-0.002197266,0.1009521,0,0,0.1009521,0,4.077,0,0,0,0,nan,2,0.066,0,0,0,0,0,0,0,0,0,1,2
163.44,0.001015,0.00390625,0,-0.01171875,0.046875,-0.171875,9.835938,-0.001953125,0.001953125,-0.0078125,0.2441406,0.00390625,0,-0.03466797,-0.002075195,0.1009521,0,0,0.1009521,0,4.077,0,0,0,0,nan,2,0.076,0,0,0,0,0,0,0,0,0,1,2
163.45,0.001003,-0.00390625,-0.001953125,0.005859375,0.0546875,-0.484375,9.828125,0,0,0.0078125,0.2441406,0.00390625,0,-0.03442383,-0.002075195,0.1009521,0,0,0.1009521,0,4.077,0,0,0,0,nan,2,0.086,0,0,0,0,0,0,0,0,0,1,2
163.46,0.001003,-0.001953125,0.001953125,-0.00390625,-0.0625,-0.203125,9.796875,0,-0.001953125,-0.0078125,0.2441406,0.00390625,0,-0.03442383,-0.002197266,0.1009521,0,0,0.1009521,0,4.077,0,0,0,0,nan,2,0.096,0,0,0,0,0,0,0,0,0,1,2
163.47,0.001003,0,0.001953125,0.0078125,0.0234375,-0.390625,9.828125,0.001953125,0.001953125,0.0078125,0.2441406,0.00390625,0,-0.03417969,-0.002075195,0.1009521,0,0,0.1009521,0,4.077,0,0,0,0,nan,2,0.106,0,0,0,0,0,0,0,0,0,1,2
163.48,0.001003,-0.00390625,-0.005859375,-0.001953125,-0.015625,-0.203125,9.789062,-0.00390625,-0.00390625,0.001953125,0.2441406,0.00390625,0,-0.03417969,-0.002075195,0.1010742,0,0,0.1010742,0,4.077,0,0,0,0,nan,2,0.116,0,0,0,0,0,0,0,0,0,1,2
163.49,0.001003,0,0.00390625,0,-0.015625,-0.40625,9.804688,0.001953125,0.001953125,-0.00390625,0.2441406,0.00390625,0,-0.03405762,-0.001953125,0.1010742,0,0,0.1010742,0,4.077,0,0,0,0,nan,2,0.126,0,0,0,0,0,0,0,0,0,1,2
163.5,0.001003,-0.001953125,-0.001953125,-0.001953125,0.078125,-0.2734375,9.78125,0,0,0.001953125,0.2441406,0.00390625,0,-0.03405762,-0.001953125,0.1010742,0,0,0.1010742,0,4.077,0,0,0,0,nan,2,0.136,0,0,0,0,0,0,0,0,0,1,2
163.51,0.001003,-0.00390625,0,0,-0.078125,-0.3515625,9.828125,-0.001953125,-0.001953125,0,0.2441406,0.00390625,0,-0.03393555,-0.001953125,0.1010742,0,0,0.1010742,0,4.077,0,0,0,0,nan,2,0.146,0,0,0,0,0,0,0,0,0,1,2
163.52,0.001018,0,0.001953125,0,0.1015625,-0.2734375,9.867188,0,0.001953125,0,0.2441406,0.00390625,0,-0.03393555,-0.001831055,0.1010742,0,0,0.1010742,0,4.077,0,0,0,0,nan,2,0.156,0,0,0,0,0,0,0,0,0,1,2
163.53,0.00102,-0.001953125,0,0.001953125,0.0078125,-0.3359375,9.78125,-0.001953125,0,0.001953125,0.2441406,0.00390625,0,-0.03381348,-0.001953125,0.1010742,0,0,0.1010742,0,4.077,0,0,0,0,nan,2,0.166,0,0,0,0,0,0,0,0,0,1,2
163.54,0.0009860001,-0.001953125,0,0.001953125,0.078125,-0.328125,9.8125,-0.001953125,0.001953125,0.001953125,0.2441406,0.00390625,0,-0.03381348,-0.001831055,0.1010742,0,0,0.1010742,0,4.077,0,0,0,0,nan,2,0.176,0,0,0,0,0,0,0,0,0,1,2
163.55,0.001046,0,0.001953125,-0.001953125,-0.0390625,-0.328125,9.8125,0,0,-0.001953125,0.2441406,0.00390625,0,-0.03381348,-0.001953125,0.1010742,0,0,0.1010742,0,4.077,0,0,0,0,nan,2,0.186,0,0,0,0,0,0,0,0,0,1,2
163.56,0.001003,0.00390625,0.001953125,-0.001953125,0.0390625,-0.2890625,9.796875,0,0,0,0.2441406,0.00390625,0,-0.03369141,-0.001831055,0.1010742,0,0,0.1010742,0,4.077,0,0,0,0,nan,2,0.002,0,0,0,0,0,0,0,0,0,1,2
163.57,0.00101,0,-0.001953125,0,0.03125,-0.328125,9.773438,0,0,-0.001953125,0.2441406,0.00390625,0,-0.03356934,-0.001831055,0.1010742,0,0,0.1010742,0,4.077,0,0,0,0,nan,2,0.012,0,0,0,0,0,0,0,0,0,1,2
163.58,0.001009,0,0.001953125,0,-0.0234375,-0.3203125,9.820312,0,-0.001953125,0,0.2441406,0.00390625,0,-0.03356934,-0.001831055,0.1010742,0,0,0.1010742,0,4.077,0,0,0,0,nan,2,0.022,0,0,0,0,0,0,0,0,0,1,2
163.59,0.001025,-0.001953125,-0.001953125,0,0.0078125,-0.3125,9.796875,0,0,0,0.2441406,0.00390625,0,-0.03344727,-0.001831055,0.1010742,0,0,0.1010742,0,4.077,0,0,0,0,nan,2,0.032,0,0,0,0,0,0,0,0,0,1,2
163.6,0.00101,-0.001953125,0,0.001953125,-0.03125,-0.2890625,9.828125,-0.001953125,0,0,0.2441406,0.00390625,0,-0.03344727,-0.001831055,0.1010742,0,0,0.1010742,0,4.077,0,0,0,0,nan,2,0.042,0,0,0,0,0,0,0,0,0,1,2
163.61,0.001006,0,0.00390625,0,0,-0.3203125,9.789062,0,0.001953125,0,0.2441406,0.00390625,0,-0.0333252,-0.001831055,0.1010742,0,0,0.1010742,0,4.077,0,0,0,0,nan,2,0.053,0,0,0,0,0,0,0,0,0,1,2
163.62,0.001028,-0.001953125,-0.001953125,-0.00390625,0.0078125,-0.3125,9.789062,-0.001953125,0,-0.001953125,0.2441406,0.00390625,0,-0.0333252,-0.001708984,0.1010742,0,0,0.1010742,0,4.077,0,0,0,0,nan,2,0.062,0,0,0,0,0,0,0,0,0,1,2
163.63,0.001019,-0.001953125,0.001953125,0,-0.015625,-0.296875,9.851562,0,0,-0.001953125,0.2441406,0.00390625,0,-0.03320312,-0.001831055,0.1009521,0,0,0.1009521,0,4.077,0,0,0,0,nan,2,0.072,0,0,0,0,0,0,0,0,0,1,2
163.64,0.001011,-0.001953125,0.00390625,0.001953125,0.0078125,-0.296875,9.804688,0,0.001953125,0.001953125,0.2441406,0.00390625,0,-0.03320312,-0.001831055,0.1009521,0,0,0.1009521,0,4.077,0,0,0,0,nan,2,0.082,0,0,0,0,0,0,0,0,0,1,2
163.65,0.00101,0.00390625,0.00390625,0.001953125,-0.0078125,-0.28125,9.84375,0.001953125,0.00390625,0.001953125,0.2441406,0.00390625,0,-0.03308105,-0.001708984,0.1010742,0,0,0.1010742,0,4.077,0,0,0,0,nan,2,0.092,0,0,0,0,0,0,0,0,0,1,2
163.66,0.00101,0,-0.001953125,-0.001953125,-0.015625,-0.296875,9.804688,0,0.001953125,0,0.2441406,0.00390625,0,-0.03308105,-0.001586914,0.1010742,0,0,0.1010742,0,4.077,0,0,0,0,nan,2,0.102,0,0,0,0,0,0,0,0,0,1,2
163.67,0.00101,0,0.001953125,-0.001953125,0.0390625,-0.3203125,9.820312,0,0.001953125,0,0.2441406,0.00390625,0,-0.03295898,-0.001586914,0.1010742,0,0,0.1010742,0,4.077,0,0,0,0,nan,2,0.112,0,0,0,0,0,0,0,0,0,1,2
163.68,0.00101,-0.001953125,0.001953125,0.005859375,0.0703125,-0.328125,9.804688,-0.001953125,0,0.001953125,0.2441406,0.00390625,0,-0.03295898,-0.001586914,0.1010742,0,0,0.1010742,0,4.077,0,0,0,0,nan,2,0.122,0,0,0,0,0,0,0,0,0,1,2
163.691,0.001082,0.001953125,0.001953125,0.001953125,-0.0078125,-0.3359375,9.828125,0,0.001953125,0,0.2441406,0.00390625,0,-0.03295898,-0.001586914,0.1010742,0,0,0.1010742,0,4.077,0,0,0,0,nan,2,0.132,0,0,0,0,0,0,0,0,0,1,2
163.701,0.0012,0,0.001953125,0.00390625,0.0234375,-0.2890625,9.804688,0,0.001953125,0.001953125,0.2441406,0.00390625,0,-0.03295898,-0.001586914,0.1010742,0,0,0.1010742,0,4.077,0,0,0,0,nan,2,0.142,0,128,0,0,0,0,0,0,0,1,2
163.71,0.001049,0,0.001953125,0,0.0234375,-0.3046875,9.867188,0,0,0.001953125,0.2441406,0.00390625,0,-0.03295898,-0.001586914,0.1010742,0,0,0.1010742,0,4.077,0,0,0,0,nan,2,0.152,0,128,0,0,0,0,0,0,0,1,2
163.721,0.001149,-0.001953125,-0.001953125,0,0,-0.28125,9.804688,-0.001953125,-0.001953125,0,0.2441406,0.00390625,0,-0.03295898,-0.001586914,0.1010742,0,0,0.1010742,0,4.077,0,0,0,0,nan,2,0.163,0,128,0,0,0,0,0,0,0,1,2
163.73,0.001317,0,0,0.001953125,0.0078125,-0.3203125,9.835938,0,0,0,0.2441406,0.00390625,0,-0.03283691,-0.001586914,0.1010742,0,0,0.1010742,0,4.077,0,0,0,0,nan,2,0.172,0,128,0,0,0,0,0,0,0,1,2
163.74,0.001148,0,-0.001953125,0.001953125,0.0078125,-0.3203125,9.851562,0,0,0,0.2441406,0.00390625,0,-0.03283691,-0.001586914,0.1010742,0,0,0.1010742,0,4.077,0,0,0,0,nan,2,0.182,0,128,0,0,0,0,0,0,0,1,2
163.795,0.001276,-0.001953125,0,0.001953125,0,-0.3125,9.835938,0,0,0,0.2441406,0.00390625,0,-0.03283691,-0.001586914,0.1010742,0,0,0.1010742,0,4.077,0,0,0,0,nan,2,0.183,0,128,0,0,0,0,0,0,0,1,2
163.8,0.000999,-0.00390625,-0.00390625,0,0.015625,-0.3125,9.875,0,0,0,0.2441406,0.00390625,0,-0.03295898,-0.002441406,0.1011963,0,0,0.1011963,0,4.077,0,0,0,0,nan,2,0.242,0,128,0,0,0,0,0,0,0,1,2
163.81,0.001112,-0.001953125,-0.001953125,-0.001953125,0.03125,-0.3046875,9.828125,0,0,-0.001953125,0.2441406,0.00390625,0,-0.03295898,-0.002319336,0.1010742,0,0,0.1010742,0,4.077,0,0,0,0,nan,2,0.251,0,128,0,0,0,0,0,0,0,1,2
163.82,0.001366,0.00390625,0,0,0.0078125,-0.3046875,9.789062,0,0,0,0.2441406,0.00390625,0,-0.03283691,-0.002319336,0.1010742,0,0,0.1010742,0,4.077,0,0,0,0,nan,2,0.262,0,128,0,0,0,0,0,0,0,1,2
