t,dt_s,gyro_x,gyro_y,gyro_z,acc_x,acc_y,acc_z,rates.x,rates.y,rates.z,ratesTarget.x,ratesTarget.y,ratesTarget.z,attitude.x,attitude.y,attitude.z,attitudeTarget.x,attitudeTarget.y,attitudeTarget.z,thrustTarget,battery_v,rc_roll,rc_pitch,rc_yaw,rc_throttle,rc_mode,flight_mode,rc_age_s,armed,fault_mask,motor_rl,motor_rr,motor_fr,motor_fl,rate_i_x,rate_i_y,rate_i_z,mix_scale,control_source
6051.842,0.001009,0,0,0,-0.0078125,-0.3125,9.757812,0,0,0,0.2617188,-0.00390625,0,-0.02966309,0.002685547,-2.054932,0,0,-2.054932,0,4.077,0,0,0,0,nan,2,0.153,0,0,0,0,0,0,0,0,0,1,2
6051.852,0.00101,0.001953125,0.001953125,0,-0.0078125,-0.28125,9.804688,0,0,0,0.2617188,-0.00390625,0,-0.02966309,0.002685547,-2.054932,0,0,-2.054932,0,4.077,0,0,0,0,nan,2,0.164,0,0,0,0,0,0,0,0,0,1,2
6051.862,0.001009,-0.001953125,-0.001953125,0,-0.078125,-0.3125,9.835938,0,0,-0.001953125,0.2617188,-0.00390625,0,-0.02966309,0.002807617,-2.054932,0,0,-2.054932,0,4.077,0,0,0,0,nan,2,0.174,0,0,0,0,0,0,0,0,0,1,2
6051.872,0.001025,0.001953125,0.001953125,0.001953125,0.0234375,-0.296875,9.78125,0,0,0,0.2617188,-0.00390625,0,-0.02966309,0.002807617,-2.054932,0,0,-2.054932,0,4.077,0,0,0,0,nan,2,0.184,0,0,0,0,0,0,0,0,0,1,2
6051.882,0.001025,0.00390625,0,0,-0.0390625,-0.2890625,9.765625,0.001953125,0,0,0.2617188,-0.00390625,0,-0.02966309,0.002807617,-2.054932,0,0,-2.054932,0,4.077,0,0,0,0,nan,2,0.005,0,0,0,0,0,0,0,0,0,1,2
6051.892,0.000982,0.001953125,0,0.001953125,-0.0078125,-0.296875,9.765625,0.001953125,0,0.001953125,0.2617188,-0.00390625,0,-0.02966309,0.002685547,-2.054932,0,0,-2.054932,0,4.077,0,0,0,0,nan,2,0.015,0,0,0,0,0,0,0,0,0,1,2
6051.903,0.001008,0.001953125,0,-0.001953125,-0.015625,-0.25,9.78125,0.001953125,0,0,0.2617188,-0.00390625,0,-0.02966309,0.002685547,-2.054932,0,0,-2.054932,0,4.077,0,0,0,0,nan,2,0.025,0,0,0,0,0,0,0,0,0,1,2
6051.912,0.001008,0,-0.00390625,0,-0.03125,-0.2734375,9.789062,0,-0.001953125,0,0.2617188,-0.00390625,0,-0.02954102,0.002685547,-2.054932,0,0,-2.054932,0,4.077,0,0,0,0,nan,2,0.034,0,0,0,0,0,0,0,0,0,1,2
6051.922,0.001011,0,0,0.001953125,-0.015625,-0.2890625,9.804688,-0.001953125,-0.001953125,0,0.2617188,-0.00390625,0,-0.02954102,0.002685547,-2.054932,0,0,-2.054932,0,4.077,0,0,0,0,nan,2,0.044,0,0,0,0,0,0,0,0,0,1,2
6051.932,0.00101,-0.001953125,0.001953125,-0.001953125,-0.046875,-0.3046875,9.820312,0,0,-0.001953125,0.2617188,-0.00390625,0,-0.02954102,0.002685547,-2.054932,0,0,-2.054932,0,4.077,0,0,0,0,nan,2,0.055,0,0,0,0,0,0,0,0,0,1,2
6051.942,0.001011,0,-0.001953125,0.00390625,-0.0390625,-0.265625,9.796875,0.001953125,0,0,0.2617188,-0.00390625,0,-0.02954102,0.002685547,-2.054932,0,0,-2.054932,0,4.077,0,0,0,0,nan,2,0.065,0,0,0,0,0,0,0,0,0,1,2
6051.952,0.00101,0,-0.001953125,-0.001953125,-0.0546875,-0.2734375,9.828125,0,-0.001953125,0,0.2617188,-0.00390625,0,-0.02954102,0.002685547,-2.054932,0,0,-2.054932,0,4.077,0,0,0,0,nan,2,0.075,0,0,0,0,0,0,0,0,0,1,2
6051.962,0.001009,0,0.001953125,-0.001953125,-0.0078125,-0.296875,9.773438,0,0,0,0.2617188,-0.00390625,0,-0.02954102,0.002685547,-2.054932,0,0,-2.054932,0,4.077,0,0,0,0,nan,2,0.085,0,0,0,0,0,0,0,0,0,1,2
6051.972,0.00101,0,0,0.001953125,-0.015625,-0.2890625,9.835938,0,0,0,0.2617188,-0.00390625,0,-0.02954102,0.002685547,-2.054932,0,0,-2.054932,0,4.077,0,0,0,0,nan,2,0.095,0,0,0,0,0,0,0,0,0,1,2
6051.982,0.000961,0,-0.001953125,0,-0.015625,-0.296875,9.804688,0,-0.001953125,0,0.2617188,-0.00390625,0,-0.02954102,0.002685547,-2.054932,0,0,-2.054932,0,4.077,0,0,0,0,nan,2,0.105,0,0,0,0,0,0,0,0,0,1,2
6051.992,0.00101,0.001953125,-0.001953125,-0.001953125,-0.0546875,-0.28125,9.796875,0.001953125,-0.001953125,0,0.2617188,-0.00390625,0,-0.02954102,0.002685547,-2.054932,0,0,-2.054932,0,4.077,0,0,0,0,nan,2,0.115,0,0,0,0,0,0,0,0,0,1,2
6052.003,0.001013,0,-0.001953125,-0.005859375,0,-0.28125,9.882812,0,0,-0.001953125,0.2617188,-0.00390625,0,-0.02954102,0.002685547,-2.054932,0,0,-2.054932,0,4.077,0,0,0,0,nan,2,0.125,0,0,0,0,0,0,0,0,0,1,2
6052.012,0.001011,0,0,-0.001953125,-0.0546875,-0.2890625,9.804688,0,0,-0.001953125,0.2617188,-0.00390625,0,-0.02954102,0.002685547,-2.054932,0,0,-2.054932,0,4.077,0,0,0,0,nan,2,0.134,0,0,0,0,0,0,0,0,0,1,2
6052.022,0.00101,-0.001953125,0.001953125,0.00390625,-0.0859375,-0.3046875,9.78125,-0.001953125,0,0,0.2617188,-0.00390625,0,-0.02954102,0.002685547,-2.054932,0,0,-2.054932,0,4.077,0,0,0,0,nan,2,0.144,0,0,0,0,0,0,0,0,0,1,2
6052.032,0.00101,0,-0.001953125,0,-0.0234375,-0.296875,9.835938,-0.001953125,-0.001953125,0,0.2617188,-0.00390625,0,-0.02954102,0.002807617,-2.054932,0,0,-2.054932,0,4.077,0,0,0,0,nan,2,0.155,0,0,0,0,0,0,0,0,0,1,2
6052.042,0.00101,0.001953125,0.001953125,0,-0.0546875,-0.28125,9.820312,0,0,0,0.2617188,-0.00390625,0,-0.02954102,0.002807617,-2.054932,0,0,-2.054932,0,4.077,0,0,0,0,nan,2,0.165,0,0,0,0,0,0,0,0,0,1,2
6052.052,0.00101,0.001953125,0.001953125,0.00390625,-0.0546875,-0.296875,9.84375,0,0,0.001953125,0.2617188,-0.00390625,0,-0.02954102,0.002807617,-2.054932,0,0,-2.054932,0,4.077,0,0,0,0,nan,2,0.175,0,0,0,0,0,0,0,0,0,1,2
6052.062,0.001007,-0.001953125,-0.001953125,0.001953125,-0.0234375,-0.3046875,9.804688,0,-0.001953125,0,0.2617188,-0.00390625,0,-0.02954102,0.002807617,-2.054932,0,0,-2.054932,0,4.077,0,0,0,0,nan,2,0.185,0,0,0,0,0,0,0,0,0,1,2
6052.072,0.001006,0.001953125,-0.001953125,0.001953125,0.015625,-0.3125,9.820312,0,0,0,0.2617188,-0.00390625,0,-0.02954102,0.002807617,-2.054932,0,0,-2.054932,0,4.077,0,0,0,0,nan,2,0.195,0,0,0,0,0,0,0,0,0,1,2
6052.082,0.001032,-0.001953125,0.00390625,0,-0.0546875,-0.2890625,9.78125,0,0,0,0.2617188,-0.00390625,0,-0.02954102,0.002807617,-2.054932,0,0,-2.054932,0,4.077,0,0,0,0,nan,2,0.001,0,0,0,0,0,0,0,0,0,1,2
6052.092,0.00101,0,0.001953125,0.00390625,-0.0390625,-0.296875,9.84375,0,0,0.001953125,0.2617188,-0.00390625,0,-0.02954102,0.002807617,-2.054932,0,0,-2.054932,0,4.077,0,0,0,0,nan,2,0.011,0,0,0,0,0,0,0,0,0,1,2
6052.103,0.000972,0.001953125,0,-0.001953125,-0.0234375,-0.28125,9.78125,0.001953125,0,0,0.2617188,-0.00390625,0,-0.02954102,0.002807617,-2.054932,0,0,-2.054932,0,4.077,0,0,0,0,nan,2,0.021,0,0,0,0,0,0,0,0,0,1,2
6052.113,0.001013,-0.001953125,0,-0.001953125,-0.015625,-0.3203125,9.796875,0,0,-0.001953125,0.2617188,-0.00390625,0,-0.02954102,0.002807617,-2.054932,0,0,-2.054932,0,4.077,0,0,0,0,nan,2,0.031,0,0,0,0,0,0,0,0,0,1,2
6052.122,0.001011,0,0.001953125,0,-0.03125,-0.3125,9.796875,0,0,0,0.2617188,-0.00390625,0,-0.02954102,0.002807617,-2.054932,0,0,-2.054932,0,4.077,0,0,0,0,nan,2,0.04,0,0,0,0,0,0,0,0,0,1,2
6052.132,0.00101,0,-0.005859375,0,-0.0390625,-0.2734375,9.695312,0,-0.001953125,0,0.2617188,-0.00390625,0,-0.02954102,0.002807617,-2.054932,0,0,-2.054932,0,4.077,0,0,0,0,nan,2,0.05,0,0,0,0,0,0,0,0,0,1,2
6052.142,0.001009,0,-0.0078125,0.001953125,-0.046875,-0.2890625,9.835938,0,-0.00390625,0,0.2617188,-0.00390625,0,-0.02954102,0.002807617,-2.054932,0,0,-2.054932,0,4.077,0,0,0,0,nan,2,0.061,0,0,0,0,0,0,0,0,0,1,2
6052.152,0.001012,0,0.001953125,-0.001953125,-0.03125,-0.3203125,9.757812,0,0,0,0.2617188,-0.00390625,0,-0.02954102,0.002807617,-2.05481,0,0,-2.05481,0,4.077,0,0,0,0,nan,2,0.071,0,0,0,0,0,0,0,0,0,1,2
6052.162,0.00101,0,0,0,-0.015625,-0.296875,9.773438,0,0,0,0.2617188,-0.00390625,0,-0.02954102,0.002807617,-2.054932,0,0,-2.054932,0,4.077,0,0,0,0,nan,2,0.081,0,0,0,0,0,0,0,0,0,1,2
6052.172,0.00101,0.00390625,0.001953125,0,-0.03125,-0.28125,9.765625,0,0.001953125,0,0.2617188,-0.00390625,0,-0.02954102,0.002807617,-2.054932,0,0,-2.054932,0,4.077,0,0,0,0,nan,2,0.091,0,0,0,0,0,0,0,0,0,1,2
6052.182,0.00101,0.001953125,-0.001953125,0,-0.0234375,-0.296875,9.8125,0,0,0,0.2617188,-0.00390625,0,-0.02954102,0.002807617,-2.054932,0,0,-2.054932,0,4.077,0,0,0,0,nan,2,0.101,0,0,0,0,0,0,0,0,0,1,2
6052.192,0.00101,0,0,0,-0.0234375,-0.296875,9.789062,-0.001953125,0,0,0.2617188,-0.00390625,0,-0.02954102,0.002807617,-2.054932,0,0,-2.054932,0,4.077,0,0,0,0,nan,2,0.111,0,0,0,0,0,0,0,0,0,1,2
6052.203,0.00101,0,-0.001953125,-0.001953125,-0.03125,-0.3046875,9.84375,0,0,-0.001953125,0.2617188,-0.00390625,0,-0.02954102,0.002807617,-2.054932,0,0,-2.054932,0,4.077,0,0,0,0,nan,2,0.121,0,0,0,0,0,0,0,0,0,1,2
6052.213,0.001009,0,0.001953125,0,0.015625,-0.296875,9.859375,0,0.001953125,-0.001953125,0.2617188,-0.00390625,0,-0.02966309,0.002807617,-2.054932,0,0,-2.054932,0,4.077,0,0,0,0,nan,2,0.131,0,0,0,0,0,0,0,0,0,1,2
6052.222,0.001009,-0.001953125,0.00390625,0,-0.0546875,-0.3046875,9.835938,-0.001953125,0.001953125,0,0.2617188,-0.00390625,0,-0.02966309,0.002807617,-2.054932,0,0,-2.054932,0,4.077,0,0,0,0,nan,2,0.14,0,0,0,0,0,0,0,0,0,1,2
6052.232,0.001011,0,0.00390625,0,0.015625,-0.28125,9.890625,-0.001953125,0,0,0.2617188,-0.00390625,0,-0.02966309,0.002807617,-2.054932,0,0,-2.054932,0,4.077,0,0,0,0,nan,2,0.15,0,0,0,0,0,0,0,0,0,1,2
6052.242,0.001011,0,0,-0.001953125,-0.03125,-0.3125,9.84375,0,-0.001953125,0,0.2617188,-0.00390625,0,-0.02966309,0.002807617,-2.054932,0,0,-2.054932,0,4.077,0,0,0,0,nan,2,0.161,0,0,0,0,0,0,0,0,0,1,2
6052.252,0.00101,-0.001953125,-0.001953125,0.001953125,-0.03125,-0.3203125,9.796875,0,-0.001953125,0,0.2617188,-0.00390625,0,-0.02966309,0.002807617,-2.054932,0,0,-2.054932,0,4.077,0,0,0,0,nan,2,0.171,0,0,0,0,0,0,0,0,0,1,2
6052.262,0.00101,0,0,0.001953125,-0.0625,-0.2578125,9.820312,0,0,0,0.2617188,-0.00390625,0,-0.02966309,0.002807617,-2.054932,0,0,-2.054932,0,4.077,0,0,0,0,nan,2,0.181,0,0,0,0,0,0,0,0,0,1,2
6052.272,0.00101,0,0.001953125,0.001953125,0,-0.3125,9.765625,0,0,0,0.2617188,-0.00390625,0,-0.02966309,0.002807617,-2.054932,0,0,-2.054932,0,4.077,0,0,0,0,nan,2,0.191,0,0,0,0,0,0,0,0,0,1,2
6052.282,0.001016,-0.001953125,0,0,-0.046875,-0.2890625,9.773438,0,0,0.001953125,0.2617188,-0.00390625,0,-0.02966309,0.002807617,-2.054932,0,0,-2.054932,0,4.077,0,0,0,0,nan,2,0.201,0,0,0,0,0,0,0,0,0,1,2
6052.293,0.000992,0.001953125,0.001953125,0,-0.0078125,-0.2890625,9.820312,0.001953125,0,0,0.2617188,-0.00390625,0,-0.02966309,0.002807617,-2.054932,0,0,-2.054932,0,4.077,0,0,0,0,nan,2,0.005,0,0,0,0,0,0,0,0,0,1,2
6052.302,0.001037,0,0,0,-0.0234375,-0.265625,9.804688,0,0.001953125,0,0.2617188,-0.00390625,0,-0.02966309,0.002807617,-2.054932,0,0,-2.054932,0,4.077,0,0,0,0,nan,2,0.014,0,0,0,0,0,0,0,0,0,1,2
6052.312,0.001021,0,0,0,-0.0390625,-0.3125,9.851562,0,0,0,0.2617188,-0.00390625,0,-0.02966309,0.002807617,-2.054932,0,0,-2.054932,0,4.077,0,0,0,0,nan,2,0.024,0,0,0,0,0,0,0,0,0,1,2
6052.322,0.001009,-0.001953125,-0.001953125,0.00390625,-0.0625,-0.2734375,9.796875,-0.001953125,0,0.001953125,0.2617188,-0.00390625,0,-0.02966309,0.002685547,-2.054932,0,0,-2.054932,0,4.077,0,0,0,0,nan,2,0.034,0,0,0,0,0,0,0,0,0,1,2
6052.332,0.00101,0.001953125,-0.001953125,0.001953125,-0.03125,-0.296875,9.796875,0,0,0.001953125,0.2617188,-0.00390625,0,-0.02966309,0.002807617,-2.054932,0,0,-2.054932,0,4.077,0,0,0,0,nan,2,0.044,0,0,0,0,0,0,0,0,0,1,2
6052.342,0.00101,-0.001953125,0.001953125,0.001953125,-0.0390625,-0.296875,9.78125,0,0,0,0.2617188,-0.00390625,0,-0.02966309,0.002685547,-2.054932,0,0,-2.054932,0,4.077,0,0,0,0,nan,2,0.055,0,0,0,0,0,0,0,0,0,1,2
6052.352,0.00101,-0.00390625,-0.001953125,0,-0.046875,-0.2109375,9.796875,0,0,0,0.2617188,-0.00390625,0,-0.02966309,0.002685547,-2.054932,0,0,-2.054932,0,4.077,0,0,0,0,nan,2,0.065,0,0,0,0,0,0,0,0,0,1,2
6052.362,0.00101,0.001953125,0.001953125,0.001953125,0,-0.2265625,9.75,0,0.001953125,0,0.2617188,-0.00390625,0,-0.02966309,0.002685547,-2.054932,0,0,-2.054932,0,4.077,0,0,0,0,nan,2,0.075,0,0,0,0,0,0,0,0,0,1,2
6052.372,0.00101,0,0.001953125,0,-0.046875,-0.28125,9.828125,0,0.001953125,0,0.2617188,-0.00390625,0,-0.02954102,0.002685547,-2.054932,0,0,-2.054932,0,4.077,0,0,0,0,nan,2,0.085,0,0,0,0,0,0,0,0,0,1,2
6052.382,0.00101,0,0,0.00390625,-0.0234375,-0.3203125,9.773438,0,0,0.001953125,0.2617188,-0.00390625,0,-0.02954102,0.002685547,-2.05481,0,0,-2.05481,0,4.077,0,0,0,0,nan,2,0.095,0,0,0,0,0,0,0,0,0,1,2
6052.392,0.000993,0,0.001953125,0,-0.03125,-0.2734375,9.828125,0.001953125,0,0,0.2617188,-0.00390625,0,-0.02954102,0.002685547,-2.05481,0,0,-2.05481,0,4.077,0,0,0,0,nan,2,0.105,0,0,0,0,0,0,0,0,0,1,2
6052.403,0.001006,0,-0.001953125,0,-0.015625,-0.3046875,9.757812,0,0,0,0.2617188,-0.00390625,0,-0.02966309,0.002685547,-2.05481,0,0,-2.05481,0,4.077,0,0,0,0,nan,2,0.115,0,0,0,0,0,0,0,0,0,1,2
6052.413,0.001009,0,0.00390625,0,-0.046875,-0.3046875,9.804688,0,0,-0.001953125,0.2617188,-0.00390625,0,-0.02966309,0.002685547,-2.05481,0,0,-2.05481,0,4.077,0,0,0,0,nan,2,0.125,0,0,0,0,0,0,0,0,0,1,2
6052.422,0.001009,0.001953125,0.001953125,0,-0.015625,-0.2890625,9.78125,0,0,0,0.2617188,-0.00390625,0,-0.02966309,0.002685547,-2.05481,0,0,-2.05481,0,4.077,0,0,0,0,nan,2,0.134,0,0,0,0,0,0,0,0,0,1,2
6052.432,0.00101,0,-0.001953125,0.001953125,-0.0546875,-0.2578125,9.820312,0,-0.001953125,0.001953125,0.2617188,-0.00390625,0,-0.02966309,0.002685547,-2.05481,0,0,-2.05481,0,4.077,0,0,0,0,nan,2,0.144,0,0,0,0,0,0,0,0,0,1,2
6052.442,0.00101,0,0.001953125,0.001953125,-0.0390625,-0.265625,9.789062,0,0.001953125,0.001953125,0.2617188,-0.00390625,0,-0.02966309,0.002685547,-2.05481,0,0,-2.05481,0,4.077,0,0,0,0,nan,2,0.155,0,0,0,0,0,0,0,0,0,1,2
6052.452,0.00101,-0.001953125,0.00390625,-0.001953125,-0.046875,-0.2734375,9.828125,-0.001953125,0.001953125,0,0.2617188,-0.00390625,0,-0.02954102,0.002685547,-2.05481,0,0,-2.05481,0,4.077,0,0,0,0,nan,2,0.165,0,0,0,0,0,0,0,0,0,1,2
6052.462,0.00101,0,0.001953125,-0.00390625,-0.0390625,-0.2421875,9.820312,0,0,-0.001953125,0.2617188,-0.00390625,0,-0.02954102,0.002685547,-2.05481,0,0,-2.05481,0,4.077,0,0,0,0,nan,2,0.175,0,0,0,0,0,0,0,0,0,1,2
6052.472,0.001005,0,0,0,-0.0546875,-0.3046875,9.820312,0,0,0,0.2617188,-0.00390625,0,-0.02954102,0.002807617,-2.05481,0,0,-2.05481,0,4.077,0,0,0,0,nan,2,0.185,0,0,0,0,0,0,0,0,0,1,2
6052.482,0.001003,0,0,0,-0.0546875,-0.3046875,9.867188,0,0,0,0.2617188,-0.00390625,0,-0.02954102,0.002807617,-2.05481,0,0,-2.05481,0,4.077,0,0,0,0,nan,2,0.002,0,0,0,0,0,0,0,0,0,1,2
6052.492,0.001009,0,0,0,-0.015625,-0.296875,9.804688,0,0,0,0.2617188,-0.00390625,0,-0.02954102,0.002807617,-2.05481,0,0,-2.05481,0,4.077,0,0,0,0,nan,2,0.012,0,0,0,0,0,0,0,0,0,1,2
6052.502,0.001005,0,0.001953125,0,-0.03125,-0.2890625,9.84375,0,0.001953125,0,0.2617188,-0.00390625,0,-0.02954102,0.002807617,-2.05481,0,0,-2.05481,0,4.077,0,0,0,0,nan,2,0.021,0,0,0,0,0,0,0,0,0,1,2
6052.512,0.001022,0,0.001953125,0,-0.0078125,-0.2890625,9.796875,-0.001953125,0.001953125,0,0.2617188,-0.00390625,0,-0.02954102,0.002807617,-2.05481,0,0,-2.05481,0,4.077,0,0,0,0,nan,2,0.031,0,0,0,0,0,0,0,0,0,1,2
6052.522,0.00101,-0.00390625,0,0,-0.046875,-0.2734375,9.796875,-0.001953125,-0.001953125,0,0.2617188,-0.00390625,0,-0.02954102,0.002807617,-2.05481,0,0,-2.05481,0,4.077,0,0,0,0,nan,2,0.041,0,0,0,0,0,0,0,0,0,1,2
6052.532,0.00101,0,0.001953125,0,-0.015625,-0.3046875,9.84375,0,0.001953125,-0.001953125,0.2617188,-0.00390625,0,-0.02954102,0.002807617,-2.05481,0,0,-2.05481,0,4.077,0,0,0,0,nan,2,0.051,0,0,0,0,0,0,0,0,0,1,2
6052.542,0.00101,0,0.001953125,-0.00390625,0.0078125,-0.3046875,9.8125,0,0,0,0.2617188,-0.00390625,0,-0.02954102,0.002807617,-2.05481,0,0,-2.05481,0,4.077,0,0,0,0,nan,2,0.062,0,0,0,0,0,0,0,0,0,1,2
6052.552,0.001012,0.001953125,0,0,-0.03125,-0.265625,9.820312,0,0.001953125,-0.001953125,0.2617188,-0.00390625,0,-0.02954102,0.002807617,-2.05481,0,0,-2.05481,0,4.077,0,0,0,0,nan,2,0.072,0,0,0,0,0,0,0,0,0,1,2
6052.562,0.001012,0,0.001953125,0.001953125,0,-0.28125,9.789062,0.001953125,0,0,0.2617188,-0.00390625,0,-0.02954102,0.002807617,-2.05481,0,0,-2.05481,0,4.077,0,0,0,0,nan,2,0.082,0,0,0,0,0,0,0,0,0,1,2
6052.572,0.00101,-0.001953125,0.001953125,0,0,-0.2734375,9.78125,0,0,0,0.2617188,-0.00390625,0,-0.02954102,0.002807617,-2.05481,0,0,-2.05481,0,4.077,0,0,0,0,nan,2,0.092,0,0,0,0,0,0,0,0,0,1,2
6052.582,0.001009,0,0,0,-0.0390625,-0.2734375,9.820312,-0.001953125,0,0,0.2617188,-0.00390625,0,-0.02941895,0.002929688,-2.05481,0,0,-2.05481,0,4.077,0,0,0,0,nan,2,0.102,0,0,0,0,0,0,0,0,0,1,2
6052.592,0.00101,0.001953125,0.001953125,0.001953125,-0.046875,-0.328125,9.796875,0.001953125,0.001953125,0,0.2617188,-0.00390625,0,-0.02954102,0.002929688,-2.05481,0,0,-2.05481,0,4.077,0,0,0,0,nan,2,0.112,0,0,0,0,0,0,0,0,0,1,2
6052.602,0.001009,0.001953125,0.00390625,-0.001953125,-0.0234375,-0.296875,9.828125,0,0.001953125,0,0.2617188,-0.00390625,0,-0.02954102,0.002929688,-2.05481,0,0,-2.05481,0,4.077,0,0,0,0,nan,2,0.122,0,0,0,0,0,0,0,0,0,1,2
6052.613,0.001004,0.001953125,0,0,0,-0.28125,9.757812,0,0,-0.001953125,0.2617188,-0.00390625,0,-0.02954102,0.002929688,-2.05481,0,0,-2.05481,0,4.077,0,0,0,0,nan,2,0.132,0,0,0,0,0,0,0,0,0,1,2
6052.622,0.001012,0.001953125,0,0,-0.015625,-0.296875,9.8125,0,0,0,0.2617188,-0.00390625,0,-0.02954102,0.002929688,-2.05481,0,0,-2.05481,0,4.077,0,0,0,0,nan,2,0.141,0,0,0,0,0,0,0,0,0,1,2
6052.632,0.00101,-0.00390625,0,0,-0.015625,-0.3203125,9.757812,0,0,0,0.2617188,-0.00390625,0,-0.02954102,0.002929688,-2.05481,0,0,-2.05481,0,4.077,0,0,0,0,nan,2,0.151,0,0,0,0,0,0,0,0,0,1,2
6052.642,0.00101,-0.001953125,-0.001953125,0,-0.015625,-0.2421875,9.828125,0,0,0,0.2617188,-0.00390625,0,-0.02954102,0.002929688,-2.05481,0,0,-2.05481,0,4.077,0,0,0,0,nan,2,0.162,0,0,0,0,0,0,0,0,0,1,2
6052.652,0.001013,-0.001953125,0,0.001953125,-0.015625,-0.3046875,9.734375,0.001953125,0,0.001953125,0.2617188,-0.00390625,0,-0.02954102,0.002929688,-2.05481,0,0,-2.05481,0,4.077,0,0,0,0,nan,2,0.172,0,0,0,0,0,0,0,0,0,1,2
6052.662,0.000998,0.001953125,0.001953125,0.001953125,-0.0234375,-0.2890625,9.867188,0,0,0,0.2617188,-0.00390625,0,-0.02954102,0.002929688,-2.05481,0,0,-2.05481,0,4.077,0,0,0,0,nan,2,0.182,0,0,0,0,0,0,0,0,0,1,2
6052.672,0.00101,0,0.001953125,0.001953125,-0.015625,-0.3046875,9.859375,0.001953125,0,0,0.2617188,-0.00390625,0,-0.02941895,0.002929688,-2.05481,0,0,-2.05481,0,4.077,0,0,0,0,nan,2,0.192,0,0,0,0,0,0,0,0,0,1,2
6052.682,0.001011,0.001953125,-0.001953125,0.001953125,-0.0703125,-0.2890625,9.789062,-0.001953125,0,0,0.2617188,-0.00390625,0,-0.02941895,0.002929688,-2.05481,0,0,-2.05481,0,4.077,0,0,0,0,nan,2,0.202,0,0,0,0,0,0,0,0,0,1,2
6052.692,0.000968,0,0.001953125,0.001953125,-0.0234375,-0.28125,9.8125,0,0,0,0.2617188,-0.00390625,0,-0.02941895,0.002929688,-2.05481,0,0,-2.05481,0,4.077,0,0,0,0,nan,2,0.007,0,0,0,0,0,0,0,0,0,1,2
6052.703,0.001034,-0.001953125,0,0.001953125,-0.03125,-0.28125,9.84375,-0.001953125,0,0,0.2617188,-0.00390625,0,-0.02941895,0.002929688,-2.05481,0,0,-2.05481,0,4.077,0,0,0,0,nan,2,0.017,0,0,0,0,0,0,0,0,0,1,2
6052.713,0.000992,0,0.001953125,0,-0.03125,-0.265625,9.804688,0,0,0,0.2617188,-0.00390625,0,-0.02941895,0.002929688,-2.05481,0,0,-2.05481,0,4.077,0,0,0,0,nan,2,0.027,0,0,0,0,0,0,0,0,0,1,2
6052.722,0.001014,0.001953125,0,0,0,-0.2734375,9.84375,0.001953125,0,0,0.2617188,-0.00390625,0,-0.02941895,0.003051758,-2.05481,0,0,-2.05481,0,4.077,0,0,0,0,nan,2,0.036,0,0,0,0,0,0,0,0,0,1,2
6052.732,0.00101,0,0,0,-0.046875,-0.28125,9.84375,0.001953125,0,0,0.2617188,-0.00390625,0,-0.02941895,0.002929688,-2.05481,0,0,-2.05481,0,4.077,0,0,0,0,nan,2,0.046,0,0,0,0,0,0,0,0,0,1,2
6052.742,0.00101,0,0,0.001953125,-0.0625,-0.2890625,9.78125,0,0.001953125,0,0.2617188,-0.00390625,0,-0.02929688,0.002929688,-2.05481,0,0,-2.05481,0,4.077,0,0,0,0,nan,2,0.057,0,0,0,0,0,0,0,0,0,1,2
6052.752,0.00101,0,0,0,-0.0390625,-0.28125,9.835938,0,0,0,0.2617188,-0.00390625,0,-0.02941895,0.002929688,-2.05481,0,0,-2.05481,0,4.077,0,0,0,0,nan,2,0.067,0,0,0,0,0,0,0,0,0,1,2
6052.762,0.00101,0,0,0.001953125,-0.03125,-0.3359375,9.796875,0,0.001953125,0,0.2617188,-0.00390625,0,-0.02941895,0.002929688,-2.05481,0,0,-2.05481,0,4.077,0,0,0,0,nan,2,0.077,0,0,0,0,0,0,0,0,0,1,2
6052.772,0.00101,0,0,0.001953125,-0.015625,-0.28125,9.851562,0,0,0,0.2617188,-0.00390625,0,-0.02941895,0.003051758,-2.05481,0,0,-2.05481,0,4.077,0,0,0,0,nan,2,0.087,0,0,0,0,0,0,0,0,0,1,2
6052.782,0.00101,0.001953125,0.00390625,0.001953125,-0.03125,-0.2890625,9.90625,0,0.001953125,0.001953125,0.2617188,-0.00390625,0,-0.02941895,0.003051758,-2.05481,0,0,-2.05481,0,4.077,0,0,0,0,nan,2,0.097,0,0,0,0,0,0,0,0,0,1,2
6052.792,0.00101,0.001953125,0.001953125,-0.001953125,-0.0234375,-0.296875,9.84375,0.001953125,0.001953125,0,0.2617188,-0.00390625,0,-0.02941895,0.003051758,-2.05481,0,0,-2.05481,0,4.077,0,0,0,0,nan,2,0.107,0,0,0,0,0,0,0,0,0,1,2
6052.802,0.001011,-0.005859375,0.001953125,0.001953125,0.0078125,-0.296875,9.734375,-0.001953125,0.001953125,0,0.2617188,-0.00390625,0,-0.02941895,0.003051758,-2.05481,0,0,-2.05481,0,4.077,0,0,0,0,nan,2,0.117,0,0,0,0,0,0,0,0,0,1,2
6052.813,0.001,0,0.001953125,0.00390625,-0.0234375,-0.3125,9.8125,0,0,0.001953125,0.2617188,-0.00390625,0,-0.02941895,0.003051758,-2.05481,0,0,-2.05481,0,4.077,0,0,0,0,nan,2,0.127,0,0,0,0,0,0,0,0,0,1,2
6052.822,0.001009,0,0.001953125,0,-0.0234375,-0.28125,9.851562,0,0,0,0.2617188,-0.00390625,0,-0.02941895,0.003051758,-2.05481,0,0,-2.05481,0,4.077,0,0,0,0,nan,2,0.136,0,0,0,0,0,0,0,0,0,1,2
6052.832,0.001009,0,0,0.001953125,-0.0703125,-0.25,9.851562,0,0,0.001953125,0.2617188,-0.00390625,0,-0.02941895,0.002929688,-2.05481,0,0,-2.05481,0,4.077,0,0,0,0,nan,2,0.146,0,0,0,0,0,0,0,0,0,1,2
6052.842,0.00101,0,0.00390625,0,-0.0546875,-0.296875,9.851562,0,0.001953125,0.001953125,0.2617188,-0.00390625,0,-0.02929688,0.003051758,-2.05481,0,0,-2.05481,0,4.077,0,0,0,0,nan,2,0.157,0,0,0,0,0,0,0,0,0,1,2
6052.852,0.001009,0,-0.00390625,0,-0.0390625,-0.2734375,9.8125,0,0,0,0.2617188,-0.00390625,0,-0.02929688,0.002929688,-2.05481,0,0,-2.05481,0,4.077,0,0,0,0,nan,2,0.167,0,0,0,0,0,0,0,0,0,1,2
6052.862,0.00101,0,0.001953125,0,-0.0234375,-0.28125,9.796875,-0.001953125,0,0,0.2617188,-0.00390625,0,-0.02929688,0.002929688,-2.05481,0,0,-2.05481,0,4.077,0,0,0,0,nan,2,0.177,0,0,0,0,0,0,0,0,0,1,2
6052.872,0.000993,-0.001953125,-0.00390625,0,-0.0390625,-0.28125,9.867188,-0.001953125,0,0,0.2617188,-0.00390625,0,-0.02929688,0.002929688,-2.05481,0,0,-2.05481,0,4.077,0,0,0,0,nan,2,0.187,0,0,0,0,0,0,0,0,0,1,2
6052.882,0.001002,0,-0.001953125,0,-0.03125,-0.265625,9.765625,0,0,0,0.2617188,-0.00390625,0,-0.02929688,0.002929688,-2.05481,0,0,-2.05481,0,4.077,0,0,0,0,nan,2,0.005,0,0,0,0,0,0,0,0,0,1,2
6052.892,0.001023,-0.001953125,-0.001953125,0,-0.03125,-0.2890625,9.804688,0,0,0,0.2617188,-0.00390625,0,-0.02929688,0.002929688,-2.05481,0,0,-2.05481,0,4.077,0,0,0,0,nan,2,0.015,0,0,0,0,0,0,0,0,0,1,2
6052.903,0.001013,0.001953125,0.001953125,0.00390625,-0.0390625,-0.2578125,9.804688,0,0,0.001953125,0.2617188,-0.00390625,0,-0.02929688,0.002929688,-2.05481,0,0,-2.05481,0,4.077,0,0,0,0,nan,2,0.025,0,0,0,0,0,0,0,0,0,1,2
6052.913,0.001008,0,0,0,0,-0.2734375,9.8125,0,-0.001953125,0,0.2617188,-0.00390625,0,-0.02929688,0.002929688,-2.05481,0,0,-2.05481,0,4.077,0,0,0,0,nan,2,0.035,0,0,0,0,0,0,0,0,0,1,2
6052.922,0.001009,0,-0.00390625,0,-0.03125,-0.2890625,9.773438,0,0,0,0.2617188,-0.00390625,0,-0.02929688,0.002929688,-2.05481,0,0,-2.05481,0,4.077,0,0,0,0,nan,2,0.044,0,0,0,0,0,0,0,0,0,1,2
6052.932,0.001009,-0.00390625,0.00390625,0.001953125,-0.0625,-0.265625,9.851562,-0.001953125,0,0,0.2617188,-0.00390625,0,-0.02929688,0.002929688,-2.05481,0,0,-2.05481,0,4.077,0,0,0,0,nan,2,0.055,0,0,0,0,0,0,0,0,0,1,2
6052.942,0.001007,0.00390625,0,0,-0.015625,-0.28125,9.804688,0.001953125,0,0,0.2617188,-0.00390625,0,-0.02929688,0.002929688,-2.05481,0,0,-2.05481,0,4.077,0,0,0,0,nan,2,0.065,0,0,0,0,0,0,0,0,0,1,2
6052.952,0.001011,-0.00390625,0.001953125,-0.001953125,-0.0546875,-0.2578125,9.796875,-0.001953125,0,0,0.2617188,-0.00390625,0,-0.02929688,0.002929688,-2.05481,0,0,-2.05481,0,4.077,0,0,0,0,nan,2,0.075,0,0,0,0,0,0,0,0,0,1,2
6052.962,0.00101,-0.001953125,0,0.00390625,-0.015625,-0.25,9.8125,-0.001953125,0,0,0.2617188,-0.00390625,0,-0.02929688,0.002929688,-2.05481,0,0,-2.05481,0,4.077,0,0,0,0,nan,2,0.085,0,0,0,0,0,0,0,0,0,1,2
6052.972,0.001011,0.001953125,0,0.001953125,-0.0234375,-0.28125,9.867188,0,-0.001953125,0,0.2617188,-0.00390625,0,-0.02929688,0.002807617,-2.05481,0,0,-2.05481,0,4.077,0,0,0,0,nan,2,0.095,0,0,0,0,0,0,0,0,0,1,2
6052.982,0.00101,0,0,0,-0.0078125,-0.265625,9.828125,0,0,0,0.2617188,-0.00390625,0,-0.02929688,0.002807617,-2.05481,0,0,-2.05481,0,4.077,0,0,0,0,nan,2,0.105,0,0,0,0,0,0,0,0,0,1,2
6052.992,0.001011,-0.00390625,-0.001953125,0,0,-0.3125,9.835938,0,-0.001953125,0,0.2617188,-0.00390625,0,-0.02929688,0.002807617,-2.05481,0,0,-2.05481,0,4.077,0,0,0,0,nan,2,0.115,0,0,0,0,0,0,0,0,0,1,2
6053.002,0.00101,-0.00390625,-0.001953125,0,-0.0078125,-0.2578125,9.71875,0,0,0,0.2617188,-0.00390625,0,-0.02929688,0.002807617,-2.05481,0,0,-2.05481,0,4.077,0,0,0,0,nan,2,0.125,0,0,0,0,0,0,0,0,0,1,2
6053.013,0.001016,-0.00390625,0,-0.001953125,-0.0390625,-0.3359375,9.835938,0,-0.001953125,0,0.2617188,-0.00390625,0,-0.02929688,0.002807617,-2.05481,0,0,-2.05481,0,4.077,0,0,0,0,nan,2,0.135,0,0,0,0,0,0,0,0,0,1,2
6053.022,0.001014,0,0,0,-0.0546875,-0.265625,9.804688,0,0,0,0.2617188,-0.00390625,0,-0.02929688,0.002807617,-2.05481,0,0,-2.05481,0,4.077,0,0,0,0,nan,2,0.144,0,0,0,0,0,0,0,0,0,1,2
6053.032,0.00101,0,0,0.001953125,-0.03125,-0.328125,9.867188,-0.001953125,-0.001953125,0,0.2617188,-0.00390625,0,-0.02929688,0.002807617,-2.05481,0,0,-2.05481,0,4.077,0,0,0,0,nan,2,0.155,0,0,0,0,0,0,0,0,0,1,2
6053.042,0.00101,0.001953125,-0.001953125,0,0,-0.3125,9.851562,0,-0.001953125,0,0.2617188,-0.00390625,0,-0.02929688,0.002807617,-2.05481,0,0,-2.05481,0,4.077,0,0,0,0,nan,2,0.165,0,0,0,0,0,0,0,0,0,1,2
6053.052,0.00101,0,-0.001953125,-0.001953125,-0.0390625,-0.2890625,9.828125,0,-0.001953125,0,0.2617188,-0.00390625,0,-0.02929688,0.002807617,-2.05481,0,0,-2.05481,0,4.077,0,0,0,0,nan,2,0.175,0,0,0,0,0,0,0,0,0,1,2
6053.062,0.001051,0,0,0.001953125,-0.0390625,-0.3046875,9.828125,0.001953125,0,0,0.2617188,-0.00390625,0,-0.02929688,0.002807617,-2.05481,0,0,-2.05481,0,4.077,0,0,0,0,nan,2,0.185,0,0,0,0,0,0,0,0,0,1,2
6053.072,0.00101,0.001953125,0.001953125,0,-0.015625,-0.2890625,9.804688,0,0,-0.001953125,0.2617188,-0.00390625,0,-0.02941895,0.002807617,-2.05481,0,0,-2.05481,0,4.077,0,0,0,0,nan,2,0.195,0,0,0,0,0,0,0,0,0,1,2
6053.082,0.000993,0.001953125,0.001953125,0,-0.078125,-0.265625,9.78125,0,0,0,0.2617188,-0.00390625,0,-0.02941895,0.002807617,-2.05481,0,0,-2.05481,0,4.077,0,0,0,0,nan,2,0.205,0,0,0,0,0,0,0,0,0,1,2
6053.093,0.001039,0,-0.001953125,0,0.015625,-0.3046875,9.828125,0.001953125,-0.001953125,0,0.2617188,-0.00390625,0,-0.02941895,0.002807617,-2.05481,0,0,-2.05481,0,4.077,0,0,0,0,nan,2,0.004,0,0,0,0,0,0,0,0,0,1,2
6053.102,0.001011,0,0,0.001953125,-0.0078125,-0.28125,9.78125,-0.001953125,0,0,0.2617188,-0.00390625,0,-0.02941895,0.002807617,-2.05481,0,0,-2.05481,0,4.077,0,0,0,0,nan,2,0.014,0,0,0,0,0,0,0,0,0,1,2
6053.112,0.001022,-0.001953125,0,-0.001953125,-0.0078125,-0.2890625,9.726562,-0.001953125,0,-0.001953125,0.2617188,-0.00390625,0,-0.02941895,0.002807617,-2.05481,0,0,-2.05481,0,4.077,0,0,0,0,nan,2,0.023,0,0,0,0,0,0,0,0,0,1,2
6053.123,0.001009,0,0.00390625,0.001953125,-0.046875,-0.2734375,9.804688,0,0.001953125,0,0.2617188,-0.00390625,0,-0.02941895,0.002685547,-2.05481,0,0,-2.05481,0,4.077,0,0,0,0,nan,2,0.034,0,0,0,0,0,0,0,0,0,1,2
6053.132,0.001011,0.001953125,0,0.001953125,-0.0390625,-0.28125,9.789062,0,0,0,0.2617188,-0.00390625,0,-0.02941895,0.002685547,-2.05481,0,0,-2.05481,0,4.077,0,0,0,0,nan,2,0.043,0,0,0,0,0,0,0,0,0,1,2
6053.142,0.00101,-0.001953125,0,0.001953125,-0.046875,-0.28125,9.789062,0,0,0,0.2617188,-0.00390625,0,-0.02941895,0.002807617,-2.05481,0,0,-2.05481,0,4.077,0,0,0,0,nan,2,0.054,0,0,0,0,0,0,0,0,0,1,2
6053.152,0.00101,0.0078125,-0.001953125,-0.001953125,-0.0078125,-0.2734375,9.8125,0.001953125,0,0,0.2617188,-0.00390625,0,-0.02941895,0.002807617,-2.05481,0,0,-2.05481,0,4.077,0,0,0,0,nan,2,0.064,0,0,0,0,0,0,0,0,0,1,2
6053.162,0.00101,0.00390625,0,0,-0.046875,-0.296875,9.859375,0.001953125,0,0,0.2617188,-0.00390625,0,-0.02941895,0.002807617,-2.05481,0,0,-2.05481,0,4.077,0,0,0,0,nan,2,0.074,0,0,0,0,0,0,0,0,0,1,2
6053.172,0.00101,-0.001953125,0.001953125,-0.00390625,-0.0078125,-0.2890625,9.757812,-0.001953125,0.001953125,0,0.2617188,-0.00390625,0,-0.02941895,0.002807617,-2.05481,0,0,-2.05481,0,4.077,0,0,0,0,nan,2,0.084,0,0,0,0,0,0,0,0,0,1,2
6053.182,0.00101,0,0.001953125,0.001953125,-0.0546875,-0.3125,9.742188,0.001953125,0,0,0.2617188,-0.00390625,0,-0.02941895,0.002807617,-2.05481,0,0,-2.05481,0,4.077,0,0,0,0,nan,2,0.094,0,0,0,0,0,0,0,0,0,1,2
6053.192,0.001009,0,-0.00390625,0,-0.0546875,-0.25,9.765625,0,-0.001953125,0,0.2617188,-0.00390625,0,-0.02941895,0.002807617,-2.05481,0,0,-2.05481,0,4.077,0,0,0,0,nan,2,0.104,0,0,0,0,0,0,0,0,0,1,2
6053.202,0.001012,0.00390625,0.001953125,0,-0.0234375,-0.3125,9.78125,0.001953125,0,0,0.2617188,-0.00390625,0,-0.02941895,0.002807617,-2.05481,0,0,-2.05481,0,4.077,0,0,0,0,nan,2,0.114,0,0,0,0,0,0,0,0,0,1,2
6053.213,0.001014,-0.001953125,0,-0.001953125,0,-0.265625,9.828125,0,0,-0.001953125,0.2617188,-0.00390625,0,-0.02941895,0.002807617,-2.05481,0,0,-2.05481,0,4.077,0,0,0,0,nan,2,0.124,0,0,0,0,0,0,0,0,0,1,2
6053.223,0.001005,0,0.00390625,-0.001953125,-0.046875,-0.3125,9.78125,0.001953125,0.001953125,0,0.2617188,-0.00390625,0,-0.02941895,0.002807617,-2.05481,0,0,-2.05481,0,4.077,0,0,0,0,nan,2,0.134,0,0,0,0,0,0,0,0,0,1,2
6053.232,0.001007,0.00390625,0.001953125,-0.001953125,0,-0.28125,9.796875,0.001953125,0.001953125,-0.001953125,0.2617188,-0.00390625,0,-0.02941895,0.002807617,-2.05481,0,0,-2.05481,0,4.077,0,0,0,0,nan,2,0.143,0,0,0,0,0,0,0,0,0,1,2
6053.242,0.00101,-0.001953125,-0.00390625,0.00390625,-0.03125,-0.25,9.804688,-0.001953125,-0.001953125,0.001953125,0.2617188,-0.00390625,0,-0.02941895,0.002807617,-2.05481,0,0,-2.05481,0,4.077,0,0,0,0,nan,2,0.154,0,0,0,0,0,0,0,0,0,1,2
6053.252,0.00101,0.001953125,-0.00390625,0,-0.0078125,-0.28125,9.859375,0.001953125,0,0,0.2617188,-0.00390625,0,-0.02941895,0.002807617,-2.05481,0,0,-2.05481,0,4.077,0,0,0,0,nan,2,0.164,0,0,0,0,0,0,0,0,0,1,2
6053.262,0.00101,-0.001953125,0,-0.001953125,0.0078125,-0.2734375,9.773438,-0.001953125,0,-0.001953125,0.2617188,-0.00390625,0,-0.02929688,0.002685547,-2.05481,0,0,-2.05481,0,4.077,0,0,0,0,nan,2,0.174,0,0,0,0,0,0,0,0,0,1,2
6053.272,0.001045,0.001953125,0.005859375,0.001953125,-0.0625,-0.2734375,9.773438,0,0.001953125,0.001953125,0.2617188,-0.00390625,0,-0.02929688,0.002685547,-2.05481,0,0,-2.05481,0,4.077,0,0,0,0,nan,2,0.184,0,0,0,0,0,0,0,0,0,1,2
6053.282,0.000999,0.001953125,0,0,-0.015625,-0.265625,9.78125,0,0.001953125,0,0.2617188,-0.00390625,0,-0.02929688,0.002685547,-2.05481,0,0,-2.05481,0,4.077,0,0,0,0,nan,2,0.194,0,0,0,0,0,0,0,0,0,1,2
6053.292,0.001053,0,0,0.001953125,-0.0234375,-0.3046875,9.804688,0,0,0.001953125,0.2617188,-0.00390625,0,-0.02929688,0.002685547,-2.05481,0,0,-2.05481,0,4.077,0,0,0,0,nan,2,0.009,0,0,0,0,0,0,0,0,0,1,2
6053.302,0.001004,0,0,0,-0.0390625,-0.2734375,9.84375,0,0,0,0.2617188,-0.00390625,0,-0.02929688,0.002685547,-2.05481,0,0,-2.05481,0,4.077,0,0,0,0,nan,2,0.019,0,0,0,0,0,0,0,0,0,1,2
6053.313,0.001042,0.001953125,0,0.00390625,-0.0390625,-0.3046875,9.835938,0,-0.001953125,0,0.2617188,-0.00390625,0,-0.02929688,0.002685547,-2.05481,0,0,-2.05481,0,4.077,0,0,0,0,nan,2,0.029,0,0,0,0,0,0,0,0,0,1,2
6053.323,0.000995,0.00390625,-0.001953125,0,-0.03125,-0.34375,9.804688,0.001953125,0,0,0.2617188,-0.00390625,0,-0.02929688,0.002563477,-2.05481,0,0,-2.05481,0,4.077,0,0,0,0,nan,2,0.039,0,0,0,0,0,0,0,0,0,1,2
6053.332,0.000989,0,0.001953125,0,-0.0546875,-0.2421875,9.773438,0,0,0,0.2617188,-0.00390625,0,-0.02929688,0.002563477,-2.05481,0,0,-2.05481,0,4.077,0,0,0,0,nan,2,0.049,0,0,0,0,0,0,0,0,0,1,2
6053.342,0.00101,-0.001953125,0.001953125,0,-0.0625,-0.2734375,9.835938,0,0,0,0.2617188,-0.00390625,0,-0.02929688,0.002563477,-2.05481,0,0,-2.05481,0,4.077,0,0,0,0,nan,2,0.059,0,0,0,0,0,0,0,0,0,1,2
6053.352,0.00103,0.001953125,0.001953125,0,-0.0234375,-0.265625,9.835938,0.001953125,0,0,0.2617188,-0.00390625,0,-0.02929688,0.002563477,-2.05481,0,0,-2.05481,0,4.077,0,0,0,0,nan,2,0.069,0,0,0,0,0,0,0,0,0,1,2
6053.362,0.00101,-0.001953125,-0.001953125,-0.001953125,-0.015625,-0.3046875,9.84375,-0.001953125,-0.001953125,0,0.2617188,-0.00390625,0,-0.02929688,0.002563477,-2.05481,0,0,-2.05481,0,4.077,0,0,0,0,nan,2,0.079,0,0,0,0,0,0,0,0,0,1,2
6053.372,0.001008,-0.001953125,-0.001953125,0.001953125,-0.0078125,-0.28125,9.804688,0,0,0,0.2617188,-0.00390625,0,-0.02929688,0.002563477,-2.05481,0,0,-2.05481,0,4.077,0,0,0,0,nan,2,0.089,0,0,0,0,0,0,0,0,0,1,2
6053.382,0.00101,0.001953125,0,-0.001953125,-0.0234375,-0.2890625,9.78125,0,0.001953125,-0.001953125,0.2617188,-0.00390625,0,-0.02929688,0.002563477,-2.05481,0,0,-2.05481,0,4.077,0,0,0,0,nan,2,0.099,0,0,0,0,0,0,0,0,0,1,2
6053.392,0.00101,0,0.001953125,0,-0.0546875,-0.2890625,9.804688,0,0,0,0.2617188,-0.00390625,0,-0.02929688,0.002563477,-2.05481,0,0,-2.05481,0,4.077,0,0,0,0,nan,2,0.109,0,0,0,0,0,0,0,0,0,1,2
6053.402,0.00101,0,-0.001953125,0,-0.0390625,-0.28125,9.796875,0,0,0.001953125,0.2617188,-0.00390625,0,-0.02929688,0.002563477,-2.05481,0,0,-2.05481,0,4.077,0,0,0,0,nan,2,0.119,0,0,0,0,0,0,0,0,0,1,2
6053.413,0.001008,0,0,0.001953125,-0.015625,-0.2734375,9.726562,0,0,0,0.2617188,-0.00390625,0,-0.02929688,0.002563477,-2.05481,0,0,-2.05481,0,4.077,0,0,0,0,nan,2,0.129,0,0,0,0,0,0,0,0,0,1,2
6053.423,0.001006,-0.001953125,0,0,-0.046875,-0.2421875,9.8125,0,0,0,0.2617188,-0.00390625,0,-0.02929688,0.002685547,-2.05481,0,0,-2.05481,0,4.077,0,0,0,0,nan,2,0.139,0,0,0,0,0,0,0,0,0,1,2
6053.432,0.001012,0,0,0.001953125,-0.046875,-0.296875,9.8125,0,0,0,0.2617188,-0.00390625,0,-0.02929688,0.002685547,-2.05481,0,0,-2.05481,0,4.077,0,0,0,0,nan,2,0.148,0,0,0,0,0,0,0,0,0,1,2
6053.442,0.00101,-0.001953125,0.001953125,0.001953125,-0.0078125,-0.2734375,9.820312,-0.001953125,0,0,0.2617188,-0.00390625,0,-0.02929688,0.002685547,-2.05481,0,0,-2.05481,0,4.077,0,0,0,0,nan,2,0.159,0,0,0,0,0,0,0,0,0,1,2
6053.452,0.00101,0.0078125,0,0.001953125,-0.015625,-0.28125,9.789062,0.00390625,0,0,0.2617188,-0.00390625,0,-0.02929688,0.002563477,-2.05481,0,0,-2.05481,0,4.077,0,0,0,0,nan,2,0.169,0,0,0,0,0,0,0,0,0,1,2
6053.462,0.000975,0,0,0.001953125,-0.0234375,-0.3125,9.78125,0,0,0.001953125,0.2617188,-0.00390625,0,-0.02929688,0.002685547,-2.05481,0,0,-2.05481,0,4.077,0,0,0,0,nan,2,0.179,0,0,0,0,0,0,0,0,0,1,2
6053.472,0.00101,0,-0.001953125,0,-0.0234375,-0.28125,9.773438,0.001953125,-0.001953125,0,0.2617188,-0.00390625,0,-0.0291748,0.002685547,-2.05481,0,0,-2.05481,0,4.077,0,0,0,0,nan,2,0.189,0,0,0,0,0,0,0,0,0,1,2
6053.482,0.001034,-0.001953125,-0.001953125,0.001953125,0,-0.25,9.804688,0,0,0,0.2617188,-0.00390625,0,-0.0291748,0.002685547,-2.05481,0,0,-2.05481,0,4.077,0,0,0,0,nan,2,0.199,0,0,0,0,0,0,0,0,0,1,2
6053.492,0.001011,0.001953125,0,0,-0.015625,-0.3125,9.742188,0,-0.001953125,0,0.2617188,-0.00390625,0,-0.0291748,0.002685547,-2.05481,0,0,-2.05481,0,4.077,0,0,0,0,nan,2,0.001,0,0,0,0,0,0,0,0,0,1,2
6053.502,0.00101,0,0,0.001953125,-0.0234375,-0.296875,9.796875,0,0,0.001953125,0.2617188,-0.00390625,0,-0.0291748,0.002685547,-2.05481,0,0,-2.05481,0,4.077,0,0,0,0,nan,2,0.011,0,0,0,0,0,0,0,0,0,1,2
6053.513,0.00102,0.001953125,0.001953125,0,-0.046875,-0.3046875,9.804688,0,0,0,0.2617188,-0.00390625,0,-0.0291748,0.002685547,-2.05481,0,0,-2.05481,0,4.077,0,0,0,0,nan,2,0.021,0,0,0,0,0,0,0,0,0,1,2
6053.523,0.001003,0,0.001953125,-0.00390625,-0.0625,-0.3046875,9.796875,0,0,-0.001953125,0.2617188,-0.00390625,0,-0.02929688,0.002685547,-2.05481,0,0,-2.05481,0,4.077,0,0,0,0,nan,2,0.031,0,0,0,0,0,0,0,0,0,1,2
6053.532,0.00101,0,0.001953125,0,-0.0234375,-0.296875,9.8125,0,0,0,0.2617188,-0.00390625,0,-0.02929688,0.002685547,-2.05481,0,0,-2.05481,0,4.077,0,0,0,0,nan,2,0.04,0,0,0,0,0,0,0,0,0,1,2
6053.542,0.00101,0,0,0.001953125,-0.0234375,-0.2890625,9.789062,0,0,0,0.2617188,-0.00390625,0,-0.02929688,0.002685547,-2.05481,0,0,-2.05481,0,4.077,0,0,0,0,nan,2,0.05,0,0,0,0,0,0,0,0,0,1,2
6053.552,0.00101,-0.001953125,0.001953125,0,0.0078125,-0.2421875,9.796875,-0.001953125,0,0,0.2617188,-0.00390625,0,-0.02929688,0.002685547,-2.05481,0,0,-2.05481,0,4.077,0,0,0,0,nan,2,0.061,0,0,0,0,0,0,0,0,0,1,2
6053.562,0.00101,0,0,0,-0.0390625,-0.3125,9.789062,0,0,0,0.2617188,-0.00390625,0,-0.02929688,0.002685547,-2.05481,0,0,-2.05481,0,4.077,0,0,0,0,nan,2,0.071,0,0,0,0,0,0,0,0,0,1,2
6053.572,0.000979,0,0,0.001953125,-0.0546875,-0.21875,9.828125,0,0,0,0.2617188,-0.00390625,0,-0.02929688,0.002685547,-2.05481,0,0,-2.05481,0,4.077,0,0,0,0,nan,2,0.081,0,0,0,0,0,0,0,0,0,1,2
6053.582,0.00101,0.001953125,0.001953125,0.001953125,-0.015625,-0.28125,9.828125,0.001953125,0,0,0.2617188,-0.00390625,0,-0.02929688,0.002685547,-2.05481,0,0,-2.05481,0,4.077,0,0,0,0,nan,2,0.091,0,0,0,0,0,0,0,0,0,1,2
6053.592,0.00101,0,0,-0.001953125,-0.0234375,-0.2890625,9.835938,0,0,-0.001953125,0.2617188,-0.00390625,0,-0.02929688,0.002685547,-2.05481,0,0,-2.05481,0,4.077,0,0,0,0,nan,2,0.101,0,0,0,0,0,0,0,0,0,1,2
6053.602,0.000983,-0.001953125,0.001953125,0.001953125,-0.0234375,-0.2734375,9.78125,0,0,0,0.2617188,-0.00390625,0,-0.02929688,0.002685547,-2.05481,0,0,-2.05481,0,4.077,0,0,0,0,nan,2,0.111,0,0,0,0,0,0,0,0,0,1,2
6053.613,0.001009,0,0,0,-0.046875,-0.3046875,9.804688,0,0.001953125,0,0.2617188,-0.00390625,0,-0.02929688,0.002685547,-2.05481,0,0,-2.05481,0,4.077,0,0,0,0,nan,2,0.121,0,0,0,0,0,0,0,0,0,1,2
6053.622,0.001031,-0.001953125,-0.001953125,0.00390625,-0.015625,-0.3046875,9.78125,0,0,0,0.2617188,-0.00390625,0,-0.02929688,0.002685547,-2.05481,0,0,-2.05481,0,4.077,0,0,0,0,nan,2,0.13,0,0,0,0,0,0,0,0,0,1,2
6053.632,0.00101,0,0.001953125,0,-0.0234375,-0.3046875,9.859375,-0.001953125,0,0,0.2617188,-0.00390625,0,-0.02929688,0.002685547,-2.05481,0,0,-2.05481,0,4.077,0,0,0,0,nan,2,0.14,0,0,0,0,0,0,0,0,0,1,2
6053.642,0.00101,-0.001953125,0.001953125,0,-0.0546875,-0.28125,9.789062,0,0,-0.001953125,0.2617188,-0.00390625,0,-0.02929688,0.002685547,-2.05481,0,0,-2.05481,0,4.077,0,0,0,0,nan,2,0.15,0,0,0,0,0,0,0,0,0,1,2
6053.652,0.00101,-0.001953125,0.001953125,0.001953125,-0.0078125,-0.28125,9.828125,0.001953125,0.001953125,0,0.2617188,-0.00390625,0,-0.02929688,0.002685547,-2.05481,0,0,-2.05481,0,4.077,0,0,0,0,nan,2,0.161,0,0,0,0,0,0,0,0,0,1,2
6053.662,0.001015,0,0.001953125,0,-0.0234375,-0.296875,9.820312,0,0,0,0.2617188,-0.00390625,0,-0.02929688,0.002685547,-2.05481,0,0,-2.05481,0,4.077,0,0,0,0,nan,2,0.171,0,0,0,0,0,0,0,0,0,1,2
6053.672,0.00105,0,-0.001953125,0,-0.03125,-0.28125,9.78125,0,-0.001953125,0,0.2617188,-0.00390625,0,-0.02929688,0.002807617,-2.05481,0,0,-2.05481,0,4.077,0,0,0,0,nan,2,0.004,0,0,0,0,0,0,0,0,0,1,2
6053.682,0.001008,-0.001953125,0.001953125,-0.00390625,-0.0234375,-0.296875,9.851562,0,0,-0.001953125,0.2617188,-0.00390625,0,-0.02929688,0.002807617,-2.05481,0,0,-2.05481,0,4.077,0,0,0,0,nan,2,0.014,0,0,0,0,0,0,0,0,0,1,2
6053.692,0.001022,0,0,-0.001953125,-0.0625,-0.265625,9.835938,0,0,-0.001953125,0.2617188,-0.00390625,0,-0.02929688,0.002807617,-2.05481,0,0,-2.05481,0,4.077,0,0,0,0,nan,2,0,0,0,0,0,0,0,0,0,0,1,2
6053.702,0.001012,0.001953125,0,0.001953125,-0.046875,-0.3359375,9.898438,0.001953125,0,0.001953125,0.2617188,-0.00390625,0,-0.02929688,0.002807617,-2.05481,0,0,-2.05481,0,4.077,0,0,0,0,nan,2,0.01,0,0,0,0,0,0,0,0,0,1,2
6053.713,0.001009,0,0,0,-0.046875,-0.2890625,9.78125,0,0,0.001953125,0.2617188,-0.00390625,0,-0.02941895,0.002807617,-2.05481,0,0,-2.05481,0,4.077,0,0,0,0,nan,2,0.02,0,0,0,0,0,0,0,0,0,1,2
6053.722,0.001019,0.001953125,-0.001953125,-0.00390625,0,-0.2421875,9.859375,0,-0.001953125,-0.001953125,0.2617188,-0.00390625,0,-0.02941895,0.002929688,-2.05481,0,0,-2.05481,0,4.077,0,0,0,0,nan,2,0.029,0,0,0,0,0,0,0,0,0,1,2
6053.732,0.001014,-0.00390625,0.00390625,-0.001953125,0.0078125,-0.2890625,9.734375,0,-0.001953125,0,0.2617188,-0.00390625,0,-0.02941895,0.002929688,-2.05481,0,0,-2.05481,0,4.077,0,0,0,0,nan,2,0.039,0,0,0,0,0,0,0,0,0,1,2
6053.742,0.001006,0.001953125,0,-0.001953125,-0.015625,-0.28125,9.828125,0,-0.001953125,-0.001953125,0.2617188,-0.00390625,0,-0.02941895,0.002807617,-2.05481,0,0,-2.05481,0,4.077,0,0,0,0,nan,2,0.049,0,0,0,0,0,0,0,0,0,1,2
6053.752,0.001013,-0.001953125,0.001953125,0.00390625,-0.0234375,-0.296875,9.835938,0,0,0.001953125,0.2617188,-0.00390625,0,-0.02941895,0.002929688,-2.05481,0,0,-2.05481,0,4.077,0,0,0,0,nan,2,0.06,0,0,0,0,0,0,0,0,0,1,2
6053.762,0.001011,0,0,-0.001953125,-0.03125,-0.28125,9.796875,0,0,0,0.2617188,-0.00390625,0,-0.02941895,0.002807617,-2.05481,0,0,-2.05481,0,4.077,0,0,0,0,nan,2,0.07,0,0,0,0,0,0,0,0,0,1,2
6053.772,0.0009869999,0.001953125,-0.001953125,0,-0.015625,-0.28125,9.804688,0,-0.001953125,0.001953125,0.2617188,-0.00390625,0,-0.02941895,0.002807617,-2.05481,0,0,-2.05481,0,4.077,0,0,0,0,nan,2,0.08,0,0,0,0,0,0,0,0,0,1,2
6053.782,0.000984,-0.001953125,0,0.001953125,-0.0234375,-0.3046875,9.851562,-0.001953125,0,0.001953125,0.2617188,-0.00390625,0,-0.02929688,0.002807617,-2.05481,0,0,-2.05481,0,4.077,0,0,0,0,nan,2,0.004,0,0,0,0,0,0,0,0,0,1,2
6053.792,0.00101,-0.001953125,-0.005859375,0.001953125,-0.0234375,-0.3046875,9.765625,-0.001953125,-0.001953125,0,0.2617188,-0.00390625,0,-0.02941895,0.002807617,-2.05481,0,0,-2.05481,0,4.077,0,0,0,0,nan,2,0.014,0,0,0,0,0,0,0,0,0,1,2
6053.802,0.001009,0.001953125,-0.001953125,0.001953125,-0.015625,-0.3125,9.828125,0.001953125,-0.001953125,0,0.2617188,-0.00390625,0,-0.02929688,0.002807617,-2.05481,0,0,-2.05481,0,4.077,0,0,0,0,nan,2,0.024,0,0,0,0,0,0,0,0,0,1,2
6053.812,0.001008,0.001953125,-0.001953125,-0.00390625,-0.0234375,-0.296875,9.804688,0,-0.001953125,-0.001953125,0.2617188,-0.00390625,0,-0.02941895,0.002807617,-2.05481,0,0,-2.05481,0,4.077,0,0,0,0,nan,2,0.034,0,0,0,0,0,0,0,0,0,1,2
6053.823,0.001015,0,-0.00390625,0.001953125,-0.015625,-0.3203125,9.851562,0.001953125,0,0,0.2617188,-0.00390625,0,-0.02941895,0.002807617,-2.05481,0,0,-2.05481,0,4.077,0,0,0,0,nan,2,0.044,0,0,0,0,0,0,0,0,0,1,2
6053.832,0.001006,0.001953125,0.00390625,0,-0.0703125,-0.3046875,9.789062,0.001953125,0,0,0.2617188,-0.00390625,0,-0.02941895,0.002807617,-2.05481,0,0,-2.05481,0,4.077,0,0,0,0,nan,2,0.053,0,0,0,0,0,0,0,0,0,1,2
6053.842,0.001012,0,0,0.001953125,0,-0.28125,9.828125,0,0,0,0.2617188,-0.00390625,0,-0.02941895,0.002807617,-2.05481,0,0,-2.05481,0,4.077,0,0,0,0,nan,2,0.064,0,0,0,0,0,0,0,0,0,1,2
6053.852,0.00101,-0.001953125,-0.001953125,0,-0.03125,-0.28125,9.804688,0,-0.001953125,0,0.2617188,-0.00390625,0,-0.02941895,0.002807617,-2.05481,0,0,-2.05481,0,4.077,0,0,0,0,nan,2,0.074,0,0,0,0,0,0,0,0,0,1,2
6053.862,0.001013,-0.001953125,0.001953125,0.001953125,-0.0546875,-0.2734375,9.796875,0,0.001953125,0,0.2617188,-0.00390625,0,-0.02941895,0.002807617,-2.05481,0,0,-2.05481,0,4.077,0,0,0,0,nan,2,0.084,0,0,0,0,0,0,0,0,0,1,2
6053.872,0.001026,0,0,0.001953125,-0.0703125,-0.2890625,9.828125,0,0,0,0.2617188,-0.00390625,0,-0.02941895,0.002807617,-2.05481,0,0,-2.05481,0,4.077,0,0,0,0,nan,2,0.094,0,0,0,0,0,0,0,0,0,1,2
6053.882,0.001035,-0.001953125,-0.001953125,0,-0.046875,-0.3125,9.8125,0,-0.001953125,0,0.2617188,-0.00390625,0,-0.02929688,0.002807617,-2.05481,0,0,-2.05481,0,4.077,0,0,0,0,nan,2,0.002,0,0,0,0,0,0,0,0,0,1,2
6053.892,0.00099,0.001953125,0,-0.001953125,-0.0390625,-0.234375,9.84375,0,0,0,0.2617188,-0.00390625,0,-0.02941895,0.002807617,-2.05481,0,0,-2.05481,0,4.077,0,0,0,0,nan,2,0.012,0,0,0,0,0,0,0,0,0,1,2
6053.902,0.001025,-0.001953125,-0.001953125,0.001953125,-0.015625,-0.28125,9.820312,0,0,0.001953125,0.2617188,-0.00390625,0,-0.02941895,0.002807617,-2.05481,0,0,-2.05481,0,4.077,0,0,0,0,nan,2,0.008,0,0,0,0,0,0,0,0,0,1,2
6053.912,0.001013,0,0.001953125,0,-0.0546875,-0.3046875,9.789062,0,0.001953125,0.001953125,0.2617188,-0.00390625,0,-0.02941895,0.002807617,-2.05481,0,0,-2.05481,0,4.077,0,0,0,0,nan,2,0.018,0,0,0,0,0,0,0,0,0,1,2
6053.923,0.001012,0,0.001953125,0,-0.03125,-0.328125,9.796875,0,0.001953125,0,0.2617188,-0.00390625,0,-0.02941895,0.002929688,-2.05481,0,0,-2.05481,0,4.077,0,0,0,0,nan,2,0.028,0,0,0,0,0,0,0,0,0,1,2
6053.932,0.00101,-0.001953125,0,0,-0.0234375,-0.3125,9.789062,0,0,-0.001953125,0.2617188,-0.00390625,0,-0.02941895,0.002929688,-2.05481,0,0,-2.05481,0,4.077,0,0,0,0,nan,2,0.037,0,0,0,0,0,0,0,0,0,1,2
6053.942,0.00101,0,0.001953125,0.00390625,-0.0546875,-0.28125,9.804688,0,0,0,0.2617188,-0.00390625,0,-0.02941895,0.002929688,-2.05481,0,0,-2.05481,0,4.077,0,0,0,0,nan,2,0.047,0,0,0,0,0,0,0,0,0,1,2
6053.952,0.00101,0,0,0,-0.0234375,-0.328125,9.789062,0,0,0,0.2617188,-0.00390625,0,-0.02941895,0.002929688,-2.05481,0,0,-2.05481,0,4.077,0,0,0,0,nan,2,0.058,0,0,0,0,0,0,0,0,0,1,2
6053.962,0.001012,0,0.001953125,0,-0.0078125,-0.2890625,9.789062,0,0,0,0.2617188,-0.00390625,0,-0.02941895,0.002929688,-2.05481,0,0,-2.05481,0,4.077,0,0,0,0,nan,2,0.068,0,0,0,0,0,0,0,0,0,1,2
6053.972,0.00101,0.001953125,-0.001953125,-0.00390625,-0.0234375,-0.3125,9.78125,0,0,0,0.2617188,-0.00390625,0,-0.02941895,0.002929688,-2.05481,0,0,-2.05481,0,4.077,0,0,0,0,nan,2,0.078,0,0,0,0,0,0,0,0,0,1,2
6053.982,0.00103,0,0,-0.00390625,-0.0390625,-0.3046875,9.851562,0,0,-0.001953125,0.2617188,-0.00390625,0,-0.02941895,0.002929688,-2.05481,0,0,-2.05481,0,4.077,0,0,0,0,nan,2,0.088,0,0,0,0,0,0,0,0,0,1,2
6053.992,0.00101,-0.001953125,0.001953125,-0.001953125,-0.0390625,-0.3046875,9.773438,0,0.001953125,-0.001953125,0.2617188,-0.00390625,0,-0.02941895,0.003051758,-2.05481,0,0,-2.05481,0,4.077,0,0,0,0,nan,2,0.098,0,0,0,0,0,0,0,0,0,1,2
6054.003,0.001025,0.001953125,0,0,-0.015625,-0.2578125,9.820312,0,0,0,0.2617188,-0.00390625,0,-0.02941895,0.003051758,-2.05481,0,0,-2.05481,0,4.077,0,0,0,0,nan,2,0.002,0,0,0,0,0,0,0,0,0,1,2
6054.012,0.00101,0,0,-0.00390625,0,-0.3125,9.828125,0,0,0,0.2617188,-0.00390625,0,-0.02941895,0.002929688,-2.05481,0,0,-2.05481,0,4.077,0,0,0,0,nan,2,0.012,0,0,0,0,0,0,0,0,0,1,2
6054.023,0.001058,0,0.00390625,-0.001953125,-0.0234375,-0.2734375,9.796875,0,0.00390625,0,0.2617188,-0.00390625,0,-0.02929688,0.002929688,-2.05481,0,0,-2.05481,0,4.077,0,0,0,0,nan,2,0.022,0,0,0,0,0,0,0,0,0,1,2
6054.032,0.001031,0.001953125,0,0.001953125,-0.046875,-0.3125,9.804688,0,0.001953125,0,0.2617188,-0.00390625,0,-0.02941895,0.002929688,-2.05481,0,0,-2.05481,0,4.077,0,0,0,0,nan,2,0.031,0,0,0,0,0,0,0,0,0,1,2
6054.042,0.00101,-0.001953125,0.00390625,0,-0.03125,-0.28125,9.804688,-0.001953125,0.001953125,0,0.2617188,-0.00390625,0,-0.02941895,0.003051758,-2.05481,0,0,-2.05481,0,4.077,0,0,0,0,nan,2,0.041,0,0,0,0,0,0,0,0,0,1,2
6054.052,0.001013,-0.001953125,-0.00390625,0.001953125,-0.0390625,-0.296875,9.84375,-0.001953125,0,0,0.2617188,-0.00390625,0,-0.02941895,0.003051758,-2.05481,0,0,-2.05481,0,4.077,0,0,0,0,nan,2,0.051,0,0,0,0,0,0,0,0,0,1,2
6054.062,0.00101,0.001953125,0,-0.001953125,-0.0234375,-0.3125,9.796875,0,0,-0.001953125,0.2617188,-0.00390625,0,-0.02941895,0.003051758,-2.05481,0,0,-2.05481,0,4.077,0,0,0,0,nan,2,0.062,0,0,0,0,0,0,0,0,0,1,2
6054.072,0.00105,0,0.001953125,0,0,-0.28125,9.726562,0,0.001953125,0,0.2617188,-0.00390625,0,-0.02941895,0.003051758,-2.05481,0,0,-2.05481,0,4.077,0,0,0,0,nan,2,0.072,0,0,0,0,0,0,0,0,0,1,2
6054.082,0.000977,0.001953125,0,0.001953125,-0.03125,-0.2734375,9.78125,0,0,0,0.2617188,-0.00390625,0,-0.02954102,0.003051758,-2.05481,0,0,-2.05481,0,4.077,0,0,0,0,nan,2,0.082,0,0,0,0,0,0,0,0,0,1,2
6054.092,0.000972,-0.001953125,0.001953125,-0.001953125,0,-0.3125,9.78125,0,0.001953125,0,0.2617188,-0.00390625,0,-0.02954102,0.003051758,-2.05481,0,0,-2.05481,0,4.077,0,0,0,0,nan,2,0.007,0,0,0,0,0,0,0,0,0,1,2
6054.102,0.000991,0,-0.001953125,0.001953125,-0.015625,-0.265625,9.742188,0,0,0,0.2617188,-0.00390625,0,-0.02954102,0.003051758,-2.05481,0,0,-2.05481,0,4.077,0,0,0,0,nan,2,0.017,0,0,0,0,0,0,0,0,0,1,2
6054.113,0.000995,0,0,0.001953125,-0.0234375,-0.328125,9.765625,0,0.001953125,0.001953125,0.2617188,-0.00390625,0,-0.02941895,0.003051758,-2.05481,0,0,-2.05481,0,4.077,0,0,0,0,nan,2,0.027,1,0,0,0,0,0,0,0,0,1,2
6054.123,0.001007,0,0,0.001953125,-0.0390625,-0.296875,9.796875,0,0,0,0.2617188,-0.00390625,0,-0.02954102,0.003051758,-2.05481,0,0,-2.05481,0,4.077,0,0,0,0,nan,2,0.037,1,0,0,0,0,0,0,0,0,1,2
6054.132,0.001061,0,0,0.001953125,-0.0390625,-0.28125,9.828125,0,0,0,0.2617188,-0.00390625,0,-0.02954102,0.003051758,-2.05481,0,0,-2.05481,0,4.077,0,0,0,0,nan,2,0.046,1,0,0,0,0,0,0,0,0,1,2
6054.142,0.001012,0,-0.001953125,0.001953125,-0.015625,-0.3203125,9.84375,0.001953125,0,0,0.2617188,-0.00390625,0,-0.02941895,0.003051758,-2.05481,0,0,-2.05481,0,4.077,0,0,0,0,nan,2,0.057,1,0,0,0,0,0,0,0,0,1,2
6054.152,0.001011,0.001953125,-0.001953125,0.001953125,0,-0.296875,9.765625,0,-0.001953125,0,0.2617188,-0.00390625,0,-0.02941895,0.003051758,-2.05481,0,0,-2.05481,0,4.077,0,0,0,0,nan,2,0.067,1,0,0,0,0,0,0,0,0,1,2
6054.162,0.001011,-0.001953125,0.00390625,-0.001953125,-0.0234375,-0.3203125,9.828125,0,0,0,0.2617188,-0.00390625,0,-0.02941895,0.003051758,-2.05481,0,0,-2.05481,0,4.077,0,0,0,0,nan,2,0.077,1,0,0,0,0,0,0,0,0,1,2
6054.172,0.001011,0,0.001953125,0,-0.0546875,-0.328125,9.796875,0.001953125,0.001953125,0,0.2617188,-0.00390625,0,-0.02954102,0.003051758,-2.05481,0,0,-2.05481,0,4.077,0,0,0,0,nan,2,0.087,1,0,0,0,0,0,0,0,0,1,2
6054.182,0.001011,0,0.00390625,0.001953125,0.0078125,-0.3125,9.820312,-0.001953125,0,0,0.2617188,-0.00390625,0,-0.02954102,0.003051758,-2.05481,0,0,-2.05481,0,4.077,0,0,0,0,nan,2,0.097,1,0,0,0,0,0,0,0,0,1,2
6054.192,0.001013,0.001953125,0,0.001953125,-0.0234375,-0.28125,9.84375,0,0,0,0.2617188,-0.00390625,0,-0.02954102,0.003051758,-2.05481,0,0,-2.05481,0,4.077,0,0,0,0,nan,2,0.107,1,0,0,0,0,0,0,0,0,1,2
6054.202,0.001011,0,0,-0.001953125,-0.015625,-0.3203125,9.875,0,0,-0.001953125,0.2617188,-0.00390625,0,-0.02954102,0.003051758,-2.05481,0,0,-2.05481,0,4.077,0,0,0,0,nan,2,0.117,1,0,0,0,0,0,0,0,0,1,2
6054.212,0.001011,0,0,0,-0.0234375,-0.296875,9.78125,0,0,0,0.2617188,-0.00390625,0,-0.02966309,0.003051758,-2.05481,0,0,-2.05481,0,4.077,0,0,0,0,nan,2,0.127,1,0,0,0,0,0,0,0,0,1,2
6054.223,0.001011,0,-0.001953125,-0.001953125,-0.03125,-0.28125,9.804688,0,-0.001953125,-0.001953125,0.2617188,-0.00390625,0,-0.02966309,0.003051758,-2.05481,0,0,-2.05481,0,4.077,0,0,0,0,nan,2,0.137,1,0,0,0,0,0,0,0,0,1,2
6054.232,0.001014,0.001953125,0.001953125,0,-0.0234375,-0.265625,9.78125,0,0,0,0.2617188,-0.00390625,0,-0.02966309,0.003051758,-2.05481,0,0,-2.05481,0,4.077,0,0,0,0,nan,2,0.146,1,0,0,0,0,0,0,0,0,1,2
6054.242,0.001029,-0.001953125,0.001953125,0,-0.03125,-0.265625,9.804688,0,0,0,0.2617188,-0.00390625,0,-0.02966309,0.003051758,-2.05481,0,0,-2.05481,0,4.077,0,0,0,0,nan,2,0.157,1,0,0,0,0,0,0,0,0,1,2
6054.252,0.0009860001,0,-0.001953125,-0.001953125,-0.03125,-0.265625,9.84375,0,-0.001953125,0,0.2617188,-0.00390625,0,-0.02954102,0.003051758,-2.05481,0,0,-2.05481,0,4.077,0,0,0,0,nan,2,0.167,1,0,0,0,0,0,0,0,0,1,2
6054.262,0.001016,0.00390625,-0.001953125,0.001953125,-0.046875,-0.3125,9.789062,0,-0.001953125,0,0.2617188,-0.00390625,0,-0.02954102,0.002929688,-2.05481,0,0,-2.05481,0,4.077,0,0,0,0,nan,2,0.177,1,0,0,0,0,0,0,0,0,1,2
6054.272,0.001007,0.001953125,0.001953125,0,-0.0234375,-0.3125,9.84375,0.001953125,0,0,0.2617188,-0.00390625,0,-0.02954102,0.002929688,-2.05481,0,0,-2.05481,0,4.077,0,0,0,0,nan,2,0.187,1,0,0,0,0,0,0,0,0,1,2
6054.282,0.000984,0.001953125,0,-0.001953125,-0.03125,-0.28125,9.804688,0.001953125,0,0,0.2617188,-0.00390625,0,-0.02954102,0.002929688,-2.05481,0,0,-2.05481,0,4.077,0,0,0,0,nan,2,0.197,1,0,0,0,0,0,0,0,0,1,2
6054.292,0.001013,0,0.001953125,0,-0.0546875,-0.3046875,9.820312,0,0,-0.001953125,0.2617188,-0.00390625,0,-0.02954102,0.002929688,-2.05481,0,0,-2.05481,0,4.077,0,0,0,0,nan,2,0.006,1,0,0,0,0,0,0,0,0,1,2
6054.302,0.001022,0,-0.001953125,0.00390625,-0.0546875,-0.2578125,9.851562,0,0,0,0.2617188,-0.00390625,0,-0.02954102,0.002929688,-2.05481,0,0,-2.05481,0,4.077,0,0,0,0,nan,2,0.016,1,0,0,0,0,0,0,0,0,1,2
6054.312,0.001292,0,0,0.00390625,-0.015625,-0.2734375,9.734375,0,0,0.001953125,0.1777344,-0.01757812,0,-0.02954102,0.002929688,-2.05481,0,0,-2.05481,0.1421204,4.077,0,0,0,0.09997559,nan,2,0.001,1,0,0.1531372,0.1290283,0.1337891,0.1524658,0,0,0,1,2
6054.322,0.001004,-0.0078125,-0.005859375,-0.00390625,-0.1640625,-0.1640625,9.757812,0,-0.001953125,0,0.1777344,-0.01757812,0,-0.02941895,0.003051758,-2.05481,0,0,-2.05481,0.1421204,4.077,0,0,0,0.09997559,nan,2,0.011,1,0,0.1461487,0.137146,0.1246033,0.1605225,0,0,0,1,2
6054.332,0.001008,-0.01367188,-0.005859375,-0.02148438,-0.4921875,0.3359375,9.632812,0,-0.005859375,-0.009765625,0.1777344,-0.01757812,0,-0.02954102,0.003051758,-2.05481,0,0,-2.05481,0.1421204,4.077,0,0,0,0.09997559,nan,2,0.021,1,0,0.1290283,0.1546936,0.1049805,0.179718,0,0,0,1,2
6054.342,0.001017,-0.001953125,0.009765625,0,-0.4453125,-0.6953125,10.28906,0.001953125,0.005859375,0.00390625,0.1757812,-0.01757812,0,-0.02929688,0.003051758,-2.05481,0,0,-2.05481,0.1421204,4.077,0,0,0,0.09997559,nan,2,0.031,1,0,0.1535339,0.1260986,0.1356506,0.1531372,0.0009765625,0,0,1,2
6054.352,0.001011,-0.015625,0.0546875,-0.02148438,-0.8203125,0.84375,10.39062,0.005859375,0.01171875,0,0.1757812,-0.01953125,0,-0.02941895,0.003051758,-2.05481,0,0,-2.05481,0.1421204,4.077,0,0,0,0.09997559,nan,2,0.041,1,0,0.1483765,0.1276245,0.135437,0.1569519,0.0009765625,0,0,1,2
6054.362,0.001013,0.04492188,0.06054688,0.015625,-2.273438,0.5390625,12.41406,0.00390625,0.005859375,0,0.1757812,-0.01757812,0,-0.02929688,0.003051758,-2.054688,0,0,-2.05481,0.1421204,4.077,0,0,0,0.09997559,nan,2,0.051,1,0,0.1443481,0.134491,0.1261902,0.1633911,0.0009765625,0,0,1,2
6054.372,0.001011,0.08007812,-0.0234375,-0.02929688,1.179688,3.351562,10.08594,0.001953125,-0.009765625,0.00390625,0.1757812,-0.01757812,0,-0.02941895,0.002929688,-2.054688,0,0,-2.05481,0.1421204,4.077,0,0,0,0.09997559,nan,2,0.062,1,0,0.150116,0.1365662,0.1262207,0.1555481,0.0009765625,0,0,1,2
6054.382,0.001013,0.03320312,-0.03515625,-0.0234375,1.851562,4.828125,9.921875,-0.009765625,0.001953125,-0.009765625,0.1777344,-0.01757812,0,-0.02954102,0.002929688,-2.054688,0,0,-2.05481,0.1421204,4.077,0,0,0,0.09997559,nan,2,0.072,1,0,0.1361694,0.1463623,0.1125183,0.1733398,0.0009765625,0,0,1,2
6054.392,0.000991,0.03515625,0.001953125,-0.01757812,0.6640625,-3.210938,10.19531,0.0078125,0.015625,-0.015625,0.1777344,-0.01757812,0,-0.02966309,0.003051758,-2.05481,0,0,-2.05481,0.1421204,4.077,0,0,0,0.09997559,nan,2,0.082,1,0,0.1313782,0.14505,0.1201477,0.1718445,0.0009765625,0,0,1,2
6054.402,0.001012,0.01757812,0.01171875,0.00390625,0.4609375,0.375,7.039062,0.0078125,-0.009765625,0.01171875,0.1777344,-0.01757812,0,-0.02954102,0.003051758,-2.05481,0,0,-2.05481,0.1421204,4.077,0,0,0,0.09997559,nan,2,0.092,1,0,0.1720581,0.1132812,0.147583,0.1354675,0.001953125,0,0,1,2
6054.412,0.001031,-0.06640625,0.015625,-0.04101562,0.15625,-0.828125,10.24219,-0.001953125,0.01367188,-0.03320312,0.1777344,-0.01953125,0,-0.02941895,0.003173828,-2.05481,0,0,-2.05481,0.1421204,4.077,0,0,0,0.09997559,nan,2,0.101,1,0,0.1025391,0.1741943,0.07659912,0.2150879,0.001953125,0,0,1,2
6054.423,0.00101,-0.01171875,-0.005859375,-0.04296875,0.484375,-1.492188,10.50781,0,0.009765625,-0.04101562,0.1777344,-0.01953125,0,-0.02954102,0.003295898,-2.055176,0,0,-2.05481,0.1421204,4.077,0,0,0,0.09997559,nan,2,0.112,1,0,0.1210022,0.155426,0.1032104,0.1887817,0.001953125,0,0,1,2
6054.432,0.001008,-0.01757812,-0.09570312,-0.04882812,1.679688,2.039062,5.835938,-0.005859375,0,-0.04296875,0.1777344,-0.01953125,0,-0.02941895,0.003295898,-2.055542,0,0,-2.05481,0.1421204,4.077,0,0,0,0.09997559,nan,2,0.121,1,0,0.1394348,0.1460571,0.1069031,0.1760559,0.001953125,0,0,1,2
6054.442,0.001037,-0.04101562,0.1425781,-0.02539062,-0.140625,-1.835938,11.89844,-0.001953125,0.0234375,-0.02929688,0.1757812,-0.01953125,0,-0.02941895,0.003173828,-2.055908,0,0,-2.05481,0.1421204,4.077,0,0,0,0.09997559,nan,2,0.131,1,0,0.1473083,0.1171875,0.1390381,0.164856,0.001953125,0,0,1,2
6054.452,0.001008,-0.02929688,-0.09960938,-0.0703125,0.921875,1.007812,4.851562,-0.01367188,-0.015625,-0.03710938,0.1757812,-0.01953125,0,-0.02941895,0.003173828,-2.056274,0,0,-2.05481,0.1421204,4.077,0,0,0,0.09997559,nan,2,0.141,1,0,0.1296387,0.160553,0.0932312,0.1849976,0.002929688,0,0,1,2
6054.462,0.00101,0.04492188,0.009765625,-0.02539062,-1.789062,0.5234375,16.33594,0.00390625,0.00390625,-0.0390625,0.1777344,-0.01953125,0,-0.02966309,0.003173828,-2.056763,0,0,-2.05481,0.1421204,4.077,0,0,0,0.09997559,nan,2,0.151,1,0,0.1554871,0.1202393,0.1456909,0.1470032,0.002929688,0,0,1,2
6054.472,0.001006,0.01367188,0.1015625,-0.02539062,-0.6953125,1.4375,10.82812,0,0.01757812,-0.02929688,0.1777344,-0.01757812,0,-0.02954102,0.003051758,-2.057007,0,0,-2.05481,0.1421204,4.077,0,0,0,0.09997559,nan,2,0.009,1,0,0.151062,0.1168518,0.1367493,0.1637573,0.002929688,0,0,1,2
6054.482,0.001007,-0.04492188,-0.01367188,0.01367188,0.6953125,1.757812,8.015625,-0.01367188,-0.01171875,0.01171875,0.1777344,-0.01757812,0,-0.02966309,0.003051758,-2.057129,0,0,-2.05481,0,4.077,0,0,0,0,nan,2,0.003,1,0,0.1000061,0.1000061,0.1000061,0.1000061,0,0,0,1,2
6054.492,0.00101,-0.04492188,-0.02539062,0.07226562,0.4453125,-1.085938,10.49219,0.009765625,-0.015625,0.06640625,0.1777344,-0.01757812,0,-0.02966309,0.003051758,-2.056641,0,0,-2.05481,0,4.077,0,0,0,0,nan,2,0.013,1,0,0.1000061,0.1000061,0.1000061,0.1000061,0,0,0,1,2
6054.502,0.000967,-0.001953125,0.01953125,0.1054688,-2.78125,-1.765625,15.65625,-0.00390625,0.005859375,0.078125,0.1777344,-0.01757812,0,-0.02966309,0.002929688,-2.05603,0,0,-2.05481,0,4.077,0,0,0,0,nan,2,0.023,1,0,0.1000061,0.1000061,0.1000061,0.1000061,0,0,0,1,2
6054.512,0.001022,-0.06054688,0.07421875,0.0390625,1.515625,0.6484375,10.625,0.001953125,-0.01757812,0.05859375,0.1777344,-0.01757812,0,-0.02966309,0.002807617,-2.055176,0,0,-2.05481,0,4.077,0,0,0,0,nan,2,0.033,1,0,0.1000061,0.1000061,0.1000061,0.1000061,0,0,0,1,2
6054.523,0.001019,-0.04492188,-0.046875,0.046875,0.1015625,1.257812,9.835938,-0.0390625,-0.01171875,0.04296875,0.1777344,-0.01757812,0,-0.02978516,0.002807617,-2.054688,0,0,-2.05481,0,4.077,0,0,0,0,nan,2,0.043,1,0,0.1000061,0.1000061,0.1000061,0.1000061,0,0,0,1,2
6054.533,0.001014,0.015625,-0.04296875,0.0234375,-2.296875,-3.414062,9.929688,0.01171875,-0.005859375,0.04296875,0.1777344,-0.01757812,0,-0.02978516,0.002563477,-2.054199,0,0,-2.05481,0,4.077,0,0,0,0,nan,2,0.054,1,0,0.1000061,0.1000061,0.1000061,0.1000061,0,0,0,1,2
6054.542,0.001013,-0.01953125,0.04101562,-0.0546875,0.09375,-4.140625,13.17969,0.0078125,-0.001953125,-0.01953125,0.1777344,-0.01757812,0,-0.02966309,0.002563477,-2.054199,0,0,-2.05481,0,4.077,0,0,0,0,nan,2,0.063,1,0,0.1000061,0.1000061,0.1000061,0.1000061,0,0,0,1,2
6054.552,0.001009,0.04101562,-0.001953125,0.01171875,-0.8515625,2.195312,10.33594,-0.01171875,0,-0.00390625,0.1777344,-0.01757812,0,-0.02954102,0.002563477,-2.054321,0,0,-2.05481,0,4.077,0,0,0,0,nan,2,0.073,1,0,0.1000061,0.1000061,0.1000061,0.1000061,0,0,0,1,2
6054.562,0.001003,0.03320312,0.06445312,0.02929688,-0.1953125,-0.4609375,5.195312,-0.01367188,0.01757812,0.03320312,0.1777344,-0.01757812,0,-0.02966309,0.002685547,-2.054077,0,0,-2.05481,0,4.077,0,0,0,0,nan,2,0.083,1,0,0.1000061,0.1000061,0.1000061,0.1000061,0,0,0,1,2
6054.572,0.001045,0.03515625,0.02929688,0.046875,0.1015625,0.2109375,9.390625,0.00390625,0.0390625,0.04492188,0.1777344,-0.01757812,0,-0.02954102,0.002807617,-2.053711,0,0,-2.05481,0,4.077,0,0,0,0,nan,2,0.093,1,0,0.1000061,0.1000061,0.1000061,0.1000061,0,0,0,1,2
6054.582,0.001033,0.04882812,0.015625,0.02929688,-0.375,1.609375,15.32031,-0.001953125,-0.001953125,0.02929688,0.1777344,-0.01757812,0,-0.02966309,0.002807617,-2.053345,0,0,-2.05481,0,4.077,0,0,0,0,nan,2,0.004,1,0,0.1000061,0.1000061,0.1000061,0.1000061,0,0,0,1,2
6054.592,0.001031,-0.009765625,0.00390625,-0.04492188,0.5546875,-2.429688,5.546875,-0.005859375,0.01367188,-0.01953125,0.1777344,-0.01757812,0,-0.02966309,0.002807617,-2.053345,0,0,-2.05481,0,4.077,0,0,0,0,nan,2,0.014,1,0,0.1000061,0.1000061,0.1000061,0.1000061,0,0,0,1,2
6054.602,0.00101,0.0234375,-0.01757812,-0.001953125,0.2734375,-0.1328125,8.757812,0,0.0078125,-0.015625,0.1777344,-0.01757812,0,-0.02966309,0.002807617,-2.053467,0,0,-2.05481,0,4.077,0,0,0,0,nan,2,0.024,1,0,0.1000061,0.1000061,0.1000061,0.1000061,0,0,0,1,2
6054.612,0.001007,-0.046875,0.05078125,-0.03320312,1.914062,-3.601562,5.820312,-0.0234375,0.0078125,-0.03125,0.1777344,-0.01757812,0,-0.02929688,0.002563477,-2.053711,0,0,-2.05481,0,4.077,0,0,0,0,nan,2,0.034,1,0,0.1000061,0.1000061,0.1000061,0.1000061,0,0,0,1,2
6054.622,0.001011,0.01367188,0.01367188,-0.02734375,0.4296875,0.609375,11.86719,0,0.01757812,-0.02734375,0.1777344,-0.01757812,0,-0.02929688,0.002685547,-2.053955,0,0,-2.05481,0,4.077,0,0,0,0,nan,2,0.044,1,0,0.1000061,0.1000061,0.1000061,0.1000061,0,0,0,1,2
6054.633,0.00101,-0.02539062,0.04492188,0.05078125,-2.5625,3.820312,8.75,-0.00390625,0.01171875,0.02734375,0.1777344,-0.01757812,0,-0.02905273,0.002807617,-2.053955,0,0,-2.05481,0,4.077,0,0,0,0,nan,2,0.055,1,0,0.1000061,0.1000061,0.1000061,0.1000061,0,0,0,1,2
6054.642,0.001009,0.03125,-0.04296875,0.0859375,-0.375,2.757812,8.070312,0.00390625,-0.01757812,0.07617188,0.1777344,-0.01757812,0,-0.02905273,0.002807617,-2.053467,0,0,-2.05481,0,4.077,0,0,0,0,nan,2,0.064,1,0,0.1000061,0.1000061,0.1000061,0.1000061,0,0,0,1,2
6054.652,0.001009,-0.001953125,-0.0234375,0.08398438,-0.421875,2.484375,9.3125,0.01171875,-0.0078125,0.08203125,0.1777344,-0.01757812,0,-0.02905273,0.002929688,-2.052612,0,0,-2.05481,0,4.077,0,0,0,0,nan,2,0.074,1,0,0.1000061,0.1000061,0.1000061,0.1000061,0,0,0,1,2
6054.662,0.000981,0.0078125,-0.0546875,0.02929688,0.4921875,-0.515625,17.5,0.01171875,-0.0078125,0.046875,0.1777344,-0.01757812,0,-0.02905273,0.002929688,-2.052002,0,0,-2.05481,0,4.077,0,0,0,0,nan,2,0.084,1,0,0.1000061,0.1000061,0.1000061,0.1000061,0,0,0,1,2
6054.672,0.001013,-0.00390625,0.01171875,-0.01953125,-1.03125,-2.539062,5.632812,0.001953125,0.0078125,-0.001953125,0.1777344,-0.01757812,0,-0.02929688,0.002807617,-2.051758,0,0,-2.05481,0,4.077,0,0,0,0,nan,2,0.094,1,0,0.1000061,0.1000061,0.1000061,0.1000061,0,0,0,1,2
6054.682,0.001027,0.02148438,0.0078125,-0.0234375,2.257812,-2.976562,9.414062,0.00390625,0.00390625,-0.02148438,0.1777344,-0.01757812,0,-0.0291748,0.002685547,-2.05188,0,0,-2.05481,0,4.077,0,0,0,0,nan,2,0,1,0,0.1000061,0.1000061,0.1000061,0.1000061,0,0,0,1,2
6054.692,0.001007,-0.04296875,0.02539062,-0.01953125,-1.804688,1.28125,8.398438,-0.005859375,-0.00390625,-0.02148438,0.1777344,-0.01757812,0,-0.0291748,0.002685547,-2.052124,0,0,-2.05481,0,4.077,0,0,0,0,nan,2,0.01,1,0,0.1000061,0.1000061,0.1000061,0.1000061,0,0,0,1,2
6054.702,0.001036,-0.0078125,-0.046875,0.01171875,0.3671875,3.5625,8.578125,0.02148438,-0.01757812,0.00390625,0.1777344,-0.01757812,0,-0.02893066,0.002563477,-2.052246,0,0,-2.05481,0,4.077,0,0,0,0,nan,2,0.008,1,0,0.1000061,0.1000061,0.1000061,0.1000061,0,0,0,1,2
6054.713,0.000988,-0.01171875,0.005859375,0.0390625,0.6796875,-4.28125,8.398438,-0.005859375,-0.001953125,0.03710938,0.1777344,-0.01757812,0,-0.02905273,0.002563477,-2.052002,0,0,-2.05481,0,4.077,0,0,0,0,nan,2,0.018,1,0,0.1000061,0.1000061,0.1000061,0.1000061,0,0,0,1,2
6054.722,0.00101,-0.01367188,-0.015625,0.02929688,0.828125,1.78125,7.695312,-0.001953125,0.001953125,0.02539062,0.1777344,-0.01757812,0,-0.02905273,0.002563477,-2.051636,0,0,-2.05481,0,4.077,0,0,0,0,nan,2,0.028,1,0,0.1000061,0.1000061,0.1000061,0.1000061,0,0,0,1,2
6054.733,0.001012,0.01953125,0,-0.0078125,-1.171875,2.195312,12.69531,0.005859375,0.00390625,0,0.1777344,-0.01757812,0,-0.02905273,0.002563477,-2.051514,0,0,-2.05481,0,4.077,0,0,0,0,nan,2,0.038,1,0,0.1000061,0.1000061,0.1000061,0.1000061,0,0,0,1,2
6054.742,0.001011,-0.03320312,0.05273438,-0.03710938,-1.203125,-1.484375,7.96875,-0.00390625,0.00390625,-0.03320312,0.1777344,-0.01757812,0,-0.02893066,0.002441406,-2.051636,0,0,-2.05481,0,4.077,0,0,0,0,nan,2,0.047,1,0,0.1000061,0.1000061,0.1000061,0.1000061,0,0,0,1,2
6054.752,0.001012,-0.01367188,0.02734375,-0.0390625,1.09375,4.507812,9.828125,-0.009765625,0.009765625,-0.02539062,0.1777344,-0.01757812,0,-0.02905273,0.002441406,-2.05188,0,0,-2.05481,0,4.077,0,0,0,0,nan,2,0.058,1,0,0.1000061,0.1000061,0.1000061,0.1000061,0,0,0,1,2
6054.762,0.001011,0.0546875,-0.05859375,0.02929688,-1.664062,0.609375,11.17969,0.015625,-0.01367188,0.001953125,0.1777344,-0.01757812,0,-0.0291748,0.002685547,-2.052124,0,0,-2.05481,0,4.077,0,0,0,0,nan,2,0.068,1,0,0.1000061,0.1000061,0.1000061,0.1000061,0,0,0,1,2
6054.772,0.001011,-0.01953125,0.01367188,0.04882812,0.6328125,-2.914062,14.46875,0.001953125,-0.001953125,0.0390625,0.1777344,-0.01757812,0,-0.0291748,0.002685547,-2.05188,0,0,-2.05481,0,4.077,0,0,0,0,nan,2,0.078,1,0,0.1000061,0.1000061,0.1000061,0.1000061,0,0,0,1,2
6054.782,0.001008,0.03515625,-0.03710938,0.02734375,-0.046875,-3.375,3.84375,0,0.001953125,0.03320312,0.1777344,-0.01757812,0,-0.02941895,0.002685547,-2.051514,0,0,-2.05481,0,4.077,0,0,0,0,nan,2,0.088,1,0,0.1000061,0.1000061,0.1000061,0.1000061,0,0,0,1,2
6054.792,0.001015,0.0078125,0.01757812,-0.00390625,1.3125,-0.3359375,10.36719,0,0.005859375,0.001953125,0.1777344,-0.01757812,0,-0.02929688,0.002563477,-2.05127,0,0,-2.05481,0,4.077,0,0,0,0,nan,2,0.098,1,0,0.1000061,0.1000061,0.1000061,0.1000061,0,0,0,1,2
6054.802,0.001002,0.02734375,0.00390625,-0.03515625,-2.382812,3.484375,7.734375,-0.001953125,0.015625,-0.02539062,0.1777344,-0.01757812,0,-0.0291748,0.002563477,-2.051392,0,0,-2.05481,0,4.077,0,0,0,0,nan,2,0.108,1,0,0.1000061,0.1000061,0.1000061,0.1000061,0,0,0,1,2
6054.812,0.001015,0.009765625,-0.02734375,-0.01171875,-0.625,-5.40625,9.015625,0.00390625,0,-0.009765625,0.1777344,-0.01757812,0,-0.0291748,0.002563477,-2.051636,0,0,-2.05481,0,4.077,0,0,0,0,nan,2,0.007,1,0,0.1000061,0.1000061,0.1000061,0.1000061,0,0,0,1,2
6054.822,0.000991,0.03710938,-0.009765625,0.02929688,-2.492188,-4.132812,12.78125,0.0078125,-0.00390625,0.01367188,0.1777344,-0.01757812,0,-0.02905273,0.002563477,-2.051636,0,0,-2.05481,0,4.077,0,0,0,0,nan,2,0.016,1,0,0.1000061,0.1000061,0.1000061,0.1000061,0,0,0,1,2
6054.833,0.001012,0.02929688,-0.0078125,0.05664062,-0.8515625,1.945312,10.5625,0.009765625,-0.001953125,0.046875,0.1777344,-0.01757812,0,-0.0291748,0.002563477,-2.05127,0,0,-2.05481,0,4.077,0,0,0,0,nan,2,0.027,1,0,0.1000061,0.1000061,0.1000061,0.1000061,0,0,0,1,2
6054.842,0.001039,0.009765625,-0.01171875,0.0390625,-0.0546875,0.15625,8.179688,-0.00390625,0.001953125,0.046875,0.1777344,-0.01757812,0,-0.0291748,0.002685547,-2.050781,0,0,-2.05481,0,4.077,0,0,0,0,nan,2,0.036,1,0,0.1000061,0.1000061,0.1000061,0.1000061,0,0,0,1,2
6054.852,0.00101,-0.03515625,-0.005859375,-0.001953125,0.203125,3.351562,13.88281,-0.01367188,0.005859375,0.01367188,0.1777344,-0.01757812,0,-0.02929688,0.002563477,-2.050537,0,0,-2.05481,0,4.077,0,0,0,0,nan,2,0.046,1,0,0.1000061,0.1000061,0.1000061,0.1000061,0,0,0,1,2
6054.862,0.00101,-0.00390625,-0.0078125,-0.04296875,-0.4765625,0.546875,6.523438,0,0.005859375,-0.02539062,0.1777344,-0.01757812,0,-0.02929688,0.002685547,-2.050659,0,0,-2.05481,0,4.077,0,0,0,0,nan,2,0.057,1,0,0.1000061,0.1000061,0.1000061,0.1000061,0,0,0,1,2
6054.872,0.000981,0,-0.01953125,-0.04882812,1.578125,-2.976562,11.625,0.009765625,-0.001953125,-0.03710938,0.1777344,-0.01757812,0,-0.02929688,0.002563477,-2.050903,0,0,-2.05481,0,4.077,0,0,0,0,nan,2,0.067,1,0,0.1000061,0.1000061,0.1000061,0.1000061,0,0,0,1,2
6054.882,0.001032,0.01953125,0.06835938,-0.0234375,-1.648438,-2.351562,6.375,0.001953125,0.005859375,-0.02148438,0.1777344,-0.01757812,0,-0.02929688,0.002441406,-2.05127,0,0,-2.05481,0,4.077,0,0,0,0,nan,2,0.004,1,0,0.1000061,0.1000061,0.1000061,0.1000061,0,0,0,1,2
6054.892,0.000993,0.02148438,0.005859375,0.02734375,1.460938,4.117188,8.96875,0.005859375,-0.00390625,0.01757812,0.1777344,-0.01757812,0,-0.02905273,0.002563477,-2.05127,0,0,-2.05481,0,4.077,0,0,0,0,nan,2,0.014,1,0,0.1000061,0.1000061,0.1000061,0.1000061,0,0,0,1,2
6054.902,0.001042,0.001953125,-0.001953125,0.06054688,-2.273438,-0.9375,12.875,0,0.001953125,0.04882812,0.1777344,-0.01757812,0,-0.0291748,0.002685547,-2.050903,0,0,-2.05481,0,4.077,0,0,0,0,nan,2,0.024,1,0,0.1000061,0.1000061,0.1000061,0.1000061,0,0,0,1,2
6054.912,0.00101,0.01757812,-0.01367188,0.06054688,1.453125,1.039062,6.773438,0.005859375,-0.0078125,0.05859375,0.1777344,-0.01757812,0,-0.0291748,0.002685547,-2.050293,0,0,-2.05481,0,4.077,0,0,0,0,nan,2,0.034,1,0,0.1000061,0.1000061,0.1000061,0.1000061,0,0,0,1,2
6054.922,0.00101,0.07226562,-0.08203125,0.046875,-2.070312,2.625,15.47656,0.04296875,-0.01953125,0.04882812,0.1777344,-0.01757812,0,-0.0291748,0.002807617,-2.049683,0,0,-2.049683,0,4.077,0,0,0,0,nan,2,0.044,0,0,0,0,0,0,0,0,0,1,2
6054.933,0.001011,-0.04492188,0.02929688,0.01171875,-0.1015625,-1.53125,4.96875,-0.0078125,0.005859375,0.01953125,0.1777344,-0.01757812,0,-0.02905273,0.002685547,-2.049438,0,0,-2.049438,0,4.077,0,0,0,0,nan,2,0.055,0,0,0,0,0,0,0,0,0,1,2
6054.943,0.001003,0.01757812,-0.06054688,-0.02148438,-0.671875,-0.3125,8.015625,0.005859375,0,-0.01757812,0.1777344,-0.01757812,0,-0.02929688,0.002685547,-2.049438,0,0,-2.049438,0,4.077,0,0,0,0,nan,2,0.065,0,0,0,0,0,0,0,0,0,1,2
6054.952,0.000972,-0.02148438,0.05078125,-0.04882812,0.859375,-1.53125,10.58594,-0.015625,0.01953125,-0.03515625,0.1777344,-0.01757812,0,-0.02929688,0.002685547,-2.049561,0,0,-2.049561,0,4.077,0,0,0,0,nan,2,0.074,0,0,0,0,0,0,0,0,0,1,2
6054.962,0.00101,0,0.04882812,-0.03515625,-0.21875,-2.328125,9.484375,-0.0078125,0.01367188,-0.01953125,0.1777344,-0.01757812,0,-0.0291748,0.003051758,-2.049805,0,0,-2.049805,0,4.077,0,0,0,0,nan,2,0.084,0,0,0,0,0,0,0,0,0,1,2
6054.972,0.00101,0.05859375,0.01171875,-0.02148438,-0.703125,0.3515625,10.45312,-0.001953125,0.01171875,-0.015625,0.1777344,-0.01757812,0,-0.0291748,0.003173828,-2.050049,0,0,-2.050049,0,4.077,0,0,0,0,nan,2,0.094,0,0,0,0,0,0,0,0,0,1,2
6054.982,0.001006,0.0078125,-0.09179688,-0.009765625,1.679688,0.875,6.195312,0.001953125,-0.01171875,-0.01757812,0.1777344,-0.01757812,0,-0.02929688,0.003051758,-2.050293,0,0,-2.050293,0,4.077,0,0,0,0,nan,2,0.104,0,0,0,0,0,0,0,0,0,1,2
6054.992,0.00101,-0.06054688,0.04492188,-0.05664062,-0.015625,-0.9140625,13.38281,0,0.02148438,-0.03710938,0.1777344,-0.01757812,0,-0.02941895,0.003173828,-2.050537,0,0,-2.050537,0,4.077,0,0,0,0,nan,2,0.114,0,0,0,0,0,0,0,0,0,1,2
6055.002,0.000998,-0.015625,-0.00390625,-0.04296875,0.7578125,2.1875,7.734375,-0.009765625,0.01171875,-0.0390625,0.1777344,-0.01757812,0,-0.02929688,0.003295898,-2.050903,0,0,-2.050903,0,4.077,0,0,0,0,nan,2,0.124,0,0,0,0,0,0,0,0,0,1,2
6055.012,0.001034,-0.001953125,-0.0234375,0.01757812,0.09375,-1.351562,9.828125,-0.001953125,-0.015625,-0.005859375,0.1777344,-0.01757812,0,-0.02929688,0.003051758,-2.05127,0,0,-2.05127,0,4.077,0,0,0,0,nan,2,0.134,0,0,0,0,0,0,0,0,0,1,2
6055.022,0.00101,0.02148438,0.02929688,0.01757812,-1,-4.429688,12.59375,0.00390625,-0.00390625,0.0078125,0.1777344,-0.01757812,0,-0.02929688,0.003051758,-2.05127,0,0,-2.05127,0,4.077,0,0,0,0,nan,2,0.144,0,0,0,0,0,0,0,0,0,1,2
6055.032,0.001002,-0.06835938,-0.046875,0.02929688,-1.390625,0.9375,8.3125,-0.015625,-0.005859375,0.015625,0.1777344,-0.01757812,0,-0.02905273,0.003295898,-2.051147,0,0,-2.051147,0,4.077,0,0,0,0,nan,2,0.154,0,0,0,0,0,0,0,0,0,1,2
6055.042,0.001006,-0.01171875,0.03125,0.04492188,-1.351562,-6.5,12.89062,-0.0078125,0,0.03125,0.1777344,-0.01757812,0,-0.02880859,0.003173828,-2.050903,0,0,-2.050903,0,4.077,0,0,0,0,nan,2,0.164,0,0,0,0,0,0,0,0,0,1,2
6055.052,0.000991,-0.05859375,-0.1425781,-0.001953125,2.570312,4.132812,10.71094,0.009765625,-0.02539062,0.015625,0.1777344,-0.01757812,0,-0.02880859,0.003295898,-2.050781,0,0,-2.050781,0,4.077,0,0,0,0,nan,2,0.174,0,0,0,0,0,0,0,0,0,1,2
6055.062,0.001001,0.06835938,-0.02148438,0.03515625,0.234375,-3.75,12.38281,0.015625,0.009765625,0.01367188,0.1777344,-0.01757812,0,-0.02905273,0.003417969,-2.050659,0,0,-2.050659,0,4.077,0,0,0,0,nan,2,0.184,0,0,0,0,0,0,0,0,0,1,2
6055.072,0.001006,0.00390625,-0.04296875,0.01171875,-0.5859375,-8.1875,7.132812,0.009765625,-0.0078125,0.00390625,0.1777344,-0.01757812,0,-0.02929688,0.003295898,-2.050537,0,0,-2.050537,0,4.077,0,0,0,0,nan,2,0.194,0,0,0,0,0,0,0,0,0,1,2
6055.082,0.000984,-0.07226562,-0.1054688,0.03710938,0.09375,-4.21875,5.703125,0.001953125,-0.02539062,0.02539062,0.1777344,-0.01757812,0,-0.0291748,0.003417969,-2.050415,0,0,-2.050415,0,4.077,0,0,0,0,nan,2,0.204,0,0,0,0,0,0,0,0,0,1,2
6055.092,0.001004,-0.03710938,-0.01171875,0.04492188,-2.09375,-3.054688,8.265625,-0.02539062,0.0078125,0.02539062,0.1777344,-0.01757812,0,-0.02978516,0.003540039,-2.050171,0,0,-2.050171,0,4.077,0,0,0,0,nan,2,0.005,0,0,0,0,0,0,0,0,0,1,2
6055.102,0.000969,-0.02734375,-0.04492188,-0.02734375,-1.390625,-6.390625,6.46875,-0.001953125,-0.009765625,-0.0234375,0.1777344,-0.01757812,0,-0.03039551,0.003295898,-2.050171,0,0,-2.050171,0,4.077,0,0,0,0,nan,2,0.015,0,0,0,0,0,0,0,0,0,1,2
6055.112,0.00101,-0.1132812,0.02929688,0.04296875,-0.984375,-6.5,8.0625,-0.01757812,0.009765625,-0.001953125,0.1777344,-0.01757812,0,-0.03039551,0.003051758,-2.050415,0,0,-2.050415,0,4.077,0,0,0,0,nan,2,0.025,0,0,0,0,0,0,0,0,0,1,2
6055.122,0.00101,0.07421875,0.015625,-0.02734375,1.351562,3.039062,11,0.01367188,0,0,0.1777344,-0.01757812,0,-0.03063965,0.003173828,-2.050293,0,0,-2.050293,0,4.077,0,0,0,0,nan,2,0.035,0,0,0,0,0,0,0,0,0,1,2
6055.132,0.001008,-0.00390625,-0.06054688,0.00390625,-0.4375,-4.859375,7.28125,-0.009765625,-0.001953125,0.001953125,0.1777344,-0.01757812,0,-0.03076172,0.003295898,-2.050293,0,0,-2.050293,0,4.077,0,0,0,0,nan,2,0.045,0,0,0,0,0,0,0,0,0,1,2
6055.143,0.001012,0.0234375,-0.009765625,-0.0078125,1.859375,0.921875,11.19531,0.009765625,0.001953125,0.00390625,0.1777344,-0.01757812,0,-0.03039551,0.003295898,-2.050293,0,0,-2.050293,0,4.077,0,0,0,0,nan,2,0.056,0,0,0,0,0,0,0,0,0,1,2
6055.152,0.001007,0.0390625,-0.009765625,-0.03125,1.492188,0.1640625,10.94531,0,0.01171875,-0.01367188,0.1777344,-0.01757812,0,-0.03027344,0.003295898,-2.050293,0,0,-2.050293,0,4.077,0,0,0,0,nan,2,0.065,0,0,0,0,0,0,0,0,0,1,2
6055.162,0.001009,0.0078125,0.00390625,0.009765625,0.4609375,2.046875,10.25781,0.001953125,-0.01757812,0.005859375,0.1777344,-0.01757812,0,-0.03027344,0.003051758,-2.050415,0,0,-2.050415,0,4.077,0,0,0,0,nan,2,0.075,0,0,0,0,0,0,0,0,0,1,2
6055.172,0.00101,-0.0625,-0.04101562,-0.015625,1.109375,-0.296875,8.75,-0.015625,-0.001953125,0.005859375,0.1777344,-0.01757812,0,-0.03015137,0.003295898,-2.050293,0,0,-2.050293,0,4.077,0,0,0,0,nan,2,0.085,0,0,0,0,0,0,0,0,0,1,2
6055.182,0.001009,-0.0390625,0.03710938,-0.01953125,0.796875,-0.6796875,10.64062,0.005859375,0.00390625,-0.02148438,0.1777344,-0.01757812,0,-0.03039551,0.003417969,-2.050415,0,0,-2.050415,0,4.077,0,0,0,0,nan,2,0.095,0,0,0,0,0,0,0,0,0,1,2
6055.192,0.001006,-0.0546875,-0.05078125,-0.005859375,1.539062,-0.6484375,8.296875,-0.00390625,-0.015625,0.00390625,0.1777344,-0.01757812,0,-0.03051758,0.003417969,-2.050415,0,0,-2.050415,0,4.077,0,0,0,0,nan,2,0.105,0,0,0,0,0,0,0,0,0,1,2
6055.202,0.001009,0.1132812,0.015625,-0.01367188,-1.109375,1.148438,10.49219,0.02734375,0.00390625,0.009765625,0.1777344,-0.01757812,0,-0.03039551,0.003540039,-2.050293,0,0,-2.050293,0,4.077,0,0,0,0,nan,2,0.115,0,0,0,0,0,0,0,0,0,1,2
6055.212,0.00101,0.04492188,0.02929688,-0.02148438,0.6640625,-0.40625,9.46875,0.0078125,0.0078125,-0.01367188,0.1777344,-0.01757812,0,-0.03063965,0.003662109,-2.050293,0,0,-2.050293,0,4.077,0,0,0,0,nan,2,0.125,0,0,0,0,0,0,0,0,0,1,2
6055.222,0.001013,-0.0234375,-0.02734375,-0.00390625,0.0390625,0.1015625,9.046875,-0.005859375,0.001953125,-0.00390625,0.1777344,-0.01757812,0,-0.03039551,0.003417969,-2.050415,0,0,-2.050415,0,4.077,0,0,0,0,nan,2,0.135,0,0,0,0,0,0,0,0,0,1,2
6055.233,0.001014,0.015625,0.009765625,-0.005859375,1.359375,-0.859375,9.578125,-0.001953125,-0.001953125,0.015625,0.1777344,-0.01757812,0,-0.03027344,0.003540039,-2.050293,0,0,-2.050293,0,4.077,0,0,0,0,nan,2,0.145,0,0,0,0,0,0,0,0,0,1,2
6055.243,0.001003,0.07421875,-0.01757812,0.00390625,0.1640625,-0.1328125,9.289062,0.00390625,0.005859375,-0.005859375,0.1777344,-0.01757812,0,-0.03027344,0.003540039,-2.050293,0,0,-2.050293,0,4.077,0,0,0,0,nan,2,0.156,0,0,0,0,0,0,0,0,0,1,2
6055.252,0.001007,0.02734375,-0.00390625,0.03320312,-0.296875,-1.015625,10.19531,0.005859375,0,0.005859375,0.1777344,-0.01757812,0,-0.03015137,0.003540039,-2.050415,0,0,-2.050415,0,4.077,0,0,0,0,nan,2,0.165,0,0,0,0,0,0,0,0,0,1,2
6055.262,0.00102,0.0234375,0.02734375,0.0078125,0.0625,-0.875,10.10938,0.0078125,0.001953125,0.005859375,0.1777344,-0.01757812,0,-0.03027344,0.003540039,-2.050293,0,0,-2.050293,0,4.077,0,0,0,0,nan,2,0.175,0,0,0,0,0,0,0,0,0,1,2
6055.272,0.00101,0.03125,-0.001953125,-0.001953125,0.65625,0.015625,9.578125,0.00390625,0.001953125,-0.00390625,0.1777344,-0.01757812,0,-0.03015137,0.003540039,-2.050293,0,0,-2.050293,0,4.077,0,0,0,0,nan,2,0.185,0,0,0,0,0,0,0,0,0,1,2
6055.282,0.000982,0.005859375,-0.00390625,0.03125,-0.03125,-0.203125,10.53125,-0.001953125,-0.00390625,0.001953125,0.1777344,-0.01757812,0,-0.03015137,0.003540039,-2.050293,0,0,-2.050293,0,4.077,0,0,0,0,nan,2,0.195,0,0,0,0,0,0,0,0,0,1,2
6055.292,0.001009,0.01757812,-0.001953125,0,0.1640625,0.1328125,9.125,0.001953125,-0.00390625,-0.001953125,0.1777344,-0.01757812,0,-0.03015137,0.003540039,-2.050293,0,0,-2.050293,0,4.077,0,0,0,0,nan,2,0.001,0,0,0,0,0,0,0,0,0,1,2
6055.302,0.001014,-0.00390625,-0.009765625,0.00390625,-0.796875,-0.265625,10.05469,0.001953125,0.001953125,-0.001953125,0.1777344,-0.01757812,0,-0.03015137,0.003540039,-2.050293,0,0,-2.050293,0,4.077,0,0,0,0,nan,2,0.011,0,0,0,0,0,0,0,0,0,1,2
6055.312,0.000985,0.0078125,0,0.01171875,-0.0234375,-0.46875,9.09375,-0.001953125,0,0,0.1777344,-0.01757812,0,-0.03015137,0.003662109,-2.050293,0,0,-2.050293,0,4.077,0,0,0,0,nan,2,0.021,0,0,0,0,0,0,0,0,0,1,2
6055.323,0.001001,0.00390625,-0.01367188,0.005859375,0.2109375,0.15625,10.21094,0,0,-0.005859375,0.1777344,-0.01757812,0,-0.03015137,0.003662109,-2.050293,0,0,-2.050293,0,4.077,0,0,0,0,nan,2,0.031,0,0,0,0,0,0,0,0,0,1,2
6055.332,0.001113,0.01367188,-0.005859375,-0.0078125,0.4765625,-0.609375,10.60938,0.00390625,0,-0.005859375,0.1777344,-0.01757812,0,-0.03015137,0.003662109,-2.050293,0,0,-2.050293,0,4.077,0,0,0,0,nan,2,0.04,0,0,0,0,0,0,0,0,0,1,2
6055.342,0.000861,0,-0.00390625,-0.009765625,-0.1640625,-0.7890625,10.21875,0.00390625,-0.001953125,0.00390625,0.1777344,-0.01757812,0,-0.03015137,0.003662109,-2.050293,0,0,-2.050293,0,4.077,0,0,0,0,nan,2,0.05,0,0,0,0,0,0,0,0,0,1,2
6055.352,0.000605,0.001953125,-0.001953125,0.009765625,-0.1484375,0.078125,9.6875,-0.001953125,-0.00390625,-0.005859375,0.1777344,-0.01757812,0,-0.03015137,0.003662109,-2.050293,0,0,-2.050293,0,4.077,0,0,0,0,nan,2,0.061,0,0,0,0,0,0,0,0,0,1,2
6055.362,0.001,0.0078125,0,-0.01171875,0.3125,-0.2890625,10.05469,0.001953125,0.001953125,-0.009765625,0.1777344,-0.01757812,0,-0.03015137,0.003662109,-2.050293,0,0,-2.050293,0,4.077,0,0,0,0,nan,2,0.071,0,0,0,0,0,0,0,0,0,1,2
6055.372,0.001584,0.01367188,0.00390625,0.02148438,0.25,-0.0078125,9.976562,0.001953125,0,0.009765625,0.1777344,-0.01757812,0,-0.03015137,0.003662109,-2.050293,0,0,-2.050293,0,4.077,0,0,0,0,nan,2,0.08,0,128,0,0,0,0,0,0,0,1,2
6055.383,0.001664,-0.00390625,-0.001953125,-0.00390625,0.0078125,-0.3125,9.773438,-0.001953125,0.001953125,0,0.1777344,-0.01757812,0,-0.03039551,0.003540039,-2.050293,0,0,-2.050293,0,4.077,0,0,0,0,nan,2,0.092,0,128,0,0,0,0,0,0,0,1,2
6055.392,0.001069,0.009765625,0.001953125,0.0234375,0.078125,-0.6953125,9.8125,0.0078125,0.00390625,0.009765625,0.1777344,-0.01757812,0,-0.03015137,0.003540039,-2.050293,0,0,-2.050293,0,4.077,0,0,0,0,nan,2,0.101,0,128,0,0,0,0,0,0,0,1,2
6055.403,0.001106,0.00390625,0.00390625,0.005859375,0.1640625,-0.1640625,9.8125,-0.001953125,0,0.001953125,0.1777344,-0.01757812,0,-0.03027344,0.003540039,-2.050293,0,0,-2.050293,0,4.077,0,0,0,0,nan,2,0.111,0,128,0,0,0,0,0,0,0,1,2
6055.412,0.001035,0,0.005859375,0.0078125,0.015625,-0.21875,9.890625,-0.001953125,0.00390625,0,0.1777344,-0.01757812,0,-0.03015137,0.003540039,-2.050293,0,0,-2.050293,0,4.077,0,0,0,0,nan,2,0.121,0,128,0,0,0,0,0,0,0,1,2
6055.471,0.055672,0.005859375,0.001953125,0,0.0859375,-0.453125,9.78125,0.0078125,-0.001953125,-0.00390625,0.1777344,-0.01757812,0,-0.03479004,0.0009765625,-2.050537,0,0,-2.050537,0,4.077,0,0,0,0,nan,2,0.18,0,128,0,0,0,0,0,0,0,1,2
6055.472,0.000728,0.00390625,0.00390625,0.00390625,-0.1796875,-0.21875,9.796875,0.0078125,0,-0.001953125,0.1777344,-0.01757812,0,-0.03479004,0.0009765625,-2.050537,0,0,-2.050537,0,4.077,0,0,0,0,nan,2,0.18,0,128,0,0,0,0,0,0,0,1,2
6055.483,0.001175,-0.0078125,-0.001953125,0,0.0546875,-0.34375,9.820312,0,0.001953125,0,0.1777344,-0.01757812,0,-0.03491211,0.0007324219,-2.050537,0,0,-2.050537,0,4.077,0,0,0,0,nan,2,0.191,0,128,0,0,0,0,0,0,0,1,2
6055.492,0.001231,0.00390625,0.001953125,-0.005859375,-0.1171875,-0.2265625,9.867188,0,-0.001953125,-0.001953125,0.1777344,-0.01757812,0,-0.03479004,0.0008544922,-2.050537,0,0,-2.050537,0,4.077,0,0,0,0,nan,2,0.2,0,128,0,0,0,0,0,0,0,1,2
6055.502,0.000898,0,-0.001953125,0.005859375,0.0390625,-0.2265625,9.710938,0,0.001953125,0.001953125,0.1777344,-0.01757812,0,-0.03479004,0.0008544922,-2.050537,0,0,-2.050537,0,4.077,0,0,0,0,nan,2,0.211,0,128,0,0,0,0,0,0,0,1,2
6055.512,0.001112,0.00390625,0.00390625,-0.001953125,-0.0703125,-0.375,9.8125,0.001953125,0,0,0.1777344,-0.01757812,0,-0.0345459,0.0009765625,-2.050537,0,0,-2.050537,0,4.077,0,0,0,0,nan,2,0.006,0,128,0,0,0,0,0,0,0,1,2
6055.522,0.000995,0,0,-0.001953125,-0.03125,-0.21875,9.804688,0,0.001953125,0,0.1777344,-0.01757812,0,-0.03442383,0.001098633,-2.050537,0,0,-2.050537,0,4.077,0,0,0,0,nan,2,0.015,0,128,0,0,0,0,0,0,0,1,2
6055.532,0.000993,-0.001953125,-0.001953125,0.00390625,-0.046875,-0.3203125,9.78125,0,-0.001953125,0.001953125,0.1777344,-0.01757812,0,-0.03430176,0.001098633,-2.050537,0,0,-2.050537,0,4.077,0,0,0,0,nan,2,0.026,0,128,0,0,0,0,0,0,0,1,2
6055.542,0.001103,0.00390625,0.001953125,-0.005859375,-0.0546875,-0.234375,9.796875,0.001953125,0,-0.001953125,0.1777344,-0.01757812,0,-0.03417969,0.001220703,-2.050537,0,0,-2.050537,0,4.077,0,0,0,0,nan,2,0.036,0,128,0,0,0,0,0,0,0,1,2
6055.552,0.001201,0,-0.001953125,0,-0.0546875,-0.3125,9.75,0.001953125,-0.001953125,0,0.1777344,-0.01757812,0,-0.03405762,0.001220703,-2.050537,0,0,-2.050537,0,4.077,0,0,0,0,nan,2,0.046,0,128,0,0,0,0,0,0,0,1,2
6055.563,0.001132,0.00390625,0.00390625,0.001953125,0.03125,-0.265625,9.804688,0.001953125,0.00390625,0,0.1777344,-0.01757812,0,-0.03381348,0.001342773,-2.050537,0,0,-2.050537,0,4.077,0,0,0,0,nan,2,0.056,0,128,0,0,0,0,0,0,0,1,2
6055.572,0.001181,0.001953125,-0.001953125,-0.001953125,-0.0703125,-0.2890625,9.820312,0.001953125,-0.001953125,-0.001953125,0.1777344,-0.01757812,0,-0.03369141,0.001464844,-2.050537,0,0,-2.050537,0,4.077,0,0,0,0,nan,2,0.066,0,128,0,0,0,0,0,0,0,1,2
6055.624,0.052244,-0.001953125,0,0.00390625,-0.03125,-0.265625,9.820312,-0.00390625,0.001953125,0.005859375,0.1777344,-0.01757812,0,-0.0324707,0.001464844,-2.050171,0,0,-2.050171,0,4.077,0,0,0,0,nan,2,0.118,0,128,0,0,0,0,0,0,0,1,2
6055.632,0.00096,0.001953125,-0.001953125,0,-0.03125,-0.296875,9.75,0,0,0,0.1777344,-0.01757812,0,-0.03234863,0.001586914,-2.050171,0,0,-2.050171,0,4.077,0,0,0,0,nan,2,0.126,0,128,0,0,0,0,0,0,0,1,2
6055.642,0.001012,0.001953125,0.001953125,0,-0.03125,-0.296875,9.8125,0,0.001953125,0.001953125,0.1777344,-0.01757812,0,-0.03234863,0.001586914,-2.050171,0,0,-2.050171,0,4.077,0,0,0,0,nan,2,0.136,0,128,0,0,0,0,0,0,0,1,2
6055.652,0.00101,0,0.001953125,0,-0.0234375,-0.25,9.789062,0,0,0,0.1777344,-0.01757812,0,-0.03222656,0.001586914,-2.050171,0,0,-2.050171,0,4.077,0,0,0,0,nan,2,0.146,0,128,0,0,0,0,0,0,0,1,2
6055.662,0.00101,0,0,0,-0.015625,-0.3125,9.84375,0,0,0,0.1777344,-0.01757812,0,-0.03210449,0.001708984,-2.050171,0,0,-2.050171,0,4.077,0,0,0,0,nan,2,0.156,0,128,0,0,0,0,0,0,0,1,2
6055.672,0.001021,0,0,0,-0.0390625,-0.296875,9.835938,0,0,0,0.1777344,-0.01757812,0,-0.03198242,0.001708984,-2.050171,0,0,-2.050171,0,4.077,0,0,0,0,nan,2,0.166,0,128,0,0,0,0,0,0,0,1,2
6055.682,0.001026,0,0.00390625,0.005859375,-0.0234375,-0.3046875,9.789062,0,0.001953125,0.001953125,0.1777344,-0.01757812,0,-0.03198242,0.001708984,-2.050171,0,0,-2.050171,0,4.077,0,0,0,0,nan,2,0.003,0,128,0,0,0,0,0,0,0,1,2
6055.692,0.00101,0,-0.001953125,-0.00390625,0,-0.3125,9.804688,0,0,0,0.1777344,-0.01757812,0,-0.03186035,0.001708984,-2.050049,0,0,-2.050049,0,4.077,0,0,0,0,nan,2,0.013,0,128,0,0,0,0,0,0,0,1,2
6055.702,0.00101,0,0,-0.00390625,-0.0078125,-0.3125,9.804688,0,0,-0.001953125,0.1777344,-0.01757812,0,-0.03186035,0.001708984,-2.050049,0,0,-2.050049,0,4.077,0,0,0,0,nan,2,0.023,0,128,0,0,0,0,0,0,0,1,2
6055.712,0.00101,-0.001953125,-0.001953125,0,-0.0234375,-0.28125,9.835938,-0.001953125,-0.001953125,0,0.1777344,-0.01757812,0,-0.03186035,0.001708984,-2.050049,0,0,-2.050049,0,4.077,0,0,0,0,nan,2,0.033,0,128,0,0,0,0,0,0,0,1,2
6055.722,0.00101,0,-0.001953125,0.001953125,-0.0546875,-0.296875,9.765625,0,0,0,0.1777344,-0.01757812,0,-0.03186035,0.001831055,-2.050049,0,0,-2.050049,0,4.077,0,0,0,0,nan,2,0.043,0,128,0,0,0,0,0,0,0,1,2
6055.732,0.00101,0,0.001953125,0,-0.03125,-0.3203125,9.820312,0,0,0,0.1777344,-0.01757812,0,-0.03173828,0.001831055,-2.050049,0,0,-2.050049,0,4.077,0,0,0,0,nan,2,0.054,0,128,0,0,0,0,0,0,0,1,2
6055.742,0.00101,-0.001953125,-0.001953125,0,-0.046875,-0.3359375,9.882812,-0.001953125,0,0,0.1777344,-0.01757812,0,-0.03173828,0.001953125,-2.050049,0,0,-2.050049,0,4.077,0,0,0,0,nan,2,0.064,0,128,0,0,0,0,0,0,0,1,2
6055.752,0.00101,0,0,0.001953125,-0.0390625,-0.3046875,9.835938,0,0,0,0.1777344,-0.01757812,0,-0.03173828,0.001953125,-2.050049,0,0,-2.050049,0,4.077,0,0,0,0,nan,2,0.074,0,128,0,0,0,0,0,0,0,1,2
6055.762,0.001007,0,0,0,-0.0546875,-0.3125,9.765625,0,0,0,0.1777344,-0.01757812,0,-0.03173828,0.002075195,-2.050049,0,0,-2.050049,0,4.077,0,0,0,0,nan,2,0.084,0,128,0,0,0,0,0,0,0,1,2
6055.773,0.001009,0.001953125,0.001953125,0.001953125,-0.0703125,-0.3046875,9.804688,0,0.001953125,0,0.1777344,-0.01757812,0,-0.03161621,0.002197266,-2.050049,0,0,-2.050049,0,4.077,0,0,0,0,nan,2,0.094,0,128,0,0,0,0,0,0,0,1,2
6055.782,0.001014,-0.001953125,-0.00390625,-0.001953125,-0.0546875,-0.296875,9.84375,-0.001953125,0,0,0.1777344,-0.01757812,0,-0.03161621,0.002197266,-2.050049,0,0,-2.050049,0,4.077,0,0,0,0,nan,2,0.103,0,128,0,0,0,0,0,0,0,1,2
6055.792,0.00101,0.001953125,0.001953125,-0.001953125,-0.0390625,-0.3125,9.773438,0,0,0,0.1777344,-0.01757812,0,-0.03161621,0.002319336,-2.050049,0,0,-2.050049,0,4.077,0,0,0,0,nan,2,0.113,0,128,0,0,0,0,0,0,0,1,2
6055.802,0.00101,-0.001953125,0,0,-0.0234375,-0.3046875,9.820312,0,0,0,0.1777344,-0.01757812,0,-0.03149414,0.002319336,-2.050049,0,0,-2.050049,0,4.077,0,0,0,0,nan,2,0.123,0,128,0,0,0,0,0,0,0,1,2
6055.812,0.00101,-0.001953125,0.001953125,0.001953125,0,-0.3203125,9.828125,-0.001953125,0.001953125,0.001953125,0.1777344,-0.01757812,0,-0.03149414,0.002319336,-2.050049,0,0,-2.050049,0,4.077,0,0,0,0,nan,2,0.133,0,128,0,0,0,0,0,0,0,1,2
6055.822,0.00101,-0.001953125,0.005859375,0,-0.03125,-0.3125,9.804688,-0.001953125,0.00390625,0,0.1777344,-0.01757812,0,-0.03149414,0.002319336,-2.050049,0,0,-2.050049,0,4.077,0,0,0,0,nan,2,0.143,0,128,0,0,0,0,0,0,0,1,2
6055.832,0.00101,0,0,0,-0.0390625,-0.2734375,9.773438,0,0,0,0.1777344,-0.01757812,0,-0.03149414,0.002441406,-2.050049,0,0,-2.050049,0,4.077,0,0,0,0,nan,2,0.153,0,128,0,0,0,0,0,0,0,1,2
6055.842,0.00101,0.001953125,0.001953125,0.001953125,-0.0234375,-0.28125,9.796875,0,0.001953125,0.001953125,0.1777344,-0.01757812,0,-0.03137207,0.002563477,-2.050049,0,0,-2.050049,0,4.077,0,0,0,0,nan,2,0.164,0,128,0,0,0,0,0,0,0,1,2
6055.852,0.000971,0,0.001953125,0,-0.0234375,-0.3125,9.84375,0,0,0,0.1777344,-0.01757812,0,-0.03137207,0.002563477,-2.050049,0,0,-2.050049,0,4.077,0,0,0,0,nan,2,0.174,0,128,0,0,0,0,0,0,0,1,2
6055.863,0.001018,0.001953125,0,0.001953125,-0.0546875,-0.3046875,9.757812,0.001953125,0,0,0.1777344,-0.01757812,0,-0.03125,0.002685547,-2.050049,0,0,-2.050049,0,4.077,0,0,0,0,nan,2,0.184,0,128,0,0,0,0,0,0,0,1,2
6055.872,0.001026,0.00390625,0.001953125,0,-0.0234375,-0.296875,9.773438,0.001953125,0.001953125,0,0.1777344,-0.01757812,0,-0.03125,0.002685547,-2.050049,0,0,-2.050049,0,4.077,0,0,0,0,nan,2,0,0,128,0,0,0,0,0,0,0,1,2
6055.882,0.00098,0,0.001953125,0,-0.015625,-0.3359375,9.796875,-0.001953125,0.001953125,0,0.1777344,-0.01757812,0,-0.03125,0.002685547,-2.050049,0,0,-2.050049,0,4.077,0,0,0,0,nan,2,0.01,0,128,0,0,0,0,0,0,0,1,2
6055.892,0.001035,-0.00390625,0.001953125,0.001953125,-0.015625,-0.3046875,9.734375,-0.001953125,0,0,0.1777344,-0.01757812,0,-0.03125,0.002685547,-2.050049,0,0,-2.050049,0,4.077,0,0,0,0,nan,2,0.02,0,128,0,0,0,0,0,0,0,1,2
6055.902,0.00101,-0.001953125,0.001953125,0,-0.078125,-0.265625,9.820312,-0.001953125,0,0,0.1777344,-0.01757812,0,-0.03112793,0.002685547,-2.050049,0,0,-2.050049,0,4.077,0,0,0,0,nan,2,0.03,0,128,0,0,0,0,0,0,0,1,2
6055.912,0.001009,0,-0.001953125,0,-0.046875,-0.2734375,9.796875,-0.001953125,0,0,0.1777344,-0.01757812,0,-0.03112793,0.002685547,-2.050049,0,0,-2.050049,0,4.077,0,0,0,0,nan,2,0.04,0,128,0,0,0,0,0,0,0,1,2
