t,dt_s,gyro_x,gyro_y,gyro_z,acc_x,acc_y,acc_z,rates.x,rates.y,rates.z,ratesTarget.x,ratesTarget.y,ratesTarget.z,attitude.x,attitude.y,attitude.z,attitudeTarget.x,attitudeTarget.y,attitudeTarget.z,thrustTarget,battery_v,rc_roll,rc_pitch,rc_yaw,rc_throttle,rc_mode,flight_mode,rc_age_s,armed,fault_mask,motor_rl,motor_rr,motor_fr,motor_fl,rate_i_x,rate_i_y,rate_i_z,mix_scale,control_source,accel_correction_confidence
1784.598,0.001003,-0.001953125,0.001953125,0.001953125,0.03125,0.0078125,9.828125,-0.001953125,0.001953125,0.001953125,0.015625,0.001953125,0,-0.0001220703,0,0,0,0,0,0,4.077,0,0,0,0,nan,2,inf,0,0,0,0,0,0,0,0,0,1,1,1
1784.608,0.001003,-0.001953125,0,0,-0.0234375,-0.0078125,9.796875,-0.001953125,0.001953125,0,0.015625,0.001953125,0,-0.0001220703,0,0,0,0,0,0,4.077,0,0,0,0,nan,2,inf,0,0,0,0,0,0,0,0,0,1,1,1
1784.618,0.001003,0,-0.001953125,0,0.03125,-0.0078125,9.773438,0,0,0.001953125,0.015625,0.001953125,0,-0.0001220703,0,0.0001220703,0,0,0.0001220703,0,4.077,0,0,0,0,nan,2,inf,0,0,0,0,0,0,0,0,0,1,1,1
1784.629,0.001003,-0.001953125,-0.001953125,0,0,0.0078125,9.789062,0,-0.001953125,0,0.015625,0.001953125,0,-0.0001220703,0,0.0001220703,0,0,0.0001220703,0,4.077,0,0,0,0,nan,2,inf,0,0,0,0,0,0,0,0,0,1,1,1
1784.639,0.001003,-0.001953125,0.001953125,-0.001953125,-0.0234375,0.0390625,9.851562,-0.001953125,0,0,0.015625,0.001953125,0,-0.0001220703,0,0.0001220703,0,0,0.0001220703,0,4.077,0,0,0,0,nan,2,inf,0,0,0,0,0,0,0,0,0,1,1,1
1784.649,0.001003,0,-0.001953125,-0.00390625,-0.0234375,0.0078125,9.765625,0,0,0,0.015625,0.001953125,0,-0.0001220703,0,0.0001220703,0,0,0.0001220703,0,4.077,0,0,0,0,nan,2,inf,0,0,0,0,0,0,0,0,0,1,1,1
1784.659,0.001002,0,0,0,0.046875,-0.0078125,9.8125,0,0,0,0.015625,0.001953125,0,-0.0001220703,0,0,0,0,0,0,4.077,0,0,0,0,nan,2,inf,0,0,0,0,0,0,0,0,0,1,1,1
1784.668,0.001016,0,0,0,0.0234375,0,9.820312,0,-0.001953125,0,0.015625,0.001953125,0,-0.0001220703,0,0,0,0,0,0,4.077,0,0,0,0,nan,2,inf,0,0,0,0,0,0,0,0,0,1,1,1
1784.678,0.001018,0,0.00390625,-0.001953125,0.0078125,0,9.765625,-0.001953125,0,0,0.015625,0.001953125,0,-0.0001220703,-0.0001220703,0,0,0,0,0,4.077,0,0,0,0,nan,2,inf,0,0,0,0,0,0,0,0,0,1,1,1
1784.688,0.001017,0.001953125,-0.001953125,0.005859375,-0.015625,-0.0078125,9.84375,0.001953125,0,0.00390625,0.015625,0.001953125,0,-0.0001220703,0,0.0001220703,0,0,0.0001220703,0,4.077,0,0,0,0,nan,2,inf,0,0,0,0,0,0,0,0,0,1,1,1
1784.698,0.001017,0.001953125,-0.001953125,-0.001953125,-0.015625,-0.0234375,9.75,0,0,0,0.015625,0.001953125,0,-0.0001220703,0,0.0001220703,0,0,0.0001220703,0,4.077,0,0,0,0,nan,2,inf,0,0,0,0,0,0,0,0,0,1,1,1
1784.708,0.001017,0.001953125,-0.001953125,0,-0.015625,0,9.890625,0,-0.001953125,0,0.015625,0.001953125,0,-0.0001220703,-0.0001220703,0.0001220703,0,0,0.0001220703,0,4.077,0,0,0,0,nan,2,inf,0,0,0,0,0,0,0,0,0,1,1,1
1784.718,0.001017,0.001953125,0,0.001953125,0,-0.0234375,9.765625,0,0,0.001953125,0.015625,0.001953125,0,-0.0001220703,-0.0001220703,0.0001220703,0,0,0.0001220703,0,4.077,0,0,0,0,nan,2,inf,0,0,0,0,0,0,0,0,0,1,1,1
1784.729,0.001017,0.001953125,-0.001953125,0,0,-0.0078125,9.859375,0,0,0,0.015625,0.001953125,0,-0.0001220703,-0.0001220703,0.0001220703,0,0,0.0001220703,0,4.077,0,0,0,0,nan,2,inf,0,0,0,0,0,0,0,0,0,1,1,1
1784.739,0.001017,0.00390625,0,-0.00390625,-0.015625,0.015625,9.789062,0.001953125,0,0,0.015625,0.001953125,0,-0.0001220703,-0.0001220703,0.0001220703,0,0,0.0001220703,0,4.077,0,0,0,0,nan,2,inf,0,0,0,0,0,0,0,0,0,1,1,1
1784.749,0.001017,-0.001953125,0,-0.001953125,0.0078125,0.015625,9.804688,0,0,-0.001953125,0.015625,0.001953125,0,-0.0001220703,-0.0001220703,0.0001220703,0,0,0.0001220703,0,4.077,0,0,0,0,nan,2,inf,0,0,0,0,0,0,0,0,0,1,1,1
1784.759,0.001021,-0.001953125,-0.001953125,-0.00390625,0.0078125,-0.0234375,9.820312,0,-0.001953125,-0.001953125,0.015625,0.001953125,0,-0.0001220703,-0.0001220703,0.0001220703,0,0,0.0001220703,0,4.077,0,0,0,0,nan,2,inf,0,0,0,0,0,0,0,0,0,1,1,1
1784.768,0.001009,0,0.001953125,-0.001953125,0,0.0078125,9.789062,0,0,0,0.015625,0.001953125,0,-0.0001220703,-0.0001220703,0.0001220703,0,0,0.0001220703,0,4.077,0,0,0,0,nan,2,inf,0,0,0,0,0,0,0,0,0,1,1,1
1784.778,0.001011,0.001953125,-0.001953125,0,0.0078125,-0.0234375,9.804688,0,0.001953125,0,0.015625,0.001953125,0,-0.0001220703,-0.0001220703,0.0001220703,0,0,0.0001220703,0,4.077,0,0,0,0,nan,2,inf,0,0,0,0,0,0,0,0,0,1,1,1
1784.788,0.001008,-0.00390625,0.005859375,0.001953125,0.03125,0.015625,9.757812,-0.001953125,0.001953125,0,0.015625,0.001953125,0,-0.0001220703,-0.0001220703,0,0,0,0,0,4.077,0,0,0,0,nan,2,inf,0,0,0,0,0,0,0,0,0,1,1,1
1784.798,0.001023,-0.001953125,-0.001953125,-0.001953125,0,0.0078125,9.84375,0,0,0,0.015625,0.001953125,0,-0.0001220703,-0.0001220703,0.0001220703,0,0,0.0001220703,0,4.077,0,0,0,0,nan,2,inf,0,0,0,0,0,0,0,0,0,1,1,1
1784.808,0.001008,-0.001953125,-0.001953125,0,0.03125,-0.03125,9.851562,-0.001953125,0,0,0.015625,0.001953125,0,-0.0001220703,-0.0001220703,0.0001220703,0,0,0.0001220703,0,4.077,0,0,0,0,nan,2,inf,0,0,0,0,0,0,0,0,0,1,1,1
1784.818,0.001008,0.001953125,-0.001953125,-0.001953125,0,0.0390625,9.84375,0.001953125,0,-0.001953125,0.015625,0.001953125,0,-0.0001220703,-0.0001220703,0.0001220703,0,0,0.0001220703,0,4.077,0,0,0,0,nan,2,inf,0,0,0,0,0,0,0,0,0,1,1,1
1784.829,0.001007,0,-0.001953125,0,0.015625,0.0078125,9.765625,-0.001953125,0,0,0.015625,0.001953125,0,-0.0001220703,-0.0001220703,0,0,0,0,0,4.077,0,0,0,0,nan,2,inf,0,0,0,0,0,0,0,0,0,1,1,1
1784.839,0.001008,0.001953125,-0.001953125,0.00390625,-0.0234375,0,9.828125,0.001953125,0,0.001953125,0.015625,0.001953125,0,-0.0001220703,-0.0001220703,0.0001220703,0,0,0.0001220703,0,4.077,0,0,0,0,nan,2,inf,0,0,0,0,0,0,0,0,0,1,1,1
1784.849,0.001007,0,0,-0.00390625,-0.015625,-0.0234375,9.835938,0,0,0,0.015625,0.001953125,0,-0.0001220703,-0.0001220703,0.0001220703,0,0,0.0001220703,0,4.077,0,0,0,0,nan,2,inf,0,0,0,0,0,0,0,0,0,1,1,1
1784.859,0.001002,0.001953125,-0.00390625,0,-0.0078125,0.03125,9.851562,0,0,0,0.015625,0.001953125,0,-0.0001220703,-0.0001220703,0.0001220703,0,0,0.0001220703,0,4.077,0,0,0,0,nan,2,inf,0,0,0,0,0,0,0,0,0,1,1,1
1784.868,0.001015,0.00390625,-0.00390625,0,0,0.015625,9.742188,0,-0.001953125,0,0.015625,0.001953125,0,0,-0.0001220703,0.0001220703,0,0,0.0001220703,0,4.077,0,0,0,0,nan,2,inf,0,0,0,0,0,0,0,0,0,1,1,1
1784.878,0.00101,-0.001953125,0,0,0.0078125,0.0234375,9.84375,0,0,0,0.015625,0.001953125,0,0,-0.0001220703,0.0001220703,0,0,0.0001220703,0,4.077,0,0,0,0,nan,2,inf,0,0,0,0,0,0,0,0,0,1,1,1
1784.888,0.001013,0.001953125,0,0.001953125,0,0.03125,9.78125,0,0,0,0.015625,0.001953125,0,0,-0.0001220703,0.0001220703,0,0,0.0001220703,0,4.077,0,0,0,0,nan,2,inf,0,0,0,0,0,0,0,0,0,1,1,1
1784.898,0.001012,0,0,0,-0.0078125,-0.015625,9.773438,0,0.001953125,0,0.015625,0.001953125,0,0,-0.0001220703,0.0001220703,0,0,0.0001220703,0,4.077,0,0,0,0,nan,2,inf,0,0,0,0,0,0,0,0,0,1,1,1
1784.908,0.001013,-0.001953125,-0.001953125,-0.001953125,0.015625,-0.03125,9.835938,-0.001953125,0,0,0.015625,0.001953125,0,0,-0.0001220703,0.0001220703,0,0,0.0001220703,0,4.077,0,0,0,0,nan,2,inf,0,0,0,0,0,0,0,0,0,1,1,1
1784.918,0.001012,-0.001953125,0.001953125,0.001953125,0.0390625,0.0078125,9.835938,0,0,0.00390625,0.015625,0.001953125,0,-0.0001220703,-0.0001220703,0.0001220703,0,0,0.0001220703,0,4.077,0,0,0,0,nan,2,inf,0,0,0,0,0,0,0,0,0,1,1,1
1784.929,0.001013,0,-0.001953125,-0.001953125,0.0390625,0.015625,9.796875,0,0,0,0.015625,0.001953125,0,0,-0.0001220703,0.0001220703,0,0,0.0001220703,0,4.077,0,0,0,0,nan,2,inf,0,0,0,0,0,0,0,0,0,1,1,1
1784.939,0.001012,0,0,0,-0.03125,-0.0078125,9.765625,0,0,-0.001953125,0.015625,0.001953125,0,0,-0.0002441406,0.0001220703,0,0,0.0001220703,0,4.077,0,0,0,0,nan,2,inf,0,0,0,0,0,0,0,0,0,1,1,1
1784.949,0.001013,0.001953125,-0.00390625,0.005859375,0,0.03125,9.765625,0,0,0.001953125,0.015625,0.001953125,0,0,-0.0002441406,0.0001220703,0,0,0.0001220703,0,4.077,0,0,0,0,nan,2,inf,0,0,0,0,0,0,0,0,0,1,1,1
1784.959,0.001018,0,0.001953125,-0.001953125,-0.015625,-0.0078125,9.84375,0.001953125,0,0,0.015625,0.001953125,0,0,-0.0002441406,0.0001220703,0,0,0.0001220703,0,4.077,0,0,0,0,nan,2,inf,0,0,0,0,0,0,0,0,0,1,1,1
1784.968,0.001004,0.001953125,-0.001953125,0.001953125,-0.0234375,0.015625,9.796875,0.001953125,0,0,0.015625,0.001953125,0,0,-0.0001220703,0.0001220703,0,0,0.0001220703,0,4.077,0,0,0,0,nan,2,inf,0,0,0,0,0,0,0,0,0,1,1,1
1784.978,0.000997,0.00390625,-0.001953125,0,-0.015625,-0.0078125,9.835938,0.001953125,0,0,0.015625,0.001953125,0,0,-0.0001220703,0.0001220703,0,0,0.0001220703,0,4.077,0,0,0,0,nan,2,inf,0,0,0,0,0,0,0,0,0,1,1,1
1784.988,0.001004,0,-0.00390625,0,-0.0078125,0.015625,9.835938,-0.001953125,-0.001953125,0,0.015625,0.001953125,0,0,-0.0002441406,0.0001220703,0,0,0.0001220703,0,4.077,0,0,0,0,nan,2,inf,0,0,0,0,0,0,0,0,0,1,1,1
1784.998,0.001003,-0.001953125,0,0.00390625,-0.015625,-0.0078125,9.859375,0,-0.001953125,0,0.015625,0.001953125,0,0,-0.0002441406,0.0001220703,0,0,0.0001220703,0,4.077,0,0,0,0,nan,2,inf,0,0,0,0,0,0,0,0,0,1,1,1
1785.008,0.001004,0.001953125,-0.001953125,-0.00390625,-0.0234375,0.0078125,9.835938,0,-0.001953125,-0.001953125,0.015625,0.001953125,0,0,-0.0002441406,0.0001220703,0,0,0.0001220703,0,4.077,0,0,0,0,nan,2,inf,0,0,0,0,0,0,0,0,0,1,1,1
1785.018,0.001012,0,-0.001953125,0,0.0078125,0,9.875,0,0,0,0.015625,0.001953125,0,0,-0.0002441406,0.0001220703,0,0,0.0001220703,0,4.077,0,0,0,0,nan,2,inf,0,0,0,0,0,0,0,0,0,1,1,1
1785.029,0.001011,0,-0.001953125,0.001953125,-0.03125,0,9.820312,-0.001953125,-0.001953125,0.001953125,0.015625,0.001953125,0,-0.0001220703,-0.0002441406,0.0001220703,0,0,0.0001220703,0,4.077,0,0,0,0,nan,2,inf,0,0,0,0,0,0,0,0,0,1,1,1
1785.039,0.001012,0,0.001953125,0,-0.0234375,-0.0078125,9.8125,0,0.001953125,0,0.015625,0.001953125,0,-0.0001220703,-0.0002441406,0.0001220703,0,0,0.0001220703,0,4.077,0,0,0,0,nan,2,inf,0,0,0,0,0,0,0,0,0,1,1,1
1785.049,0.001011,0,0.001953125,0,0.015625,0.0234375,9.78125,0,0,-0.001953125,0.015625,0.001953125,0,-0.0001220703,-0.0002441406,0.0001220703,0,0,0.0001220703,0,4.077,0,0,0,0,nan,2,inf,0,0,0,0,0,0,0,0,0,1,1,1
1785.059,0.001013,0.001953125,-0.00390625,0,-0.0234375,0,9.828125,0,0,0,0.015625,0.001953125,0,-0.0001220703,-0.0002441406,0.0001220703,0,0,0.0001220703,0,4.077,0,0,0,0,nan,2,inf,0,0,0,0,0,0,0,0,0,1,1,1
1785.068,0.001013,0,0,-0.001953125,0,-0.0546875,9.765625,-0.001953125,0.001953125,0,0.015625,0.001953125,0,-0.0001220703,-0.0002441406,0.0001220703,0,0,0.0001220703,0,4.077,0,0,0,0,nan,2,inf,0,0,0,0,0,0,0,0,0,1,1,1
1785.078,0.001004,0,-0.001953125,0.001953125,0.0078125,-0.0234375,9.828125,0,-0.001953125,0,0.015625,0.001953125,0,-0.0001220703,-0.0002441406,0.0001220703,0,0,0.0001220703,0,4.077,0,0,0,0,nan,2,inf,0,0,0,0,0,0,0,0,0,1,1,1
1785.088,0.001012,0,0,0,0.0078125,-0.0078125,9.789062,0,0,0.001953125,0.015625,0.001953125,0,-0.0001220703,-0.0002441406,0.0001220703,0,0,0.0001220703,0,4.077,0,0,0,0,nan,2,inf,0,0,0,0,0,0,0,0,0,1,1,1
1785.098,0.001012,0.001953125,-0.00390625,-0.001953125,0.0078125,0.0078125,9.859375,0.001953125,-0.001953125,0,0.015625,0.001953125,0,-0.0001220703,-0.0002441406,0.0001220703,0,0,0.0001220703,0,4.077,0,0,0,0,nan,2,inf,0,0,0,0,0,0,0,0,0,1,1,1
1785.108,0.001012,0.001953125,0,0,-0.015625,0.03125,9.710938,0,0,0.001953125,0.015625,0.001953125,0,-0.0001220703,-0.0002441406,0.0001220703,0,0,0.0001220703,0,4.077,0,0,0,0,nan,2,inf,0,0,0,0,0,0,0,0,0,1,1,1
1785.118,0.001013,-0.001953125,-0.001953125,-0.001953125,0,-0.03125,9.859375,0,0,0,0.015625,0.001953125,0,-0.0001220703,-0.0002441406,0.0001220703,0,0,0.0001220703,0,4.077,0,0,0,0,nan,2,inf,0,0,0,0,0,0,0,0,0,1,1,1
1785.129,0.001012,0,-0.00390625,0.001953125,-0.0078125,-0.0078125,9.804688,0,0,0,0.015625,0.001953125,0,-0.0001220703,-0.0002441406,0.0001220703,0,0,0.0001220703,0,4.077,0,0,0,0,nan,2,inf,0,0,0,0,0,0,0,0,0,1,1,1
1785.139,0.001012,-0.001953125,0.001953125,-0.001953125,-0.0234375,0.03125,9.796875,0,0,0,0.015625,0.001953125,0,-0.0001220703,-0.0002441406,0.0001220703,0,0,0.0001220703,0,4.077,0,0,0,0,nan,2,inf,0,0,0,0,0,0,0,0,0,1,1,1
1785.149,0.001033,0.001953125,0.001953125,-0.001953125,0.0234375,0,9.796875,0,0,0,0.015625,0.001953125,0,-0.0001220703,-0.0002441406,0.0001220703,0,0,0.0001220703,0,4.077,0,0,0,0,nan,2,inf,0,0,0,0,0,0,0,0,0,1,1,1
1785.159,0.001016,0.001953125,-0.001953125,0,0.0078125,0.015625,9.820312,0,0,0,0.015625,0.001953125,0,0,-0.0002441406,0.0001220703,0,0,0.0001220703,0,4.077,0,0,0,0,nan,2,inf,0,0,0,0,0,0,0,0,0,1,1,1
1785.168,0.001,0.001953125,-0.00390625,0,0,0.0234375,9.78125,0.001953125,-0.001953125,0,0.015625,0.001953125,0,0,-0.0002441406,0.0001220703,0,0,0.0001220703,0,4.077,0,0,0,0,nan,2,inf,0,0,0,0,0,0,0,0,0,1,1,1
1785.178,0.001007,0,0.001953125,0.001953125,-0.015625,-0.0078125,9.8125,0,0.001953125,0,0.015625,0.001953125,0,0,-0.0002441406,0.0001220703,0,0,0.0001220703,0,4.077,0,0,0,0,nan,2,inf,0,0,0,0,0,0,0,0,0,1,1,1
1785.188,0.001008,0.001953125,-0.00390625,-0.001953125,0.015625,0,9.828125,0.001953125,-0.001953125,-0.001953125,0.015625,0.001953125,0,0,-0.0002441406,0.0001220703,0,0,0.0001220703,0,4.077,0,0,0,0,nan,2,inf,0,0,0,0,0,0,0,0,0,1,1,1
1785.198,0.001008,0.005859375,0,0,0.0234375,-0.015625,9.78125,0.001953125,0,0,0.015625,0.001953125,0,0,-0.0002441406,0.0001220703,0,0,0.0001220703,0,4.077,0,0,0,0,nan,2,inf,0,0,0,0,0,0,0,0,0,1,1,1
1785.208,0.001008,0,-0.001953125,0.001953125,0.0390625,-0.046875,9.734375,0,0,0,0.015625,0.001953125,0,0,-0.0002441406,0.0001220703,0,0,0.0001220703,0,4.077,0,0,0,0,nan,2,inf,0,0,0,0,0,0,0,0,0,1,1,1
1785.218,0.000963,0.001953125,-0.00390625,0,0.0078125,-0.0078125,9.757812,0,-0.001953125,0.001953125,0.015625,0.001953125,0,0,-0.0002441406,0.0001220703,0,0,0.0001220703,0,4.077,0,0,0,0,nan,2,inf,0,0,0,0,0,0,0,0,0,1,1,1
1785.229,0.001008,0,-0.00390625,0,-0.0078125,-0.0390625,9.78125,0,0,0,0.015625,0.001953125,0,0,-0.0002441406,0.0001220703,0,0,0.0001220703,0,4.077,0,0,0,0,nan,2,inf,0,0,0,0,0,0,0,0,0,1,1,1
1785.239,0.001008,0,-0.00390625,-0.001953125,0.0078125,0,9.84375,0,-0.001953125,0,0.015625,0.001953125,0,0,-0.0002441406,0.0001220703,0,0,0.0001220703,0,4.077,0,0,0,0,nan,2,inf,0,0,0,0,0,0,0,0,0,1,1,1
1785.249,0.001008,0,0.00390625,0,-0.015625,-0.015625,9.765625,0,0.001953125,0,0.015625,0.001953125,0,0,-0.0002441406,0.0001220703,0,0,0.0001220703,0,4.077,0,0,0,0,nan,2,inf,0,0,0,0,0,0,0,0,0,1,1,1
1785.259,0.001008,-0.00390625,0,0,0,0.015625,9.78125,-0.001953125,0,0,0.015625,0.001953125,0,0,-0.0002441406,0.0001220703,0,0,0.0001220703,0,4.077,0,0,0,0,nan,2,inf,0,0,0,0,0,0,0,0,0,1,1,1
1785.268,0.001009,0.001953125,-0.00390625,0,0.015625,-0.0078125,9.773438,0,0,0,0.015625,0.001953125,0,0,-0.0002441406,0.0001220703,0,0,0.0001220703,0,4.077,0,0,0,0,nan,2,inf,0,0,0,0,0,0,0,0,0,1,1,1
1785.278,0.001034,0.001953125,-0.001953125,0.00390625,0.0234375,-0.0390625,9.804688,0,-0.001953125,0.001953125,0.015625,0.001953125,0,0,-0.0002441406,0.0001220703,0,0,0.0001220703,0,4.077,0,0,0,0,nan,2,inf,0,0,0,0,0,0,0,0,0,1,1,1
1785.288,0.00101,0.001953125,0.001953125,0,0,-0.0078125,9.804688,0,0.001953125,0,0.015625,0.001953125,0,0,-0.0002441406,0.0001220703,0,0,0.0001220703,0,4.077,0,0,0,0,nan,2,inf,0,0,0,0,0,0,0,0,0,1,1,1
1785.298,0.001012,0.001953125,0.005859375,0.001953125,0,0,9.757812,0,0.001953125,0.001953125,0.015625,0.001953125,0,0,-0.0002441406,0.0001220703,0,0,0.0001220703,0,4.077,0,0,0,0,nan,2,inf,0,0,0,0,0,0,0,0,0,1,1,1
1785.308,0.001012,0,0.005859375,0.001953125,-0.0078125,0.0078125,9.796875,0,0.001953125,0.001953125,0.015625,0.001953125,0,0,-0.0002441406,0.0001220703,0,0,0.0001220703,0,4.077,0,0,0,0,nan,2,inf,0,0,0,0,0,0,0,0,0,1,1,1
1785.319,0.001074,-0.001953125,0.00390625,-0.001953125,0.015625,0.0078125,9.78125,0,0.001953125,0,0.015625,0.001953125,0,0,-0.0002441406,0.0001220703,0,0,0.0001220703,0,4.077,0,0,0,0,nan,2,inf,0,0,0,0,0,0,0,0,0,1,1,1
1785.329,0.001012,-0.001953125,-0.00390625,0,-0.0078125,0.0546875,9.828125,-0.001953125,0,0,0.015625,0.001953125,0,0,-0.0002441406,0.0001220703,0,0,0.0001220703,0,4.077,0,0,0,0,nan,2,inf,0,0,0,0,0,0,0,0,0,1,1,1
1785.339,0.001012,0.001953125,0.001953125,0.001953125,0.0234375,-0.0234375,9.851562,0.001953125,0,0.001953125,0.015625,0.001953125,0,0,-0.0002441406,0.0001220703,0,0,0.0001220703,0,4.077,0,0,0,0,nan,2,inf,0,0,0,0,0,0,0,0,0,1,1,1
1785.349,0.001012,0,0,0,0.0078125,-0.0390625,9.773438,0,0.001953125,0,0.015625,0.001953125,0,0,-0.0002441406,0.0001220703,0,0,0.0001220703,0,4.077,0,0,0,0,nan,2,inf,0,0,0,0,0,0,0,0,0,1,1,1
1785.358,0.000965,0,-0.001953125,0,0.0390625,0,9.78125,0,-0.001953125,0,0.015625,0.001953125,0,0,-0.0002441406,0.0001220703,0,0,0.0001220703,0,4.077,0,0,0,0,nan,2,inf,0,0,0,0,0,0,0,0,0,1,1,1
1785.369,0.001015,-0.001953125,0,-0.001953125,0.03125,0.046875,9.867188,0,-0.001953125,0,0.015625,0.001953125,0,0,-0.0002441406,0.0001220703,0,0,0.0001220703,0,4.077,0,0,0,0,nan,2,inf,0,0,0,0,0,0,0,0,0,1,1,1
1785.378,0.001005,0.001953125,-0.001953125,0,0,0.015625,9.789062,0.001953125,0,0,0.015625,0.001953125,0,0,-0.0002441406,0.0001220703,0,0,0.0001220703,0,4.077,0,0,0,0,nan,2,inf,0,0,0,0,0,0,0,0,0,1,1,1
1785.388,0.001002,0.001953125,-0.001953125,0,-0.0078125,0.0546875,9.820312,0,0,0,0.015625,0.001953125,0,0,-0.0002441406,0.0001220703,0,0,0.0001220703,0,4.077,0,0,0,0,nan,2,inf,0,0,0,0,0,0,0,0,0,1,1,1
1785.398,0.001003,0,-0.00390625,0,-0.015625,0.0078125,9.804688,0,-0.001953125,0.001953125,0.015625,0.001953125,0,0,-0.0002441406,0.0001220703,0,0,0.0001220703,0,4.077,0,0,0,0,nan,2,inf,0,0,0,0,0,0,0,0,0,1,1,1
1785.408,0.000978,0,-0.00390625,0,0,0.015625,9.875,0,-0.001953125,0,0.015625,0.001953125,0,0,-0.0002441406,0.0001220703,0,0,0.0001220703,0,4.077,0,0,0,0,nan,2,inf,0,0,0,0,0,0,0,0,0,1,1,1
1785.418,0.001003,0.001953125,0,-0.00390625,0.0234375,0.015625,9.78125,0,0,-0.001953125,0.015625,0.001953125,0,0,-0.0002441406,0.0001220703,0,0,0.0001220703,0,4.077,0,0,0,0,nan,2,inf,0,0,0,0,0,0,0,0,0,1,1,1
1785.429,0.001003,0,0.001953125,0,0,-0.015625,9.820312,0,0,0,0.015625,0.001953125,0,0,-0.0002441406,0.0001220703,0,0,0.0001220703,0,4.077,0,0,0,0,nan,2,inf,0,0,0,0,0,0,0,0,0,1,1,1
1785.439,0.001003,-0.001953125,-0.001953125,0,0.0234375,0.0078125,9.773438,-0.001953125,0,0,0.015625,0.001953125,0,0,-0.0002441406,0.0001220703,0,0,0.0001220703,0,4.077,0,0,0,0,nan,2,inf,0,0,0,0,0,0,0,0,0,1,1,1
1785.449,0.001003,0.001953125,0,0,0.0234375,-0.0078125,9.789062,0,0.001953125,0,0.015625,0.001953125,0,0,-0.0002441406,0.0001220703,0,0,0.0001220703,0,4.077,0,0,0,0,nan,2,inf,0,0,0,0,0,0,0,0,0,1,1,1
1785.459,0.001003,0,0,0.001953125,0.0234375,0.015625,9.796875,0,0,0,0.015625,0.001953125,0,0,-0.0002441406,0.0001220703,0,0,0.0001220703,0,4.077,0,0,0,0,nan,2,inf,0,0,0,0,0,0,0,0,0,1,1,1
1785.468,0.001023,0.001953125,-0.001953125,0,-0.0078125,-0.03125,9.820312,0,0,0,0.015625,0.001953125,0,0,-0.0002441406,0.0001220703,0,0,0.0001220703,0,4.077,0,0,0,0,nan,2,inf,0,0,0,0,0,0,0,0,0,1,1,1
1785.478,0.001017,0.001953125,-0.00390625,-0.00390625,0.015625,-0.0078125,9.804688,0,-0.001953125,0,0.015625,0.001953125,0,0,-0.0002441406,0.0001220703,0,0,0.0001220703,0,4.077,0,0,0,0,nan,2,inf,0,0,0,0,0,0,0,0,0,1,1,1
1785.488,0.001016,0,0.001953125,0,0.015625,0,9.851562,0,0,0,0.015625,0.001953125,0,0,-0.0002441406,0.0001220703,0,0,0.0001220703,0,4.077,0,0,0,0,nan,2,inf,0,0,0,0,0,0,0,0,0,1,1,1
1785.498,0.001019,0,0.001953125,-0.001953125,-0.0234375,-0.0078125,9.742188,0,0,-0.001953125,0.015625,0.001953125,0,0,-0.0002441406,0.0001220703,0,0,0.0001220703,0,4.077,0,0,0,0,nan,2,inf,0,0,0,0,0,0,0,0,0,1,1,1
1785.508,0.001017,-0.001953125,0.001953125,0,-0.015625,0.0078125,9.796875,-0.001953125,0.001953125,0,0.015625,0.001953125,0,0,-0.0002441406,0.0001220703,0,0,0.0001220703,0,4.077,0,0,0,0,nan,2,inf,0,0,0,0,0,0,0,0,0,1,1,1
1785.518,0.001019,0,-0.001953125,0.001953125,-0.0625,0,9.765625,0,0,0,0.015625,0.001953125,0,-0.0001220703,-0.0002441406,0.0001220703,0,0,0.0001220703,0,4.077,0,0,0,0,nan,2,inf,0,0,0,0,0,0,0,0,0,1,1,1
1785.529,0.00098,0,0.00390625,0,-0.0625,-0.0234375,9.78125,-0.001953125,0.001953125,0,0.015625,0.001953125,0,-0.0001220703,-0.0002441406,0.0001220703,0,0,0.0001220703,0,4.077,0,0,0,0,nan,2,inf,0,0,0,0,0,0,0,0,0,1,1,1
1785.539,0.001,0.001953125,-0.001953125,0,-0.0390625,0.0390625,9.757812,0,0,0,0.015625,0.001953125,0,-0.0001220703,-0.0002441406,0.0001220703,0,0,0.0001220703,0,4.077,0,0,0,0,nan,2,inf,0,0,0,0,0,0,0,0,0,1,1,1
1785.549,0.001012,0.001953125,-0.001953125,0.00390625,0.0078125,-0.0234375,9.765625,0.001953125,-0.001953125,0,0.015625,0.001953125,0,-0.0001220703,-0.0002441406,0.0001220703,0,0,0.0001220703,0,4.077,0,0,0,0,nan,2,inf,0,0,0,0,0,0,0,0,0,1,1,1
1785.558,0.001038,0,0.001953125,-0.001953125,-0.0234375,-0.015625,9.851562,0,0.001953125,-0.001953125,0.015625,0.001953125,0,-0.0001220703,-0.0002441406,0.0001220703,0,0,0.0001220703,0,4.077,0,0,0,0,nan,2,inf,0,0,0,0,0,0,0,0,0,1,1,1
1785.569,0.001009,-0.001953125,-0.001953125,-0.001953125,-0.015625,0.0234375,9.851562,0,-0.001953125,0,0.015625,0.001953125,0,-0.0001220703,-0.0002441406,0.0001220703,0,0,0.0001220703,0,4.077,0,0,0,0,nan,2,inf,0,0,0,0,0,0,0,0,0,1,1,1
1785.578,0.001007,0.001953125,0.001953125,0,0.0390625,-0.03125,9.804688,0.001953125,-0.001953125,0,0.015625,0.001953125,0,-0.0001220703,-0.0002441406,0.0001220703,0,0,0.0001220703,0,4.077,0,0,0,0,nan,2,inf,0,0,0,0,0,0,0,0,0,1,1,1
1785.588,0.001003,0,0,-0.001953125,0,0.03125,9.875,0,0,0,0.015625,0.001953125,0,-0.0001220703,-0.0002441406,0.0001220703,0,0,0.0001220703,0,4.077,0,0,0,0,nan,2,inf,0,0,0,0,0,0,0,0,0,1,1,1
1785.598,0.001004,0.001953125,0.00390625,-0.001953125,0,-0.015625,9.789062,0,0.001953125,-0.001953125,0.015625,0.001953125,0,0,-0.0002441406,0.0001220703,0,0,0.0001220703,0,4.077,0,0,0,0,nan,2,inf,0,0,0,0,0,0,0,0,0,1,1,1
1785.608,0.001003,0.001953125,0,0,0.03125,-0.0078125,9.796875,0.001953125,0,0,0.015625,0.001953125,0,0,-0.0002441406,0.0001220703,0,0,0.0001220703,0,4.077,0,0,0,0,nan,2,inf,0,0,0,0,0,0,0,0,0,1,1,1
1785.618,0.000989,0.001953125,0.001953125,0,-0.0078125,-0.0234375,9.75,0.001953125,0,0,0.015625,0.001953125,0,0,-0.0002441406,0.0001220703,0,0,0.0001220703,0,4.077,0,0,0,0,nan,2,inf,0,0,0,0,0,0,0,0,0,1,1,1
1785.628,0.001003,0,0,0,-0.0234375,0,9.867188,0,0,0,0.015625,0.001953125,0,0,-0.0002441406,0.0001220703,0,0,0.0001220703,0,4.077,0,0,0,0,nan,2,inf,0,0,0,0,0,0,0,0,0,1,1,1
1785.639,0.001004,0,0.00390625,0.001953125,0,-0.0078125,9.828125,0,0.001953125,0,0.015625,0.001953125,0,0,-0.0002441406,0.0001220703,0,0,0.0001220703,0,4.077,0,0,0,0,nan,2,inf,0,0,0,0,0,0,0,0,0,1,1,1
1785.649,0.001003,-0.001953125,-0.001953125,0,0.0546875,-0.0234375,9.796875,0,0,0,0.015625,0.001953125,0,0,-0.0002441406,0.0001220703,0,0,0.0001220703,0,4.077,0,0,0,0,nan,2,inf,0,0,0,0,0,0,0,0,0,1,1,1
1785.659,0.001004,0,0.001953125,0,-0.0234375,-0.015625,9.78125,0,0.001953125,0,0.015625,0.001953125,0,0,-0.0002441406,0.0001220703,0,0,0.0001220703,0,4.077,0,0,0,0,nan,2,inf,0,0,0,0,0,0,0,0,0,1,1,1
1785.669,0.001002,-0.001953125,0.001953125,0,-0.015625,-0.0234375,9.804688,0,0,0,0.015625,0.001953125,0,0,-0.0002441406,0.0001220703,0,0,0.0001220703,0,4.077,0,0,0,0,nan,2,inf,0,0,0,0,0,0,0,0,0,1,1,1
1785.678,0.001021,0,-0.001953125,0,-0.0078125,-0.0078125,9.78125,-0.001953125,-0.001953125,0,0.015625,0.001953125,0,-0.0001220703,-0.0002441406,0.0001220703,0,0,0.0001220703,0,4.077,0,0,0,0,nan,2,inf,0,0,0,0,0,0,0,0,0,1,1,1
1785.688,0.001019,0,-0.001953125,-0.001953125,-0.0078125,0.0078125,9.804688,0,-0.001953125,0,0.015625,0.001953125,0,-0.0001220703,-0.0002441406,0.0001220703,0,0,0.0001220703,0,4.077,0,0,0,0,nan,2,inf,0,0,0,0,0,0,0,0,0,1,1,1
1785.698,0.001016,0,0,0,0.0390625,-0.0234375,9.859375,0,0,0,0.015625,0.001953125,0,-0.0001220703,-0.0002441406,0.0001220703,0,0,0.0001220703,0,4.077,0,0,0,0,nan,2,inf,0,0,0,0,0,0,0,0,0,1,1,1
1785.708,0.001017,0,0,0.001953125,0.046875,0.015625,9.820312,0,0,0.001953125,0.015625,0.001953125,0,-0.0001220703,-0.0002441406,0.0001220703,0,0,0.0001220703,0,4.077,0,0,0,0,nan,2,inf,0,0,0,0,0,0,0,0,0,1,1,1
1785.718,0.001016,-0.001953125,0.00390625,0,0,0.015625,9.84375,0,0.001953125,0,0.015625,0.001953125,0,-0.0001220703,-0.0002441406,0.0001220703,0,0,0.0001220703,0,4.077,0,0,0,0,nan,2,inf,0,0,0,0,0,0,0,0,0,1,1,1
1785.729,0.001075,0.001953125,0.001953125,0,-0.0234375,-0.015625,9.820312,0,0,0,0.015625,0.001953125,0,-0.0001220703,-0.0002441406,0.0001220703,0,0,0.0001220703,0,4.077,0,0,0,0,nan,2,inf,0,0,0,0,0,0,0,0,0,1,1,1
1785.739,0.001016,0,0,0,0,0.0078125,9.828125,0,0,0,0.015625,0.001953125,0,-0.0001220703,-0.0002441406,0.0001220703,0,0,0.0001220703,0,4.077,0,0,0,0,nan,2,inf,0,0,0,0,0,0,0,0,0,1,1,1
1785.749,0.001017,-0.001953125,0.00390625,0.001953125,-0.015625,-0.03125,9.84375,-0.001953125,0.001953125,0,0.015625,0.001953125,0,-0.0001220703,-0.0002441406,0.0001220703,0,0,0.0001220703,0,4.077,0,0,0,0,nan,2,inf,0,0,0,0,0,0,0,0,0,1,1,1
1785.759,0.001016,0.001953125,-0.001953125,0,-0.015625,0.0078125,9.859375,0.001953125,0,0,0.015625,0.001953125,0,-0.0001220703,-0.0002441406,0.0001220703,0,0,0.0001220703,0,4.077,0,0,0,0,nan,2,inf,0,0,0,0,0,0,0,0,0,1,1,1
1785.769,0.001021,-0.001953125,-0.001953125,0,0,-0.0078125,9.796875,0,0,0,0.015625,0.001953125,0,-0.0001220703,-0.0002441406,0.0001220703,0,0,0.0001220703,0,4.077,0,0,0,0,nan,2,inf,0,0,0,0,0,0,0,0,0,1,1,1
1785.778,0.001013,0.00390625,0,0.001953125,0.015625,-0.0078125,9.835938,0,0,0.001953125,0.015625,0.001953125,0,-0.0001220703,-0.0002441406,0.0001220703,0,0,0.0001220703,0,4.077,0,0,0,0,nan,2,inf,0,0,0,0,0,0,0,0,0,1,1,1
1785.788,0.001011,-0.001953125,0.001953125,-0.001953125,0.03125,-0.03125,9.804688,-0.001953125,0.001953125,0,0.015625,0.001953125,0,-0.0001220703,-0.0002441406,0.0001220703,0,0,0.0001220703,0,4.077,0,0,0,0,nan,2,inf,0,0,0,0,0,0,0,0,0,1,1,1
1785.798,0.001008,0.001953125,-0.001953125,0,0.0078125,0.015625,9.789062,0.001953125,0,0,0.015625,0.001953125,0,-0.0001220703,-0.0002441406,0.0001220703,0,0,0.0001220703,0,4.077,0,0,0,0,nan,2,inf,0,0,0,0,0,0,0,0,0,1,1,1
1785.808,0.001008,-0.001953125,-0.00390625,0,0.046875,-0.015625,9.796875,0,-0.001953125,0,0.015625,0.001953125,0,-0.0001220703,-0.0002441406,0.0001220703,0,0,0.0001220703,0,4.077,0,0,0,0,nan,2,inf,0,0,0,0,0,0,0,0,0,1,1,1
1785.818,0.001008,0,-0.001953125,0.001953125,0,-0.015625,9.804688,0,-0.001953125,-0.001953125,0.015625,0.001953125,0,-0.0001220703,-0.0002441406,0.0001220703,0,0,0.0001220703,0,4.077,0,0,0,0,nan,2,inf,0,0,0,0,0,0,0,0,0,1,1,1
1785.828,0.001008,-0.001953125,0,0,0.0234375,-0.015625,9.828125,-0.001953125,0,0,0.015625,0.001953125,0,-0.0001220703,-0.0002441406,0.0001220703,0,0,0.0001220703,0,4.077,0,0,0,0,nan,2,inf,0,0,0,0,0,0,0,0,0,1,1,1
1785.839,0.001008,0,0.00390625,0,-0.0234375,0.0234375,9.820312,0,0.001953125,0.001953125,0.015625,0.001953125,0,-0.0001220703,-0.0001220703,0.0001220703,0,0,0.0001220703,0,4.077,0,0,0,0,nan,2,inf,0,0,0,0,0,0,0,0,0,1,1,1
1785.849,0.001008,0,0,0.001953125,-0.0234375,-0.015625,9.78125,0,0.001953125,0,0.015625,0.001953125,0,-0.0001220703,-0.0001220703,0.0001220703,0,0,0.0001220703,0,4.077,0,0,0,0,nan,2,inf,0,0,0,0,0,0,0,0,0,1,1,1
1785.859,0.001008,0,-0.001953125,-0.001953125,0.0546875,0.0078125,9.734375,0,-0.001953125,0,0.015625,0.001953125,0,-0.0001220703,-0.0001220703,0.0001220703,0,0,0.0001220703,0,4.077,0,0,0,0,nan,2,inf,0,0,0,0,0,0,0,0,0,1,1,1
1785.869,0.001006,-0.00390625,-0.001953125,-0.001953125,-0.0078125,0,9.773438,0,-0.001953125,0,0.015625,0.001953125,0,-0.0001220703,-0.0002441406,0.0001220703,0,0,0.0001220703,0,4.077,0,0,0,0,nan,2,inf,0,0,0,0,0,0,0,0,0,1,1,1
1785.878,0.001036,-0.001953125,0.00390625,0,-0.015625,-0.0234375,9.789062,0,0,0,0.015625,0.001953125,0,-0.0001220703,-0.0002441406,0.0001220703,0,0,0.0001220703,0,4.077,0,0,0,0,nan,2,inf,0,0,0,0,0,0,0,0,0,1,1,1
1785.888,0.00101,0.00390625,0.001953125,0,0.0078125,-0.03125,9.84375,0.001953125,0.001953125,0,0.015625,0.001953125,0,-0.0001220703,-0.0001220703,0.0001220703,0,0,0.0001220703,0,4.077,0,0,0,0,nan,2,inf,0,0,0,0,0,0,0,0,0,1,1,1
1785.898,0.001012,-0.001953125,0.00390625,-0.001953125,0.0078125,0.0390625,9.890625,0,0.001953125,-0.001953125,0.015625,0.001953125,0,-0.0001220703,-0.0001220703,0.0001220703,0,0,0.0001220703,0,4.077,0,0,0,0,nan,2,inf,0,0,0,0,0,0,0,0,0,1,1,1
1785.908,0.001012,0.00390625,0,-0.001953125,0.0234375,0.015625,9.867188,0.001953125,0,0,0.015625,0.001953125,0,-0.0001220703,-0.0001220703,0.0001220703,0,0,0.0001220703,0,4.077,0,0,0,0,nan,2,inf,0,0,0,0,0,0,0,0,0,1,1,1
1785.918,0.001012,0.001953125,0,-0.00390625,0.03125,-0.0078125,9.796875,0,0,-0.001953125,0.015625,0.001953125,0,-0.0001220703,-0.0001220703,0.0001220703,0,0,0.0001220703,0,4.077,0,0,0,0,nan,2,inf,0,0,0,0,0,0,0,0,0,1,1,1
1785.928,0.001012,0,-0.001953125,0.001953125,0.015625,0.015625,9.835938,-0.001953125,0,0.001953125,0.015625,0.001953125,0,-0.0001220703,-0.0001220703,0.0001220703,0,0,0.0001220703,0,4.077,0,0,0,0,nan,2,inf,0,0,0,0,0,0,0,0,0,1,1,1
1785.939,0.001012,-0.001953125,-0.001953125,-0.001953125,0.015625,-0.0078125,9.84375,0,-0.001953125,0,0.015625,0.001953125,0,-0.0001220703,-0.0001220703,0.0001220703,0,0,0.0001220703,0,4.077,0,0,0,0,nan,2,inf,0,0,0,0,0,0,0,0,0,1,1,1
1785.949,0.001012,0.001953125,0.001953125,0,-0.046875,-0.0234375,9.851562,0,0.001953125,0,0.015625,0.001953125,0,-0.0001220703,-0.0001220703,0.0001220703,0,0,0.0001220703,0,4.077,0,0,0,0,nan,2,inf,0,0,0,0,0,0,0,0,0,1,1,1
1785.959,0.001012,0.001953125,-0.001953125,0,0.015625,0.0078125,9.804688,0,0,0,0.015625,0.001953125,0,-0.0001220703,-0.0001220703,0.0001220703,0,0,0.0001220703,0,4.077,0,0,0,0,nan,2,inf,0,0,0,0,0,0,0,0,0,1,1,1
1785.969,0.001017,-0.001953125,0,0,0.015625,0.0234375,9.789062,0,0,0,0.015625,0.001953125,0,-0.0001220703,-0.0001220703,0.0001220703,0,0,0.0001220703,0,4.077,0,0,0,0,nan,2,inf,0,0,0,0,0,0,0,0,0,1,1,1
1785.978,0.001012,0,0,-0.001953125,0.0078125,-0.0078125,9.859375,0,0,0,0.015625,0.001953125,0,-0.0001220703,-0.0001220703,0.0001220703,0,0,0.0001220703,0,4.077,0,0,0,0,nan,2,inf,0,0,0,0,0,0,0,0,0,1,1,1
1785.988,0.000997,0,-0.001953125,0.001953125,0.015625,0,9.820312,-0.001953125,0,0,0.015625,0.001953125,0,-0.0001220703,-0.0001220703,0.0001220703,0,0,0.0001220703,0,4.077,0,0,0,0,nan,2,inf,0,0,0,0,0,0,0,0,0,1,1,1
1785.998,0.001003,0,0.001953125,-0.001953125,0.0234375,0,9.835938,0,0,0,0.015625,0.001953125,0,-0.0001220703,-0.0001220703,0.0001220703,0,0,0.0001220703,0,4.077,0,0,0,0,nan,2,inf,0,0,0,0,0,0,0,0,0,1,1,1
1786.008,0.001003,0,0.001953125,0,-0.015625,0.015625,9.835938,0,0,0,0.015625,0.001953125,0,-0.0001220703,-0.0001220703,0.0001220703,0,0,0.0001220703,0,4.077,0,0,0,0,nan,2,inf,0,0,0,0,0,0,0,0,0,1,1,1
1786.018,0.001003,-0.001953125,-0.001953125,0,-0.015625,-0.03125,9.820312,0,0,0,0.015625,0.001953125,0,-0.0001220703,-0.0001220703,0.0001220703,0,0,0.0001220703,0,4.077,0,0,0,0,nan,2,inf,0,0,0,0,0,0,0,0,0,1,1,1
1786.028,0.001003,0,-0.00390625,0,-0.0078125,-0.0078125,9.8125,0,0,0,0.015625,0.001953125,0,-0.0001220703,-0.0001220703,0.0001220703,0,0,0.0001220703,0,4.077,0,0,0,0,nan,2,inf,0,0,0,0,0,0,0,0,0,1,1,1
1786.039,0.001003,-0.001953125,0,0,0,0,9.835938,-0.001953125,0,0,0.015625,0.001953125,0,-0.0001220703,-0.0001220703,0.0001220703,0,0,0.0001220703,0,4.077,0,0,0,0,nan,2,inf,0,0,0,0,0,0,0,0,0,1,1,1
1786.049,0.001003,-0.001953125,0.00390625,0,-0.0234375,0.0234375,9.796875,0,0,0,0.015625,0.001953125,0,-0.0001220703,-0.0001220703,0.0001220703,0,0,0.0001220703,0,4.077,0,0,0,0,nan,2,inf,0,0,0,0,0,0,0,0,0,1,1,1
1786.059,0.001003,0,0.00390625,0,0.0078125,0.0390625,9.757812,0,0.001953125,0,0.015625,0.001953125,0,-0.0001220703,-0.0001220703,0.0001220703,0,0,0.0001220703,0,4.077,0,0,0,0,nan,2,inf,0,0,0,0,0,0,0,0,0,1,1,1
1786.069,0.001005,-0.001953125,0,0.001953125,0.0078125,0.0078125,9.796875,0,0,0,0.015625,0.001953125,0,-0.0001220703,-0.0001220703,0.0001220703,0,0,0.0001220703,0,4.077,0,0,0,0,nan,2,inf,0,0,0,0,0,0,0,0,0,1,1,1
1786.078,0.001033,-0.001953125,-0.001953125,0,0.0078125,0.0078125,9.84375,0,0,0,0.015625,0.001953125,0,-0.0001220703,-0.0001220703,0.0001220703,0,0,0.0001220703,0,4.077,0,0,0,0,nan,2,inf,0,0,0,0,0,0,0,0,0,1,1,1
1786.088,0.001012,0.001953125,-0.001953125,0,-0.0078125,-0.0078125,9.84375,0.001953125,0,0,0.015625,0.001953125,0,-0.0001220703,-0.0001220703,0.0001220703,0,0,0.0001220703,0,4.077,0,0,0,0,nan,2,inf,0,0,0,0,0,0,0,0,0,1,1,1
1786.098,0.001017,0,0,-0.001953125,-0.03125,-0.0078125,9.835938,0,0,0,0.015625,0.001953125,0,-0.0001220703,-0.0001220703,0.0001220703,0,0,0.0001220703,0,4.077,0,0,0,0,nan,2,inf,0,0,0,0,0,0,0,0,0,1,1,1
1786.108,0.001017,0,0,-0.001953125,0.0078125,-0.015625,9.820312,0,0,0,0.015625,0.001953125,0,-0.0001220703,-0.0001220703,0.0001220703,0,0,0.0001220703,0,4.077,0,0,0,0,nan,2,inf,0,0,0,0,0,0,0,0,0,1,1,1
1786.118,0.001019,-0.001953125,0,-0.001953125,-0.0078125,0,9.789062,0,0,0,0.015625,0.001953125,0,-0.0001220703,-0.0001220703,0.0001220703,0,0,0.0001220703,0,4.077,0,0,0,0,nan,2,inf,0,0,0,0,0,0,0,0,0,1,1,1
1786.128,0.001019,0.001953125,0.001953125,0,-0.03125,0.015625,9.773438,0,0,0,0.015625,0.001953125,0,-0.0001220703,-0.0001220703,0.0001220703,0,0,0.0001220703,0,4.077,0,0,0,0,nan,2,inf,0,0,0,0,0,0,0,0,0,1,1,1
1786.139,0.001002,-0.001953125,0.00390625,-0.001953125,-0.0078125,0.015625,9.828125,-0.001953125,0.001953125,0,0.015625,0.001953125,0,-0.0001220703,-0.0001220703,0.0001220703,0,0,0.0001220703,0,4.077,0,0,0,0,nan,2,inf,0,0,0,0,0,0,0,0,0,1,1,1
1786.149,0.001019,-0.005859375,0,-0.00390625,0.0078125,-0.0390625,9.8125,-0.00390625,0,0,0.015625,0.001953125,0,-0.0001220703,-0.0001220703,0.0001220703,0,0,0.0001220703,0,4.077,0,0,0,0,nan,2,inf,0,0,0,0,0,0,0,0,0,1,1,1
1786.159,0.001019,0,0,0.001953125,0,0.015625,9.78125,0,0.001953125,0.001953125,0.015625,0.001953125,0,-0.0001220703,-0.0001220703,0.0001220703,0,0,0.0001220703,0,4.077,0,0,0,0,nan,2,inf,0,0,0,0,0,0,0,0,0,1,1,1
1786.169,0.001019,0.001953125,-0.001953125,0,0.015625,0.0078125,9.835938,0,-0.001953125,0,0.015625,0.001953125,0,-0.0001220703,-0.0001220703,0.0001220703,0,0,0.0001220703,0,4.077,0,0,0,0,nan,2,inf,0,0,0,0,0,0,0,0,0,1,1,1
1786.178,0.001013,0,-0.001953125,0,0.0078125,-0.0390625,9.789062,0,0,0,0.015625,0.001953125,0,-0.0001220703,-0.0001220703,0.0001220703,0,0,0.0001220703,0,4.077,0,0,0,0,nan,2,inf,0,0,0,0,0,0,0,0,0,1,1,1
1786.188,0.001007,-0.001953125,0,0.00390625,0.015625,0.015625,9.78125,0,0,0.001953125,0.015625,0.001953125,0,-0.0001220703,-0.0001220703,0.0001220703,0,0,0.0001220703,0,4.077,0,0,0,0,nan,2,inf,0,0,0,0,0,0,0,0,0,1,1,1
1786.198,0.001008,-0.001953125,0,-0.001953125,-0.0078125,-0.0234375,9.773438,0,0,0,0.015625,0.001953125,0,-0.0001220703,-0.0001220703,0.0002441406,0,0,0.0002441406,0,4.077,0,0,0,0,nan,2,inf,0,0,0,0,0,0,0,0,0,1,1,1
1786.208,0.001007,0,0.001953125,0.001953125,-0.015625,-0.0078125,9.796875,0,0,0,0.015625,0.001953125,0,-0.0001220703,-0.0001220703,0.0002441406,0,0,0.0002441406,0,4.077,0,0,0,0,nan,2,inf,0,0,0,0,0,0,0,0,0,1,1,1
1786.218,0.001008,0,0,-0.001953125,0.0390625,0,9.835938,0,0.001953125,0,0.015625,0.001953125,0,-0.0001220703,-0.0001220703,0.0002441406,0,0,0.0002441406,0,4.077,0,0,0,0,nan,2,inf,0,0,0,0,0,0,0,0,0,1,1,1
1786.228,0.001007,-0.001953125,-0.00390625,0.001953125,0.0234375,-0.0078125,9.84375,0,-0.001953125,0,0.015625,0.001953125,0,-0.0001220703,-0.0001220703,0.0002441406,0,0,0.0002441406,0,4.077,0,0,0,0,nan,2,inf,0,0,0,0,0,0,0,0,0,1,1,1
1786.239,0.001008,0,-0.001953125,-0.001953125,-0.0234375,-0.015625,9.8125,0,0,0,0.015625,0.001953125,0,-0.0001220703,-0.0001220703,0.0002441406,0,0,0.0002441406,0,4.077,0,0,0,0,nan,2,inf,0,0,0,0,0,0,0,0,0,1,1,1
1786.249,0.001007,-0.001953125,0.001953125,0.001953125,0,0,9.796875,-0.001953125,0,0,0.015625,0.001953125,0,-0.0002441406,-0.0001220703,0.0002441406,0,0,0.0002441406,0,4.077,0,0,0,0,nan,2,inf,0,0,0,0,0,0,0,0,0,1,1,1
1786.259,0.001008,0,-0.001953125,0,0.0234375,0.0078125,9.828125,0,0,0,0.015625,0.001953125,0,-0.0002441406,-0.0001220703,0.0002441406,0,0,0.0002441406,0,4.077,0,0,0,0,nan,2,inf,0,0,0,0,0,0,0,0,0,1,1,1
1786.269,0.001009,0,-0.001953125,-0.001953125,0.0390625,0.015625,9.835938,0,0,0,0.015625,0.001953125,0,-0.0002441406,-0.0001220703,0.0002441406,0,0,0.0002441406,0,4.077,0,0,0,0,nan,2,inf,0,0,0,0,0,0,0,0,0,1,1,1
1786.278,0.001005,0.001953125,0.001953125,0,-0.015625,0.015625,9.921875,0.001953125,0.001953125,0,0.015625,0.001953125,0,-0.0002441406,-0.0001220703,0.0002441406,0,0,0.0002441406,0,4.077,0,0,0,0,nan,2,inf,0,0,0,0,0,0,0,0,0,1,1,1
1786.288,0.001013,-0.001953125,0,-0.00390625,-0.015625,-0.0390625,9.78125,0,0.001953125,-0.001953125,0.015625,0.001953125,0,-0.0002441406,-0.0001220703,0.0002441406,0,0,0.0002441406,0,4.077,0,0,0,0,nan,2,inf,0,0,0,0,0,0,0,0,0,1,1,1
1786.298,0.00101,0,0.001953125,-0.001953125,0.015625,0.015625,9.773438,0,0,0,0.015625,0.001953125,0,-0.0002441406,-0.0001220703,0.0002441406,0,0,0.0002441406,0,4.077,0,0,0,0,nan,2,inf,0,0,0,0,0,0,0,0,0,1,1,1
1786.308,0.001012,-0.001953125,0.001953125,0.001953125,0.015625,0.015625,9.882812,0,0,0,0.015625,0.001953125,0,-0.0002441406,-0.0001220703,0.0002441406,0,0,0.0002441406,0,4.077,0,0,0,0,nan,2,inf,0,0,0,0,0,0,0,0,0,1,1,1
1786.318,0.001012,-0.00390625,0,-0.001953125,0.015625,0.0078125,9.78125,-0.001953125,0,0,0.015625,0.001953125,0,-0.0002441406,-0.0001220703,0.0002441406,0,0,0.0002441406,0,4.077,0,0,0,0,nan,2,inf,0,0,0,0,0,0,0,0,0,1,1,1
1786.328,0.001012,0,0,0,-0.0234375,0.0078125,9.804688,0.001953125,0,0,0.015625,0.001953125,0,-0.0002441406,-0.0001220703,0.0002441406,0,0,0.0002441406,0,4.077,0,0,0,0,nan,2,inf,0,0,0,0,0,0,0,0,0,1,1,1
1786.339,0.001012,0.001953125,0,0,0,0.0078125,9.835938,0.001953125,0,0,0.015625,0.001953125,0,-0.0002441406,-0.0001220703,0.0002441406,0,0,0.0002441406,0,4.077,0,0,0,0,nan,2,inf,0,0,0,0,0,0,0,0,0,1,1,1
1786.349,0.001012,0.001953125,0,0.001953125,-0.015625,0,9.78125,0,0,0.001953125,0.015625,0.001953125,0,-0.0002441406,-0.0001220703,0.0002441406,0,0,0.0002441406,0,4.077,0,0,0,0,nan,2,inf,0,0,0,0,0,0,0,0,0,1,1,1
1786.359,0.001012,-0.001953125,0.001953125,0,0,-0.0078125,9.835938,0,0,0,0.015625,0.001953125,0,-0.0002441406,0,0.0002441406,0,0,0.0002441406,0,4.077,0,0,0,0,nan,2,inf,0,0,0,0,0,0,0,0,0,1,1,1
1786.369,0.001013,0,-0.001953125,0.001953125,0.03125,-0.015625,9.789062,-0.001953125,0,0,0.015625,0.001953125,0,-0.0002441406,-0.0001220703,0.0002441406,0,0,0.0002441406,0,4.077,0,0,0,0,nan,2,inf,0,0,0,0,0,0,0,0,0,1,1,1
1786.378,0.001023,0,0,0,0.03125,-0.015625,9.820312,0,0,0,0.015625,0.001953125,0,-0.0002441406,-0.0001220703,0.0002441406,0,0,0.0002441406,0,4.077,0,0,0,0,nan,2,inf,0,0,0,0,0,0,0,0,0,1,1,1
1786.388,0.001011,0.001953125,0.001953125,-0.00390625,-0.015625,-0.0078125,9.796875,0.001953125,0,-0.001953125,0.015625,0.001953125,0,-0.0002441406,-0.0001220703,0.0002441406,0,0,0.0002441406,0,4.077,0,0,0,0,nan,2,inf,0,0,0,0,0,0,0,0,0,1,1,1
1786.398,0.001006,-0.001953125,-0.001953125,-0.001953125,0.0078125,0,9.789062,0,0,-0.001953125,0.015625,0.001953125,0,-0.0002441406,-0.0001220703,0.0002441406,0,0,0.0002441406,0,4.077,0,0,0,0,nan,2,inf,0,0,0,0,0,0,0,0,0,1,1,1
1786.408,0.001008,0.001953125,0,-0.001953125,-0.0234375,0.015625,9.773438,0.001953125,0,-0.001953125,0.015625,0.001953125,0,-0.0002441406,0,0.0001220703,0,0,0.0001220703,0,4.077,0,0,0,0,nan,2,inf,0,0,0,0,0,0,0,0,0,1,1,1
1786.418,0.001008,-0.001953125,0.001953125,0.001953125,0.03125,0,9.796875,0,0.001953125,0.001953125,0.015625,0.001953125,0,-0.0002441406,0,0.0001220703,0,0,0.0001220703,0,4.077,0,0,0,0,nan,2,inf,0,0,0,0,0,0,0,0,0,1,1,1
1786.428,0.001008,0,0,0,-0.015625,-0.03125,9.851562,0,0,0,0.015625,0.001953125,0,-0.0002441406,0,0.0001220703,0,0,0.0001220703,0,4.077,0,0,0,0,nan,2,inf,0,0,0,0,0,0,0,0,0,1,1,1
1786.439,0.001008,0.00390625,0,-0.001953125,0.0234375,-0.015625,9.851562,0,0,0,0.015625,0.001953125,0,-0.0002441406,0,0.0001220703,0,0,0.0001220703,0,4.077,0,0,0,0,nan,2,inf,0,0,0,0,0,0,0,0,0,1,1,1
1786.449,0.001008,0,-0.001953125,0,0,0,9.820312,0,-0.001953125,0,0.015625,0.001953125,0,-0.0002441406,0,0.0001220703,0,0,0.0001220703,0,4.077,0,0,0,0,nan,2,inf,0,0,0,0,0,0,0,0,0,1,1,1
1786.459,0.001008,0,0,0,0.0078125,-0.015625,9.84375,0,0,0.001953125,0.015625,0.001953125,0,-0.0002441406,0,0.0001220703,0,0,0.0001220703,0,4.077,0,0,0,0,nan,2,inf,0,0,0,0,0,0,0,0,0,1,1,1
1786.469,0.001008,0,0,0.001953125,0.03125,0.0234375,9.742188,0,0,0,0.015625,0.001953125,0,-0.0002441406,0,0.0001220703,0,0,0.0001220703,0,4.077,0,0,0,0,nan,2,inf,0,0,0,0,0,0,0,0,0,1,1,1
1786.479,0.001008,0.001953125,0,0,-0.03125,-0.046875,9.851562,0,-0.001953125,0,0.015625,0.001953125,0,-0.0002441406,-0.0001220703,0.0001220703,0,0,0.0001220703,0,4.077,0,0,0,0,nan,2,inf,0,0,0,0,0,0,0,0,0,1,1,1
1786.488,0.001008,-0.001953125,-0.001953125,-0.00390625,0.015625,0,9.820312,0,-0.001953125,-0.001953125,0.015625,0.001953125,0,-0.0002441406,-0.0001220703,0.0001220703,0,0,0.0001220703,0,4.077,0,0,0,0,nan,2,inf,0,0,0,0,0,0,0,0,0,1,1,1
1786.498,0.001007,0.001953125,0,0.001953125,-0.0078125,-0.046875,9.734375,0.001953125,0,0.001953125,0.015625,0.001953125,0,-0.0002441406,-0.0001220703,0.0001220703,0,0,0.0001220703,0,4.077,0,0,0,0,nan,2,inf,0,0,0,0,0,0,0,0,0,1,1,1
1786.508,0.001009,-0.001953125,0,0.001953125,-0.015625,-0.0234375,9.8125,0,-0.001953125,0,0.015625,0.001953125,0,-0.0002441406,-0.0001220703,0.0001220703,0,0,0.0001220703,0,4.077,0,0,0,0,nan,2,inf,0,0,0,0,0,0,0,0,0,1,1,1
1786.518,0.001008,0.001953125,0.00390625,0.001953125,0.0078125,-0.0078125,9.8125,0,0.001953125,0,0.015625,0.001953125,0,-0.0002441406,-0.0001220703,0.0001220703,0,0,0.0001220703,0,4.077,0,0,0,0,nan,2,inf,0,0,0,0,0,0,0,0,0,1,1,1
1786.528,0.001009,-0.001953125,0,0.001953125,-0.0390625,0.0078125,9.796875,0,0,0.001953125,0.015625,0.001953125,0,-0.0002441406,-0.0001220703,0.0001220703,0,0,0.0001220703,0,4.077,0,0,0,0,nan,2,inf,0,0,0,0,0,0,0,0,0,1,1,1
1786.539,0.001008,0,0,0.001953125,-0.0078125,-0.015625,9.804688,0,0,0,0.015625,0.001953125,0,-0.0002441406,-0.0001220703,0.0001220703,0,0,0.0001220703,0,4.077,0,0,0,0,nan,2,inf,0,0,0,0,0,0,0,0,0,1,1,1
1786.549,0.001046,0.001953125,-0.001953125,0,0.015625,-0.03125,9.796875,0,0,0,0.015625,0.001953125,0,-0.0002441406,-0.0001220703,0.0001220703,0,0,0.0001220703,0,4.077,0,0,0,0,nan,2,inf,0,0,0,0,0,0,0,0,0,1,1,1
1786.559,0.000967,0,0.00390625,-0.001953125,0.0078125,0.0078125,9.789062,0,0,0,0.015625,0.001953125,0,-0.0002441406,-0.0001220703,0.0001220703,0,0,0.0001220703,0,4.077,0,0,0,0,nan,2,inf,0,0,0,0,0,0,0,0,0,1,1,1
1786.569,0.001009,-0.001953125,-0.001953125,0.005859375,0.03125,-0.0078125,9.835938,0.001953125,0,0.001953125,0.015625,0.001953125,0,-0.0002441406,-0.0001220703,0.0001220703,0,0,0.0001220703,0,4.077,0,0,0,0,nan,2,inf,0,0,0,0,0,0,0,0,0,1,1,1
1786.578,0.000982,0,0.001953125,0.001953125,0.015625,-0.015625,9.8125,0,0,0.001953125,0.015625,0.001953125,0,-0.0002441406,-0.0001220703,0.0001220703,0,0,0.0001220703,0,4.077,0,0,0,0,nan,2,inf,0,0,0,0,0,0,0,0,0,1,1,1
1786.588,0.001011,0,-0.00390625,0.00390625,0.015625,-0.0078125,9.851562,0,0,0.001953125,0.015625,0.001953125,0,-0.0002441406,-0.0001220703,0.0002441406,0,0,0.0002441406,0,4.077,0,0,0,0,nan,2,inf,0,0,0,0,0,0,0,0,0,1,1,1
1786.598,0.001085,0,-0.001953125,0,-0.015625,-0.0078125,9.828125,0,-0.001953125,0,0.015625,0.001953125,0,-0.0002441406,-0.0001220703,0.0002441406,0,0,0.0002441406,0,4.077,0,0,0,0,nan,2,inf,0,0,0,0,0,0,0,0,0,1,1,1
1786.608,0.001011,0.00390625,0.001953125,0,0.0234375,0.03125,9.867188,0.001953125,0,0,0.015625,0.001953125,0,-0.0002441406,-0.0001220703,0.0002441406,0,0,0.0002441406,0,4.077,0,0,0,0,nan,2,inf,0,0,0,0,0,0,0,0,0,1,1,1
1786.618,0.001005,0.001953125,-0.001953125,-0.001953125,-0.046875,-0.015625,9.828125,0.001953125,0,0,0.015625,0.001953125,0,-0.0002441406,-0.0001220703,0.0002441406,0,0,0.0002441406,0,4.077,0,0,0,0,nan,2,inf,0,0,0,0,0,0,0,0,0,1,1,1
1786.629,0.001014,0,0.00390625,0.001953125,0.015625,-0.015625,9.820312,0.001953125,0,0,0.015625,0.001953125,0,-0.0002441406,-0.0001220703,0.0002441406,0,0,0.0002441406,0,4.077,0,0,0,0,nan,2,0.005,0,0,0,0,0,0,0,0,0,1,2,1
1786.639,0.001052,0,0,-0.001953125,-0.0234375,0.015625,9.835938,-0.001953125,0,0.001953125,0.015625,0.001953125,0,-0.0002441406,-0.0001220703,0.0002441406,0,0,0.0002441406,0,4.077,0,0,0,0,nan,2,0.015,0,0,0,0,0,0,0,0,0,1,2,1
1786.649,0.001009,-0.001953125,0.00390625,-0.001953125,0.0234375,-0.03125,9.8125,0,0,-0.001953125,0.015625,0.001953125,0,-0.0002441406,-0.0001220703,0.0002441406,0,0,0.0002441406,0,4.077,0,0,0,0,nan,2,0.025,0,0,0,0,0,0,0,0,0,1,2,1
1786.659,0.001009,-0.001953125,0,0,0.0078125,0,9.773438,0,0,0,0.015625,0.001953125,0,-0.0002441406,-0.0001220703,0.0002441406,0,0,0.0002441406,0,4.077,0,0,0,0,nan,2,0.035,0,0,0,0,0,0,0,0,0,1,2,1
1786.669,0.001009,0,0,0,-0.015625,-0.0078125,9.734375,0,0,0,0.015625,0.001953125,0,-0.0002441406,-0.0001220703,0.0002441406,0,0,0.0002441406,0,4.077,0,0,0,0,nan,2,0.045,0,0,0,0,0,0,0,0,0,1,2,1
1786.679,0.00101,-0.001953125,-0.001953125,0,0,0.0078125,9.789062,0,0,0,0.015625,0.001953125,0,-0.0002441406,-0.0001220703,0.0002441406,0,0,0.0002441406,0,4.077,0,0,0,0,nan,2,0.056,0,0,0,0,0,0,0,0,0,1,2,1
1786.688,0.001012,0,0,-0.001953125,0.046875,0.015625,9.804688,-0.001953125,-0.001953125,0,0.015625,0.001953125,0,-0.0002441406,-0.0001220703,0.0002441406,0,0,0.0002441406,0,4.077,0,0,0,0,nan,2,0.065,0,0,0,0,0,0,0,0,0,1,2,1
1786.698,0.001011,-0.001953125,0,0,0.0078125,-0.0078125,9.8125,-0.001953125,0,0,0.015625,0.001953125,0,-0.0002441406,-0.0001220703,0.0002441406,0,0,0.0002441406,0,4.077,0,0,0,0,nan,2,0.075,0,0,0,0,0,0,0,0,0,1,2,1
1786.708,0.001011,0,-0.001953125,0,0.015625,0.0078125,9.820312,0,0,0,0.015625,0.001953125,0,-0.0002441406,-0.0001220703,0.0002441406,0,0,0.0002441406,0,4.077,0,0,0,0,nan,2,0.085,0,0,0,0,0,0,0,0,0,1,2,1
1786.718,0.001011,0,0.001953125,0,0.0078125,0,9.773438,0,0,0,0.015625,0.001953125,0,-0.0002441406,-0.0001220703,0.0002441406,0,0,0.0002441406,0,4.077,0,0,0,0,nan,2,0.095,0,0,0,0,0,0,0,0,0,1,2,1
1786.728,0.001011,0.001953125,-0.001953125,0.001953125,0,-0.0078125,9.789062,0,0,0,0.015625,0.001953125,0,-0.0002441406,-0.0001220703,0.0002441406,0,0,0.0002441406,0,4.077,0,0,0,0,nan,2,0.105,0,0,0,0,0,0,0,0,0,1,2,1
1786.738,0.001011,-0.00390625,-0.001953125,0,0.0078125,-0.015625,9.921875,-0.001953125,0,0,0.015625,0.001953125,0,-0.0002441406,-0.0001220703,0.0002441406,0,0,0.0002441406,0,4.077,0,0,0,0,nan,2,0.115,0,0,0,0,0,0,0,0,0,1,2,1
1786.749,0.001011,0,0,0,-0.0234375,0.015625,9.765625,0,0.001953125,0,0.015625,0.001953125,0,-0.0002441406,-0.0001220703,0.0002441406,0,0,0.0002441406,0,4.077,0,0,0,0,nan,2,0.125,0,0,0,0,0,0,0,0,0,1,2,1
1786.759,0.001011,0,-0.001953125,0.001953125,0.03125,-0.0078125,9.804688,0,0,0,0.015625,0.001953125,0,-0.0002441406,-0.0001220703,0.0002441406,0,0,0.0002441406,0,4.077,0,0,0,0,nan,2,0.135,0,0,0,0,0,0,0,0,0,1,2,1
1786.769,0.001011,0,0,-0.001953125,0.015625,0.015625,9.773438,0,0,0,0.015625,0.001953125,0,-0.0002441406,-0.0001220703,0.0002441406,0,0,0.0002441406,0,4.077,0,0,0,0,nan,2,0.145,0,0,0,0,0,0,0,0,0,1,2,1
1786.779,0.001007,0,0,-0.001953125,-0.0078125,-0.0234375,9.828125,0,0.001953125,-0.001953125,0.015625,0.001953125,0,-0.0002441406,-0.0001220703,0.0002441406,0,0,0.0002441406,0,4.077,0,0,0,0,nan,2,0.156,0,0,0,0,0,0,0,0,0,1,2,1
1786.788,0.001012,0.001953125,-0.00390625,-0.001953125,0,0.0078125,9.789062,0,-0.001953125,0,0.015625,0.001953125,0,-0.0002441406,-0.0001220703,0.0001220703,0,0,0.0001220703,0,4.077,0,0,0,0,nan,2,0.165,0,0,0,0,0,0,0,0,0,1,2,1
1786.798,0.000998,0,0.001953125,0,-0.015625,0.015625,9.765625,0.001953125,0,0,0.015625,0.001953125,0,-0.0002441406,-0.0001220703,0.0001220703,0,0,0.0001220703,0,4.077,0,0,0,0,nan,2,0.175,0,0,0,0,0,0,0,0,0,1,2,1
1786.808,0.001009,0,0,0.001953125,0,-0.0078125,9.84375,0,0,0,0.015625,0.001953125,0,-0.0002441406,-0.0001220703,0.0001220703,0,0,0.0001220703,0,4.077,0,0,0,0,nan,2,0.185,0,0,0,0,0,0,0,0,0,1,2,1
1786.818,0.001025,-0.00390625,0,0,-0.0234375,-0.0234375,9.789062,0,0,0,0.015625,0.001953125,0,-0.0002441406,-0.0001220703,0.0001220703,0,0,0.0001220703,0,4.077,0,0,0,0,nan,2,0.195,0,0,0,0,0,0,0,0,0,1,2,1
1786.828,0.001009,0.001953125,0.001953125,0,-0.015625,0.0078125,9.789062,0,0,0,0.015625,0.001953125,0,-0.0002441406,-0.0001220703,0.0001220703,0,0,0.0001220703,0,4.077,0,0,0,0,nan,2,0.205,0,0,0,0,0,0,0,0,0,1,2,1
1786.838,0.001009,-0.001953125,0.001953125,-0.00390625,-0.0234375,0,9.875,0,-0.001953125,-0.001953125,0.015625,0.001953125,0,-0.0002441406,-0.0001220703,0.0001220703,0,0,0.0001220703,0,4.077,0,0,0,0,nan,2,0.215,0,0,0,0,0,0,0,0,0,1,2,1
1786.849,0.001009,-0.001953125,0,0,0,0.015625,9.789062,0,-0.001953125,0,0.015625,0.001953125,0,-0.0002441406,-0.0001220703,0.0001220703,0,0,0.0001220703,0,4.077,0,0,0,0,nan,2,0.225,0,0,0,0,0,0,0,0,0,1,2,1
1786.859,0.001009,0,0.00390625,0,0.0546875,-0.0234375,9.804688,0,0,0.001953125,0.015625,0.001953125,0,-0.0002441406,-0.0001220703,0.0001220703,0,0,0.0001220703,0,4.077,0,0,0,0,nan,2,0.235,0,0,0,0,0,0,0,0,0,1,2,1
1786.869,0.001021,0,0,0.001953125,-0.0078125,0,9.84375,0,0,0.001953125,0.015625,0.001953125,0,-0.0002441406,-0.0001220703,0.0001220703,0,0,0.0001220703,0,4.077,0,0,0,0,nan,2,0.245,0,0,0,0,0,0,0,0,0,1,2,1
1786.878,0.00128,0,-0.001953125,-0.001953125,0.015625,0.0078125,9.773438,-0.001953125,-0.001953125,0,0.015625,0.001953125,0,-0.0002441406,-0.0001220703,0.0002441406,0,0,0.0002441406,0,4.077,0,0,0,0,nan,2,0.255,1,0,0,0,0,0,0,0,0,1,2,1
1786.888,0.001014,0,0.001953125,0.001953125,0.0234375,-0.0078125,9.789062,0.001953125,0,0,0.015625,0.001953125,0,-0.0002441406,-0.0001220703,0.0002441406,0,0,0.0002441406,0,4.077,0,0,0,0,nan,2,0.265,1,0,0,0,0,0,0,0,0,1,2,1
1786.898,0.001009,0,-0.00390625,-0.001953125,0.0234375,0.03125,9.734375,0,-0.001953125,-0.001953125,0.015625,0.001953125,0,-0.0002441406,-0.0001220703,0.0001220703,0,0,0.0002441406,0,4.077,0,0,0,0,nan,2,0.275,1,0,0,0,0,0,0,0,0,1,2,1
1786.908,0.00101,-0.001953125,-0.001953125,0.001953125,-0.0078125,0.0078125,9.78125,0,0,0,0.015625,0.001953125,0,-0.0002441406,-0.0001220703,0.0001220703,0,0,0.0002441406,0,4.077,0,0,0,0,nan,2,0.285,1,0,0,0,0,0,0,0,0,1,2,1
1786.918,0.00101,0,-0.00390625,-0.001953125,0,0.0078125,9.789062,0,-0.001953125,0,0.015625,0.001953125,0,-0.0002441406,-0.0001220703,0.0001220703,0,0,0.0002441406,0,4.077,0,0,0,0,nan,2,0.295,1,0,0,0,0,0,0,0,0,1,2,1
1786.928,0.00101,0,-0.001953125,0,0.0234375,-0.0234375,9.820312,0,0,0,0.015625,0.001953125,0,-0.0002441406,-0.0001220703,0.0001220703,0,0,0.0002441406,0,4.077,0,0,0,0,nan,2,0.305,1,0,0,0,0,0,0,0,0,1,2,1
1786.939,0.00101,0,-0.001953125,0,-0.0234375,-0.03125,9.789062,0,0.001953125,0,0.015625,0.001953125,0,-0.0002441406,-0.0001220703,0.0001220703,0,0,0.0002441406,0,4.077,0,0,0,0,nan,2,0.315,1,0,0,0,0,0,0,0,0,1,2,1
1786.949,0.001043,-0.001953125,0,0,0.0390625,0.0078125,9.804688,-0.001953125,0,0,0.015625,0.001953125,0,-0.0002441406,-0.0001220703,0.0001220703,0,0,0.0002441406,0,4.077,0,0,0,0,nan,2,0.325,1,0,0,0,0,0,0,0,0,1,2,1
1786.959,0.000979,-0.001953125,0.001953125,0,0.03125,0.03125,9.859375,0,0,0,0.015625,0.001953125,0,-0.0002441406,-0.0002441406,0.0001220703,0,0,0.0002441406,0,4.077,0,0,0,0,nan,2,0.335,1,0,0,0,0,0,0,0,0,1,2,1
1786.969,0.00101,0.001953125,0,0.001953125,0,-0.0234375,9.78125,0,0,0.001953125,0.015625,0.001953125,0,-0.0002441406,-0.0001220703,0.0001220703,0,0,0.0002441406,0,4.077,0,0,0,0,nan,2,0.345,1,0,0,0,0,0,0,0,0,1,2,1
1786.979,0.00101,0,-0.001953125,0.001953125,-0.015625,-0.03125,9.804688,0,-0.001953125,0,0.015625,0.001953125,0,-0.0002441406,-0.0001220703,0.0001220703,0,0,0.0002441406,0,4.077,0,0,0,0,nan,2,0.356,1,0,0,0,0,0,0,0,0,1,2,1
1786.988,0.001013,0.001953125,0,-0.001953125,-0.0078125,0,9.835938,0,0,-0.001953125,0.015625,0.001953125,0,-0.0002441406,-0.0001220703,0.0001220703,0,0,0.0002441406,0,4.077,0,0,0,0,nan,2,0.365,1,0,0,0,0,0,0,0,0,1,2,1
1786.998,0.001,0,0.001953125,0,0,0.015625,9.796875,0,0.001953125,-0.001953125,0.015625,0.001953125,0,-0.0002441406,-0.0001220703,0.0001220703,0,0,0.0002441406,0,4.077,0,0,0,0,nan,2,0.375,1,0,0,0,0,0,0,0,0,1,2,1
1787.008,0.001007,0.001953125,0,-0.00390625,-0.0078125,0.015625,9.875,0.001953125,0,-0.001953125,0.015625,0.001953125,0,-0.0002441406,-0.0001220703,0.0001220703,0,0,0.0002441406,0,4.077,0,0,0,0,nan,2,0.385,1,0,0,0,0,0,0,0,0,1,2,1
1787.018,0.001007,-0.001953125,0,-0.001953125,0,-0.0234375,9.8125,0,0,0,0.015625,0.001953125,0,-0.0002441406,-0.0001220703,0.0001220703,0,0,0.0002441406,0,4.077,0,0,0,0,nan,2,0.395,1,0,0,0,0,0,0,0,0,1,2,1
1787.028,0.001007,0,0.001953125,0.001953125,-0.0234375,-0.0390625,9.84375,0,0,0,0.015625,0.001953125,0,-0.0002441406,-0.0001220703,0.0001220703,0,0,0.0002441406,0,4.077,0,0,0,0,nan,2,0.405,1,0,0,0,0,0,0,0,0,1,2,1
1787.038,0.001007,0,-0.001953125,0.001953125,0.015625,-0.0390625,9.789062,0,0,0.001953125,0.015625,0.001953125,0,-0.0002441406,-0.0001220703,0.0001220703,0,0,0.0002441406,0,4.077,0,0,0,0,nan,2,0.415,1,0,0,0,0,0,0,0,0,1,2,1
1787.049,0.001007,-0.001953125,-0.00390625,0.00390625,0.0078125,0.015625,9.796875,0,-0.001953125,0.001953125,0.015625,0.001953125,0,-0.0002441406,-0.0001220703,0.0001220703,0,0,0.0002441406,0,4.077,0,0,0,0,nan,2,0.425,1,0,0,0,0,0,0,0,0,1,2,1
1787.059,0.001007,0.001953125,-0.001953125,-0.00390625,-0.0078125,-0.03125,9.84375,0.001953125,0,-0.001953125,0.015625,0.001953125,0,-0.0002441406,-0.0001220703,0.0001220703,0,0,0.0002441406,0,4.077,0,0,0,0,nan,2,0.435,1,0,0,0,0,0,0,0,0,1,2,1
1787.069,0.001007,0,0.001953125,0,0.0078125,-0.0078125,9.796875,0,0,0,0.015625,0.001953125,0,-0.0002441406,-0.0001220703,0.0001220703,0,0,0.0002441406,0,4.077,0,0,0,0,nan,2,0.445,1,0,0,0,0,0,0,0,0,1,2,1
1787.079,0.00101,-0.001953125,0.00390625,0,0.0625,0.03125,9.796875,0,0.001953125,0,0.015625,0.001953125,0,-0.0002441406,-0.0001220703,0.0001220703,0,0,0.0002441406,0,4.077,0,0,0,0,nan,2,0.456,1,0,0,0,0,0,0,0,0,1,2,1
1787.088,0.001021,0.00390625,0,0,-0.03125,0.0078125,9.820312,0.001953125,0,0,0.015625,0.001953125,0,-0.0002441406,-0.0001220703,0.0001220703,0,0,0.0002441406,0,4.077,0,0,0,0,nan,2,0.465,1,0,0,0,0,0,0,0,0,1,2,1
1787.098,0.001036,0,0,0,0.0078125,-0.0234375,9.75,0.001953125,-0.001953125,-0.001953125,0.015625,0.001953125,0,-0.0001220703,-0.0001220703,0.0001220703,0,0,0.0002441406,0,4.077,0,0,0,0,nan,2,0.475,1,0,0,0,0,0,0,0,0,1,2,1
1787.108,0.000988,0,-0.00390625,-0.001953125,0.0078125,0.046875,9.789062,0,-0.001953125,0,0.015625,0.001953125,0,-0.0001220703,-0.0001220703,0.0001220703,0,0,0.0002441406,0,4.077,0,0,0,0,nan,2,0.485,1,0,0,0,0,0,0,0,0,1,2,1
1787.118,0.001011,-0.001953125,0,0,0,-0.0234375,9.773438,-0.001953125,0,0,0.015625,0.001953125,0,-0.0001220703,-0.0001220703,0.0001220703,0,0,0.0002441406,0,4.077,0,0,0,0,nan,2,0.495,1,0,0,0,0,0,0,0,0,1,2,1
1787.128,0.001011,0,0.001953125,0.005859375,-0.0234375,0.046875,9.804688,0,0,0.001953125,0.015625,0.001953125,0,-0.0001220703,-0.0001220703,0.0001220703,0,0,0.0002441406,0,4.077,0,0,0,0,nan,2,0.505,1,0,0,0,0,0,0,0,0,1,2,1
1787.138,0.001027,0.001953125,0,-0.001953125,0.03125,0.0078125,9.695312,0.001953125,0,0,0,0,0,-0.0001220703,-0.0001220703,0.0001220703,0,0,0.0002441406,0.1421204,4.077,0,0,0,0.09997559,nan,2,0,1,0,0.1419678,0.1421204,0.1423035,0.1419983,0,0,0,1,2,1
1787.149,0.001009,0.00390625,-0.001953125,0.001953125,-0.1484375,0.046875,9.773438,-0.001953125,-0.00390625,0.001953125,0,0,0,-0.0002441406,-0.0002441406,0.0001220703,0,0,0.0002441406,0.1421204,4.077,0,0,0,0.09997559,nan,2,0.011,1,128,0.1468201,0.1369934,0.1471252,0.1374512,0,0,0,1,2,0.9365079
1787.159,0.001008,-0.01171875,-0.01171875,0.001953125,-0.25,0.1640625,9.476562,-0.001953125,-0.001953125,0.001953125,0,0,0,-0.0002441406,-0.0002441406,0.0001220703,0,0,0.0002441406,0.1421204,4.077,0,0,0,0.09997559,nan,2,0.021,1,128,0.1485901,0.1365662,0.1464233,0.1368103,0,0,0,1,2,0.3333333
1787.169,0.001062,0.01171875,-0.02148438,-0.01171875,-0.1640625,-0.109375,9.382812,-0.00390625,-0.001953125,-0.0078125,0,0,0,-0.0002441406,-0.0002441406,0.0001220703,0,0,0.0002441406,0.1421204,4.077,0,0,0,0.09997559,nan,2,0.031,1,128,0.1293945,0.15625,0.1269226,0.1558228,0,0,0,1,2,0.1428571
1787.178,0.001006,-0.02539062,0.0078125,-0.01953125,-0.0703125,0.5078125,9.5625,0.001953125,0,0,0,0,0,-0.0001220703,-0.0002441406,0.0001220703,0,0,0.0002441406,0.1421204,4.077,0,0,0,0.09997559,nan,2,0.04,1,128,0.1390991,0.1438293,0.1392517,0.1462402,0,0,0,1,2,0.4603175
1787.188,0.000966,-0.01953125,0.001953125,0,-0.5703125,-0.53125,10.75781,0.00390625,-0.005859375,-0.001953125,0,0,0,-0.0001220703,-0.0003662109,0.0001220703,0,0,0.0002441406,0.1421204,4.077,0,0,0,0.09997559,nan,2,0.05,1,128,0.1358948,0.1501465,0.1347046,0.1476746,0,0,0,1,2,0
1787.198,0.001015,-0.02148438,0.03320312,0.001953125,-1.492188,-1.96875,9.976562,0.0078125,0.00390625,-0.001953125,0,0.001953125,0,0,-0.0003662109,0.0001220703,0,0,0.0002441406,0.1421204,4.077,0,0,0,0.09997559,nan,2,0.007,1,128,0.1357422,0.1459656,0.1384277,0.1482849,0,0,0,1,2,0.04761905
1787.208,0.001008,-0.0078125,0.009765625,0.03125,-0.4140625,-6.023438,12.07812,0.005859375,0.00390625,0.005859375,0,0,0,0,-0.0003662109,0.0001220703,0,0,0.0002441406,0.1421204,4.077,0,0,0,0.09997559,nan,2,0.017,1,128,0.1500854,0.1328125,0.1528931,0.1326294,0,0,0,1,2,0
1787.218,0.001007,0.0390625,0,-0.015625,-1.914062,3.226562,11.25781,0,0.001953125,-0.00390625,0,0,0,0.0001220703,-0.0003662109,0.0001220703,0,0,0.0002441406,0.1421204,4.077,0,0,0,0.09997559,nan,2,0.027,1,128,0.1328735,0.1508179,0.132782,0.151947,0,0,0,1,2,0
1787.228,0.001007,0.00390625,-0.01757812,-0.00390625,-1.859375,2.132812,14.00781,-0.001953125,-0.00390625,0,0,0,0,0,-0.0002441406,0.0001220703,0,0,0.0002441406,0.1421204,4.077,0,0,0,0.09997559,nan,2,0.037,1,128,0.1447754,0.1421509,0.1416931,0.1398315,0,0,0,1,2,0
1787.239,0.000942,-0.01367188,0.02539062,0.00390625,-0.6484375,1.382812,8.570312,-0.005859375,0.005859375,0,0,0,0,0,-0.0003662109,0.0001220703,0,0,0.0002441406,0.1421204,4.077,0,0,0,0.09997559,nan,2,0.047,1,128,0.1428223,0.1366272,0.1443176,0.1446838,0,0,0,1,2,0
1787.249,0.001055,-0.0078125,0.02734375,0.0078125,0.015625,-0.3671875,11.05469,-0.00390625,0.001953125,0.009765625,0,0,0,0,-0.0002441406,0.0002441406,0,0,0.0002441406,0.1421204,4.077,0,0,0,0.09997559,nan,2,0.058,1,128,0.150177,0.1341858,0.1497803,0.1342773,0,0,0,1,2,0
1787.259,0.001017,-0.02539062,0.04492188,-0.01171875,0.390625,-0.3984375,9.65625,-0.009765625,0.0078125,0,0,0,0,-0.0001220703,-0.0003662109,0.0002441406,0,0,0.0002441406,0.1421204,4.077,0,0,0,0.09997559,nan,2,0.068,1,128,0.1300354,0.1490173,0.1321411,0.1572571,0,0,0,1,2,0.6984127
1787.268,0.001031,0.015625,-0.03125,0,0.3359375,-0.4765625,9.664062,0.001953125,0,-0.005859375,0,0,0,-0.0001220703,-0.0002441406,0.0002441406,0,0,0.0002441406,0.1421204,4.077,0,0,0,0.09997559,nan,2,0.077,1,128,0.1384277,0.1476135,0.1398926,0.1425171,0,0,0,1,2,0.7142857
1787.278,0.001037,0.001953125,-0.009765625,-0.00390625,-0.046875,-0.7734375,9.992188,0,-0.001953125,0,0,0,0,-0.0001220703,-0.0002441406,0.0002441406,0,0,0.0002441406,0.1421204,4.077,0,0,0,0.09997559,nan,2,0.002,1,128,0.1458435,0.1407776,0.1439514,0.1378479,0,0,0,1,2,0.5555556
1787.288,0.00105,-0.02539062,-0.01953125,0.0078125,-0.203125,1.328125,9.21875,-0.01367188,-0.001953125,0.00390625,0,0,0,-0.0001220703,-0.0002441406,0.0002441406,0,0,0.0002441406,0.1421204,4.077,0,0,0,0.09997559,nan,2,0.012,1,128,0.1488037,0.1364441,0.1417236,0.1414795,0,0,0,1,2,0
1787.298,0.001004,-0.015625,0.009765625,0.015625,-0.0390625,0.9375,10.40625,-0.015625,-0.0078125,0.01171875,0,0,0,-0.0003662109,-0.0002441406,0.0003662109,0,0,0.0002441406,0.1421204,4.077,0,0,0,0.09997559,nan,2,0.022,1,128,0.158905,0.1276245,0.1540222,0.1278687,0,0,0,1,2,0
1787.308,0.000982,-0.005859375,-0.0234375,0.04882812,-0.8515625,4.078125,13.57031,0.00390625,-0.01171875,0.0390625,0.001953125,0.001953125,0,-0.0002441406,-0.0003662109,0.0006103516,0,0,0.0002441406,0.1421204,4.077,0,0,0,0.09997559,nan,2,0.032,1,128,0.1806335,0.1084595,0.1755066,0.1038513,0,0,0,1,2,0
1787.318,0.001008,-0.0078125,0.009765625,0.05078125,-0.6796875,3.890625,12.26562,-0.00390625,0.0078125,0.05664062,0.001953125,0.001953125,0,-0.0002441406,-0.0003662109,0.001098633,0,0,0.0002441406,0.1421204,4.077,0,0,0,0.09997559,nan,2,0.007,1,128,0.1699524,0.111084,0.1719666,0.1154175,0,0,0,1,2,0
1787.328,0.001008,0.01953125,0.0078125,-0.01953125,1.085938,-3.828125,9.757812,0.005859375,0.009765625,0.0078125,0,0,0,-0.0002441406,-0.0002441406,0.001464844,0,0,0.0002441406,0.1421204,4.077,0,0,0,0.09997559,nan,2,0.017,1,128,0.09512329,0.1867065,0.09979248,0.1867981,0,0,0,1,2,0
1787.339,0.001028,0.01171875,-0.02734375,-0.00390625,-1.382812,0.6328125,14.25,0.01171875,-0.009765625,-0.0078125,0,0,0,-0.0001220703,-0.0002441406,0.001342773,0,0,0.0002441406,0.1421204,4.077,0,0,0,0.09997559,nan,2,0.027,1,128,0.1339722,0.1545105,0.1315613,0.1483459,0,0,0,1,2,0
1787.349,0.001008,-0.03125,0.04101562,-0.0078125,1.960938,1.1875,6.585938,-0.01171875,0.0234375,-0.005859375,0,0,0,-0.0001220703,-0.0002441406,0.001342773,0,0,0.0002441406,0.1421204,4.077,0,0,0,0.09997559,nan,2,0.037,1,128,0.1363525,0.1384888,0.1402588,0.1532898,0,0,0,1,2,0
1787.359,0.001031,0.02734375,0.005859375,-0.015625,-0.7890625,0.8046875,9.710938,0,0.009765625,-0.01757812,0,0,0,-0.0002441406,0,0.001220703,0,0,0.0002441406,0.1421204,4.077,0,0,0,0.09997559,nan,2,0.047,1,128,0.1271667,0.1578369,0.131012,0.1524048,0,0,0,1,2,0.9206349
1787.368,0.001014,-0.01367188,0.0078125,-0.01953125,0.6328125,-0.3984375,7.289062,-0.001953125,0.00390625,-0.0234375,0,0,0,-0.0001220703,0,0.0009765625,0,0,0.0002441406,0.1421204,4.077,0,0,0,0.09997559,nan,2,0.003,1,128,0.1376953,0.1465454,0.1349792,0.1492004,0,0,0,1,2,0
1787.378,0.001046,0.009765625,-0.0234375,0.02148438,-0.875,-1.320312,2.28125,-0.001953125,-0.005859375,0.0078125,0,0,0,-0.0002441406,0,0.0008544922,0,0,0.0002441406,0.1421204,4.077,0,0,0,0.09997559,nan,2,0.013,1,128,0.1789246,0.1099548,0.176178,0.103363,0,0,0,1,2,0
1787.388,0.0009869999,-0.03125,0.001953125,-0.00390625,-1.46875,4.9375,10.80469,-0.046875,-0.005859375,0.0078125,0.00390625,0,0,-0.0006103516,-0.0001220703,0.0009765625,0,0,0.0002441406,0.1421204,4.077,0,0,0,0.09997559,nan,2,0.023,1,128,0.1469727,0.1355591,0.1365967,0.149292,0,0,0,1,2,0
1787.398,0.001006,0.00390625,0.02734375,0.02148438,-1.015625,-5.117188,12.11719,0,-0.009765625,0.01171875,0.005859375,0,0,-0.0008544922,-0.0001220703,0.0009765625,0,0,0.0002441406,0.1421204,4.077,0,0,0,0.09997559,nan,2,0.033,1,128,0.1589661,0.1265869,0.1651306,0.1177368,0,0,0,1,2,0
1787.408,0.001002,0.001953125,0.01171875,0.03125,-1.164062,-5.109375,11.19531,0,0.001953125,0.02148438,0.005859375,0.001953125,0,-0.0008544922,-0.0001220703,0.001220703,0,0,0.0002441406,0.1421204,4.077,0,0,0,0.09997559,nan,2,0.004,1,128,0.15802,0.1238098,0.1605835,0.1260071,0,0,0,1,2,0
1787.418,0.001025,0.009765625,0.015625,0.02539062,-1.242188,-4.664062,12.20312,0.005859375,0.005859375,0.02539062,0.005859375,0.001953125,0,-0.0008544922,-0.0001220703,0.001464844,0,0,0.0002441406,0.1421204,4.077,0,0,0,0.09997559,nan,2,0.014,1,128,0.1495667,0.1327515,0.1526794,0.1333923,0,0,0,1,2,0
1787.428,0.000995,0.04296875,-0.04882812,0.001953125,-0.78125,-3.210938,13.29688,0.01757812,-0.015625,0.01367188,0.00390625,0.001953125,0,-0.0007324219,-0.0001220703,0.001586914,0,0,0.0002441406,0.1421204,4.077,0,0,0,0.09997559,nan,2,0.024,1,128,0.1339417,0.1578064,0.1315918,0.1450806,0,0,0,1,2,0
1787.439,0.001047,0.0078125,-0.05078125,0.00390625,-1.578125,-0.3984375,14.96094,-0.00390625,-0.02148438,-0.001953125,0.00390625,0.001953125,0,-0.0006103516,-0.0003662109,0.001586914,0,0,0.0002441406,0.1421204,4.077,0,0,0,0.09997559,nan,2,0.034,1,128,0.1375732,0.1543274,0.1254272,0.1510925,0,0,0,1,2,0
1787.449,0.00099,-0.01171875,-0.0078125,-0.01367188,-0.46875,2.164062,12.60938,0.00390625,-0.01367188,-0.015625,0.00390625,0.001953125,0,-0.0007324219,-0.0004882812,0.001586914,0,0,0.0002441406,0.1421204,4.077,0,0,0,0.09997559,nan,2,0.001,1,128,0.1280518,0.1576538,0.1266785,0.1560059,0,0,0,1,2,0
1787.459,0.001007,-0.05664062,0.03320312,-0.015625,1.625,4.835938,10.15625,-0.01367188,0.015625,-0.0234375,0.00390625,0.00390625,0,-0.0006103516,-0.0004882812,0.001342773,0,0,0.0002441406,0.1421204,4.077,0,0,0,0.09997559,nan,2,0.011,1,128,0.1317139,0.1435547,0.1302795,0.1628723,0,0,0,1,2,0
1787.469,0.001066,0.01757812,0.02148438,0.01367188,-2.773438,2.75,13.33594,-0.015625,0.01367188,0,0.005859375,0.001953125,0,-0.0009765625,-0.0003662109,0.001220703,0,0,0.0002441406,0.1421204,4.077,0,0,0,0.09997559,nan,2,0.021,1,128,0.1622314,0.1219177,0.1638489,0.1204529,0,0,0,1,2,0
1787.478,0.000949,-0.0078125,0.009765625,0.01757812,3.046875,-1.703125,4.914062,-0.01953125,0.01953125,0.01367188,0.005859375,0.001953125,0,-0.001098633,-0.0002441406,0.001342773,0,0,0.0002441406,0.1421204,4.077,0,0,0,0.09997559,nan,2,0.03,1,128,0.1574097,0.123291,0.1564941,0.1312256,0,0,0,1,2,0
1787.488,0.001026,0.06445312,-0.05078125,0.0078125,0.71875,-5.070312,12.11719,0.06054688,-0.05664062,0.01171875,0.00390625,0.001953125,0,-0.0008544922,-0.0004882812,0.001464844,0,0,0.0002441406,0.1421204,4.077,0,0,0,0.09997559,nan,2,0.04,1,128,0.1422729,0.1591797,0.1442566,0.1227112,0,0,0,1,2,0
1787.498,0.001012,0.015625,0.015625,-0.02148438,-2.953125,2.882812,14.41406,0.0234375,-0.015625,-0.015625,0.00390625,0.005859375,0,-0.0006103516,-0.0008544922,0.001342773,0,0,0.0002441406,0.1421204,4.077,0,0,0,0.09997559,nan,2,0.005,1,128,0.115509,0.1637573,0.1223145,0.1668091,0,0,0,1,2,0
1787.508,0.001008,-0.0078125,-0.01171875,0.0078125,-0.4375,5,13.46094,-0.001953125,-0.00390625,-0.001953125,0.00390625,0.005859375,0,-0.0006103516,-0.0008544922,0.001220703,0,0,0.0002441406,0.1421204,4.077,0,0,0,0.09997559,nan,2,0.015,1,128,0.1604919,0.1258545,0.1542358,0.1278687,0,0,0,1,2,0
1787.519,0.001068,-0.001953125,-0.005859375,0.02734375,1.046875,5.382812,13.39844,0,0,0.015625,0.00390625,0.00390625,0,-0.0006103516,-0.0007324219,0.001342773,0,0,0.0002441406,0.1421204,4.077,0,0,0,0.09997559,nan,2,0.025,1,128,0.1707458,0.1167908,0.1660461,0.1148376,0,0,0,1,2,0
1787.528,0.001008,0.005859375,0.0078125,0.05273438,-2.351562,-5.671875,5.726562,0.005859375,0.00390625,0.03710938,0.00390625,0.005859375,0,-0.0004882812,-0.0008544922,0.001586914,0,0,0.0002441406,0.1421204,4.077,0,0,0,0.09997559,nan,2,0.035,1,128,0.1778259,0.1050415,0.1792297,0.1063232,0,0,0,1,2,0
1787.539,0.001007,-0.0546875,0.046875,0.03515625,3.3125,1,8.398438,-0.0390625,0.0234375,0.0390625,0.00390625,0.00390625,0,-0.0006103516,-0.0007324219,0.001953125,0,0,0.0002441406,0.1421204,4.077,0,0,0,0.09997559,nan,2,0.045,1,128,0.1565247,0.1187439,0.1498413,0.1433105,0,0,0,1,2,0
1787.549,0.001041,0.02734375,-0.02539062,0.01757812,-2.492188,1.359375,14.72656,0.0078125,-0.01953125,0.03515625,0.00390625,0.00390625,0,-0.0007324219,-0.0007324219,0.002441406,0,0,0.0002441406,0.1421204,4.077,0,0,0,0.09997559,nan,2,0.056,1,128,0.143158,0.150116,0.1400452,0.1351013,0,0,0,1,2,0
1787.559,0.001008,-0.00390625,-0.0078125,0.001953125,0.203125,-2.703125,5.070312,0.005859375,-0.01953125,0.0078125,0.00390625,0.005859375,0,-0.0007324219,-0.0009765625,0.002563477,0,0,0.0002441406,0.1421204,4.077,0,0,0,0.09997559,nan,2,0.066,1,128,0.1276245,0.1610107,0.1228333,0.1569824,0,0,0,1,2,0
1787.569,0.001008,-0.03320312,0.01757812,-0.0078125,1.328125,-1,13.96094,-0.01367188,0.02148438,-0.005859375,0.00390625,0.005859375,0,-0.0007324219,-0.0008544922,0.002563477,0,0,0.0002441406,0.1421204,4.077,0,0,0,0.09997559,nan,2,0.076,1,128,0.1294861,0.146698,0.1325073,0.159729,0,0,0,1,2,0
1787.578,0.001034,0.015625,0.01757812,0.01953125,-0.6796875,-1.976562,0.8828125,0.005859375,0.015625,0,0.005859375,0.00390625,0,-0.0008544922,-0.0007324219,0.002563477,0,0,0.0002441406,0.1421204,4.077,0,0,0,0.09997559,nan,2,0.085,1,128,0.1482544,0.1330566,0.1565552,0.1305542,0,0,0,1,2,0
1787.588,0.001042,0.03320312,0.001953125,0.009765625,0.328125,-4.765625,11.80469,0.00390625,0.005859375,0,0.005859375,0.00390625,0,-0.0009765625,-0.0007324219,0.002563477,0,0,0.0002441406,0,4.077,0,0,0,0,nan,2,0.004,1,128,0.1000061,0.1000061,0.1000061,0.1000061,0,0,0,1,2,0
1787.598,0.001015,-0.001953125,-0.02734375,0.0234375,-0.9921875,0.1328125,10.32812,0.01757812,-0.015625,0.015625,0.005859375,0.00390625,0,-0.0008544922,-0.0008544922,0.002685547,0,0,0.0002441406,0,4.077,0,0,0,0,nan,2,0.014,1,128,0.1000061,0.1000061,0.1000061,0.1000061,0,0,0,1,2,0
1787.608,0.001015,-0.09375,0.125,-0.015625,-0.0859375,-5.632812,7.726562,-0.046875,0.05664062,0.00390625,0.005859375,0.00390625,0,-0.0008544922,-0.0008544922,0.002807617,0,0,0.0002441406,0,4.077,0,0,0,0,nan,2,0.024,1,128,0.1000061,0.1000061,0.1000061,0.1000061,0,0,0,1,2,0.3968254
1787.618,0.001045,0.04101562,-0.05078125,-0.04296875,1.515625,-3.507812,11.96094,-0.00390625,-0.001953125,-0.03320312,0.005859375,0.00390625,0,-0.001098633,-0.0004882812,0.002563477,0,0,0.0002441406,0,4.077,0,0,0,0,nan,2,0.002,1,128,0.1000061,0.1000061,0.1000061,0.1000061,0,0,0,1,2,0
1787.628,0.001012,0.05273438,0.005859375,-0.03320312,1.40625,-0.7421875,8.609375,0.046875,-0.0078125,-0.03515625,0.005859375,0.00390625,0,-0.0008544922,-0.0006103516,0.002197266,0,0,0.0002441406,0,4.077,0,0,0,0,nan,2,0.012,1,128,0.1000061,0.1000061,0.1000061,0.1000061,0,0,0,1,2,0
1787.638,0.000972,-0.01367188,-0.01367188,-0.0078125,0.375,-3.8125,8.03125,-0.0078125,-0.00390625,-0.01953125,0.005859375,0.00390625,0,-0.0007324219,-0.0006103516,0.001953125,0,0,0.001953125,0,4.077,0,0,0,0,nan,2,0.022,0,0,0,0,0,0,0,0,0,1,2,1
1787.648,0.001011,-0.02148438,-0.01953125,-0.02539062,0.75,-0.328125,6.882812,-0.009765625,-0.0078125,-0.015625,0.005859375,0.00390625,0,-0.0008544922,-0.0004882812,0.001831055,0,0,0.001831055,0,4.077,0,0,0,0,nan,2,0.032,0,0,0,0,0,0,0,0,0,1,2,0
1787.659,0.001005,0.00390625,0.02539062,-0.04492188,0.53125,2.117188,10.17969,0.015625,0.00390625,-0.0390625,0.005859375,0.00390625,0,-0.0008544922,-0.0006103516,0.001464844,0,0,0.001464844,0,4.077,0,0,0,0,nan,2,0.042,0,0,0,0,0,0,0,0,0,1,2,1
1787.669,0.001011,0.02929688,0,0.0078125,-0.15625,1.617188,12.42188,0.001953125,0,-0.005859375,0.005859375,0.00390625,0,-0.0008544922,-0.0006103516,0.001220703,0,0,0.001220703,0,4.077,0,0,0,0,nan,2,0.052,0,0,0,0,0,0,0,0,0,1,2,0
1787.679,0.001011,-0.0078125,0.015625,0.0078125,0.140625,1.3125,4.609375,0.00390625,-0.005859375,0.009765625,0.005859375,0.00390625,0,-0.0008544922,-0.0006103516,0.001342773,0,0,0.001342773,0,4.077,0,0,0,0,nan,2,0.063,0,0,0,0,0,0,0,0,0,1,2,0
1787.689,0.001021,0.01367188,-0.0078125,-0.03320312,0.453125,1.148438,7.421875,-0.00390625,-0.0078125,-0.01953125,0.005859375,0.00390625,0,-0.0008544922,-0.0007324219,0.001342773,0,0,0.001342773,0,4.077,0,0,0,0,nan,2,0.073,0,0,0,0,0,0,0,0,0,1,2,0
1787.698,0.00101,-0.001953125,0.015625,-0.04296875,-0.8515625,-3.851562,9.046875,0.015625,-0.00390625,-0.03515625,0.005859375,0.00390625,0,-0.0008544922,-0.0008544922,0.001098633,0,0,0.001098633,0,4.077,0,0,0,0,nan,2,0.082,0,0,0,0,0,0,0,0,0,1,2,1
1787.708,0.001009,0.015625,0.0234375,-0.009765625,0.078125,-0.75,6.429688,0.00390625,0.005859375,-0.02148438,0.005859375,0.00390625,0,-0.0007324219,-0.0008544922,0.0007324219,0,0,0.0007324219,0,4.077,0,0,0,0,nan,2,0.092,0,0,0,0,0,0,0,0,0,1,2,0
1787.718,0.001009,-0.015625,0.02929688,0.0078125,-0.3203125,-0.0859375,10.65625,0.00390625,0,0.0078125,0.005859375,0.00390625,0,-0.0007324219,-0.0008544922,0.0007324219,0,0,0.0007324219,0,4.077,0,0,0,0,nan,2,0.102,0,0,0,0,0,0,0,0,0,1,2,1
1787.728,0.001015,0.0390625,-0.05078125,-0.00390625,-0.3984375,0.8515625,10.25,0.02148438,-0.01757812,-0.009765625,0.005859375,0.00390625,0,-0.0006103516,-0.0009765625,0.0007324219,0,0,0.0007324219,0,4.077,0,0,0,0,nan,2,0.112,0,0,0,0,0,0,0,0,0,1,2,1
1787.738,0.001009,-0.02148438,-0.02734375,-0.01171875,0.5703125,-0.0546875,9.679688,-0.00390625,-0.009765625,-0.01171875,0.005859375,0.00390625,0,-0.0006103516,-0.001098633,0.0006103516,0,0,0.0006103516,0,4.077,0,0,0,0,nan,2,0.122,0,0,0,0,0,0,0,0,0,1,2,1
1787.748,0.001009,-0.00390625,0.01171875,0.01171875,-0.09375,-1.109375,9.109375,0.005859375,-0.00390625,0,0.005859375,0.00390625,0,-0.0006103516,-0.001098633,0.0004882812,0,0,0.0004882812,0,4.077,0,0,0,0,nan,2,0.132,0,0,0,0,0,0,0,0,0,1,2,1
1787.759,0.001009,-0.02148438,0.03515625,-0.03515625,0.078125,0.125,9.960938,-0.005859375,0.001953125,-0.01757812,0.005859375,0.00390625,0,-0.0006103516,-0.001220703,0.0004882812,0,0,0.0004882812,0,4.077,0,0,0,0,nan,2,0.142,0,0,0,0,0,0,0,0,0,1,2,1
1787.769,0.000992,-0.01367188,-0.005859375,-0.01367188,0,-0.9921875,7.765625,-0.005859375,0.001953125,-0.02539062,0.005859375,0.00390625,0,-0.0007324219,-0.001220703,0.0001220703,0,0,0.0001220703,0,4.077,0,0,0,0,nan,2,0.152,0,0,0,0,0,0,0,0,0,1,2,0
1787.779,0.001009,0.01367188,-0.00390625,-0.009765625,-0.4453125,0.6953125,11.89062,0.009765625,-0.0078125,-0.01171875,0.005859375,0.00390625,0,-0.0006103516,-0.001342773,0,0,0,0,0,4.077,0,0,0,0,nan,2,0.163,0,0,0,0,0,0,0,0,0,1,2,0
1787.789,0.001006,-0.015625,0.0234375,0.001953125,1.070312,-1.078125,12.38281,-0.009765625,0.005859375,-0.0078125,0.005859375,0.00390625,0,-0.0007324219,-0.001342773,-0.0001220703,0,0,-0.0001220703,0,4.077,0,0,0,0,nan,2,0.173,0,0,0,0,0,0,0,0,0,1,2,0
1787.798,0.001007,0.02148438,-0.02929688,0.0078125,-0.8046875,0.5078125,9.890625,0,-0.00390625,0.001953125,0.005859375,0.00390625,0,-0.0007324219,-0.001342773,-0.0001220703,0,0,-0.0001220703,0,4.077,0,0,0,0,nan,2,0.182,0,0,0,0,0,0,0,0,0,1,2,1
1787.808,0.001005,0.0234375,0.02539062,0.015625,1.109375,-1.703125,13.98438,0.0078125,0.0078125,0.005859375,0.005859375,0.00390625,0,-0.0007324219,-0.001342773,-0.0001220703,0,0,-0.0001220703,0,4.077,0,0,0,0,nan,2,0.192,0,0,0,0,0,0,0,0,0,1,2,0
1787.818,0.001,0.04101562,-0.02929688,0.001953125,1.460938,-3.078125,14.38281,0.02148438,-0.01757812,-0.001953125,0.005859375,0.00390625,0,-0.0007324219,-0.001342773,-0.0001220703,0,0,-0.0001220703,0,4.077,0,0,0,0,nan,2,0.202,0,0,0,0,0,0,0,0,0,1,2,0
1787.828,0.001005,0.00390625,-0.00390625,-0.03125,0.2578125,1.703125,5.1875,0.0078125,-0.001953125,-0.02734375,0.005859375,0.00390625,0,-0.0006103516,-0.001464844,-0.0002441406,0,0,-0.0002441406,0,4.077,0,0,0,0,nan,2,0.212,0,0,0,0,0,0,0,0,0,1,2,0
1787.838,0.001007,0.009765625,0.015625,0.01953125,-0.6640625,0.03125,11.22656,-0.005859375,0.0078125,0,0.005859375,0.00390625,0,-0.0006103516,-0.001464844,-0.0003662109,0,0,-0.0003662109,0,4.077,0,0,0,0,nan,2,0.222,0,0,0,0,0,0,0,0,0,1,2,0
1787.848,0.001005,-0.00390625,0.01171875,0.01757812,1.46875,2.773438,11.14844,0,0.001953125,0.0234375,0.005859375,0.00390625,0,-0.0006103516,-0.001342773,-0.0002441406,0,0,-0.0002441406,0,4.077,0,0,0,0,nan,2,0.232,0,0,0,0,0,0,0,0,0,1,2,0
1787.859,0.001006,-0.0390625,0.015625,0,-2.015625,-5.539062,9.625,-0.009765625,0.0078125,0.001953125,0.005859375,0.00390625,0,-0.0006103516,-0.001342773,-0.0001220703,0,0,-0.0001220703,0,4.077,0,0,0,0,nan,2,0.242,0,0,0,0,0,0,0,0,0,1,2,0
1787.869,0.000942,-0.01757812,0.01757812,-0.015625,-3.078125,0.0546875,10.0625,-0.005859375,0.001953125,-0.01171875,0.005859375,0.00390625,0,-0.0006103516,-0.001220703,-0.0002441406,0,0,-0.0002441406,0,4.077,0,0,0,0,nan,2,0.252,0,0,0,0,0,0,0,0,0,1,2,1
1787.879,0.001,0.015625,0.02734375,-0.001953125,-0.8515625,3.453125,9.21875,-0.001953125,0.01171875,0,0.005859375,0.00390625,0,-0.0006103516,-0.001220703,-0.0002441406,0,0,-0.0002441406,0,4.077,0,0,0,0,nan,2,0.263,0,0,0,0,0,0,0,0,0,1,2,1
1787.889,0.00101,-0.0078125,-0.01171875,0.01367188,-0.328125,-1.4375,9.195312,-0.0078125,0.001953125,0.01367188,0.005859375,0.00390625,0,-0.0006103516,-0.001098633,-0.0001220703,0,0,-0.0001220703,0,4.077,0,0,0,0,nan,2,0.273,0,0,0,0,0,0,0,0,0,1,2,1
1787.898,0.001004,0.0234375,0.03710938,0.0078125,-4.109375,0.03125,9.5625,0.01757812,0.005859375,0.001953125,0.005859375,0.00390625,0,-0.0006103516,-0.001220703,0,0,0,0,0,4.077,0,0,0,0,nan,2,0.282,0,0,0,0,0,0,0,0,0,1,2,1
1787.908,0.001017,0.0625,0.02734375,-0.0234375,-1.304688,4.328125,9.648438,0.00390625,0,-0.01171875,0.005859375,0.00390625,0,-0.0004882812,-0.001098633,-0.0001220703,0,0,-0.0001220703,0,4.077,0,0,0,0,nan,2,0.292,0,0,0,0,0,0,0,0,0,1,2,1
1787.918,0.00102,-0.009765625,-0.07617188,-0.015625,1.921875,-0.0234375,8.8125,0.001953125,-0.01367188,0.001953125,0.005859375,0.00390625,0,-0.0003662109,-0.001220703,-0.0001220703,0,0,-0.0001220703,0,4.077,0,0,0,0,nan,2,0.302,0,0,0,0,0,0,0,0,0,1,2,1
1787.928,0.001009,0.05664062,0.08203125,0.0078125,-3.296875,1.234375,10.21875,0.0078125,0.005859375,-0.001953125,0.005859375,0.00390625,0,-0.0003662109,-0.001342773,-0.0001220703,0,0,-0.0001220703,0,4.077,0,0,0,0,nan,2,0.312,0,0,0,0,0,0,0,0,0,1,2,0
1787.938,0.001014,0.0078125,-0.01367188,0.001953125,1.375,1.078125,9.585938,0.005859375,0.001953125,0,0.005859375,0.00390625,0,-0.0003662109,-0.001342773,-0.0001220703,0,0,-0.0001220703,0,4.077,0,0,0,0,nan,2,0.322,0,0,0,0,0,0,0,0,0,1,2,1
1787.948,0.001015,-0.08007812,-0.0625,-0.0078125,0,0.234375,9.398438,-0.005859375,-0.00390625,0.001953125,0.005859375,0.00390625,0,-0.0002441406,-0.001342773,-0.0001220703,0,0,-0.0001220703,0,4.077,0,0,0,0,nan,2,0.332,0,0,0,0,0,0,0,0,0,1,2,1
1787.959,0.001009,-0.1015625,-0.01757812,0.015625,-0.3515625,-2.90625,10.42188,-0.0234375,-0.01171875,0,0.005859375,0.00390625,0,-0.0002441406,-0.001342773,-0.0001220703,0,0,-0.0001220703,0,4.077,0,0,0,0,nan,2,0.342,0,0,0,0,0,0,0,0,0,1,2,0
1787.969,0.000964,-0.0078125,0.07226562,0.00390625,-1.921875,-0.4921875,10.49219,-0.01367188,0.01171875,0.005859375,0.005859375,0.00390625,0,-0.0002441406,-0.001342773,-0.0001220703,0,0,-0.0001220703,0,4.077,0,0,0,0,nan,2,0.352,0,0,0,0,0,0,0,0,0,1,2,1
1787.979,0.001003,-0.03125,0.0234375,0.005859375,-0.9375,-0.125,9.984375,-0.0078125,0.01367188,0.00390625,0.005859375,0.00390625,0,-0.0002441406,-0.001342773,-0.0001220703,0,0,-0.0001220703,0,4.077,0,0,0,0,nan,2,0.363,0,0,0,0,0,0,0,0,0,1,2,1
1787.988,0.001027,-0.04296875,0.005859375,0.005859375,-0.4765625,-0.2890625,10.35938,-0.001953125,0.00390625,-0.001953125,0.005859375,0.00390625,0,-0.0002441406,-0.001342773,-0.0001220703,0,0,-0.0001220703,0,4.077,0,0,0,0,nan,2,0.372,0,0,0,0,0,0,0,0,0,1,2,1
1787.998,0.001014,-0.078125,-0.04882812,-0.01171875,0.078125,0.3359375,9.789062,-0.009765625,-0.005859375,-0.00390625,0.005859375,0.00390625,0,-0.0002441406,-0.001342773,-0.0001220703,0,0,-0.0001220703,0,4.077,0,0,0,0,nan,2,0.382,0,0,0,0,0,0,0,0,0,1,2,1
1788.008,0.001005,-0.0234375,-0.005859375,-0.01953125,0.3515625,0.59375,9.578125,0.005859375,-0.009765625,-0.0078125,0.005859375,0.00390625,0,-0.0002441406,-0.001464844,-0.0001220703,0,0,-0.0001220703,0,4.077,0,0,0,0,nan,2,0.392,0,0,0,0,0,0,0,0,0,1,2,1
1788.018,0.001062,0.0234375,-0.0078125,-0.04296875,0.6015625,0.203125,8.5625,0.01171875,-0.009765625,-0.00390625,0.005859375,0.00390625,0,-0.0002441406,-0.001464844,-0.0001220703,0,0,-0.0001220703,0,4.077,0,0,0,0,nan,2,0.402,0,0,0,0,0,0,0,0,0,1,2,0
1788.028,0.001019,0.0078125,-0.0390625,0.0234375,-0.3125,-0.5859375,9.789062,0.001953125,0.001953125,0.001953125,0.005859375,0.00390625,0,-0.0002441406,-0.001464844,-0.0001220703,0,0,-0.0001220703,0,4.077,0,0,0,0,nan,2,0.412,0,0,0,0,0,0,0,0,0,1,2,1
1788.038,0.001011,0.001953125,0.01171875,0.009765625,0.3046875,0.0078125,9.804688,0,0,0.001953125,0.005859375,0.00390625,0,-0.0002441406,-0.001464844,-0.0001220703,0,0,-0.0001220703,0,4.077,0,0,0,0,nan,2,0.422,0,0,0,0,0,0,0,0,0,1,2,1
1788.049,0.000963,-0.02539062,-0.00390625,-0.01171875,-0.5859375,0.46875,9.898438,-0.005859375,0.001953125,-0.00390625,0.005859375,0.00390625,0,-0.0002441406,-0.001342773,-0.0001220703,0,0,-0.0001220703,0,4.077,0,0,0,0,nan,2,0.432,0,0,0,0,0,0,0,0,0,1,2,1
1788.059,0.001046,0.0390625,-0.0078125,-0.001953125,0.1796875,-0.4140625,7.929688,0.00390625,0,0.00390625,0.005859375,0.00390625,0,-0.0002441406,-0.001342773,-0.0001220703,0,0,-0.0001220703,0,4.077,0,0,0,0,nan,2,0.442,0,0,0,0,0,0,0,0,0,1,2,0
1788.069,0.001013,-0.01367188,0.00390625,-0.02148438,0.09375,-0.1171875,10.21875,-0.00390625,0.005859375,-0.005859375,0.005859375,0.00390625,0,-0.0002441406,-0.001342773,-0.0001220703,0,0,-0.0001220703,0,4.077,0,0,0,0,nan,2,0.452,0,0,0,0,0,0,0,0,0,1,2,1
1788.079,0.001005,0.02148438,-0.01953125,0.01171875,0.2890625,0.6640625,9.835938,-0.001953125,-0.001953125,-0.001953125,0.005859375,0.00390625,0,-0.0002441406,-0.001342773,-0.0002441406,0,0,-0.0002441406,0,4.077,0,0,0,0,nan,2,0.463,0,0,0,0,0,0,0,0,0,1,2,1
1788.089,0.001007,0.01171875,0.00390625,0.0078125,-0.03125,-0.046875,10.50781,0,0.001953125,0.001953125,0.005859375,0.00390625,0,-0.0002441406,-0.001342773,-0.0002441406,0,0,-0.0002441406,0,4.077,0,0,0,0,nan,2,0.473,0,0,0,0,0,0,0,0,0,1,2,1
1788.098,0.001012,-0.009765625,0,-0.00390625,0.109375,-0.0625,9.90625,0.001953125,-0.001953125,-0.001953125,0.005859375,0.00390625,0,-0.0002441406,-0.001342773,-0.0002441406,0,0,-0.0002441406,0,4.077,0,0,0,0,nan,2,0.482,0,0,0,0,0,0,0,0,0,1,2,1
1788.108,0.001013,-0.009765625,0.005859375,-0.015625,0.2421875,0,10.15625,0.00390625,0,-0.001953125,0.005859375,0.00390625,0,-0.0002441406,-0.001342773,-0.0002441406,0,0,-0.0002441406,0,4.077,0,0,0,0,nan,2,0.492,0,0,0,0,0,0,0,0,0,1,2,1
1788.118,0.001016,-0.0078125,0.00390625,-0.01171875,0.015625,-0.1640625,9.273438,-0.001953125,0.001953125,-0.00390625,0.005859375,0.00390625,0,-0.0002441406,-0.001342773,-0.0002441406,0,0,-0.0002441406,0,4.077,0,0,0,0,nan,2,0.502,0,0,0,0,0,0,0,0,0,1,2,1
1788.128,0.001016,0.0078125,0,-0.009765625,-0.03125,-0.234375,9.8125,0,0.001953125,-0.00390625,0.005859375,0.00390625,0,-0.0002441406,-0.001342773,-0.0002441406,0,0,-0.0002441406,0,4.077,0,0,0,0,nan,2,0.512,0,0,0,0,0,0,0,0,0,1,2,1
1788.138,0.001016,0.01171875,-0.009765625,0.02539062,-0.015625,-0.2109375,10.01562,0.00390625,-0.001953125,0.01367188,0.005859375,0.00390625,0,-0.0002441406,-0.001342773,-0.0002441406,0,0,-0.0002441406,0,4.077,0,0,0,0,nan,2,0.522,0,0,0,0,0,0,0,0,0,1,2,1
1788.148,0.001016,0,-0.001953125,0,0.0625,0.1015625,10.07812,0,0,-0.00390625,0.005859375,0.00390625,0,-0.0002441406,-0.001342773,-0.0002441406,0,0,-0.0002441406,0,4.077,0,0,0,0,nan,2,0.532,0,0,0,0,0,0,0,0,0,1,2,1
1788.159,0.001016,0.00390625,0.0078125,-0.001953125,-0.1171875,-0.1328125,9.96875,0.00390625,-0.001953125,-0.001953125,0.005859375,0.00390625,0,-0.0002441406,-0.001342773,-0.0002441406,0,0,-0.0002441406,0,4.077,0,0,0,0,nan,2,0.542,0,0,0,0,0,0,0,0,0,1,2,1
1788.169,0.001016,-0.009765625,0.00390625,-0.009765625,-0.0859375,0.0703125,9.765625,-0.00390625,0,-0.001953125,0.005859375,0.00390625,0,-0.0002441406,-0.001342773,-0.0002441406,0,0,-0.0002441406,0,4.077,0,0,0,0,nan,2,0.552,0,0,0,0,0,0,0,0,0,1,2,1
1788.179,0.001024,0.0078125,0,0.00390625,0.1328125,-0.0625,9.820312,0.00390625,0,0.001953125,0.005859375,0.00390625,0,-0.0002441406,-0.001342773,-0.0002441406,0,0,-0.0002441406,0,4.077,0,0,0,0,nan,2,0.563,0,0,0,0,0,0,0,0,0,1,2,1
1788.188,0.001014,-0.005859375,-0.009765625,-0.01367188,-0.21875,-0.015625,9.671875,-0.001953125,-0.00390625,-0.0078125,0.005859375,0.00390625,0,-0.0002441406,-0.001464844,-0.0002441406,0,0,-0.0002441406,0,4.077,0,0,0,0,nan,2,0.572,0,0,0,0,0,0,0,0,0,1,2,1
1788.198,0.001013,0.009765625,0.0078125,0.01953125,0.0859375,-0.0703125,9.78125,0.00390625,0.00390625,0.0078125,0.005859375,0.00390625,0,-0.0002441406,-0.001342773,-0.0002441406,0,0,-0.0002441406,0,4.077,0,0,0,0,nan,2,0.582,0,0,0,0,0,0,0,0,0,1,2,1
1788.208,0.001007,-0.001953125,-0.001953125,-0.0078125,-0.109375,-0.0703125,9.828125,0,0,0.001953125,0.005859375,0.00390625,0,-0.0002441406,-0.001342773,-0.0002441406,0,0,-0.0002441406,0,4.077,0,0,0,0,nan,2,0.592,0,0,0,0,0,0,0,0,0,1,2,1
1788.218,0.001011,0.001953125,0.0078125,-0.00390625,0.1328125,-0.0078125,9.992188,0.00390625,0.00390625,-0.005859375,0.005859375,0.00390625,0,-0.0002441406,-0.001342773,-0.0002441406,0,0,-0.0002441406,0,4.077,0,0,0,0,nan,2,0.602,0,0,0,0,0,0,0,0,0,1,2,1
1788.228,0.001011,-0.0078125,-0.005859375,0.00390625,-0.046875,0.0390625,9.773438,-0.00390625,0,0.001953125,0.005859375,0.00390625,0,-0.0002441406,-0.001342773,-0.0002441406,0,0,-0.0002441406,0,4.077,0,0,0,0,nan,2,0.612,0,0,0,0,0,0,0,0,0,1,2,1
1788.238,0.001011,0.00390625,0.005859375,0,-0.03125,0.015625,9.882812,0.001953125,0.001953125,-0.001953125,0.005859375,0.00390625,0,-0.0002441406,-0.001342773,-0.0002441406,0,0,-0.0002441406,0,4.077,0,0,0,0,nan,2,0.622,0,0,0,0,0,0,0,0,0,1,2,1
1788.248,0.001011,0,-0.005859375,0,0.0859375,0,9.804688,0,0,-0.00390625,0.005859375,0.00390625,0,-0.0002441406,-0.001342773,-0.0002441406,0,0,-0.0002441406,0,4.077,0,0,0,0,nan,2,0.632,0,0,0,0,0,0,0,0,0,1,2,1
1788.259,0.001011,-0.001953125,0.001953125,0.005859375,-0.0625,-0.0234375,9.851562,0,0,0.00390625,0.005859375,0.00390625,0,-0.0002441406,-0.001342773,-0.0002441406,0,0,-0.0002441406,0,4.077,0,0,0,0,nan,2,0.642,0,0,0,0,0,0,0,0,0,1,2,1
1788.269,0.001011,0,-0.001953125,-0.005859375,0.0625,-0.015625,9.75,0,0.001953125,-0.001953125,0.005859375,0.00390625,0,-0.0002441406,-0.001220703,-0.0002441406,0,0,-0.0002441406,0,4.077,0,0,0,0,nan,2,0.652,0,0,0,0,0,0,0,0,0,1,2,1
1788.279,0.001011,-0.001953125,0,0,0,0.0859375,9.804688,-0.001953125,0,-0.001953125,0.005859375,0.00390625,0,-0.0002441406,-0.001220703,-0.0002441406,0,0,-0.0002441406,0,4.077,0,0,0,0,nan,2,0.663,0,0,0,0,0,0,0,0,0,1,2,1
1788.288,0.001044,-0.00390625,0,0.001953125,0.0234375,-0.0234375,9.828125,-0.001953125,0,0.001953125,0.005859375,0.00390625,0,-0.0002441406,-0.001220703,-0.0002441406,0,0,-0.0002441406,0,4.077,0,0,0,0,nan,2,0.672,0,0,0,0,0,0,0,0,0,1,2,1
1788.298,0.001011,-0.001953125,0.001953125,-0.001953125,-0.0625,0.0703125,9.859375,-0.001953125,0,0,0.005859375,0.00390625,0,-0.0003662109,-0.001220703,-0.0002441406,0,0,-0.0002441406,0,4.077,0,0,0,0,nan,2,0.682,0,0,0,0,0,0,0,0,0,1,2,1
1788.308,0.00101,-0.001953125,-0.001953125,0.001953125,0.0234375,-0.078125,9.804688,0,0,0,0.005859375,0.00390625,0,-0.0003662109,-0.001220703,-0.0002441406,0,0,-0.0002441406,0,4.077,0,0,0,0,nan,2,0.692,0,0,0,0,0,0,0,0,0,1,2,1
1788.318,0.001024,-0.001953125,-0.00390625,0,-0.0234375,0.015625,9.796875,-0.001953125,-0.001953125,0,0.005859375,0.00390625,0,-0.0003662109,-0.001220703,-0.0002441406,0,0,-0.0002441406,0,4.077,0,0,0,0,nan,2,0.702,0,0,0,0,0,0,0,0,0,1,2,1
1788.328,0.000955,0.001953125,0,0.001953125,0.078125,0,9.828125,0,0,0.001953125,0.005859375,0.00390625,0,-0.0003662109,-0.001220703,-0.0002441406,0,0,-0.0002441406,0,4.077,0,0,0,0,nan,2,0.712,0,0,0,0,0,0,0,0,0,1,2,1
1788.338,0.000988,-0.001953125,0,-0.00390625,-0.015625,0.0234375,9.75,-0.001953125,0,-0.001953125,0.005859375,0.00390625,0,-0.0003662109,-0.001220703,-0.0002441406,0,0,-0.0002441406,0,4.077,0,0,0,0,nan,2,0.722,0,0,0,0,0,0,0,0,0,1,2,1
1788.348,0.000989,0.001953125,-0.001953125,-0.001953125,0.0234375,-0.0546875,9.734375,0,0,0,0.005859375,0.00390625,0,-0.0003662109,-0.001220703,-0.0002441406,0,0,-0.0002441406,0,4.077,0,0,0,0,nan,2,0.732,0,0,0,0,0,0,0,0,0,1,2,1
1788.359,0.001297,0.001953125,-0.001953125,0.001953125,-0.0234375,0.0078125,9.835938,0,-0.001953125,0,0.005859375,0.00390625,0,-0.0003662109,-0.001220703,-0.0002441406,0,0,-0.0002441406,0,4.077,0,0,0,0,nan,2,0.743,0,0,0,0,0,0,0,0,0,1,2,1
1788.368,0.001291,0,0,0,0.0234375,-0.015625,9.8125,0.001953125,0,0,0.005859375,0.00390625,0,-0.0003662109,-0.001220703,-0.0002441406,0,0,-0.0002441406,0,4.077,0,0,0,0,nan,2,0.752,0,0,0,0,0,0,0,0,0,1,2,1
1788.379,0.001097,-0.001953125,0.001953125,-0.001953125,0.015625,-0.0390625,9.828125,-0.001953125,0,-0.001953125,0.005859375,0.00390625,0,-0.0003662109,-0.001220703,-0.0002441406,0,0,-0.0002441406,0,4.077,0,0,0,0,nan,2,0.762,0,0,0,0,0,0,0,0,0,1,2,1
1788.389,0.001163,0.001953125,0.001953125,0,-0.015625,-0.0078125,9.820312,0.001953125,0,0,0.005859375,0.00390625,0,-0.0003662109,-0.001220703,-0.0002441406,0,0,-0.0002441406,0,4.077,0,0,0,0,nan,2,0.772,0,0,0,0,0,0,0,0,0,1,2,1
1788.399,0.001329,0,0.001953125,-0.001953125,0.015625,0.0234375,9.796875,0,0.001953125,0,0.005859375,0.00390625,0,-0.0003662109,-0.001220703,-0.0002441406,0,0,-0.0002441406,0,4.077,0,0,0,0,nan,2,0.782,0,0,0,0,0,0,0,0,0,1,2,1
1788.45,0.00137,0.001953125,0.001953125,-0.001953125,0.0078125,0.0390625,9.867188,0,0.001953125,0,0.005859375,0.00390625,0,-0.0003662109,-0.001220703,-0.0002441406,0,0,-0.0002441406,0,4.077,0,0,0,0,nan,2,0.784,0,0,0,0,0,0,0,0,0,1,2,1
1788.458,0.001042,0,0,0,0,-0.03125,9.820312,0,0,0,0.005859375,0.00390625,0,-0.0003662109,-0.001220703,-0.0002441406,0,0,-0.0002441406,0,4.077,0,0,0,0,nan,2,0.842,0,0,0,0,0,0,0,0,0,1,2,1
1788.468,0.000981,0.001953125,-0.001953125,-0.001953125,0,0.015625,9.789062,0.001953125,0,0,0.005859375,0.00390625,0,-0.0003662109,-0.001220703,-0.0002441406,0,0,-0.0002441406,0,4.077,0,0,0,0,nan,2,0.852,0,0,0,0,0,0,0,0,0,1,2,1
1788.478,0.00102,0.001953125,0.00390625,0,-0.015625,0.0078125,9.796875,0,0.001953125,-0.001953125,0.005859375,0.00390625,0,-0.0003662109,-0.001220703,-0.0002441406,0,0,-0.0002441406,0,4.077,0,0,0,0,nan,2,0.862,0,0,0,0,0,0,0,0,0,1,2,1
1788.488,0.001009,-0.00390625,-0.001953125,0,0.015625,0,9.867188,0,-0.001953125,0,0.005859375,0.00390625,0,-0.0003662109,-0.001220703,-0.0002441406,0,0,-0.0002441406,0,4.077,0,0,0,0,nan,2,0.872,0,0,0,0,0,0,0,0,0,1,2,1
1788.498,0.001046,-0.001953125,-0.001953125,-0.00390625,-0.0234375,0.015625,9.84375,-0.001953125,0,-0.001953125,0.005859375,0.00390625,0,-0.0003662109,-0.001220703,-0.0002441406,0,0,-0.0002441406,0,4.077,0,0,0,0,nan,2,0.882,0,0,0,0,0,0,0,0,0,1,2,1
1788.508,0.001009,-0.001953125,0.001953125,-0.001953125,0.0078125,0.015625,9.757812,-0.001953125,0,-0.001953125,0.005859375,0.00390625,0,-0.0003662109,-0.001220703,-0.0002441406,0,0,-0.0002441406,0,4.077,0,0,0,0,nan,2,0.892,0,0,0,0,0,0,0,0,0,1,2,1
1788.519,0.001009,0,0.001953125,-0.001953125,-0.0234375,0,9.8125,0,0.001953125,0,0.005859375,0.00390625,0,-0.0003662109,-0.001220703,-0.0002441406,0,0,-0.0002441406,0,4.077,0,0,0,0,nan,2,0.902,0,0,0,0,0,0,0,0,0,1,2,1
1788.529,0.001009,0,0,-0.001953125,0,0,9.820312,0,0,0,0.005859375,0.00390625,0,-0.0004882812,-0.001220703,-0.0002441406,0,0,-0.0002441406,0,4.077,0,0,0,0,nan,2,0.912,0,0,0,0,0,0,0,0,0,1,2,1
1788.539,0.001009,-0.00390625,0,0,0.0390625,-0.015625,9.828125,-0.001953125,0,0,0.005859375,0.00390625,0,-0.0004882812,-0.001098633,-0.0002441406,0,0,-0.0002441406,0,4.077,0,0,0,0,nan,2,0.922,0,0,0,0,0,0,0,0,0,1,2,1
1788.549,0.001011,-0.001953125,0.001953125,0,0,-0.0078125,9.804688,0,0,0,0.005859375,0.00390625,0,-0.0003662109,-0.001098633,-0.0002441406,0,0,-0.0002441406,0,4.077,0,0,0,0,nan,2,0.933,0,0,0,0,0,0,0,0,0,1,2,1
1788.558,0.001016,0,-0.001953125,0,-0.015625,0.015625,9.828125,0,0,0,0.005859375,0.00390625,0,-0.0003662109,-0.001098633,-0.0002441406,0,0,-0.0002441406,0,4.077,0,0,0,0,nan,2,0.942,0,0,0,0,0,0,0,0,0,1,2,1
1788.568,0.001013,-0.001953125,0.001953125,0,0.0078125,0,9.820312,0,0,0,0.005859375,0.00390625,0,-0.0003662109,-0.001098633,-0.0002441406,0,0,-0.0002441406,0,4.077,0,0,0,0,nan,2,0.952,0,0,0,0,0,0,0,0,0,1,2,1
1788.578,0.001009,0,0,0,-0.0234375,0,9.8125,0.001953125,0,0,0.005859375,0.00390625,0,-0.0003662109,-0.001098633,-0.0002441406,0,0,-0.0002441406,0,4.077,0,0,0,0,nan,2,0.962,0,0,0,0,0,0,0,0,0,1,2,1
1788.588,0.001011,0,-0.001953125,0,0.015625,0.0078125,9.820312,0,-0.001953125,0,0.005859375,0.00390625,0,-0.0003662109,-0.001098633,-0.0002441406,0,0,-0.0002441406,0,4.077,0,0,0,0,nan,2,0.972,0,0,0,0,0,0,0,0,0,1,2,1
1788.598,0.001011,0.001953125,0,0.001953125,0.015625,-0.03125,9.835938,0,0,0,0.005859375,0.00390625,0,-0.0003662109,-0.001098633,-0.0002441406,0,0,-0.0002441406,0,4.077,0,0,0,0,nan,2,0.982,0,0,0,0,0,0,0,0,0,1,2,1
1788.608,0.001011,-0.001953125,0,-0.001953125,0.0078125,0,9.835938,0,0,0,0.005859375,0.00390625,0,-0.0003662109,-0.001098633,-0.0002441406,0,0,-0.0002441406,0,4.077,0,0,0,0,nan,2,0.992,0,0,0,0,0,0,0,0,0,1,2,1
1788.619,0.001011,-0.00390625,0.00390625,0,-0.015625,0.0078125,9.78125,-0.001953125,0,0,0.005859375,0.00390625,0,-0.0003662109,-0.001098633,-0.0002441406,0,0,-0.0002441406,0,4.077,0,0,0,0,nan,2,1.002,0,0,0,0,0,0,0,0,0,1,2,1
1788.629,0.001011,0,0,0,-0.015625,-0.0078125,9.898438,0,0,0,0.005859375,0.00390625,0,-0.0004882812,-0.001098633,-0.0002441406,0,0,-0.0002441406,0,4.077,0,0,0,0,nan,2,1.012,0,0,0,0,0,0,0,0,0,1,2,1
