t,dt_s,gyro_x,gyro_y,gyro_z,acc_x,acc_y,acc_z,rates.x,rates.y,rates.z,ratesTarget.x,ratesTarget.y,ratesTarget.z,attitude.x,attitude.y,attitude.z,attitudeTarget.x,attitudeTarget.y,attitudeTarget.z,thrustTarget,battery_v,rc_roll,rc_pitch,rc_yaw,rc_throttle,rc_mode,flight_mode,rc_age_s,armed,fault_mask,motor_rl,motor_rr,motor_fr,motor_fl,rate_i_x,rate_i_y,rate_i_z,mix_scale,control_source,accel_correction_confidence
601.539,0.001009,-0.001953125,-0.001953125,-0.001953125,0.0390625,-0.03125,9.875,0,-0.001953125,0,0.009765625,0.0546875,0,-0.002685547,-0.00402832,0.01269531,0,0,0.01269531,0,4.077,0,0,0,0,nan,2,inf,0,0,0,0,0,0,0,0,0,1,1,1
601.549,0.001004,0,0.001953125,0,0.03125,-0.015625,9.8125,0,0,-0.001953125,0.009765625,0.0546875,0,-0.002807617,-0.00402832,0.01257324,0,0,0.01257324,0,4.077,0,0,0,0,nan,2,inf,0,0,0,0,0,0,0,0,0,1,1,1
601.559,0.001002,0.001953125,0.001953125,0.001953125,0.03125,-0.0390625,9.890625,0.001953125,0,0,0.009765625,0.0546875,0,-0.002807617,-0.00402832,0.01257324,0,0,0.01257324,0,4.077,0,0,0,0,nan,2,inf,0,0,0,0,0,0,0,0,0,1,1,1
601.569,0.001038,0,0,0.001953125,0.03125,-0.0234375,9.84375,0,0,0,0.009765625,0.0546875,0,-0.002685547,-0.00402832,0.01257324,0,0,0.01257324,0,4.077,0,0,0,0,nan,2,inf,0,0,0,0,0,0,0,0,0,1,1,1
601.579,0.001006,0,0.00390625,-0.001953125,0.03125,-0.0234375,9.859375,0,0,0,0.009765625,0.0546875,0,-0.002685547,-0.00402832,0.01257324,0,0,0.01257324,0,4.077,0,0,0,0,nan,2,inf,0,0,0,0,0,0,0,0,0,1,1,1
601.589,0.001006,0,-0.001953125,-0.00390625,0.0625,-0.0390625,9.84375,0,0,0,0.009765625,0.0546875,0,-0.002807617,-0.00402832,0.01257324,0,0,0.01257324,0,4.077,0,0,0,0,nan,2,inf,0,0,0,0,0,0,0,0,0,1,1,1
601.599,0.001006,0,0.001953125,-0.00390625,0.0546875,-0.015625,9.859375,0,0,0,0.009765625,0.0546875,0,-0.002807617,-0.00402832,0.01257324,0,0,0.01257324,0,4.077,0,0,0,0,nan,2,inf,0,0,0,0,0,0,0,0,0,1,1,1
601.61,0.001006,0,0.00390625,0,0.0390625,-0.015625,9.851562,0,0,0,0.009765625,0.0546875,0,-0.002685547,-0.00402832,0.01257324,0,0,0.01257324,0,4.077,0,0,0,0,nan,2,inf,0,0,0,0,0,0,0,0,0,1,1,1
601.619,0.001013,-0.001953125,0,0,0.015625,-0.0546875,9.851562,0,-0.001953125,0,0.009765625,0.0546875,0,-0.002685547,-0.00402832,0.01257324,0,0,0.01257324,0,4.077,0,0,0,0,nan,2,inf,0,0,0,0,0,0,0,0,0,1,1,1
601.629,0.001013,-0.001953125,-0.001953125,0,0.0625,-0.0078125,9.875,-0.001953125,-0.001953125,0,0.009765625,0.0546875,0,-0.002685547,-0.00402832,0.01257324,0,0,0.01257324,0,4.077,0,0,0,0,nan,2,inf,0,0,0,0,0,0,0,0,0,1,1,1
601.639,0.001013,-0.001953125,0.001953125,0,0.0234375,-0.0234375,9.875,-0.001953125,0,0,0.009765625,0.0546875,0,-0.002807617,-0.00402832,0.01257324,0,0,0.01257324,0,4.077,0,0,0,0,nan,2,inf,0,0,0,0,0,0,0,0,0,1,1,1
601.649,0.001019,-0.001953125,0,-0.005859375,0.046875,-0.015625,9.8125,-0.001953125,0,-0.001953125,0.009765625,0.0546875,0,-0.002807617,-0.00402832,0.01257324,0,0,0.01257324,0,4.077,0,0,0,0,nan,2,inf,0,0,0,0,0,0,0,0,0,1,1,1
601.659,0.001011,0,-0.001953125,0.001953125,0.03125,0.03125,9.890625,0,0,0,0.009765625,0.0546875,0,-0.002807617,-0.00402832,0.01257324,0,0,0.01257324,0,4.077,0,0,0,0,nan,2,inf,0,0,0,0,0,0,0,0,0,1,1,1
601.669,0.001013,0,0,-0.00390625,0.0390625,-0.0390625,9.828125,0,0,-0.001953125,0.009765625,0.0546875,0,-0.002807617,-0.00402832,0.01257324,0,0,0.01257324,0,4.077,0,0,0,0,nan,2,inf,0,0,0,0,0,0,0,0,0,1,1,1
601.679,0.001013,0,-0.001953125,-0.001953125,0.0546875,-0.0234375,9.835938,0,0,0,0.009765625,0.0546875,0,-0.002685547,-0.00402832,0.01257324,0,0,0.01257324,0,4.077,0,0,0,0,nan,2,inf,0,0,0,0,0,0,0,0,0,1,1,1
601.689,0.001013,-0.001953125,0.00390625,0,0.0546875,-0.0390625,9.851562,0,0,0,0.009765625,0.0546875,0,-0.002685547,-0.004150391,0.01257324,0,0,0.01257324,0,4.077,0,0,0,0,nan,2,inf,0,0,0,0,0,0,0,0,0,1,1,1
601.699,0.001013,0,0,0.001953125,0.03125,-0.015625,9.835938,0,0,0,0.009765625,0.0546875,0,-0.002685547,-0.004150391,0.01257324,0,0,0.01257324,0,4.077,0,0,0,0,nan,2,inf,0,0,0,0,0,0,0,0,0,1,1,1
601.71,0.001013,0,0.001953125,0,0.0390625,-0.015625,9.882812,0,0,0,0.009765625,0.0546875,0,-0.002685547,-0.004150391,0.01257324,0,0,0.01257324,0,4.077,0,0,0,0,nan,2,inf,0,0,0,0,0,0,0,0,0,1,1,1
601.719,0.001012,-0.001953125,-0.001953125,0.001953125,0.0546875,-0.0390625,9.890625,0,0,0,0.009765625,0.0546875,0,-0.002685547,-0.004150391,0.01257324,0,0,0.01257324,0,4.077,0,0,0,0,nan,2,inf,0,0,0,0,0,0,0,0,0,1,1,1
601.729,0.001022,-0.001953125,-0.00390625,-0.001953125,0.0703125,-0.015625,9.789062,0,0,0,0.009765625,0.0546875,0,-0.002685547,-0.004150391,0.01257324,0,0,0.01257324,0,4.077,0,0,0,0,nan,2,inf,0,0,0,0,0,0,0,0,0,1,1,1
601.739,0.001013,0,-0.001953125,-0.00390625,0.0546875,-0.03125,9.851562,-0.001953125,0,0,0.009765625,0.0546875,0,-0.002685547,-0.004150391,0.01257324,0,0,0.01257324,0,4.077,0,0,0,0,nan,2,inf,0,0,0,0,0,0,0,0,0,1,1,1
601.749,0.001015,0.001953125,-0.00390625,0,0.0390625,-0.0625,9.875,0.001953125,0,0,0.009765625,0.0546875,0,-0.002685547,-0.004150391,0.01257324,0,0,0.01257324,0,4.077,0,0,0,0,nan,2,inf,0,0,0,0,0,0,0,0,0,1,1,1
601.759,0.001012,0.001953125,0.00390625,0.001953125,0.0625,-0.015625,9.835938,0.001953125,0.001953125,0.001953125,0.009765625,0.0546875,0,-0.002685547,-0.004150391,0.01257324,0,0,0.01257324,0,4.077,0,0,0,0,nan,2,inf,0,0,0,0,0,0,0,0,0,1,1,1
601.769,0.001012,0,0.001953125,0,0.046875,0,9.867188,0.001953125,0,0,0.009765625,0.0546875,0,-0.002685547,-0.004150391,0.01257324,0,0,0.01257324,0,4.077,0,0,0,0,nan,2,inf,0,0,0,0,0,0,0,0,0,1,1,1
601.779,0.001012,0,0,0.001953125,0.078125,-0.0390625,9.882812,0,0,0.001953125,0.009765625,0.0546875,0,-0.002685547,-0.004150391,0.01257324,0,0,0.01257324,0,4.077,0,0,0,0,nan,2,inf,0,0,0,0,0,0,0,0,0,1,1,1
601.789,0.001012,0,-0.00390625,0,0.0390625,-0.015625,9.890625,0,0,0,0.009765625,0.0546875,0,-0.002685547,-0.004150391,0.01269531,0,0,0.01269531,0,4.077,0,0,0,0,nan,2,inf,0,0,0,0,0,0,0,0,0,1,1,1
601.799,0.001012,0.00390625,0,-0.001953125,0.0390625,-0.0234375,9.867188,0.001953125,0,0,0.009765625,0.0546875,0,-0.002685547,-0.004150391,0.01269531,0,0,0.01269531,0,4.077,0,0,0,0,nan,2,inf,0,0,0,0,0,0,0,0,0,1,1,1
601.81,0.001012,0,-0.001953125,0,0.046875,-0.0390625,9.882812,0,-0.001953125,0,0.009765625,0.0546875,0,-0.002685547,-0.004150391,0.01269531,0,0,0.01269531,0,4.077,0,0,0,0,nan,2,inf,0,0,0,0,0,0,0,0,0,1,1,1
601.819,0.001009,-0.001953125,-0.001953125,0.00390625,0.03125,-0.0546875,9.882812,0,0,0.001953125,0.009765625,0.0546875,0,-0.002685547,-0.004150391,0.01269531,0,0,0.01269531,0,4.077,0,0,0,0,nan,2,inf,0,0,0,0,0,0,0,0,0,1,1,1
601.829,0.001008,0,0,0.001953125,0.0390625,-0.015625,9.867188,0,0,0,0.009765625,0.0546875,0,-0.002685547,-0.004150391,0.01269531,0,0,0.01269531,0,4.077,0,0,0,0,nan,2,inf,0,0,0,0,0,0,0,0,0,1,1,1
601.839,0.001008,0,0,-0.00390625,0.015625,0.0078125,9.84375,0,0.001953125,0,0.009765625,0.0546875,0,-0.002685547,-0.004150391,0.01269531,0,0,0.01269531,0,4.077,0,0,0,0,nan,2,inf,0,0,0,0,0,0,0,0,0,1,1,1
601.849,0.001007,0.001953125,-0.001953125,-0.00390625,0.0078125,-0.0234375,9.859375,0,0,-0.001953125,0.009765625,0.0546875,0,-0.002685547,-0.004150391,0.01269531,0,0,0.01269531,0,4.077,0,0,0,0,nan,2,inf,0,0,0,0,0,0,0,0,0,1,1,1
601.859,0.001001,0,-0.001953125,0,0.046875,-0.0390625,9.8125,0,0,-0.001953125,0.009765625,0.0546875,0,-0.002685547,-0.004150391,0.01257324,0,0,0.01257324,0,4.077,0,0,0,0,nan,2,inf,0,0,0,0,0,0,0,0,0,1,1,1
601.869,0.001006,-0.001953125,-0.001953125,0,0.03125,-0.046875,9.84375,-0.001953125,0,-0.001953125,0.009765625,0.0546875,0,-0.002685547,-0.004150391,0.01257324,0,0,0.01257324,0,4.077,0,0,0,0,nan,2,inf,0,0,0,0,0,0,0,0,0,1,1,1
601.879,0.001008,0,-0.001953125,0.001953125,0.0703125,-0.0546875,9.828125,-0.001953125,0,0,0.009765625,0.0546875,0,-0.002685547,-0.004150391,0.01257324,0,0,0.01257324,0,4.077,0,0,0,0,nan,2,inf,0,0,0,0,0,0,0,0,0,1,1,1
601.889,0.001009,0,-0.001953125,0,0.0234375,-0.015625,9.890625,0,0,0,0.009765625,0.0546875,0,-0.002685547,-0.004150391,0.01257324,0,0,0.01257324,0,4.077,0,0,0,0,nan,2,inf,0,0,0,0,0,0,0,0,0,1,1,1
601.899,0.001008,-0.00390625,0.001953125,0,0.0234375,-0.0390625,9.835938,0,0,0,0.009765625,0.0546875,0,-0.002685547,-0.004150391,0.01257324,0,0,0.01257324,0,4.077,0,0,0,0,nan,2,inf,0,0,0,0,0,0,0,0,0,1,1,1
601.91,0.001008,0,0.001953125,0,0.046875,-0.03125,9.851562,0,0,0,0.009765625,0.0546875,0,-0.002685547,-0.004150391,0.01257324,0,0,0.01257324,0,4.077,0,0,0,0,nan,2,inf,0,0,0,0,0,0,0,0,0,1,1,1
601.92,0.001008,-0.001953125,0,0.001953125,0.015625,-0.046875,9.867188,0,0,0,0.009765625,0.0546875,0,-0.002685547,-0.004150391,0.01257324,0,0,0.01257324,0,4.077,0,0,0,0,nan,2,inf,0,0,0,0,0,0,0,0,0,1,1,1
601.929,0.001012,-0.001953125,-0.001953125,0,0.0546875,-0.0078125,9.796875,0,0,0,0.009765625,0.0546875,0,-0.002685547,-0.004150391,0.01257324,0,0,0.01257324,0,4.077,0,0,0,0,nan,2,inf,0,0,0,0,0,0,0,0,0,1,1,1
601.939,0.001012,0,0.001953125,-0.001953125,0.046875,-0.0390625,9.820312,0,0.001953125,-0.001953125,0.009765625,0.0546875,0,-0.002685547,-0.004150391,0.01257324,0,0,0.01257324,0,4.077,0,0,0,0,nan,2,inf,0,0,0,0,0,0,0,0,0,1,1,1
601.949,0.001015,0,-0.001953125,0,0.0625,0,9.804688,0,0,0,0.009765625,0.0546875,0,-0.002685547,-0.004150391,0.01257324,0,0,0.01257324,0,4.077,0,0,0,0,nan,2,inf,0,0,0,0,0,0,0,0,0,1,1,1
601.959,0.001008,0.001953125,-0.001953125,0,0.0546875,0.0078125,9.875,0,0,0,0.009765625,0.0546875,0,-0.002685547,-0.004150391,0.01257324,0,0,0.01257324,0,4.077,0,0,0,0,nan,2,inf,0,0,0,0,0,0,0,0,0,1,1,1
601.969,0.001012,0.001953125,0,0,0.0234375,-0.015625,9.84375,0.001953125,0,0,0.009765625,0.0546875,0,-0.002685547,-0.004150391,0.01257324,0,0,0.01257324,0,4.077,0,0,0,0,nan,2,inf,0,0,0,0,0,0,0,0,0,1,1,1
601.979,0.001008,-0.001953125,-0.001953125,0,0.0234375,-0.03125,9.890625,0,0,0,0.009765625,0.0546875,0,-0.002685547,-0.004150391,0.01257324,0,0,0.01257324,0,4.077,0,0,0,0,nan,2,inf,0,0,0,0,0,0,0,0,0,1,1,1
601.989,0.001012,0,0.001953125,0,0.0234375,-0.015625,9.882812,0,0,0.001953125,0.009765625,0.0546875,0,-0.002685547,-0.004150391,0.01257324,0,0,0.01257324,0,4.077,0,0,0,0,nan,2,inf,0,0,0,0,0,0,0,0,0,1,1,1
601.999,0.001012,0,0.001953125,-0.001953125,0.0546875,-0.0625,9.835938,-0.001953125,0.001953125,-0.001953125,0.009765625,0.0546875,0,-0.002685547,-0.004150391,0.01257324,0,0,0.01257324,0,4.077,0,0,0,0,nan,2,inf,0,0,0,0,0,0,0,0,0,1,1,1
602.01,0.001012,-0.001953125,0.001953125,-0.001953125,0.0078125,-0.015625,9.859375,-0.001953125,0,-0.001953125,0.009765625,0.0546875,0,-0.002685547,-0.004150391,0.01257324,0,0,0.01257324,0,4.077,0,0,0,0,nan,2,inf,0,0,0,0,0,0,0,0,0,1,1,1
602.02,0.001012,0,0.001953125,0.001953125,0.0390625,0,9.851562,0,0,0,0.009765625,0.0546875,0,-0.002685547,-0.004150391,0.01257324,0,0,0.01257324,0,4.077,0,0,0,0,nan,2,inf,0,0,0,0,0,0,0,0,0,1,1,1
602.029,0.001003,-0.001953125,0.00390625,-0.001953125,0.0390625,-0.046875,9.835938,-0.001953125,0.001953125,0,0.009765625,0.0546875,0,-0.002685547,-0.004150391,0.01257324,0,0,0.01257324,0,4.077,0,0,0,0,nan,2,inf,0,0,0,0,0,0,0,0,0,1,1,1
602.039,0.001002,-0.001953125,0,-0.00390625,0.0625,-0.015625,9.859375,0,0,-0.001953125,0.009765625,0.0546875,0,-0.002685547,-0.004150391,0.01257324,0,0,0.01257324,0,4.077,0,0,0,0,nan,2,inf,0,0,0,0,0,0,0,0,0,1,1,1
602.049,0.001,0,-0.00390625,0,0.03125,-0.015625,9.851562,0,-0.001953125,0,0.009765625,0.0546875,0,-0.002685547,-0.004150391,0.01257324,0,0,0.01257324,0,4.077,0,0,0,0,nan,2,inf,0,0,0,0,0,0,0,0,0,1,1,1
602.059,0.001006,-0.001953125,0,-0.00390625,0.0546875,-0.03125,9.835938,0,0,-0.001953125,0.009765625,0.0546875,0,-0.002807617,-0.004150391,0.01257324,0,0,0.01257324,0,4.077,0,0,0,0,nan,2,inf,0,0,0,0,0,0,0,0,0,1,1,1
602.069,0.001002,0.001953125,-0.001953125,0.001953125,0.0390625,-0.0546875,9.867188,0,0,0,0.009765625,0.0546875,0,-0.002807617,-0.004150391,0.01257324,0,0,0.01257324,0,4.077,0,0,0,0,nan,2,inf,0,0,0,0,0,0,0,0,0,1,1,1
602.079,0.001003,0.001953125,0.001953125,-0.001953125,0.03125,-0.03125,9.835938,0,0,0,0.009765625,0.0546875,0,-0.002807617,-0.004150391,0.01257324,0,0,0.01257324,0,4.077,0,0,0,0,nan,2,inf,0,0,0,0,0,0,0,0,0,1,1,1
602.089,0.001002,-0.001953125,-0.00390625,0.001953125,0.0625,-0.0625,9.84375,-0.001953125,0,0.001953125,0.009765625,0.0546875,0,-0.002807617,-0.004150391,0.01257324,0,0,0.01257324,0,4.077,0,0,0,0,nan,2,inf,0,0,0,0,0,0,0,0,0,1,1,1
602.099,0.001003,0.00390625,0.001953125,0,0.03125,-0.015625,9.851562,0.001953125,0,0,0.009765625,0.0546875,0,-0.002807617,-0.004150391,0.01257324,0,0,0.01257324,0,4.077,0,0,0,0,nan,2,inf,0,0,0,0,0,0,0,0,0,1,1,1
602.109,0.001002,0,-0.001953125,0,0.0390625,0.0078125,9.820312,0,0,0,0.009765625,0.0546875,0,-0.002807617,-0.004150391,0.01257324,0,0,0.01257324,0,4.077,0,0,0,0,nan,2,inf,0,0,0,0,0,0,0,0,0,1,1,1
602.119,0.001007,-0.001953125,-0.001953125,0,0.0390625,-0.0390625,9.875,0,0,0,0.009765625,0.0546875,0,-0.002807617,-0.004150391,0.01257324,0,0,0.01257324,0,4.077,0,0,0,0,nan,2,inf,0,0,0,0,0,0,0,0,0,1,1,1
602.129,0.001016,0,-0.001953125,0,0.0546875,-0.046875,9.851562,0,0,0,0.009765625,0.0546875,0,-0.002807617,-0.00402832,0.01257324,0,0,0.01257324,0,4.077,0,0,0,0,nan,2,inf,0,0,0,0,0,0,0,0,0,1,1,1
602.139,0.001016,0,-0.001953125,0,0.0625,-0.0546875,9.890625,-0.001953125,-0.001953125,0,0.009765625,0.0546875,0,-0.002807617,-0.004150391,0.01257324,0,0,0.01257324,0,4.077,0,0,0,0,nan,2,inf,0,0,0,0,0,0,0,0,0,1,1,1
602.149,0.001017,0,0.001953125,0,0.015625,-0.0390625,9.84375,0,0,0,0.009765625,0.0546875,0,-0.002807617,-0.004150391,0.01257324,0,0,0.01257324,0,4.077,0,0,0,0,nan,2,inf,0,0,0,0,0,0,0,0,0,1,1,1
602.159,0.001012,-0.00390625,-0.001953125,0,0.015625,-0.0234375,9.796875,0,0,-0.001953125,0.009765625,0.0546875,0,-0.002807617,-0.004150391,0.01257324,0,0,0.01257324,0,4.077,0,0,0,0,nan,2,inf,0,0,0,0,0,0,0,0,0,1,1,1
602.169,0.001015,0,-0.001953125,0,0.0546875,0,9.882812,0,0,0,0.009765625,0.0546875,0,-0.002807617,-0.004150391,0.01257324,0,0,0.01257324,0,4.077,0,0,0,0,nan,2,inf,0,0,0,0,0,0,0,0,0,1,1,1
602.179,0.001016,0,0.001953125,0,0.046875,-0.015625,9.859375,-0.001953125,0,0,0.009765625,0.0546875,0,-0.002807617,-0.004150391,0.01257324,0,0,0.01257324,0,4.077,0,0,0,0,nan,2,inf,0,0,0,0,0,0,0,0,0,1,1,1
602.19,0.001054,0,-0.001953125,-0.001953125,0.046875,0,9.851562,0,0,-0.001953125,0.009765625,0.0546875,0,-0.002807617,-0.004150391,0.01257324,0,0,0.01257324,0,4.077,0,0,0,0,nan,2,inf,0,0,0,0,0,0,0,0,0,1,1,1
602.199,0.001015,0,0.001953125,0,0.046875,-0.0078125,9.859375,0,0,0,0.009765625,0.0546875,0,-0.002807617,-0.004150391,0.01257324,0,0,0.01257324,0,4.077,0,0,0,0,nan,2,inf,0,0,0,0,0,0,0,0,0,1,1,1
602.209,0.001016,-0.001953125,0.001953125,0,0.03125,0,9.835938,0,0,0,0.009765625,0.0546875,0,-0.002807617,-0.004150391,0.01257324,0,0,0.01257324,0,4.077,0,0,0,0,nan,2,inf,0,0,0,0,0,0,0,0,0,1,1,1
602.22,0.001016,0,0.001953125,-0.001953125,0.0390625,0.0078125,9.84375,-0.001953125,0.001953125,0,0.009765625,0.0546875,0,-0.002807617,-0.004150391,0.01257324,0,0,0.01257324,0,4.077,0,0,0,0,nan,2,inf,0,0,0,0,0,0,0,0,0,1,1,1
602.229,0.00101,-0.001953125,-0.001953125,-0.001953125,0.03125,0.0078125,9.851562,0,0,-0.001953125,0.009765625,0.0546875,0,-0.002807617,-0.00402832,0.01257324,0,0,0.01257324,0,4.077,0,0,0,0,nan,2,inf,0,0,0,0,0,0,0,0,0,1,1,1
602.239,0.00101,0.001953125,0.001953125,-0.001953125,0.0234375,-0.0234375,9.859375,0,0,0,0.009765625,0.0546875,0,-0.002807617,-0.00402832,0.01257324,0,0,0.01257324,0,4.077,0,0,0,0,nan,2,inf,0,0,0,0,0,0,0,0,0,1,1,1
602.249,0.001014,0,0,0,0.078125,-0.0234375,9.875,-0.001953125,0,0.001953125,0.009765625,0.0546875,0,-0.002807617,-0.00402832,0.01257324,0,0,0.01257324,0,4.077,0,0,0,0,nan,2,inf,0,0,0,0,0,0,0,0,0,1,1,1
602.259,0.001005,0,-0.001953125,0,0.0390625,-0.0078125,9.875,0,-0.001953125,0,0.009765625,0.0546875,0,-0.002807617,-0.00402832,0.01257324,0,0,0.01257324,0,4.077,0,0,0,0,nan,2,inf,0,0,0,0,0,0,0,0,0,1,1,1
602.269,0.001011,0,0.001953125,-0.00390625,0.0625,0,9.859375,0,0,-0.001953125,0.009765625,0.0546875,0,-0.002807617,-0.00402832,0.01257324,0,0,0.01257324,0,4.077,0,0,0,0,nan,2,inf,0,0,0,0,0,0,0,0,0,1,1,1
602.279,0.001052,-0.001953125,-0.001953125,0.001953125,0.0625,-0.0234375,9.90625,0,0,0,0.009765625,0.0546875,0,-0.002807617,-0.00402832,0.01245117,0,0,0.01245117,0,4.077,0,0,0,0,nan,2,inf,0,0,0,0,0,0,0,0,0,1,1,1
602.289,0.00101,-0.001953125,0.001953125,0.001953125,0.0625,-0.0546875,9.875,0,0.001953125,0,0.009765625,0.0546875,0,-0.002807617,-0.00402832,0.01257324,0,0,0.01257324,0,4.077,0,0,0,0,nan,2,inf,0,0,0,0,0,0,0,0,0,1,1,1
602.299,0.001011,0.00390625,-0.001953125,-0.001953125,0.078125,-0.0234375,9.859375,0.001953125,0,0,0.009765625,0.0546875,0,-0.002807617,-0.00402832,0.01257324,0,0,0.01257324,0,4.077,0,0,0,0,nan,2,inf,0,0,0,0,0,0,0,0,0,1,1,1
602.309,0.00101,-0.001953125,-0.00390625,0,0.0703125,-0.0546875,9.804688,0,0,0,0.009765625,0.0546875,0,-0.002807617,-0.00402832,0.01257324,0,0,0.01257324,0,4.077,0,0,0,0,nan,2,inf,0,0,0,0,0,0,0,0,0,1,1,1
602.32,0.00101,0.001953125,0.00390625,0.001953125,0.0625,-0.0234375,9.859375,0.001953125,0,0,0.009765625,0.0546875,0,-0.002807617,-0.00402832,0.01257324,0,0,0.01257324,0,4.077,0,0,0,0,nan,2,inf,0,0,0,0,0,0,0,0,0,1,1,1
602.329,0.001009,-0.001953125,0,0.001953125,0.0078125,-0.0546875,9.882812,0,0,0.001953125,0.009765625,0.0546875,0,-0.002807617,-0.00402832,0.01257324,0,0,0.01257324,0,4.077,0,0,0,0,nan,2,inf,0,0,0,0,0,0,0,0,0,1,1,1
602.339,0.00101,0.001953125,0,0.001953125,0.0390625,-0.046875,9.859375,0,0,0,0.009765625,0.0546875,0,-0.002807617,-0.00402832,0.01257324,0,0,0.01257324,0,4.077,0,0,0,0,nan,2,inf,0,0,0,0,0,0,0,0,0,1,1,1
602.349,0.001012,-0.001953125,-0.001953125,0,0.0390625,-0.0234375,9.820312,-0.001953125,-0.001953125,0,0.009765625,0.0546875,0,-0.002807617,-0.00402832,0.01257324,0,0,0.01257324,0,4.077,0,0,0,0,nan,2,inf,0,0,0,0,0,0,0,0,0,1,1,1
602.359,0.001014,0,0.001953125,0,0.046875,-0.0234375,9.84375,0,0,0.001953125,0.009765625,0.0546875,0,-0.002807617,-0.00402832,0.01257324,0,0,0.01257324,0,4.077,0,0,0,0,nan,2,inf,0,0,0,0,0,0,0,0,0,1,1,1
602.369,0.001011,0,-0.00390625,0.001953125,0.046875,-0.0390625,9.90625,0,-0.001953125,0,0.009765625,0.0546875,0,-0.002807617,-0.00402832,0.01257324,0,0,0.01257324,0,4.077,0,0,0,0,nan,2,inf,0,0,0,0,0,0,0,0,0,1,1,1
602.379,0.00101,0,-0.001953125,0.00390625,0.03125,-0.0546875,9.820312,-0.001953125,-0.001953125,0.00390625,0.009765625,0.0546875,0,-0.002807617,-0.004150391,0.01257324,0,0,0.01257324,0,4.077,0,0,0,0,nan,2,inf,0,0,0,0,0,0,0,0,0,1,1,1
602.389,0.000954,0,0,0,0.0546875,-0.046875,9.835938,0,0,0,0.009765625,0.0546875,0,-0.002807617,-0.004150391,0.01257324,0,0,0.01257324,0,4.077,0,0,0,0,nan,2,inf,0,0,0,0,0,0,0,0,0,1,1,1
602.399,0.00101,-0.001953125,0.001953125,-0.00390625,0.0625,-0.0234375,9.859375,-0.001953125,0,-0.001953125,0.009765625,0.0546875,0,-0.002807617,-0.004150391,0.01257324,0,0,0.01257324,0,4.077,0,0,0,0,nan,2,inf,0,0,0,0,0,0,0,0,0,1,1,1
602.409,0.00101,0.00390625,-0.001953125,0.00390625,0.0390625,-0.015625,9.851562,0.001953125,0,0.001953125,0.009765625,0.0546875,0,-0.002807617,-0.004150391,0.01257324,0,0,0.01257324,0,4.077,0,0,0,0,nan,2,inf,0,0,0,0,0,0,0,0,0,1,1,1
602.42,0.00101,-0.00390625,-0.00390625,0,0.03125,-0.03125,9.828125,0,0,0,0.009765625,0.0546875,0,-0.002807617,-0.00402832,0.01257324,0,0,0.01257324,0,4.077,0,0,0,0,nan,2,inf,0,0,0,0,0,0,0,0,0,1,1,1
602.429,0.00101,-0.001953125,0,0.001953125,0.0546875,0.015625,9.859375,-0.001953125,0,0,0.009765625,0.0546875,0,-0.002807617,-0.00402832,0.01257324,0,0,0.01257324,0,4.077,0,0,0,0,nan,2,inf,0,0,0,0,0,0,0,0,0,1,1,1
602.439,0.00101,0,-0.001953125,0,0.0546875,-0.03125,9.867188,0,0,0.001953125,0.009765625,0.0546875,0,-0.002807617,-0.00402832,0.01257324,0,0,0.01257324,0,4.077,0,0,0,0,nan,2,inf,0,0,0,0,0,0,0,0,0,1,1,1
602.449,0.001012,-0.00390625,-0.001953125,0.001953125,0.0390625,-0.015625,9.859375,0,-0.001953125,0.001953125,0.009765625,0.0546875,0,-0.002807617,-0.00402832,0.01269531,0,0,0.01269531,0,4.077,0,0,0,0,nan,2,inf,0,0,0,0,0,0,0,0,0,1,1,1
602.459,0.00101,-0.001953125,-0.001953125,0,0.015625,-0.03125,9.875,0,-0.001953125,0.001953125,0.009765625,0.0546875,0,-0.002807617,-0.004150391,0.01269531,0,0,0.01269531,0,4.077,0,0,0,0,nan,2,inf,0,0,0,0,0,0,0,0,0,1,1,1
602.469,0.001012,0.001953125,0,0.001953125,0,-0.03125,9.828125,0.001953125,0,0,0.009765625,0.0546875,0,-0.002807617,-0.004150391,0.01269531,0,0,0.01269531,0,4.077,0,0,0,0,nan,2,inf,0,0,0,0,0,0,0,0,0,1,1,1
602.479,0.00101,0.00390625,0.001953125,0.00390625,0.0546875,-0.03125,9.804688,0.001953125,0,0,0.009765625,0.0546875,0,-0.002807617,-0.00402832,0.01269531,0,0,0.01269531,0,4.077,0,0,0,0,nan,2,inf,0,0,0,0,0,0,0,0,0,1,1,1
602.489,0.00101,0,0,0,0.0703125,-0.0390625,9.851562,0,0.001953125,0,0.009765625,0.0546875,0,-0.002807617,-0.00402832,0.01269531,0,0,0.01269531,0,4.077,0,0,0,0,nan,2,inf,0,0,0,0,0,0,0,0,0,1,1,1
602.499,0.001009,0.001953125,0.001953125,0.001953125,0.03125,-0.015625,9.84375,0,0,0,0.009765625,0.0546875,0,-0.002807617,-0.00402832,0.01269531,0,0,0.01269531,0,4.077,0,0,0,0,nan,2,inf,0,0,0,0,0,0,0,0,0,1,1,1
602.509,0.00101,0.00390625,-0.001953125,0,0.078125,-0.03125,9.835938,0.001953125,0.001953125,-0.001953125,0.009765625,0.0546875,0,-0.002807617,-0.00402832,0.01269531,0,0,0.01269531,0,4.077,0,0,0,0,nan,2,inf,0,0,0,0,0,0,0,0,0,1,1,1
602.52,0.00101,0,0.00390625,-0.00390625,0.0703125,-0.0078125,9.796875,0,0.001953125,-0.001953125,0.009765625,0.0546875,0,-0.002807617,-0.00402832,0.01269531,0,0,0.01269531,0,4.077,0,0,0,0,nan,2,inf,0,0,0,0,0,0,0,0,0,1,1,1
602.529,0.001006,0.001953125,0,0,0.0234375,0,9.851562,0,0,0,0.009765625,0.0546875,0,-0.002807617,-0.00402832,0.01269531,0,0,0.01269531,0,4.077,0,0,0,0,nan,2,inf,0,0,0,0,0,0,0,0,0,1,1,1
602.539,0.001006,0,-0.00390625,0,0.0078125,-0.03125,9.867188,0,-0.001953125,-0.001953125,0.009765625,0.0546875,0,-0.002807617,-0.00402832,0.01257324,0,0,0.01257324,0,4.077,0,0,0,0,nan,2,inf,0,0,0,0,0,0,0,0,0,1,1,1
602.549,0.001007,0.001953125,-0.001953125,-0.001953125,0.0390625,-0.0390625,9.820312,0,0,-0.001953125,0.009765625,0.0546875,0,-0.002807617,-0.00402832,0.01257324,0,0,0.01257324,0,4.077,0,0,0,0,nan,2,inf,0,0,0,0,0,0,0,0,0,1,1,1
602.559,0.001003,-0.001953125,0,-0.00390625,0.0625,-0.0546875,9.90625,0,0,-0.001953125,0.009765625,0.0546875,0,-0.002807617,-0.00402832,0.01257324,0,0,0.01257324,0,4.077,0,0,0,0,nan,2,inf,0,0,0,0,0,0,0,0,0,1,1,1
602.569,0.001003,0.001953125,0,-0.00390625,0.0390625,-0.0078125,9.820312,-0.001953125,-0.001953125,-0.001953125,0.009765625,0.0546875,0,-0.002807617,-0.00402832,0.01257324,0,0,0.01257324,0,4.077,0,0,0,0,nan,2,inf,0,0,0,0,0,0,0,0,0,1,1,1
602.579,0.001006,0,0,-0.00390625,0.03125,-0.0078125,9.851562,0,0,0,0.009765625,0.0546875,0,-0.002807617,-0.00402832,0.01257324,0,0,0.01257324,0,4.077,0,0,0,0,nan,2,inf,0,0,0,0,0,0,0,0,0,1,1,1
602.589,0.001006,0.001953125,0.001953125,0,0.0625,-0.0234375,9.875,0,0.001953125,0,0.009765625,0.0546875,0,-0.002807617,-0.004150391,0.01257324,0,0,0.01257324,0,4.077,0,0,0,0,nan,2,inf,0,0,0,0,0,0,0,0,0,1,1,1
602.599,0.001006,-0.001953125,-0.00390625,0,0.015625,-0.03125,9.875,-0.001953125,-0.001953125,0,0.009765625,0.0546875,0,-0.002807617,-0.004150391,0.01257324,0,0,0.01257324,0,4.077,0,0,0,0,nan,2,inf,0,0,0,0,0,0,0,0,0,1,1,1
602.609,0.001007,0,0.001953125,0,0.0078125,0,9.828125,0,0,0,0.009765625,0.0546875,0,-0.002807617,-0.004150391,0.01257324,0,0,0.01257324,0,4.077,0,0,0,0,nan,2,inf,0,0,0,0,0,0,0,0,0,1,1,1
602.62,0.001006,-0.001953125,-0.001953125,0.001953125,0.03125,-0.0078125,9.921875,-0.001953125,-0.001953125,0.001953125,0.009765625,0.0546875,0,-0.002807617,-0.004150391,0.01257324,0,0,0.01257324,0,4.077,0,0,0,0,nan,2,inf,0,0,0,0,0,0,0,0,0,1,1,1
602.629,0.001013,0,-0.001953125,0.001953125,0.015625,-0.0078125,9.867188,0,0,0.001953125,0.009765625,0.0546875,0,-0.002807617,-0.004150391,0.01257324,0,0,0.01257324,0,4.077,0,0,0,0,nan,2,inf,0,0,0,0,0,0,0,0,0,1,1,1
602.639,0.001013,0.001953125,0.001953125,0,0.0546875,-0.015625,9.804688,0.001953125,0.001953125,0,0.009765625,0.0546875,0,-0.002807617,-0.004150391,0.01257324,0,0,0.01257324,0,4.077,0,0,0,0,nan,2,inf,0,0,0,0,0,0,0,0,0,1,1,1
602.649,0.001012,-0.001953125,-0.001953125,0,0.0625,-0.03125,9.890625,0.001953125,0,0,0.009765625,0.0546875,0,-0.002807617,-0.00402832,0.01257324,0,0,0.01257324,0,4.077,0,0,0,0,nan,2,inf,0,0,0,0,0,0,0,0,0,1,1,1
602.659,0.001014,0,0.00390625,0.00390625,0.0390625,-0.0078125,9.796875,0,0,0.001953125,0.009765625,0.0546875,0,-0.002807617,-0.00402832,0.01257324,0,0,0.01257324,0,4.077,0,0,0,0,nan,2,inf,0,0,0,0,0,0,0,0,0,1,1,1
602.669,0.001008,0,0.001953125,0,0.0625,-0.0703125,9.882812,0,0,0,0.009765625,0.0546875,0,-0.002807617,-0.00402832,0.01257324,0,0,0.01257324,0,4.077,0,0,0,0,nan,2,inf,0,0,0,0,0,0,0,0,0,1,1,1
602.679,0.001015,-0.001953125,0,0,0.0234375,-0.0078125,9.8125,0,0.001953125,0,0.009765625,0.0546875,0,-0.002807617,-0.00402832,0.01269531,0,0,0.01269531,0,4.077,0,0,0,0,nan,2,inf,0,0,0,0,0,0,0,0,0,1,1,1
602.689,0.001013,-0.00390625,0.001953125,-0.001953125,0.0625,-0.0234375,9.820312,-0.001953125,0,0,0.009765625,0.0546875,0,-0.002807617,-0.00402832,0.01257324,0,0,0.01257324,0,4.077,0,0,0,0,nan,2,inf,0,0,0,0,0,0,0,0,0,1,1,1
602.699,0.001011,-0.001953125,0.001953125,-0.00390625,0.03125,-0.0234375,9.898438,0,0,-0.001953125,0.009765625,0.0546875,0,-0.002807617,-0.00402832,0.01257324,0,0,0.01257324,0,4.077,0,0,0,0,nan,2,inf,0,0,0,0,0,0,0,0,0,1,1,1
602.709,0.001013,0.001953125,-0.001953125,-0.001953125,0.0546875,-0.0234375,9.804688,0.001953125,0,0,0.009765625,0.0546875,0,-0.002807617,-0.00402832,0.01257324,0,0,0.01257324,0,4.077,0,0,0,0,nan,2,inf,0,0,0,0,0,0,0,0,0,1,1,1
602.72,0.001013,0.001953125,0.001953125,0,0.0390625,0,9.898438,0.001953125,0,-0.001953125,0.009765625,0.0546875,0,-0.002807617,-0.00402832,0.01257324,0,0,0.01257324,0,4.077,0,0,0,0,nan,2,inf,0,0,0,0,0,0,0,0,0,1,1,1
602.729,0.001012,-0.001953125,0.001953125,0.001953125,0.0546875,-0.0078125,9.875,0,0.001953125,0,0.009765625,0.0546875,0,-0.002807617,-0.00402832,0.01257324,0,0,0.01257324,0,4.077,0,0,0,0,nan,2,inf,0,0,0,0,0,0,0,0,0,1,1,1
602.739,0.001013,0.001953125,0.001953125,0,0.0234375,-0.0234375,9.789062,0.001953125,0.001953125,0,0.009765625,0.0546875,0,-0.002807617,-0.00402832,0.01257324,0,0,0.01257324,0,4.077,0,0,0,0,nan,2,inf,0,0,0,0,0,0,0,0,0,1,1,1
602.749,0.001016,-0.001953125,-0.001953125,-0.001953125,0.0390625,-0.0078125,9.859375,0,0,-0.001953125,0.009765625,0.0546875,0,-0.002807617,-0.00402832,0.01257324,0,0,0.01257324,0,4.077,0,0,0,0,nan,2,inf,0,0,0,0,0,0,0,0,0,1,1,1
602.759,0.001013,-0.001953125,0.001953125,0.001953125,0.0546875,-0.046875,9.875,0,-0.001953125,0,0.009765625,0.0546875,0,-0.002807617,-0.00402832,0.01257324,0,0,0.01257324,0,4.077,0,0,0,0,nan,2,inf,0,0,0,0,0,0,0,0,0,1,1,1
602.769,0.001012,0.001953125,-0.001953125,-0.001953125,0.0234375,-0.046875,9.84375,0,0,-0.001953125,0.009765625,0.0546875,0,-0.002807617,-0.00402832,0.01257324,0,0,0.01257324,0,4.077,0,0,0,0,nan,2,inf,0,0,0,0,0,0,0,0,0,1,1,1
602.779,0.001013,0,0,-0.00390625,0.015625,-0.03125,9.882812,0.001953125,0,-0.001953125,0.009765625,0.0546875,0,-0.002807617,-0.00402832,0.01257324,0,0,0.01257324,0,4.077,0,0,0,0,nan,2,inf,0,0,0,0,0,0,0,0,0,1,1,1
602.789,0.001012,0,0,0.001953125,0.015625,-0.0390625,9.867188,-0.001953125,0,0,0.009765625,0.0546875,0,-0.002807617,-0.00402832,0.01257324,0,0,0.01257324,0,4.077,0,0,0,0,nan,2,inf,0,0,0,0,0,0,0,0,0,1,1,1
602.799,0.001009,0,-0.001953125,0.001953125,0.03125,0.015625,9.84375,0,0,0,0.009765625,0.0546875,0,-0.002807617,-0.00402832,0.01257324,0,0,0.01257324,0,4.077,0,0,0,0,nan,2,inf,0,0,0,0,0,0,0,0,0,1,1,1
602.809,0.001012,0,0,0.00390625,0.015625,-0.0546875,9.867188,0,0,0.001953125,0.009765625,0.0546875,0,-0.002807617,-0.00402832,0.01257324,0,0,0.01257324,0,4.077,0,0,0,0,nan,2,inf,0,0,0,0,0,0,0,0,0,1,1,1
602.82,0.001014,0,0,0,0.0625,-0.03125,9.796875,0,0,0,0.009765625,0.0546875,0,-0.002807617,-0.00402832,0.01257324,0,0,0.01257324,0,4.077,0,0,0,0,nan,2,inf,0,0,0,0,0,0,0,0,0,1,1,1
602.829,0.001008,-0.001953125,0,0.001953125,0.03125,-0.0234375,9.867188,-0.001953125,0,0,0.009765625,0.0546875,0,-0.002807617,-0.00402832,0.01257324,0,0,0.01257324,0,4.077,0,0,0,0,nan,2,inf,0,0,0,0,0,0,0,0,0,1,1,1
602.839,0.001007,0,0.001953125,0,0.0546875,-0.0546875,9.84375,0,0.001953125,-0.001953125,0.009765625,0.0546875,0,-0.002807617,-0.00402832,0.01257324,0,0,0.01257324,0,4.077,0,0,0,0,nan,2,inf,0,0,0,0,0,0,0,0,0,1,1,1
602.849,0.001008,0.001953125,-0.001953125,-0.001953125,0.015625,-0.0390625,9.921875,0,0,0,0.009765625,0.0546875,0,-0.002807617,-0.00402832,0.01257324,0,0,0.01257324,0,4.077,0,0,0,0,nan,2,inf,0,0,0,0,0,0,0,0,0,1,1,1
602.859,0.001024,0.001953125,-0.001953125,0,0.0390625,-0.0234375,9.859375,0,0,0,0.009765625,0.0546875,0,-0.002807617,-0.00402832,0.01257324,0,0,0.01257324,0,4.077,0,0,0,0,nan,2,inf,0,0,0,0,0,0,0,0,0,1,1,1
602.869,0.001001,0,-0.001953125,0.001953125,0.0625,-0.0546875,9.914062,0,0,0,0.009765625,0.0546875,0,-0.002807617,-0.00402832,0.01257324,0,0,0.01257324,0,4.077,0,0,0,0,nan,2,inf,0,0,0,0,0,0,0,0,0,1,1,1
602.879,0.001006,-0.00390625,0,0.001953125,0.0390625,-0.015625,9.867188,-0.001953125,0,0,0.009765625,0.0546875,0,-0.002807617,-0.00402832,0.01257324,0,0,0.01257324,0,4.077,0,0,0,0,nan,2,inf,0,0,0,0,0,0,0,0,0,1,1,1
602.889,0.001009,-0.001953125,0,-0.001953125,0.0390625,-0.0625,9.84375,0,0,-0.001953125,0.009765625,0.0546875,0,-0.002807617,-0.00402832,0.01257324,0,0,0.01257324,0,4.077,0,0,0,0,nan,2,inf,0,0,0,0,0,0,0,0,0,1,1,1
602.899,0.001008,0,-0.001953125,0.001953125,0.046875,-0.0234375,9.9375,0.001953125,-0.001953125,0,0.009765625,0.0546875,0,-0.002807617,-0.00402832,0.01257324,0,0,0.01257324,0,4.077,0,0,0,0,nan,2,inf,0,0,0,0,0,0,0,0,0,1,1,1
602.909,0.001008,-0.001953125,0.001953125,0.001953125,0.03125,0.015625,9.796875,0,0,0,0.009765625,0.0546875,0,-0.002807617,-0.00402832,0.01257324,0,0,0.01257324,0,4.077,0,0,0,0,nan,2,inf,0,0,0,0,0,0,0,0,0,1,1,1
602.92,0.001009,-0.001953125,0.001953125,-0.001953125,0.0625,-0.0859375,9.8125,0,0.001953125,-0.001953125,0.009765625,0.0546875,0,-0.002807617,-0.00402832,0.01257324,0,0,0.01257324,0,4.077,0,0,0,0,nan,2,inf,0,0,0,0,0,0,0,0,0,1,1,1
602.93,0.001008,0.001953125,0.001953125,0.001953125,0.09375,-0.0234375,9.890625,0,0.001953125,0,0.009765625,0.0546875,0,-0.002807617,-0.00402832,0.01257324,0,0,0.01257324,0,4.077,0,0,0,0,nan,2,inf,0,0,0,0,0,0,0,0,0,1,1,1
602.939,0.001012,0,0.001953125,0,0.0234375,0,9.90625,0,0,0,0.009765625,0.0546875,0,-0.002807617,-0.00402832,0.01257324,0,0,0.01257324,0,4.077,0,0,0,0,nan,2,inf,0,0,0,0,0,0,0,0,0,1,1,1
602.949,0.001013,0.001953125,0.001953125,0.001953125,0.0390625,0.0078125,9.851562,0,0.001953125,0.001953125,0.009765625,0.0546875,0,-0.002807617,-0.00402832,0.01257324,0,0,0.01257324,0,4.077,0,0,0,0,nan,2,inf,0,0,0,0,0,0,0,0,0,1,1,1
602.959,0.001015,0,0.001953125,0,0.046875,0,9.84375,0,0,0,0.009765625,0.0546875,0,-0.002807617,-0.00402832,0.01257324,0,0,0.01257324,0,4.077,0,0,0,0,nan,2,inf,0,0,0,0,0,0,0,0,0,1,1,1
602.969,0.001008,0,-0.001953125,0,0.0625,-0.015625,9.898438,0,0,0,0.009765625,0.0546875,0,-0.002807617,-0.00402832,0.01257324,0,0,0.01257324,0,4.077,0,0,0,0,nan,2,inf,0,0,0,0,0,0,0,0,0,1,1,1
602.979,0.001012,-0.001953125,-0.001953125,-0.001953125,0.0234375,-0.03125,9.867188,0,-0.001953125,-0.001953125,0.009765625,0.0546875,0,-0.002807617,-0.00402832,0.01257324,0,0,0.01257324,0,4.077,0,0,0,0,nan,2,inf,0,0,0,0,0,0,0,0,0,1,1,1
602.989,0.000994,-0.00390625,-0.005859375,0,0.03125,-0.0390625,9.882812,0,-0.001953125,0,0.009765625,0.0546875,0,-0.002807617,-0.00402832,0.01257324,0,0,0.01257324,0,4.077,0,0,0,0,nan,2,inf,0,0,0,0,0,0,0,0,0,1,1,1
602.999,0.001012,0.001953125,-0.001953125,-0.001953125,-0.015625,-0.03125,9.859375,0.001953125,0,-0.001953125,0.009765625,0.0546875,0,-0.002807617,-0.00402832,0.01257324,0,0,0.01257324,0,4.077,0,0,0,0,nan,2,inf,0,0,0,0,0,0,0,0,0,1,1,1
603.009,0.001012,0,-0.001953125,0.001953125,0.015625,-0.0234375,9.859375,0,0,0.001953125,0.009765625,0.0546875,0,-0.002807617,-0.00402832,0.01257324,0,0,0.01257324,0,4.077,0,0,0,0,nan,2,inf,0,0,0,0,0,0,0,0,0,1,1,1
603.02,0.001012,0.001953125,-0.001953125,0,0.0390625,-0.0546875,9.890625,0.001953125,-0.001953125,0,0.009765625,0.0546875,0,-0.002807617,-0.00402832,0.01257324,0,0,0.01257324,0,4.077,0,0,0,0,nan,2,inf,0,0,0,0,0,0,0,0,0,1,1,1
603.03,0.001013,0,-0.001953125,-0.00390625,0.0078125,-0.0078125,9.84375,0,0,-0.001953125,0.009765625,0.0546875,0,-0.002807617,-0.00402832,0.01257324,0,0,0.01257324,0,4.077,0,0,0,0,nan,2,inf,0,0,0,0,0,0,0,0,0,1,1,1
603.039,0.001002,0.001953125,0,0,0.0546875,-0.0234375,9.851562,0,0,0,0.009765625,0.0546875,0,-0.002807617,-0.00402832,0.01257324,0,0,0.01257324,0,4.077,0,0,0,0,nan,2,inf,0,0,0,0,0,0,0,0,0,1,1,1
603.049,0.001003,0,0.00390625,0,0.0625,-0.0390625,9.890625,0,0.001953125,0,0.009765625,0.0546875,0,-0.002807617,-0.00402832,0.01257324,0,0,0.01257324,0,4.077,0,0,0,0,nan,2,inf,0,0,0,0,0,0,0,0,0,1,1,1
603.059,0.001003,0.00390625,0.001953125,0,0.0390625,-0.0546875,9.78125,0.001953125,0,0,0.009765625,0.0546875,0,-0.002807617,-0.00402832,0.01257324,0,0,0.01257324,0,4.077,0,0,0,0,nan,2,inf,0,0,0,0,0,0,0,0,0,1,1,1
603.069,0.001006,0,0,-0.001953125,0.0546875,-0.0078125,9.804688,0,0,-0.001953125,0.009765625,0.0546875,0,-0.002807617,-0.00402832,0.01257324,0,0,0.01257324,0,4.077,0,0,0,0,nan,2,inf,0,0,0,0,0,0,0,0,0,1,1,1
603.079,0.001002,-0.001953125,0,0,0.0390625,-0.0703125,9.84375,-0.001953125,0,-0.001953125,0.009765625,0.0546875,0,-0.002807617,-0.00402832,0.01257324,0,0,0.01257324,0,4.077,0,0,0,0,nan,2,inf,0,0,0,0,0,0,0,0,0,1,1,1
603.089,0.001004,-0.001953125,-0.00390625,-0.001953125,0.046875,-0.0078125,9.84375,0,0,-0.001953125,0.009765625,0.0546875,0,-0.002807617,-0.00402832,0.01257324,0,0,0.01257324,0,4.077,0,0,0,0,nan,2,inf,0,0,0,0,0,0,0,0,0,1,1,1
603.099,0.000976,0,-0.001953125,0.001953125,0.03125,-0.0234375,9.90625,0,-0.001953125,0,0.009765625,0.0546875,0,-0.002685547,-0.00402832,0.01257324,0,0,0.01257324,0,4.077,0,0,0,0,nan,2,inf,0,0,0,0,0,0,0,0,0,1,1,1
603.109,0.000952,0,0,0,0.03125,0.015625,9.828125,0.001953125,0,-0.001953125,0.009765625,0.0546875,0,-0.002685547,-0.00402832,0.01257324,0,0,0.01257324,0,4.077,0,0,0,0,nan,2,inf,0,0,0,0,0,0,0,0,0,1,1,1
603.12,0.001035,-0.00390625,-0.001953125,0,0.046875,-0.0234375,9.835938,0,0,0,0.009765625,0.0546875,0,-0.002685547,-0.00402832,0.01257324,0,0,0.01257324,0,4.077,0,0,0,0,nan,2,inf,0,0,0,0,0,0,0,0,0,1,1,1
603.129,0.001057,-0.001953125,0,0.001953125,0.0234375,-0.0234375,9.84375,-0.001953125,-0.001953125,0,0.009765625,0.0546875,0,-0.002685547,-0.00402832,0.01245117,0,0,0.01245117,0,4.077,0,0,0,0,nan,2,inf,0,0,0,0,0,0,0,0,0,1,1,1
603.139,0.00101,0,0,0,0.046875,-0.0390625,9.84375,0,0,0,0.009765625,0.0546875,0,-0.002685547,-0.00402832,0.01245117,0,0,0.01245117,0,4.077,0,0,0,0,nan,2,inf,0,0,0,0,0,0,0,0,0,1,1,1
603.149,0.001031,0,0.001953125,0,0.046875,-0.046875,9.851562,0,0,0,0.009765625,0.0546875,0,-0.002807617,-0.004150391,0.01245117,0,0,0.01245117,0,4.077,0,0,0,0,nan,2,inf,0,0,0,0,0,0,0,0,0,1,1,1
603.159,0.001039,0.001953125,-0.001953125,0,0.0859375,-0.0234375,9.8125,0.001953125,0,0,0.009765625,0.0546875,0,-0.002685547,-0.00402832,0.01245117,0,0,0.01245117,0,4.077,0,0,0,0,nan,2,inf,0,0,0,0,0,0,0,0,0,1,1,1
603.169,0.00103,0,0.001953125,0.001953125,0.0390625,0.0078125,9.796875,0,0.001953125,0,0.009765625,0.0546875,0,-0.002685547,-0.00402832,0.01245117,0,0,0.01245117,0,4.077,0,0,0,0,nan,2,inf,0,0,0,0,0,0,0,0,0,1,1,1
603.179,0.000988,-0.001953125,0,0.001953125,0.03125,0.0234375,9.835938,-0.001953125,0,0.001953125,0.009765625,0.0546875,0,-0.002685547,-0.00402832,0.01257324,0,0,0.01257324,0,4.077,0,0,0,0,nan,2,0.003,0,0,0,0,0,0,0,0,0,1,2,1
603.189,0.001013,-0.001953125,0.001953125,0,0.0390625,-0.015625,9.84375,-0.001953125,0.001953125,0,0.009765625,0.0546875,0,-0.002685547,-0.00402832,0.01257324,0,0,0.01257324,0,4.077,0,0,0,0,nan,2,0.013,0,0,0,0,0,0,0,0,0,1,2,1
603.199,0.001013,-0.001953125,0,-0.001953125,0.046875,-0.0078125,9.820312,-0.001953125,0.001953125,0,0.009765625,0.0546875,0,-0.002685547,-0.00402832,0.01257324,0,0,0.01257324,0,4.077,0,0,0,0,nan,2,0.023,0,0,0,0,0,0,0,0,0,1,2,1
603.209,0.001013,-0.00390625,-0.00390625,0,0.0234375,-0.0078125,9.90625,0,0,0,0.009765625,0.0546875,0,-0.002685547,-0.00402832,0.01257324,0,0,0.01257324,0,4.077,0,0,0,0,nan,2,0.033,0,0,0,0,0,0,0,0,0,1,2,1
603.22,0.001013,0,-0.001953125,0,0.0078125,-0.046875,9.875,0,0,0,0.009765625,0.0546875,0,-0.002685547,-0.00402832,0.01257324,0,0,0.01257324,0,4.077,0,0,0,0,nan,2,0.043,0,0,0,0,0,0,0,0,0,1,2,1
603.23,0.001013,-0.001953125,0.001953125,0.001953125,0,-0.0546875,9.773438,0,0,0,0.009765625,0.0546875,0,-0.002685547,-0.00402832,0.01257324,0,0,0.01257324,0,4.077,0,0,0,0,nan,2,0.054,0,0,0,0,0,0,0,0,0,1,2,1
603.239,0.001007,0,0.001953125,0,0.0546875,-0.0078125,9.84375,0,0,0,0.009765625,0.0546875,0,-0.002685547,-0.00402832,0.01257324,0,0,0.01257324,0,4.077,0,0,0,0,nan,2,0.063,0,0,0,0,0,0,0,0,0,1,2,1
603.249,0.001007,0.001953125,0,0,0.046875,-0.015625,9.859375,0,0,0,0.009765625,0.0546875,0,-0.002685547,-0.00402832,0.01257324,0,0,0.01257324,0,4.077,0,0,0,0,nan,2,0.073,0,0,0,0,0,0,0,0,0,1,2,1
603.259,0.001006,0.001953125,-0.005859375,0.001953125,0.015625,-0.0234375,9.90625,0.001953125,0,0,0.009765625,0.0546875,0,-0.002685547,-0.00402832,0.01257324,0,0,0.01257324,0,4.077,0,0,0,0,nan,2,0.083,0,0,0,0,0,0,0,0,0,1,2,1
603.269,0.001,0,-0.001953125,0.001953125,0.0546875,-0.015625,9.859375,0,0,0.001953125,0.009765625,0.0546875,0,-0.002685547,-0.00402832,0.01257324,0,0,0.01257324,0,4.077,0,0,0,0,nan,2,0.093,0,0,0,0,0,0,0,0,0,1,2,1
603.279,0.001008,-0.001953125,-0.001953125,0,0.0078125,-0.0390625,9.859375,0,0,0,0.009765625,0.0546875,0,-0.002685547,-0.00402832,0.01257324,0,0,0.01257324,0,4.077,0,0,0,0,nan,2,0.103,0,0,0,0,0,0,0,0,0,1,2,1
603.289,0.001007,0,-0.001953125,0,0.03125,0,9.890625,0,0,0,0.009765625,0.0546875,0,-0.002685547,-0.00402832,0.01257324,0,0,0.01257324,0,4.077,0,0,0,0,nan,2,0.113,0,0,0,0,0,0,0,0,0,1,2,1
603.299,0.001007,0.001953125,0.001953125,0.00390625,0.0546875,-0.015625,9.859375,0,0,0.001953125,0.009765625,0.0546875,0,-0.002685547,-0.004150391,0.01257324,0,0,0.01257324,0,4.077,0,0,0,0,nan,2,0.123,0,0,0,0,0,0,0,0,0,1,2,1
603.31,0.001008,0,0.001953125,0,0.03125,-0.09375,9.859375,0,0,0,0.009765625,0.0546875,0,-0.002685547,-0.00402832,0.01257324,0,0,0.01257324,0,4.077,0,0,0,0,nan,2,0.133,0,0,0,0,0,0,0,0,0,1,2,1
603.319,0.001007,0,0,0,0.0390625,-0.0546875,9.867188,0,0,0,0.009765625,0.0546875,0,-0.002685547,-0.00402832,0.01257324,0,0,0.01257324,0,4.077,0,0,0,0,nan,2,0.143,0,0,0,0,0,0,0,0,0,1,2,1
603.33,0.001006,-0.001953125,-0.001953125,0,0.046875,-0.0234375,9.84375,0,0,0,0.009765625,0.0546875,0,-0.002685547,-0.00402832,0.01257324,0,0,0.01257324,0,4.077,0,0,0,0,nan,2,0.154,0,0,0,0,0,0,0,0,0,1,2,1
603.339,0.001013,0,0,0,0.0546875,0,9.851562,0,0,0,0.009765625,0.0546875,0,-0.002685547,-0.004150391,0.01257324,0,0,0.01257324,0,4.077,0,0,0,0,nan,2,0.163,0,0,0,0,0,0,0,0,0,1,2,1
603.349,0.000967,0.001953125,0.001953125,0.001953125,0.015625,-0.015625,9.835938,0,0,0,0.009765625,0.0546875,0,-0.002685547,-0.004150391,0.01257324,0,0,0.01257324,0,4.077,0,0,0,0,nan,2,0.173,0,0,0,0,0,0,0,0,0,1,2,1
603.359,0.001006,0.001953125,0,0,0.046875,0.015625,9.851562,0,0,-0.001953125,0.009765625,0.0546875,0,-0.002685547,-0.004150391,0.01257324,0,0,0.01257324,0,4.077,0,0,0,0,nan,2,0.183,0,0,0,0,0,0,0,0,0,1,2,1
603.369,0.001004,0,-0.001953125,0,0.0625,0.03125,9.84375,0,-0.001953125,0,0.009765625,0.0546875,0,-0.002685547,-0.004150391,0.01257324,0,0,0.01257324,0,4.077,0,0,0,0,nan,2,0.193,0,0,0,0,0,0,0,0,0,1,2,1
603.379,0.001016,-0.001953125,0.001953125,0,0.0390625,-0.03125,9.828125,0,0,0,0.009765625,0.0546875,0,-0.002685547,-0.004150391,0.01257324,0,0,0.01257324,0,4.077,0,0,0,0,nan,2,0.203,1,0,0,0,0,0,0,0,0,1,2,1
603.389,0.001011,0.001953125,0,0,0.0234375,-0.046875,9.867188,0.001953125,0,0,0.009765625,0.0546875,0,-0.002685547,-0.004150391,0.01257324,0,0,0.01257324,0,4.077,0,0,0,0,nan,2,0.213,1,0,0,0,0,0,0,0,0,1,2,1
603.399,0.001011,-0.001953125,-0.001953125,-0.001953125,0.0390625,-0.046875,9.867188,0,-0.001953125,0,0.009765625,0.0546875,0,-0.002685547,-0.004150391,0.01257324,0,0,0.01257324,0,4.077,0,0,0,0,nan,2,0.223,1,0,0,0,0,0,0,0,0,1,2,1
603.409,0.001011,0,0.00390625,-0.00390625,0.046875,-0.0390625,9.828125,0.001953125,0,-0.001953125,0.009765625,0.0546875,0,-0.002685547,-0.004150391,0.01257324,0,0,0.01257324,0,4.077,0,0,0,0,nan,2,0.233,1,0,0,0,0,0,0,0,0,1,2,1
603.419,0.001011,0,0.001953125,0,0.0390625,-0.015625,9.882812,0,0.001953125,0,0.009765625,0.0546875,0,-0.002685547,-0.00402832,0.01257324,0,0,0.01257324,0,4.077,0,0,0,0,nan,2,0.243,1,0,0,0,0,0,0,0,0,1,2,1
603.43,0.001011,0.001953125,-0.001953125,0.001953125,0.0625,-0.046875,9.820312,0,-0.001953125,0,0.009765625,0.0546875,0,-0.002685547,-0.00402832,0.01257324,0,0,0.01257324,0,4.077,0,0,0,0,nan,2,0.253,1,0,0,0,0,0,0,0,0,1,2,1
603.439,0.001005,0.001953125,0,0,0.0703125,-0.03125,9.851562,0.001953125,0,0,0.009765625,0.0546875,0,-0.002685547,-0.004150391,0.01257324,0,0,0.01257324,0,4.077,0,0,0,0,nan,2,0.263,1,0,0,0,0,0,0,0,0,1,2,1
603.449,0.001005,0,-0.001953125,-0.001953125,0.03125,-0.0234375,9.875,0,0,0,0.009765625,0.0546875,0,-0.002685547,-0.004150391,0.01257324,0,0,0.01257324,0,4.077,0,0,0,0,nan,2,0.273,1,0,0,0,0,0,0,0,0,1,2,1
603.459,0.001011,0.001953125,-0.001953125,0.001953125,0.0234375,-0.0546875,9.84375,0,-0.001953125,0,0.009765625,0.0546875,0,-0.002685547,-0.004150391,0.01257324,0,0,0.01257324,0,4.077,0,0,0,0,nan,2,0.283,1,0,0,0,0,0,0,0,0,1,2,1
603.469,0.001002,0.001953125,0,0,0.046875,-0.0546875,9.882812,0.001953125,0,0.001953125,0.009765625,0.0546875,0,-0.002685547,-0.004150391,0.01257324,0,0,0.01257324,0,4.077,0,0,0,0,nan,2,0.293,1,0,0,0,0,0,0,0,0,1,2,1
603.479,0.001008,0,0.001953125,0.00390625,0.0390625,-0.0234375,9.820312,0,0,0,0.009765625,0.0546875,0,-0.002685547,-0.004150391,0.01257324,0,0,0.01257324,0,4.077,0,0,0,0,nan,2,0.303,1,0,0,0,0,0,0,0,0,1,2,1
603.489,0.001003,0,0.005859375,0.001953125,0.0390625,-0.0234375,9.898438,0,0.00390625,0,0.009765625,0.0546875,0,-0.002685547,-0.004150391,0.01257324,0,0,0.01257324,0,4.077,0,0,0,0,nan,2,0.313,1,0,0,0,0,0,0,0,0,1,2,1
603.499,0.001005,-0.001953125,0.001953125,0.001953125,0.0546875,-0.0234375,9.828125,-0.001953125,0,0,0.009765625,0.0546875,0,-0.002685547,-0.004150391,0.01257324,0,0,0.01257324,0,4.077,0,0,0,0,nan,2,0.323,1,0,0,0,0,0,0,0,0,1,2,1
603.509,0.001005,-0.00390625,0,0.001953125,0.0625,-0.0546875,9.859375,0,-0.001953125,0,0.009765625,0.0546875,0,-0.002685547,-0.004150391,0.01257324,0,0,0.01257324,0,4.077,0,0,0,0,nan,2,0.333,1,0,0,0,0,0,0,0,0,1,2,1
603.519,0.001005,0,-0.001953125,-0.001953125,0.0234375,0,9.859375,0,0,-0.001953125,0.009765625,0.0546875,0,-0.002685547,-0.004150391,0.01257324,0,0,0.01257324,0,4.077,0,0,0,0,nan,2,0.343,1,0,0,0,0,0,0,0,0,1,2,1
603.53,0.001005,0,-0.001953125,0,0.0078125,-0.015625,9.890625,-0.001953125,0,0,0.009765625,0.0546875,0,-0.002685547,-0.004150391,0.01257324,0,0,0.01257324,0,4.077,0,0,0,0,nan,2,0.353,1,0,0,0,0,0,0,0,0,1,2,1
603.539,0.001017,0,-0.001953125,0.001953125,0.0078125,-0.0078125,9.859375,0,-0.001953125,0,0.009765625,0.0546875,0,-0.002685547,-0.004150391,0.01257324,0,0,0.01257324,0,4.077,0,0,0,0,nan,2,0.363,1,0,0,0,0,0,0,0,0,1,2,1
603.549,0.001015,0.001953125,0,0.001953125,0.0078125,-0.0390625,9.8125,0.001953125,-0.001953125,0,0.009765625,0.0546875,0,-0.002685547,-0.004150391,0.01257324,0,0,0.01257324,0,4.077,0,0,0,0,nan,2,0.373,1,0,0,0,0,0,0,0,0,1,2,1
603.559,0.001018,0,0.001953125,0.001953125,0.0390625,-0.046875,9.851562,0,0,0,0.009765625,0.0546875,0,-0.002685547,-0.004150391,0.01257324,0,0,0.01257324,0,4.077,0,0,0,0,nan,2,0.383,1,0,0,0,0,0,0,0,0,1,2,1
603.569,0.001018,0,0.001953125,0.001953125,0.015625,-0.0078125,9.875,0,0,0,0.009765625,0.0546875,0,-0.002685547,-0.004150391,0.01257324,0,0,0.01257324,0,4.077,0,0,0,0,nan,2,0.393,1,0,0,0,0,0,0,0,0,1,2,1
603.579,0.001011,0.00390625,0.00390625,0,0.046875,-0.0234375,9.867188,0.001953125,0.001953125,0,0.009765625,0.0546875,0,-0.002685547,-0.004150391,0.01257324,0,0,0.01257324,0,4.077,0,0,0,0,nan,2,0.403,1,0,0,0,0,0,0,0,0,1,2,1
603.589,0.001015,-0.00390625,-0.001953125,0.001953125,0.0625,-0.015625,9.804688,0,0,0,0.009765625,0.0546875,0,-0.002685547,-0.004150391,0.01257324,0,0,0.01257324,0,4.077,0,0,0,0,nan,2,0.413,1,0,0,0,0,0,0,0,0,1,2,1
603.599,0.00102,0,0.001953125,0.001953125,0.03125,-0.03125,9.867188,0,0.001953125,0,0.009765625,0.0546875,0,-0.002685547,-0.004150391,0.01257324,0,0,0.01257324,0,4.077,0,0,0,0,nan,2,0.423,1,0,0,0,0,0,0,0,0,1,2,1
603.61,0.001046,0,-0.001953125,-0.001953125,0.0546875,-0.0234375,9.859375,0,0,0,0.009765625,0.0546875,0,-0.002685547,-0.004150391,0.01257324,0,0,0.01257324,0,4.077,0,0,0,0,nan,2,0.433,1,0,0,0,0,0,0,0,0,1,2,1
603.62,0.001026,-0.00390625,-0.00390625,0,0.0390625,-0.03125,9.820312,-0.001953125,0,0,0.009765625,0.0546875,0,-0.002685547,-0.004150391,0.01257324,0,0,0.01257324,0,4.077,0,0,0,0,nan,2,0.443,1,0,0,0,0,0,0,0,0,1,2,1
603.629,0.00128,0.001953125,0.001953125,0,0.0390625,-0.0390625,9.882812,0,0,0,0.015625,0.02539062,0,-0.002685547,-0.004150391,0.01257324,0,0,0.01257324,0.1421204,4.077,0,0,0,0.09997559,nan,2,0.001,1,0,0.1443176,0.1427612,0.1397705,0.1415405,0,0,0,1,2,0.7936508
603.639,0.001024,0.00390625,0.001953125,0,0.046875,-0.015625,9.875,0,0.001953125,0,0.015625,0.0234375,0,-0.002685547,-0.00402832,0.01257324,0,0,0.01257324,0.1421204,4.077,0,0,0,0.09997559,nan,2,0.011,1,0,0.1413879,0.1459045,0.1369629,0.144165,0,0,0,1,2,0.8412699
603.649,0.001008,-0.001953125,0.01367188,-0.009765625,0.6640625,-0.1015625,9.835938,0.001953125,0.0078125,0.001953125,0.015625,0.0234375,0,-0.002685547,-0.00402832,0.01257324,0,0,0.01257324,0.1421204,4.077,0,0,0,0.09997559,nan,2,0.021,1,0,0.1410522,0.1429138,0.1387024,0.145752,0,0,0,1,2,0.8412699
603.659,0.001012,0.005859375,-0.02539062,0.005859375,-1.140625,-0.015625,10.11719,0.001953125,-0.001953125,-0.001953125,0.015625,0.0234375,0,-0.002685547,-0.00402832,0.01257324,0,0,0.01257324,0.1421204,4.077,0,0,0,0.09997559,nan,2,0.031,1,0,0.1427612,0.1459045,0.1368713,0.1428833,0,0,0,1,2,0.2063492
603.669,0.001009,0.01757812,0.02734375,-0.01367188,-0.6171875,0.890625,9.9375,0.01171875,0.009765625,0,0.015625,0.0234375,0,-0.002563477,-0.00402832,0.01257324,0,0,0.01257324,0.1421204,4.077,0,0,0,0.09997559,nan,2,0.041,1,0,0.1352844,0.1471558,0.1387329,0.1472473,0,0,0,1,2,0.5555556
603.679,0.001031,-0.1191406,-0.046875,0.009765625,0.9453125,-3.171875,10.07031,-0.01171875,-0.005859375,0,0.015625,0.0234375,0,-0.002563477,-0.00402832,0.01257324,0,0,0.01257324,0.1421204,4.077,0,0,0,0.09997559,nan,2,0.003,1,0,0.1489258,0.1424866,0.1313171,0.1456604,0,0,0,1,2,0
603.689,0.001007,0.03710938,0.001953125,-0.005859375,2.070312,1.640625,10.00781,0.005859375,0.00390625,0.0078125,0.015625,0.0234375,0,-0.002563477,-0.00402832,0.01257324,0,0,0.01257324,0.1421204,4.077,0,0,0,0.09997559,nan,2,0.013,1,0,0.1528625,0.1340027,0.1508484,0.1307068,0,0,0,1,2,0
603.699,0.001007,-0.001953125,0.001953125,0.01171875,-2.546875,-2.507812,10.71875,-0.00390625,-0.005859375,0.00390625,0.015625,0.02539062,0,-0.002563477,-0.00402832,0.01269531,0,0,0.01257324,0.1421204,4.077,0,0,0,0.09997559,nan,2,0.023,1,0,0.1476135,0.1400757,0.1407776,0.1399536,0,0,0,1,2,0
603.709,0.001007,0.009765625,-0.03710938,0,-1.78125,-0.734375,0.3125,-0.001953125,-0.0078125,-0.001953125,0.015625,0.0234375,0,-0.002563477,-0.00402832,0.01269531,0,0,0.01257324,0.1421204,4.077,0,0,0,0.09997559,nan,2,0.033,1,0,0.1415405,0.1488342,0.1348267,0.143219,0,0,0,1,2,0
603.72,0.001044,0.046875,-0.07226562,-0.01367188,-1.0625,-1.757812,5.507812,0.02734375,-0.01953125,-0.00390625,0.015625,0.0234375,0,-0.002441406,-0.00402832,0.01269531,0,0,0.01257324,0.1421204,4.077,0,0,0,0.09997559,nan,2,0.043,1,0,0.1329651,0.1659851,0.1264343,0.1430664,0,0,0,1,2,0
603.729,0.001011,-0.03515625,0.06640625,0.03515625,-1.40625,-1.859375,12.4375,-0.005859375,0.009765625,0.001953125,0.01367188,0.02539062,0,-0.002319336,-0.004150391,0.01269531,0,0,0.01257324,0.1421204,4.077,0,0,0,0.09997559,nan,2,0.052,1,0,0.1645508,0.1145935,0.160614,0.1286621,0,0,0,1,2,0
603.739,0.001009,0.001953125,0.03320312,-0.01171875,0.1015625,0.8046875,12.35938,0.009765625,-0.005859375,0.005859375,0.01367188,0.02539062,0,-0.002319336,-0.004150391,0.01281738,0,0,0.01257324,0.1421204,4.077,0,0,0,0.09997559,nan,2,0.009,1,0,0.1393433,0.1491699,0.136261,0.1436462,0,0,0,1,2,0
603.749,0.001011,0.0078125,-0.04296875,-0.01367188,0.359375,-0.5390625,10.99219,0.01171875,-0.009765625,-0.02148438,0.01367188,0.02539062,0,-0.002197266,-0.004150391,0.01269531,0,0,0.01257324,0.1421204,4.077,0,0,0,0.09997559,nan,2,0.019,1,0,0.120697,0.1729126,0.1116028,0.163208,0,0,0,1,2,0
603.759,0.001009,0.0234375,0.0078125,0.0390625,-0.078125,-1.21875,8.59375,0,0.009765625,0.015625,0.01367188,0.0234375,0,-0.002197266,-0.00402832,0.01257324,0,0,0.01257324,0.1421204,4.077,0,0,0,0.09997559,nan,2,0.029,1,0,0.1803284,0.1053467,0.1777954,0.10495,0,0,0,1,2,0
603.769,0.001021,0.05078125,0.005859375,-0.03320312,0.1015625,2.617188,10.39062,0.01367188,0.005859375,-0.01171875,0.01367188,0.0234375,0,-0.002197266,-0.00402832,0.01269531,0,0,0.01257324,0.1421204,4.077,0,0,0,0.09997559,nan,2,0.039,1,0,0.105896,0.1812134,0.1077881,0.1734924,0,0,0,1,2,0
603.779,0.001026,-0.01367188,0.02148438,-0.01953125,-0.0859375,-0.8984375,8.4375,-0.01367188,-0.0078125,-0.0234375,0.01367188,0.0234375,0,-0.002197266,-0.00402832,0.01245117,0,0,0.01257324,0.1421204,4.077,0,0,0,0.09997559,nan,2,0.003,1,0,0.1342773,0.1564026,0.1184082,0.1593628,0,0,0,1,2,0
603.789,0.001011,-0.01367188,-0.05859375,0.009765625,-0.0234375,-0.78125,11.71094,-0.01757812,0.0078125,0.0078125,0.01367188,0.0234375,0,-0.002319336,-0.00390625,0.01245117,0,0,0.01257324,0.1421204,4.077,0,0,0,0.09997559,nan,2,0.013,1,0,0.168396,0.1196899,0.1595154,0.1208191,0,0,0,1,2,0
603.799,0.001023,0.01953125,0,0.01171875,0.203125,-0.9765625,11.71094,0.01367188,-0.005859375,0.00390625,0.01367188,0.0234375,0,-0.002319336,-0.00390625,0.01245117,0,0,0.01257324,0.1421204,4.077,0,0,0,0.09997559,nan,2,0.023,1,0,0.1478577,0.1420288,0.1464844,0.1320801,0,0,0,1,2,0
603.809,0.00101,-0.06835938,0.03125,0.03320312,-2.53125,-4.851562,12.47656,-0.01367188,0.02148438,0.03320312,0.01367188,0.0234375,0,-0.002197266,-0.00390625,0.01269531,0,0,0.01257324,0.1421204,4.077,0,0,0,0.09997559,nan,2,0.033,1,0,0.1807251,0.09844971,0.1731262,0.1161499,0,0,0,1,2,0
603.82,0.001011,-0.03710938,-0.009765625,-0.03125,-0.65625,-3.023438,9.828125,-0.001953125,0.005859375,-0.01953125,0.01367188,0.0234375,0,-0.002319336,-0.00378418,0.01269531,0,0,0.01257324,0.1421204,4.077,0,0,0,0.09997559,nan,2,0.043,1,0,0.09887695,0.1887512,0.09204102,0.1887512,0,0,0,1,2,0
603.829,0.001,0.02539062,0.005859375,0.02539062,-1.265625,0.53125,11.82031,-0.01171875,0.015625,-0.0078125,0.015625,0.0234375,0,-0.002563477,-0.00378418,0.01257324,0,0,0.01257324,0.1421204,4.077,0,0,0,0.09997559,nan,2,0.052,1,0,0.1625977,0.1192932,0.1645813,0.1219788,0,0,0,1,2,0
603.839,0.000997,0.02539062,0.04101562,0.0625,-0.1796875,2.523438,4.164062,0.0078125,0.02148438,0.04882812,0.015625,0.02148438,0,-0.002563477,-0.003540039,0.01281738,0,0,0.01257324,0.1421204,4.077,0,0,0,0.09997559,nan,2,0.008,1,0,0.1990356,0.08566284,0.2037659,0.07992554,0,0,0,1,2,0
603.849,0.001012,-0.05273438,0,0.005859375,0.8125,-3.304688,10.99219,-0.02539062,0.001953125,0.015625,0.015625,0.02148438,0,-0.002685547,-0.003540039,0.01306152,0,0,0.01257324,0.1421204,4.077,0,0,0,0.09997559,nan,2,0.018,1,0,0.130127,0.1587524,0.1102905,0.169281,0,0,0,1,2,0
603.859,0.001011,0.03320312,0.04101562,-0.001953125,0.046875,4.960938,10.94531,-0.00390625,0.015625,0.0078125,0.01757812,0.02148438,0,-0.002929688,-0.003540039,0.01318359,0,0,0.01257324,0.1421204,4.077,0,0,0,0.09997559,nan,2,0.028,1,0,0.1286316,0.1500549,0.1374512,0.1523132,0,0.0009765625,0,1,2,0
603.869,0.00102,0.03320312,0.01367188,-0.01171875,0.5390625,-4.007812,11.91406,-0.0078125,-0.001953125,-0.00390625,0.01757812,0.02148438,0,-0.003051758,-0.003540039,0.01330566,0,0,0.01257324,0.1421204,4.077,0,0,0,0.09997559,nan,2,0.038,1,0,0.1277466,0.1594543,0.1257629,0.1554565,0,0.0009765625,0,1,2,0
603.879,0.001028,0.01171875,-0.01953125,0.01171875,0.4140625,1.851562,6.171875,0,-0.01757812,0,0.01953125,0.02148438,0,-0.003051758,-0.003662109,0.01318359,0,0,0.01257324,0.1421204,4.077,0,0,0,0.09997559,nan,2,0.005,1,0,0.1564941,0.1372986,0.1453857,0.1292114,0,0.0009765625,0,1,2,0
603.889,0.001048,-0.015625,0.0078125,0.015625,0.515625,-4.359375,9.09375,-0.0078125,0.001953125,0.0078125,0.01953125,0.02148438,0,-0.003173828,-0.003662109,0.01330566,0,0,0.01257324,0.1421204,4.077,0,0,0,0.09997559,nan,2,0.015,1,0,0.1581421,0.1279907,0.1502075,0.1321106,0,0.0009765625,0,1,2,0.3015873
603.899,0.001013,0.046875,0.01953125,0.0546875,0.515625,1.046875,10.84375,0.005859375,0.0078125,0.04492188,0.01953125,0.02148438,0,-0.003295898,-0.003662109,0.0135498,0,0,0.01257324,0.1421204,4.077,0,0,0,0.09997559,nan,2,0.025,1,0,0.1821594,0.1022339,0.1832581,0.100769,0,0.0009765625,0,1,2,0
603.909,0.001011,-0.05859375,0.00390625,0.0390625,-0.2421875,3.914062,10.92188,-0.0234375,0.00390625,0.05078125,0.01953125,0.02148438,0,-0.003295898,-0.003662109,0.01416016,0,0,0.01257324,0.1421204,4.077,0,0,0,0.09997559,nan,2,0.035,1,0,0.1592102,0.1270447,0.142334,0.1398315,0,0.0009765625,0,1,2,0
603.919,0.001013,0.01367188,-0.005859375,0.02539062,-0.5,6.734375,13.32031,0.01757812,-0.005859375,0.03710938,0.01953125,0.02148438,0,-0.003295898,-0.003662109,0.01464844,0,0,0.01257324,0.1421204,4.077,0,0,0,0.09997559,nan,2,0.045,1,0,0.1293335,0.1593933,0.1312561,0.148468,0.0009765625,0.0009765625,0,1,2,0
603.929,0.000983,0.009765625,0.03125,-0.009765625,-0.453125,-1.429688,2.78125,0,0.005859375,0.009765625,0.01953125,0.02148438,0,-0.003295898,-0.00378418,0.01477051,0,0,0.01257324,0.1421204,4.077,0,0,0,0.09997559,nan,2,0.055,1,0,0.1156616,0.1678467,0.1133728,0.1715393,0.0009765625,0.0009765625,0,1,2,0
603.939,0.001008,-0.015625,0.001953125,-0.0703125,0.3046875,2.664062,3.617188,-0.03710938,-0.005859375,-0.05078125,0.02148438,0.0234375,0,-0.003540039,-0.00378418,0.01452637,0,0,0.01257324,0.1421204,4.077,0,0,0,0.09997559,nan,2,0.065,1,0,0.08053589,0.2088623,0.06130981,0.2177124,0.0009765625,0.0009765625,0,1,2,0
603.949,0.0009869999,0.02929688,-0.009765625,-0.04882812,-1.203125,3.835938,7.25,-0.005859375,0.0078125,-0.05273438,0.02148438,0.02148438,0,-0.003540039,-0.00378418,0.01403809,0,0,0.01257324,0.1421204,4.077,0,0,0,0.09997559,nan,2,0.008,1,0,0.1220398,0.1634827,0.1172791,0.1656494,0.0009765625,0.0009765625,0,1,2,0
603.959,0.001005,-0.01171875,0.02734375,0.02148438,0.609375,2,13.90625,-0.01953125,0.009765625,0.005859375,0.02148438,0.0234375,0,-0.003417969,-0.00378418,0.01379395,0,0,0.01257324,0.1421204,4.077,0,0,0,0.09997559,nan,2,0.018,1,0,0.2051697,0.07614136,0.1905823,0.0965271,0.0009765625,0.0009765625,0,1,2,0
603.969,0.000992,0.001953125,-0.01953125,0.0078125,1.507812,-1.421875,17.02344,0.0078125,0,0.0234375,0.01953125,0.0234375,0,-0.003417969,-0.00378418,0.01403809,0,0,0.01257324,0.1421204,4.077,0,0,0,0.09997559,nan,2,0.028,1,0,0.1608887,0.1290283,0.1533203,0.1251831,0.0009765625,0.0009765625,0,1,2,0
603.979,0.001008,0.01757812,0.03320312,-0.04101562,0.390625,-0.09375,17.17188,-0.01171875,0.015625,-0.01953125,0.02148438,0.02148438,0,-0.003417969,-0.003662109,0.01403809,0,0,0.01257324,0.1421204,4.077,0,0,0,0.09997559,nan,2,0.004,1,0,0.09420776,0.1882324,0.09002686,0.1959534,0.0009765625,0.0009765625,0,1,2,0
603.989,0.000973,0.005859375,-0.01367188,-0.0234375,1.546875,-4.0625,7.226562,0.009765625,-0.01171875,-0.02929688,0.02148438,0.02148438,0,-0.003540039,-0.003662109,0.01379395,0,0,0.01257324,0.1421204,4.077,0,0,0,0.09997559,nan,2,0.014,1,0,0.1332703,0.1611328,0.1273804,0.146637,0.0009765625,0.0009765625,0,1,2,0
603.999,0.00101,-0.06835938,-0.001953125,-0.005859375,-2.109375,-6.828125,8.226562,-0.01953125,-0.01757812,-0.01953125,0.02148438,0.0234375,0,-0.003662109,-0.00402832,0.0135498,0,0,0.01257324,0.1421204,4.077,0,0,0,0.09997559,nan,2,0.024,1,0,0.1577454,0.1303711,0.1417847,0.1385498,0.0009765625,0.0009765625,0,1,2,0
604.009,0.00101,-0.02734375,0,-0.0234375,-0.4375,-0.6328125,3.742188,-0.0078125,-0.001953125,-0.01953125,0.02148438,0.02539062,0,-0.003540039,-0.004150391,0.01330566,0,0,0.01257324,0.1421204,4.077,0,0,0,0.09997559,nan,2,0.034,1,0,0.1339722,0.150177,0.1242676,0.1599731,0.0009765625,0.0009765625,0,1,2,0
604.02,0.001001,-0.0703125,0,-0.03515625,0.9140625,-0.1953125,2.015625,-0.0234375,0.00390625,-0.03515625,0.02148438,0.02539062,0,-0.003662109,-0.004150391,0.01306152,0,0,0.01257324,0.1421204,4.077,0,0,0,0.09997559,nan,2,0.044,1,0,0.1272888,0.1604614,0.1089172,0.1717834,0.0009765625,0.0009765625,0,1,2,0
604.029,0.000998,0.1328125,0.03515625,-0.009765625,-1.875,-7.804688,9.257812,0.08984375,-0.0078125,-0.0234375,0.01953125,0.02539062,0,-0.003295898,-0.004150391,0.01281738,0,0,0.01257324,0.1421204,4.077,0,0,0,0.09997559,nan,2,0.054,1,0,0.1361084,0.1533813,0.1598206,0.1191101,0.0009765625,0.0009765625,0,1,2,0
604.039,0.001022,-0.01367188,0.015625,-0.01171875,1.75,1.015625,5.5625,0.0234375,0.001953125,-0.01171875,0.015625,0.02539062,0,-0.002563477,-0.004272461,0.01269531,0,0,0.01257324,0.1421204,4.077,0,0,0,0.09997559,nan,2,0.064,1,0,0.1580811,0.1260071,0.1442261,0.1401062,0.0009765625,0.0009765625,0,1,2,0
604.049,0.000997,-0.015625,0.01953125,-0.04101562,-1.3125,-6.109375,2.21875,0.001953125,0.005859375,-0.03320312,0.015625,0.02539062,0,-0.002441406,-0.004272461,0.01245117,0,0,0.01257324,0.1421204,4.077,0,0,0,0.09997559,nan,2,0.074,1,0,0.1160278,0.1687622,0.1057434,0.177887,0.0009765625,0.0009765625,0,1,2,0
604.059,0.000829,0.03320312,-0.01757812,-0.03710938,1,3.53125,5.507812,0.009765625,-0.0234375,-0.04882812,0.01367188,0.02734375,0,-0.002441406,-0.004394531,0.01196289,0,0,0.01257324,0.2263184,4.077,0,0,0,0.2000122,nan,2,0.005,1,128,0.215271,0.2503662,0.2012634,0.2383423,0.0009765625,0.0009765625,0,1,2,0
604.069,0.001005,-0.06835938,0.001953125,0.02539062,-0.0859375,-2.171875,1.421875,-0.00390625,-0.001953125,-0.00390625,0.01367188,0.02734375,0,-0.002319336,-0.004516602,0.01171875,0,0,0.01257324,0.2263184,4.077,0,0,0,0.2000122,nan,2,0.015,1,128,0.2774658,0.1777039,0.2619934,0.1881104,0.0009765625,0.0009765625,0,1,2,0
604.079,0.001007,0.05859375,0.01171875,-0.02929688,-0.265625,-7.648438,7.570312,0.02539062,-0.00390625,-0.015625,0.01367188,0.02734375,0,-0.002197266,-0.004516602,0.01159668,0,0,0.01257324,0.2263184,4.077,0,0,0,0.2000122,nan,2,0.025,1,128,0.2062683,0.2511902,0.2067566,0.2410583,0.0009765625,0.0009765625,0,1,2,0
604.089,0.001008,-0.015625,-0.02734375,-0.05859375,-0.40625,3.859375,10.47656,0.001953125,-0.001953125,-0.04296875,0.01171875,0.02734375,0,-0.001953125,-0.004516602,0.01135254,0,0,0.01257324,0.2263184,4.077,0,0,0,0.2000122,nan,2,0.035,1,128,0.1947021,0.26474,0.1775208,0.2683105,0.0009765625,0.0009765625,0,1,2,0
604.099,0.00101,0.0078125,-0.005859375,0.01171875,-0.5546875,-6.125,1.757812,0.02148438,0.01953125,0.001953125,0.009765625,0.02734375,0,-0.001708984,-0.004394531,0.0111084,0,0,0.01257324,0.2263184,4.077,0,0,0,0.2000122,nan,2,0.045,1,128,0.2715454,0.1827087,0.2667542,0.1842651,0.0009765625,0.0009765625,0,1,2,0
604.11,0.001005,0.04492188,-0.009765625,-0.03710938,1.578125,5.953125,7.90625,0.02148438,0,-0.03125,0.009765625,0.02734375,0,-0.001586914,-0.004394531,0.01086426,0,0,0.01257324,0.2263184,4.077,0,0,0,0.2000122,nan,2,0.056,1,128,0.2011414,0.2590942,0.1967773,0.24823,0.0009765625,0.0009765625,0,1,2,0.3968254
604.119,0.001019,0.0234375,-0.0234375,-0.03125,-0.0234375,-3.90625,13.3125,0.01953125,-0.01953125,-0.02929688,0.0078125,0.02734375,0,-0.001342773,-0.004516602,0.01062012,0,0,0.01257324,0.2263184,4.077,0,0,0,0.2000122,nan,2,0.002,1,128,0.2253113,0.2399292,0.214447,0.2255554,0.0009765625,0.0009765625,0,1,2,0
604.129,0.00101,0.01757812,0.01757812,-0.00390625,-1.015625,6.632812,17.125,0.00390625,0.001953125,-0.02148438,0.0078125,0.02734375,0,-0.001220703,-0.004638672,0.01025391,0,0,0.01257324,0.2263184,4.077,0,0,0,0.2000122,nan,2,0.012,1,128,0.2399597,0.2120361,0.2358093,0.2174683,0.0009765625,0.0009765625,0,1,2,0
604.139,0.001038,0.02929688,0.01171875,0.01367188,-0.4609375,2.484375,12.09375,0.01757812,0.001953125,0.001953125,0.0078125,0.02734375,0,-0.001220703,-0.004638672,0.01013184,0,0,0.01257324,0.2263184,4.077,0,0,0,0.2000122,nan,2,0.022,1,128,0.2541199,0.2021179,0.2561951,0.1928101,0.0009765625,0.0009765625,0,1,2,0
604.149,0.001014,0.01953125,-0.04296875,0.009765625,-1.359375,-1.34375,12.51562,0.001953125,-0.009765625,0.02539062,0.0078125,0.02734375,0,-0.001220703,-0.004638672,0.01037598,0,0,0.01257324,0.2263184,4.073,0,0,0,0.2000122,nan,2,0.032,1,128,0.2450256,0.2181091,0.2323303,0.2098083,0.0009765625,0.0009765625,0,1,2,0
604.159,0.001017,-0.01171875,-0.01757812,-0.00390625,-1.570312,0.609375,16.71875,-0.00390625,-0.01171875,0.00390625,0.0078125,0.02929688,0,-0.001220703,-0.004760742,0.01049805,0,0,0.01257324,0.2263184,4.073,0,0,0,0.2000122,nan,2,0.005,1,128,0.2177734,0.2445984,0.2039795,0.2389526,0.0009765625,0.0009765625,0,1,2,0
604.169,0.001012,0.1875,-0.046875,-0.05273438,1.640625,4.0625,8.28125,0.04492188,-0.00390625,-0.05664062,0.0078125,0.02734375,0,-0.001220703,-0.004638672,0.01013184,0,0,0.01257324,0.2263184,4.073,0,0,0,0.2000122,nan,2,0.015,1,128,0.1711121,0.2939758,0.1847229,0.2554626,0.0009765625,0.0009765625,0,1,2,0.01587302
604.179,0.001011,-0.02539062,0.015625,-0.00390625,0.1484375,0.9453125,7.875,0.0234375,0.001953125,-0.009765625,0.00390625,0.02929688,0,-0.0006103516,-0.004760742,0.009887695,0,0,0.01257324,0.2263184,4.073,0,0,0,0.2000122,nan,2,0.025,1,128,0.2599487,0.1954956,0.2447205,0.2051086,0.0009765625,0.0009765625,0,1,2,0
604.189,0.001012,0.01367188,0.04101562,-0.001953125,0.265625,3.632812,4.773438,0.01367188,0.005859375,0.009765625,0.001953125,0.02929688,0,-0.0003662109,-0.004760742,0.01000977,0,0,0.01257324,0.2263184,4.073,0,0,0,0.2000122,nan,2,0.035,1,128,0.2406616,0.2139893,0.2356262,0.2149963,0.0009765625,0.0009765625,0,1,2,0
604.199,0.00101,0.001953125,0.005859375,-0.1464844,1.109375,-8.40625,9.664062,0.005859375,-0.005859375,-0.078125,0.001953125,0.02929688,0,-0.0003662109,-0.004760742,0.009643555,0,0,0.01257324,0.2263184,4.073,0,0,0,0.2000122,nan,2,0.045,1,128,0.1237488,0.3382568,0.1160583,0.327179,0.0009765625,0.001953125,0,1,2,0
604.21,0.001031,0.1289062,0.0390625,-0.1015625,-0.7421875,3.242188,10.1875,-0.05664062,0.05273438,-0.06054688,0.00390625,0.02734375,0,-0.0008544922,-0.004516602,0.009033203,0,0,0.01257324,0.2263184,4.073,0,0,0,0.2000122,nan,2,0.056,1,128,0.193573,0.2461853,0.1977844,0.2677002,0.0009765625,0.001953125,0,1,2,0
604.22,0.001008,-0.01367188,0.01757812,-0.01171875,-0.578125,7.679688,14.8125,-0.015625,0.0390625,-0.03320312,0.005859375,0.02539062,0,-0.0008544922,-0.004150391,0.008422852,0,0,0.01257324,0.2263184,4.073,0,0,0,0.2000122,nan,2,0.066,1,128,0.2558289,0.1983643,0.2498169,0.2012634,0.0009765625,0.0009765625,0,1,2,0
604.229,0.001001,-0.06054688,0.01367188,0.02929688,1.546875,-2.28125,8.695312,-0.0546875,0.01171875,-0.005859375,0.005859375,0.0234375,0,-0.001098633,-0.00402832,0.008178711,0,0,0.01257324,0.2263184,4.073,0,0,0,0.2000122,nan,2,0.006,1,128,0.2829285,0.1748352,0.2580566,0.1894531,0.0009765625,0.001953125,0,1,2,0
604.239,0.001025,-0.009765625,-0.005859375,-0.009765625,0.1640625,-6.492188,6.289062,0,-0.01171875,-0.001953125,0.0078125,0.0234375,0,-0.001220703,-0.00402832,0.008178711,0,0,0.01257324,0.2263184,4.073,0,0,0,0.2000122,nan,2,0.016,1,128,0.2275391,0.2359314,0.2192993,0.2225342,0.0009765625,0.001953125,0,1,2,0
604.249,0.001033,0.09375,0.02929688,0.03515625,-1.085938,9.8125,15.04688,0.03515625,0.015625,-0.0078125,0.0078125,0.0234375,0,-0.001220703,-0.00402832,0.008178711,0,0,0.01257324,0.2263184,4.073,0,0,0,0.2000122,nan,2,0.026,1,128,0.2177734,0.2340393,0.2339172,0.2195435,0.0009765625,0.001953125,0,1,2,0
604.259,0.001018,0.02539062,-0.02148438,0.03125,0.25,-2.90625,8.007812,0.08398438,0.0078125,0.02929688,0.001953125,0.02148438,0,-0.0004882812,-0.003540039,0.008422852,0,0,0.01257324,0.2263184,4.073,0,0,0,0.2000122,nan,2,0.001,1,128,0.2464294,0.2211304,0.2449036,0.1928101,0.0009765625,0.001953125,0,1,2,0
604.269,0.000998,0.02148438,0.005859375,0.1074219,-1.421875,4.15625,10.40625,0.005859375,0.001953125,0.08007812,0.001953125,0.02148438,0,-0.0002441406,-0.003540039,0.008911133,0,0,0.01257324,0.2263184,4.073,0,0,0,0.2000122,nan,2,0.011,1,128,0.3118591,0.1479492,0.2998962,0.1455688,0.0009765625,0.001953125,0,1,2,0
604.279,0.001011,-0.08789062,-0.00390625,0.1464844,2.734375,-7.882812,9.8125,-0.03125,0.01953125,0.09179688,0.001953125,0.02148438,0,-0.0004882812,-0.003417969,0.009765625,0,0,0.01257324,0.2263184,4.073,0,0,0,0.2000122,nan,2,0.021,1,128,0.2985229,0.15448,0.2846985,0.1675415,0.0009765625,0.001953125,0,1,2,0
604.289,0.001009,0.08984375,-0.1523438,-0.05664062,-3.625,8.390625,16.03906,0.01171875,-0.05273438,0.0078125,0.00390625,0.01953125,0,-0.0007324219,-0.003295898,0.01037598,0,0,0.01257324,0.2263184,4.073,0,0,0,0.2000122,nan,2,0.031,1,128,0.135437,0.3552246,0.1106262,0.3039551,0.0009765625,0.001953125,0,1,2,0
604.299,0.0009860001,0.1152344,-0.005859375,-0.00390625,0.9765625,-8.921875,4.242188,0.05664062,-0.01367188,0.02148438,0,0.02148438,0,-0.0001220703,-0.003662109,0.01062012,0,0,0.01257324,0.2263184,4.073,0,0,0,0.2000122,nan,2,0.041,1,128,0.2166138,0.2400208,0.2204895,0.2281494,0.0009765625,0.001953125,0,1,2,0.7460318
604.309,0.001006,-0.02539062,-0.02539062,-0.06640625,-0.5,0.6796875,15.46875,0.02929688,-0.009765625,-0.04296875,-0.00390625,0.02148438,0,0.0007324219,-0.00378418,0.01049805,0,0,0.01257324,0.2263184,4.073,0,0,0,0.2000122,nan,2,0.002,1,128,0.1637878,0.2951355,0.1461792,0.3001404,0.0009765625,0.001953125,0,1,2,0
604.319,0.001009,-0.1074219,-0.03515625,-0.08789062,1.226562,-10.4375,7.914062,-0.01367188,-0.01757812,-0.0859375,-0.00390625,0.0234375,0,0.0007324219,-0.00390625,0.009765625,0,0,0.01257324,0.2263184,4.073,0,0,0,0.2000122,nan,2,0.012,1,128,0.1742249,0.2889099,0.1526489,0.2894592,0.0009765625,0.001953125,0,1,2,0
604.33,0.001009,0.001953125,-0.01953125,-0.0546875,-0.9375,-0.6953125,10.72656,-0.06640625,0.0078125,-0.07617188,0.001953125,0.02148438,0,-0.0002441406,-0.003662109,0.008911133,0,0,0.01257324,0.2263184,4.073,0,0,0,0.2000122,nan,2,0.022,1,128,0.2260742,0.2346802,0.2137451,0.2307739,0.0009765625,0.001953125,0,1,2,0
604.339,0.001007,0.06835938,-0.015625,-0.08789062,1.039062,5.328125,9.265625,0.009765625,-0.001953125,-0.0703125,0.001953125,0.02148438,0,-0.0003662109,-0.003662109,0.008300781,0,0,0.01257324,0.2263184,4.073,0,0,0,0.2000122,nan,2,0.031,1,128,0.1917725,0.2685547,0.1986694,0.2462769,0.0009765625,0.001953125,0,1,2,0
604.349,0.001007,0.1289062,-0.04492188,-0.07421875,0.1171875,2.1875,5.914062,0.02734375,-0.01171875,-0.08203125,0.001953125,0.0234375,0,-0.0002441406,-0.00378418,0.007446289,0,0,0.01257324,0.2263184,4.073,0,0,0,0.2000122,nan,2,0.041,1,128,0.209198,0.2547607,0.2087708,0.2325439,0.0009765625,0.001953125,0,1,2,0
604.359,0.001027,0.1367188,-0.06445312,0.04296875,-1.476562,0.5,12.32812,0.1152344,-0.02539062,0.01757812,-0.001953125,0.0234375,0,0.0003662109,-0.00402832,0.007202148,0,0,0.01257324,0.2263184,4.073,0,0,0,0.2000122,nan,2,0.001,1,128,0.3007812,0.1657715,0.3221741,0.1165466,0.0009765625,0.001953125,0,1,2,0
604.369,0.001014,-0.0234375,0.015625,0.05273438,2.429688,1.546875,10.00781,0.01953125,-0.00390625,0.02148438,-0.005859375,0.02539062,0,0.0008544922,-0.004272461,0.007446289,0,0,0.01257324,0.2263184,4.073,0,0,0,0.2000122,nan,2,0.011,1,128,0.2476501,0.20578,0.2394104,0.2124329,0.0009765625,0.001953125,0,1,2,0
604.379,0.001019,0.125,0.04882812,0.07421875,-0.546875,3.171875,10.35938,0.0390625,0.01367188,0.05859375,-0.005859375,0.02539062,0,0.001098633,-0.004272461,0.0078125,0,0,0.01257324,0.2263184,4.073,0,0,0,0.2000122,nan,2,0.021,1,128,0.2668762,0.1835938,0.2803345,0.1744385,0.0009765625,0.001953125,0,1,2,0
604.389,0.001008,-0.001953125,0.009765625,0.1074219,1.125,5.0625,7.445312,0.001953125,-0.00390625,0.09765625,-0.0078125,0.02539062,0,0.001464844,-0.004272461,0.008666992,0,0,0.01257324,0.2263184,4.073,0,0,0,0.2000122,nan,2,0.031,1,128,0.2970886,0.1620483,0.282135,0.1639709,0,0.001953125,0,1,2,0
604.399,0.001009,-0.005859375,0.06054688,0.0625,-3.710938,1.289062,13.05469,0,0.06054688,0.0703125,-0.009765625,0.0234375,0,0.001708984,-0.00402832,0.009521484,0,0,0.01257324,0.2263184,4.073,0,0,0,0.2000122,nan,2,0.041,1,128,0.2207947,0.2158203,0.2305298,0.2381592,0,0.001953125,0,1,2,0
604.409,0.000984,-0.05273438,-0.01757812,0.01953125,0.9375,-6.390625,5.429688,-0.015625,0.0078125,0.02148438,-0.009765625,0.0234375,0,0.001708984,-0.00390625,0.01000977,0,0,0.01257324,0.2263184,4.073,0,0,0,0.2000122,nan,2,0.003,1,128,0.2034607,0.258606,0.184021,0.2591858,0,0.001953125,0,1,2,0
604.419,0.001007,-0.005859375,0.0625,-0.01367188,1.289062,-0.1171875,14.65625,-0.0078125,0.01171875,-0.00390625,-0.009765625,0.0234375,0,0.001586914,-0.00378418,0.01000977,0,0,0.01257324,0.2263184,4.073,0,0,0,0.2000122,nan,2,0.013,1,128,0.2026367,0.2510681,0.1994324,0.2521362,0,0.001953125,0,1,2,0
604.43,0.001039,0.02929688,-0.0078125,0.02929688,0.71875,-5.0625,5.960938,-0.01953125,0.01367188,0.01367188,-0.0078125,0.0234375,0,0.001464844,-0.00378418,0.01000977,0,0,0.01257324,0.2263184,4.073,0,0,0,0.2000122,nan,2,0.023,1,128,0.2600098,0.1964111,0.254425,0.1944275,0,0.001953125,0,1,2,0
604.439,0.001011,0.03320312,0.0078125,0.02539062,0.9140625,-1.570312,13.32812,0.0078125,0.001953125,0.01953125,-0.009765625,0.0234375,0,0.001586914,-0.00378418,0.01025391,0,0,0.01257324,0.2263184,4.073,0,0,0,0.2000122,nan,2,0.032,1,128,0.2322083,0.223877,0.2307739,0.2184143,0,0.001953125,0,1,2,0
604.449,0.000999,0.01367188,0.0625,-0.00390625,0.015625,-5.21875,5.195312,-0.00390625,0.01367188,-0.005859375,-0.009765625,0.0234375,0,0.001708984,-0.00378418,0.01025391,0,0,0.01257324,0.2263184,4.073,0,0,0,0.2000122,nan,2,0.042,1,128,0.2052612,0.244812,0.2040405,0.2511292,0,0.001953125,0,1,2,0
604.459,0.001009,0.0390625,-0.001953125,0.0234375,0.421875,2.351562,17.11719,0.02734375,0.0078125,0.01953125,-0.01171875,0.02148438,0,0.001831055,-0.00378418,0.01037598,0,0,0.01257324,0.2263184,4.073,0,0,0,0.2000122,nan,2,0.053,1,128,0.2501831,0.2080688,0.2533264,0.1936951,0,0.001953125,0,1,2,0
604.469,0.001041,-0.078125,0.001953125,-0.09765625,1.3125,-5.460938,5.296875,0.0078125,-0.005859375,-0.03320312,-0.01171875,0.0234375,0,0.001953125,-0.00378418,0.01037598,0,0,0.01257324,0.2263184,4.073,0,0,0,0.2000122,nan,2,0.063,1,128,0.1573486,0.3041687,0.1465149,0.2972107,0,0.001953125,0,1,2,0
604.479,0.00101,0.07421875,0.04492188,-0.02734375,-1.195312,4.59375,17.01562,0.09960938,0.01171875,-0.015625,-0.01367188,0.02148438,0,0.002319336,-0.003662109,0.01000977,0,0,0.01257324,0.2263184,4.073,0,0,0,0.2000122,nan,2,0.073,1,128,0.2221375,0.2359924,0.2503052,0.1968384,0,0.001953125,0,1,2,0
604.489,0.00101,0.05664062,-0.04296875,-0.02734375,1.890625,1.671875,10.70312,0.02148438,-0.005859375,-0.05078125,-0.015625,0.02148438,0,0.002441406,-0.003540039,0.009643555,0,0,0.01257324,0.2263184,4.073,0,0,0,0.2000122,nan,2,0.083,1,128,0.2017212,0.2627563,0.1965637,0.2442017,0,0.001953125,0,1,2,0
604.499,0.000976,0.0078125,-0.06054688,0.0078125,1.359375,1.46875,4.445312,0.01953125,-0.0234375,-0.01367188,-0.015625,0.02148438,0,0.002685547,-0.003662109,0.009277344,0,0,0.01257324,0,4.073,0,0,0,0,nan,2,0.007,1,128,0.1000061,0.1000061,0.1000061,0.1000061,0,0,0,1,2,0
604.509,0.00101,-0.08398438,0.005859375,-0.03320312,1.992188,-7.203125,4.890625,-0.01953125,-0.001953125,-0.01953125,-0.015625,0.02148438,0,0.002807617,-0.00378418,0.009277344,0,0,0.01257324,0,4.073,0,0,0,0,nan,2,0.017,1,128,0.1000061,0.1000061,0.1000061,0.1000061,0,0,0,1,2,0
604.519,0.001013,-0.0078125,0.0234375,-0.0390625,-0.109375,-9.867188,5.3125,0.03710938,0,-0.0390625,-0.015625,0.02148438,0,0.002929688,-0.00378418,0.008911133,0,0,0.01257324,0,4.073,0,0,0,0,nan,2,0.027,1,128,0.1000061,0.1000061,0.1000061,0.1000061,0,0,0,1,2,0
604.53,0.001032,-0.00390625,0.005859375,0.001953125,1.054688,-2.476562,13.59375,0.009765625,-0.009765625,0,-0.015625,0.02148438,0,0.003051758,-0.00378418,0.008789062,0,0,0.01257324,0,4.073,0,0,0,0,nan,2,0.001,1,128,0.1000061,0.1000061,0.1000061,0.1000061,0,0,0,1,2,0
604.539,0.00105,-0.02539062,0.05859375,0.03125,0.1875,4.25,16.24219,0.04882812,0,0.04492188,-0.015625,0.02148438,0,0.003417969,-0.00390625,0.009033203,0,0,0.009033203,0,4.073,0,0,0,0,nan,2,0.01,0,0,0,0,0,0,0,0,0,1,2,0
604.549,0.00101,-0.1289062,0.07617188,-0.03320312,1.796875,-3.773438,1.523438,-0.0390625,0.02148438,-0.02148438,-0.015625,0.02148438,0,0.003662109,-0.00378418,0.009155273,0,0,0.009155273,0,4.073,0,0,0,0,nan,2,0.02,0,0,0,0,0,0,0,0,0,1,2,0
604.559,0.001006,-0.07226562,0.05664062,-0.04101562,-1.03125,-2.695312,10.99219,0,0.015625,-0.04492188,-0.015625,0.02148438,0,0.003295898,-0.003662109,0.008789062,0,0,0.008789062,0,4.073,0,0,0,0,nan,2,0.03,0,0,0,0,0,0,0,0,0,1,2,0
604.569,0.001003,0.005859375,-0.0390625,-0.03515625,-0.34375,-5.835938,10.3125,0.0078125,-0.01367188,-0.03515625,-0.015625,0.02148438,0,0.003295898,-0.003662109,0.008422852,0,0,0.008422852,0,4.073,0,0,0,0,nan,2,0.04,0,0,0,0,0,0,0,0,0,1,2,0
604.579,0.001009,-0.1035156,0.0078125,-0.009765625,0.203125,3.59375,10.90625,-0.05664062,0,-0.009765625,-0.015625,0.02148438,0,0.003295898,-0.003662109,0.008178711,0,0,0.008178711,0,4.073,0,0,0,0,nan,2,0.051,0,0,0,0,0,0,0,0,0,1,2,0
604.589,0.001005,-0.01953125,0.08203125,-0.01953125,-1.5,-0.46875,12.54688,-0.02148438,0.015625,-0.0234375,-0.015625,0.02148438,0,0.002929688,-0.003662109,0.008056641,0,0,0.008056641,0,4.073,0,0,0,0,nan,2,0.061,0,0,0,0,0,0,0,0,0,1,2,0
604.599,0.001025,-0.05273438,0.03515625,-0.00390625,-2.289062,-2.679688,5.3125,-0.01367188,0.005859375,-0.009765625,-0.015625,0.02148438,0,0.002807617,-0.003662109,0.00793457,0,0,0.00793457,0,4.073,0,0,0,0,nan,2,0.071,0,0,0,0,0,0,0,0,0,1,2,0
604.609,0.00101,-0.015625,0.02929688,-0.0078125,-0.8046875,-0.3203125,3.820312,-0.01367188,0.02148438,-0.015625,-0.015625,0.02148438,0,0.002685547,-0.003662109,0.0078125,0,0,0.0078125,0,4.073,0,0,0,0,nan,2,0.081,0,0,0,0,0,0,0,0,0,1,2,0
604.619,0.00101,-0.06445312,-0.0546875,-0.02929688,-1.851562,0.0546875,12.25781,0.001953125,-0.02929688,-0.01953125,-0.015625,0.02148438,0,0.002685547,-0.00378418,0.00769043,0,0,0.00769043,0,4.073,0,0,0,0,nan,2,0.091,0,0,0,0,0,0,0,0,0,1,2,0
604.629,0.000999,0.009765625,0.02734375,-0.02148438,-0.1875,-1.328125,10.17188,0,0.01757812,-0.01171875,-0.015625,0.02148438,0,0.002685547,-0.00390625,0.007568359,0,0,0.007568359,0,4.073,0,0,0,0,nan,2,0.101,0,0,0,0,0,0,0,0,0,1,2,1
604.64,0.000999,-0.06054688,-0.01367188,0.00390625,0.765625,-1.929688,10.61719,-0.03320312,0.005859375,-0.01757812,-0.015625,0.02148438,0,0.002441406,-0.00378418,0.007324219,0,0,0.007324219,0,4.073,0,0,0,0,nan,2,0.111,0,0,0,0,0,0,0,0,0,1,2,0
604.65,0.00101,0.01171875,-0.01171875,-0.001953125,-1.28125,-0.5078125,10.08594,-0.009765625,-0.005859375,-0.01757812,-0.015625,0.02148438,0,0.002197266,-0.003662109,0.007080078,0,0,0.007080078,0,4.073,0,0,0,0,nan,2,0.121,0,0,0,0,0,0,0,0,0,1,2,1
604.659,0.001019,0.05664062,-0.05664062,0.009765625,1.007812,-1.890625,7.335938,-0.001953125,0.001953125,0.005859375,-0.015625,0.02148438,0,0.002075195,-0.003662109,0.007080078,0,0,0.007080078,0,4.073,0,0,0,0,nan,2,0.13,0,0,0,0,0,0,0,0,0,1,2,0
604.669,0.001008,0.06640625,0.03320312,0.02539062,1.523438,1.492188,13.125,0.015625,-0.001953125,0.01171875,-0.015625,0.02148438,0,0.002075195,-0.003662109,0.007202148,0,0,0.007202148,0,4.073,0,0,0,0,nan,2,0.14,0,0,0,0,0,0,0,0,0,1,2,0
604.679,0.001006,0.04882812,-0.0625,0.00390625,0.921875,-0.2890625,9.03125,0.0078125,-0.01953125,0.01171875,-0.015625,0.02148438,0,0.002075195,-0.003662109,0.007324219,0,0,0.007324219,0,4.073,0,0,0,0,nan,2,0.15,0,0,0,0,0,0,0,0,0,1,2,1
604.689,0.001008,0.0078125,-0.0078125,-0.00390625,-0.2578125,-0.8359375,6.976562,0.015625,-0.01367188,0.005859375,-0.015625,0.02148438,0,0.002075195,-0.00378418,0.007446289,0,0,0.007446289,0,4.073,0,0,0,0,nan,2,0.161,0,0,0,0,0,0,0,0,0,1,2,0
604.699,0.00101,0.08007812,0.05078125,0.0390625,0.96875,-1.109375,13.44531,0.01367188,0.0078125,0.01953125,-0.015625,0.02148438,0,0.001953125,-0.003662109,0.007568359,0,0,0.007568359,0,4.073,0,0,0,0,nan,2,0.171,0,0,0,0,0,0,0,0,0,1,2,0
604.709,0.000957,0.05273438,0.03125,-0.001953125,-0.0546875,0.6484375,16.04688,-0.01171875,0.01171875,0.00390625,-0.015625,0.02148438,0,0.001953125,-0.003662109,0.00769043,0,0,0.00769043,0,4.073,0,0,0,0,nan,2,0.181,0,0,0,0,0,0,0,0,0,1,2,0
604.719,0.00101,0.00390625,0.02539062,-0.00390625,-0.4609375,-0.6015625,13.33594,0.0078125,0,0.009765625,-0.015625,0.02148438,0,0.001831055,-0.003662109,0.00769043,0,0,0.00769043,0,4.073,0,0,0,0,nan,2,0.191,0,0,0,0,0,0,0,0,0,1,2,0
604.729,0.00101,0.06445312,0.08007812,0.01367188,0.46875,-2.3125,17.41406,0,0.02734375,-0.00390625,-0.015625,0.02148438,0,0.001831055,-0.003540039,0.00769043,0,0,0.00769043,0,4.073,0,0,0,0,nan,2,0.201,0,0,0,0,0,0,0,0,0,1,2,0
604.739,0.00101,-0.02734375,-0.01953125,0.005859375,0.28125,0.5390625,5.976562,0.015625,-0.00390625,-0.0078125,-0.015625,0.02148438,0,0.001953125,-0.003662109,0.00769043,0,0,0.00769043,0,4.073,0,0,0,0,nan,2,0.211,0,0,0,0,0,0,0,0,0,1,2,0
604.75,0.001006,-0.00390625,-0.005859375,0.01171875,-1.023438,-0.34375,8.25,0.009765625,-0.001953125,0.01171875,-0.015625,0.02148438,0,0.001953125,-0.003662109,0.00769043,0,0,0.00769043,0,4.073,0,0,0,0,nan,2,0.221,0,0,0,0,0,0,0,0,0,1,2,0
604.759,0.00101,-0.06640625,-0.02929688,-0.03515625,-1.109375,1.484375,9.921875,-0.01757812,-0.001953125,-0.015625,-0.015625,0.02148438,0,0.001953125,-0.003540039,0.00769043,0,0,0.00769043,0,4.073,0,0,0,0,nan,2,0.23,0,0,0,0,0,0,0,0,0,1,2,1
604.769,0.00101,0.02148438,0.0234375,-0.04101562,1.460938,5.84375,13.46875,0.00390625,0,-0.03125,-0.015625,0.02148438,0,0.001953125,-0.003662109,0.007324219,0,0,0.007324219,0,4.073,0,0,0,0,nan,2,0.24,0,0,0,0,0,0,0,0,0,1,2,0
604.779,0.001009,0.09570312,0.03515625,-0.05078125,1.132812,2.390625,14.61719,0.01757812,-0.00390625,-0.03710938,-0.015625,0.02148438,0,0.001953125,-0.003662109,0.007080078,0,0,0.007080078,0,4.073,0,0,0,0,nan,2,0.25,0,0,0,0,0,0,0,0,0,1,2,0
604.789,0.001007,0.00390625,0.009765625,0,-3.046875,-4.226562,11.33594,0.01367188,-0.0078125,-0.02539062,-0.015625,0.02148438,0,0.002075195,-0.00378418,0.006713867,0,0,0.006713867,0,4.073,0,0,0,0,nan,2,0.261,0,0,0,0,0,0,0,0,0,1,2,0
604.799,0.000994,-0.01367188,0.03320312,0.01757812,-2.765625,-2.3125,8.515625,0.00390625,0.001953125,-0.005859375,-0.015625,0.02148438,0,0.001953125,-0.00390625,0.006469727,0,0,0.006469727,0,4.077,0,0,0,0,nan,2,0.271,0,0,0,0,0,0,0,0,0,1,2,1
604.809,0.001023,0.03710938,0.009765625,-0.009765625,-1.46875,1.617188,9.5625,0.01171875,-0.00390625,0,-0.015625,0.02148438,0,0.002075195,-0.00390625,0.006469727,0,0,0.006469727,0,4.077,0,0,0,0,nan,2,0.281,0,0,0,0,0,0,0,0,0,1,2,1
604.819,0.001011,0.03320312,-0.01953125,0.009765625,2.171875,-0.1171875,10.01562,0.00390625,-0.0078125,0.015625,-0.015625,0.02148438,0,0.001953125,-0.00402832,0.006591797,0,0,0.006591797,0,4.077,0,0,0,0,nan,2,0.291,0,0,0,0,0,0,0,0,0,1,2,1
604.829,0.001009,-0.01757812,0.01171875,0.02539062,-1.75,-2.367188,10.4375,-0.001953125,0,0.02148438,-0.015625,0.02148438,0,0.001953125,-0.00402832,0.006835938,0,0,0.006835938,0,4.077,0,0,0,0,nan,2,0.301,0,0,0,0,0,0,0,0,0,1,2,0
604.84,0.001036,0.02539062,-0.01953125,-0.009765625,2.429688,-0.5546875,11.33594,0.01367188,-0.001953125,0.005859375,-0.015625,0.02148438,0,0.002075195,-0.00402832,0.006958008,0,0,0.006958008,0,4.077,0,0,0,0,nan,2,0.311,0,0,0,0,0,0,0,0,0,1,2,0
604.849,0.001022,0.02929688,-0.009765625,-0.009765625,1.5625,2.476562,9.851562,-0.00390625,-0.00390625,-0.001953125,-0.015625,0.02148438,0,0.001953125,-0.00402832,0.006958008,0,0,0.006958008,0,4.077,0,0,0,0,nan,2,0.32,0,0,0,0,0,0,0,0,0,1,2,1
604.859,0.001055,-0.03125,0.03515625,-0.0078125,-0.2265625,-0.515625,10.14844,-0.001953125,-0.005859375,-0.01757812,-0.015625,0.02148438,0,0.001953125,-0.004150391,0.006835938,0,0,0.006835938,0,4.077,0,0,0,0,nan,2,0.33,0,0,0,0,0,0,0,0,0,1,2,1
604.869,0.000999,-0.046875,0.02148438,0.03320312,0.4140625,-1.921875,9.867188,-0.0078125,0.001953125,0.005859375,-0.015625,0.02148438,0,0.001953125,-0.004150391,0.006835938,0,0,0.006835938,0,4.077,0,0,0,0,nan,2,0.34,0,0,0,0,0,0,0,0,0,1,2,1
604.879,0.000994,0.04492188,-0.0390625,0.009765625,0.6796875,-0.375,9.359375,0.0078125,-0.001953125,-0.00390625,-0.015625,0.02148438,0,0.001953125,-0.004150391,0.006835938,0,0,0.006835938,0,4.077,0,0,0,0,nan,2,0.351,0,0,0,0,0,0,0,0,0,1,2,1
604.889,0.000998,0.02539062,0.02734375,0.01953125,-0.7890625,-0.796875,11.01562,0.00390625,0.00390625,0.005859375,-0.015625,0.02148438,0,0.002075195,-0.004150391,0.006835938,0,0,0.006835938,0,4.077,0,0,0,0,nan,2,0.361,0,0,0,0,0,0,0,0,0,1,2,0
604.899,0.001019,-0.01757812,-0.009765625,0.02539062,0.265625,0.484375,9.546875,-0.01171875,0.005859375,0,-0.015625,0.02148438,0,0.002197266,-0.004150391,0.006835938,0,0,0.006835938,0,4.077,0,0,0,0,nan,2,0.371,0,0,0,0,0,0,0,0,0,1,2,1
604.909,0.001007,-0.08203125,-0.005859375,-0.02148438,0.6015625,0.3359375,9.0625,-0.0078125,-0.005859375,-0.01171875,-0.015625,0.02148438,0,0.002075195,-0.004272461,0.006713867,0,0,0.006713867,0,4.077,0,0,0,0,nan,2,0.381,0,0,0,0,0,0,0,0,0,1,2,1
604.919,0.001007,0.02929688,0.03710938,-0.02148438,0.546875,-0.75,10,0.0078125,-0.001953125,-0.005859375,-0.015625,0.02148438,0,0.002075195,-0.004272461,0.006713867,0,0,0.006713867,0,4.077,0,0,0,0,nan,2,0.391,0,0,0,0,0,0,0,0,0,1,2,1
604.929,0.001007,0.00390625,-0.0078125,0.01367188,-0.9921875,-0.046875,10.42188,-0.01171875,-0.001953125,0,-0.015625,0.02148438,0,0.002075195,-0.004272461,0.006591797,0,0,0.006591797,0,4.077,0,0,0,0,nan,2,0.401,0,0,0,0,0,0,0,0,0,1,2,1
604.94,0.001007,-0.005859375,0.001953125,-0.0078125,0.203125,-0.609375,10.42188,-0.001953125,-0.00390625,0.00390625,-0.015625,0.02148438,0,0.002075195,-0.004272461,0.006713867,0,0,0.006713867,0,4.077,0,0,0,0,nan,2,0.411,0,0,0,0,0,0,0,0,0,1,2,1
604.949,0.001071,-0.01953125,0.0078125,-0.015625,0.3515625,-0.203125,9.382812,0,0.001953125,-0.009765625,-0.015625,0.02148438,0,0.002075195,-0.004272461,0.006591797,0,0,0.006591797,0,4.077,0,0,0,0,nan,2,0.42,0,0,0,0,0,0,0,0,0,1,2,1
604.959,0.001013,-0.001953125,0.0078125,0.009765625,-0.25,-0.1015625,10.21094,0,-0.001953125,0.001953125,-0.015625,0.02148438,0,0.001953125,-0.004272461,0.006591797,0,0,0.006591797,0,4.077,0,0,0,0,nan,2,0.43,0,0,0,0,0,0,0,0,0,1,2,1
604.969,0.001013,-0.01367188,0.02148438,0.005859375,-0.171875,0.2109375,10.25781,0.001953125,0.00390625,0.001953125,-0.015625,0.02148438,0,0.001953125,-0.004272461,0.006591797,0,0,0.006591797,0,4.077,0,0,0,0,nan,2,0.44,0,0,0,0,0,0,0,0,0,1,2,1
604.979,0.001016,0.005859375,0.005859375,0.0078125,0.15625,0.109375,9.835938,0.001953125,0.001953125,-0.00390625,-0.015625,0.02148438,0,0.001953125,-0.004272461,0.006591797,0,0,0.006591797,0,4.077,0,0,0,0,nan,2,0.45,0,0,0,0,0,0,0,0,0,1,2,1
604.989,0.001015,0.001953125,0.0078125,-0.005859375,0.296875,0.375,9.953125,-0.005859375,0.00390625,0.001953125,-0.015625,0.02148438,0,0.001953125,-0.004272461,0.006591797,0,0,0.006591797,0,4.077,0,0,0,0,nan,2,0.461,0,0,0,0,0,0,0,0,0,1,2,1
604.999,0.001013,-0.001953125,0.01171875,0.01757812,0.0546875,-0.140625,9.773438,-0.001953125,0.00390625,-0.001953125,-0.015625,0.02148438,0,0.001953125,-0.004150391,0.006591797,0,0,0.006591797,0,4.077,0,0,0,0,nan,2,0.471,0,0,0,0,0,0,0,0,0,1,2,1
605.009,0.001013,-0.01171875,0.0078125,0.001953125,0.3984375,0.390625,9.546875,-0.00390625,0.001953125,0,-0.015625,0.02148438,0,0.001953125,-0.004150391,0.006591797,0,0,0.006591797,0,4.077,0,0,0,0,nan,2,0.481,0,0,0,0,0,0,0,0,0,1,2,1
605.019,0.001013,-0.009765625,0.005859375,-0.02929688,0.296875,0.2578125,9.992188,-0.001953125,0.00390625,-0.01171875,-0.015625,0.02148438,0,0.001831055,-0.004150391,0.006591797,0,0,0.006591797,0,4.077,0,0,0,0,nan,2,0.491,0,0,0,0,0,0,0,0,0,1,2,1
605.029,0.001013,0,-0.00390625,0,-0.0625,-0.4765625,9.96875,0.00390625,-0.001953125,0.001953125,-0.015625,0.02148438,0,0.001831055,-0.004150391,0.006591797,0,0,0.006591797,0,4.077,0,0,0,0,nan,2,0.501,0,0,0,0,0,0,0,0,0,1,2,1
605.04,0.001013,0.001953125,0,0.02539062,-0.1796875,0.0703125,9.742188,0,0.001953125,0.009765625,-0.015625,0.02148438,0,0.001831055,-0.004150391,0.006591797,0,0,0.006591797,0,4.077,0,0,0,0,nan,2,0.511,0,0,0,0,0,0,0,0,0,1,2,1
605.049,0.001012,-0.01171875,0.0078125,-0.001953125,-0.03125,-0.1640625,9.8125,0.001953125,0.005859375,-0.001953125,-0.015625,0.02148438,0,0.001831055,-0.004150391,0.006591797,0,0,0.006591797,0,4.077,0,0,0,0,nan,2,0.52,0,0,0,0,0,0,0,0,0,1,2,1
605.059,0.001012,0,-0.001953125,0.015625,-0.109375,-0.328125,9.757812,0,-0.001953125,0.0078125,-0.015625,0.02148438,0,0.001831055,-0.004150391,0.006591797,0,0,0.006591797,0,4.077,0,0,0,0,nan,2,0.53,0,0,0,0,0,0,0,0,0,1,2,1
605.069,0.001012,-0.009765625,-0.005859375,-0.005859375,0.046875,-0.1171875,9.914062,0,-0.001953125,-0.0078125,-0.015625,0.02148438,0,0.001708984,-0.004150391,0.006591797,0,0,0.006591797,0,4.077,0,0,0,0,nan,2,0.54,0,0,0,0,0,0,0,0,0,1,2,1
605.079,0.001014,0.005859375,0,0.01953125,0.03125,-0.1484375,9.789062,0.001953125,0,0.001953125,-0.015625,0.02148438,0,0.001708984,-0.004150391,0.006591797,0,0,0.006591797,0,4.077,0,0,0,0,nan,2,0.55,0,0,0,0,0,0,0,0,0,1,2,1
605.089,0.001011,-0.00390625,-0.00390625,-0.01367188,0.2578125,-0.015625,9.96875,-0.001953125,0,-0.001953125,-0.015625,0.02148438,0,0.001708984,-0.004150391,0.006591797,0,0,0.006591797,0,4.077,0,0,0,0,nan,2,0.561,0,0,0,0,0,0,0,0,0,1,2,1
605.099,0.00101,0.005859375,0.00390625,0.001953125,0.0390625,0.015625,9.851562,0.001953125,0,-0.001953125,-0.015625,0.02148438,0,0.001708984,-0.004272461,0.006591797,0,0,0.006591797,0,4.077,0,0,0,0,nan,2,0.571,0,0,0,0,0,0,0,0,0,1,2,1
605.109,0.001012,-0.01367188,-0.00390625,0.00390625,-0.0546875,-0.0234375,9.867188,-0.00390625,-0.001953125,0.0078125,-0.015625,0.02148438,0,0.001586914,-0.004272461,0.006591797,0,0,0.006591797,0,4.077,0,0,0,0,nan,2,0.581,0,0,0,0,0,0,0,0,0,1,2,1
605.119,0.001012,0.0078125,0,-0.0078125,0.1796875,-0.0859375,9.890625,0.00390625,0,-0.0078125,-0.015625,0.02148438,0,0.001586914,-0.004272461,0.006591797,0,0,0.006591797,0,4.077,0,0,0,0,nan,2,0.591,0,0,0,0,0,0,0,0,0,1,2,1
605.129,0.001012,-0.005859375,-0.00390625,0.005859375,-0.0390625,-0.0703125,9.875,-0.001953125,-0.001953125,0.005859375,-0.015625,0.02148438,0,0.001586914,-0.004272461,0.006591797,0,0,0.006591797,0,4.077,0,0,0,0,nan,2,0.601,0,0,0,0,0,0,0,0,0,1,2,1
605.14,0.001012,0.0078125,-0.001953125,-0.005859375,0.0703125,-0.046875,9.789062,0.001953125,0,-0.00390625,-0.015625,0.02148438,0,0.001586914,-0.004272461,0.006591797,0,0,0.006591797,0,4.077,0,0,0,0,nan,2,0.611,0,0,0,0,0,0,0,0,0,1,2,1
605.15,0.001012,-0.001953125,0.001953125,0.0078125,-0.1171875,-0.0234375,9.960938,0,-0.001953125,0.00390625,-0.015625,0.02148438,0,0.001586914,-0.004272461,0.006591797,0,0,0.006591797,0,4.077,0,0,0,0,nan,2,0.621,0,0,0,0,0,0,0,0,0,1,2,1
605.159,0.001008,0.00390625,0.001953125,-0.00390625,0.1484375,0.03125,9.820312,0,0.001953125,0,-0.015625,0.02148438,0,0.001586914,-0.004272461,0.006591797,0,0,0.006591797,0,4.077,0,0,0,0,nan,2,0.63,0,0,0,0,0,0,0,0,0,1,2,1
605.169,0.001008,-0.00390625,0.00390625,0,-0.0546875,-0.0546875,9.84375,-0.001953125,0,-0.001953125,-0.015625,0.02148438,0,0.001586914,-0.004272461,0.006591797,0,0,0.006591797,0,4.077,0,0,0,0,nan,2,0.64,0,0,0,0,0,0,0,0,0,1,2,1
605.179,0.001008,0.00390625,0.001953125,0.00390625,0.0625,0.0390625,9.882812,-0.001953125,0.001953125,0.001953125,-0.015625,0.02148438,0,0.001464844,-0.004272461,0.006591797,0,0,0.006591797,0,4.077,0,0,0,0,nan,2,0.65,0,0,0,0,0,0,0,0,0,1,2,1
605.189,0.001001,-0.00390625,0,-0.001953125,-0.03125,-0.09375,9.90625,-0.001953125,0,-0.001953125,-0.015625,0.02148438,0,0.001464844,-0.004272461,0.006591797,0,0,0.006591797,0,4.077,0,0,0,0,nan,2,0.661,0,0,0,0,0,0,0,0,0,1,2,1
605.199,0.001008,0,0.001953125,0.005859375,0.0859375,-0.0390625,9.851562,0,0.001953125,0.001953125,-0.015625,0.02148438,0,0.001464844,-0.004150391,0.006591797,0,0,0.006591797,0,4.077,0,0,0,0,nan,2,0.671,0,0,0,0,0,0,0,0,0,1,2,1
605.209,0.001008,0,-0.001953125,-0.00390625,0.03125,-0.078125,9.828125,0,-0.001953125,0,-0.015625,0.02148438,0,0.001464844,-0.004150391,0.006591797,0,0,0.006591797,0,4.077,0,0,0,0,nan,2,0.681,0,0,0,0,0,0,0,0,0,1,2,1
605.219,0.001008,-0.001953125,0.005859375,-0.00390625,0.0078125,0.015625,9.851562,-0.001953125,0.001953125,-0.001953125,-0.015625,0.02148438,0,0.001464844,-0.004150391,0.006591797,0,0,0.006591797,0,4.077,0,0,0,0,nan,2,0.691,0,0,0,0,0,0,0,0,0,1,2,1
605.229,0.001008,0,-0.001953125,0.001953125,0.0234375,-0.03125,9.890625,0,0.001953125,0.001953125,-0.015625,0.02148438,0,0.001342773,-0.004150391,0.006591797,0,0,0.006591797,0,4.077,0,0,0,0,nan,2,0.701,0,0,0,0,0,0,0,0,0,1,2,1
605.24,0.001008,0.001953125,0.001953125,0,0.09375,-0.015625,9.875,0,0,-0.001953125,-0.015625,0.02148438,0,0.001342773,-0.004150391,0.006591797,0,0,0.006591797,0,4.077,0,0,0,0,nan,2,0.711,0,0,0,0,0,0,0,0,0,1,2,1
605.249,0.00102,-0.001953125,-0.001953125,0.00390625,0.0234375,-0.078125,9.820312,0,0,0,-0.015625,0.02148438,0,0.001342773,-0.004150391,0.006591797,0,0,0.006591797,0,4.077,0,0,0,0,nan,2,0.72,0,0,0,0,0,0,0,0,0,1,2,1
605.259,0.001012,0.001953125,-0.001953125,0.001953125,0.0390625,0.015625,9.8125,0.001953125,0,0.001953125,-0.015625,0.02148438,0,0.001342773,-0.004150391,0.006591797,0,0,0.006591797,0,4.077,0,0,0,0,nan,2,0.73,0,0,0,0,0,0,0,0,0,1,2,1
605.269,0.001012,0.00390625,-0.00390625,0.001953125,0.0234375,-0.0234375,9.859375,0.001953125,-0.001953125,0.001953125,-0.015625,0.02148438,0,0.001342773,-0.004150391,0.006591797,0,0,0.006591797,0,4.077,0,0,0,0,nan,2,0.74,0,0,0,0,0,0,0,0,0,1,2,1
605.279,0.001009,0,0,0,0.0390625,-0.0546875,9.835938,-0.001953125,0,0,-0.015625,0.02148438,0,0.001342773,-0.004150391,0.006591797,0,0,0.006591797,0,4.077,0,0,0,0,nan,2,0.75,0,0,0,0,0,0,0,0,0,1,2,1
605.289,0.001007,-0.001953125,-0.001953125,0,0.0546875,-0.0703125,9.84375,-0.001953125,-0.001953125,0,-0.015625,0.02148438,0,0.001220703,-0.004272461,0.006591797,0,0,0.006591797,0,4.077,0,0,0,0,nan,2,0.761,0,0,0,0,0,0,0,0,0,1,2,1
605.299,0.001011,-0.001953125,0.001953125,0.001953125,0.0546875,-0.0390625,9.882812,0,0.001953125,0.001953125,-0.015625,0.02148438,0,0.001220703,-0.004272461,0.006591797,0,0,0.006591797,0,4.077,0,0,0,0,nan,2,0.771,0,0,0,0,0,0,0,0,0,1,2,1
605.309,0.00101,0,0,0,0.03125,-0.0234375,9.875,0,0,0.001953125,-0.015625,0.02148438,0,0.001220703,-0.004150391,0.006591797,0,0,0.006591797,0,4.077,0,0,0,0,nan,2,0.781,0,0,0,0,0,0,0,0,0,1,2,1
605.319,0.00101,0,-0.00390625,0,0.046875,-0.0234375,9.90625,0,0,0,-0.015625,0.02148438,0,0.001220703,-0.004150391,0.006591797,0,0,0.006591797,0,4.077,0,0,0,0,nan,2,0.791,0,0,0,0,0,0,0,0,0,1,2,1
605.329,0.00101,-0.001953125,-0.001953125,0.001953125,0.0390625,-0.0234375,9.867188,0,-0.001953125,0,-0.015625,0.02148438,0,0.001220703,-0.004272461,0.006591797,0,0,0.006591797,0,4.077,0,0,0,0,nan,2,0.801,0,0,0,0,0,0,0,0,0,1,2,1
605.339,0.00101,0,0.001953125,-0.00390625,0.0390625,-0.0234375,9.9375,0,0.001953125,0,-0.015625,0.02148438,0,0.001098633,-0.004150391,0.006591797,0,0,0.006591797,0,4.077,0,0,0,0,nan,2,0.811,0,0,0,0,0,0,0,0,0,1,2,1
605.35,0.00101,0,0.001953125,0,-0.0078125,0.0078125,9.851562,0,0,0,-0.015625,0.02148438,0,0.001098633,-0.004150391,0.006591797,0,0,0.006591797,0,4.077,0,0,0,0,nan,2,0.821,0,0,0,0,0,0,0,0,0,1,2,1
605.361,0.002506,0,0.00390625,0,0.0625,0.0234375,9.835938,0,0.001953125,0,-0.015625,0.02148438,0,0.001098633,-0.004150391,0.006591797,0,0,0.006591797,0,4.077,0,0,0,0,nan,2,0.832,0,0,0,0,0,0,0,0,0,1,2,1
605.369,0.001015,0,0,0,0.0625,-0.0390625,9.8125,0,0,0,-0.015625,0.02148438,0,0.001098633,-0.004150391,0.006591797,0,0,0.006591797,0,4.077,0,0,0,0,nan,2,0.841,0,0,0,0,0,0,0,0,0,1,2,1
605.379,0.001015,0.001953125,-0.001953125,0,0.046875,-0.046875,9.835938,0.001953125,0,0,-0.015625,0.02148438,0,0.001098633,-0.004150391,0.006591797,0,0,0.006591797,0,4.077,0,0,0,0,nan,2,0.851,0,0,0,0,0,0,0,0,0,1,2,1
605.389,0.001015,0.00390625,-0.001953125,0,0.0546875,-0.0234375,9.867188,0.001953125,0,0,-0.015625,0.02148438,0,0.001098633,-0.004150391,0.006591797,0,0,0.006591797,0,4.077,0,0,0,0,nan,2,0.861,0,0,0,0,0,0,0,0,0,1,2,1
605.4,0.001015,0.001953125,0.001953125,0,0.0703125,0,9.84375,0,0,0,-0.015625,0.02148438,0,0.001098633,-0.004272461,0.006591797,0,0,0.006591797,0,4.077,0,0,0,0,nan,2,0.871,0,0,0,0,0,0,0,0,0,1,2,1
605.409,0.000999,0,0,0.001953125,0.0546875,-0.0546875,9.835938,0,0,0,-0.015625,0.02148438,0,0.001098633,-0.004272461,0.006591797,0,0,0.006591797,0,4.077,0,0,0,0,nan,2,0.88,0,0,0,0,0,0,0,0,0,1,2,1
605.419,0.000999,-0.001953125,-0.001953125,0.001953125,0.0859375,-0.0390625,9.859375,0.001953125,0,0,-0.015625,0.02148438,0,0.0009765625,-0.004272461,0.006591797,0,0,0.006591797,0,4.077,0,0,0,0,nan,2,0.89,0,0,0,0,0,0,0,0,0,1,2,1
605.429,0.000998,-0.001953125,-0.00390625,-0.001953125,0.0546875,-0.03125,9.820312,0,0,-0.001953125,-0.015625,0.02148438,0,0.0009765625,-0.004272461,0.006591797,0,0,0.006591797,0,4.077,0,0,0,0,nan,2,0.9,0,0,0,0,0,0,0,0,0,1,2,1
605.439,0.000999,0,-0.001953125,0,0.015625,0.015625,9.835938,-0.001953125,0,0,-0.015625,0.02148438,0,0.0009765625,-0.004272461,0.006591797,0,0,0.006591797,0,4.077,0,0,0,0,nan,2,0.911,0,0,0,0,0,0,0,0,0,1,2,1
605.449,0.000998,-0.001953125,0.00390625,0,0.0078125,-0.046875,9.835938,0,0.001953125,0,-0.015625,0.02148438,0,0.0009765625,-0.004272461,0.006591797,0,0,0.006591797,0,4.077,0,0,0,0,nan,2,0.921,0,0,0,0,0,0,0,0,0,1,2,1
605.459,0.001009,0.001953125,0.001953125,0,0.0703125,-0.0390625,9.828125,0,0,0.001953125,-0.015625,0.02148438,0,0.0009765625,-0.004272461,0.006591797,0,0,0.006591797,0,4.077,0,0,0,0,nan,2,0.931,0,0,0,0,0,0,0,0,0,1,2,1
605.469,0.001009,-0.00390625,0.00390625,0.001953125,0.0703125,-0.03125,9.875,0,0,0,-0.015625,0.02148438,0,0.0008544922,-0.004272461,0.006591797,0,0,0.006591797,0,4.077,0,0,0,0,nan,2,0.941,0,0,0,0,0,0,0,0,0,1,2,1
605.479,0.001009,-0.00390625,0,0.001953125,0.0234375,-0.0078125,9.820312,-0.001953125,0,0,-0.015625,0.02148438,0,0.0008544922,-0.004272461,0.006591797,0,0,0.006591797,0,4.077,0,0,0,0,nan,2,0.951,0,0,0,0,0,0,0,0,0,1,2,1
605.489,0.001009,0,0,0,0.03125,-0.03125,9.828125,0,0,0,-0.015625,0.02148438,0,0.0008544922,-0.004272461,0.006591797,0,0,0.006591797,0,4.077,0,0,0,0,nan,2,0.961,0,0,0,0,0,0,0,0,0,1,2,1
605.5,0.001009,0,0,-0.001953125,0.03125,-0.046875,9.820312,0,0,0,-0.015625,0.02148438,0,0.0008544922,-0.004272461,0.006591797,0,0,0.006591797,0,4.077,0,0,0,0,nan,2,0.971,0,0,0,0,0,0,0,0,0,1,2,1
605.509,0.001011,0,0.00390625,0,0.015625,0,9.8125,0,0,0,-0.015625,0.02148438,0,0.0008544922,-0.004272461,0.006591797,0,0,0.006591797,0,4.077,0,0,0,0,nan,2,0.98,0,0,0,0,0,0,0,0,0,1,2,1
605.519,0.001011,-0.001953125,0.001953125,0.001953125,0.0390625,-0.0546875,9.875,0,0,0,-0.015625,0.02148438,0,0.0007324219,-0.004150391,0.006591797,0,0,0.006591797,0,4.077,0,0,0,0,nan,2,0.99,0,0,0,0,0,0,0,0,0,1,2,1
605.529,0.00102,0.001953125,0,0,0.046875,-0.0546875,9.898438,0,0,0,-0.015625,0.02148438,0,0.0007324219,-0.004150391,0.006591797,0,0,0.006591797,0,4.077,0,0,0,0,nan,2,1,0,0,0,0,0,0,0,0,0,1,2,1
