t,dt_s,gyro_x,gyro_y,gyro_z,acc_x,acc_y,acc_z,rates.x,rates.y,rates.z,ratesTarget.x,ratesTarget.y,ratesTarget.z,attitude.x,attitude.y,attitude.z,attitudeTarget.x,attitudeTarget.y,attitudeTarget.z,thrustTarget,battery_v,rc_roll,rc_pitch,rc_yaw,rc_throttle,rc_mode,flight_mode,rc_age_s,armed,fault_mask,motor_rl,motor_rr,motor_fr,motor_fl,rate_i_x,rate_i_y,rate_i_z,mix_scale,control_source,accel_correction_confidence
382.299,0.001024,-0.001953125,0.001953125,0.001953125,-0.421875,-0.0390625,9.835938,-0.001953125,0,0.001953125,0,0,0,-0.002807617,0.03942871,-0.001098633,0,0,-0.001098633,0,4.077,0,0,0,0,nan,2,-1,0,0,0,0,0,0,0,0,0,1,1,1
382.309,0.001021,-0.001953125,0.00390625,-0.00390625,-0.3984375,-0.046875,9.851562,-0.001953125,0.001953125,0,0,0,0,-0.002929688,0.03942871,-0.0009765625,0,0,-0.0009765625,0,4.077,0,0,0,0,nan,2,0.009,0,0,0,0,0,0,0,0,0,1,2,1
382.319,0.001034,0,-0.001953125,0,-0.390625,-0.03125,9.820312,0,0,0,0,0,0,-0.002929688,0.03942871,-0.001098633,0,0,-0.001098633,0,4.077,0,0,0,0,nan,2,0.019,0,0,0,0,0,0,0,0,0,1,2,1
382.329,0.001011,-0.001953125,0.001953125,0.001953125,-0.3828125,-0.0234375,9.867188,0,0,0,0,0,0,-0.002929688,0.03942871,-0.001098633,0,0,-0.001098633,0,4.077,0,0,0,0,nan,2,0.029,0,0,0,0,0,0,0,0,0,1,2,1
382.339,0.001012,-0.001953125,-0.001953125,0,-0.3359375,-0.0234375,9.84375,0,0,0,0,0,0,-0.002929688,0.03942871,-0.0009765625,0,0,-0.0009765625,0,4.077,0,0,0,0,nan,2,0.039,0,0,0,0,0,0,0,0,0,1,2,1
382.349,0.001011,0,-0.00390625,0,-0.4140625,-0.0390625,9.84375,0,0,-0.001953125,0,0,0,-0.002929688,0.03942871,-0.001098633,0,0,-0.001098633,0,4.077,0,0,0,0,nan,2,0.049,0,0,0,0,0,0,0,0,0,1,2,1
382.359,0.001012,-0.001953125,0,0,-0.359375,-0.0078125,9.882812,-0.001953125,-0.001953125,0,0,0,0,-0.002929688,0.03942871,-0.001098633,0,0,-0.001098633,0,4.077,0,0,0,0,nan,2,0.06,0,0,0,0,0,0,0,0,0,1,2,1
382.37,0.001011,0,0.001953125,0,-0.3515625,0.0078125,9.867188,0,0,0,0,0,0,-0.002929688,0.03942871,-0.001098633,0,0,-0.001098633,0,4.077,0,0,0,0,nan,2,0.07,0,0,0,0,0,0,0,0,0,1,2,1
382.379,0.001004,-0.001953125,0,0.001953125,-0.34375,-0.0390625,9.8125,0,0,0,0,0,0,-0.002929688,0.03942871,-0.001098633,0,0,-0.001098633,0,4.077,0,0,0,0,nan,2,0.079,0,0,0,0,0,0,0,0,0,1,2,1
382.389,0.001005,0,0,0.001953125,-0.3984375,0,9.804688,0,0,0,0,0,0,-0.002929688,0.03942871,-0.001098633,0,0,-0.001098633,0,4.077,0,0,0,0,nan,2,0.089,0,0,0,0,0,0,0,0,0,1,2,1
382.399,0.001006,0.001953125,0,-0.001953125,-0.359375,-0.0390625,9.828125,0,-0.001953125,0,0,0,0,-0.002929688,0.03942871,-0.001098633,0,0,-0.001098633,0,4.077,0,0,0,0,nan,2,0.099,0,0,0,0,0,0,0,0,0,1,2,1
382.409,0.00101,-0.001953125,0,-0.001953125,-0.3671875,-0.0234375,9.851562,0,0,0,0,0,0,-0.002929688,0.03930664,-0.001098633,0,0,-0.001098633,0,4.077,0,0,0,0,nan,2,0.109,0,0,0,0,0,0,0,0,0,1,2,1
382.419,0.001007,-0.00390625,0,0.001953125,-0.390625,-0.0234375,9.859375,-0.001953125,0.001953125,0,0,0,0,-0.002929688,0.03942871,-0.001098633,0,0,-0.001098633,0,4.077,0,0,0,0,nan,2,0.119,0,0,0,0,0,0,0,0,0,1,2,1
382.429,0.001004,0,-0.001953125,0,-0.375,-0.0546875,9.851562,0,0,0,0,0,0,-0.002929688,0.03942871,-0.001098633,0,0,-0.001098633,0,4.077,0,0,0,0,nan,2,0.129,0,0,0,0,0,0,0,0,0,1,2,1
382.439,0.001004,-0.001953125,-0.001953125,0,-0.3984375,-0.03125,9.835938,-0.001953125,-0.001953125,0,0,0,0,-0.002929688,0.03942871,-0.001098633,0,0,-0.001098633,0,4.077,0,0,0,0,nan,2,0.139,0,0,0,0,0,0,0,0,0,1,2,1
382.449,0.001004,0,0,0.001953125,-0.359375,-0.0234375,9.828125,0,0,0,0,0,0,-0.002929688,0.03942871,-0.001098633,0,0,-0.001098633,0,4.077,0,0,0,0,nan,2,0.149,0,0,0,0,0,0,0,0,0,1,2,1
382.459,0.001004,-0.001953125,0.001953125,0.00390625,-0.3671875,-0.0078125,9.867188,-0.001953125,0,0,0,0,0,-0.002929688,0.03942871,-0.001098633,0,0,-0.001098633,0,4.077,0,0,0,0,nan,2,0.16,0,0,0,0,0,0,0,0,0,1,2,1
382.47,0.001004,-0.001953125,0,0,-0.3984375,-0.0078125,9.867188,0,0,0,0,0,0,-0.002929688,0.03942871,-0.001098633,0,0,-0.001098633,0,4.077,0,0,0,0,nan,2,0.17,0,0,0,0,0,0,0,0,0,1,2,1
382.479,0.001016,0,0.001953125,0,-0.421875,-0.0390625,9.90625,0,0,0,0,0,0,-0.002929688,0.03942871,-0.001098633,0,0,-0.001098633,0,4.077,0,0,0,0,nan,2,0.179,0,0,0,0,0,0,0,0,0,1,2,1
382.489,0.001015,-0.001953125,0,0.001953125,-0.3828125,-0.046875,9.84375,-0.001953125,0,0.001953125,0,0,0,-0.002929688,0.03942871,-0.0009765625,0,0,-0.0009765625,0,4.077,0,0,0,0,nan,2,0.189,0,0,0,0,0,0,0,0,0,1,2,1
382.499,0.000994,0.001953125,-0.00390625,0,-0.390625,-0.0390625,9.898438,0.001953125,0,0,0,0,0,-0.002929688,0.03942871,-0.0009765625,0,0,-0.0009765625,0,4.077,0,0,0,0,nan,2,0.199,0,0,0,0,0,0,0,0,0,1,2,1
382.509,0.001016,0,0,0,-0.390625,-0.0078125,9.820312,0,-0.001953125,0,0,0,0,-0.002929688,0.03942871,-0.0009765625,0,0,-0.0009765625,0,4.077,0,0,0,0,nan,2,0.209,0,0,0,0,0,0,0,0,0,1,2,1
382.519,0.001097,0.001953125,0.001953125,-0.001953125,-0.40625,-0.078125,9.851562,0,0,0,0,0,0,-0.002929688,0.03942871,-0.0009765625,0,0,-0.0009765625,0,4.077,0,0,0,0,nan,2,0.219,1,0,0.1000061,0.1000061,0.1000061,0.1000061,0,0,0,1,2,1
382.529,0.001031,0.005859375,-0.00390625,0,-0.375,-0.0078125,9.898438,0.00390625,0.001953125,0.001953125,0,0,0,-0.002929688,0.03942871,-0.0009765625,0,0,-0.0009765625,0,4.077,0,0,0,0,nan,2,0.229,1,0,0.1000061,0.1000061,0.1000061,0.1000061,0,0,0,1,2,0.7619048
382.539,0.001016,0.001953125,-0.001953125,-0.00390625,-0.375,0.0234375,9.828125,0.001953125,-0.001953125,0,0,0,0,-0.002929688,0.03942871,-0.0009765625,0,0,-0.0009765625,0,4.077,0,0,0,0,nan,2,0.239,1,0,0.1000061,0.1000061,0.1000061,0.1000061,0,0,0,1,2,0.8888889
382.549,0.001016,-0.001953125,-0.001953125,-0.001953125,-0.0703125,0.1796875,9.992188,0.00390625,0.001953125,-0.001953125,0,0,0,-0.002929688,0.03942871,-0.0009765625,0,0,-0.0009765625,0,4.077,0,0,0,0,nan,2,0.249,1,0,0.1000061,0.1000061,0.1000061,0.1000061,0,0,0,1,2,0.6031746
382.559,0.001013,-0.005859375,-0.0234375,0.009765625,-1.117188,0.0234375,10.39844,-0.00390625,-0.005859375,0.001953125,0,0,0,-0.002929688,0.03942871,-0.0009765625,0,0,-0.0009765625,0,4.077,0,0,0,0,nan,2,0.26,1,0,0.1000061,0.1000061,0.1000061,0.1000061,0,0,0,1,2,0
382.57,0.001016,0.02929688,0.001953125,-0.02539062,0.609375,-0.3828125,10.02344,0,-0.0078125,0,0,0,0,-0.002929688,0.03942871,-0.0009765625,0,0,-0.0009765625,0,4.077,0,0,0,0,nan,2,0.27,1,0,0.1000061,0.1000061,0.1000061,0.1000061,0,0,0,1,2,0.4444444
382.579,0.001025,-0.01953125,-0.0390625,0.01367188,0.296875,-1.40625,9.398438,0.001953125,0.001953125,0,0,0,0,-0.002929688,0.03942871,-0.0009765625,0,0,-0.0009765625,0,4.077,0,0,0,0,nan,2,0.279,1,0,0.1000061,0.1000061,0.1000061,0.1000061,0,0,0,1,2,0.3333333
382.589,0.001012,-0.015625,-0.04492188,0.01171875,0.4296875,-2.554688,8.570312,-0.0078125,-0.0078125,-0.001953125,0,0,0,-0.002807617,0.03930664,-0.0009765625,0,0,-0.0009765625,0,4.077,0,0,0,0,nan,2,0.289,1,0,0.1000061,0.1000061,0.1000061,0.1000061,0,0,0,1,2,0
382.599,0.001012,0.0703125,-0.01171875,-0.01757812,0.3046875,3.625,9.054688,0.01757812,0.005859375,-0.001953125,0,0,0,-0.002807617,0.03942871,-0.001098633,0,0,-0.0009765625,0,4.077,0,0,0,0,nan,2,0.299,1,0,0.1000061,0.1000061,0.1000061,0.1000061,0,0,0,1,2,0.8888889
382.609,0.001006,-0.01367188,0.06835938,0.01367188,-3.507812,-0.4765625,11.58594,-0.01171875,0.00390625,0.00390625,0,0,0,-0.002685547,0.03930664,-0.001098633,0,0,-0.0009765625,0,4.077,0,0,0,0,nan,2,0.309,1,0,0.1000061,0.1000061,0.1000061,0.1000061,0,0,0,1,2,0
382.619,0.001003,0.04492188,0.015625,-0.009765625,-0.4609375,1.914062,11.88281,0.001953125,0,0,0,0,0,-0.002807617,0.03930664,-0.0009765625,0,0,-0.0009765625,0,4.077,0,0,0,0,nan,2,0.319,1,0,0.1000061,0.1000061,0.1000061,0.1000061,0,0,0,1,2,0
382.629,0.001009,0.05078125,0.015625,-0.01171875,-0.671875,3.15625,11.90625,0,0,-0.005859375,0,0,0,-0.002807617,0.03930664,-0.001098633,0,0,-0.0009765625,0,4.077,0,0,0,0,nan,2,0.329,1,0,0.1000061,0.1000061,0.1000061,0.1000061,0,0,0,1,2,0
382.639,0.000971,-0.05078125,0.01757812,0.009765625,-2.484375,-5.929688,6.890625,-0.01171875,0.005859375,-0.001953125,0,0,0,-0.002929688,0.03942871,-0.001098633,0,0,-0.0009765625,0,4.077,0,0,0,0,nan,2,0.339,1,0,0.1000061,0.1000061,0.1000061,0.1000061,0,0,0,1,2,0.1587302
382.649,0.001009,-0.03320312,0.015625,-0.02148438,-2.289062,4.242188,4.609375,-0.005859375,0,-0.00390625,0,0,0,-0.002929688,0.03942871,-0.001098633,0,0,-0.0009765625,0,4.077,0,0,0,0,nan,2,0.349,1,0,0.1000061,0.1000061,0.1000061,0.1000061,0,0,0,1,2,0
382.659,0.001009,0.0390625,-0.04882812,-0.005859375,-1.125,0.2578125,5.429688,0.009765625,-0.015625,0.001953125,0,0,0,-0.002929688,0.03930664,-0.001098633,0,0,-0.0009765625,0,4.077,0,0,0,0,nan,2,0.36,1,0,0.1000061,0.1000061,0.1000061,0.1000061,0,0,0,1,2,0
382.67,0.001005,-0.01757812,-0.04101562,0.009765625,-0.4375,-1.101562,13.3125,-0.009765625,-0.01171875,0.00390625,0,0,0,-0.002807617,0.03918457,-0.001098633,0,0,-0.0009765625,0,4.077,0,0,0,0,nan,2,0.37,1,0,0.1000061,0.1000061,0.1000061,0.1000061,0,0,0,1,2,0
382.679,0.001011,-0.0078125,-0.01367188,0.0546875,0.0234375,1.4375,4.820312,-0.01953125,-0.009765625,0.03710938,0,0,0,-0.002929688,0.0390625,-0.0008544922,0,0,-0.0009765625,0,4.077,0,0,0,0,nan,2,0.379,1,0,0.1000061,0.1000061,0.1000061,0.1000061,0,0,0,1,2,0
382.689,0.001011,-0.00390625,0.01367188,0.109375,-0.203125,0.46875,9.8125,-0.01367188,-0.00390625,0.08984375,0,0,0,-0.003051758,0.03894043,-0.0002441406,0,0,-0.0009765625,0,4.077,0,0,0,0,nan,2,0.389,1,0,0.1000061,0.1000061,0.1000061,0.1000061,0,0,0,1,2,0.9047619
382.699,0.001011,-0.005859375,-0.0625,0.06835938,0.171875,-1.304688,14.39062,-0.009765625,-0.009765625,0.08984375,0,0,0,-0.003173828,0.0390625,0.0007324219,0,0,-0.0009765625,0,4.077,0,0,0,0,nan,2,0.399,1,0,0.1000061,0.1000061,0.1000061,0.1000061,0,0,0,1,2,0
382.709,0.001023,0.005859375,-0.0390625,0.03125,0.125,1.15625,9.765625,0.015625,-0.04101562,0.05078125,0,0,0,-0.003173828,0.03869629,0.001464844,0,0,-0.0009765625,0,4.077,0,0,0,0,nan,2,0.409,1,0,0.1000061,0.1000061,0.1000061,0.1000061,0,0,0,1,2,0.9365079
382.719,0.001006,-0.02539062,-0.04101562,-0.0234375,-0.4921875,-0.625,12.85938,-0.0234375,-0.06835938,-0.001953125,0,0,0,-0.003173828,0.03808594,0.001708984,0,0,-0.0009765625,0,4.077,0,0,0,0,nan,2,0.419,1,0,0.1000061,0.1000061,0.1000061,0.1000061,0,0,0,1,2,0
382.729,0.001039,-0.0078125,-0.1347656,-0.03320312,0.3359375,0.703125,4.703125,0.01953125,-0.1113281,-0.0234375,0,0,0,-0.003051758,0.03710938,0.001586914,0,0,-0.0009765625,0,4.077,0,0,0,0,nan,2,0.429,1,0,0.1000061,0.1000061,0.1000061,0.1000061,0,0,0,1,2,0
382.739,0.000996,0.0234375,-0.1777344,-0.0546875,-0.59375,0.5390625,11.51562,-0.01953125,-0.1464844,-0.04492188,0,0,0,-0.003173828,0.0357666,0.001220703,0,0,-0.0009765625,0,4.077,0,0,0,0,nan,2,0.439,1,0,0.1000061,0.1000061,0.1000061,0.1000061,0,0,0,1,2,0
382.749,0.001018,0.02148438,-0.1660156,-0.05273438,-0.1171875,-0.1796875,11.0625,0.02929688,-0.1875,-0.04882812,0,0,0,-0.003051758,0.03393555,0.0007324219,0,0,-0.0009765625,0,4.077,0,0,0,0,nan,2,0.449,1,0,0.1000061,0.1000061,0.1000061,0.1000061,0,0,0,1,2,0
382.759,0.001012,0.04882812,-0.2363281,-0.0078125,-0.9453125,-0.25,10.63281,0.0234375,-0.2148438,-0.02539062,0,0,0,-0.002929688,0.03186035,0.0002441406,0,0,-0.0009765625,0,4.077,0,0,0,0,nan,2,0.46,1,0,0.1000061,0.1000061,0.1000061,0.1000061,0,0,0,1,2,0
382.77,0.001011,0.01953125,-0.1621094,0,-0.5078125,-0.703125,9.453125,0.01757812,-0.1816406,-0.0078125,0,0,0,-0.002807617,0.02990723,0.0001220703,0,0,-0.0009765625,0,4.077,0,0,0,0,nan,2,0.47,1,0,0.1000061,0.1000061,0.1000061,0.1000061,0,0,0,1,2,0.3333333
382.779,0.001012,0.04492188,-0.140625,0.08398438,-0.203125,-0.4140625,10.4375,0.01171875,-0.1582031,0.046875,0,0,0,-0.002685547,0.02844238,0.0003662109,0,0,-0.0009765625,0,4.077,0,0,0,0,nan,2,0.479,1,0,0.1000061,0.1000061,0.1000061,0.1000061,0,0,0,1,2,0
382.789,0.001009,0.005859375,-0.1679688,0.1152344,-0.53125,-0.0234375,8.492188,0.01757812,-0.1816406,0.09375,0,0,0,-0.002441406,0.0267334,0.001098633,0,0,-0.0009765625,0,4.077,0,0,0,0,nan,2,0.489,1,0,0.1000061,0.1000061,0.1000061,0.1000061,0,0,0,1,2,0
382.799,0.001007,0.015625,-0.1933594,0.078125,-0.0703125,0.5078125,8.507812,0.03515625,-0.2050781,0.09960938,0,0,0,-0.002075195,0.0246582,0.002197266,0,0,-0.0009765625,0,4.077,0,0,0,0,nan,2,0.499,1,0,0.1000061,0.1000061,0.1000061,0.1000061,0,0,0,1,2,0
382.809,0.001006,-0.009765625,-0.1894531,0.02734375,0.1796875,-0.609375,10.86719,0.005859375,-0.1933594,0.0546875,0,0,0,-0.001953125,0.02258301,0.002929688,0,0,-0.0009765625,0,4.077,0,0,0,0,nan,2,0.509,1,0,0.1000061,0.1000061,0.1000061,0.1000061,0,0,0,1,2,0
382.819,0.001013,0.03125,-0.1621094,-0.009765625,-0.8046875,0.0234375,10.96875,0.0078125,-0.171875,0.005859375,0,0,0,-0.001953125,0.02075195,0.003173828,0,0,-0.0009765625,0,4.077,0,0,0,0,nan,2,0.519,1,0,0.1000061,0.1000061,0.1000061,0.1000061,0,0,0,1,2,0
382.829,0.001009,0.015625,-0.140625,-0.009765625,-0.59375,1.710938,8.875,0.02539062,-0.1621094,-0.009765625,0,0,0,-0.001708984,0.01904297,0.003173828,0,0,-0.0009765625,0,4.077,0,0,0,0,nan,2,0.529,1,0,0.1000061,0.1000061,0.1000061,0.1000061,0,0,0,1,2,0
382.839,0.001017,0.02539062,-0.1347656,0.009765625,-1.367188,2.40625,10.67969,0.03125,-0.1484375,0.001953125,0.0078125,-0.1054688,0,-0.001464844,0.0177002,0.003173828,0,0,-0.0009765625,0.1421204,4.077,0,0,0,0.09997559,nan,2,0,1,0,0.144165,0.1450806,0.1417542,0.1374207,0,0,0,1,2,0
382.849,0.001004,-0.02734375,-0.09765625,0.04101562,-0.671875,-1.671875,14.39844,-0.005859375,-0.1015625,0.02929688,0.0078125,-0.09765625,0,-0.001220703,0.01623535,0.003295898,0,0,-0.0009765625,0.1421204,4.077,0,0,0,0.09997559,nan,2,0.011,1,0,0.1741028,0.1037598,0.1694336,0.1211243,0,0,0,1,2,0
382.859,0.001014,-0.06445312,-0.0703125,0.04296875,-1.039062,-1.15625,14.42969,-0.03710938,-0.07421875,0.0390625,0.0078125,-0.09375,0,-0.001342773,0.01550293,0.003662109,0,0,-0.0009765625,0.1421204,4.077,0,0,0,0.09997559,nan,2,0.02,1,0,0.1700745,0.1070557,0.1630554,0.1282349,0,0,0,1,2,0
382.87,0.001015,0.01171875,-0.08203125,0.02929688,0.828125,0.640625,2.507812,0.015625,-0.08203125,0.02929688,0.0078125,-0.08789062,0,-0.001464844,0.01464844,0.00402832,0,0,-0.0009765625,0.1421204,4.077,0,0,0,0.09997559,nan,2,0.031,1,0,0.1476746,0.1384583,0.1519165,0.1304016,0,0,0,1,2,0
382.879,0.001001,-0.00390625,-0.1308594,0.08984375,0.9453125,0.34375,14.875,-0.001953125,-0.1132812,0.06640625,0.0078125,-0.08203125,0,-0.001342773,0.01367188,0.004394531,0,0,-0.0009765625,0.1421204,4.077,0,0,0,0.09997559,nan,2,0,1,0,0.2105713,0.08331299,0.1981812,0.07635498,0,0,0,1,2,0
382.889,0.00101,0.005859375,-0.07226562,0.0625,-0.421875,3.164062,7.914062,0.00390625,-0.07421875,0.06640625,0.0078125,-0.07617188,0,-0.001342773,0.01269531,0.005126953,0,0,-0.0009765625,0.1421204,4.077,0,0,0,0.09997559,nan,2,0.01,1,0,0.1568909,0.1212158,0.1635132,0.12677,0,0,0,1,2,0
382.899,0.000973,0.01953125,-0.08203125,0.03515625,0.8046875,-3.617188,5.726562,0,-0.1015625,0.0390625,0.0078125,-0.0703125,0,-0.001342773,0.01184082,0.005615234,0,0,-0.0009765625,0.1421204,4.077,0,0,0,0.09997559,nan,2,0.02,1,0,0.135376,0.1551514,0.131073,0.1468201,0,0,0,1,2,0
382.909,0.001014,0.04882812,-0.1328125,0.04101562,0.40625,4.367188,7.921875,0.03320312,-0.1230469,0.0390625,0.0078125,-0.06445312,0,-0.001220703,0.01062012,0.005981445,0,0,-0.0009765625,0.1421204,4.077,0,0,0,0.09997559,nan,2,0.03,1,0,0.1598206,0.1375732,0.1558838,0.1151428,0,0,0,1,2,0
382.919,0.000992,0.0390625,-0.1347656,0.02929688,1.554688,1.828125,12.25781,0.009765625,-0.1191406,0.03515625,0.005859375,-0.05664062,0,-0.001098633,0.009521484,0.006347656,0,0,-0.0009765625,0.1421204,4.077,0,0,0,0.09997559,nan,2,0.007,1,0,0.1575623,0.1389465,0.1458435,0.1260986,0,0,0,1,2,0
382.929,0.001008,-0.001953125,-0.09179688,0.01757812,1.515625,-3.40625,8.09375,0.005859375,-0.08984375,0.02539062,0.005859375,-0.05078125,0,-0.0008544922,0.008422852,0.006591797,0,0,-0.0009765625,0.1421204,4.077,0,0,0,0.09997559,nan,2,0.017,1,0,0.1406555,0.1409607,0.1390991,0.1477051,0,0,0,1,2,0
382.94,0.000999,0.03515625,-0.1582031,0.03710938,-0.953125,1.351562,9.59375,-0.01171875,-0.1171875,0.02929688,0.005859375,-0.04492188,0,-0.0009765625,0.007446289,0.006835938,0,0,-0.0009765625,0.1421204,4.077,0,0,0,0.09997559,nan,2,0.027,1,0,0.1731873,0.1307678,0.1523743,0.1120911,0,0,0,1,2,0.5079365
382.949,0.000973,-0.02539062,-0.09375,0.04101562,0.640625,7.304688,11.01562,0,-0.1269531,0.04101562,0.005859375,-0.03710938,0,-0.0008544922,0.005981445,0.007202148,0,0,-0.0009765625,0.1421204,4.077,0,0,0,0.09997559,nan,2,0.037,1,0,0.1693726,0.1243286,0.1542664,0.1204529,0,0,0,1,2,0
382.959,0.001026,-0.0390625,-0.125,0.03320312,0.9453125,1.15625,15.92188,-0.02539062,-0.1074219,0.03710938,0.005859375,-0.03125,0,-0.001098633,0.005126953,0.007568359,0,0,-0.0009765625,0.1421204,4.077,0,0,0,0.09997559,nan,2,0,1,0,0.1590271,0.1357727,0.140686,0.1329041,0,0,0,1,2,0
382.97,0.00101,0.01367188,-0.140625,0.06640625,-0.828125,-6.171875,7.085938,0.02929688,-0.1347656,0.046875,0.005859375,-0.02148438,0,-0.0009765625,0.003662109,0.00793457,0,0,-0.0009765625,0.1421204,4.077,0,0,0,0.09997559,nan,2,0.011,1,0,0.1833496,0.1190796,0.1738281,0.09216309,0,0.0009765625,0,1,2,0.2222222
382.979,0.00101,-0.0234375,-0.07617188,0.01953125,1.539062,-0.8203125,13.61719,-0.02148438,-0.08203125,0.0390625,0.005859375,-0.015625,0,-0.001098633,0.002685547,0.008422852,0,0,-0.0009765625,0.1421204,4.077,0,0,0,0.09997559,nan,2,0.02,1,0,0.144165,0.1407471,0.1372681,0.1462402,0,0.0009765625,0,1,2,0
382.989,0.001004,0.001953125,-0.1289062,0.01757812,-2.484375,-3.351562,12.03906,0.02734375,-0.1210938,0.0234375,0.005859375,-0.009765625,0,-0.0009765625,0.001586914,0.008789062,0,0,-0.0009765625,0.1421204,4.077,0,0,0,0.09997559,nan,2,0.03,1,0,0.1366577,0.1680908,0.1208801,0.1427917,0,0.0009765625,0,1,2,0
382.999,0.0009860001,-0.02148438,-0.140625,0.03320312,2.078125,1.046875,13.125,-0.03710938,-0.1230469,0.02734375,0.0078125,-0.001953125,0,-0.001220703,0.0003662109,0.008911133,0,0,-0.0009765625,0.1421204,4.077,0,0,0,0.09997559,nan,2,0.008,1,0,0.1747742,0.1306152,0.1417542,0.1213074,0,0.0009765625,0,1,2,0
383.009,0.001005,0.001953125,-0.1582031,-0.009765625,0.34375,1.164062,12,0.03320312,-0.1347656,0.001953125,0.005859375,0.005859375,0,-0.001098633,-0.0008544922,0.009155273,0,0,-0.0009765625,0.1421204,4.077,0,0,0,0.09997559,nan,2,0.018,1,0,0.1255798,0.1825562,0.1123657,0.1479187,0,0.0009765625,0,1,2,0
383.019,0.001002,-0.02734375,-0.03125,0.001953125,0.859375,-3.257812,16.42188,-0.04101562,-0.09179688,-0.001953125,0.0078125,0.01171875,0,-0.001220703,-0.002075195,0.009155273,0,0,-0.0009765625,0.1421204,4.077,0,0,0,0.09997559,nan,2,0.028,1,0,0.1523132,0.1376038,0.1319885,0.1465149,0,0.0009765625,0,1,2,0
383.029,0.001008,-0.001953125,-0.01757812,-0.02539062,0.9296875,-2.015625,14.01562,0.005859375,-0.06445312,-0.03320312,0.0078125,0.01757812,0,-0.001342773,-0.002807617,0.008911133,0,0,-0.0009765625,0.1421204,4.077,0,0,0,0.09997559,nan,2,0.038,1,0,0.1119995,0.1764526,0.1123657,0.1676025,0,0.0009765625,0,1,2,0
383.039,0.001009,-0.0625,-0.0546875,-0.02539062,2.257812,-2.710938,6.382812,-0.0546875,-0.03710938,-0.02148438,0.009765625,0.01953125,0,-0.001708984,-0.003173828,0.008666992,0,0,-0.0009765625,0.1421204,4.077,0,0,0,0.09997559,nan,2,0.048,1,0,0.1491394,0.144043,0.1239929,0.1512451,0,0.0009765625,0,1,2,0
383.049,0.001017,-0.0078125,0.009765625,-0.015625,-0.328125,-2.632812,15.57031,-0.001953125,0.009765625,-0.02148438,0.01171875,0.01953125,0,-0.001953125,-0.003295898,0.008422852,0,0,-0.0009765625,0.1421204,4.076,0,0,0,0.09997559,nan,2,0.003,1,0,0.1357727,0.1457214,0.1442261,0.1427002,0,0.0009765625,0,1,2,0
383.059,0.00101,0.01953125,-0.06640625,-0.02734375,-1.734375,5.859375,10.90625,-0.0078125,-0.02929688,-0.02148438,0.01171875,0.01953125,0,-0.002075195,-0.003295898,0.008178711,0,0,-0.0009765625,0.1421204,4.076,0,0,0,0.09997559,nan,2,0.014,1,0,0.1447144,0.1591492,0.1243286,0.1402283,0,0.0009765625,0,1,2,0
383.07,0.00101,-0.01953125,0.0546875,-0.001953125,0.5078125,7.210938,12.33594,0.01757812,0.01171875,-0.0078125,0.01171875,0.02148438,0,-0.001831055,-0.003417969,0.008056641,0,0,-0.0009765625,0.1421204,4.076,0,0,0,0.09997559,nan,2,0.024,1,0,0.141449,0.1364136,0.1472778,0.14328,0,0.0009765625,0,1,2,0
383.079,0.001007,-0.046875,-0.015625,0.01757812,1.367188,-0.328125,3.882812,-0.0234375,-0.00390625,0.01367188,0.01171875,0.01953125,0,-0.001953125,-0.003295898,0.008178711,0,0,-0.0009765625,0.1421204,4.076,0,0,0,0.09997559,nan,2,0.033,1,0,0.1749573,0.1204224,0.153717,0.1193237,0,0.0009765625,0,1,2,0
383.089,0.001025,-0.1152344,-0.005859375,0.03320312,1.96875,-1.15625,6.976562,-0.03515625,0,0.02539062,0.01367188,0.01953125,0,-0.002197266,-0.003173828,0.008422852,0,0,-0.0009765625,0.1421204,4.076,0,0,0,0.09997559,nan,2,0.001,1,0,0.1711731,0.1212463,0.1491089,0.1268921,0,0.0009765625,0,1,2,0
383.099,0.001007,0.05859375,0.015625,0.01953125,1.875,0.15625,2.6875,-0.0234375,0.03320312,0.0234375,0.01757812,0.01757812,0,-0.002807617,-0.002929688,0.008666992,0,0,-0.0009765625,0.1421204,4.076,0,0,0,0.09997559,nan,2,0.011,1,0,0.1384888,0.144104,0.1497498,0.1360474,0,0.0009765625,0,1,2,0
383.109,0.001011,0.05078125,0.015625,0.02539062,1.140625,-1.976562,3.203125,-0.01367188,0.01953125,0.01757812,0.01757812,0.01757812,0,-0.003051758,-0.002807617,0.008789062,0,0,-0.0009765625,0.1421204,4.076,0,0,0,0.09997559,nan,2,0.021,1,0,0.1438904,0.1401062,0.1447754,0.139679,0,0.0009765625,0,1,2,0
383.119,0.001014,0.03125,-0.015625,0.00390625,-0.84375,-4.109375,5.570312,0.015625,-0.01171875,0.009765625,0.01953125,0.01757812,0,-0.003173828,-0.002807617,0.009033203,0,0,-0.0009765625,0.1421204,4.076,0,0,0,0.09997559,nan,2,0.031,1,0,0.1379395,0.1563721,0.1354065,0.1386719,0,0.0009765625,0,1,2,0
383.129,0.001007,-0.01367188,-0.04882812,0.02539062,2.515625,1.46875,10.04688,0.03125,-0.03125,0.03320312,0.01757812,0.01757812,0,-0.002929688,-0.003051758,0.009277344,0,0,-0.0009765625,0.1421204,4.076,0,0,0,0.09997559,nan,2,0.041,1,0,0.1707458,0.1292114,0.1594849,0.1089783,0,0.0009765625,0,1,2,0
383.139,0.001017,-0.06054688,0,0.05859375,-0.390625,5.09375,11.69531,-0.02148438,-0.01171875,0.05273438,0.01757812,0.01757812,0,-0.002929688,-0.003051758,0.009643555,0,0,-0.0009765625,0.1421204,4.076,0,0,0,0.09997559,nan,2,0.001,1,0,0.190918,0.103302,0.1677246,0.1064758,0,0.0009765625,0,1,2,0
383.149,0.001007,0.1191406,-0.015625,0.03125,0.828125,7.148438,9.78125,0.0234375,-0.001953125,0.0390625,0.01953125,0.01953125,0,-0.003051758,-0.003051758,0.01013184,0,0,-0.0009765625,0.1421204,4.076,0,0,0,0.09997559,nan,2,0.011,1,0,0.1309509,0.1570129,0.1418762,0.1385803,0,0.0009765625,0,1,2,0
383.159,0.001007,0.1132812,-0.01367188,-0.01757812,0.4921875,1.484375,14.71094,0.05859375,-0.0078125,0,0.01757812,0.01953125,0,-0.002929688,-0.003051758,0.01037598,0,0,-0.0009765625,0.1421204,4.076,0,0,0,0.09997559,nan,2,0.021,1,0,0.09381104,0.1992798,0.1069336,0.168396,0,0.0009765625,0,1,2,0
383.169,0.001021,0.04882812,-0.02734375,0.046875,0.0390625,-3.671875,8.15625,0.0234375,0.005859375,0.02539062,0.015625,0.01757812,0,-0.002685547,-0.002929688,0.01037598,0,0,-0.0009765625,0.1421204,4.076,0,0,0,0.09997559,nan,2,0.03,1,0,0.1881409,0.1033325,0.1821594,0.0947876,0,0.0009765625,0,1,2,0
383.179,0.000985,-0.02148438,-0.04492188,0.07226562,-3.234375,-3.054688,14.69531,-0.015625,-0.0234375,0.06054688,0.015625,0.01757812,0,-0.002685547,-0.003051758,0.01086426,0,0,-0.0009765625,0.1421204,4.076,0,0,0,0.09997559,nan,2,0.04,1,0,0.2041016,0.09686279,0.1744385,0.09301758,0,0.001953125,0,1,2,0
383.189,0.001016,0.046875,-0.015625,0.01953125,-0.3671875,2.132812,15.99219,-0.02929688,0.02539062,0.0390625,0.01757812,0.01757812,0,-0.003051758,-0.002929688,0.01147461,0,0,-0.0009765625,0.1421204,4.076,0,0,0,0.09997559,nan,2,0.051,1,0,0.1262207,0.1569519,0.1243286,0.1609497,0.0009765625,0.001953125,0,1,2,0
383.199,0.001005,-0.07226562,0.001953125,0.01953125,0.1875,-4.710938,8.640625,0.005859375,-0.009765625,0.015625,0.01757812,0.01757812,0,-0.002807617,-0.002929688,0.01171875,0,0,-0.0009765625,0.1421204,4.076,0,0,0,0.09997559,nan,2,0.061,1,0,0.1407166,0.1509094,0.1239014,0.1528931,0.0009765625,0.001953125,0,1,2,0.7460318
383.209,0.001036,0.0390625,0.00390625,0.03125,1.320312,-3.078125,10.25781,0.005859375,-0.00390625,0.01757812,0.01757812,0.01757812,0,-0.003051758,-0.002929688,0.01184082,0,0,-0.0009765625,0.1421204,4.076,0,0,0,0.09997559,nan,2,0.071,1,0,0.1547241,0.1373901,0.15271,0.1236267,0.0009765625,0.001953125,0,1,2,0
383.219,0.001006,0.015625,0.02539062,0,0.9921875,-0.2421875,18.10156,-0.00390625,0.005859375,-0.00390625,0.01757812,0.01757812,0,-0.003051758,-0.002807617,0.01184082,0,0,-0.0009765625,0.1421204,4.076,0,0,0,0.09997559,nan,2,0.081,1,0,0.1268311,0.1602173,0.1200562,0.1613159,0.0009765625,0.001953125,0,1,2,0
383.229,0.001005,-0.06640625,0.02734375,-0.0078125,1.578125,3.328125,17.74219,-0.01171875,-0.005859375,-0.01171875,0.01953125,0.01757812,0,-0.003173828,-0.002807617,0.01171875,0,0,-0.0009765625,0.2263184,4.076,0,0,0,0.2000122,nan,2,0.004,1,0,0.2288513,0.2301941,0.2134399,0.2328186,0.0009765625,0.001953125,0,1,2,0
383.239,0.00101,0.1386719,-0.02734375,0.01757812,-0.6171875,2.976562,12.59375,0.0546875,-0.015625,0.0078125,0.01757812,0.01757812,0,-0.003051758,-0.002929688,0.01171875,0,0,-0.0009765625,0.2263184,4.076,0,0,0,0.2000122,nan,2,0.014,1,0,0.241272,0.2228394,0.2511902,0.1899719,0.0009765625,0.001953125,0,1,2,0
383.249,0.00101,-0.01367188,0.001953125,-0.005859375,-0.2421875,1.53125,5.617188,-0.02148438,-0.00390625,0.005859375,0.01757812,0.01757812,0,-0.003051758,-0.003051758,0.01184082,0,0,-0.0009765625,0.2263184,4.076,0,0,0,0.2000122,nan,2,0.024,1,0,0.2338257,0.2209778,0.2172241,0.2332458,0.0009765625,0.001953125,0,1,2,0
383.259,0.00101,-0.03125,0.0078125,0.001953125,-0.3125,6.023438,13.70312,-0.01367188,0.001953125,0.001953125,0.01757812,0.01757812,0,-0.002929688,-0.003051758,0.01184082,0,0,-0.0009765625,0.2263184,4.076,0,0,0,0.2000122,nan,2,0.034,1,0,0.236908,0.2192383,0.2229614,0.2261353,0.0009765625,0.001953125,0,1,2,0
383.27,0.00101,-0.07226562,-0.03320312,0.01367188,-0.9375,-2.328125,4.929688,-0.01367188,-0.01757812,0.02148438,0.01757812,0.01953125,0,-0.002929688,-0.003173828,0.01196289,0,0,-0.0009765625,0.2263184,4.076,0,0,0,0.2000122,nan,2,0.044,1,0,0.2566528,0.206604,0.2328186,0.2092285,0.0009765625,0.001953125,0,1,2,0
383.279,0.00101,0.0390625,-0.02734375,0.078125,-0.609375,-3.945312,5.25,0.0234375,-0.015625,0.06054688,0.01757812,0.01953125,0,-0.002929688,-0.003295898,0.0123291,0,0,-0.0009765625,0.2263184,4.076,0,0,0,0.2000122,nan,2,0.054,1,0,0.2908325,0.1699524,0.287384,0.1571045,0.0009765625,0.001953125,0,1,2,0
383.289,0.000981,0.005859375,-0.015625,0.04882812,-3.421875,-4.828125,10.21875,-0.005859375,-0.00390625,0.0703125,0.015625,0.01953125,0,-0.002685547,-0.003417969,0.01306152,0,0,-0.0009765625,0.2263184,4.076,0,0,0,0.2000122,nan,2,0.064,1,0,0.2521667,0.2053528,0.2347412,0.2130127,0.0009765625,0.001953125,0,1,2,0
383.299,0.001003,-0.0546875,0.015625,-0.0078125,-1.570312,1.804688,15.83594,-0.015625,0,0.0234375,0.015625,0.02148438,0,-0.002563477,-0.003417969,0.0135498,0,0,-0.0009765625,0.2263184,4.076,0,0,0,0.2000122,nan,2,0.074,1,0,0.1929321,0.2635803,0.1761475,0.2726135,0.0009765625,0.001953125,0,1,2,0
383.309,0.001014,0.001953125,-0.01171875,0.001953125,0.296875,-0.5078125,16.60938,-0.01367188,-0.02929688,-0.005859375,0.01757812,0.02148438,0,-0.002807617,-0.003662109,0.0135498,0,0,-0.0009765625,0.2263184,4.076,0,0,0,0.2000122,nan,2,0.003,1,0,0.2199707,0.2442932,0.2062073,0.2347717,0.0009765625,0.001953125,0,1,2,0
383.319,0.001013,-0.04296875,-0.005859375,0.02539062,-0.203125,4.320312,13.53906,-0.01757812,-0.015625,0.01953125,0.01757812,0.0234375,0,-0.002929688,-0.00390625,0.01367188,0,0,-0.0009765625,0.2263184,4.076,0,0,0,0.2000122,nan,2,0.013,1,0,0.2626953,0.1948242,0.2486267,0.1991272,0.0009765625,0.001953125,0,1,2,0
383.329,0.001013,0.009765625,0.01171875,0.02148438,-0.9765625,0.46875,4.164062,-0.01953125,0.001953125,0.01367188,0.01757812,0.0234375,0,-0.003051758,-0.00402832,0.01379395,0,0,-0.0009765625,0.2263184,4.076,0,0,0,0.2000122,nan,2,0.023,1,0,0.2315063,0.2215576,0.2226257,0.2295837,0.0009765625,0.001953125,0,1,2,0
383.339,0.00101,-0.05078125,0.01757812,0.0078125,1.734375,-6.398438,4.3125,-0.01953125,-0.005859375,0.001953125,0.01757812,0.02539062,0,-0.003051758,-0.004150391,0.01379395,0,0,-0.0009765625,0.2263184,4.076,0,0,0,0.2000122,nan,2,0.033,1,0,0.234314,0.2258606,0.2135925,0.2315063,0.0009765625,0.001953125,0,1,2,0
383.349,0.00101,0.0234375,-0.02539062,0,0.4921875,-5.140625,6.039062,-0.005859375,-0.01171875,0.01367188,0.01953125,0.0234375,0,-0.003173828,-0.00402832,0.01403809,0,0,-0.0009765625,0.2263184,4.076,0,0,0,0.2000122,nan,2,0.043,1,0,0.2384033,0.2272034,0.2230225,0.2166138,0.0009765625,0.001953125,0,1,2,0
383.359,0.001047,0.01757812,-0.03710938,-0.009765625,-0.21875,4.125,13.03125,-0.00390625,-0.009765625,-0.015625,0.01953125,0.0234375,0,-0.003295898,-0.00402832,0.01391602,0,0,-0.0009765625,0.2263184,4.076,0,0,0,0.2000122,nan,2,0.053,1,0,0.2093506,0.2563782,0.1946411,0.2449036,0.0009765625,0.001953125,0,1,2,0
383.369,0.001002,-0.04101562,-0.01953125,-0.001953125,1.46875,-4.351562,4.265625,-0.01757812,0.00390625,0,0.01953125,0.0234375,0,-0.003295898,-0.00390625,0.01379395,0,0,-0.0009765625,0.2263184,4.076,0,0,0,0.2000122,nan,2,0,1,0,0.2443542,0.2165222,0.2250366,0.2193298,0.0009765625,0.001953125,0,1,2,0
383.379,0.00101,0.03710938,0.00390625,-0.02929688,-2.46875,-4.320312,11.3125,0.01757812,0.01367188,-0.02148438,0.01953125,0.0234375,0,-0.003295898,-0.00390625,0.01367188,0,0,-0.0009765625,0.2263184,4.076,0,0,0,0.2000122,nan,2,0.01,1,0,0.2035828,0.2522583,0.204834,0.2445984,0.0009765625,0.001953125,0,1,2,0
383.389,0.000992,-0.04492188,0.0546875,0.0078125,0.578125,3.375,11.125,-0.03515625,0.01953125,0.001953125,0.01953125,0.02148438,0,-0.003417969,-0.003662109,0.0135498,0,0,-0.0009765625,0.2263184,4.076,0,0,0,0.2000122,nan,2,0.02,1,0,0.265564,0.1928406,0.2392578,0.2075806,0.0009765625,0.001953125,0,1,2,0
383.399,0.001014,0.02148438,0.02148438,0.07617188,1.9375,-3.554688,10.41406,0.001953125,0,0.0390625,0.02148438,0.02148438,0,-0.003417969,-0.003540039,0.01379395,0,0,-0.0009765625,0.2263184,4.076,0,0,0,0.2000122,nan,2,0.03,1,0,0.2891846,0.1711731,0.2798462,0.1650696,0.0009765625,0.001953125,0,1,2,0
383.409,0.000996,0.00390625,-0.08203125,0.09960938,-1.554688,8.109375,10.70312,0.02148438,-0.02734375,0.06835938,0.01953125,0.02148438,0,-0.003295898,-0.003662109,0.0144043,0,0,-0.0009765625,0.2263184,4.076,0,0,0,0.2000122,nan,2,0.007,1,0,0.2846069,0.1885376,0.2642212,0.1679077,0.0009765625,0.001953125,0,1,2,0
383.419,0.00103,-0.03320312,-0.0234375,0.08007812,1.21875,-5.617188,5.039062,-0.02539062,0.001953125,0.08398438,0.02148438,0.02148438,0,-0.003540039,-0.003662109,0.01513672,0,0,-0.0009765625,0.2263184,4.076,0,0,0,0.2000122,nan,2,0.017,1,0,0.2697144,0.1884766,0.2516479,0.1954041,0.0009765625,0.001953125,0,1,2,0
383.429,0.001021,0.0078125,-0.0078125,0.0390625,-0.9609375,-0.4765625,14.88281,-0.01757812,0.0078125,0.05273438,0.02148438,0.02148438,0,-0.003662109,-0.003540039,0.01586914,0,0,-0.0009765625,0.2263184,4.076,0,0,0,0.2000122,nan,2,0.027,1,0,0.216217,0.2441711,0.2021484,0.2427673,0.0009765625,0.001953125,0,1,2,0
383.439,0.001024,0.00390625,0.03320312,0.06054688,0.7578125,-2.546875,6.390625,-0.009765625,0.009765625,0.04296875,0.02148438,0.01953125,0,-0.003662109,-0.003417969,0.01635742,0,0,-0.0009765625,0.2263184,4.076,0,0,0,0.2000122,nan,2,0.007,1,0,0.2478333,0.2103577,0.2346191,0.2124329,0.0009765625,0.001953125,0,1,2,0
383.449,0.000981,-0.02929688,0.03515625,0.1640625,1.296875,5.132812,10.39062,0.00390625,0.009765625,0.1015625,0.02148438,0.01953125,0,-0.003662109,-0.003295898,0.01696777,0,0,-0.0009765625,0.2263184,4.076,0,0,0,0.2000122,nan,2,0.017,1,0,0.3310852,0.1248474,0.3239746,0.1253662,0.0009765625,0.001953125,0,1,2,0
383.459,0.00099,-0.009765625,-0.05664062,0.04882812,-2.414062,-5.523438,10.6875,-0.0546875,0.00390625,0.0625,0.02539062,0.01757812,0,-0.004272461,-0.003051758,0.01782227,0,0,-0.0009765625,0.2263184,4.076,0,0,0,0.2000122,nan,2,0.027,1,0,0.2316589,0.2364197,0.204071,0.2330933,0.0009765625,0.001953125,0,1,2,0
383.47,0.001009,-0.02539062,0.02929688,-0.001953125,0.2578125,-1.484375,7.40625,-0.001953125,-0.01171875,0.02148438,0.02734375,0.01757812,0,-0.004516602,-0.003051758,0.01818848,0,0,-0.0009765625,0.2263184,4.076,0,0,0,0.2000122,nan,2,0.037,1,0,0.2002563,0.2640076,0.190155,0.2508545,0.0009765625,0.001953125,0,1,2,0
383.479,0.001013,-0.03515625,-0.0390625,0.015625,0.703125,-1.96875,14.25,-0.01171875,-0.01367188,0.009765625,0.02734375,0.01757812,0,-0.004516602,-0.003051758,0.01831055,0,0,-0.0009765625,0.2263184,4.076,0,0,0,0.2000122,nan,2,0.046,1,0,0.2313232,0.23349,0.2095032,0.2309875,0.0009765625,0.001953125,0,1,2,0
383.489,0.001025,-0.01953125,0.02539062,0.08398438,1.710938,-2.273438,7.148438,-0.01757812,0.001953125,0.04882812,0.02734375,0.01757812,0,-0.004638672,-0.003051758,0.01855469,0,0,-0.0009765625,0.2263184,4.076,0,0,0,0.2000122,nan,2,0.007,1,0,0.2931519,0.1631775,0.2800903,0.1688538,0.0009765625,0.001953125,0,1,2,0
383.499,0.000967,0.001953125,-0.0234375,0.078125,1.671875,4.335938,12.01562,0.005859375,0.00390625,0.0859375,0.02734375,0.01757812,0,-0.004638672,-0.002929688,0.01928711,0,0,-0.0009765625,0.2263184,4.076,0,0,0,0.2000122,nan,2,0.017,1,0,0.2784424,0.1818542,0.2669983,0.177948,0.0009765625,0.001953125,0,1,2,0
383.509,0.001014,0.0859375,0.0078125,0.03515625,-3.507812,0.0546875,11.01562,0.00390625,0.001953125,0.04492188,0.02734375,0.01757812,0,-0.004638672,-0.002929688,0.01989746,0,0,-0.0009765625,0.2263184,4.076,0,0,0,0.2000122,nan,2,0.027,1,0,0.2299194,0.2330322,0.2170715,0.2252197,0.0009765625,0.001953125,0,1,2,0
383.519,0.001027,-0.01367188,0.015625,-0.04492188,-0.3125,2.765625,6.257812,-0.00390625,0.0078125,-0.009765625,0.02734375,0.01757812,0,-0.004516602,-0.002807617,0.02001953,0,0,-0.0009765625,0.2263184,4.076,0,0,0,0.2000122,nan,2,0.037,1,0,0.1713257,0.2850037,0.1575317,0.2914124,0.0009765625,0.001953125,0,1,2,0
383.529,0.001028,-0.0390625,0.001953125,-0.03515625,-2.75,-1.914062,14,-0.03320312,0.0078125,-0.0546875,0.02734375,0.01757812,0,-0.004638672,-0.002807617,0.01965332,0,0,-0.0009765625,0.2263184,4.076,0,0,0,0.2000122,nan,2,0.002,1,0,0.1930237,0.2622986,0.1731873,0.2767639,0.0009765625,0.001953125,0,1,2,0
383.539,0.001009,-0.05078125,-0.0078125,-0.078125,1.53125,2.84375,7.515625,-0.03125,0.02734375,-0.0546875,0.03125,0.015625,0,-0.005126953,-0.002563477,0.01916504,0,0,-0.0009765625,0.2263184,4.076,0,0,0,0.2000122,nan,2,0.012,1,0,0.1987,0.2582092,0.1850281,0.2633362,0.0009765625,0.001953125,0,1,2,0
383.549,0.001005,-0.046875,0.02539062,-0.02929688,-0.1875,-5.273438,5.945312,0.005859375,0.00390625,-0.0625,0.02929688,0.015625,0,-0.005004883,-0.002441406,0.01855469,0,0,-0.0009765625,0.2263184,4.076,0,0,0,0.2000122,nan,2,0.022,1,0,0.2193909,0.239624,0.2077942,0.2384338,0.001953125,0.001953125,0,1,2,0
383.56,0.001005,0.09765625,0.05078125,-0.001953125,-1.851562,-4.398438,8.351562,0.01953125,0.0078125,-0.015625,0.02929688,0.015625,0,-0.005004883,-0.002563477,0.01818848,0,0,-0.0009765625,0.2263184,4.076,0,0,0,0.2000122,nan,2,0.032,1,0,0.2584534,0.1928711,0.2637634,0.1901855,0.001953125,0.001953125,0,1,2,0.1746032
383.57,0.001004,0.06445312,-0.02539062,-0.0703125,0.5625,7.179688,14,0.04101562,-0.03710938,-0.03515625,0.02929688,0.015625,0,-0.004882812,-0.002685547,0.01794434,0,0,-0.0009765625,0.2263184,4.076,0,0,0,0.2000122,nan,2,0.042,1,0,0.1930847,0.2781982,0.1850891,0.2489014,0.001953125,0.001953125,0,1,2,0
383.579,0.001002,0.02148438,-0.07617188,-0.03710938,-1.4375,0.6328125,9.945312,0.03320312,0.01367188,-0.0390625,0.02734375,0.01367188,0,-0.004638672,-0.002441406,0.01757812,0,0,-0.0009765625,0.2263184,4.076,0,0,0,0.2000122,nan,2,0.052,1,0,0.2282104,0.2350464,0.2203064,0.2216797,0.001953125,0.001953125,0,1,2,0.4444444
383.589,0.001029,-0.02929688,0.02148438,0.04882812,1.101562,3.71875,12.63281,-0.01171875,0.01171875,0.01953125,0.02734375,0.01367188,0,-0.004638672,-0.002319336,0.01745605,0,0,-0.0009765625,0.2263184,4.076,0,0,0,0.2000122,nan,2,0.007,1,0,0.3014221,0.1546021,0.2837524,0.1654968,0.001953125,0.001953125,0,1,2,0
383.599,0.001015,-0.07617188,0.01367188,-0.01171875,1.648438,1.796875,4.632812,-0.01367188,-0.03125,0.015625,0.02734375,0.015625,0,-0.004516602,-0.002563477,0.0177002,0,0,-0.0009765625,0.2263184,4.076,0,0,0,0.2000122,nan,2,0.017,1,0,0.2325745,0.2337341,0.1981506,0.2408142,0.001953125,0.001953125,0,1,2,0
383.609,0.001017,0.06835938,-0.04101562,0.02148438,1.21875,2.398438,13.66406,0.03320312,-0.01953125,0.0234375,0.02734375,0.015625,0,-0.004394531,-0.002685547,0.01794434,0,0,-0.0009765625,0.2263184,4.076,0,0,0,0.2000122,nan,2,0.027,1,0,0.2304993,0.2341919,0.2269897,0.2135925,0.001953125,0.001953125,0,1,2,0
383.619,0.001002,0.0390625,-0.005859375,0.02148438,-0.9375,0.6484375,5.59375,-0.00390625,-0.001953125,0.01953125,0.02734375,0.015625,0,-0.004394531,-0.002685547,0.01818848,0,0,-0.0009765625,0.2263184,4.076,0,0,0,0.2000122,nan,2,0.037,1,0,0.2324829,0.2271729,0.2177429,0.2278748,0.001953125,0.001953125,0,1,2,0
383.629,0.001002,0.01953125,-0.02929688,0.09375,0.8984375,2.648438,11.28125,0,-0.009765625,0.06835938,0.02734375,0.015625,0,-0.004516602,-0.002685547,0.01855469,0,0,-0.0009765625,0.2263184,4.076,0,0,0,0.2000122,nan,2,0.047,1,0,0.3111877,0.1535034,0.2946167,0.1459351,0.001953125,0.001953125,0,1,2,0
383.639,0.001015,0.08007812,-0.0390625,0.0859375,-2.59375,-1.164062,10.23438,0.02539062,-0.009765625,0.09179688,0.02734375,0.015625,0,-0.004516602,-0.002685547,0.01940918,0,0,-0.0009765625,0.2263184,4.076,0,0,0,0.2000122,nan,2,0.058,1,0,0.2683716,0.1938171,0.2684021,0.1746521,0.001953125,0.001953125,0,1,2,0
383.649,0.001015,0.05078125,0.01367188,0.01757812,1.414062,2.195312,10.41406,0.04882812,0.001953125,0.04296875,0.02539062,0.01757812,0,-0.004394531,-0.002807617,0.0201416,0,0,-0.0009765625,0.2263184,4.076,0,0,0,0.2000122,nan,2,0.068,1,0,0.1885071,0.2669983,0.2002563,0.2495117,0.001953125,0.001953125,0,1,2,0
383.66,0.001047,0.00390625,-0.00390625,-0.03515625,-0.1328125,0.2734375,10.10938,0.02148438,-0.005859375,-0.01953125,0.02539062,0.01757812,0,-0.004150391,-0.002807617,0.02026367,0,0,-0.0009765625,0.3105164,4.076,0,0,0,0.2999878,nan,2,0,1,0,0.2521973,0.3783875,0.2391663,0.3723145,0.001953125,0.001953125,0,1,2,0.1904762
383.669,0.001023,0.01367188,0.046875,0.00390625,1.492188,-1.890625,6.828125,0.01757812,-0.01367188,0.001953125,0.0234375,0.01757812,0,-0.00390625,-0.002929688,0.0201416,0,0,-0.0009765625,0.3105164,4.076,0,0,0,0.2999878,nan,2,0.009,1,0,0.3305359,0.2978516,0.317627,0.2960815,0.001953125,0.001953125,0,1,2,0
383.679,0.00098,-0.09570312,-0.04296875,-0.04296875,-0.453125,-2.71875,16.89844,-0.0078125,-0.0234375,-0.0234375,0.0234375,0.01757812,0,-0.00390625,-0.002929688,0.0201416,0,0,-0.0009765625,0.3105164,4.076,0,0,0,0.2999878,nan,2,0.019,1,0,0.2801819,0.3576355,0.2486877,0.3556213,0.001953125,0.001953125,0,1,2,0
383.689,0.001026,0.001953125,0.02148438,-0.04492188,-1.820312,-3.601562,10.45312,-0.009765625,0.0078125,-0.01757812,0.0234375,0.01757812,0,-0.00402832,-0.003051758,0.01989746,0,0,-0.0009765625,0.3105164,4.076,0,0,0,0.2999878,nan,2,0.029,1,0,0.3061523,0.3147888,0.2996521,0.3215027,0.001953125,0.002929688,0,1,2,0
383.699,0.001008,-0.03125,-0.03515625,-0.06835938,2.296875,-4.34375,6.851562,-0.03125,-0.015625,-0.05273438,0.02539062,0.01757812,0,-0.004150391,-0.003051758,0.01953125,0,0,-0.0009765625,0.3105164,4.072,0,0,0,0.2999878,nan,2,0.039,1,0,0.2815247,0.3542175,0.2476807,0.3587341,0.001953125,0.002929688,0,1,2,0
383.709,0.001026,0.2148438,-0.01171875,-0.07421875,0.8125,-1.210938,12.23438,0.08007812,-0.01953125,-0.09179688,0.0234375,0.01953125,0,-0.00402832,-0.003295898,0.01879883,0,0,-0.0009765625,0.3105164,4.072,0,0,0,0.2999878,nan,2,0.002,1,0,0.234436,0.3963318,0.2573242,0.3539734,0.001953125,0.002929688,0,1,2,0
383.719,0.001005,0.04296875,0.01367188,-0.00390625,-1.96875,1.070312,14.97656,0.05664062,-0.009765625,-0.0234375,0.01953125,0.02148438,0,-0.003417969,-0.003540039,0.01818848,0,0,-0.0009765625,0.3105164,4.072,0,0,0,0.2999878,nan,2,0.012,1,0,0.3595581,0.2637024,0.359314,0.259552,0.001953125,0.002929688,0,1,2,0
383.729,0.001003,0.05273438,-0.03515625,-0.04101562,-2.171875,0.9453125,9.078125,0.09765625,-0.005859375,-0.02929688,0.015625,0.02148438,0,-0.002685547,-0.003662109,0.01794434,0,0,-0.0009765625,0.3105164,4.072,0,0,0,0.2999878,nan,2,0.022,1,0,0.2807312,0.3483887,0.2892151,0.3237915,0.001953125,0.002929688,0,1,2,0.01587302
383.739,0.00101,-0.04296875,0.01953125,-0.0078125,-0.96875,-1.664062,8.117188,0.0390625,0.009765625,-0.03515625,0.01367188,0.02148438,0,-0.002441406,-0.003540039,0.01757812,0,0,-0.0009765625,0.3105164,4.072,0,0,0,0.2999878,nan,2,0.032,1,0,0.3196411,0.3036194,0.316803,0.3020325,0.001953125,0.002929688,0,1,2,0
383.749,0.000992,0.1425781,-0.0703125,-0.046875,0.9609375,-0.1171875,5.578125,0.125,-0.06640625,-0.04492188,0.009765625,0.0234375,0,-0.001708984,-0.00402832,0.01721191,0,0,-0.0009765625,0.3105164,4.072,0,0,0,0.2999878,nan,2,0.042,1,0,0.2872314,0.3588257,0.2900696,0.3059692,0.001953125,0.002929688,0,1,2,0
383.759,0.000999,-0.001953125,-0.001953125,0.02539062,0.4921875,-3.1875,5.304688,-0.02539062,0.03125,-0.01367188,0.0078125,0.02539062,0,-0.001098633,-0.004272461,0.01672363,0,0,-0.0009765625,0.3105164,4.072,0,0,0,0.2999878,nan,2,0.053,1,0,0.3726807,0.2348633,0.3552856,0.2792664,0.001953125,0.002929688,0,1,2,0
383.769,0.001019,-0.109375,0.06640625,-0.03320312,-2.859375,-3.054688,12.03906,-0.0234375,0.01367188,-0.0234375,0.005859375,0.02539062,0,-0.001098633,-0.004272461,0.01660156,0,0,-0.0009765625,0.3105164,4.072,0,0,0,0.2999878,nan,2,0.062,1,0,0.3001099,0.3209229,0.2788086,0.3422852,0.001953125,0.002929688,0,1,2,0
383.779,0.001005,0.1074219,-0.06835938,0.03710938,-2.554688,4.28125,16.89844,0.02734375,0.005859375,-0.005859375,0.0078125,0.02539062,0,-0.001342773,-0.004150391,0.01623535,0,0,-0.0009765625,0.3105164,4.072,0,0,0,0.2999878,nan,2,0.003,1,0,0.361969,0.269989,0.3658752,0.2442627,0.001953125,0.002929688,0,1,2,0
383.789,0.00101,-0.04882812,-0.046875,-0.0390625,-1.054688,6.570312,13.25,-0.0859375,0.00390625,-0.03125,0.009765625,0.0234375,0,-0.001586914,-0.00402832,0.01611328,0,0,-0.0009765625,0.3105164,4.072,0,0,0,0.2999878,nan,2,0.013,1,0,0.2939758,0.3413696,0.2465515,0.3601685,0.001953125,0.002929688,0,1,2,0
383.799,0.00101,-0.1191406,0.08007812,-0.04101562,0.921875,2.039062,9.117188,-0.09179688,-0.01171875,-0.04492188,0.01171875,0.02734375,0,-0.002075195,-0.004394531,0.015625,0,0,-0.0009765625,0.3105164,4.072,0,0,0,0.2999878,nan,2,0.023,1,0,0.3253479,0.2955322,0.2882996,0.3329163,0.001953125,0.002929688,0,1,2,0.1111111
383.809,0.001018,0.03515625,0.00390625,-0.04296875,1.664062,-4.257812,9.820312,0.01171875,-0.00390625,-0.01171875,0.01367188,0.02734375,0,-0.002319336,-0.004638672,0.01550293,0,0,-0.0009765625,0.3105164,4.072,0,0,0,0.2999878,nan,2,0.033,1,0,0.3069763,0.3152161,0.3117065,0.308197,0.001953125,0.002929688,0,1,2,0
383.819,0.001013,-0.005859375,0.01367188,-0.03515625,1.335938,0.109375,8.34375,-0.009765625,0.0078125,-0.046875,0.01367188,0.02734375,0,-0.002319336,-0.004638672,0.01513672,0,0,-0.0009765625,0.3105164,4.072,0,0,0,0.2999878,nan,2,0.008,1,0,0.2872925,0.3385315,0.2748718,0.3414001,0.001953125,0.002929688,0,1,2,0
383.829,0.001037,0.04296875,-0.06054688,0.009765625,0.828125,0.640625,6.15625,0,-0.009765625,0.0078125,0.015625,0.02734375,0,-0.002441406,-0.004638672,0.01501465,0,0,-0.0009765625,0.3105164,4.072,0,0,0,0.2999878,nan,2,0.018,1,0,0.3582153,0.2773743,0.3474731,0.2590637,0.001953125,0.002929688,0,1,2,0
383.839,0.00101,-0.001953125,0.01171875,0.01757812,-0.9140625,-3.960938,5.796875,0.01757812,-0.001953125,0.01953125,0.01367188,0.02734375,0,-0.002441406,-0.004638672,0.01513672,0,0,-0.0009765625,0.3105164,4.072,0,0,0,0.2999878,nan,2,0.028,1,0,0.3239136,0.3059998,0.3143005,0.2979126,0.001953125,0.002929688,0,1,2,0
383.849,0.00101,-0.01953125,0.02539062,0.01367188,-1.265625,-1.304688,9.03125,-0.03125,0.02148438,0.01757812,0.015625,0.02734375,0,-0.002563477,-0.004516602,0.01538086,0,0,-0.0009765625,0.3105164,4.072,0,0,0,0.2999878,nan,2,0.038,1,0,0.3212585,0.3032837,0.3044434,0.3131104,0.001953125,0.002929688,0,1,2,0
383.859,0.00101,-0.04101562,-0.0234375,0.04492188,-1.828125,-0.2890625,10.32031,0.005859375,0,0.02929688,0.015625,0.02539062,0,-0.002563477,-0.004394531,0.01550293,0,0,-0.0009765625,0.3105164,4.072,0,0,0,0.2999878,nan,2,0.048,1,0,0.354126,0.2835999,0.3346252,0.2697449,0.001953125,0.002929688,0,1,2,0
383.87,0.001008,-0.09570312,0.0078125,-0.01171875,-1.6875,-1.71875,12.90625,-0.06445312,0.02929688,0.0078125,0.01757812,0.0234375,0,-0.002929688,-0.00402832,0.01574707,0,0,-0.0009765625,0.3105164,4.072,0,0,0,0.2999878,nan,2,0.059,1,0,0.3039551,0.3213196,0.2720032,0.3448181,0.001953125,0.002929688,0,1,2,0
383.879,0.000996,-0.06835938,0.04296875,-0.01953125,1.65625,3.804688,9.953125,-0.015625,0.0234375,-0.009765625,0.01953125,0.0234375,0,-0.003173828,-0.00390625,0.01574707,0,0,-0.0009765625,0.3105164,4.072,0,0,0,0.2999878,nan,2,0.007,1,0,0.3050232,0.3201294,0.2929382,0.3240051,0.001953125,0.002929688,0,1,2,0
383.889,0.001002,-0.02929688,0.06445312,-0.02148438,1.34375,3.578125,7.820312,-0.05078125,0.02734375,-0.02148438,0.02148438,0.0234375,0,-0.003662109,-0.00378418,0.01550293,0,0,-0.0009765625,0.3105164,4.072,0,0,0,0.2999878,nan,2,0.017,1,0,0.3058777,0.3139648,0.2894287,0.3328552,0.001953125,0.002929688,0,1,2,0
383.899,0.001005,-0.09570312,0.09179688,0.001953125,0.8359375,-4.40625,6.414062,-0.03125,0.001953125,-0.02539062,0.02148438,0.0234375,0,-0.003662109,-0.00378418,0.01525879,0,0,-0.0009765625,0.3105164,4.072,0,0,0,0.2999878,nan,2,0.027,1,0,0.3190918,0.3091125,0.2944336,0.3194885,0.001953125,0.002929688,0,1,2,0
383.909,0.000991,0.02148438,-0.1054688,-0.02148438,1.492188,-3.976562,9.609375,0.03515625,-0.0390625,-0.0234375,0.0234375,0.0234375,0,-0.00390625,-0.00390625,0.01501465,0,0,-0.0009765625,0.3105164,4.072,0,0,0,0.2999878,nan,2,0.037,1,0,0.3116455,0.335144,0.2988281,0.2964783,0.001953125,0.002929688,0,1,2,0
383.919,0.000988,-0.0859375,-0.04882812,0.01757812,0.9609375,-3.195312,6.4375,-0.05078125,0.005859375,0.009765625,0.0234375,0.0234375,0,-0.00402832,-0.00390625,0.01501465,0,0,-0.0009765625,0.3105164,4.072,0,0,0,0.2999878,nan,2,0.008,1,0,0.3569336,0.2734375,0.321228,0.2904968,0.001953125,0.002929688,0,1,2,0
383.929,0.000976,-0.01367188,-0.03125,0.04101562,0.515625,-0.9296875,6.554688,-0.02148438,0.0078125,0.02539062,0.02539062,0.0234375,0,-0.004150391,-0.00378418,0.01513672,0,0,-0.0009765625,0.3105164,4.072,0,0,0,0.2999878,nan,2,0.018,1,0,0.3538513,0.2761841,0.3320312,0.2800293,0.001953125,0.002929688,0,1,2,0
383.939,0.001037,0.06445312,-0.06445312,0.02148438,-1.867188,3.1875,9.15625,0.04101562,-0.046875,0.03710938,0.02539062,0.0234375,0,-0.004150391,-0.00402832,0.01550293,0,0,-0.0009765625,0.3105164,4.072,0,0,0,0.2999878,nan,2,0.028,1,0,0.3295898,0.3172913,0.315979,0.2792358,0.001953125,0.002929688,0,1,2,0.4444444
383.949,0.000997,-0.0390625,0.01953125,0.09765625,-1.335938,4.296875,13.38281,-0.03125,0.015625,0.06445312,0.02539062,0.02539062,0,-0.004150391,-0.004150391,0.01599121,0,0,-0.0009765625,0.3105164,4.072,0,0,0,0.2999878,nan,2,0.038,1,0,0.3752747,0.2442627,0.3566589,0.2658997,0.001953125,0.002929688,0,1,2,0
383.96,0.001019,-0.07226562,0.0234375,0.05859375,0.2734375,-2.5,8.0625,-0.0390625,0,0.07226562,0.02539062,0.02539062,0,-0.004394531,-0.004150391,0.01672363,0,0,-0.0009765625,0.3105164,4.072,0,0,0,0.2999878,nan,2,0.048,1,0,0.3465576,0.2833557,0.3154907,0.2966919,0.001953125,0.002929688,0,1,2,0
383.969,0.001026,-0.06640625,0.0234375,0.07617188,1.289062,-2.40625,9.453125,-0.015625,0.02148438,0.06640625,0.02734375,0.0234375,0,-0.004394531,-0.00402832,0.01733398,0,0,-0.0009765625,0.3105164,4.072,0,0,0,0.2999878,nan,2,0.002,1,0,0.3344116,0.2859497,0.3205261,0.301239,0.001953125,0.002929688,0,1,2,0.6190476
383.98,0.00099,-0.04882812,0.1132812,0.04882812,0.9375,-7.59375,10.67188,-0.03515625,0.0390625,0.03515625,0.02929688,0.0234375,0,-0.004882812,-0.00378418,0.01794434,0,0,-0.0009765625,0.3105164,4.072,0,0,0,0.2999878,nan,2,0.013,1,0,0.2966614,0.3208618,0.2880859,0.3364868,0.001953125,0.002929688,0,1,2,0
383.989,0.001015,0.07421875,0.005859375,0.005859375,-1.671875,-1.359375,11.66406,0,0.001953125,0.0078125,0.03125,0.02148438,0,-0.005126953,-0.003662109,0.01806641,0,0,-0.0009765625,0.3105164,4.072,0,0,0,0.2999878,nan,2,0.022,1,0,0.2906494,0.3439026,0.2775574,0.3299866,0.001953125,0.002929688,0,1,2,0
383.999,0.001033,0.005859375,0.01171875,0.03125,-1.851562,6.039062,12.10156,0.0390625,-0.02539062,0.01171875,0.02929688,0.0234375,0,-0.004760742,-0.00378418,0.01806641,0,0,-0.0009765625,0.3105164,4.072,0,0,0,0.2999878,nan,2,0.032,1,0,0.3397217,0.2975769,0.3236084,0.2812195,0.001953125,0.002929688,0,1,2,0
384.009,0.001013,-0.04882812,0.08398438,-0.05859375,-1.835938,5.203125,12.375,-0.01757812,0.0078125,-0.05273438,0.02929688,0.02539062,0,-0.004760742,-0.004150391,0.01794434,0,0,-0.0009765625,0.3105164,4.072,0,0,0,0.2999878,nan,2,0.002,1,0,0.2460327,0.3684082,0.2333679,0.3942871,0.001953125,0.002929688,0,1,2,0
384.019,0.001013,0.2167969,-0.04296875,-0.0234375,-1.5625,0.3671875,13.1875,0.1777344,-0.0546875,-0.04882812,0.0234375,0.02734375,0,-0.00390625,-0.004516602,0.01733398,0,0,-0.0009765625,0.3105164,4.072,0,0,0,0.2999878,nan,2,0.012,1,0,0.2953186,0.3480225,0.3217163,0.2770386,0.001953125,0.002929688,0,1,2,0
384.029,0.001003,-0.234375,0.07226562,-0.01953125,-2.1875,4.179688,14.85938,-0.1367188,0.0546875,-0.03125,0.0234375,0.02539062,0,-0.00378418,-0.004394531,0.01696777,0,0,-0.0009765625,0.3105164,4.072,0,0,0,0.2999878,nan,2,0.022,1,0,0.3445129,0.2644958,0.2787476,0.3543701,0.001953125,0.002929688,0,1,2,0
384.039,0.001013,-0.005859375,0.03515625,-0.0546875,-1.101562,7.28125,14.15625,0.01367188,0.01171875,0.01367188,0.02734375,0.0234375,0,-0.004516602,-0.00402832,0.01696777,0,0,-0.0009765625,0.3105164,4.072,0,0,0,0.2999878,nan,2,0.032,1,0,0.3311462,0.3039856,0.3324585,0.2745056,0.002929688,0.002929688,0,1,2,0
384.049,0.001015,-0.02539062,0.02539062,-0.0390625,-1.515625,4.203125,12.95312,-0.0078125,0.02148438,-0.0625,0.02734375,0.02148438,0,-0.004394531,-0.003662109,0.01647949,0,0,-0.0009765625,0.3105164,4.072,0,0,0,0.2999878,nan,2,0.042,1,0,0.2831116,0.348114,0.2605896,0.3502808,0.002929688,0.002929688,0,1,2,0
384.059,0.001023,0.04882812,-0.0546875,-0.02929688,-1.609375,-0.5234375,13.54688,0.015625,-0.01367188,-0.01367188,0.02929688,0.02148438,0,-0.005004883,-0.003417969,0.01635742,0,0,-0.0009765625,0.3105164,4.072,0,0,0,0.2999878,nan,2,0.053,1,0,0.3119202,0.335022,0.2999878,0.295166,0.002929688,0.002929688,0,1,2,0
384.069,0.001033,-0.04492188,-0.05859375,0.02929688,1.15625,2.476562,10.5625,-0.015625,-0.009765625,0.005859375,0.02929688,0.02148438,0,-0.005004883,-0.003540039,0.01623535,0,0,-0.0009765625,0.3105164,4.072,0,0,0,0.2999878,nan,2,0.001,1,0,0.355835,0.2799072,0.3291321,0.2772522,0.002929688,0.002929688,0,1,2,0
384.08,0.001015,0.0859375,-0.06054688,0.0546875,1.765625,3.398438,7.570312,0.01171875,-0.02148438,0.03515625,0.03125,0.02148438,0,-0.005249023,-0.003540039,0.01647949,0,0,-0.0009765625,0.3105164,4.072,0,0,0,0.2999878,nan,2,0.012,1,0,0.3666687,0.2765808,0.3490601,0.2497864,0.002929688,0.00390625,0,1,2,0
384.089,0.0009860001,-0.03125,-0.01953125,0.001953125,1.023438,-3.46875,7.023438,0.04296875,0.00390625,0.015625,0.02929688,0.02148438,0,-0.004760742,-0.003662109,0.01660156,0,0,-0.0009765625,0.3105164,4.072,0,0,0,0.2999878,nan,2,0.021,1,0,0.3123474,0.3130493,0.3042603,0.312439,0.002929688,0.00390625,0,1,2,0
384.099,0.00101,0.02539062,0.07421875,-0.009765625,-0.875,-5.03125,9.898438,0.01757812,0.005859375,0.01171875,0.02734375,0.02148438,0,-0.004394531,-0.003662109,0.01672363,0,0,-0.0009765625,0.3105164,4.072,0,0,0,0.2999878,nan,2,0.031,1,0,0.3079834,0.3150024,0.2946167,0.3245239,0.002929688,0.00390625,0,1,2,0
384.109,0.000995,0.04101562,-0.03515625,-0.03515625,-2.265625,0.0078125,10.01562,0.01171875,0.02929688,-0.01953125,0.02734375,0.02148438,0,-0.004516602,-0.003540039,0.01660156,0,0,-0.0009765625,0.3105164,4.072,0,0,0,0.2999878,nan,2,0,1,0,0.2914734,0.3317261,0.2888184,0.3301086,0.002929688,0.00390625,0,1,2,0.01587302
384.119,0.001015,0.1230469,-0.1074219,0.05078125,-2.523438,2.40625,11.13281,-0.0234375,-0.0234375,0.00390625,0.02929688,0.02148438,0,-0.005004883,-0.003540039,0.01647949,0,0,-0.0009765625,0.3105164,4.072,0,0,0,0.2999878,nan,2,0.01,1,0,0.3620605,0.2834167,0.3345032,0.262146,0.002929688,0.00390625,0,1,2,0
384.129,0.000995,-0.05664062,-0.00390625,-0.05664062,-0.9921875,6.9375,14.25,-0.0625,-0.01171875,-0.05273438,0.02929688,0.02148438,0,-0.004882812,-0.003662109,0.01611328,0,0,-0.0009765625,0.3105164,4.072,0,0,0,0.2999878,nan,2,0.02,1,0,0.2936401,0.3382874,0.2457886,0.3644104,0.002929688,0.00390625,0,1,2,0
384.139,0.00101,0.02929688,-0.0859375,-0.1074219,0.34375,3.578125,11.5,0.03710938,-0.05273438,-0.08789062,0.03125,0.02148438,0,-0.005249023,-0.003662109,0.01550293,0,0,-0.0009765625,0.3105164,4.072,0,0,0,0.2999878,nan,2,0.03,1,0,0.2471008,0.4069519,0.2293396,0.3586731,0.002929688,0.00390625,0,1,2,0
384.149,0.00101,-0.0625,-0.03125,-0.140625,-1.914062,0.0859375,15.17188,0.00390625,-0.01953125,-0.0859375,0.02734375,0.02539062,0,-0.004638672,-0.004150391,0.01464844,0,0,-0.0009765625,0.3105164,4.072,0,0,0,0.2999878,nan,2,0.04,1,0,0.2758789,0.3525391,0.240387,0.373291,0.002929688,0.00390625,0,1,2,0
384.16,0.001026,0.02734375,0.0859375,-0.04882812,-1.421875,5.789062,13.45312,0.04492188,0.01171875,-0.06445312,0.02929688,0.02539062,0,-0.004760742,-0.004150391,0.01391602,0,0,-0.0009765625,0.3105164,4.072,0,0,0,0.2999878,nan,2,0.051,1,0,0.3027649,0.3214417,0.3131104,0.3047791,0.002929688,0.00390625,0,1,2,0
384.169,0.001027,0.1113281,-0.01367188,-0.05273438,-1.328125,3.09375,11.61719,0.05273438,-0.0390625,-0.07226562,0.02734375,0.02734375,0,-0.004638672,-0.004394531,0.01330566,0,0,-0.0009765625,0.3105164,4.072,0,0,0,0.2999878,nan,2,0.003,1,0,0.2902222,0.3485107,0.2853699,0.3179626,0.002929688,0.00390625,0,1,2,0
384.179,0.001015,-0.09570312,0.03125,-0.04296875,-2.5,0.203125,14.42188,-0.009765625,0.01367188,-0.03320312,0.02734375,0.02734375,0,-0.004394531,-0.004516602,0.01269531,0,0,-0.0009765625,0.3105164,4.072,0,0,0,0.2999878,nan,2,0.013,1,0,0.3475647,0.271698,0.3258667,0.2969666,0.002929688,0.00390625,0,1,2,0
384.189,0.001028,0.02539062,0.1210938,0.046875,-1.65625,6.703125,14.21875,0.06835938,0.04492188,0.005859375,0.02539062,0.02734375,0,-0.004272461,-0.004516602,0.01245117,0,0,-0.0009765625,0.3105164,4.072,0,0,0,0.2999878,nan,2,0.023,1,0,0.3670959,0.2435303,0.3940125,0.2374878,0.002929688,0.00390625,0,1,2,0
384.199,0.001025,0.1054688,-0.03125,0.07617188,-0.765625,6.65625,12.85938,0.03710938,0.02539062,0.06445312,0.0234375,0.02539062,0,-0.00402832,-0.004150391,0.01281738,0,0,-0.0009765625,0.3105164,4.072,0,0,0,0.2999878,nan,2,0.033,1,0,0.3946838,0.2377625,0.3834839,0.2261963,0.002929688,0.00390625,0,1,2,0
384.209,0.001026,-0.09375,-0.04492188,0.05859375,1.601562,-0.8359375,7.335938,0.03515625,-0.01171875,0.05078125,0.01757812,0.02539062,0,-0.003051758,-0.004150391,0.01342773,0,0,-0.0009765625,0.3105164,4.072,0,0,0,0.2999878,nan,2,0.002,1,0,0.3379517,0.2996826,0.2966309,0.3078308,0.002929688,0.00390625,0,1,2,0
384.219,0.00101,0.1953125,-0.1386719,0.1035156,1.523438,-4.078125,9.140625,0.08984375,-0.046875,0.07421875,0.01757812,0.02539062,0,-0.002807617,-0.004150391,0.01403809,0,0,-0.0009765625,0.3105164,4.072,0,0,0,0.2999878,nan,2,0.012,1,0,0.3637085,0.2903137,0.3588562,0.229248,0.002929688,0.00390625,0,1,2,0.2063492
384.229,0.000997,-0.01757812,-0.0625,0.07226562,-0.5078125,-4.835938,6.40625,-0.001953125,-0.03125,0.05078125,0.015625,0.02734375,0,-0.002441406,-0.004516602,0.01464844,0,0,-0.0009765625,0.3105164,4.072,0,0,0,0.2999878,nan,2,0.022,1,0,0.3411865,0.2992859,0.3019409,0.2997131,0.002929688,0.00390625,0,1,2,0
384.239,0.001027,0.01367188,-0.03710938,-0.0234375,-1.523438,-1.757812,9.171875,0.02539062,-0.01171875,0,0.015625,0.02734375,0,-0.002563477,-0.004516602,0.01477051,0,0,-0.0009765625,0.3105164,4.072,0,0,0,0.2999878,nan,2,0.032,1,0,0.2766113,0.3617554,0.2663879,0.3373718,0.002929688,0.00390625,0,1,2,0.1428571
384.249,0.00101,0.1425781,-0.02539062,-0.07617188,-1.765625,2.15625,14.55469,0.04101562,-0.01171875,-0.05664062,0.01367188,0.02734375,0,-0.002319336,-0.004638672,0.01452637,0,0,-0.0009765625,0.3105164,4.072,0,0,0,0.2999878,nan,2,0.042,1,0,0.2445068,0.3891296,0.2385254,0.3699341,0.002929688,0.00390625,0,1,2,0
384.259,0.00101,-0.08789062,0.1445312,-0.171875,-2.460938,5.820312,13.40625,0.05859375,0.01953125,-0.1191406,0.0078125,0.02929688,0,-0.001342773,-0.004760742,0.0135498,0,0,-0.0009765625,0.3105164,4.072,0,0,0,0.2999878,nan,2,0.052,1,0,0.2121887,0.4010315,0.2060242,0.4228821,0.002929688,0.00390625,0,1,2,0
384.27,0.001032,-0.015625,-0.0234375,-0.15625,-1.867188,-1.296875,12.4375,0.01757812,0.001953125,-0.1347656,0.005859375,0.02734375,0,-0.0008544922,-0.004516602,0.0123291,0,0,-0.0009765625,0.3105164,4.072,0,0,0,0.2999878,nan,2,0.001,1,0,0.260498,0.3783569,0.2283325,0.374939,0.002929688,0.00390625,0,1,2,0
384.28,0.00101,0.04492188,-0.0546875,-0.09960938,1.210938,-5.390625,7.625,0.05859375,-0.0234375,-0.1054688,0.00390625,0.02734375,0,-0.0007324219,-0.004638672,0.0111084,0,0,-0.0009765625,0.3105164,4.072,0,0,0,0.2999878,nan,2,0.011,1,0,0.3091125,0.3339233,0.3016357,0.2974243,0.002929688,0.00390625,0,1,2,0.1111111
384.289,0.001038,0.00390625,0.02148438,-0.04296875,0.15625,-4.460938,4.523438,-0.001953125,-0.00390625,-0.08398438,0.001953125,0.02929688,0,-0.0003662109,-0.004760742,0.01013184,0,0,-0.0009765625,0.3105164,4.072,0,0,0,0.2999878,nan,2,0.02,1,0,0.3379211,0.2901917,0.3130188,0.3009338,0.002929688,0.00390625,0,1,2,0
384.299,0.001012,0.2128906,-0.005859375,-0.03515625,1.460938,-7.953125,10.78125,0.1054688,0.005859375,-0.02148438,0.001953125,0.02929688,0,-0.0002441406,-0.004760742,0.009643555,0,0,-0.0009765625,0.3105164,4.072,0,0,0,0.2999878,nan,2,0.03,1,0,0.3434143,0.2867432,0.3744202,0.2375183,0.002929688,0.00390625,0,1,2,0
384.309,0.001012,-0.0703125,0.09179688,0.03125,0.453125,-3.046875,9.539062,0.04101562,0.01367188,0.01757812,-0.00390625,0.02734375,0,0.0006103516,-0.004516602,0.009765625,0,0,-0.0009765625,0.3105164,4.072,0,0,0,0.2999878,nan,2,0.04,1,0,0.3562622,0.2741089,0.334259,0.2774963,0.002929688,0.00390625,0,1,2,0.4285714
384.319,0.001009,-0.07421875,0.06445312,0.07421875,0.1171875,1.101562,8.71875,-0.01171875,0.02929688,0.06835938,-0.005859375,0.02734375,0,0.0008544922,-0.004394531,0.01025391,0,0,-0.0009765625,0.3105164,4.072,0,0,0,0.2999878,nan,2,0.051,1,0,0.3779297,0.2427063,0.3570251,0.2644653,0.002929688,0.00390625,0,1,2,0
384.329,0.001029,-0.09960938,0.04882812,0.0625,-1.5625,4.992188,11.20312,-0.03710938,0.01171875,0.0859375,-0.00390625,0.02539062,0,0.0004882812,-0.004150391,0.01098633,0,0,-0.0009765625,0.3105164,4.072,0,0,0,0.2999878,nan,2,0.061,1,0,0.3644409,0.2696838,0.3348389,0.2731628,0.002929688,0.00390625,0,1,2,0
384.339,0.001005,-0.05078125,0.0625,0.02539062,0.96875,7.34375,11.25,-0.0390625,0.02734375,0.05859375,-0.001953125,0.02539062,0,0.0002441406,-0.004150391,0.01196289,0,0,-0.0009765625,0.3105164,4.072,0,0,0,0.2999878,nan,2,0.003,1,0,0.274292,0.3441162,0.2623901,0.3612976,0.002929688,0.00390625,0,1,2,0
384.349,0.001012,0.0078125,0.0390625,-0.01953125,1.84375,3.3125,6.625,-0.01171875,0.02929688,0.01171875,0.001953125,0.02148438,0,-0.0001220703,-0.003662109,0.01220703,0,0,-0.0009765625,0.3105164,4.076,0,0,0,0.2999878,nan,2,0.013,1,0,0.2754517,0.3570251,0.2675476,0.3420715,0.002929688,0.00390625,0,1,2,0
384.36,0.001028,0.0078125,0.04492188,-0.03515625,1.265625,-3.140625,3.359375,0.06054688,-0.02148438,-0.02148438,0,0.0234375,0,0,-0.00378418,0.01208496,0,0,-0.0009765625,0.3105164,4.076,0,0,0,0.2999878,nan,2,0.023,1,0,0.2787781,0.3587036,0.2798767,0.3247375,0.002929688,0.00390625,0,1,2,0
384.37,0.001012,0.1601562,-0.1191406,-0.109375,1.921875,-5.703125,11.89844,0.08984375,-0.0546875,-0.078125,0,0.0234375,0,0.0001220703,-0.00378418,0.01159668,0,0,-0.0009765625,0.3105164,4.076,0,0,0,0.2999878,nan,2,0.033,1,0,0.2278442,0.4282837,0.2276611,0.3582764,0.002929688,0.00390625,0,1,2,0
384.379,0.001011,-0.1386719,0.01367188,-0.1210938,1.71875,-2.625,9.0625,-0.0625,-0.01757812,-0.08789062,0,0.0234375,0,0,-0.00390625,0.01098633,0,0,-0.0009765625,0.3105164,4.076,0,0,0,0.2999878,nan,2,0,1,0,0.2715759,0.3644104,0.2239075,0.3822021,0.002929688,0.00390625,0,1,2,0.2539683
384.389,0.001012,0.1152344,-0.05859375,-0.07617188,1.929688,-0.8515625,4.5625,0.009765625,-0.00390625,-0.07617188,0.00390625,0.0234375,0,-0.0004882812,-0.00390625,0.01013184,0,0,-0.0009765625,0.3105164,4.076,0,0,0,0.2999878,nan,2,0.01,1,0,0.293335,0.3450623,0.2932739,0.3103943,0.002929688,0.00390625,0,1,2,0
384.399,0.001017,-0.015625,0.08007812,-0.1132812,1.640625,-3.796875,8.46875,0.03125,0.01953125,-0.08398438,0.001953125,0.0234375,0,-0.0002441406,-0.00402832,0.009399414,0,0,-0.0009765625,0.3105164,4.076,0,0,0,0.2999878,nan,2,0.02,1,0,0.2657166,0.3540649,0.2643433,0.3580017,0.002929688,0.00390625,0,1,2,0.1746032
384.409,0.001013,0.1015625,0.02539062,-0.04492188,1.46875,2.179688,10.32812,0.03125,-0.005859375,-0.08007812,0,0.02539062,0,-0.0001220703,-0.00402832,0.008422852,0,0,-0.0009765625,0.3105164,4.076,0,0,0,0.2999878,nan,2,0.03,1,0,0.3190613,0.3119507,0.313385,0.2977295,0.002929688,0.00390625,0,1,2,0
384.419,0.001013,-0.009765625,0.08789062,-0.01757812,-0.9609375,2.828125,9.9375,0.0546875,0.01367188,-0.01757812,-0.00390625,0.02539062,0,0.0004882812,-0.004150391,0.008056641,0,0,-0.0009765625,0.3105164,4.076,0,0,0,0.2999878,nan,2,0.003,1,0,0.3340149,0.286499,0.3361511,0.2854309,0.002929688,0.00390625,0,1,2,0
384.429,0.001014,0.2207031,-0.140625,-0.01953125,0.0234375,-0.078125,13.01562,0.04492188,-0.005859375,-0.01171875,0,0.02148438,0,0.0001220703,-0.003662109,0.00793457,0,0,-0.0009765625,0.3105164,4.076,0,0,0,0.2999878,nan,2,0.013,1,0,0.3165588,0.3353882,0.3166809,0.273468,0.002929688,0.00390625,0,1,2,0
384.439,0.00101,0.1074219,-0.03710938,0.001953125,0.6171875,0.890625,13.98438,-0.02148438,0.00390625,0,-0.001953125,0.0234375,0,0.0001220703,-0.00378418,0.0078125,0,0,-0.0009765625,0.3105164,4.076,0,0,0,0.2999878,nan,2,0.023,1,0,0.335144,0.2973938,0.316864,0.2926941,0.002929688,0.00390625,0,1,2,0
384.449,0.001027,0.09960938,-0.1035156,0.04882812,-1.226562,0.3046875,10.51562,0.04296875,-0.0234375,0.04296875,-0.001953125,0.0234375,0,0.0002441406,-0.00378418,0.008178711,0,0,-0.0009765625,0.3105164,4.076,0,0,0,0.2999878,nan,2,0.033,1,0,0.3577271,0.2887573,0.347168,0.2484741,0.002929688,0.00390625,0,1,2,0
384.46,0.001009,-0.109375,0.05273438,0.00390625,1.375,4.507812,12.32812,0.01953125,-0.01953125,0.02539062,-0.005859375,0.02539062,0,0.001098633,-0.004272461,0.008544922,0,0,-0.0009765625,0.3105164,4.076,0,0,0,0.2999878,nan,2,0.002,1,0,0.3006287,0.3270264,0.2692871,0.3451843,0.001953125,0.004882812,0,1,2,0
384.47,0.001011,-0.09375,-0.02734375,-0.02539062,1.882812,2.882812,9.0625,-0.01757812,-0.03125,0.015625,-0.0078125,0.02734375,0,0.001220703,-0.004638672,0.008911133,0,0,-0.0009765625,0.3105164,4.076,0,0,0,0.2999878,nan,2,0.012,1,0,0.3006897,0.3348083,0.2684326,0.3381958,0.001953125,0.004882812,0,1,2,0.1904762
384.48,0.001011,-0.2304688,0.07226562,0.009765625,1.515625,0.1640625,6.1875,-0.09375,0.05664062,-0.005859375,-0.00390625,0.02734375,0,0.0004882812,-0.004638672,0.008789062,0,0,-0.0009765625,0.3105164,4.076,0,0,0,0.2999878,nan,2,0.022,1,0,0.3299561,0.2769165,0.3104858,0.3247681,0.002929688,0.004882812,0,1,2,0
384.489,0.00101,0.2050781,-0.06640625,0.08007812,1.867188,-5.929688,6.96875,0.02929688,0.001953125,0.04296875,0,0.02539062,0,-0.0001220703,-0.004150391,0.008911133,0,0,-0.0009765625,0.3105164,4.076,0,0,0,0.2999878,nan,2,0.031,1,0,0.3713684,0.2762756,0.382019,0.2124329,0.002929688,0.004882812,0,1,2,0.01587302
384.499,0.00101,-0.1425781,0.03515625,-0.05273438,0.9296875,-8.085938,9.992188,-0.005859375,0.01171875,-0.07226562,0,0.02539062,0,0.0001220703,-0.004272461,0.008666992,0,0,-0.0009765625,0.3105164,4.076,0,0,0,0.2999878,nan,2,0.041,1,0,0.2256165,0.4021301,0.2076416,0.4067078,0.002929688,0.004882812,0,1,2,0
384.509,0.0009860001,-0.08984375,0.08984375,-0.01953125,1.148438,-4.03125,10.6875,-0.06054688,0.01171875,-0.06054688,0.00390625,0.02539062,0,-0.0007324219,-0.004150391,0.00793457,0,0,-0.0009765625,0.3105164,4.076,0,0,0,0.2999878,nan,2,0.052,1,0,0.3083191,0.3200073,0.2912292,0.3225708,0.002929688,0.004882812,0,1,2,0
384.519,0.001016,0.09570312,-0.01367188,-0.109375,0.0390625,-2.421875,5.960938,0.02929688,-0.02148438,-0.09570312,0.005859375,0.02539062,0,-0.0008544922,-0.004272461,0.007202148,0,0,-0.0009765625,0.3105164,4.076,0,0,0,0.2999878,nan,2,0.007,1,0,0.2492981,0.3917847,0.2465515,0.3544617,0.002929688,0.004882812,0,1,2,0
384.529,0.001013,0.2167969,0.01367188,-0.001953125,1.546875,-3.8125,8.59375,0.03320312,0.0078125,-0.06640625,0.005859375,0.02539062,0,-0.0008544922,-0.004272461,0.006347656,0,0,-0.0009765625,0.3105164,4.076,0,0,0,0.2999878,nan,2,0.017,1,0,0.332428,0.2939453,0.3425598,0.2731628,0.002929688,0.004882812,0,1,2,0.3015873
384.539,0.001005,-0.1367188,0.03710938,-0.04882812,-0.1171875,3.007812,12.1875,-0.07226562,-0.005859375,-0.06054688,0.005859375,0.02734375,0,-0.0008544922,-0.004394531,0.005615234,0,0,-0.0009765625,0.3105164,4.076,0,0,0,0.2999878,nan,2,0.027,1,0,0.3279419,0.3018188,0.2814636,0.3309021,0.002929688,0.004882812,0,1,2,0
384.549,0.00101,0.05078125,-0.015625,0.01367188,-0.0625,6.453125,14.71875,0.009765625,-0.005859375,-0.01757812,0.0078125,0.02734375,0,-0.001342773,-0.004516602,0.005371094,0,0,-0.0009765625,0.3105164,4.076,0,0,0,0.2999878,nan,2,0.037,1,0,0.3354797,0.3007202,0.3346252,0.2712708,0.002929688,0.004882812,0,1,2,0
384.559,0.001004,0.1074219,0.03125,0.03320312,-1.585938,2.820312,14.70312,0.1230469,-0.00390625,0.04492188,0.00390625,0.02734375,0,-0.0007324219,-0.004516602,0.005493164,0,0,-0.0009765625,0.3105164,4.076,0,0,0,0.2999878,nan,2,0,1,0,0.3655701,0.2684326,0.3830872,0.2250366,0.002929688,0.004882812,0,1,2,0
384.569,0.00101,0.06445312,0.02148438,0.05078125,0.3203125,-1.71875,10.52344,0.05664062,-0.01367188,0.06445312,0,0.02734375,0,0,-0.004638672,0.006103516,0,0,-0.0009765625,0.3105164,4.076,0,0,0,0.2999878,nan,2,0.01,1,0,0.3544617,0.2801819,0.3392029,0.2682495,0.002929688,0.004882812,0,1,2,0
384.58,0.00101,0.04882812,0.02734375,0.08398438,2.429688,-1.6875,7.671875,-0.01757812,0.02539062,0.04882812,0,0.02929688,0,-0.0001220703,-0.004760742,0.006713867,0,0,-0.0009765625,0.3105164,4.076,0,0,0,0.2999878,nan,2,0.02,1,0,0.3210144,0.2938538,0.3168335,0.3103943,0.002929688,0.004882812,0,1,2,0
384.589,0.001007,0.07421875,0.06835938,0.04296875,1.304688,-7.828125,8.515625,0.0078125,0.015625,0.06640625,0,0.02929688,0,-0.0001220703,-0.004882812,0.007324219,0,0,-0.0009765625,0.3105164,4.076,0,0,0,0.2999878,nan,2,0.029,1,0,0.3310852,0.2915649,0.3331604,0.2862854,0.002929688,0.004882812,0,1,2,0
384.599,0.001007,0.1015625,-0.046875,0.08984375,-0.2109375,-4.96875,10.96094,0.04882812,-0.00390625,0.03710938,-0.001953125,0.02929688,0,0.0002441406,-0.004882812,0.00769043,0,0,-0.0009765625,0.3105164,4.076,0,0,0,0.2999878,nan,2,0.039,1,0,0.3180542,0.3192749,0.3091125,0.2956848,0.002929688,0.004882812,0,1,2,0
384.609,0.001007,0.2539062,-0.1503906,-0.08398438,-1.554688,-1.164062,8.882812,0.1152344,-0.08398438,-0.009765625,-0.005859375,0.03320312,0,0.0008544922,-0.005371094,0.008056641,0,0,-0.0009765625,0.3105164,4.076,0,0,0,0.2999878,nan,2,0.049,1,0,0.2313538,0.4277039,0.2281189,0.3549194,0.001953125,0.004882812,0,1,2,0
384.619,0.00102,-0.03125,0.05273438,-0.01757812,-0.46875,1.585938,9.289062,0.009765625,0.046875,0.00390625,-0.009765625,0.03125,0,0.001586914,-0.005371094,0.00793457,0,0,-0.0009765625,0.3105164,4.076,0,0,0,0.2999878,nan,2,0.06,1,0,0.3241272,0.2916565,0.309906,0.3164062,0.001953125,0.004882812,0,1,2,0.07936508
384.629,0.001012,-0.1171875,0.04492188,-0.0546875,-0.765625,0.1015625,8.40625,-0.009765625,-0.00390625,-0.0703125,-0.009765625,0.03320312,0,0.001708984,-0.005493164,0.007446289,0,0,-0.0009765625,0.3105164,4.076,0,0,0,0.2999878,nan,2,0.007,1,0,0.2778625,0.3535461,0.2466125,0.3641052,0.001953125,0.004882812,0,1,2,0
384.639,0.001027,-0.1132812,0.02148438,-0.1210938,1.007812,-3.296875,6.726562,-0.02148438,0,-0.07617188,-0.009765625,0.03320312,0,0.001708984,-0.005493164,0.006713867,0,0,-0.0009765625,0.3105164,4.076,0,0,0,0.2999878,nan,2,0.017,1,0,0.2692566,0.3632812,0.2403259,0.3692322,0.001953125,0.004882812,0,1,2,0
384.649,0.001007,-0.0625,-0.05078125,-0.03515625,2.28125,-0.84375,11.0625,-0.1269531,-0.009765625,-0.06054688,-0.00390625,0.03320312,0,0.0006103516,-0.005493164,0.005981445,0,0,-0.0009765625,0.3105164,4.076,0,0,0,0.2999878,nan,2,0.027,1,0,0.3382568,0.3036804,0.2896118,0.3105164,0.001953125,0.004882812,0,1,2,0
384.659,0.0009860001,-0.1015625,-0.03515625,-0.01171875,0.6953125,3.234375,11.17969,-0.03125,-0.02734375,-0.02539062,-0.001953125,0.03320312,0,0.0002441406,-0.005615234,0.005737305,0,0,-0.0009765625,0.3105164,4.076,0,0,0,0.2999878,nan,2,0.001,1,0,0.333252,0.3099365,0.3026123,0.2962952,0.002929688,0.004882812,0,1,2,0
384.669,0.001007,-0.001953125,-0.0234375,-0.03125,0.421875,4.867188,11,-0.0546875,0.04492188,-0.0390625,0,0.03125,0,-0.0001220703,-0.005371094,0.005371094,0,0,-0.0009765625,0.3105164,4.076,0,0,0,0.2999878,nan,2,0.011,1,0,0.3118591,0.3108826,0.2920532,0.327301,0.002929688,0.004882812,0,1,2,0
384.679,0.000988,-0.0078125,-0.00390625,-0.02148438,0.890625,-0.6953125,13.01562,-0.01367188,0.01367188,-0.0078125,0.001953125,0.03125,0,-0.0003662109,-0.005249023,0.005126953,0,0,-0.0009765625,0.3105164,4.076,0,0,0,0.2999878,nan,2,0.02,1,0,0.3423767,0.2909851,0.3272095,0.2815247,0.002929688,0.004882812,0,1,2,0
384.69,0.001007,-0.1171875,0.08789062,-0.02148438,-1.242188,2.398438,16.59375,0.03515625,0.0234375,-0.02539062,-0.001953125,0.03320312,0,0.0003662109,-0.005371094,0.004760742,0,0,-0.0009765625,0.3105164,4.076,0,0,0,0.2999878,nan,2,0.031,1,0,0.3200378,0.2979431,0.3068237,0.3172913,0.001953125,0.004882812,0,1,2,0
384.699,0.001012,0.046875,-0.1328125,-0.05078125,-0.4765625,4.28125,13.94531,-0.05078125,-0.02734375,-0.03320312,0.001953125,0.03125,0,-0.0002441406,-0.005249023,0.004516602,0,0,-0.0009765625,0.3105164,4.076,0,0,0,0.2999878,nan,2,0.04,1,0,0.3078308,0.3479309,0.2634277,0.322937,0.002929688,0.004882812,0,1,2,0
384.709,0.001019,-0.02539062,-0.04882812,-0.05859375,-0.0078125,4.445312,13.01562,-0.08007812,0.02734375,-0.03125,0.001953125,0.03125,0,-0.0003662109,-0.005371094,0.004272461,0,0,-0.0009765625,0.3105164,4.076,0,0,0,0.2999878,nan,2,0.05,1,0,0.3105164,0.3120117,0.2735291,0.3460693,0.002929688,0.004882812,0,1,2,0
384.719,0.001013,0.06054688,-0.06054688,0.01757812,-0.1953125,1.546875,8.664062,0.02148438,-0.03125,0.02734375,0.005859375,0.03125,0,-0.0008544922,-0.005371094,0.004394531,0,0,-0.0009765625,0.3105164,4.076,0,0,0,0.2999878,nan,2,0.009,1,0,0.3486633,0.303009,0.3366089,0.2538147,0.002929688,0.004882812,0,1,2,0
384.729,0.001014,0.02539062,0.04492188,0.05273438,0.6484375,0.046875,9.960938,0,0.009765625,0.05664062,0.00390625,0.03320312,0,-0.0006103516,-0.005615234,0.004760742,0,0,-0.0009765625,0.3105164,4.076,0,0,0,0.2999878,nan,2,0.019,1,0,0.3779907,0.2434387,0.3646851,0.2559814,0.002929688,0.004882812,0,1,2,0.5555556
384.739,0.001007,-0.04492188,-0.078125,0.046875,0.1640625,-1.710938,9.164062,0.00390625,-0.03710938,0.0390625,0.001953125,0.03515625,0,-0.0002441406,-0.005859375,0.005249023,0,0,-0.0009765625,0.3105164,4.076,0,0,0,0.2999878,nan,2,0.029,1,0,0.3334656,0.3144531,0.2947998,0.299408,0.002929688,0.005859375,0,1,2,0.01587302
384.749,0.001012,0.06835938,-0.05273438,0.06835938,2.171875,-3.359375,8.8125,0.01953125,-0.0390625,0.04492188,0.001953125,0.03710938,0,-0.0003662109,-0.006103516,0.005493164,0,0,-0.0009765625,0.3105164,4.076,0,0,0,0.2999878,nan,2,0.039,1,0,0.3544922,0.2903137,0.3340454,0.2632446,0.002929688,0.005859375,0,1,2,0.6031746
384.759,0.00104,-0.05664062,0.04101562,0.0859375,1.476562,-2.039062,11.19531,0.005859375,-0.015625,0.03515625,0,0.0390625,0,-0.0001220703,-0.006591797,0.005859375,0,0,-0.0009765625,0.3105164,4.076,0,0,0,0.2999878,nan,2,0,1,0,0.3452148,0.2844849,0.3245544,0.2878418,0.002929688,0.005859375,0,1,2,0
384.769,0.001012,0.07421875,-0.09570312,0.03320312,0.140625,-2.539062,11.79688,0.015625,0.005859375,0.03710938,0,0.0390625,0,-0.0001220703,-0.006469727,0.006225586,0,0,-0.0009765625,0.3105164,4.076,0,0,0,0.2999878,nan,2,0.01,1,0,0.3246155,0.3128967,0.3133545,0.2912292,0.002929688,0.005859375,0,1,2,0
384.78,0.001012,-0.1386719,0.1074219,0.05859375,1.71875,-0.34375,10.15625,-0.09765625,0.0390625,0.03320312,0.00390625,0.03710938,0,-0.0007324219,-0.006347656,0.006591797,0,0,-0.0009765625,0.3105164,4.076,0,0,0,0.2999878,nan,2,0.02,1,0,0.3485107,0.273468,0.3103333,0.3098145,0.002929688,0.005859375,0,1,2,0
384.789,0.001011,-0.1171875,0.01171875,0.0390625,0.4921875,-1.84375,4.773438,-0.03710938,0.005859375,0.01757812,0.005859375,0.03710938,0,-0.0008544922,-0.006225586,0.006713867,0,0,-0.0009765625,0.3105164,4.076,0,0,0,0.2999878,nan,2,0.029,1,0,0.3285217,0.3078003,0.2949524,0.3108215,0.002929688,0.005859375,0,1,2,0
384.799,0.001011,-0.1015625,0.0078125,0.07421875,1.234375,-1.546875,5.75,-0.140625,0.03125,0.05273438,0.01171875,0.03515625,0,-0.001953125,-0.005859375,0.007080078,0,0,-0.0009765625,0.3105164,4.076,0,0,0,0.2999878,nan,2,0.039,1,0,0.3873901,0.2472534,0.3374634,0.2700195,0.002929688,0.005859375,0,1,2,0
384.809,0.001004,-0.1386719,0.03710938,0.04101562,0.4453125,-0.0078125,5.882812,-0.1777344,0.05664062,0.03320312,0.02148438,0.03320312,0,-0.003417969,-0.005493164,0.007568359,0,0,-0.0009765625,0.3105164,4.076,0,0,0,0.2999878,nan,2,0.049,1,0,0.3284302,0.2915344,0.2869873,0.3351746,0.002929688,0.005859375,0,1,2,0
384.819,0.000991,-0.07226562,0.03125,0.0234375,1.21875,-4.367188,5.859375,-0.05078125,0.02929688,0,0.02734375,0.03125,0,-0.004516602,-0.005126953,0.007568359,0,0,-0.0009765625,0.3105164,4.076,0,0,0,0.2999878,nan,2,0.008,1,0,0.3053894,0.3274841,0.2968445,0.3123779,0.002929688,0.005859375,0,1,2,0
384.829,0.001006,-0.1835938,0.0390625,-0.009765625,1.914062,-6.5,10.41406,-0.03710938,-0.01757812,-0.0078125,0.02929688,0.03125,0,-0.004760742,-0.005249023,0.007568359,0,0,-0.0009765625,0.3105164,4.076,0,0,0,0.2999878,nan,2,0.018,1,0,0.3188477,0.3205566,0.2770386,0.3256836,0.002929688,0.005859375,0,1,2,0
384.839,0.001013,0.04296875,-0.046875,-0.0078125,1.835938,0.796875,9.976562,0,-0.01953125,-0.01171875,0.03125,0.03320312,0,-0.005249023,-0.005493164,0.007324219,0,0,-0.0009765625,0.3105164,4.076,0,0,0,0.2999878,nan,2,0.028,1,0,0.3251953,0.3156738,0.3073425,0.2938843,0.002929688,0.005859375,0,1,2,0.2063492
384.849,0.00101,0.015625,0.03710938,-0.03320312,0.15625,1.617188,12.85938,0.01367188,-0.01367188,-0.015625,0.03125,0.03320312,0,-0.005126953,-0.005615234,0.007202148,0,0,-0.0009765625,0.3105164,4.076,0,0,0,0.2999878,nan,2,0.038,1,0,0.305603,0.3318176,0.2865906,0.3181152,0.002929688,0.005859375,0,1,2,0
384.86,0.001038,0.03320312,0.001953125,-0.03710938,-0.65625,6.007812,18.04688,-0.0078125,-0.0078125,-0.0234375,0.03125,0.03320312,0,-0.005126953,-0.005615234,0.007080078,0,0,-0.0009765625,0.3105164,4.076,0,0,0,0.2999878,nan,2,0.001,1,0,0.3049622,0.3349915,0.2713013,0.3308716,0.002929688,0.005859375,0,1,2,0
384.869,0.001044,0.2363281,-0.009765625,0.0234375,-1.257812,3.460938,7.6875,0.0546875,0.015625,-0.001953125,0.03125,0.03320312,0,-0.005004883,-0.005493164,0.007080078,0,0,-0.0009765625,0.3105164,4.076,0,0,0,0.2999878,nan,2,0.01,1,0,0.3213501,0.3114929,0.322113,0.2871094,0.002929688,0.005859375,0,1,2,0
384.879,0.00103,-0.09960938,0.06835938,0.078125,-1.109375,2.242188,11.59375,0,0.01757812,0.02148438,0.02734375,0.03320312,0,-0.004638672,-0.005493164,0.007080078,0,0,-0.0009765625,0.3105164,4.076,0,0,0,0.2999878,nan,2,0.02,1,0,0.3849487,0.2409363,0.3548889,0.261322,0.002929688,0.005859375,0,1,2,0
384.889,0.00101,0.1699219,0.02148438,0.03515625,-1.59375,1.28125,14.11719,0.1582031,-0.02539062,0.02734375,0.0234375,0.03515625,0,-0.00402832,-0.005737305,0.007202148,0,0,-0.0009765625,0.3105164,4.076,0,0,0,0.2999878,nan,2,0.03,1,0,0.3330383,0.3070679,0.3559875,0.2460327,0.002929688,0.005859375,0,1,2,0
384.899,0.00101,-0.03710938,-0.05859375,0.009765625,-1.140625,-1,16.86719,0.0546875,-0.00390625,0,0.01757812,0.03515625,0,-0.002929688,-0.005737305,0.007446289,0,0,-0.0009765625,0.3105164,4.076,0,0,0,0.2999878,nan,2,0.04,1,0,0.2933655,0.3439941,0.2579956,0.3467712,0.002929688,0.005859375,0,1,2,0
384.909,0.000984,0.1542969,-0.05664062,-0.01953125,-1.007812,2.296875,16.20312,0.06445312,-0.03710938,-0.0234375,0.015625,0.03515625,0,-0.002685547,-0.005859375,0.007324219,0,0,-0.0009765625,0.3105164,4.076,0,0,0,0.2999878,nan,2,0.05,1,0,0.2943726,0.3581543,0.2732544,0.3163147,0.002929688,0.005859375,0,1,2,0
384.919,0.000985,0.07617188,-0.05273438,-0.0703125,-0.9921875,5.203125,12.78906,0.05859375,-0.06054688,-0.0234375,0.009765625,0.0390625,0,-0.001708984,-0.006347656,0.007202148,0,0,-0.0009765625,0.3105164,4.076,0,0,0,0.2999878,nan,2,0.007,1,0,0.2811584,0.3702087,0.2431335,0.3475952,0.002929688,0.005859375,0,1,2,0
384.929,0.001025,-0.01367188,-0.046875,0.00390625,-2.046875,6.796875,12.60938,0,0,0,0.00390625,0.0390625,0,-0.0008544922,-0.006469727,0.007202148,0,0,-0.0009765625,0.3105164,4.076,0,0,0,0.2999878,nan,2,0.017,1,0,0.3454895,0.2878723,0.2967224,0.3120422,0.002929688,0.005859375,0,1,2,0
384.939,0.00101,-0.1074219,0,0.015625,-1.75,6.4375,11.97656,0.05273438,-0.0234375,0.005859375,0.001953125,0.04101562,0,-0.0001220703,-0.006713867,0.007080078,0,0,-0.0009765625,0.3105164,4.076,0,0,0,0.2999878,nan,2,0.027,1,0,0.3542786,0.2865601,0.324585,0.2766724,0.002929688,0.005859375,0,1,2,0
384.949,0.001008,-0.06640625,0.06640625,-0.015625,-1.8125,7.40625,13.84375,-0.04882812,0.01953125,0.02148438,0,0.04296875,0,0,-0.007080078,0.007324219,0,0,-0.0009765625,0.3105164,4.076,0,0,0,0.2999878,nan,2,0.037,1,0,0.3361206,0.2828064,0.299408,0.323761,0.002929688,0.005859375,0,1,2,0
384.959,0.000999,-0.07226562,0.015625,0.001953125,-1.632812,5.867188,9.90625,0.03125,-0.02929688,0.01953125,0.001953125,0.04296875,0,-0.0002441406,-0.007080078,0.007568359,0,0,-0.0009765625,0.3105164,4.076,0,0,0,0.2999878,nan,2,0.001,1,0,0.3031311,0.3453979,0.2851562,0.3083801,0.002929688,0.005859375,0,1,2,0
384.969,0.00101,-0.08789062,0.1230469,0.03125,-1.453125,5.328125,8.507812,0.01171875,0.00390625,0.02148438,-0.001953125,0.04296875,0,0.0001220703,-0.007324219,0.0078125,0,0,-0.0009765625,0.3105164,4.076,0,0,0,0.2999878,nan,2,0.011,1,0,0.3274841,0.3034363,0.3010559,0.3101196,0.002929688,0.006835938,0,1,2,0.3015873
384.98,0.00101,-0.1484375,0.01367188,0.0546875,-1.367188,2.773438,9.804688,-0.07617188,0.00390625,0.04492188,-0.001953125,0.04296875,0,0.0002441406,-0.007324219,0.008178711,0,0,-0.0009765625,0.3105164,4.076,0,0,0,0.2999878,nan,2,0.021,1,0,0.3808899,0.2516785,0.3209229,0.2886047,0.002929688,0.006835938,0,1,2,0.01587302
384.989,0.001047,0.1855469,-0.1523438,0.1132812,0.6015625,-0.7109375,11.9375,0.0234375,-0.03710938,0.08007812,0,0.04492188,0,0,-0.007324219,0.008666992,0,0,-0.0009765625,0.3105164,4.076,0,0,0,0.2999878,nan,2,0.03,1,0,0.3929443,0.2633972,0.3753662,0.2104187,0.002929688,0.006835938,0,1,2,0
384.999,0.00101,-0.005859375,-0.04101562,0.0546875,1.476562,-2.539062,10.58594,-0.02734375,-0.02539062,0.08007812,0,0.04492188,0,0,-0.00769043,0.009643555,0,0,-0.0009765625,0.3105164,4.074,0,0,0,0.2999878,nan,2,0.04,1,0,0.3369751,0.3084717,0.2971191,0.29953,0.002929688,0.006835938,0,1,2,0
385.009,0.001035,0.2265625,-0.2109375,0.1367188,2.085938,-5.546875,5.695312,0.05664062,-0.07617188,0.08398438,0.001953125,0.046875,0,-0.0001220703,-0.0078125,0.01025391,0,0,-0.0009765625,0.3105164,4.074,0,0,0,0.2999878,nan,2,0,1,0,0.3868713,0.2851868,0.3688354,0.2012329,0.002929688,0.006835938,0,1,2,0
385.019,0.00101,-0.03710938,-0.04492188,0.07226562,1.585938,-4.695312,7.21875,-0.06445312,-0.07421875,0.04101562,0.001953125,0.05273438,0,-0.0002441406,-0.008789062,0.01074219,0,0,-0.0009765625,0.3105164,4.074,0,0,0,0.2999878,nan,2,0.01,1,0,0.3465881,0.3007507,0.2911682,0.3036194,0.002929688,0.006835938,0,1,2,0
385.029,0.001006,-0.04101562,0.1503906,0.01171875,1.359375,-6.367188,11.46094,-0.08203125,0.09375,0.005859375,0.00390625,0.05273438,0,-0.0006103516,-0.008911133,0.01098633,0,0,-0.0009765625,0.3105164,4.074,0,0,0,0.2999878,nan,2,0.02,1,0,0.2755737,0.3163452,0.2734375,0.3767395,0.002929688,0.006835938,0,1,2,0
385.039,0.001009,0.1035156,0.09179688,0.04101562,1.898438,-3.875,8.890625,0.03125,0.015625,0.01367188,0.005859375,0.05273438,0,-0.001098633,-0.008666992,0.0111084,0,0,-0.0009765625,0.3105164,4.074,0,0,0,0.2999878,nan,2,0.03,1,0,0.3249817,0.3106384,0.330658,0.2758179,0.002929688,0.006835938,0,1,2,0.7142857
385.049,0.001008,-0.01367188,-0.0078125,-0.001953125,1.5625,-0.2109375,11.33594,0.005859375,0.00390625,-0.03125,0.005859375,0.05078125,0,-0.001098633,-0.008544922,0.01086426,0,0,-0.0009765625,0.3105164,4.074,0,0,0,0.2999878,nan,2,0.04,1,0,0.2861633,0.3552246,0.2655334,0.3352051,0.002929688,0.006835938,0,1,2,0
385.059,0.001036,-0.02539062,0.04296875,-0.01953125,0.25,2.046875,13.57812,-0.009765625,-0.001953125,-0.01171875,0.005859375,0.05273438,0,-0.001098633,-0.008666992,0.01074219,0,0,-0.0009765625,0.3105164,4.074,0,0,0,0.2999878,nan,2,0,1,0,0.3337097,0.303833,0.3038635,0.3006592,0.002929688,0.006835938,0,1,2,0
385.069,0.00101,-0.04101562,-0.05859375,0.015625,-0.84375,5.460938,15.95312,-0.009765625,-0.005859375,-0.005859375,0.0078125,0.05078125,0,-0.001342773,-0.008544922,0.01062012,0,0,-0.0009765625,0.3105164,4.074,0,0,0,0.2999878,nan,2,0.01,1,0,0.3413086,0.309082,0.3052979,0.2864075,0.002929688,0.006835938,0,1,2,0
385.079,0.001015,0.1679688,-0.005859375,0.009765625,-1.710938,4.453125,10.09375,0.015625,-0.009765625,0.00390625,0.009765625,0.05078125,0,-0.001464844,-0.008544922,0.01062012,0,0,-0.0009765625,0.3105164,4.074,0,0,0,0.2999878,nan,2,0.019,1,0,0.3204956,0.3240967,0.3059082,0.291626,0.002929688,0.006835938,0,1,2,0
385.089,0.001007,0.05859375,-0.01171875,0.05273438,-0.8125,3.554688,9.640625,0.04882812,-0.03710938,0.0390625,0.0078125,0.05273438,0,-0.001220703,-0.008789062,0.01086426,0,0,-0.0009765625,0.3105164,4.074,0,0,0,0.2999878,nan,2,0.029,1,0,0.3668213,0.2876282,0.3437805,0.2438965,0.002929688,0.006835938,0,1,2,0
385.099,0.001007,-0.1347656,0.0625,0.09570312,-1.132812,1.359375,13.29688,-0.1171875,0.04296875,0.0625,0.01171875,0.05078125,0,-0.002075195,-0.008544922,0.01123047,0,0,-0.0009765625,0.3105164,4.074,0,0,0,0.2999878,nan,2,0.039,1,0,0.4041138,0.2251892,0.3588867,0.2539062,0.002929688,0.006835938,0,1,2,0
385.109,0.000991,-0.015625,-0.1132812,0.0546875,-1.289062,-1.710938,14.4375,0.06640625,-0.03515625,0.06054688,0.01367188,0.04882812,0,-0.002197266,-0.008178711,0.01196289,0,0,-0.0009765625,0.3105164,4.074,0,0,0,0.2999878,nan,2,0.049,1,0,0.3293762,0.3414307,0.3042603,0.2670593,0.002929688,0.006835938,0,1,2,0
385.119,0.001002,-0.015625,-0.06054688,0.05664062,1.484375,0.890625,14.1875,-0.02734375,-0.07421875,0.0703125,0.01171875,0.05273438,0,-0.002075195,-0.008789062,0.01257324,0,0,-0.0009765625,0.3105164,4.074,0,0,0,0.2999878,nan,2,0.008,1,0,0.37323,0.2862854,0.3129578,0.2695923,0.002929688,0.006835938,0,1,2,0
385.129,0.001006,-0.1464844,0.1484375,0.02929688,1.117188,-1.3125,10,-0.0078125,0.06054688,0.02539062,0.01367188,0.0546875,0,-0.002075195,-0.009033203,0.01306152,0,0,-0.0009765625,0.3105164,4.074,0,0,0,0.2999878,nan,2,0.018,1,0,0.2774963,0.3263855,0.2792969,0.3589172,0.002929688,0.0078125,0,1,2,0.2063492
385.139,0.001002,0.08398438,0.01757812,-0.046875,1.039062,-0.7109375,7.992188,0.1074219,-0.00390625,0,0.009765625,0.05078125,0,-0.001708984,-0.008666992,0.01330566,0,0,-0.0009765625,0.3105164,4.074,0,0,0,0.2999878,nan,2,0.028,1,0,0.2576599,0.3959351,0.2504578,0.3380737,0.002929688,0.0078125,0,1,2,0
385.149,0.001027,-0.01757812,0.0625,0.009765625,-0.296875,0.515625,14.40625,0.01367188,-0.02148438,-0.03125,0.009765625,0.05273438,0,-0.001464844,-0.008789062,0.01293945,0,0,-0.0009765625,0.3105164,4.074,0,0,0,0.2999878,nan,2,0.038,1,0,0.322937,0.320282,0.2923889,0.306488,0.002929688,0.0078125,0,1,2,0
385.159,0.001038,0.04882812,-0.07617188,-0.01367188,-2.1875,2.96875,14.83594,0.02539062,-0.03125,-0.01953125,0.0078125,0.05273438,0,-0.001464844,-0.008911133,0.01281738,0,0,-0.0009765625,0.3105164,4.074,0,0,0,0.2999878,nan,2,0.048,1,0,0.3231201,0.3320007,0.2893677,0.2976379,0.002929688,0.0078125,0,1,2,0
385.169,0.000972,0.1347656,-0.04101562,0.01953125,-3.03125,5,12.375,0.001953125,-0.00390625,0.001953125,0.009765625,0.05273438,0,-0.001464844,-0.008911133,0.01269531,0,0,-0.0009765625,0.3105164,4.074,0,0,0,0.2999878,nan,2,0.059,1,0,0.34198,0.3015442,0.3180237,0.2805786,0.002929688,0.0078125,0,1,2,0
385.18,0.001018,0.1601562,0.009765625,-0.04492188,-1.859375,4.992188,12.42188,0.0546875,0.01171875,-0.0234375,0.005859375,0.0546875,0,-0.001098633,-0.009033203,0.01281738,0,0,-0.0009765625,0.3105164,4.074,0,0,0,0.2999878,nan,2,0.069,1,0,0.2513428,0.3834229,0.2456055,0.3617249,0.002929688,0.0078125,0,1,2,0
385.189,0.001033,-0.1230469,-0.0546875,0.0546875,-1.570312,5.59375,8.414062,-0.05078125,0.01171875,0.03515625,0.005859375,0.0546875,0,-0.001098633,-0.009033203,0.01293945,0,0,-0.0009765625,0.3105164,4.074,0,0,0,0.2999878,nan,2,0.078,1,0,0.3904419,0.2503357,0.3373413,0.2639771,0.002929688,0.0078125,0,1,2,0.1428571
385.199,0.001042,-0.08203125,-0.08398438,0.03320312,-1.726562,2.8125,8.460938,-0.05664062,-0.03125,0.0390625,0.009765625,0.0546875,0,-0.001586914,-0.009033203,0.01342773,0,0,-0.0009765625,0.3105164,4.074,0,0,0,0.2999878,nan,2,0.088,1,0,0.3438721,0.3177185,0.2889404,0.2915955,0.002929688,0.0078125,0,1,2,0
385.209,0.00101,-0.05273438,-0.0234375,-0.00390625,-1.234375,0.453125,8.960938,-0.03710938,-0.00390625,-0.005859375,0.009765625,0.0546875,0,-0.002441406,-0.008911133,0.0135498,0,0,-0.0009765625,0,4.074,0,0,0,0,nan,2,0.009,1,0,0.1000061,0.1000061,0.1000061,0.1000061,0,0,0,1,2,0
385.219,0.000999,-0.001953125,-0.06054688,-0.00390625,0.7734375,-0.953125,5.898438,0.02539062,0,0.0078125,0.009765625,0.0546875,0,-0.002563477,-0.008789062,0.0135498,0,0,-0.0009765625,0,4.074,0,0,0,0,nan,2,0.019,1,0,0.1000061,0.1000061,0.1000061,0.1000061,0,0,0,1,2,0
385.229,0.0009860001,-0.0390625,0.01757812,0.01171875,-1.757812,3.164062,13.52344,-0.009765625,0.01171875,0.01367188,0.009765625,0.0546875,0,-0.002441406,-0.008789062,0.01367188,0,0,-0.0009765625,0,4.074,0,0,0,0,nan,2,0.029,1,0,0.1000061,0.1000061,0.1000061,0.1000061,0,0,0,1,2,0
385.239,0.001022,0.02539062,0.00390625,0.03125,-1.3125,2.59375,13.13281,-0.01171875,-0.001953125,0.00390625,0.009765625,0.0546875,0,-0.002441406,-0.008789062,0.01367188,0,0,-0.0009765625,0,4.074,0,0,0,0,nan,2,0.007,1,0,0.1000061,0.1000061,0.1000061,0.1000061,0,0,0,1,2,0
385.249,0.001024,0.07617188,0.0078125,0.02734375,-1.085938,0.5390625,12.65625,0.0234375,0.00390625,0.01953125,0.009765625,0.0546875,0,-0.002563477,-0.008789062,0.01379395,0,0,-0.0009765625,0,4.074,0,0,0,0,nan,2,0.017,1,0,0.1000061,0.1000061,0.1000061,0.1000061,0,0,0,1,2,0
385.259,0.001015,0.05273438,-0.08007812,0.04101562,0.859375,0.9765625,9.15625,0.02929688,-0.009765625,0.03515625,0.009765625,0.0546875,0,-0.002441406,-0.008666992,0.01403809,0,0,-0.0009765625,0,4.074,0,0,0,0,nan,2,0.027,1,0,0.1000061,0.1000061,0.1000061,0.1000061,0,0,0,1,2,0
385.269,0.001009,-0.0390625,-0.02734375,0.06054688,-0.4453125,-4.445312,6.265625,0.03320312,-0.01171875,0.05273438,0.009765625,0.0546875,0,-0.001953125,-0.008789062,0.01464844,0,0,-0.0009765625,0,4.074,0,0,0,0,nan,2,0.007,1,0,0.1000061,0.1000061,0.1000061,0.1000061,0,0,0,1,2,0
385.28,0.001014,0.01367188,0.009765625,0.03515625,-0.1015625,4.328125,13.39062,-0.00390625,0.01367188,0.04296875,0.009765625,0.0546875,0,-0.001953125,-0.008666992,0.01513672,0,0,-0.0009765625,0,4.074,0,0,0,0,nan,2,0.017,1,0,0.1000061,0.1000061,0.1000061,0.1000061,0,0,0,1,2,0
385.289,0.00101,0.0390625,-0.046875,-0.015625,0.015625,1.539062,7.875,-0.02148438,-0.001953125,0.005859375,0.009765625,0.0546875,0,-0.002197266,-0.008666992,0.01538086,0,0,-0.0009765625,0,4.074,0,0,0,0,nan,2,0.027,1,0,0.1000061,0.1000061,0.1000061,0.1000061,0,0,0,1,2,0
385.299,0.001015,-0.01367188,0.0078125,-0.04101562,1.640625,-0.375,13.35938,0.009765625,-0.00390625,-0.0234375,0.009765625,0.0546875,0,-0.002197266,-0.008789062,0.01525879,0,0,-0.0009765625,0,4.074,0,0,0,0,nan,2,0.036,1,0,0.1000061,0.1000061,0.1000061,0.1000061,0,0,0,1,2,0
385.309,0.001011,-0.0390625,0.015625,-0.02734375,2.6875,4.445312,19.6875,-0.001953125,0,-0.03710938,0.009765625,0.0546875,0,-0.002075195,-0.008789062,0.01489258,0,0,-0.0009765625,0,4.074,0,0,0,0,nan,2,0.009,1,0,0.1000061,0.1000061,0.1000061,0.1000061,0,0,0,1,2,0
385.319,0.001043,0.03710938,0.005859375,-0.04101562,-1.289062,2.367188,12.90625,0.009765625,0.005859375,-0.03320312,0.009765625,0.0546875,0,-0.001953125,-0.008789062,0.01464844,0,0,-0.0009765625,0,4.074,0,0,0,0,nan,2,0.019,1,0,0.1000061,0.1000061,0.1000061,0.1000061,0,0,0,1,2,0
385.329,0.001007,-0.009765625,-0.00390625,-0.009765625,-0.75,5.085938,13.1875,-0.009765625,-0.005859375,-0.01367188,0.009765625,0.0546875,0,-0.001953125,-0.008911133,0.0144043,0,0,-0.0009765625,0,4.074,0,0,0,0,nan,2,0.029,1,0,0.1000061,0.1000061,0.1000061,0.1000061,0,0,0,1,2,0
385.339,0.001042,0.005859375,-0.005859375,0.06445312,0.515625,-1.226562,7.101562,-0.00390625,0.005859375,0.02929688,0.009765625,0.0546875,0,-0.001831055,-0.008911133,0.0144043,0,0,-0.0009765625,0,4.074,0,0,0,0,nan,2,0.009,0,0,0,0,0,0,0,0,0,1,2,0
385.349,0.001023,0.001953125,0.02539062,0.05078125,-0.9453125,-3.429688,9.773438,0.01757812,-0.005859375,0.04296875,0.009765625,0.0546875,0,-0.001708984,-0.008911133,0.01489258,0,0,0.01489258,0,4.074,0,0,0,0,nan,2,0.019,0,0,0,0,0,0,0,0,0,1,2,1
385.359,0.001011,0.005859375,0.0078125,0.03515625,0.5234375,5.375,11.84375,0.0078125,-0.0234375,0.04492188,0.009765625,0.0546875,0,-0.001831055,-0.009033203,0.01538086,0,0,0.01538086,0,4.074,0,0,0,0,nan,2,0.029,0,0,0,0,0,0,0,0,0,1,2,0
385.369,0.001011,-0.01953125,-0.001953125,-0.009765625,-0.1640625,1.40625,6.53125,0.01367188,-0.001953125,0.009765625,0.009765625,0.0546875,0,-0.001708984,-0.009033203,0.015625,0,0,0.015625,0,4.074,0,0,0,0,nan,2,0.039,0,0,0,0,0,0,0,0,0,1,2,0
385.379,0.001007,0.02734375,-0.03320312,-0.05664062,0.453125,0.0703125,3.609375,0.00390625,-0.00390625,-0.03710938,0.009765625,0.0546875,0,-0.001953125,-0.009033203,0.01538086,0,0,0.01538086,0,4.074,0,0,0,0,nan,2,0.049,0,0,0,0,0,0,0,0,0,1,2,0
385.389,0.001007,-0.02734375,0.0234375,-0.08007812,1.1875,3.054688,7.382812,-0.03125,0.009765625,-0.07226562,0.009765625,0.0546875,0,-0.002075195,-0.009033203,0.01477051,0,0,0.01477051,0,4.074,0,0,0,0,nan,2,0.06,0,0,0,0,0,0,0,0,0,1,2,0
385.4,0.00101,-0.001953125,0.0234375,-0.06640625,0.15625,-0.5859375,12.09375,0.00390625,0.0078125,-0.08007812,0.009765625,0.0546875,0,-0.002197266,-0.008911133,0.01391602,0,0,0.01391602,0,4.074,0,0,0,0,nan,2,0.07,0,0,0,0,0,0,0,0,0,1,2,0
385.409,0.00101,0.001953125,-0.005859375,-0.0703125,0.359375,0.2734375,12.70312,0.01757812,-0.001953125,-0.06835938,0.009765625,0.0546875,0,-0.002075195,-0.008911133,0.01330566,0,0,0.01330566,0,4.074,0,0,0,0,nan,2,0.079,0,0,0,0,0,0,0,0,0,1,2,0
385.419,0.00101,0.03515625,0.04492188,-0.01757812,-0.7890625,1.0625,10.79688,0.01171875,0.0078125,-0.0390625,0.009765625,0.0546875,0,-0.001831055,-0.008911133,0.01269531,0,0,0.01269531,0,4.074,0,0,0,0,nan,2,0.089,0,0,0,0,0,0,0,0,0,1,2,0
385.429,0.000998,-0.01367188,0.04101562,0.05078125,0.5546875,0.140625,10.69531,0.009765625,0.01171875,0.03515625,0.009765625,0.0546875,0,-0.001708984,-0.009033203,0.01269531,0,0,0.01269531,0,4.074,0,0,0,0,nan,2,0.099,0,0,0,0,0,0,0,0,0,1,2,1
385.439,0.001027,-0.015625,-0.01367188,0.03125,0.375,-0.03125,10.94531,0.00390625,-0.01171875,0.0234375,0.009765625,0.0546875,0,-0.001708984,-0.009033203,0.01306152,0,0,0.01306152,0,4.074,0,0,0,0,nan,2,0.109,0,0,0,0,0,0,0,0,0,1,2,0
385.449,0.000999,-0.08007812,-0.015625,0.01757812,-0.3984375,-0.0390625,9.640625,-0.01757812,0.009765625,0.02539062,0.009765625,0.0546875,0,-0.001831055,-0.009033203,0.01330566,0,0,0.01330566,0,4.074,0,0,0,0,nan,2,0.119,0,0,0,0,0,0,0,0,0,1,2,1
385.459,0.001006,-0.01171875,-0.005859375,0.02148438,0.7734375,0.4453125,12.00781,-0.01367188,-0.001953125,0.02734375,0.009765625,0.0546875,0,-0.001953125,-0.009033203,0.0135498,0,0,0.0135498,0,4.074,0,0,0,0,nan,2,0.129,0,0,0,0,0,0,0,0,0,1,2,0
385.469,0.00101,-0.04296875,-0.07226562,0.009765625,-0.0859375,0.9921875,4.835938,0.01171875,-0.009765625,0.0078125,0.009765625,0.0546875,0,-0.001831055,-0.009033203,0.01379395,0,0,0.01379395,0,4.074,0,0,0,0,nan,2,0.139,0,0,0,0,0,0,0,0,0,1,2,0
385.479,0.000995,0.04492188,-0.06835938,-0.01171875,-0.2578125,-1.6875,6.742188,0.01367188,-0.0234375,-0.009765625,0.009765625,0.0546875,0,-0.001831055,-0.009033203,0.01379395,0,0,0.01379395,0,4.074,0,0,0,0,nan,2,0.149,0,0,0,0,0,0,0,0,0,1,2,0
385.489,0.001029,-0.08984375,0.015625,0.00390625,1.78125,-3.742188,8.421875,-0.03710938,0.0078125,-0.009765625,0.009765625,0.0546875,0,-0.001831055,-0.009033203,0.0135498,0,0,0.0135498,0,4.074,0,0,0,0,nan,2,0.16,0,0,0,0,0,0,0,0,0,1,2,1
385.5,0.00101,0.06445312,0.04101562,-0.02734375,-0.09375,1.023438,13.24219,0.005859375,0.005859375,-0.02734375,0.009765625,0.0546875,0,-0.001831055,-0.009033203,0.01342773,0,0,0.01342773,0,4.074,0,0,0,0,nan,2,0.17,0,0,0,0,0,0,0,0,0,1,2,0
385.51,0.00101,0.04492188,0.04101562,-0.04882812,0.1015625,0.8203125,13.02344,0.01171875,0.015625,-0.03515625,0.009765625,0.0546875,0,-0.001831055,-0.009033203,0.01306152,0,0,0.01306152,0,4.074,0,0,0,0,nan,2,0.18,0,0,0,0,0,0,0,0,0,1,2,0
385.519,0.001029,0.04492188,0.02148438,-0.02929688,-0.265625,-1.132812,14.92969,0.01757812,0.001953125,-0.02929688,0.009765625,0.0546875,0,-0.001586914,-0.009033203,0.01281738,0,0,0.01281738,0,4.074,0,0,0,0,nan,2,0.189,0,0,0,0,0,0,0,0,0,1,2,0
385.529,0.001011,-0.04296875,-0.01171875,-0.01757812,0.234375,1.234375,10.125,-0.01953125,0.005859375,-0.02539062,0.009765625,0.0546875,0,-0.001586914,-0.009033203,0.01245117,0,0,0.01245117,0,4.074,0,0,0,0,nan,2,0.199,0,0,0,0,0,0,0,0,0,1,2,1
385.539,0.000997,-0.04101562,-0.01367188,-0.04882812,-0.09375,2.546875,4.304688,-0.01171875,-0.005859375,-0.02539062,0.009765625,0.0546875,0,-0.001464844,-0.009033203,0.01220703,0,0,0.01220703,0,4.074,0,0,0,0,nan,2,0.209,0,0,0,0,0,0,0,0,0,1,2,0
385.549,0.001028,0.05078125,0.001953125,-0.04296875,1.546875,3.4375,7.226562,0.009765625,0.0078125,-0.02148438,0.009765625,0.0546875,0,-0.001586914,-0.008911133,0.01208496,0,0,0.01208496,0,4.074,0,0,0,0,nan,2,0.219,0,0,0,0,0,0,0,0,0,1,2,0
385.559,0.00101,0.01171875,0,0.015625,0.390625,0.4921875,10.71875,0,-0.009765625,0,0.009765625,0.0546875,0,-0.001464844,-0.009033203,0.01196289,0,0,0.01196289,0,4.074,0,0,0,0,nan,2,0.229,0,0,0,0,0,0,0,0,0,1,2,1
385.569,0.001009,-0.01953125,-0.02539062,0.01953125,-0.28125,-1.976562,12.28906,-0.009765625,-0.005859375,0.001953125,0.009765625,0.0546875,0,-0.001464844,-0.009033203,0.01196289,0,0,0.01196289,0,4.074,0,0,0,0,nan,2,0.239,0,0,0,0,0,0,0,0,0,1,2,0
385.579,0.00101,-0.05273438,0,0.01367188,1.335938,-0.5859375,7.476562,0,0.005859375,0.0078125,0.009765625,0.0546875,0,-0.001586914,-0.009155273,0.01208496,0,0,0.01208496,0,4.074,0,0,0,0,nan,2,0.249,0,0,0,0,0,0,0,0,0,1,2,0
385.589,0.001025,0.03710938,0.00390625,-0.005859375,0.1171875,2.859375,10.23438,0.0078125,0.00390625,-0.001953125,0.009765625,0.0546875,0,-0.001586914,-0.009033203,0.01196289,0,0,0.01196289,0,4.074,0,0,0,0,nan,2,0.26,0,0,0,0,0,0,0,0,0,1,2,1
385.6,0.000993,-0.01953125,-0.015625,0.0234375,1.976562,0.5390625,9.40625,-0.01953125,0.005859375,0.0078125,0.009765625,0.0546875,0,-0.001708984,-0.009033203,0.01196289,0,0,0.01196289,0,4.074,0,0,0,0,nan,2,0.27,0,0,0,0,0,0,0,0,0,1,2,1
385.61,0.001009,-0.01757812,0.0078125,0.02929688,-2.59375,0.0078125,8.53125,0,-0.001953125,0.0234375,0.009765625,0.0546875,0,-0.001708984,-0.009033203,0.01220703,0,0,0.01220703,0,4.074,0,0,0,0,nan,2,0.28,0,0,0,0,0,0,0,0,0,1,2,1
385.619,0.001007,-0.02929688,0.03320312,0.02929688,-2.226562,-0.7421875,8.351562,-0.01171875,0.00390625,0.01953125,0.009765625,0.0546875,0,-0.001708984,-0.009033203,0.0123291,0,0,0.0123291,0,4.074,0,0,0,0,nan,2,0.289,0,0,0,0,0,0,0,0,0,1,2,0
385.629,0.00101,-0.02734375,0,0.01757812,0.1015625,1.054688,9.476562,-0.015625,0.005859375,0.01757812,0.009765625,0.0546875,0,-0.001831055,-0.009033203,0.01257324,0,0,0.01257324,0,4.074,0,0,0,0,nan,2,0.299,0,0,0,0,0,0,0,0,0,1,2,1
385.639,0.00102,-0.02148438,0.04492188,0.03320312,-0.515625,-0.640625,9.328125,0.001953125,0.0078125,0.009765625,0.009765625,0.0546875,0,-0.001953125,-0.008911133,0.01269531,0,0,0.01269531,0,4.074,0,0,0,0,nan,2,0.309,0,0,0,0,0,0,0,0,0,1,2,1
385.649,0.001004,-0.01757812,0,0.02734375,0.546875,-1.867188,9.804688,-0.01757812,-0.001953125,0.005859375,0.009765625,0.0546875,0,-0.001953125,-0.008789062,0.01269531,0,0,0.01269531,0,4.077,0,0,0,0,nan,2,0.319,0,0,0,0,0,0,0,0,0,1,2,1
385.659,0.00101,-0.03515625,-0.03710938,-0.00390625,0.4765625,-2.25,8.695312,-0.01171875,-0.00390625,-0.001953125,0.009765625,0.0546875,0,-0.001953125,-0.008789062,0.01269531,0,0,0.01269531,0,4.077,0,0,0,0,nan,2,0.329,0,0,0,0,0,0,0,0,0,1,2,1
385.669,0.001046,0.001953125,-0.01757812,0.005859375,-0.140625,0.140625,9.484375,-0.0078125,-0.005859375,-0.0078125,0.009765625,0.0546875,0,-0.001953125,-0.008789062,0.01257324,0,0,0.01257324,0,4.077,0,0,0,0,nan,2,0.339,0,0,0,0,0,0,0,0,0,1,2,1
385.679,0.001009,0.0234375,-0.03515625,-0.0078125,0.0859375,-0.765625,9.679688,-0.00390625,-0.001953125,-0.001953125,0.009765625,0.0546875,0,-0.002075195,-0.008789062,0.01257324,0,0,0.01257324,0,4.077,0,0,0,0,nan,2,0.349,0,0,0,0,0,0,0,0,0,1,2,1
385.689,0.000981,-0.02539062,0.07226562,0.01953125,-0.953125,-1.28125,9.976562,-0.01757812,0.01171875,0.005859375,0.009765625,0.0546875,0,-0.002075195,-0.008789062,0.01257324,0,0,0.01257324,0,4.077,0,0,0,0,nan,2,0.36,0,0,0,0,0,0,0,0,0,1,2,1
385.699,0.000994,0.04492188,-0.009765625,-0.02539062,0.3984375,0.96875,9.257812,0.01367188,-0.0078125,-0.00390625,0.009765625,0.0546875,0,-0.002075195,-0.008789062,0.01257324,0,0,0.01257324,0,4.077,0,0,0,0,nan,2,0.369,0,0,0,0,0,0,0,0,0,1,2,1
385.709,0.001024,0.02148438,-0.01367188,0.03125,-0.796875,-0.5546875,9.523438,0.00390625,0,0.00390625,0.009765625,0.0546875,0,-0.002075195,-0.008789062,0.01257324,0,0,0.01257324,0,4.077,0,0,0,0,nan,2,0.379,0,0,0,0,0,0,0,0,0,1,2,1
385.719,0.000943,-0.01367188,-0.03515625,-0.02539062,-0.25,-0.125,9.882812,0.00390625,0.00390625,-0.00390625,0.009765625,0.0546875,0,-0.002075195,-0.008789062,0.01257324,0,0,0.01257324,0,4.077,0,0,0,0,nan,2,0.389,0,0,0,0,0,0,0,0,0,1,2,1
385.729,0.000958,0.005859375,-0.03320312,0.01367188,0.859375,0.40625,8.835938,0.009765625,-0.01171875,0.00390625,0.009765625,0.0546875,0,-0.001953125,-0.008666992,0.01257324,0,0,0.01257324,0,4.077,0,0,0,0,nan,2,0.399,0,0,0,0,0,0,0,0,0,1,2,1
385.739,0.001023,-0.05273438,-0.0078125,0.01171875,0.859375,-0.0546875,9.351562,-0.00390625,0,0.001953125,0.009765625,0.0546875,0,-0.001953125,-0.008666992,0.01257324,0,0,0.01257324,0,4.077,0,0,0,0,nan,2,0.409,0,0,0,0,0,0,0,0,0,1,2,1
385.749,0.001007,-0.0078125,-0.015625,0.0234375,-0.234375,-0.1953125,9.296875,0.00390625,-0.005859375,-0.001953125,0.009765625,0.0546875,0,-0.001953125,-0.008789062,0.01257324,0,0,0.01257324,0,4.077,0,0,0,0,nan,2,0.419,0,0,0,0,0,0,0,0,0,1,2,1
385.759,0.001006,0.02929688,-0.0078125,0.01367188,0.21875,-0.546875,9.921875,0.005859375,-0.005859375,0.00390625,0.009765625,0.0546875,0,-0.001953125,-0.008789062,0.01245117,0,0,0.01245117,0,4.077,0,0,0,0,nan,2,0.429,0,0,0,0,0,0,0,0,0,1,2,1
385.769,0.001006,0.01757812,0.00390625,-0.0078125,0.2421875,-0.234375,9.71875,0.001953125,0.001953125,0.005859375,0.009765625,0.0546875,0,-0.001953125,-0.008666992,0.01257324,0,0,0.01257324,0,4.077,0,0,0,0,nan,2,0.439,0,0,0,0,0,0,0,0,0,1,2,1
385.779,0.001006,-0.0078125,-0.00390625,0.005859375,-0.421875,-0.2421875,10.01562,0,0,-0.001953125,0.009765625,0.0546875,0,-0.001953125,-0.008666992,0.01257324,0,0,0.01257324,0,4.077,0,0,0,0,nan,2,0.449,0,0,0,0,0,0,0,0,0,1,2,1
385.789,0.001006,0.001953125,0.009765625,0.009765625,0.3515625,0.1484375,9.640625,-0.001953125,0,0.00390625,0.009765625,0.0546875,0,-0.001953125,-0.008666992,0.01245117,0,0,0.01245117,0,4.077,0,0,0,0,nan,2,0.46,0,0,0,0,0,0,0,0,0,1,2,1
385.8,0.001006,0.001953125,-0.00390625,0.001953125,-0.453125,-0.1015625,10.125,-0.001953125,0,0,0.009765625,0.0546875,0,-0.001953125,-0.008666992,0.01257324,0,0,0.01257324,0,4.077,0,0,0,0,nan,2,0.47,0,0,0,0,0,0,0,0,0,1,2,1
385.809,0.001014,0.0078125,-0.015625,0.015625,-0.546875,-0.296875,9.625,0.001953125,-0.005859375,0.001953125,0.009765625,0.0546875,0,-0.002075195,-0.008666992,0.01257324,0,0,0.01257324,0,4.077,0,0,0,0,nan,2,0.479,0,0,0,0,0,0,0,0,0,1,2,1
385.819,0.001014,-0.009765625,0.009765625,-0.001953125,0.4375,0.1484375,9.875,-0.00390625,0.00390625,0.001953125,0.009765625,0.0546875,0,-0.002075195,-0.008544922,0.01257324,0,0,0.01257324,0,4.077,0,0,0,0,nan,2,0.489,0,0,0,0,0,0,0,0,0,1,2,1
385.829,0.001014,-0.0078125,0.0078125,-0.0234375,0.1875,0.0390625,10.05469,-0.00390625,0.00390625,-0.005859375,0.009765625,0.0546875,0,-0.002075195,-0.008544922,0.01257324,0,0,0.01257324,0,4.077,0,0,0,0,nan,2,0.499,0,0,0,0,0,0,0,0,0,1,2,1
385.839,0.001019,0.001953125,-0.0078125,0.0078125,0.078125,0.0546875,9.960938,-0.00390625,-0.001953125,0,0.009765625,0.0546875,0,-0.002075195,-0.008544922,0.01245117,0,0,0.01245117,0,4.077,0,0,0,0,nan,2,0.509,0,0,0,0,0,0,0,0,0,1,2,1
385.849,0.001005,0.00390625,0.001953125,-0.01367188,0.1171875,-0.2109375,9.78125,0,0.001953125,-0.00390625,0.009765625,0.0546875,0,-0.002075195,-0.008422852,0.01257324,0,0,0.01257324,0,4.077,0,0,0,0,nan,2,0.519,0,0,0,0,0,0,0,0,0,1,2,1
385.859,0.001014,0.01171875,-0.00390625,0.005859375,0.09375,0.0703125,9.804688,0.001953125,-0.00390625,0,0.009765625,0.0546875,0,-0.002075195,-0.008422852,0.01245117,0,0,0.01245117,0,4.077,0,0,0,0,nan,2,0.529,0,0,0,0,0,0,0,0,0,1,2,1
385.869,0.001014,-0.00390625,0.001953125,-0.02734375,0.0859375,-0.0546875,9.929688,0.001953125,-0.001953125,0.001953125,0.009765625,0.0546875,0,-0.002075195,-0.008422852,0.01257324,0,0,0.01257324,0,4.077,0,0,0,0,nan,2,0.539,0,0,0,0,0,0,0,0,0,1,2,1
385.879,0.001014,-0.001953125,-0.00390625,-0.01171875,-0.03125,0.171875,9.820312,-0.00390625,-0.001953125,-0.0078125,0.009765625,0.0546875,0,-0.002075195,-0.008422852,0.01245117,0,0,0.01245117,0,4.077,0,0,0,0,nan,2,0.549,0,0,0,0,0,0,0,0,0,1,2,1
385.889,0.001014,-0.001953125,0.005859375,0.01953125,0.109375,-0.1796875,10.03125,0.001953125,0.001953125,0.009765625,0.009765625,0.0546875,0,-0.002075195,-0.008422852,0.01257324,0,0,0.01257324,0,4.077,0,0,0,0,nan,2,0.56,0,0,0,0,0,0,0,0,0,1,2,1
385.9,0.001014,0.0078125,-0.001953125,0.001953125,0.1328125,0.0625,9.921875,0,0.001953125,-0.005859375,0.009765625,0.0546875,0,-0.002075195,-0.008300781,0.01257324,0,0,0.01257324,0,4.077,0,0,0,0,nan,2,0.57,0,0,0,0,0,0,0,0,0,1,2,1
385.909,0.001011,0.001953125,0.001953125,0.001953125,-0.125,-0.234375,9.726562,0.001953125,-0.001953125,0.00390625,0.009765625,0.0546875,0,-0.002075195,-0.008300781,0.01257324,0,0,0.01257324,0,4.077,0,0,0,0,nan,2,0.579,0,0,0,0,0,0,0,0,0,1,2,1
385.919,0.001011,-0.001953125,0,0.00390625,0.2265625,-0.046875,9.875,0,0.001953125,0.001953125,0.009765625,0.0546875,0,-0.002075195,-0.008300781,0.01257324,0,0,0.01257324,0,4.077,0,0,0,0,nan,2,0.589,0,0,0,0,0,0,0,0,0,1,2,1
385.929,0.001011,0.001953125,0.0078125,-0.015625,0.0625,0.0390625,9.976562,0,0.001953125,-0.00390625,0.009765625,0.0546875,0,-0.002075195,-0.008300781,0.01257324,0,0,0.01257324,0,4.077,0,0,0,0,nan,2,0.599,0,0,0,0,0,0,0,0,0,1,2,1
385.939,0.001013,0,-0.00390625,0.001953125,0.109375,0,9.859375,-0.001953125,0,-0.001953125,0.009765625,0.0546875,0,-0.002075195,-0.008300781,0.01245117,0,0,0.01245117,0,4.077,0,0,0,0,nan,2,0.609,0,0,0,0,0,0,0,0,0,1,2,1
385.949,0.001014,0.00390625,0.0078125,0,-0.0703125,0.0078125,9.882812,0.001953125,0.001953125,0,0.009765625,0.0546875,0,-0.002075195,-0.008178711,0.01257324,0,0,0.01257324,0,4.077,0,0,0,0,nan,2,0.619,0,0,0,0,0,0,0,0,0,1,2,1
385.959,0.001009,0,-0.00390625,0.00390625,0.0703125,-0.078125,9.835938,0,0,0,0.009765625,0.0546875,0,-0.002075195,-0.008178711,0.01245117,0,0,0.01245117,0,4.077,0,0,0,0,nan,2,0.629,0,0,0,0,0,0,0,0,0,1,2,1
385.969,0.001011,0,0.00390625,0,-0.0234375,-0.0078125,9.828125,0,0,0.00390625,0.009765625,0.0546875,0,-0.002075195,-0.008178711,0.01245117,0,0,0.01245117,0,4.077,0,0,0,0,nan,2,0.639,0,0,0,0,0,0,0,0,0,1,2,1
385.979,0.001011,-0.001953125,-0.001953125,-0.00390625,0.1015625,-0.0390625,9.804688,0.001953125,0.001953125,-0.001953125,0.009765625,0.0546875,0,-0.002075195,-0.008056641,0.01245117,0,0,0.01245117,0,4.077,0,0,0,0,nan,2,0.649,0,0,0,0,0,0,0,0,0,1,2,1
385.989,0.001011,0.001953125,0.001953125,0,0,-0.015625,9.90625,0,-0.001953125,0,0.009765625,0.0546875,0,-0.002075195,-0.008056641,0.01245117,0,0,0.01245117,0,4.077,0,0,0,0,nan,2,0.66,0,0,0,0,0,0,0,0,0,1,2,1
386,0.001011,-0.001953125,0.001953125,0.001953125,0.078125,-0.0234375,9.875,0,0.001953125,0,0.009765625,0.0546875,0,-0.002075195,-0.008056641,0.01245117,0,0,0.01245117,0,4.077,0,0,0,0,nan,2,0.67,0,0,0,0,0,0,0,0,0,1,2,1
386.009,0.001009,-0.001953125,0,0.00390625,-0.0390625,-0.046875,9.851562,-0.001953125,0,0,0.009765625,0.0546875,0,-0.002075195,-0.008056641,0.01245117,0,0,0.01245117,0,4.077,0,0,0,0,nan,2,0.679,0,0,0,0,0,0,0,0,0,1,2,1
386.019,0.000965,-0.001953125,0.001953125,0,0.09375,-0.03125,9.835938,-0.001953125,0.001953125,0,0.009765625,0.0546875,0,-0.002075195,-0.008056641,0.01245117,0,0,0.01245117,0,4.077,0,0,0,0,nan,2,0.689,0,0,0,0,0,0,0,0,0,1,2,1
386.029,0.001009,-0.00390625,-0.001953125,-0.0078125,0.015625,0.015625,9.851562,-0.001953125,-0.001953125,-0.001953125,0.009765625,0.0546875,0,-0.002197266,-0.008056641,0.01245117,0,0,0.01245117,0,4.077,0,0,0,0,nan,2,0.699,0,0,0,0,0,0,0,0,0,1,2,1
386.039,0.001005,0,-0.001953125,-0.001953125,0.0625,-0.0234375,9.8125,0,0,-0.001953125,0.009765625,0.0546875,0,-0.002075195,-0.008056641,0.01245117,0,0,0.01245117,0,4.077,0,0,0,0,nan,2,0.709,0,0,0,0,0,0,0,0,0,1,2,1
386.049,0.001007,0,0,0,0,-0.0078125,9.890625,0,0,0.001953125,0.009765625,0.0546875,0,-0.002197266,-0.00793457,0.01245117,0,0,0.01245117,0,4.077,0,0,0,0,nan,2,0.719,0,0,0,0,0,0,0,0,0,1,2,1
386.059,0.001007,0,0.001953125,-0.001953125,0.0546875,-0.046875,9.875,0,0.001953125,-0.001953125,0.009765625,0.0546875,0,-0.002197266,-0.00793457,0.01245117,0,0,0.01245117,0,4.077,0,0,0,0,nan,2,0.729,0,0,0,0,0,0,0,0,0,1,2,1
386.069,0.001009,0.001953125,-0.001953125,0,-0.015625,-0.03125,9.835938,0,-0.001953125,0,0.009765625,0.0546875,0,-0.002075195,-0.00793457,0.01245117,0,0,0.01245117,0,4.077,0,0,0,0,nan,2,0.739,0,0,0,0,0,0,0,0,0,1,2,1
386.079,0.001009,0.00390625,0.001953125,-0.00390625,0.078125,0,9.859375,0.00390625,0,-0.001953125,0.009765625,0.0546875,0,-0.002075195,-0.00793457,0.01245117,0,0,0.01245117,0,4.077,0,0,0,0,nan,2,0.749,0,0,0,0,0,0,0,0,0,1,2,1
386.089,0.001009,-0.001953125,0.00390625,-0.001953125,0.0234375,0.015625,9.804688,0.001953125,0,0,0.009765625,0.0546875,0,-0.002075195,-0.00793457,0.01245117,0,0,0.01245117,0,4.077,0,0,0,0,nan,2,0.76,0,0,0,0,0,0,0,0,0,1,2,1
386.1,0.001009,-0.00390625,0.001953125,-0.001953125,0.046875,-0.0546875,9.8125,-0.001953125,0.001953125,-0.001953125,0.009765625,0.0546875,0,-0.002075195,-0.00793457,0.01245117,0,0,0.01245117,0,4.077,0,0,0,0,nan,2,0.77,0,0,0,0,0,0,0,0,0,1,2,1
386.11,0.001009,0.00390625,0,0.00390625,0.0625,-0.0078125,9.921875,0,0,0,0.009765625,0.0546875,0,-0.002075195,-0.0078125,0.01245117,0,0,0.01245117,0,4.077,0,0,0,0,nan,2,0.78,0,0,0,0,0,0,0,0,0,1,2,1
386.119,0.001011,0.001953125,0.001953125,-0.001953125,0.0703125,-0.046875,9.90625,0.001953125,0,0,0.009765625,0.0546875,0,-0.002075195,-0.0078125,0.01245117,0,0,0.01245117,0,4.077,0,0,0,0,nan,2,0.789,0,0,0,0,0,0,0,0,0,1,2,1
386.129,0.001011,-0.001953125,0.001953125,0,0.0390625,-0.078125,9.90625,0,0,0,0.009765625,0.0546875,0,-0.002075195,-0.0078125,0.01245117,0,0,0.01245117,0,4.077,0,0,0,0,nan,2,0.799,0,0,0,0,0,0,0,0,0,1,2,1
386.139,0.001011,0.001953125,0.00390625,0.001953125,0.0390625,-0.015625,9.867188,0,0.001953125,0,0.009765625,0.0546875,0,-0.002075195,-0.0078125,0.01245117,0,0,0.01245117,0,4.077,0,0,0,0,nan,2,0.809,0,0,0,0,0,0,0,0,0,1,2,1
386.149,0.001011,-0.00390625,-0.001953125,0,0,-0.03125,9.851562,-0.001953125,0,0,0.009765625,0.0546875,0,-0.002075195,-0.0078125,0.01245117,0,0,0.01245117,0,4.077,0,0,0,0,nan,2,0.819,0,0,0,0,0,0,0,0,0,1,2,1
386.159,0.001011,-0.001953125,-0.001953125,0,0.0390625,-0.015625,9.90625,-0.001953125,0,0,0.009765625,0.0546875,0,-0.002075195,-0.00769043,0.01245117,0,0,0.01245117,0,4.077,0,0,0,0,nan,2,0.829,0,0,0,0,0,0,0,0,0,1,2,1
386.169,0.001011,0.001953125,0.00390625,-0.001953125,0.03125,-0.015625,9.851562,-0.001953125,0,0,0.009765625,0.0546875,0,-0.002075195,-0.00769043,0.01245117,0,0,0.01245117,0,4.077,0,0,0,0,nan,2,0.839,0,0,0,0,0,0,0,0,0,1,2,1
386.179,0.001011,-0.00390625,0,0,0.046875,0.0078125,9.851562,-0.001953125,0,0.001953125,0.009765625,0.0546875,0,-0.002075195,-0.00769043,0.01245117,0,0,0.01245117,0,4.077,0,0,0,0,nan,2,0.849,0,0,0,0,0,0,0,0,0,1,2,1
386.189,0.001011,-0.001953125,0.00390625,-0.001953125,0.015625,-0.0078125,9.828125,-0.001953125,0.001953125,0,0.009765625,0.0546875,0,-0.002075195,-0.00769043,0.01245117,0,0,0.01245117,0,4.077,0,0,0,0,nan,2,0.859,0,0,0,0,0,0,0,0,0,1,2,1
386.199,0.000974,-0.00390625,-0.001953125,0,0.0234375,0,9.875,-0.001953125,-0.001953125,0,0.009765625,0.0546875,0,-0.002197266,-0.007568359,0.01245117,0,0,0.01245117,0,4.077,0,0,0,0,nan,2,0.87,0,0,0,0,0,0,0,0,0,1,2,1
386.21,0.001011,-0.001953125,-0.001953125,-0.00390625,0.0078125,-0.015625,9.84375,0,0,0,0.009765625,0.0546875,0,-0.002197266,-0.007568359,0.01245117,0,0,0.01245117,0,4.077,0,0,0,0,nan,2,0.88,0,0,0,0,0,0,0,0,0,1,2,1
386.219,0.001003,0,0,0.001953125,0.015625,-0.03125,9.851562,0,0,0,0.009765625,0.0546875,0,-0.002075195,-0.007568359,0.01245117,0,0,0.01245117,0,4.077,0,0,0,0,nan,2,0.889,0,0,0,0,0,0,0,0,0,1,2,1
386.229,0.001003,-0.001953125,-0.00390625,0.001953125,0.0078125,-0.046875,9.914062,0,-0.001953125,0,0.009765625,0.0546875,0,-0.002075195,-0.007568359,0.01245117,0,0,0.01245117,0,4.077,0,0,0,0,nan,2,0.899,0,0,0,0,0,0,0,0,0,1,2,1
386.239,0.000995,0.001953125,0,0,0.0625,-0.015625,9.890625,0,0,0,0.009765625,0.0546875,0,-0.002197266,-0.007568359,0.01245117,0,0,0.01245117,0,4.077,0,0,0,0,nan,2,0.909,0,0,0,0,0,0,0,0,0,1,2,1
386.249,0.00097,0,-0.001953125,0.001953125,0.0390625,-0.0234375,9.851562,0.001953125,0,0,0.009765625,0.0546875,0,-0.002075195,-0.007446289,0.01245117,0,0,0.01245117,0,4.077,0,0,0,0,nan,2,0.919,0,0,0,0,0,0,0,0,0,1,2,1
386.259,0.001424,0,0.00390625,0.001953125,0.03125,-0.0078125,9.867188,0,0,0,0.009765625,0.0546875,0,-0.002075195,-0.007446289,0.01245117,0,0,0.01245117,0,4.077,0,0,0,0,nan,2,0.928,0,0,0,0,0,0,0,0,0,1,2,1
386.269,0.001587,0.001953125,-0.001953125,0.001953125,0.015625,0,9.789062,0,0,0,0.009765625,0.0546875,0,-0.002075195,-0.007446289,0.01245117,0,0,0.01245117,0,4.077,0,0,0,0,nan,2,0.939,0,0,0,0,0,0,0,0,0,1,2,1
386.279,0.001574,0.00390625,0.001953125,-0.001953125,0.0078125,-0.0078125,9.875,0.001953125,0,0,0.009765625,0.0546875,0,-0.002075195,-0.007446289,0.01245117,0,0,0.01245117,0,4.077,0,0,0,0,nan,2,0.949,0,0,0,0,0,0,0,0,0,1,2,1
386.29,0.001425,0.001953125,0.00390625,0,0.0625,-0.03125,9.875,0.001953125,0,0,0.009765625,0.0546875,0,-0.002075195,-0.007446289,0.01245117,0,0,0.01245117,0,4.077,0,0,0,0,nan,2,0.959,0,0,0,0,0,0,0,0,0,1,2,1
