t,dt_s,gyro_x,gyro_y,gyro_z,acc_x,acc_y,acc_z,rates.x,rates.y,rates.z,ratesTarget.x,ratesTarget.y,ratesTarget.z,attitude.x,attitude.y,attitude.z,attitudeTarget.x,attitudeTarget.y,attitudeTarget.z,thrustTarget,battery_v,rc_roll,rc_pitch,rc_yaw,rc_throttle,rc_mode,flight_mode,rc_age_s,armed,fault_mask,motor_rl,motor_rr,motor_fr,motor_fl,rate_i_x,rate_i_y,rate_i_z,mix_scale,control_source,accel_correction_confidence
318.358,0.001011,0,0.001953125,0.001953125,0.0703125,-0.015625,9.828125,0,0.001953125,0,0,0,0,-0.0008544922,-0.00402832,0.0006103516,0,0,0.0006103516,0,4.077,0,0,0,0,nan,2,0.035,0,0,0,0,0,0,0,0,0,1,2,1
318.368,0.001011,-0.005859375,0,-0.001953125,0.0390625,-0.046875,9.859375,-0.001953125,0,-0.001953125,0,0,0,-0.0008544922,-0.00402832,0.0006103516,0,0,0.0006103516,0,4.077,0,0,0,0,nan,2,0.045,0,0,0,0,0,0,0,0,0,1,2,1
318.378,0.00101,-0.001953125,0,0,0.0234375,-0.0234375,9.859375,0,0,0,0,0,0,-0.0008544922,-0.00402832,0.0006103516,0,0,0.0006103516,0,4.077,0,0,0,0,nan,2,0.056,0,0,0,0,0,0,0,0,0,1,2,1
318.388,0.00101,-0.005859375,0.001953125,0,0.0234375,0.03125,9.867188,0,0.001953125,0,0,0,0,-0.0008544922,-0.00402832,0.0006103516,0,0,0.0006103516,0,4.077,0,0,0,0,nan,2,0.066,0,0,0,0,0,0,0,0,0,1,2,1
318.398,0.00101,-0.001953125,0.001953125,0,0.0390625,-0.015625,9.851562,0,0,0,0,0,0,-0.0008544922,-0.00402832,0.0006103516,0,0,0.0006103516,0,4.077,0,0,0,0,nan,2,0.076,0,0,0,0,0,0,0,0,0,1,2,1
318.408,0.00101,0.001953125,-0.00390625,0.001953125,0.0390625,0.0078125,9.859375,0,-0.001953125,0.001953125,0,0,0,-0.0008544922,-0.00402832,0.0007324219,0,0,0.0007324219,0,4.077,0,0,0,0,nan,2,0.086,0,0,0,0,0,0,0,0,0,1,2,1
318.418,0.00101,0,0,0,0.0078125,0,9.859375,0.001953125,0,0,0,0,0,-0.0008544922,-0.00402832,0.0007324219,0,0,0.0007324219,0,4.077,0,0,0,0,nan,2,0.096,0,0,0,0,0,0,0,0,0,1,2,1
318.427,0.00101,-0.001953125,-0.001953125,-0.001953125,0.0234375,-0.0234375,9.882812,0,0,0,0,0,0,-0.0008544922,-0.00402832,0.0007324219,0,0,0.0007324219,0,4.077,0,0,0,0,nan,2,0.105,0,0,0,0,0,0,0,0,0,1,2,1
318.438,0.00101,0,0,-0.00390625,0.078125,0,9.859375,0,0,-0.001953125,0,0,0,-0.0008544922,-0.00402832,0.0007324219,0,0,0.0007324219,0,4.077,0,0,0,0,nan,2,0.115,0,0,0,0,0,0,0,0,0,1,2,1
318.448,0.00101,0.001953125,0.001953125,0,0.0390625,-0.03125,9.835938,0,0,0,0,0,0,-0.0008544922,-0.00402832,0.0007324219,0,0,0.0007324219,0,4.077,0,0,0,0,nan,2,0.125,0,0,0,0,0,0,0,0,0,1,2,1
318.458,0.001005,-0.001953125,-0.001953125,0,0.0625,0.0078125,9.828125,0,0,0,0,0,0,-0.0008544922,-0.00402832,0.0007324219,0,0,0.0007324219,0,4.077,0,0,0,0,nan,2,0.135,0,0,0,0,0,0,0,0,0,1,2,1
318.468,0.001012,-0.001953125,-0.001953125,0.001953125,0.03125,-0.015625,9.859375,0,0.001953125,0,0,0,0,-0.0008544922,-0.00402832,0.0006103516,0,0,0.0006103516,0,4.077,0,0,0,0,nan,2,0.145,0,0,0,0,0,0,0,0,0,1,2,1
318.478,0.001007,0,0.00390625,0,0.0546875,-0.0234375,9.867188,0,0,0,0,0,0,-0.0008544922,-0.00402832,0.0006103516,0,0,0.0006103516,0,4.077,0,0,0,0,nan,2,0.156,0,0,0,0,0,0,0,0,0,1,2,1
318.488,0.00101,0.001953125,0.001953125,0,0.0234375,0.015625,9.84375,0,0,0,0,0,0,-0.0008544922,-0.00402832,0.0006103516,0,0,0.0006103516,0,4.077,0,0,0,0,nan,2,0.166,0,0,0,0,0,0,0,0,0,1,2,1
318.498,0.00101,0.00390625,0.001953125,0,0.0390625,-0.03125,9.882812,0.001953125,0.001953125,-0.001953125,0,0,0,-0.0008544922,-0.00402832,0.0006103516,0,0,0.0006103516,0,4.077,0,0,0,0,nan,2,0.176,0,0,0,0,0,0,0,0,0,1,2,1
318.508,0.001014,0,0.00390625,-0.001953125,0.046875,0,9.875,0,0.001953125,0,0,0,0,-0.0008544922,-0.00402832,0.0006103516,0,0,0.0006103516,0,4.077,0,0,0,0,nan,2,0.186,0,0,0,0,0,0,0,0,0,1,2,1
318.518,0.00103,0.001953125,0.00390625,0,0.0390625,-0.0234375,9.875,0,0.001953125,0,0,0,0,-0.0008544922,-0.00402832,0.0006103516,0,0,0.0006103516,0,4.077,0,0,0,0,nan,2,0.196,0,0,0,0,0,0,0,0,0,1,2,1
318.528,0.000964,0.009765625,-0.01171875,0,0.0625,0.03125,9.898438,0.001953125,-0.0078125,-0.001953125,0,0,0,-0.0008544922,-0.00402832,0.0006103516,0,0,0.0006103516,0,4.077,0,0,0,0,nan,2,0.205,1,0,0.1000061,0.1000061,0.1000061,0.1000061,0,0,0,1,2,0.7777778
318.538,0.001006,-0.0078125,0.00390625,0.001953125,0.109375,0.0859375,9.859375,0,0,-0.001953125,0,0,0,-0.0008544922,-0.00402832,0.0006103516,0,0,0.0006103516,0,4.077,0,0,0,0,nan,2,0.215,1,0,0.1000061,0.1000061,0.1000061,0.1000061,0,0,0,1,2,0.8571429
318.548,0.001009,0.009765625,-0.001953125,-0.009765625,-0.09375,-0.09375,9.921875,0.001953125,-0.00390625,0.00390625,0,0,0,-0.0008544922,-0.004150391,0.0006103516,0,0,0.0006103516,0,4.077,0,0,0,0,nan,2,0.225,1,0,0.1000061,0.1000061,0.1000061,0.1000061,0,0,0,1,2,0.7460318
318.558,0.001028,0.015625,-0.01757812,0.005859375,-0.1875,-0.453125,9.9375,0.005859375,-0.0078125,0.00390625,0,0,0,-0.0008544922,-0.004150391,0.0006103516,0,0,0.0006103516,0,4.077,0,0,0,0,nan,2,0.235,1,0,0.1000061,0.1000061,0.1000061,0.1000061,0,0,0,1,2,0.6984127
318.568,0.001004,-0.02734375,0.01953125,0,0.75,0.2890625,10.10938,-0.005859375,0.00390625,0,0,0,0,-0.0008544922,-0.004150391,0.0006103516,0,0,0.0006103516,0,4.077,0,0,0,0,nan,2,0.245,1,0,0.1000061,0.1000061,0.1000061,0.1000061,0,0,0,1,2,0.2857143
318.578,0.00101,-0.02929688,-0.01171875,-0.0078125,0.796875,0.25,9.453125,-0.005859375,-0.01171875,0,0,0,0,-0.0008544922,-0.004150391,0.0006103516,0,0,0.0006103516,0,4.077,0,0,0,0,nan,2,0.256,1,0,0.1000061,0.1000061,0.1000061,0.1000061,0,0,0,1,2,0.3015873
318.588,0.001008,-0.01171875,0.046875,-0.0078125,0.765625,-0.1796875,10.65625,-0.0078125,-0.00390625,0,0,0,0,-0.0008544922,-0.004150391,0.0006103516,0,0,0.0006103516,0,4.077,0,0,0,0,nan,2,0.266,1,0,0.1000061,0.1000061,0.1000061,0.1000061,0,0,0,1,2,0
318.598,0.001009,0.01367188,0.05664062,-0.01171875,-1.570312,-0.296875,11.52344,0.00390625,0.015625,-0.001953125,0,0,0,-0.0008544922,-0.004150391,0.0006103516,0,0,0.0006103516,0,4.077,0,0,0,0,nan,2,0.276,1,0,0.1000061,0.1000061,0.1000061,0.1000061,0,0,0,1,2,0
318.608,0.001008,-0.01757812,-0.04101562,-0.005859375,1.585938,-0.5390625,9.5,-0.001953125,-0.009765625,0.001953125,0,0,0,-0.0008544922,-0.004150391,0.0006103516,0,0,0.0006103516,0,4.077,0,0,0,0,nan,2,0.286,1,0,0.1000061,0.1000061,0.1000061,0.1000061,0,0,0,1,2,0.6190476
318.618,0.001005,-0.00390625,0.005859375,-0.00390625,1.953125,-2.578125,10.21094,-0.00390625,0.001953125,-0.001953125,0,0,0,-0.0008544922,-0.004150391,0.0006103516,0,0,0.0006103516,0,4.077,0,0,0,0,nan,2,0.296,1,0,0.1000061,0.1000061,0.1000061,0.1000061,0,0,0,1,2,0
318.628,0.001008,0.02734375,-0.015625,-0.001953125,1.914062,5.132812,9.75,-0.001953125,-0.00390625,0.001953125,0,0,0,-0.0009765625,-0.004150391,0.0006103516,0,0,0.0006103516,0,4.077,0,0,0,0,nan,2,0.306,1,0,0.1000061,0.1000061,0.1000061,0.1000061,0,0,0,1,2,0
318.638,0.001011,0.015625,0.005859375,-0.02539062,-0.5625,4.421875,10.85156,-0.001953125,-0.001953125,-0.00390625,0,0,0,-0.0008544922,-0.004150391,0.0006103516,0,0,0.0006103516,0,4.077,0,0,0,0,nan,2,0.315,1,0,0.1000061,0.1000061,0.1000061,0.1000061,0,0,0,1,2,0
318.648,0.001015,-0.02929688,-0.009765625,0.00390625,0.96875,-3.070312,9.023438,-0.005859375,0.00390625,0,0,0,0,-0.0009765625,-0.004150391,0.0006103516,0,0,0.0006103516,0,4.077,0,0,0,0,nan,2,0.325,1,0,0.1000061,0.1000061,0.1000061,0.1000061,0,0,0,1,2,0.4920635
318.658,0.001007,-0.0546875,0.005859375,-0.00390625,1.367188,-2.632812,10.20312,-0.015625,-0.00390625,-0.00390625,0,0,0,-0.001098633,-0.004150391,0.0006103516,0,0,0.0006103516,0,4.077,0,0,0,0,nan,2,0.335,1,0,0.1000061,0.1000061,0.1000061,0.1000061,0,0,0,1,2,0
318.668,0.000985,-0.03320312,-0.01367188,0.00390625,0.890625,-2.382812,8.539062,-0.01367188,-0.001953125,0,0,0,0,-0.001220703,-0.004150391,0.0004882812,0,0,0.0006103516,0,4.077,0,0,0,0,nan,2,0.345,1,0,0.1000061,0.1000061,0.1000061,0.1000061,0,0,0,1,2,0
318.678,0.00101,-0.0234375,0.01953125,-0.00390625,1.007812,-0.09375,11.14844,-0.005859375,-0.001953125,0.001953125,0,0,0,-0.001342773,-0.004150391,0.0004882812,0,0,0.0006103516,0,4.077,0,0,0,0,nan,2,0.356,1,0,0.1000061,0.1000061,0.1000061,0.1000061,0,0,0,1,2,0
318.688,0.001011,0,0.005859375,-0.0078125,0.015625,0.4296875,10.1875,-0.00390625,0.01171875,-0.001953125,0,0,0,-0.001342773,-0.004150391,0.0004882812,0,0,0.0006103516,0,4.077,0,0,0,0,nan,2,0.366,1,0,0.1000061,0.1000061,0.1000061,0.1000061,0,0,0,1,2,0.1904762
318.698,0.001011,-0.00390625,-0.00390625,0.0390625,-0.2421875,-0.1796875,8.179688,-0.00390625,0.001953125,0.01757812,0,0,0,-0.001464844,-0.00402832,0.0006103516,0,0,0.0006103516,0,4.077,0,0,0,0,nan,2,0.376,1,0,0.1000061,0.1000061,0.1000061,0.1000061,0,0,0,1,2,0
318.708,0.001015,0.03125,0.046875,0.02539062,0.1875,-0.203125,9.90625,-0.0078125,0.015625,0.03125,0,0,0,-0.001586914,-0.00402832,0.0008544922,0,0,0.0006103516,0,4.077,0,0,0,0,nan,2,0.386,1,0,0.1000061,0.1000061,0.1000061,0.1000061,0,0,0,1,2,0.6190476
318.718,0.001011,0.015625,0.02539062,0.02734375,-0.1953125,-0.65625,11.59375,0.015625,0.00390625,0.02539062,0,0,0,-0.001586914,-0.00390625,0.001220703,0,0,0.0006103516,0,4.077,0,0,0,0,nan,2,0.396,1,0,0.1000061,0.1000061,0.1000061,0.1000061,0,0,0,1,2,0
318.729,0.001036,-0.00390625,0.015625,0.06445312,0.453125,0.171875,8.484375,0.005859375,-0.009765625,0.05078125,0,0,0,-0.001464844,-0.00390625,0.001586914,0,0,0.0006103516,0,4.077,0,0,0,0,nan,2,0.406,1,0,0.1000061,0.1000061,0.1000061,0.1000061,0,0,0,1,2,0
318.738,0.00101,0.009765625,-0.01171875,0.03320312,0.1953125,-1.070312,8.8125,0.0078125,-0.00390625,0.04882812,0,0,0,-0.001464844,-0.00402832,0.002075195,0,0,0.0006103516,0,4.077,0,0,0,0,nan,2,0.415,1,0,0.1000061,0.1000061,0.1000061,0.1000061,0,0,0,1,2,0
318.748,0.001019,-0.0078125,0.01757812,0.0234375,-0.1640625,0.984375,11.32031,-0.01367188,-0.005859375,0.01757812,0,0,0,-0.001586914,-0.004150391,0.002319336,0,0,0.0006103516,0,4.077,0,0,0,0,nan,2,0.425,1,0,0.1000061,0.1000061,0.1000061,0.1000061,0,0,0,1,2,0
318.758,0.00101,0.005859375,-0.015625,0.009765625,-0.140625,-0.0703125,11.24219,0.001953125,-0.005859375,0.01953125,0,0,0,-0.001464844,-0.004150391,0.002563477,0,0,0.0006103516,0,4.077,0,0,0,0,nan,2,0.435,1,0,0.1000061,0.1000061,0.1000061,0.1000061,0,0,0,1,2,0
318.768,0.001011,-0.01953125,-0.0078125,0,0.1015625,-0.484375,8.570312,-0.005859375,-0.001953125,0.009765625,0,0,0,-0.001464844,-0.004150391,0.002807617,0,0,0.0006103516,0,4.077,0,0,0,0,nan,2,0.445,1,0,0.1000061,0.1000061,0.1000061,0.1000061,0,0,0,1,2,0
318.778,0.001009,0.0859375,0.01367188,-0.01367188,-0.1484375,0.15625,11.59375,0.0234375,0.01953125,-0.01367188,0,0,0,-0.001586914,-0.004150391,0.002685547,0,0,0.0006103516,0,4.077,0,0,0,0,nan,2,0.455,1,0,0.1000061,0.1000061,0.1000061,0.1000061,0,0,0,1,2,0
318.788,0.000981,-0.046875,-0.001953125,0.01171875,0.328125,1.414062,10.6875,0.005859375,-0.001953125,0.005859375,0,0,0,-0.001342773,-0.00402832,0.002685547,0,0,0.0006103516,0,4.077,0,0,0,0,nan,2,0.466,1,0,0.1000061,0.1000061,0.1000061,0.1000061,0,0,0,1,2,0
318.798,0.00099,-0.02539062,-0.00390625,0.04492188,0.609375,-1.445312,9.445312,0.015625,0.00390625,0.03125,0.005859375,0.0234375,0,-0.001098633,-0.00402832,0.002807617,0,0,0.0006103516,0.1421204,4.077,0,0,0,0.09997559,nan,2,0.005,1,0,0.1755371,0.1110535,0.1705933,0.1112366,0,0,0,1,2,0.5238096
318.808,0.000977,-0.02929688,0.04101562,0.02929688,0.4140625,1.90625,7.054688,-0.02539062,0.04101562,0.03515625,0.0078125,0.02148438,0,-0.001220703,-0.003662109,0.003173828,0,0,0.0006103516,0.1421204,4.077,0,0,0,0.09997559,nan,2,0.015,1,0,0.151947,0.1269836,0.147644,0.1418762,0,0,0,1,2,0
318.818,0.00099,-0.009765625,-0.001953125,0.02148438,0.15625,0,8.976562,-0.015625,-0.001953125,0.01953125,0.0078125,0.02148438,0,-0.001342773,-0.003540039,0.003417969,0,0,0.0006103516,0.1421204,4.077,0,0,0,0.09997559,nan,2,0.024,1,0,0.144043,0.1489563,0.1307678,0.1446533,0,0,0,1,2,0
318.828,0.001029,0.02929688,-0.001953125,0.001953125,-0.5,-0.0078125,3.546875,0.02734375,-0.01171875,0.01171875,0.0078125,0.02148438,0,-0.001220703,-0.003540039,0.003662109,0,0,0.0006103516,0.1421204,4.077,0,0,0,0.09997559,nan,2,0.034,1,0,0.1312561,0.1604919,0.1321411,0.1445312,0,0,0,1,2,0
318.838,0.0009869999,-0.01757812,0.02148438,0.02148438,1.601562,-0.3828125,7.453125,0.009765625,0,0.01953125,0.005859375,0.02148438,0,-0.0009765625,-0.003662109,0.00378418,0,0,0.0006103516,0.1421204,4.077,0,0,0,0.09997559,nan,2,0.004,1,0,0.1582031,0.1252747,0.155304,0.1296387,0,0,0,1,2,0
318.848,0.001016,-0.00390625,-0.02148438,0.0078125,-0.34375,-3.0625,12.22656,-0.01171875,0.005859375,0.009765625,0.005859375,0.02148438,0,-0.001098633,-0.003540039,0.00390625,0,0,0.0006103516,0.1421204,4.077,0,0,0,0.09997559,nan,2,0.014,1,0,0.1435547,0.14505,0.1351624,0.1446533,0,0,0,1,2,0
318.858,0.00101,0.0078125,-0.005859375,-0.009765625,1.53125,-1.851562,11.51562,0.01953125,0,-0.001953125,0.005859375,0.02148438,0,-0.001098633,-0.003540039,0.00390625,0,0,0.0006103516,0.1421204,4.077,0,0,0,0.09997559,nan,2,0.024,1,0,0.1257629,0.1634827,0.1280823,0.1510925,0,0,0,1,2,0
318.868,0.001016,0.03125,0.009765625,0,-0.5234375,4.296875,11.02344,0.02148438,-0.009765625,-0.00390625,0.005859375,0.02148438,0,-0.0009765625,-0.003540039,0.00390625,0,0,0.0006103516,0.1421204,4.077,0,0,0,0.09997559,nan,2,0.034,1,0,0.1454468,0.1434937,0.1448975,0.1345825,0,0,0,1,2,0
318.878,0.001011,0.0078125,-0.046875,-0.02734375,0.5859375,-4.140625,9.921875,0.02734375,-0.0234375,-0.01757812,0.00390625,0.02148438,0,-0.0007324219,-0.003540039,0.00378418,0,0,0.0006103516,0.1421204,4.077,0,0,0,0.09997559,nan,2,0.044,1,0,0.1252747,0.171936,0.1177063,0.1535034,0,0,0,1,2,0
318.888,0.001039,0.05078125,-0.02734375,-0.0234375,1.242188,3.359375,10.96875,0.001953125,-0.00390625,-0.02929688,0.00390625,0.02148438,0,-0.0007324219,-0.003662109,0.003417969,0,0,0.0006103516,0.1421204,4.077,0,0,0,0.09997559,nan,2,0,1,0,0.1284485,0.1574707,0.1268921,0.1556091,0,0,0,1,2,0
318.898,0.00101,0.01367188,0.01757812,-0.005859375,0.8046875,-1.804688,11.38281,0.02148438,0.01757812,-0.01953125,0.001953125,0.02148438,0,-0.0004882812,-0.003662109,0.003173828,0,0,0.0006103516,0.1421204,4.077,0,0,0,0.09997559,nan,2,0.01,1,0,0.1462402,0.1337891,0.1518555,0.1365356,0,0,0,1,2,0
318.908,0.00101,-0.03320312,0.02929688,-0.01953125,2.164062,-0.8359375,4.117188,0.001953125,0.01367188,-0.015625,0.001953125,0.02148438,0,-0.0002441406,-0.003662109,0.003051758,0,0,0.0006103516,0.1421204,4.077,0,0,0,0.09997559,nan,2,0.02,1,0,0.1404114,0.1425171,0.1337585,0.1517334,0,0,0,1,2,0
318.918,0.00101,0.04296875,-0.03125,-0.01953125,0.7578125,1.695312,7.875,0.01171875,-0.005859375,-0.02539062,0.001953125,0.02148438,0,-0.0002441406,-0.003540039,0.002807617,0,0,0.0006103516,0.1421204,4.077,0,0,0,0.09997559,nan,2,0.03,1,0,0.1395874,0.1524353,0.1353455,0.1410522,0,0,0,1,2,0
318.928,0.001024,0.01953125,0.00390625,0.009765625,-0.5546875,-2.289062,7.992188,-0.0078125,0.001953125,0.001953125,0.001953125,0.02148438,0,-0.0002441406,-0.003662109,0.002685547,0,0,0.0006103516,0.1421204,4.077,0,0,0,0.09997559,nan,2,0.039,1,0,0.168335,0.1177063,0.1652527,0.1171265,0,0,0,1,2,0
318.938,0.001021,-0.02734375,0.03515625,0.005859375,-1.3125,0.8125,4.765625,-0.005859375,0,0.01171875,0.001953125,0.02148438,0,-0.0002441406,-0.003662109,0.002807617,0,0,0.0006103516,0.1421204,4.077,0,0,0,0.09997559,nan,2,0.002,1,0,0.1558838,0.1295166,0.1516418,0.1313477,0,0,0,1,2,0
318.948,0.001026,-0.05273438,0.015625,-0.04101562,-0.5078125,-2.039062,4.4375,-0.00390625,0.009765625,-0.01367188,0.001953125,0.02148438,0,-0.0002441406,-0.003662109,0.002807617,0,0,0.0006103516,0.1421204,4.077,0,0,0,0.09997559,nan,2,0.012,1,0,0.1092224,0.1746826,0.1049194,0.1796265,0,0,0,1,2,0
318.958,0.001008,0.1074219,-0.02929688,-0.0546875,-0.3515625,6.59375,10.42969,0.0703125,-0.01367188,-0.04492188,0,0.02148438,0,0,-0.003662109,0.002441406,0,0,0.0006103516,0.1421204,4.077,0,0,0,0.09997559,nan,2,0.022,1,0,0.08966064,0.2044678,0.1060791,0.1681824,0,0,0,1,2,0
318.968,0.001028,0.0078125,0.0078125,-0.04882812,-0.1171875,2.070312,12.96875,0.01757812,0.005859375,-0.04101562,-0.001953125,0.02148438,0,0.0003662109,-0.003540039,0.002075195,0,0,0.0006103516,0.1421204,4.077,0,0,0,0.09997559,nan,2,0.032,1,0,0.1264648,0.1593933,0.1218872,0.160675,0,0,0,1,2,0
318.978,0.001007,-0.02734375,-0.01367188,-0.0390625,-3.023438,3.992188,11.96094,-0.01953125,-0.005859375,-0.04492188,-0.001953125,0.02148438,0,0.0002441406,-0.003540039,0.001708984,0,0,0.0006103516,0.1421204,4.077,0,0,0,0.09997559,nan,2,0.042,1,0,0.1365662,0.1539917,0.1217041,0.156189,0,0,0,1,2,0
318.988,0.001013,-0.0390625,0.04296875,0.009765625,-0.75,1.609375,13.84375,-0.001953125,0.01171875,-0.0078125,-0.001953125,0.02148438,0,0.0002441406,-0.003662109,0.001342773,0,0,0.0006103516,0.1421204,4.077,0,0,0,0.09997559,nan,2,0.053,1,0,0.1717834,0.106842,0.1767883,0.1129761,0,0,0,1,2,0
318.998,0.0009869999,-0.01953125,-0.001953125,0,-2.242188,5.015625,10.74219,-0.02148438,0.001953125,0.005859375,-0.001953125,0.02148438,0,0.0002441406,-0.003662109,0.001464844,0,0,0.0006103516,0.1421204,4.077,0,0,0,0.09997559,nan,2,0.009,1,0,0.1579285,0.1298523,0.1471863,0.1334534,0,0,0,1,2,0
319.008,0.001008,0.001953125,-0.01757812,-0.005859375,0.8828125,-2.859375,9.210938,0.015625,0.01171875,-0.01171875,0,0.01953125,0,0,-0.003417969,0.001342773,0,0,0.0006103516,0.1421204,4.077,0,0,0,0.09997559,nan,2,0.019,1,0,0.1288452,0.1605225,0.1335449,0.1454773,0,0,0,1,2,0.6349207
319.018,0.000984,0.009765625,-0.01367188,-0.00390625,-1.40625,-3.125,3,-0.01367188,0.015625,0,0,0.01953125,0,-0.0001220703,-0.003295898,0.001342773,0,0,0.0006103516,0.1421204,4.077,0,0,0,0.09997559,nan,2,0.029,1,0,0.151947,0.1343994,0.148468,0.1336365,0,0,0,1,2,0
319.028,0.001008,-0.009765625,0.001953125,-0.02734375,-1.390625,-6.835938,8.203125,0.005859375,-0.01367188,-0.01171875,0,0.01953125,0,0,-0.003417969,0.001220703,0,0,0.0006103516,0.1421204,4.077,0,0,0,0.09997559,nan,2,0.039,1,0,0.1315002,0.1595459,0.1244507,0.1529236,0,0,0,1,2,0
319.038,0.000997,0.0390625,-0.05859375,-0.01757812,-0.6796875,0.796875,13.82812,0.015625,-0.009765625,-0.02148438,0,0.01953125,0,0,-0.003417969,0.001098633,0,0,0.0006103516,0.1421204,4.077,0,0,0,0.09997559,nan,2,0,1,0,0.1313782,0.1625366,0.1306458,0.1438293,0,0,0,1,2,0
319.048,0.001011,0.02734375,0.009765625,-0.009765625,0.2265625,7.242188,10.57031,0.0546875,-0.01757812,-0.00390625,-0.001953125,0.02148438,0,0.0004882812,-0.003662109,0.0009765625,0,0,0.0006103516,0.1421204,4.077,0,0,0,0.09997559,nan,2,0.01,1,0,0.14328,0.144989,0.1517029,0.1284485,0,0.0009765625,0,1,2,0
319.058,0.001011,0.05664062,-0.00390625,-0.0234375,-0.34375,0.5703125,15.21094,0.01367188,0,-0.0234375,-0.00390625,0.02148438,0,0.0007324219,-0.003662109,0.0007324219,0,0,0.0006103516,0.1421204,4.077,0,0,0,0.09997559,nan,2,0.02,1,0,0.1306763,0.1548767,0.1285706,0.1542969,0,0.0009765625,0,1,2,0
319.068,0.001012,0.0390625,-0.02734375,-0.00390625,0.359375,7.476562,11.32031,-0.01171875,-0.02929688,-0.01953125,-0.00390625,0.0234375,0,0.0007324219,-0.00390625,0.0004882812,0,0,0.0006103516,0.1421204,4.077,0,0,0,0.09997559,nan,2,0.03,1,0,0.1521912,0.1409912,0.1402588,0.1349792,0,0.0009765625,0,1,2,0
319.078,0.000979,-0.06054688,0.03125,-0.001953125,-0.0625,6.804688,11.04688,-0.1074219,0.02148438,0.009765625,0,0.0234375,0,0.0001220703,-0.00402832,0.0006103516,0,0,0.0006103516,0.1421204,4.077,0,0,0,0.09997559,nan,2,0.04,1,0,0.1635437,0.1128845,0.1424255,0.1495667,0,0.0009765625,0,1,2,0
319.088,0.001011,-0.03515625,-0.03710938,-0.046875,1.171875,-1.140625,7.820312,-0.0390625,-0.02148438,-0.03515625,0,0.0234375,0,-0.0001220703,-0.00402832,0.0003662109,0,0,0.0006103516,0.1421204,4.077,0,0,0,0.09997559,nan,2,0.05,1,0,0.1122437,0.1857605,0.0909729,0.1794128,0,0.0009765625,0,1,2,0
319.098,0.000992,0.01367188,0.01757812,0,2.765625,-4.703125,7.984375,-0.015625,-0.005859375,-0.0078125,0.00390625,0.0234375,0,-0.0006103516,-0.00402832,0.0002441406,0,0,0.0006103516,0.1421204,4.077,0,0,0,0.09997559,nan,2,0.001,1,0,0.1563416,0.1341553,0.1574402,0.1204834,0,0.0009765625,0,1,2,0.5714286
319.108,0.001011,0.04492188,-0.02539062,0.01171875,1.804688,-2.40625,5.289062,-0.01171875,0.01367188,0.005859375,0.005859375,0.0234375,0,-0.0008544922,-0.00378418,0.0001220703,0,0,0.0006103516,0.1421204,4.077,0,0,0,0.09997559,nan,2,0.011,1,0,0.1637878,0.1249695,0.1635132,0.1161499,0,0.0009765625,0,1,2,0
319.118,0.000991,0.05664062,0.02148438,0.001953125,0.859375,5.234375,12.07812,0.03710938,0.005859375,0.001953125,0.00390625,0.0234375,0,-0.0007324219,-0.00378418,0.0002441406,0,0,0.0006103516,0.1421204,4.077,0,0,0,0.09997559,nan,2,0.02,1,0,0.1329346,0.1538696,0.1453247,0.1362915,0,0.0009765625,0,1,2,0
319.128,0.001011,-0.0078125,-0.03710938,0.01757812,-2.507812,6.085938,7.445312,0.03125,-0.01171875,0.015625,0.001953125,0.0234375,0,-0.0002441406,-0.00378418,0.0002441406,0,0,0.0006103516,0.1421204,4.077,0,0,0,0.09997559,nan,2,0.03,1,0,0.1670532,0.1268921,0.1575012,0.1169434,0,0.0009765625,0,1,2,0.4444444
319.138,0.001011,-0.01367188,0.046875,0.0234375,-1.445312,-3.59375,4.851562,0.04101562,0.02929688,0.01953125,-0.001953125,0.0234375,0,0.0002441406,-0.00378418,0.0004882812,0,0,0.0006103516,0.1421204,4.077,0,0,0,0.09997559,nan,2,0.04,1,0,0.1546021,0.1220093,0.1645203,0.1272888,0,0.0009765625,0,1,2,0
319.148,0.001017,0.1367188,-0.04882812,-0.01171875,1.648438,-4.039062,8.710938,0.09570312,-0.005859375,0.009765625,-0.00390625,0.02148438,0,0.0007324219,-0.003540039,0.0006103516,0,0,0.0006103516,0.1421204,4.077,0,0,0,0.09997559,nan,2,0.05,1,0,0.1183472,0.1815491,0.1315002,0.1370544,0,0.0009765625,0,1,2,0.4920635
319.158,0.001039,-0.015625,0.001953125,-0.01757812,-2.71875,0.5,4.609375,0.03125,0.001953125,-0.01953125,-0.005859375,0.02148438,0,0.001098633,-0.003662109,0.0004882812,0,0,0.0006103516,0.1421204,4.077,0,0,0,0.09997559,nan,2,0.009,1,0,0.112854,0.1717224,0.1164551,0.1673889,0,0.0009765625,0,1,2,0
319.168,0.001008,-0.005859375,0.00390625,-0.00390625,-1.28125,0.5,14.85938,0,0.00390625,-0.001953125,-0.005859375,0.02148438,0,0.0009765625,-0.003662109,0.0003662109,0,0,0.0006103516,0.1421204,4.077,0,0,0,0.09997559,nan,2,0.019,1,0,0.1558533,0.1316833,0.152832,0.1280518,0,0.0009765625,0,1,2,0
319.178,0.00103,0.04882812,-0.04101562,0,1.65625,1.203125,17.39844,0.005859375,-0.00390625,-0.00390625,-0.005859375,0.02148438,0,0.001098633,-0.003540039,0.0003662109,0,0,0.0006103516,0.1421204,4.077,0,0,0,0.09997559,nan,2,0.029,1,0,0.1442261,0.147583,0.1398621,0.1367493,0,0.0009765625,0,1,2,0
319.188,0.001013,-0.00390625,0.04101562,-0.01953125,3.960938,-1.179688,7.867188,-0.005859375,-0.0078125,-0.005859375,-0.005859375,0.02148438,0,0.001098633,-0.003662109,0.0003662109,0,0,0.0006103516,0.1421204,4.077,0,0,0,0.09997559,nan,2,0.039,1,0,0.1369934,0.1522217,0.1310425,0.1481628,0,0.0009765625,0,1,2,0
319.198,0.000993,-0.03320312,0.005859375,0.015625,1.3125,-1.328125,4.898438,-0.005859375,0.00390625,0.005859375,-0.005859375,0.02148438,0,0.001098633,-0.003662109,0.0003662109,0,0,0.0006103516,0.1421204,4.077,0,0,0,0.09997559,nan,2,0.049,1,0,0.1629028,0.1236877,0.1566162,0.1252441,0,0.0009765625,0,1,2,0
319.208,0.00101,-0.04296875,0.009765625,-0.01171875,-2.078125,1,11.50781,-0.02539062,0.0078125,0.0078125,-0.005859375,0.02148438,0,0.001098633,-0.003662109,0.0004882812,0,0,0.0006103516,0.1421204,4.077,0,0,0,0.09997559,nan,2,0.06,1,0,0.1403198,0.1452637,0.1266785,0.156189,0,0.0009765625,0,1,2,0
319.218,0.00101,-0.0859375,0.015625,-0.001953125,-2.859375,0.875,14.53906,-0.02148438,0.02148438,-0.001953125,-0.005859375,0.02148438,0,0.001098633,-0.003662109,0.0004882812,0,0,0.0006103516,0.1421204,4.077,0,0,0,0.09997559,nan,2,0.07,1,0,0.1370239,0.1403809,0.132019,0.1589966,0,0.0009765625,0,1,2,0
319.228,0.00101,-0.0078125,-0.005859375,-0.03125,-1.226562,-5.117188,5.789062,-0.00390625,0.001953125,-0.01757812,-0.0078125,0.02148438,0,0.001220703,-0.003662109,0.0003662109,0,0,0.0006103516,0.1421204,4.077,0,0,0,0.09997559,nan,2,0.08,1,0,0.1207886,0.166687,0.1141052,0.1668091,0,0.0009765625,0,1,2,0
319.238,0.00101,0.04101562,-0.03125,0.005859375,0.015625,-3.023438,15.19531,0.015625,-0.00390625,-0.01367188,-0.0078125,0.02148438,0,0.001220703,-0.003662109,0.0002441406,0,0,0.0006103516,0.1421204,4.077,0,0,0,0.09997559,nan,2,0.089,1,0,0.1511536,0.1403809,0.1530457,0.1238403,0,0.0009765625,0,1,2,0
319.248,0.000873,0.046875,0.01367188,-0.0234375,1.96875,-0.71875,9.539062,0.03125,-0.009765625,-0.01757812,-0.0078125,0.02148438,0,0.001464844,-0.00378418,0.0001220703,0,0,0.0006103516,0.2263184,4.077,0,0,0,0.2000122,nan,2,0.002,1,0,0.2145386,0.243988,0.2172852,0.2294617,0,0.0009765625,0,1,2,0.2698413
319.258,0.000981,0.015625,-0.005859375,-0.02929688,2.273438,3.890625,14.38281,-0.0078125,0.005859375,-0.0234375,-0.0078125,0.02148438,0,0.001464844,-0.003662109,-0.0001220703,0,0,0.0006103516,0.2263184,4.077,0,0,0,0.2000122,nan,2,0.012,1,0,0.212677,0.2430725,0.2076111,0.2419128,0,0.0009765625,0,1,2,0
319.268,0.001006,-0.0546875,0.0546875,0.009765625,-0.2265625,-6.4375,4.078125,-0.03320312,0.005859375,0,-0.0078125,0.02148438,0,0.001220703,-0.00378418,-0.0002441406,0,0,0.0006103516,0.2263184,4.077,0,0,0,0.2000122,nan,2,0.022,1,0,0.2568359,0.1950073,0.2489319,0.2044678,0,0.0009765625,0,1,2,0
319.278,0.000992,-0.01953125,0.01171875,0.01171875,-0.1328125,-0.6875,13.38281,0,-0.0078125,0.00390625,-0.0078125,0.0234375,0,0.001220703,-0.00378418,-0.0002441406,0,0,0.0006103516,0.2263184,4.077,0,0,0,0.2000122,nan,2,0.032,1,0,0.2347107,0.2247314,0.2298279,0.2160034,0,0.0009765625,0,1,2,0
319.288,0.001008,0.009765625,-0.01367188,-0.009765625,2.046875,4.632812,11.78125,0.00390625,-0.01757812,0.00390625,-0.0078125,0.0234375,0,0.001220703,-0.00390625,-0.0001220703,0,0,0.0006103516,0.2263184,4.077,0,0,0,0.2000122,nan,2,0.042,1,0,0.2280884,0.2349854,0.2210693,0.2211304,0,0.0009765625,0,1,2,0
319.298,0.001009,0.005859375,-0.0234375,0.02148438,0.515625,4.804688,11.91406,0.01171875,-0.0078125,0.005859375,-0.0078125,0.0234375,0,0.001220703,-0.00390625,-0.0002441406,0,0,0.0006103516,0.2263184,4.077,0,0,0,0.2000122,nan,2,0.053,1,0,0.2497864,0.210083,0.2458801,0.1995239,0,0.0009765625,0,1,2,0
319.308,0.001009,0.015625,0.015625,-0.01757812,0.703125,-1.226562,6.5,0.0234375,-0.005859375,0.0078125,-0.0078125,0.0234375,0,0.001342773,-0.00390625,0,0,0,0.0006103516,0.2263184,4.077,0,0,0,0.2000122,nan,2,0.063,1,0,0.2130737,0.2462769,0.2148132,0.2311096,0,0.0009765625,0,1,2,0
319.318,0.001009,-0.06054688,-0.06445312,0.04882812,-1.25,-0.125,6.242188,-0.02148438,-0.02148438,0.0390625,-0.0078125,0.0234375,0,0.001220703,-0.00402832,0.0001220703,0,0,0.0006103516,0.2263184,4.077,0,0,0,0.2000122,nan,2,0.073,1,0,0.284668,0.1819763,0.2632446,0.175354,0,0.0009765625,0,1,2,0
319.328,0.001009,-0.0703125,0.01953125,0.0546875,0.609375,3.484375,10.39844,-0.05664062,0.02148438,0.04492188,-0.005859375,0.0234375,0,0.0009765625,-0.00390625,0.0004882812,0,0,0.0006103516,0.2263184,4.077,0,0,0,0.2000122,nan,2,0.083,1,0,0.2663574,0.1834717,0.2499695,0.2054443,0,0.0009765625,0,1,2,0
319.338,0.00101,0.1367188,-0.02929688,-0.05273438,-2.507812,6.203125,15.57031,-0.0078125,0.03515625,0.04492188,-0.00390625,0.02148438,0,0.0007324219,-0.003540039,0.0009765625,0,0,0.0006103516,0.2263184,4.077,0,0,0,0.2000122,nan,2,0.092,1,0,0.2072144,0.2505798,0.2135925,0.2338867,0,0.0009765625,0,1,2,0
319.348,0.001002,0.015625,-0.05859375,-0.015625,0.4609375,-7.304688,7.476562,-0.005859375,0.005859375,-0.009765625,-0.005859375,0.01953125,0,0.0009765625,-0.003295898,0.001098633,0,0,0.0006103516,0.2263184,4.077,0,0,0,0.2000122,nan,2,0.102,1,0,0.1982422,0.2672119,0.1801453,0.2596741,0,0.0009765625,0,1,2,0
319.358,0.000996,-0.001953125,-0.02734375,0.01171875,1.804688,0.921875,9.976562,-0.02148438,0.01953125,-0.02539062,-0.005859375,0.01953125,0,0.0008544922,-0.003173828,0.0007324219,0,0,0.0006103516,0.2263184,4.077,0,0,0,0.2000122,nan,2,0.007,1,0,0.2308044,0.2270203,0.2221985,0.2252502,0,0.0009765625,0,1,2,0.2063492
319.368,0.001011,-0.08203125,0.01367188,0.05273438,-1.273438,-0.15625,13.67188,-0.0546875,0.02539062,0.03125,-0.001953125,0.01757812,0,0.0003662109,-0.002807617,0.0008544922,0,0,0.0006103516,0.2263184,4.077,0,0,0,0.2000122,nan,2,0.017,1,0,0.2965088,0.1590576,0.2813416,0.168335,0,0.0009765625,0,1,2,0
319.378,0.001015,0.09765625,-0.1503906,-0.06640625,0.1953125,-5.148438,9.242188,0.01953125,-0.0546875,-0.005859375,0,0.01757812,0,0.0001220703,-0.002807617,0.0009765625,0,0,0.0006103516,0.2263184,4.077,0,0,0,0.2000122,nan,2,0.027,1,0,0.1821594,0.3048401,0.1685486,0.2496948,0,0.0009765625,0,1,2,0
319.388,0.001006,-0.02539062,0.04492188,-0.06640625,0.96875,-1.03125,7.132812,0.02148438,-0.04492188,-0.0234375,0,0.01953125,0,0.0001220703,-0.003173828,0.0007324219,0,0,0.0006103516,0.2263184,4.077,0,0,0,0.2000122,nan,2,0.037,1,0,0.2096252,0.2532043,0.2046814,0.2377625,0,0.0009765625,0,1,2,0
319.398,0.00101,0.0078125,-0.00390625,0.06835938,0.8125,1.039062,7.179688,0.01953125,-0.05078125,0.05273438,-0.001953125,0.02148438,0,0.0003662109,-0.003417969,0.0008544922,0,0,0.0006103516,0.2263184,4.077,0,0,0,0.2000122,nan,2,0.047,1,0,0.3338013,0.1373291,0.3182068,0.1159363,0,0.0009765625,0,1,2,0
319.408,0.001024,0.2011719,-0.08398438,0.0234375,1.023438,3.203125,10.23438,0.02734375,-0.0234375,0.01757812,-0.001953125,0.02148438,0,0.0002441406,-0.003540039,0.001220703,0,0,0.0006103516,0.2263184,4.077,0,0,0,0.2000122,nan,2,0.058,1,0,0.2024841,0.26651,0.2068787,0.2294006,0,0.0009765625,0,1,2,0
319.418,0.00101,0.1230469,0.2480469,0.06054688,0.953125,1.132812,10.50781,0.08203125,0.04882812,0.05664062,-0.00390625,0.02148438,0,0.0004882812,-0.003540039,0.001586914,0,0,0.0006103516,0.2263184,4.077,0,0,0,0.2000122,nan,2,0.068,1,0,0.2419128,0.1853943,0.302948,0.1750183,0,0.0009765625,0,1,2,0
319.428,0.001022,0.03125,-0.0234375,0.03320312,0.6015625,-3.140625,10.51562,-0.125,0.0546875,0.0390625,0.001953125,0.015625,0,-0.0004882812,-0.002685547,0.002075195,0,0,0.0006103516,0.2263184,4.077,0,0,0,0.2000122,nan,2,0,1,0,0.2364502,0.2233887,0.2096863,0.2357483,0,0.0009765625,0,1,2,0
319.438,0.001022,0.0546875,-0.00390625,0.1328125,0.9609375,-0.3671875,9.632812,0.01953125,0.01171875,0.1152344,0.005859375,0.01367188,0,-0.001098633,-0.002197266,0.002807617,0,0,0.0006103516,0.2263184,4.077,0,0,0,0.2000122,nan,2,0.01,1,0,0.3189392,0.1505432,0.3344116,0.1013489,0,0.0009765625,0,1,2,0.3015873
319.448,0.001011,-0.09570312,-0.03710938,0.1269531,0.90625,-0.5546875,9.851562,-0.04101562,-0.01953125,0.1308594,0.005859375,0.01171875,0,-0.001098633,-0.002075195,0.004150391,0,0,0.0006103516,0.2263184,4.077,0,0,0,0.2000122,nan,2,0.02,1,0,0.2952271,0.1738586,0.2597656,0.1763916,0,0.0009765625,0,1,2,0.5396826
319.458,0.001026,-0.04101562,-0.06445312,0.09570312,-0.703125,-1.664062,11.21094,-0.02148438,-0.01953125,0.1054688,0.0078125,0.01367188,0,-0.001342773,-0.002197266,0.005371094,0,0,0.0006103516,0.2263184,4.077,0,0,0,0.2000122,nan,2,0.03,1,0,0.2412109,0.2229004,0.2235413,0.2176208,0,0.0009765625,0,1,2,0
319.468,0.001029,0.02929688,0.03515625,-0.00390625,-1.351562,1.742188,15.21875,-0.02929688,0.0234375,0.015625,0.009765625,0.01171875,0,-0.001464844,-0.002075195,0.005859375,0,0,0.0006103516,0.2263184,4.077,0,0,0,0.2000122,nan,2,0.002,1,0,0.1634827,0.2868042,0.1569519,0.2980347,0,0.0009765625,0,1,2,0
319.478,0.001012,0.1386719,-0.01367188,-0.0546875,-1.8125,2.484375,13.8125,0.015625,0.02539062,-0.02734375,0.009765625,0.009765625,0,-0.001708984,-0.001708984,0.005859375,0,0,0.0006103516,0.2263184,4.077,0,0,0,0.2000122,nan,2,0.012,1,0,0.1584473,0.2971497,0.1737671,0.2758789,0,0.0009765625,0,1,2,0
319.488,0.001016,0.3964844,0.1191406,-0.1542969,-1.632812,9.367188,16.63281,0.296875,0.00390625,-0.07421875,0,0.009765625,0,-0.0001220703,-0.001708984,0.005371094,0,0,0.0006103516,0.2263184,4.077,0,0,0,0.2000122,nan,2,0.022,1,0,0.0798645,0.3777161,0.1709595,0.2767029,0,0.0009765625,0,1,2,0
319.498,0.001053,0.08984375,-0.04296875,-0.04882812,-2.90625,-1.757812,10.10938,0.06445312,-0.03125,-0.04882812,-0.005859375,0.01171875,0,0.0009765625,-0.001831055,0.004882812,0,0,0.0006103516,0.2263184,4.077,0,0,0,0.2000122,nan,2,0.032,1,0,0.2169495,0.2488098,0.196991,0.2425232,0,0.0009765625,0,1,2,0
319.508,0.001011,0.04492188,-0.01757812,0.009765625,-1.523438,2.21875,9.9375,0,-0.02148438,0.005859375,-0.0078125,0.01367188,0,0.001342773,-0.002319336,0.004882812,0,0,0.0006103516,0.2263184,4.077,0,0,0,0.2000122,nan,2,0.042,1,0,0.2546997,0.1972046,0.2427979,0.2105713,0,0.0009765625,0,1,2,0
319.518,0.001011,0.078125,0.02539062,0.1132812,-1.101562,-1.28125,7.65625,0.0703125,-0.001953125,0.0546875,-0.009765625,0.01367188,0,0.001708984,-0.002319336,0.005126953,0,0,0.0006103516,0.2263184,4.077,0,0,0,0.2000122,nan,2,0.052,1,0,0.2996521,0.1545105,0.3224792,0.1286316,0,0.0009765625,0,1,2,0
319.527,0.00097,0.00390625,-0.009765625,0.0703125,-0.8359375,1.171875,12.28125,0.00390625,0.0078125,0.09375,-0.009765625,0.01171875,0,0.001586914,-0.002075195,0.005981445,0,0,0.0006103516,0.2263184,4.077,0,0,0,0.2000122,nan,2,0.062,1,0,0.2706909,0.191864,0.2649841,0.1777039,0,0.0009765625,0,1,2,0
319.538,0.00101,-0.06640625,0.1015625,0.0546875,0.046875,-1.132812,12.6875,-0.009765625,0.0078125,0.08007812,-0.009765625,0.01171875,0,0.001708984,-0.002075195,0.006835938,0,0,0.0006103516,0.2263184,4.077,0,0,0,0.2000122,nan,2,0.072,1,0,0.2381592,0.2126465,0.2324219,0.2220154,0,0.0009765625,0,1,2,0
319.548,0.001013,0.03320312,-0.015625,0.1113281,1.265625,-2.070312,9.703125,0.01757812,0,0.09765625,-0.009765625,0.01171875,0,0.001708984,-0.002075195,0.0078125,0,0,0.0006103516,0.2263184,4.077,0,0,0,0.2000122,nan,2,0,1,0,0.2633667,0.1932068,0.2679443,0.1807556,0,0.0009765625,0,1,2,0.3492064
319.558,0.00101,-0.08984375,0.04101562,0.04296875,1.007812,-2.492188,6.890625,-0.0859375,-0.009765625,0.06054688,-0.0078125,0.01367188,0,0.001342773,-0.002197266,0.008544922,0,0,0.0006103516,0.2263184,4.077,0,0,0,0.2000122,nan,2,0.01,1,0,0.2202454,0.2336426,0.1949158,0.2564392,0,0.0009765625,0,1,2,0
319.568,0.000977,-0.1796875,0.07421875,-0.02929688,2.140625,-6.195312,9.835938,-0.0625,0.04492188,0.005859375,-0.005859375,0.01171875,0,0.0009765625,-0.002075195,0.008911133,0,0,0.0006103516,0.2263184,4.077,0,0,0,0.2000122,nan,2,0.02,1,0,0.1828918,0.2576294,0.1741028,0.2906494,0,0.0009765625,0,1,2,0
319.578,0.001024,-0.07421875,-0.1269531,-0.03320312,1.265625,-5.953125,10.10156,0.08398438,-0.06835938,-0.01953125,-0.009765625,0.01171875,0,0.001464844,-0.002075195,0.008544922,0,0,0.0006103516,0.2263184,4.077,0,0,0,0.2000122,nan,2,0.03,1,0,0.2439575,0.2409058,0.2314758,0.1888733,0,0.0009765625,0,1,2,0
319.588,0.001024,0.015625,0.001953125,-0.02734375,1.757812,1.070312,5.054688,0.03125,-0.01367188,-0.046875,-0.01367188,0.015625,0,0.002197266,-0.002563477,0.00793457,0,0,0.0006103516,0.2263184,4.077,0,0,0,0.2000122,nan,2,0.001,1,0,0.2261963,0.2241821,0.2240906,0.2308044,-0.0009765625,0.0009765625,0,1,2,0
319.598,0.0009860001,-0.02148438,0.0390625,-0.001953125,0.5703125,1.929688,10.22656,-0.02539062,0.02734375,-0.02539062,-0.01171875,0.015625,0,0.002075195,-0.002441406,0.00769043,0,0,0.0006103516,0.2263184,4.077,0,0,0,0.2000122,nan,2,0.011,1,0,0.2375488,0.207428,0.236969,0.2233276,-0.0009765625,0.0009765625,0,1,2,0
319.608,0.00101,0.02929688,-0.001953125,0.03125,-1.585938,1.601562,15.64062,0.01757812,0.0078125,0.0234375,-0.01171875,0.01367188,0,0.002075195,-0.002197266,0.00769043,0,0,0.0006103516,0.2263184,4.077,0,0,0,0.2000122,nan,2,0.021,1,0,0.2737122,0.1864929,0.2788086,0.1662292,-0.0009765625,0.0009765625,0,1,2,0
319.618,0.00101,0.005859375,-0.2089844,-0.0625,-2.203125,8.320312,15.13281,-0.03515625,-0.07421875,-0.02539062,-0.01367188,0.01367188,0,0.002197266,-0.002319336,0.0078125,0,0,0.0006103516,0.2263184,4.077,0,0,0,0.2000122,nan,2,0.031,1,0,0.1908875,0.3028564,0.1293945,0.282135,-0.0009765625,0.0009765625,0,1,2,0
319.627,0.001032,-0.03125,0.04101562,0.009765625,-2.109375,1.617188,12.86719,-0.08398438,0.02148438,-0.001953125,-0.01171875,0.015625,0,0.001831055,-0.002441406,0.007568359,0,0,0.0006103516,0.2263184,4.077,0,0,0,0.2000122,nan,2,0.04,1,0,0.2522888,0.1911316,0.2393188,0.2225037,-0.0009765625,0.001953125,0,1,2,0
319.638,0.001019,0.06835938,-0.02148438,0.0390625,-1.398438,-1.515625,11.01562,0.00390625,0.00390625,0.04101562,-0.0078125,0.01367188,0,0.001342773,-0.002319336,0.0078125,0,0,0.0006103516,0.2263184,4.077,0,0,0,0.2000122,nan,2,0.002,1,0,0.2625732,0.1979675,0.2770691,0.1676636,-0.0009765625,0.001953125,0,1,2,0
319.648,0.00101,-0.1894531,-0.02929688,-0.01953125,0.34375,-4.710938,11.60156,-0.1269531,0.03125,0.015625,-0.005859375,0.01367188,0,0.0009765625,-0.002075195,0.008178711,0,0,0.0006103516,0.2263184,4.077,0,0,0,0.2000122,nan,2,0.012,1,0,0.210022,0.2380676,0.1652527,0.2919312,0,0.001953125,0,1,2,0
319.658,0.00101,-0.1738281,-0.00390625,0.02148438,0.7421875,-4.03125,3.703125,-0.08007812,0.015625,-0.0078125,0,0.01171875,0,0,-0.001953125,0.00793457,0,0,0.0006103516,0.2263184,4.077,0,0,0,0.2000122,nan,2,0.022,1,0,0.2590027,0.1976013,0.2407837,0.2078857,0,0.001953125,0,1,2,0
319.668,0.001023,0.1582031,0.02929688,-0.04101562,1.921875,-4.273438,4.773438,0.08398438,-0.015625,0,-0.001953125,0.01171875,0,0.0002441406,-0.002075195,0.00793457,0,0,0.0006103516,0.2263184,4.077,0,0,0,0.2000122,nan,2,0.032,1,0,0.214325,0.2453003,0.2434692,0.2021484,0,0.001953125,0,1,2,0
319.678,0.001007,0.04101562,0.001953125,0.01171875,1.609375,1.335938,13.75781,-0.005859375,-0.005859375,0.001953125,0,0.01171875,0,0,-0.002075195,0.00793457,0,0,0.0006103516,0.2263184,4.077,0,0,0,0.2000122,nan,2,0.042,1,0,0.2423096,0.2172241,0.242218,0.2035217,0,0.001953125,0,1,2,0
319.688,0.001028,0.1308594,-0.03125,0.009765625,0.0234375,3.351562,15.53125,0.00390625,-0.009765625,0.03125,0.001953125,0.01171875,0,-0.0003662109,-0.002075195,0.008178711,0,0,0.0006103516,0.2263184,4.077,0,0,0,0.2000122,nan,2,0.053,1,0,0.2352295,0.2280273,0.2445068,0.1974792,0,0.001953125,0,1,2,0
319.698,0.00101,0.03710938,-0.03710938,-0.01757812,-1.492188,9.046875,13.38281,-0.02148438,-0.04296875,-0.009765625,0.00390625,0.01367188,0,-0.0007324219,-0.002197266,0.008178711,0,0,0.0006103516,0.2263184,4.077,0,0,0,0.2000122,nan,2,0.063,1,0,0.2105408,0.263916,0.191925,0.2388916,0,0.001953125,0,1,2,0
319.709,0.001014,-0.01953125,0.0078125,0.00390625,-1.429688,-2.28125,9.117188,-0.05664062,0.04492188,-0.015625,0.005859375,0.009765625,0,-0.0009765625,-0.001831055,0.008056641,0,0,0.0006103516,0.3105164,4.077,0,0,0,0.2999878,nan,2,0,1,0,0.3035583,0.3117065,0.2966614,0.3301697,0,0.001953125,0,1,2,0
319.718,0.001008,-0.0625,-0.01367188,-0.00390625,0.21875,-3.539062,7.898438,-0.01171875,-0.01367188,-0.005859375,0.005859375,0.009765625,0,-0.0009765625,-0.001831055,0.008056641,0,0,0.0006103516,0.3105164,4.077,0,0,0,0.2999878,nan,2,0.01,1,0,0.3131714,0.3192444,0.2977295,0.3119507,0,0.001953125,0,1,2,0
319.728,0.001032,-0.1523438,0.09375,0,-0.7421875,-1.4375,10.35938,-0.1425781,0.07421875,0,0.01171875,0.0078125,0,-0.001831055,-0.001464844,0.008056641,0,0,0.0006103516,0.3105164,4.077,0,0,0,0.2999878,nan,2,0.019,1,0,0.3177795,0.2848206,0.2937927,0.3457336,0,0.001953125,0,1,2,0
319.737,0.001011,0.1132812,-0.03710938,0.02929688,-1.507812,1.742188,11.15625,0.005859375,0.015625,0.0234375,0.01367188,0.005859375,0,-0.002441406,-0.001098633,0.008178711,0,0,0.0006103516,0.3105164,4.077,0,0,0,0.2999878,nan,2,0.029,1,0,0.3335571,0.2974854,0.3479004,0.2631836,0,0.0009765625,0,1,2,0
319.748,0.001011,0.01757812,0.0234375,-0.02148438,-0.515625,3.710938,10.91406,0.04296875,-0.01953125,0.00390625,0.01367188,0.005859375,0,-0.002197266,-0.001098633,0.008300781,0,0,0.0006103516,0.3105164,4.077,0,0,0,0.2999878,nan,2,0.039,1,0,0.2978516,0.3358154,0.301178,0.307251,0,0.001953125,0,1,2,0
319.758,0.001023,0.01953125,-0.02929688,0,1.726562,0.25,6.398438,-0.0234375,-0.02734375,-0.02148438,0.01171875,0.0078125,0,-0.002075195,-0.001464844,0.008056641,0,0,0.0006103516,0.3105164,4.077,0,0,0,0.2999878,nan,2,0.049,1,0,0.3104858,0.3176575,0.2884521,0.3255005,0,0.001953125,0,1,2,0
319.768,0.000968,0,-0.02734375,0.03320312,-0.3046875,-3.117188,12.36719,0.0703125,-0.04296875,-0.01367188,0.0078125,0.009765625,0,-0.001342773,-0.001708984,0.0078125,0,0,0.0006103516,0.3105164,4.077,0,0,0,0.2999878,nan,2,0.007,1,0,0.3343201,0.2995605,0.3287354,0.27948,0,0.001953125,0,1,2,0
319.778,0.001022,-0.1191406,0.04882812,-0.01367188,-0.890625,0.890625,12.14062,-0.04492188,0.05273438,-0.005859375,0.005859375,0.009765625,0,-0.001098633,-0.001586914,0.0078125,0,0,0.0006103516,0.3105164,4.077,0,0,0,0.2999878,nan,2,0.017,1,0,0.3234558,0.2804871,0.3074036,0.3307495,0,0.001953125,0,1,2,0
319.788,0.001001,0.1269531,-0.05273438,0.0390625,1.0625,-0.4921875,6.75,-0.01171875,0.015625,0.01953125,0.009765625,0.0078125,0,-0.001708984,-0.001098633,0.0078125,0,0,0.0006103516,0.3105164,4.077,0,0,0,0.2999878,nan,2,0.027,1,0,0.3445129,0.2874146,0.3469543,0.2632141,0,0.001953125,0,1,2,0
319.798,0.000977,-0.1230469,0.0390625,-0.09765625,-0.2734375,1.351562,10.28125,-0.04101562,0.0546875,-0.05664062,0.009765625,0.005859375,0,-0.001831055,-0.0009765625,0.007568359,0,0,0.0006103516,0.3105164,4.077,0,0,0,0.2999878,nan,2,0.037,1,0,0.2260742,0.3861389,0.2193909,0.4104919,0,0.001953125,0,1,2,0
319.808,0.00102,-0.01171875,0.05078125,-0.03320312,0.5859375,0.828125,9.648438,-0.005859375,0.01171875,-0.04882812,0.01367188,0.001953125,0,-0.002197266,-0.0003662109,0.006958008,0,0,0.0006103516,0.3105164,4.077,0,0,0,0.2999878,nan,2,0.047,1,0,0.3097839,0.3217773,0.3045959,0.3059387,0,0.0009765625,0,1,2,0.2539683
319.818,0.001028,-0.09570312,0.046875,-0.01367188,-0.765625,-1.164062,8.0625,-0.04101562,0.0390625,-0.03125,0.01367188,0.001953125,0,-0.002197266,-0.0001220703,0.006591797,0,0,0.0006103516,0.3105164,4.077,0,0,0,0.2999878,nan,2,0.002,1,0,0.3347473,0.2771912,0.3249817,0.3051758,0,0.0009765625,0,1,2,0
319.828,0.001011,0.03125,-0.1152344,0.00390625,-0.2421875,0.3125,12.58594,0.00390625,-0.01757812,0.0078125,0.015625,0,0,-0.002563477,-0.0001220703,0.006591797,0,0,0.0006103516,0.3105164,4.077,0,0,0,0.2999878,nan,2,0.013,1,0,0.3358154,0.3006897,0.3272705,0.2783508,0,0.0009765625,0,1,2,0
319.838,0.001001,-0.1367188,0.1601562,-0.05664062,1.492188,-4,7.742188,-0.07421875,0.09179688,-0.03125,0.01757812,-0.001953125,0,-0.002929688,0.0001220703,0.006469727,0,0,0.0006103516,0.3105164,4.077,0,0,0,0.2999878,nan,2,0.022,1,0,0.2601929,0.3283386,0.2675781,0.3859863,0,0.0009765625,0,1,2,0
319.848,0.00101,-0.09179688,0.0078125,0.03125,-1.75,2.90625,11.02344,-0.07421875,-0.01953125,-0.001953125,0.02148438,-0.001953125,0,-0.003662109,0.0002441406,0.006225586,0,0,0.0006103516,0.3105164,4.077,0,0,0,0.2999878,nan,2,0.032,1,0,0.3616028,0.2746887,0.3298645,0.2759705,0,0.0009765625,0,1,2,0
319.858,0.000992,-0.04296875,-0.1777344,0.03125,1.078125,-1.492188,9.46875,-0.06640625,-0.02929688,0.01367188,0.02539062,-0.001953125,0,-0.004150391,0.0003662109,0.006225586,0,0,0.0006103516,0.3105164,4.077,0,0,0,0.2999878,nan,2,0.042,1,0,0.3616028,0.2833557,0.3197021,0.2774353,0,0.0009765625,0,1,2,0.6349207
319.868,0.001009,-0.1738281,0.06445312,-0.005859375,-1.367188,0.234375,10.82031,-0.1191406,0.009765625,-0.009765625,0.02929688,0,0,-0.004882812,-0.0001220703,0.006225586,0,0,0.0006103516,0.3105164,4.077,0,0,0,0.2999878,nan,2,0.007,1,0,0.3060913,0.3000488,0.2810364,0.35495,0,0.0009765625,0,1,2,0
319.878,0.001016,0.08007812,0.03710938,-0.04492188,1.601562,1.109375,8.726562,0.0703125,0.05078125,-0.03320312,0.02734375,0,0,-0.004638672,0,0.006103516,0,0,0.0006103516,0.3105164,4.077,0,0,0,0.2999878,nan,2,0.017,1,0,0.2507629,0.3533936,0.2891846,0.3487549,0,0.0009765625,0,1,2,0
319.888,0.00101,0.04492188,0.01953125,-0.0625,-1.429688,-0.6328125,10.35938,0.0859375,0.04296875,-0.0390625,0.02148438,-0.001953125,0,-0.003662109,0.0003662109,0.005859375,0,0,0.0006103516,0.3105164,4.077,0,0,0,0.2999878,nan,2,0.027,1,0,0.2678833,0.3467102,0.2780762,0.3493958,0,0.0009765625,0,1,2,0
319.898,0.001049,-0.109375,-0.0078125,-0.01367188,0.7734375,1.90625,9.375,-0.01757812,-0.00390625,-0.0234375,0.01757812,-0.001953125,0,-0.002929688,0.0003662109,0.005615234,0,0,0.0006103516,0.3105164,4.077,0,0,0,0.2999878,nan,2,0.037,1,0,0.3248901,0.3029175,0.2806702,0.3336182,0,0.0009765625,0,1,2,0.2063492
319.908,0.001024,-0.08789062,0.0078125,-0.03710938,1.070312,-1.210938,8.179688,-0.03125,-0.01953125,-0.02734375,0.01757812,0,0,-0.002807617,0.0001220703,0.005493164,0,0,0.0006103516,0.3105164,4.077,0,0,0,0.2999878,nan,2,0.047,1,0,0.2859802,0.3369751,0.2541809,0.3649597,0,0.0009765625,0,1,2,0
319.918,0.000984,0.02929688,0.07617188,-0.08398438,-0.9921875,0.0234375,12.66406,0.01953125,0.046875,-0.06835938,0.01757812,-0.001953125,0,-0.002807617,0.0002441406,0.005126953,0,0,0.0006103516,0.3105164,4.077,0,0,0,0.2999878,nan,2,0.004,1,0,0.2320557,0.3718872,0.2514648,0.3867188,0,0.0009765625,0,1,2,0
319.928,0.001001,-0.1699219,-0.001953125,-0.03125,0.21875,-0.9296875,6.835938,-0.03125,0.01757812,-0.0390625,0.015625,-0.00390625,0,-0.002441406,0.0006103516,0.004516602,0,0,0.0006103516,0.3105164,4.077,0,0,0,0.2999878,nan,2,0.014,1,0,0.3491211,0.2798767,0.3112793,0.3018188,0,0.0009765625,0,1,2,0
319.938,0.001014,-0.06445312,-0.05859375,0.01171875,-2.078125,2.21875,9.570312,-0.0078125,0.00390625,-0.001953125,0.015625,-0.005859375,0,-0.002563477,0.0008544922,0.004272461,0,0,0.0006103516,0.3105164,4.077,0,0,0,0.2999878,nan,2,0.023,1,0,0.3677368,0.2635193,0.3508301,0.2600098,0,0.0009765625,0,1,2,0.2380952
319.948,0.001008,-0.1113281,0.02148438,-0.06054688,0.734375,-3.351562,7.359375,-0.0546875,-0.0078125,-0.0234375,0.01953125,-0.00390625,0,-0.003173828,0.0006103516,0.004272461,0,0,0.0006103516,0.3105164,4.077,0,0,0,0.2999878,nan,2,0.033,1,0,0.2769775,0.3454285,0.2648926,0.3547668,0,0.0009765625,0,1,2,0
319.958,0.000991,0.04101562,-0.01953125,-0.0703125,-0.7890625,-0.4140625,9.75,-0.04101562,-0.03125,-0.05078125,0.02539062,-0.00390625,0,-0.004272461,0.0006103516,0.00390625,0,0,0.0006103516,0.3105164,4.077,0,0,0,0.2999878,nan,2,0,1,0,0.2558289,0.3802795,0.2520142,0.3539734,0,0.0009765625,0,1,2,0.4444444
319.968,0.00105,0.0078125,-0.05664062,-0.01953125,0.421875,1.03125,10.88281,0.04492188,-0.001953125,-0.0390625,0.02539062,-0.00390625,0,-0.004150391,0.0006103516,0.003295898,0,0,0.0006103516,0.3105164,4.077,0,0,0,0.2999878,nan,2,0.01,1,0,0.3177795,0.3084106,0.3312988,0.2846375,0,0.0009765625,0,1,2,0
319.978,0.001007,0.05859375,0.1347656,-0.04882812,1.476562,-3.65625,7.945312,0.0390625,0.05273438,-0.02539062,0.02539062,-0.00390625,0,-0.004150391,0.0006103516,0.003051758,0,0,0.0006103516,0.3105164,4.077,0,0,0,0.2999878,nan,2,0.02,1,0,0.2832336,0.3157959,0.3144836,0.3285828,0.0009765625,0.0009765625,0,1,2,0
319.988,0.001006,0.08203125,0.01367188,-0.06835938,-1.382812,3.671875,12.08594,0.04296875,0,-0.0390625,0.02148438,-0.00390625,0,-0.003540039,0.0008544922,0.002685547,0,0,0.0006103516,0.3105164,4.077,0,0,0,0.2999878,nan,2,0.03,1,0,0.291626,0.3349915,0.2926941,0.3227844,0,0.0009765625,0,1,2,0
319.998,0.001052,-0.03320312,-0.04296875,-0.001953125,1.171875,0.5703125,9.351562,-0.01171875,0.015625,-0.01367188,0.01953125,-0.005859375,0,-0.003417969,0.001098633,0.002441406,0,0,0.0006103516,0.3105164,4.077,0,0,0,0.2999878,nan,2,0.04,1,0,0.3462524,0.2793579,0.3257141,0.2907715,0,0.0009765625,0,1,2,0.2222222
320.008,0.001018,-0.08203125,0.06835938,0.01367188,-0.96875,0.9453125,9.890625,-0.01953125,0.0390625,0.0078125,0.02148438,-0.005859375,0,-0.003662109,0.001098633,0.002441406,0,0,0.0006103516,0.3105164,4.077,0,0,0,0.2999878,nan,2,0.051,1,0,0.3282776,0.2771301,0.3379211,0.2987976,0.0009765625,0.0009765625,0,1,2,0.2539683
320.018,0.001034,0.1542969,-0.09960938,0.015625,2.367188,1,9.953125,0.07226562,-0.04101562,0.03320312,0.02148438,-0.005859375,0,-0.003662109,0.0009765625,0.002685547,0,0,0.0006103516,0.3105164,4.077,0,0,0,0.2999878,nan,2,0.002,1,0,0.3260803,0.3146973,0.3375244,0.2638245,0.0009765625,0.0009765625,0,1,2,0.01587302
320.028,0.001047,-0.001953125,0.009765625,0.01757812,-0.984375,0.3359375,12.30469,0.0234375,-0.03320312,0.01953125,0.01757812,-0.001953125,0,-0.003051758,0.0003662109,0.002929688,0,0,0.0006103516,0.3105164,4.077,0,0,0,0.2999878,nan,2,0.013,1,0,0.316803,0.3059387,0.3065186,0.3128662,0.0009765625,0.0009765625,0,1,2,0
320.038,0.001029,0.06640625,0.01953125,0.00390625,1.15625,1.460938,8.390625,0.0546875,-0.03515625,0.01171875,0.01757812,0,0,-0.002929688,0,0.003051758,0,0,0.0006103516,0.3105164,4.077,0,0,0,0.2999878,nan,2,0.022,1,0,0.302063,0.3229065,0.3140259,0.3031006,0.0009765625,0.0009765625,0,1,2,0
320.048,0.001011,-0.06640625,0.1035156,-0.08203125,-0.8203125,-0.8125,8.65625,0.015625,0.03125,-0.03515625,0.015625,0,0,-0.002685547,0,0.002929688,0,0,0.0006103516,0.3105164,4.077,0,0,0,0.2999878,nan,2,0.032,1,0,0.2371216,0.3670044,0.2469788,0.3909912,0.0009765625,0.0009765625,0,1,2,0
320.058,0.000991,-0.02539062,-0.00390625,-0.03515625,0.6640625,2.289062,10.20312,-0.009765625,0.01757812,-0.03125,0.015625,-0.001953125,0,-0.002685547,0.0002441406,0.002685547,0,0,0.0006103516,0.3105164,4.077,0,0,0,0.2999878,nan,2,0.042,1,0,0.2956543,0.3244934,0.2878418,0.334137,0.0009765625,0.0009765625,0,1,2,0
320.068,0.00103,0.0234375,-0.02734375,-0.04296875,0.8359375,-4.101562,12.42969,0.08007812,-0.00390625,-0.04101562,0.01171875,0,0,-0.002075195,0.0001220703,0.002441406,0,0,0.0006103516,0.3105164,4.077,0,0,0,0.2999878,nan,2,0.003,1,0,0.269989,0.3556213,0.2783813,0.3381348,0,0.0009765625,0,1,2,0
320.078,0.001009,0.01367188,0.06640625,-0.04882812,-0.796875,3.5,12.25,0.005859375,0.009765625,-0.04296875,0.009765625,0,0,-0.001708984,0,0.001953125,0,0,0.0006103516,0.3105164,4.077,0,0,0,0.2999878,nan,2,0.013,1,0,0.3029175,0.3115234,0.296875,0.33078,0,0.0009765625,0,1,2,0
320.088,0.001019,0.1210938,0.09960938,-0.04296875,0.53125,2.03125,10.64062,0.009765625,0.01757812,-0.046875,0.009765625,0,0,-0.001586914,0,0.001342773,0,0,0.0006103516,0.3105164,4.077,0,0,0,0.2999878,nan,2,0.023,1,0,0.3034668,0.3082886,0.3144226,0.315918,0,0.0009765625,0,1,2,0
320.098,0.001015,-0.1113281,0.0625,0.001953125,0.2109375,-2.742188,8.648438,-0.0546875,0.001953125,-0.01757812,0.0078125,-0.001953125,0,-0.001220703,0.0002441406,0.0009765625,0,0,0.0006103516,0.3105164,4.077,0,0,0,0.2999878,nan,2,0.033,1,0,0.3650818,0.2606201,0.3252258,0.2911682,0,0.0009765625,0,1,2,0
320.108,0.001028,-0.009765625,0.005859375,-0.02148438,-0.8046875,3.5625,12.07031,0.01171875,0.03125,-0.015625,0.005859375,-0.001953125,0,-0.0009765625,0.0003662109,0.0008544922,0,0,0.0006103516,0.3105164,4.077,0,0,0,0.2999878,nan,2,0.002,1,0,0.303833,0.3130493,0.2988892,0.326355,0,0.0009765625,0,1,2,0
320.118,0.001014,0.2070312,-0.1367188,0.001953125,1.34375,-3.085938,10.26562,0,-0.0234375,-0.0234375,0.0078125,-0.00390625,0,-0.001464844,0.0006103516,0.0004882812,0,0,0.0006103516,0.3105164,4.077,0,0,0,0.2999878,nan,2,0.012,1,0,0.3384705,0.3044434,0.3354797,0.2637024,0,0.0009765625,0,1,2,0
320.128,0.001011,0.15625,-0.03515625,-0.04492188,-0.921875,0.3984375,10.88281,-0.001953125,0.001953125,-0.0546875,0.01171875,-0.00390625,0,-0.001831055,0.0006103516,0,0,0,0.0006103516,0.3105164,4.077,0,0,0,0.2999878,nan,2,0.022,1,0,0.2888184,0.3388977,0.2970581,0.3173218,0.0009765625,0.0009765625,0,1,2,0
320.139,0.001029,0.05078125,0.01757812,-0.03320312,0.953125,1.648438,10.83594,0.06835938,0.046875,-0.02929688,0.005859375,-0.005859375,0,-0.0009765625,0.0008544922,-0.0004882812,0,0,0.0006103516,0.3105164,4.077,0,0,0,0.2999878,nan,2,0.032,1,0,0.3192444,0.2900696,0.3391113,0.2936707,0,0.0009765625,0,1,2,0
320.148,0.001042,0.1132812,0.01757812,-0.02539062,0.328125,-3.84375,7.960938,0.1484375,-0.0625,-0.0234375,0.001953125,-0.00390625,0,-0.0002441406,0.0007324219,-0.0007324219,0,0,0.0006103516,0.3105164,4.077,0,0,0,0.2999878,nan,2,0.041,1,0,0.3066711,0.3383179,0.3204956,0.2766113,0,0.0009765625,0,1,2,0
320.158,0.00103,0.02539062,-0.0546875,-0.005859375,-0.4765625,2.921875,13.19531,0.05664062,-0.015625,-0.0078125,-0.00390625,-0.001953125,0,0.0007324219,0.0003662109,-0.0009765625,0,0,0.0006103516,0.3105164,4.077,0,0,0,0.2999878,nan,2,0.002,1,0,0.3277893,0.294342,0.3232727,0.2967224,0,0.0009765625,0,1,2,0
320.168,0.001011,-0.06835938,-0.109375,-0.1425781,1.03125,-2.40625,8.632812,-0.02929688,-0.02148438,-0.08789062,-0.00390625,-0.001953125,0,0.0006103516,0.0004882812,-0.001464844,0,0,0.0006103516,0.3105164,4.077,0,0,0,0.2999878,nan,2,0.012,1,0,0.2258911,0.4105225,0.1974182,0.4082642,0,0.0009765625,0,1,2,0
320.178,0.001009,-0.02929688,0.0625,-0.078125,-0.9296875,-1.507812,9.265625,-0.05859375,0.0234375,-0.09765625,0.001953125,-0.001953125,0,-0.0002441406,0.0003662109,-0.002441406,0,0,0.0006103516,0.3105164,4.077,0,0,0,0.2999878,nan,2,0.022,1,0,0.2747192,0.3332214,0.2865295,0.3476257,0,0.0009765625,0,1,2,0.0952381
320.188,0.001016,-0.1425781,0.005859375,-0.1074219,-1.5,3.601562,12.47656,-0.07617188,0.03710938,-0.09765625,0.001953125,-0.00390625,0,-0.0004882812,0.0006103516,-0.003417969,0,0,0.0006103516,0.3105164,4.077,0,0,0,0.2999878,nan,2,0.032,1,0,0.2766724,0.3370667,0.2548828,0.3735046,0,0.0009765625,0,1,2,0
320.198,0.001008,-0.0546875,-0.07226562,-0.1113281,1.125,0.140625,11.65625,0.02539062,-0.05273438,-0.07617188,0.001953125,-0.001953125,0,-0.0002441406,0.0002441406,-0.00402832,0,0,0.0006103516,0.3105164,4.077,0,0,0,0.2999878,nan,2,0.042,1,0,0.2801208,0.3584595,0.2606201,0.3428955,0,0.0009765625,0,1,2,0
320.208,0.001017,0.08398438,0.05859375,-0.08007812,1.179688,-2.382812,8.117188,0.08007812,0.015625,-0.09179688,-0.001953125,-0.001953125,0,0.0003662109,0.0001220703,-0.005004883,0,0,0.0006103516,0.3105164,4.077,0,0,0,0.2999878,nan,2,0.053,1,0,0.2615051,0.3502502,0.2872009,0.3431396,0,0.0009765625,0,1,2,0
320.218,0.001031,-0.1484375,0.0234375,-0.03710938,-0.890625,3.304688,10.01562,-0.06054688,0.001953125,-0.03515625,-0.005859375,-0.001953125,0,0.0009765625,0.0003662109,-0.005493164,0,0,0.0006103516,0.3105164,4.077,0,0,0,0.2999878,nan,2,0.063,1,0,0.3544617,0.2690735,0.3059082,0.3126831,0,0.0009765625,0,1,2,0
320.228,0.001011,0.2070312,-0.15625,-0.03710938,0.2578125,-0.96875,8.851562,0.06054688,-0.0859375,-0.03320312,-0.005859375,0,0,0.0008544922,0,-0.005615234,0,0,0.0006103516,0.3105164,4.077,0,0,0,0.2999878,nan,2,0.073,1,0,0.2819214,0.3748169,0.2749634,0.3104248,0,0.0009765625,0,1,2,0
320.238,0.001011,-0.00390625,-0.02929688,-0.0703125,0.0078125,0.8203125,9,0.005859375,-0.01953125,-0.0546875,-0.009765625,0.00390625,0,0.001464844,-0.0007324219,-0.006103516,0,0,0.0006103516,0.3105164,4.077,0,0,0,0.2999878,nan,2,0.083,1,0,0.2616882,0.3494873,0.2579651,0.3729553,0,0.0009765625,0,1,2,0
320.248,0.00101,-0.078125,-0.02929688,-0.06835938,0.125,1.546875,11.45312,-0.01757812,-0.0078125,-0.06054688,-0.009765625,0.005859375,0,0.001464844,-0.0008544922,-0.006591797,0,0,0.0006103516,0.3105164,4.077,0,0,0,0.2999878,nan,2,0.092,1,0,0.2787476,0.342804,0.26828,0.3522644,0,0.0009765625,0,1,2,0
320.258,0.00101,0.1484375,0.06640625,-0.0859375,-0.015625,-0.2421875,8.140625,0.1074219,0.05078125,-0.08203125,-0.009765625,0.00390625,0,0.001708984,-0.0007324219,-0.007202148,0,0,0.0006103516,0.3105164,4.077,0,0,0,0.2999878,nan,2,0.102,1,0,0.2259827,0.3787231,0.2850952,0.3522949,0,0.0009765625,0,1,2,0
320.268,0.00101,-0.02734375,-0.07421875,-0.06054688,-1.59375,-0.734375,9.007812,-0.03320312,-0.01757812,-0.07617188,-0.01171875,0.001953125,0,0.001831055,-0.0004882812,-0.00793457,0,0,0.0006103516,0.3105164,4.077,0,0,0,0.2999878,nan,2,0.112,1,0,0.3103638,0.3304749,0.2722778,0.32901,0,0.0009765625,0,1,2,0
320.278,0.001013,0.09960938,-0.0546875,-0.08398438,-1.78125,1.21875,11.94531,0.07421875,-0.02148438,-0.08398438,-0.01171875,0.00390625,0,0.001953125,-0.0007324219,-0.008789062,0,0,0.0006103516,0.3105164,4.077,0,0,0,0.2999878,nan,2,0.122,1,0,0.2670593,0.3627625,0.2905884,0.3216858,0,0.0009765625,0,1,2,0
320.288,0.001008,0.2011719,0.00390625,-0.09765625,0.6953125,-1.03125,4.335938,0.1796875,0.01171875,-0.07421875,-0.01953125,0.00390625,0,0.003295898,-0.0006103516,-0.009643555,0,0,0.0006103516,0.3105164,4.077,0,0,0,0.2999878,nan,2,0.132,1,0,0.2728882,0.3509827,0.3153992,0.3028564,0,0.0009765625,0,1,2,0
320.298,0.001021,0.05859375,-0.02929688,-0.05078125,0.4453125,-2.554688,7.671875,0.03125,-0.046875,-0.0546875,-0.02148438,0.00390625,0,0.003417969,-0.0007324219,-0.01025391,0,0,0.0006103516,0.3105164,4.077,0,0,0,0.2999878,nan,2,0.142,1,0,0.3157654,0.3227234,0.3118286,0.2918091,0,0.0009765625,0,1,2,0
320.308,0.000981,0.04296875,-0.08007812,-0.05664062,-0.765625,0.8359375,12.3125,0.015625,0.005859375,-0.0546875,-0.01953125,0.00390625,0,0.003295898,-0.0007324219,-0.01074219,0,0,0.0006103516,0.3105164,4.077,0,0,0,0.2999878,nan,2,0.004,1,0,0.2833252,0.3400574,0.2921753,0.3265381,0,0.0009765625,0,1,2,0
320.318,0.00101,0.1035156,0.00390625,-0.04882812,1.398438,1.34375,8.4375,-0.00390625,-0.01171875,-0.04101562,-0.01953125,0.00390625,0,0.003295898,-0.0008544922,-0.01123047,0,0,0.0006103516,0.3105164,4.077,0,0,0,0.2999878,nan,2,0.014,1,0,0.3091431,0.3179626,0.3068848,0.3081055,0,0.0009765625,0,1,2,0
320.328,0.00101,0.1582031,-0.1171875,-0.03125,0.0703125,-2.851562,12.23438,0.04492188,-0.0078125,-0.04492188,-0.01953125,0.00390625,0,0.003417969,-0.0006103516,-0.01171875,0,0,0.0006103516,0.3105164,4.077,0,0,0,0.2999878,nan,2,0.024,1,0,0.2893982,0.344574,0.3023987,0.3057251,0,0.0009765625,0,1,2,0
320.337,0.00101,0.03320312,-0.0078125,-0.06445312,0.1015625,1.6875,9.78125,0.01171875,-0.009765625,-0.05078125,-0.02148438,0.005859375,0,0.003540039,-0.0008544922,-0.01208496,0,0,0.0006103516,0.3105164,4.077,0,0,0,0.2999878,nan,2,0.033,1,0,0.2703552,0.3533325,0.2715454,0.3468933,0,0.0009765625,0,1,2,0.2380952
320.348,0.00101,-0.01953125,-0.005859375,-0.04101562,1.78125,-1,6,-0.03320312,0.02734375,-0.05664062,-0.02148438,0.00390625,0,0.003417969,-0.0006103516,-0.01269531,0,0,0.0006103516,0.3105164,4.077,0,0,0,0.2999878,nan,2,0.043,1,0,0.2961731,0.3208923,0.2920227,0.3330078,0,0.0009765625,0,1,2,0
320.358,0.00101,0.1367188,0.08007812,-0.08203125,-1.179688,-1.65625,10.21875,0.02148438,0.01757812,-0.0546875,-0.01953125,0.00390625,0,0.003295898,-0.0007324219,-0.01306152,0,0,0.0006103516,0.3105164,4.077,0,0,0,0.2999878,nan,2,0.054,1,0,0.2462463,0.3645325,0.2791748,0.3521423,0,0.0009765625,0,1,2,0
320.368,0.001003,-0.02734375,-0.02734375,-0.01953125,-0.109375,4.757812,14.44531,-0.0390625,0,-0.05664062,-0.01953125,0.00390625,0,0.003173828,-0.0007324219,-0.0135498,0,0,0.0006103516,0.3105164,4.077,0,0,0,0.2999878,nan,2,0.064,1,0,0.3006592,0.3240662,0.2840271,0.333374,0,0.0009765625,0,1,2,0
320.378,0.00102,0.009765625,0.09375,-0.07617188,0.7734375,-0.7890625,10.6875,0.01757812,0.0234375,-0.05859375,-0.01953125,0.005859375,0,0.003295898,-0.0008544922,-0.01403809,0,0,0.0006103516,0.3105164,4.077,0,0,0,0.2999878,nan,2,0.074,1,0,0.2667542,0.3439636,0.2831726,0.348175,0,0.001953125,0,1,2,0
320.388,0.001032,-0.009765625,-0.02148438,-0.01757812,-1.210938,-0.7109375,9.359375,0.009765625,0.01367188,-0.02929688,-0.01953125,0.00390625,0,0.003417969,-0.0007324219,-0.01452637,0,0,0.0006103516,0.3105164,4.077,0,0,0,0.2999878,nan,2,0.002,1,0,0.3285217,0.2915649,0.3322754,0.2897644,0,0.0009765625,0,1,2,0.2063492
320.398,0.001007,-0.05273438,-0.01171875,-0.03125,-0.53125,2.328125,11.75,-0.02148438,0,-0.02929688,-0.01953125,0.005859375,0,0.003417969,-0.0008544922,-0.01477051,0,0,0.0006103516,0.3105164,4.077,0,0,0,0.2999878,nan,2,0.012,1,0,0.3033142,0.3181458,0.2947388,0.3258972,0,0.001953125,0,1,2,0
320.408,0.001051,-0.005859375,0.08789062,-0.005859375,1.5625,-2.757812,10.07031,0.009765625,0.02929688,-0.01757812,-0.02148438,0.00390625,0,0.003417969,-0.0007324219,-0.01501465,0,0,0.0006103516,0.3105164,4.077,0,0,0,0.2999878,nan,2,0.022,1,0,0.3129883,0.2980652,0.3249512,0.3061218,0,0.001953125,0,1,2,0
320.418,0.000989,0.2988281,-0.1171875,-0.0625,-1.789062,3.382812,12.10938,0.04492188,-0.01757812,-0.06640625,-0.02148438,0.00390625,0,0.003540039,-0.0007324219,-0.01538086,0,0,0.0006103516,0.3105164,4.077,0,0,0,0.2999878,nan,2,0.032,1,0,0.2394104,0.3985901,0.2516479,0.352478,0,0.001953125,0,1,2,0
320.428,0.000996,0.06445312,0.05273438,-0.08203125,1.257812,-1.210938,9.203125,0.0625,0.001953125,-0.06445312,-0.02539062,0.005859375,0,0.004272461,-0.001098633,-0.01599121,0,0,0.0006103516,0.3105164,4.077,0,0,0,0.2999878,nan,2,0.005,1,0,0.2626648,0.3490295,0.2831726,0.3472595,0,0.001953125,0,1,2,0.0952381
320.437,0.001012,-0.01367188,0.02929688,-0.09375,0.09375,-2.414062,9.109375,-0.005859375,0.005859375,-0.08789062,-0.02734375,0.0078125,0,0.004516602,-0.001098633,-0.01672363,0,0,0.0006103516,0.3105164,4.077,0,0,0,0.2999878,nan,2,0.015,1,0,0.2633057,0.3556519,0.2588196,0.3643494,-0.0009765625,0.001953125,0,1,2,0.06349207
320.448,0.001012,0.1484375,-0.1230469,-0.0234375,-0.4765625,2.84375,10.21094,0.1308594,-0.0078125,-0.05664062,-0.03125,0.005859375,0,0.005249023,-0.0009765625,-0.01745605,0,0,0.0006103516,0.3105164,4.077,0,0,0,0.2999878,nan,2,0.025,1,0,0.3061523,0.3320618,0.3308105,0.2730713,-0.0009765625,0.001953125,0,1,2,0
320.458,0.00099,-0.05273438,0.001953125,-0.0859375,0.5546875,-0.1015625,10.40625,-0.015625,-0.00390625,-0.08789062,-0.03320312,0.005859375,0,0.005615234,-0.0009765625,-0.01818848,0,0,0.0006103516,0.3105164,4.077,0,0,0,0.2999878,nan,2,0.035,1,0,0.2673645,0.3606873,0.2435913,0.3704529,-0.0009765625,0.001953125,0,1,2,0
320.468,0.00101,0.00390625,0.001953125,-0.02929688,0.546875,-0.8671875,4.59375,0.00390625,0.03710938,-0.05664062,-0.03320312,0.005859375,0,0.005615234,-0.0008544922,-0.0189209,0,0,0.0006103516,0.3105164,4.077,0,0,0,0.2999878,nan,2,0.007,1,0,0.3228455,0.2901917,0.3348083,0.2942505,-0.0009765625,0.001953125,0,1,2,0
320.478,0.001021,0.03710938,0.05273438,-0.03515625,-2.0625,0.015625,9.632812,0.08789062,0.03125,-0.04296875,-0.03710938,0.00390625,0,0.006225586,-0.0006103516,-0.01928711,0,0,0.0006103516,0.3105164,4.077,0,0,0,0.2999878,nan,2,0.017,1,0,0.2810059,0.3365173,0.3118591,0.3127441,-0.0009765625,0.001953125,0,1,2,0
320.488,0.001012,0.0546875,-0.1152344,0.03125,1.203125,0.5234375,8.164062,-0.015625,0.009765625,-0.001953125,-0.0390625,0.001953125,0,0.006469727,-0.0004882812,-0.01940918,0,0,0.0006103516,0.3105164,4.077,0,0,0,0.2999878,nan,2,0.027,1,0,0.3468018,0.2805481,0.3295288,0.2852173,-0.0009765625,0.001953125,0,1,2,0
320.498,0.001003,0.1113281,-0.04492188,-0.04492188,0.3984375,-1.773438,9.632812,-0.01953125,0.04492188,-0.03515625,-0.0390625,0,0,0.006347656,0,-0.01965332,0,0,0.0006103516,0.3105164,4.077,0,0,0,0.2999878,nan,2,0.001,1,0,0.2804871,0.3409729,0.2851868,0.3354492,-0.0009765625,0.0009765625,0,1,2,0.4126984
320.508,0.001011,0.0078125,0.01757812,-0.04882812,-1.328125,0.6484375,10.70312,0.001953125,0.005859375,-0.05078125,-0.0390625,0,0,0.006347656,0.0001220703,-0.0201416,0,0,0.0006103516,0.3105164,4.077,0,0,0,0.2999878,nan,2,0.011,1,0,0.2930603,0.3331299,0.2969055,0.3190002,-0.0009765625,0.0009765625,0,1,2,0
320.518,0.001011,0.08398438,0.0390625,-0.07226562,0.7265625,2.40625,6.859375,0.0546875,-0.001953125,-0.05078125,-0.0390625,0,0,0.006591797,-0.0001220703,-0.02062988,0,0,0.0006103516,0.3105164,4.077,0,0,0,0.2999878,nan,2,0.021,1,0,0.2688293,0.3465271,0.3033752,0.3233643,-0.0009765625,0.0009765625,0,1,2,0
320.528,0.001008,-0.0546875,0.05273438,-0.09765625,0.140625,-3.484375,10.96875,-0.06445312,0.015625,-0.06835938,-0.03710938,0,0,0.006347656,-0.0001220703,-0.02124023,0,0,0.0006103516,0.3105164,4.077,0,0,0,0.2999878,nan,2,0.031,1,0,0.2684937,0.3461304,0.2583313,0.3691406,-0.0009765625,0.0009765625,0,1,2,0
320.538,0.000995,-0.009765625,-0.0078125,-0.06835938,-1.578125,2.921875,12.94531,0.05273438,-0.02734375,-0.05859375,-0.0390625,0,0,0.006469727,-0.0001220703,-0.02185059,0,0,0.0006103516,0.3105164,4.077,0,0,0,0.2999878,nan,2,0.041,1,0,0.2845459,0.353302,0.2926331,0.3115845,-0.0009765625,0.0009765625,0,1,2,0
320.548,0.001013,-0.03710938,-0.04882812,-0.02929688,1.648438,-0.1015625,8.828125,-0.04492188,-0.0078125,-0.03515625,-0.03710938,0,0,0.006347656,-0.0001220703,-0.0222168,0,0,0.0006103516,0.3105164,4.077,0,0,0,0.2999878,nan,2,0.05,1,0,0.3352966,0.2929077,0.3164978,0.2973938,-0.0009765625,0.0009765625,0,1,2,0
320.558,0.001009,-0.03515625,0.1132812,-0.07226562,-0.0234375,-3.507812,8.90625,0.001953125,0.03320312,-0.07421875,-0.03710938,0,0,0.006347656,0,-0.02282715,0,0,0.0006103516,0.3105164,4.077,0,0,0,0.2999878,nan,2,0.008,1,0,0.2539062,0.3534241,0.2715454,0.3631897,-0.0009765625,0.0009765625,0,1,2,0.2222222
320.568,0.001011,-0.03515625,-0.08203125,-0.04882812,-0.6015625,4.53125,12.23438,-0.03515625,-0.009765625,-0.0546875,-0.03710938,0,0,0.006225586,0.0001220703,-0.0234375,0,0,0.0006103516,0.3105164,4.077,0,0,0,0.2999878,nan,2,0.018,1,0,0.3117065,0.3210449,0.2923584,0.3170166,-0.0009765625,0.0009765625,0,1,2,0
320.578,0.001011,0.03320312,0.03710938,-0.1035156,0.9296875,0.1015625,10.3125,0.04492188,0.00390625,-0.09375,-0.03710938,0,0,0.006103516,0,-0.02416992,0,0,0.0006103516,0.3105164,4.077,0,0,0,0.2999878,nan,2,0.028,1,0,0.2279663,0.3893738,0.2611389,0.3636169,-0.0009765625,0.0009765625,0,1,2,0
320.588,0.001014,0.03320312,0.02929688,-0.08203125,1.226562,-2.445312,8.15625,0.01757812,-0.01757812,-0.05273438,-0.03515625,0.001953125,0,0.005981445,-0.0002441406,-0.02490234,0,0,0.0006103516,0.3105164,4.077,0,0,0,0.2999878,nan,2,0.038,1,0,0.3009644,0.321991,0.3165588,0.3025818,-0.0009765625,0.001953125,0,1,2,0
320.598,0.001008,-0.1699219,0.009765625,-0.05078125,-1,0.2421875,8.484375,0.00390625,0.0234375,-0.07421875,-0.03710938,0,0,0.006225586,-0.0001220703,-0.02563477,0,0,0.0006103516,0.3105164,4.077,0,0,0,0.2999878,nan,2,0.048,1,0,0.2822571,0.3319702,0.2890015,0.3388977,-0.0009765625,0.001953125,0,1,2,0
320.608,0.001024,-0.009765625,0.015625,-0.05859375,-0.0234375,-0.3671875,8.492188,0.00390625,0.009765625,-0.04882812,-0.03515625,0,0,0.005981445,0,-0.02612305,0,0,0.0006103516,0.3105164,4.077,0,0,0,0.2999878,nan,2,0.059,1,0,0.2969971,0.3263855,0.3045044,0.3142395,-0.0009765625,0.0009765625,0,1,2,0
320.618,0.0009869999,-0.0078125,-0.078125,-0.02539062,1.976562,0.75,6.476562,0.00390625,-0.04296875,-0.03710938,-0.03710938,0,0,0.006103516,-0.0001220703,-0.02648926,0,0,0.0006103516,0.3105164,4.077,0,0,0,0.2999878,nan,2,0.069,1,0,0.3284912,0.3117676,0.3138733,0.2879639,-0.0009765625,0.001953125,0,1,2,0
320.628,0.001003,0.02148438,-0.01171875,-0.04296875,-1.882812,-1.125,13.08594,0.00390625,0.001953125,-0.03320312,-0.03710938,0.001953125,0,0.006225586,-0.0002441406,-0.02685547,0,0,0.0006103516,0.3105164,4.077,0,0,0,0.2999878,nan,2,0.079,1,0,0.2941589,0.3258362,0.3003845,0.3217468,-0.0009765625,0.001953125,0,1,2,0
320.638,0.00102,0.0234375,0.1328125,-0.04101562,-0.6640625,1.09375,9.320312,0.02539062,0.02539062,-0.02734375,-0.04101562,0.001953125,0,0.006713867,-0.0003662109,-0.02709961,0,0,0.0006103516,0.3105164,4.077,0,0,0,0.2999878,nan,2,0.003,1,0,0.2918091,0.3144226,0.3095093,0.326355,-0.001953125,0.001953125,0,1,2,0.01587302
320.648,0.001048,0.03320312,-0.06640625,0.00390625,0.9609375,-5.304688,9.3125,-0.05859375,-0.03515625,-0.01171875,-0.04101562,0.001953125,0,0.006835938,-0.0004882812,-0.02722168,0,0,0.0006103516,0.3105164,4.077,0,0,0,0.2999878,nan,2,0.013,1,0,0.3401794,0.2982788,0.298584,0.3050537,-0.001953125,0.001953125,0,1,2,0
320.658,0.001,0.01367188,-0.01757812,-0.05859375,-1.484375,3.054688,11.33594,0.009765625,-0.01367188,-0.05664062,-0.04296875,0.00390625,0,0.007080078,-0.0006103516,-0.02770996,0,0,0.0006103516,0.3105164,4.077,0,0,0,0.2999878,nan,2,0.023,1,0,0.2648315,0.3618164,0.2643127,0.3511353,-0.001953125,0.001953125,0,1,2,0
320.668,0.00101,0.03125,0.02734375,-0.05664062,0.5078125,0.234375,10.53125,0.001953125,-0.001953125,-0.05664062,-0.04101562,0.00390625,0,0.006958008,-0.0004882812,-0.02832031,0,0,0.0006103516,0.3105164,4.077,0,0,0,0.2999878,nan,2,0.033,1,0,0.2920227,0.3305969,0.3058777,0.3136292,-0.001953125,0.001953125,0,1,2,0
320.678,0.001003,0.04492188,0.03515625,-0.0859375,0.9140625,-5.351562,9.390625,0.08398438,0.00390625,-0.07226562,-0.04296875,0.00390625,0,0.007324219,-0.0007324219,-0.02893066,0,0,0.0006103516,0.3105164,4.077,0,0,0,0.2999878,nan,2,0.043,1,0,0.2504272,0.365387,0.293396,0.3328552,-0.001953125,0.001953125,0,1,2,0
320.688,0.000993,0.06445312,-0.04492188,-0.0625,-2.15625,2.632812,9.15625,0.08984375,-0.04492188,-0.0625,-0.04492188,0.005859375,0,0.007568359,-0.0008544922,-0.02966309,0,0,0.0006103516,0.3105164,4.077,0,0,0,0.2999878,nan,2,0.054,1,0,0.29776,0.3407898,0.3189087,0.284668,-0.001953125,0.001953125,0,1,2,0.4920635
320.698,0.001006,-0.1386719,-0.0078125,-0.0703125,0.3671875,0.625,11.63281,-0.02148438,-0.02148438,-0.08398438,-0.046875,0.005859375,0,0.0078125,-0.001098633,-0.03051758,0,0,0.0006103516,0.3105164,4.077,0,0,0,0.2999878,nan,2,0.064,1,0,0.2950134,0.3349915,0.2738647,0.3382263,-0.001953125,0.001953125,0,1,2,0
320.708,0.001033,0.1210938,0.078125,-0.0703125,1.3125,-0.1015625,7.5625,0.06640625,0.02734375,-0.06835938,-0.046875,0.0078125,0,0.00793457,-0.001220703,-0.03125,0,0,0.0006103516,0.3105164,4.077,0,0,0,0.2999878,nan,2,0.007,1,0,0.2654114,0.3415222,0.3177185,0.3174744,-0.001953125,0.001953125,0,1,2,0
320.718,0.001006,0.125,-0.07617188,-0.005859375,0.0703125,-1.625,9.898438,0.03320312,-0.02148438,-0.0234375,-0.046875,0.005859375,0,0.0078125,-0.001098633,-0.03173828,0,0,0.0006103516,0.3105164,4.077,0,0,0,0.2999878,nan,2,0.017,1,0,0.3526611,0.2875977,0.3660583,0.2357788,-0.001953125,0.001953125,0,1,2,0.4285714
320.728,0.00101,0.07617188,0.04296875,-0.0625,-1.609375,1.367188,11.73438,0.01757812,0.01367188,-0.046875,-0.046875,0.0078125,0,0.00769043,-0.001220703,-0.03210449,0,0,0.0006103516,0.3105164,4.077,0,0,0,0.2999878,nan,2,0.027,1,0,0.2637024,0.3490601,0.2995605,0.3298035,-0.001953125,0.001953125,0,1,2,0
320.738,0.001016,0.03320312,-0.06835938,-0.04882812,2.375,-0.15625,7.351562,0.0234375,-0.015625,-0.0390625,-0.046875,0.0078125,0,0.0078125,-0.001342773,-0.03259277,0,0,0.0006103516,0.3105164,4.077,0,0,0,0.2999878,nan,2,0.037,1,0,0.2892151,0.3417664,0.2970886,0.3140259,-0.001953125,0.001953125,0,1,2,0
320.748,0.000992,-0.1699219,0.05664062,-0.07421875,-0.6640625,-2.429688,9.109375,0.01367188,-0.00390625,-0.05078125,-0.04882812,0.0078125,0,0.008178711,-0.001464844,-0.03295898,0,0,0.0006103516,0.3105164,4.077,0,0,0,0.2999878,nan,2,0.007,1,0,0.2841492,0.3380737,0.2854919,0.3344116,-0.001953125,0.001953125,0,1,2,0.1428571
320.758,0.00101,0.0390625,-0.0703125,-0.02148438,-0.2890625,2.921875,10.09375,0.005859375,-0.01757812,-0.03320312,-0.04882812,0.0078125,0,0.008056641,-0.001342773,-0.03344727,0,0,0.0006103516,0.3105164,4.077,0,0,0,0.2999878,nan,2,0.017,1,0,0.3280334,0.3088074,0.3246155,0.2806396,-0.001953125,0.001953125,0,1,2,0
320.768,0.00101,0.02539062,0.09570312,-0.015625,1.335938,-3.515625,11.21875,-0.046875,0.04296875,-0.04296875,-0.046875,0.0078125,0,0.00793457,-0.001220703,-0.03393555,0,0,0.0006103516,0.3105164,4.077,0,0,0,0.2999878,nan,2,0.027,1,0,0.3003235,0.3069458,0.3123779,0.3224792,-0.001953125,0.001953125,0,1,2,0
320.778,0.0009860001,0.03320312,-0.001953125,-0.03515625,-1.703125,0.6015625,9.570312,0.06640625,0.001953125,-0.02929688,-0.05078125,0.005859375,0,0.008544922,-0.001098633,-0.03417969,0,0,0.0006103516,0.3105164,4.077,0,0,0,0.2999878,nan,2,0.037,1,0,0.2914124,0.334198,0.3132629,0.3032227,-0.001953125,0.001953125,0,1,2,0.3968254
320.788,0.001011,-0.00390625,-0.02148438,-0.0234375,0.2265625,0.5,12.40625,-0.02539062,0.005859375,-0.046875,-0.05273438,0.005859375,0,0.008666992,-0.0009765625,-0.03466797,0,0,0.0006103516,0.3105164,4.077,0,0,0,0.2999878,nan,2,0.047,1,0,0.299408,0.3269653,0.2882385,0.3275146,-0.001953125,0.001953125,0,1,2,0
320.798,0.001009,0.1484375,-0.02734375,-0.04296875,1.484375,-0.6484375,7.046875,0.04101562,-0.02148438,-0.02929688,-0.05078125,0.005859375,0,0.008666992,-0.0009765625,-0.03503418,0,0,0.0006103516,0.3105164,4.077,0,0,0,0.2999878,nan,2,0.058,1,0,0.2952271,0.3404236,0.3145447,0.2919312,-0.001953125,0.001953125,0,1,2,0
320.808,0.001015,0.08398438,-0.005859375,0.015625,-1.804688,2.789062,11.42969,0.08007812,-0.03710938,-0.0078125,-0.05664062,0.0078125,0,0.009277344,-0.001220703,-0.03527832,0,0,0.0006103516,0.3105164,4.077,0,0,0,0.2999878,nan,2,0.068,1,0,0.3348083,0.3008728,0.350769,0.2556458,-0.002929688,0.001953125,0,1,2,0
320.818,0.001017,0.06640625,0.05078125,-0.04296875,0.9140625,0.1796875,8.210938,0.0546875,0.01953125,-0.02148438,-0.05859375,0.0078125,0,0.009765625,-0.001220703,-0.03540039,0,0,0.0006103516,0.3105164,4.077,0,0,0,0.2999878,nan,2,0.005,1,0,0.2687988,0.3446045,0.3016663,0.3270264,-0.002929688,0.001953125,0,1,2,0
320.828,0.001009,-0.001953125,-0.009765625,-0.04296875,0.1171875,-3.351562,7.796875,-0.04492188,0.02734375,-0.07421875,-0.05859375,0.0078125,0,0.009643555,-0.001098633,-0.03588867,0,0,0.0006103516,0.3105164,4.077,0,0,0,0.2999878,nan,2,0.015,1,0,0.2417297,0.3718262,0.244873,0.383667,-0.002929688,0.001953125,0,1,2,0
320.838,0.001014,0.03710938,0.02734375,-0.05078125,-1.804688,1.804688,10.5625,-0.0234375,0.01953125,-0.08203125,-0.0546875,0.005859375,0,0.009277344,-0.001098633,-0.03674316,0,0,0.0006103516,0.3105164,4.077,0,0,0,0.2999878,nan,2,0.025,1,0,0.2928467,0.3257751,0.3126526,0.3108521,-0.002929688,0.001953125,0,1,2,0
320.847,0.001008,-0.06640625,-0.1210938,-0.046875,0.6796875,2,10.73438,-0.06054688,-0.03710938,-0.05664062,-0.05273438,0.0078125,0,0.008789062,-0.001098633,-0.03735352,0,0,0.0006103516,0.3105164,4.077,0,0,0,0.2999878,nan,2,0.034,1,0,0.3280334,0.315094,0.3073425,0.291626,-0.002929688,0.001953125,0,1,2,0
320.858,0.00102,-0.05273438,0.01171875,0.02929688,1.476562,-5.476562,11.14844,-0.06445312,-0.01171875,-0.015625,-0.04882812,0.0078125,0,0.008178711,-0.001464844,-0.03771973,0,0,0.0006103516,0.3105164,4.077,0,0,0,0.2999878,nan,2,0.044,1,0,0.3536072,0.2676392,0.3522949,0.2685852,-0.002929688,0.001953125,0,1,2,0
320.868,0.001024,0.05664062,-0.01367188,-0.005859375,-2.03125,2.359375,10.15625,0.0078125,-0.0234375,-0.01953125,-0.04882812,0.009765625,0,0.008178711,-0.001831055,-0.03796387,0,0,0.0006103516,0.3105164,4.077,0,0,0,0.2999878,nan,2,0.005,1,0,0.3052979,0.320343,0.3170166,0.2994385,-0.002929688,0.001953125,0,1,2,0
320.878,0.001008,0.02734375,-0.06640625,-0.02148438,2.117188,-0.2109375,9.890625,0.015625,-0.0234375,-0.03515625,-0.05078125,0.01171875,0,0.008422852,-0.001953125,-0.03820801,0,0,0.0006103516,0.3105164,4.077,0,0,0,0.2999878,nan,2,0.015,1,0,0.2981567,0.3354187,0.297699,0.3108215,-0.002929688,0.001953125,0,1,2,0.3333333
320.888,0.000994,0.08984375,0.01171875,-0.04492188,0.1953125,-2.132812,10.3125,0.03710938,-0.02148438,-0.02929688,-0.05078125,0.01171875,0,0.008544922,-0.002075195,-0.03857422,0,0,0.0006103516,0.3105164,4.077,0,0,0,0.2999878,nan,2,0.025,1,0,0.2938538,0.3360596,0.3111877,0.3010254,-0.002929688,0.001953125,0,1,2,0
320.898,0.001017,-0.0390625,0.08984375,-0.06445312,-0.9765625,2.046875,14.97656,-0.01171875,0.00390625,-0.06445312,-0.05078125,0.01367188,0,0.008544922,-0.002197266,-0.0390625,0,0,0.0006103516,0.3105164,4.077,0,0,0,0.2999878,nan,2,0.035,1,0,0.2664185,0.3504639,0.2748718,0.3503418,-0.002929688,0.001953125,0,1,2,0
320.908,0.000985,0.00390625,0.05273438,-0.04101562,1.289062,-1.21875,6.859375,0.046875,-0.005859375,-0.04101562,-0.05273438,0.015625,0,0.008789062,-0.002563477,-0.03967285,0,0,0.0006103516,0.3105164,4.077,0,0,0,0.2999878,nan,2,0.006,1,0,0.2998352,0.3174133,0.328949,0.2958984,-0.002929688,0.001953125,0,1,2,0
320.918,0.001008,-0.1191406,-0.1269531,-0.09765625,0.578125,-1.890625,7.265625,0.00390625,-0.03710938,-0.07617188,-0.0546875,0.015625,0,0.009277344,-0.002685547,-0.04016113,0,0,0.0006103516,0.3105164,4.077,0,0,0,0.2999878,nan,2,0.016,1,0,0.2544861,0.3834534,0.2333984,0.3707886,-0.002929688,0.001953125,0,1,2,0
320.928,0.001025,-0.03125,-0.02148438,-0.06640625,-2.054688,1.195312,13.66406,0.0234375,-0.01953125,-0.1054688,-0.05859375,0.01757812,0,0.009765625,-0.003051758,-0.04125977,0,0,0.0006103516,0.3105164,4.077,0,0,0,0.2999878,nan,2,0.026,1,0,0.2675476,0.3586426,0.2693176,0.3465881,-0.002929688,0.001953125,0,1,2,0
320.938,0.00099,-0.02148438,0.1113281,-0.04101562,0.3359375,1.90625,12.10938,-0.01171875,-0.01367188,-0.02929688,-0.05859375,0.02148438,0,0.009643555,-0.003417969,-0.04174805,0,0,0.0006103516,0.3105164,4.077,0,0,0,0.2999878,nan,2,0.036,1,0,0.3381348,0.2788086,0.3496094,0.2755432,-0.002929688,0.001953125,0,1,2,0
320.948,0.001,-0.01171875,0.02929688,-0.001953125,1.054688,-4.125,8.492188,-0.0546875,0.04492188,-0.02734375,-0.05664062,0.01953125,0,0.009399414,-0.003173828,-0.04211426,0,0,0.0006103516,0.3105164,4.077,0,0,0,0.2999878,nan,2,0.045,1,0,0.3192139,0.2904663,0.3288879,0.3035278,-0.002929688,0.001953125,0,1,2,0.2222222
320.958,0.001002,0.009765625,-0.05078125,-0.07421875,-2.085938,3.101562,10.39844,-0.01367188,-0.01953125,-0.05859375,-0.0546875,0.01953125,0,0.009277344,-0.003295898,-0.04260254,0,0,0.0006103516,0.3105164,4.077,0,0,0,0.2999878,nan,2,0.007,1,0,0.282135,0.3545227,0.276886,0.3285522,-0.002929688,0.001953125,0,1,2,0
320.968,0.000991,0.03125,-0.0703125,-0.04101562,2.28125,1.210938,10.35156,0.01757812,-0.02539062,-0.06054688,-0.05664062,0.01953125,0,0.009399414,-0.003295898,-0.04321289,0,0,0.0006103516,0.3105164,4.077,0,0,0,0.2999878,nan,2,0.017,1,0,0.295105,0.3423157,0.3009338,0.303772,-0.002929688,0.001953125,0,1,2,0
320.978,0.001011,-0.0234375,0.04492188,-0.03515625,0.6171875,-3.90625,10.01562,0.005859375,0.009765625,-0.05078125,-0.05664062,0.02148438,0,0.009521484,-0.003417969,-0.04370117,0,0,0.0006103516,0.3105164,4.077,0,0,0,0.2999878,nan,2,0.027,1,0,0.2883911,0.330658,0.3031921,0.3198547,-0.00390625,0.001953125,0,1,2,0
320.988,0.001021,-0.1679688,0.05273438,-0.08203125,-1.679688,3.453125,10.69531,-0.06835938,0.0390625,-0.05859375,-0.05664062,0.01953125,0,0.009399414,-0.003295898,-0.04418945,0,0,0.0006103516,0.3105164,4.077,0,0,0,0.2999878,nan,2,0.001,1,0,0.2844238,0.3262939,0.2783508,0.3530579,-0.00390625,0.001953125,0,1,2,0
320.998,0.00101,0.00390625,0.04296875,-0.06835938,1.726562,-0.8828125,9.375,-0.02539062,0.02734375,-0.06445312,-0.05273438,0.01953125,0,0.008789062,-0.003173828,-0.04492188,0,0,0.0006103516,0.3105164,4.077,0,0,0,0.2999878,nan,2,0.011,1,0,0.2738342,0.3427124,0.2988586,0.3266907,-0.00390625,0.001953125,0,1,2,0.3968254
321.008,0.000979,0.03515625,-0.02148438,-0.08007812,1.59375,-1.109375,9.117188,0.005859375,-0.009765625,-0.06445312,-0.05078125,0.01953125,0,0.008544922,-0.003295898,-0.04553223,0,0,0.0006103516,0.3105164,4.077,0,0,0,0.2999878,nan,2,0.021,1,0,0.2683105,0.3606262,0.2847595,0.3283997,-0.00390625,0.001953125,0,1,2,0.01587302
321.018,0.001041,-0.125,-0.01367188,-0.03320312,-2.242188,0.1015625,12.40625,-0.05859375,0.001953125,-0.0390625,-0.05078125,0.02148438,0,0.008300781,-0.003417969,-0.04589844,0,0,0.0006103516,0.3105164,4.077,0,0,0,0.2999878,nan,2,0.031,1,0,0.3182068,0.3060303,0.30896,0.3088989,-0.00390625,0.001953125,0,1,2,0
321.028,0.001,0.01171875,0.04882812,-0.05273438,1.601562,1.695312,7.414062,-0.005859375,0.02929688,-0.04882812,-0.046875,0.01953125,0,0.00793457,-0.003295898,-0.04626465,0,0,0.0006103516,0.3105164,4.077,0,0,0,0.2999878,nan,2,0,1,0,0.2658386,0.3509827,0.2909546,0.3343201,-0.00390625,0.001953125,0,1,2,0
321.038,0.001031,0.1191406,-0.04492188,-0.046875,1.421875,-5.03125,12.625,-0.005859375,-0.0078125,-0.04492188,-0.046875,0.01953125,0,0.00793457,-0.003173828,-0.04675293,0,0,0.0006103516,0.3105164,4.077,0,0,0,0.2999878,nan,2,0.01,1,0,0.2971191,0.3392029,0.2980652,0.3077393,-0.00390625,0.001953125,0,1,2,0
321.047,0.00101,0.05078125,0.01953125,-0.07226562,-1.5625,3.46875,14.30469,-0.005859375,0.01953125,-0.0625,-0.046875,0.01953125,0,0.0078125,-0.003173828,-0.04724121,0,0,0.0006103516,0.3105164,4.077,0,0,0,0.2999878,nan,2,0.019,1,0,0.2623901,0.3575745,0.280304,0.3417969,-0.00390625,0.001953125,0,1,2,0
321.058,0.001014,-0.00390625,-0.02734375,-0.06054688,1.203125,-0.390625,8.726562,0.01757812,0.0078125,-0.046875,-0.046875,0.01757812,0,0.00793457,-0.002929688,-0.04772949,0,0,0.0006103516,0.3105164,4.077,0,0,0,0.2999878,nan,2,0.029,1,0,0.2990723,0.3312378,0.3074036,0.3043823,-0.00390625,0.001953125,0,1,2,0
321.068,0.001014,-0.03320312,0.02734375,-0.0546875,-1.546875,-2.921875,7.265625,0.01367188,0.0078125,-0.05273438,-0.04882812,0.01757812,0,0.008178711,-0.003051758,-0.04833984,0,0,0.0006103516,0.3105164,4.077,0,0,0,0.2999878,nan,2,0.039,1,0,0.2909546,0.3314209,0.302887,0.3168335,-0.00390625,0.001953125,0,1,2,0
321.078,0.00101,0.0390625,0.0078125,-0.0390625,-1.695312,3.445312,14.10938,0.0390625,-0.00390625,-0.06054688,-0.04882812,0.01757812,0,0.008178711,-0.002929688,-0.0489502,0,0,0.0006103516,0.3105164,4.077,0,0,0,0.2999878,nan,2,0.049,1,0,0.2900085,0.3432617,0.3096619,0.2991638,-0.00390625,0.001953125,0,1,2,0
321.088,0.001011,-0.0546875,0.01367188,-0.03320312,1.898438,-3.273438,5.78125,-0.04101562,0.02734375,-0.05273438,-0.046875,0.015625,0,0.00793457,-0.002685547,-0.04956055,0,0,0.0006103516,0.3105164,4.077,0,0,0,0.2999878,nan,2,0,1,0,0.3140259,0.312561,0.308075,0.3074341,-0.00390625,0.001953125,0,1,2,0
321.098,0.001029,0.0859375,-0.0234375,-0.03710938,0.453125,-2.789062,6.398438,0.02929688,0.02734375,-0.04492188,-0.04882812,0.015625,0,0.008178711,-0.002441406,-0.05004883,0,0,0.0006103516,0.3105164,4.077,0,0,0,0.2999878,nan,2,0.01,1,0,0.2952881,0.3268738,0.3123169,0.3076172,-0.00390625,0.001953125,0,1,2,0
321.108,0.001004,-0.1152344,0.08203125,-0.03515625,-1.6875,0.328125,12.90625,-0.04882812,0.02734375,-0.02929688,-0.04882812,0.01367188,0,0.008178711,-0.002319336,-0.05041504,0,0,0.0006103516,0.3105164,4.077,0,0,0,0.2999878,nan,2,0.02,1,0,0.3134766,0.3042603,0.3042603,0.3201294,-0.00390625,0.001953125,0,1,2,0
321.118,0.001017,-0.0078125,0.005859375,-0.02539062,1.609375,1.117188,8.96875,-0.015625,0.02734375,-0.03710938,-0.04882812,0.01367188,0,0.008056641,-0.002197266,-0.05065918,0,0,0.0006103516,0.3105164,4.077,0,0,0,0.2999878,nan,2,0.03,1,0,0.2860413,0.3327026,0.2978516,0.325531,-0.00390625,0.001953125,0,1,2,0
321.128,0.001002,0.078125,0.009765625,-0.01171875,-0.328125,-3.789062,10.28906,0.046875,-0.01953125,-0.02929688,-0.04882812,0.01367188,0,0.008056641,-0.002197266,-0.05102539,0,0,0.0006103516,0.3105164,4.077,0,0,0,0.2999878,nan,2,0.04,1,0,0.3027039,0.3342285,0.3268433,0.2783508,-0.00390625,0.001953125,0,1,2,0
321.138,0.001023,0.1171875,-0.1289062,0.02148438,-0.7890625,3.664062,10.54688,0.04492188,-0.015625,-0.01171875,-0.04882812,0.01171875,0,0.008178711,-0.001953125,-0.05126953,0,0,0.0006103516,0.3105164,4.077,0,0,0,0.2999878,nan,2,0.004,1,0,0.3343506,0.3105469,0.3410645,0.2561646,-0.00390625,0.001953125,0,1,2,0
321.148,0.00097,-0.015625,0.01757812,-0.0703125,0.734375,-2.8125,6.546875,0.01171875,0.04296875,-0.05859375,-0.05078125,0.009765625,0,0.008422852,-0.001708984,-0.05163574,0,0,0.0006103516,0.3105164,4.077,0,0,0,0.2999878,nan,2,0.013,1,0,0.2401733,0.3786621,0.2582397,0.3650513,-0.00390625,0.001953125,0,1,2,0
321.158,0.00101,0.15625,-0.03515625,-0.08007812,-1.046875,2.164062,8.734375,0.05273438,-0.0078125,-0.05273438,-0.05273438,0.0078125,0,0.008789062,-0.001342773,-0.05212402,0,0,0.0006103516,0.3105164,4.077,0,0,0,0.2999878,nan,2,0.023,1,0,0.2780457,0.362854,0.2901917,0.3110352,-0.00390625,0.001953125,0,1,2,0
321.168,0.00101,-0.00390625,-0.01757812,-0.09375,-0.125,-0.3984375,12.4375,-0.0234375,-0.01367188,-0.09570312,-0.05273438,0.009765625,0,0.008789062,-0.001464844,-0.05297852,0,0,0.0006103516,0.3105164,4.077,0,0,0,0.2999878,nan,2,0.033,1,0,0.2669067,0.3657837,0.2542419,0.3551941,-0.00390625,0.001953125,0,1,2,0
321.178,0.00101,-0.04296875,0.02148438,-0.03320312,0.859375,-0.2265625,6.320312,-0.03125,0.001953125,-0.05078125,-0.05078125,0.009765625,0,0.008666992,-0.001464844,-0.05371094,0,0,0.0006103516,0.3105164,4.077,0,0,0,0.2999878,nan,2,0.043,1,0,0.3325195,0.2924194,0.3321838,0.2849731,-0.004882812,0.001953125,0,1,2,0
321.188,0.001009,-0.0546875,0.02734375,0.01367188,-0.8125,-1.101562,10.59375,0.009765625,-0.02148438,0,-0.05273438,0.009765625,0,0.008911133,-0.001831055,-0.05395508,0,0,0.0006103516,0.3105164,4.077,0,0,0,0.2999878,nan,2,0.054,1,0,0.3551941,0.2710571,0.3581848,0.2576599,-0.004882812,0.001953125,0,1,2,0
321.198,0.001012,0.001953125,0.09570312,-0.015625,-0.6953125,3.523438,9.53125,-0.04296875,0.02929688,-0.02148438,-0.05273438,0.009765625,0,0.008666992,-0.001831055,-0.05407715,0,0,0.0006103516,0.3105164,4.077,0,0,0,0.2999878,nan,2,0.064,1,0,0.2802734,0.3295288,0.2952576,0.3370361,-0.004882812,0.001953125,0,1,2,0
321.208,0.000982,0.09960938,0.0390625,0.015625,0.046875,-4.242188,13.07031,-0.005859375,0.009765625,0.001953125,-0.05078125,0.009765625,0,0.008422852,-0.001831055,-0.05407715,0,0,0.0006103516,0.3105164,4.077,0,0,0,0.2999878,nan,2,0.074,1,0,0.3127441,0.3093262,0.3348694,0.2851562,-0.004882812,0.001953125,0,1,2,0
321.218,0.001032,0.08203125,-0.1367188,0.00390625,-0.4453125,4.117188,13.34375,0.01171875,-0.01171875,0.005859375,-0.05078125,0.0078125,0,0.008544922,-0.001464844,-0.05407715,0,0,0.0006103516,0.3105164,4.077,0,0,0,0.2999878,nan,2,0.084,1,0,0.3163452,0.3301392,0.3146362,0.2810059,-0.004882812,0.001953125,0,1,2,0
321.228,0.000993,0.03125,-0.01171875,-0.01171875,1.148438,-2.242188,4.882812,0,0.005859375,-0.01367188,-0.04882812,0.0078125,0,0.008056641,-0.001220703,-0.05419922,0,0,0.0006103516,0.3105164,4.077,0,0,0,0.2999878,nan,2,0.094,1,0,0.2901917,0.3420105,0.3057556,0.3041382,-0.004882812,0.001953125,0,1,2,0
321.238,0.000996,0.02929688,-0.03125,-0.08789062,-0.2890625,0.2734375,9.367188,0.00390625,-0.01367188,-0.02929688,-0.04882812,0.0078125,0,0.008056641,-0.001220703,-0.05432129,0,0,0.0006103516,0.3105164,4.077,0,0,0,0.2999878,nan,2,0.104,1,0,0.2667847,0.3684692,0.2712097,0.3356628,-0.004882812,0.001953125,0,1,2,0.07936508
321.247,0.001035,0.0078125,-0.01171875,-0.03125,0.671875,2.773438,7.75,-0.01757812,-0.01953125,-0.05273438,-0.04882812,0.0078125,0,0.00769043,-0.001220703,-0.05493164,0,0,0.0006103516,0,4.077,0,0,0,0,nan,2,0.006,1,0,0.1000061,0.1000061,0.1000061,0.1000061,0,0,0,1,2,0
321.257,0.00101,0.04492188,0.0546875,-0.06640625,1.6875,-3.492188,8.28125,-0.015625,-0.0078125,-0.03710938,-0.04882812,0.0078125,0,0.00769043,-0.001586914,-0.05529785,0,0,0.0006103516,0,4.077,0,0,0,0,nan,2,0.016,1,0,0.1000061,0.1000061,0.1000061,0.1000061,0,0,0,1,2,0
321.268,0.001003,0.0546875,-0.01757812,-0.02148438,0.453125,-0.34375,10.9375,0.009765625,0.01171875,-0.04101562,-0.04882812,0.0078125,0,0.007446289,-0.001342773,-0.05578613,0,0,0.0006103516,0,4.077,0,0,0,0,nan,2,0.026,1,0,0.1000061,0.1000061,0.1000061,0.1000061,0,0,0,1,2,0
321.278,0.00101,-0.04296875,0.01367188,0.03515625,0.734375,-5.320312,3.523438,-0.01171875,0.02734375,0.0078125,-0.04882812,0.0078125,0,0.007446289,-0.001220703,-0.0559082,0,0,0.0006103516,0,4.077,0,0,0,0,nan,2,0.036,1,0,0.1000061,0.1000061,0.1000061,0.1000061,0,0,0,1,2,0
321.288,0.001011,-0.06640625,0.03515625,0.05273438,-2.476562,6.554688,16.10938,-0.03515625,0.00390625,0.03515625,-0.04882812,0.0078125,0,0.007324219,-0.001220703,-0.05566406,0,0,0.0006103516,0,4.077,0,0,0,0,nan,2,0.046,1,0,0.1000061,0.1000061,0.1000061,0.1000061,0,0,0,1,2,0
321.298,0.001015,-0.1113281,0.046875,0.0234375,0.2890625,9.453125,11,-0.09375,0.0390625,0.02539062,-0.04882812,0.0078125,0,0.006835938,-0.0007324219,-0.05541992,0,0,0.0006103516,0,4.077,0,0,0,0,nan,2,0.057,1,0,0.1000061,0.1000061,0.1000061,0.1000061,0,0,0,1,2,0
321.308,0.001008,-0.02539062,0.009765625,0.02734375,-0.125,6.398438,13.22656,0.00390625,0.009765625,0.0234375,-0.04882812,0.0078125,0,0.006469727,-0.0006103516,-0.05517578,0,0,0.0006103516,0,4.077,0,0,0,0,nan,2,0.003,1,0,0.1000061,0.1000061,0.1000061,0.1000061,0,0,0,1,2,0
321.318,0.00101,0.09960938,0.02539062,0.03515625,0.828125,-2.476562,11.52344,0.02734375,0.001953125,0.0390625,-0.04882812,0.0078125,0,0.006469727,-0.0007324219,-0.05480957,0,0,0.0006103516,0,4.077,0,0,0,0,nan,2,0.013,1,0,0.1000061,0.1000061,0.1000061,0.1000061,0,0,0,1,2,0
321.328,0.001014,-0.02539062,-0.00390625,0.01953125,0.484375,-1.335938,1.28125,-0.0078125,0.005859375,0.0390625,-0.04882812,0.0078125,0,0.006591797,-0.0004882812,-0.05432129,0,0,0.0006103516,0,4.077,0,0,0,0,nan,2,0.023,1,0,0.1000061,0.1000061,0.1000061,0.1000061,0,0,0,1,2,0
321.338,0.00101,0.1679688,-0.09375,-0.015625,0.90625,-3.125,11.03906,0.09960938,-0.03320312,-0.01171875,-0.04882812,0.0078125,0,0.006591797,-0.0003662109,-0.05432129,0,0,0.0006103516,0,4.077,0,0,0,0,nan,2,0.033,1,0,0.1000061,0.1000061,0.1000061,0.1000061,0,0,0,1,2,0
321.348,0.001004,-0.05664062,-0.06835938,0.01171875,-0.171875,0.28125,14.41406,-0.00390625,-0.0234375,0.01367188,-0.04882812,0.0078125,0,0.006958008,-0.0004882812,-0.05432129,0,0,0.0006103516,0,4.077,0,0,0,0,nan,2,0.043,1,0,0.1000061,0.1000061,0.1000061,0.1000061,0,0,0,1,2,0
321.358,0.001029,-0.0390625,0.015625,0.009765625,0.0234375,0.78125,3.09375,-0.078125,0.04101562,0.01953125,-0.04882812,0.0078125,0,0.006469727,-0.0002441406,-0.05419922,0,0,0.0006103516,0,4.077,0,0,0,0,nan,2,0.004,1,0,0.1000061,0.1000061,0.1000061,0.1000061,0,0,0,1,2,0
321.368,0.001002,0.06835938,-0.015625,-0.0625,0.546875,-1.414062,17.46875,0.005859375,0.015625,-0.0390625,-0.04882812,0.0078125,0,0.006103516,-0.0001220703,-0.05432129,0,0,0.0006103516,0,4.077,0,0,0,0,nan,2,0.014,1,0,0.1000061,0.1000061,0.1000061,0.1000061,0,0,0,1,2,0
321.378,0.001009,-0.04101562,-0.02734375,-0.1015625,-0.8359375,3.726562,11.80469,-0.0546875,0.009765625,-0.08398438,-0.04882812,0.0078125,0,0.005859375,0,-0.05493164,0,0,0.0006103516,0,4.077,0,0,0,0,nan,2,0.024,1,0,0.1000061,0.1000061,0.1000061,0.1000061,0,0,0,1,2,0
321.388,0.000981,-0.02539062,-0.0078125,-0.02539062,0.734375,3.882812,9.421875,-0.015625,-0.01757812,-0.0546875,-0.04882812,0.0078125,0,0.005737305,-0.0001220703,-0.05566406,0,0,0.0006103516,0,4.077,0,0,0,0,nan,2,0.034,1,0,0.1000061,0.1000061,0.1000061,0.1000061,0,0,0,1,2,0.1428571
321.398,0.001014,-0.04101562,0.01367188,0.05273438,-0.359375,-0.421875,12.17969,-0.015625,-0.0078125,0.0234375,-0.04882812,0.0078125,0,0.005615234,-0.0001220703,-0.05578613,0,0,0.0006103516,0,4.077,0,0,0,0,nan,2,0.004,1,0,0.1000061,0.1000061,0.1000061,0.1000061,0,0,0,1,2,0
321.408,0.001014,-0.03320312,-0.03320312,0.01757812,-0.6640625,-4.125,12.57812,-0.02148438,-0.009765625,0.02929688,-0.04882812,0.0078125,0,0.005493164,0,-0.05554199,0,0,0.0006103516,0,4.077,0,0,0,0,nan,2,0.014,1,0,0.1000061,0.1000061,0.1000061,0.1000061,0,0,0,1,2,0
321.418,0.001011,0.02539062,-0.01757812,-0.03515625,0.796875,-5.789062,13.04688,-0.009765625,-0.005859375,-0.009765625,-0.04882812,0.0078125,0,0.005249023,0,-0.05541992,0,0,0.0006103516,0,4.077,0,0,0,0,nan,2,0.024,1,0,0.1000061,0.1000061,0.1000061,0.1000061,0,0,0,1,2,0
321.428,0.001011,0.009765625,0.015625,-0.09765625,1.96875,-3.039062,7.859375,-0.001953125,0.009765625,-0.0703125,-0.04882812,0.0078125,0,0.004882812,0.0001220703,-0.05578613,0,0,0.0006103516,0,4.077,0,0,0,0,nan,2,0,1,0,0.1000061,0.1000061,0.1000061,0.1000061,0,0,0,1,2,0
321.438,0.001052,-0.078125,0.04101562,-0.06445312,0.0234375,4.171875,15.51562,-0.04882812,0.009765625,-0.06835938,-0.04882812,0.0078125,0,0.004760742,0.0002441406,-0.05651855,0,0,0.0006103516,0,4.077,0,0,0,0,nan,2,0.01,1,0,0.1000061,0.1000061,0.1000061,0.1000061,0,0,0,1,2,0
321.448,0.001017,-0.05664062,0.08789062,-0.0234375,-0.8671875,-4.890625,6.109375,-0.03515625,0.02148438,-0.03515625,-0.04882812,0.0078125,0,0.004150391,0.0003662109,-0.05700684,0,0,-0.05700684,0,4.077,0,0,0,0,nan,2,0.02,0,0,0,0,0,0,0,0,0,1,2,0
321.458,0.001009,0.05273438,-0.01757812,0.03710938,0.9140625,3,12.47656,0.02929688,0.001953125,0.02539062,-0.04882812,0.0078125,0,0.004272461,0.0006103516,-0.05700684,0,0,-0.05700684,0,4.077,0,0,0,0,nan,2,0.03,0,0,0,0,0,0,0,0,0,1,2,0
321.468,0.001031,0.02734375,-0.02539062,0.06835938,0.859375,0.5546875,13.19531,0.0234375,-0.02734375,0.04882812,-0.04882812,0.0078125,0,0.004638672,0.0003662109,-0.05664062,0,0,-0.05664062,0,4.077,0,0,0,0,nan,2,0.039,0,0,0,0,0,0,0,0,0,1,2,0
321.478,0.001009,0,0.0546875,0.03515625,-1,2.421875,15.375,0,0.0234375,0.03710938,-0.04882812,0.0078125,0,0.004760742,0.0002441406,-0.05627441,0,0,-0.05627441,0,4.077,0,0,0,0,nan,2,0.049,0,0,0,0,0,0,0,0,0,1,2,0
321.488,0.00101,-0.01757812,-0.04101562,0,-0.859375,1.03125,17.84375,-0.001953125,-0.01171875,0.01367188,-0.04882812,0.0078125,0,0.004760742,0.0002441406,-0.0559082,0,0,-0.0559082,0,4.077,0,0,0,0,nan,2,0.06,0,0,0,0,0,0,0,0,0,1,2,0
321.498,0.001009,-0.08007812,-0.0546875,-0.05078125,1.625,0.078125,8.671875,-0.046875,-0.02539062,-0.01757812,-0.04882812,0.0078125,0,0.004516602,0.0002441406,-0.0559082,0,0,-0.0559082,0,4.077,0,0,0,0,nan,2,0.07,0,0,0,0,0,0,0,0,0,1,2,0
321.508,0.001006,-0.03710938,0.015625,-0.0390625,-0.234375,0.734375,9.617188,-0.02539062,-0.00390625,-0.03515625,-0.04882812,0.0078125,0,0.004272461,0.0002441406,-0.05627441,0,0,-0.05627441,0,4.077,0,0,0,0,nan,2,0.08,0,0,0,0,0,0,0,0,0,1,2,1
321.518,0.001027,0.04101562,0.03320312,-0.009765625,0.171875,0.921875,12.75,-0.02734375,0.00390625,-0.02734375,-0.04882812,0.0078125,0,0.00402832,0.0001220703,-0.05664062,0,0,-0.05664062,0,4.077,0,0,0,0,nan,2,0.09,0,0,0,0,0,0,0,0,0,1,2,0
321.528,0.001014,0.0234375,0.04882812,0.02734375,1.023438,-0.625,12.48438,-0.03125,0.00390625,0.015625,-0.04882812,0.0078125,0,0.003540039,0.0002441406,-0.05664062,0,0,-0.05664062,0,4.077,0,0,0,0,nan,2,0.1,0,0,0,0,0,0,0,0,0,1,2,0
321.538,0.001027,-0.0078125,0.00390625,0.08789062,-0.15625,-0.828125,9.304688,-0.005859375,0.015625,0.0703125,-0.04882812,0.0078125,0,0.003417969,0.0002441406,-0.05627441,0,0,-0.05627441,0,4.077,0,0,0,0,nan,2,0.11,0,0,0,0,0,0,0,0,0,1,2,1
321.548,0.00101,0.015625,-0.015625,0.07226562,0.53125,-0.078125,12.92188,0.0078125,-0.0234375,0.07226562,-0.04882812,0.0078125,0,0.003417969,0.0001220703,-0.05554199,0,0,-0.05554199,0,4.077,0,0,0,0,nan,2,0.12,0,0,0,0,0,0,0,0,0,1,2,0
321.557,0.00101,0.05273438,-0.06445312,0.04492188,0.3125,0.109375,10.25781,0.0234375,-0.0234375,0.05664062,-0.04882812,0.0078125,0,0.003417969,0.0001220703,-0.05493164,0,0,-0.05493164,0,4.077,0,0,0,0,nan,2,0.129,0,0,0,0,0,0,0,0,0,1,2,1
321.568,0.001025,0.005859375,-0.01757812,0.009765625,-0.4296875,-1.148438,11.6875,0,-0.009765625,0.02539062,-0.04882812,0.0078125,0,0.003662109,0,-0.05456543,0,0,-0.05456543,0,4.077,0,0,0,0,nan,2,0.139,0,0,0,0,0,0,0,0,0,1,2,0
321.578,0.00101,-0.00390625,-0.03710938,-0.03320312,-0.4609375,-1.421875,16.02344,-0.001953125,0.0078125,-0.01757812,-0.04882812,0.0078125,0,0.003662109,0,-0.05444336,0,0,-0.05444336,0,4.077,0,0,0,0,nan,2,0.149,0,0,0,0,0,0,0,0,0,1,2,0
321.588,0.000995,0.001953125,-0.0234375,-0.01171875,-0.6171875,-2.03125,13.70312,-0.01367188,0.005859375,-0.01757812,-0.04882812,0.0078125,0,0.003540039,0.0001220703,-0.0546875,0,0,-0.0546875,0,4.077,0,0,0,0,nan,2,0.16,0,0,0,0,0,0,0,0,0,1,2,0
321.598,0.001008,-0.02734375,-0.01953125,0.03320312,1.320312,-2.007812,10.39844,0.005859375,-0.001953125,0.0078125,-0.04882812,0.0078125,0,0.00378418,0.0001220703,-0.05480957,0,0,-0.05480957,0,4.077,0,0,0,0,nan,2,0.17,0,0,0,0,0,0,0,0,0,1,2,1
321.608,0.001029,-0.01757812,0,0,-0.28125,1.1875,11.28906,0.0078125,-0.00390625,0.005859375,-0.04882812,0.0078125,0,0.00378418,0.0001220703,-0.0546875,0,0,-0.0546875,0,4.077,0,0,0,0,nan,2,0.18,0,0,0,0,0,0,0,0,0,1,2,0
321.618,0.00101,0.009765625,0.01367188,-0.015625,-1.882812,-3.734375,10.00781,0.009765625,0.005859375,-0.015625,-0.04882812,0.0078125,0,0.00378418,0,-0.05480957,0,0,-0.05480957,0,4.077,0,0,0,0,nan,2,0.19,0,0,0,0,0,0,0,0,0,1,2,0
321.628,0.000995,0.01367188,0.005859375,-0.03320312,0.421875,2.5625,7.21875,0.009765625,0.009765625,-0.01953125,-0.04882812,0.0078125,0,0.00378418,0.0001220703,-0.05505371,0,0,-0.05505371,0,4.077,0,0,0,0,nan,2,0.2,0,0,0,0,0,0,0,0,0,1,2,0
321.638,0.000995,0.03320312,0.03125,0.0234375,0.4921875,-2.398438,12.34375,0.0078125,0.00390625,-0.00390625,-0.04882812,0.0078125,0,0.003662109,0,-0.05517578,0,0,-0.05517578,0,4.077,0,0,0,0,nan,2,0.21,0,0,0,0,0,0,0,0,0,1,2,0
321.648,0.00101,0.005859375,0.05078125,-0.001953125,-2.4375,-0.734375,13.28125,-0.005859375,-0.001953125,0.00390625,-0.04882812,0.0078125,0,0.003662109,0,-0.05517578,0,0,-0.05517578,0,4.077,0,0,0,0,nan,2,0.22,0,0,0,0,0,0,0,0,0,1,2,0
321.657,0.000996,0.02929688,-0.009765625,-0.01367188,4.21875,2.046875,7.757812,0.001953125,0.009765625,-0.00390625,-0.04882812,0.0078125,0,0.003540039,0.0001220703,-0.05517578,0,0,-0.05517578,0,4.077,0,0,0,0,nan,2,0.229,0,0,0,0,0,0,0,0,0,1,2,1
321.667,0.001007,0.02734375,0,-0.02148438,2.117188,1.289062,11.17188,0.00390625,-0.00390625,-0.009765625,-0.04882812,0.0078125,0,0.003540039,0,-0.05517578,0,0,-0.05517578,0,4.077,0,0,0,0,nan,2,0.239,0,0,0,0,0,0,0,0,0,1,2,0
321.678,0.001013,-0.06445312,0,0.01367188,-0.84375,-2.820312,9.5,-0.01367188,0,0.001953125,-0.04882812,0.0078125,0,0.003417969,0,-0.05529785,0,0,-0.05529785,0,4.077,0,0,0,0,nan,2,0.249,0,0,0,0,0,0,0,0,0,1,2,1
321.688,0.001013,0.015625,-0.0078125,0.001953125,2.523438,1.539062,9.679688,0.001953125,0.001953125,0.001953125,-0.04882812,0.0078125,0,0.003417969,-0.0001220703,-0.05529785,0,0,-0.05529785,0,4.077,0,0,0,0,nan,2,0.26,0,0,0,0,0,0,0,0,0,1,2,1
321.698,0.001007,-0.02539062,0.01953125,0.001953125,-0.828125,-2.375,10.10938,-0.0078125,0.001953125,0,-0.04882812,0.0078125,0,0.003417969,-0.0001220703,-0.05517578,0,0,-0.05517578,0,4.077,0,0,0,0,nan,2,0.27,0,0,0,0,0,0,0,0,0,1,2,1
321.708,0.000981,-0.00390625,-0.0625,0.001953125,2.007812,-2.40625,9.15625,-0.0078125,-0.009765625,-0.001953125,-0.04882812,0.0078125,0,0.003295898,-0.0001220703,-0.05529785,0,0,-0.05529785,0,4.077,0,0,0,0,nan,2,0.28,0,0,0,0,0,0,0,0,0,1,2,1
321.718,0.001012,0.03710938,-0.01171875,-0.03710938,0.15625,0.9921875,10.07031,0.0078125,-0.005859375,-0.0078125,-0.04882812,0.0078125,0,0.003295898,-0.0001220703,-0.05529785,0,0,-0.05529785,0,4.077,0,0,0,0,nan,2,0.29,0,0,0,0,0,0,0,0,0,1,2,1
321.728,0.000997,-0.05664062,-0.015625,0.0078125,0.7265625,-2.046875,9.296875,-0.001953125,-0.001953125,-0.001953125,-0.04882812,0.0078125,0,0.003173828,-0.0002441406,-0.05529785,0,0,-0.05529785,0,4.077,0,0,0,0,nan,2,0.3,0,0,0,0,0,0,0,0,0,1,2,1
321.738,0.000996,-0.0234375,0.046875,0.01171875,-0.7578125,-0.921875,10.71875,0,0.0078125,0,-0.04882812,0.0078125,0,0.003173828,-0.0002441406,-0.05541992,0,0,-0.05541992,0,4.077,0,0,0,0,nan,2,0.31,0,0,0,0,0,0,0,0,0,1,2,0
321.748,0.001046,0,0.0703125,0.001953125,-1.382812,0.703125,11.57812,-0.001953125,0.01757812,0.005859375,-0.04882812,0.0078125,0,0.003173828,-0.0002441406,-0.05529785,0,0,-0.05529785,0,4.077,0,0,0,0,nan,2,0.32,0,0,0,0,0,0,0,0,0,1,2,0
321.758,0.001001,0.03125,-0.00390625,-0.02929688,0.4453125,0.296875,9.820312,0.01171875,0.001953125,-0.00390625,-0.04882812,0.0078125,0,0.003173828,-0.0002441406,-0.05529785,0,0,-0.05529785,0,4.077,0,0,0,0,nan,2,0.33,0,0,0,0,0,0,0,0,0,1,2,1
321.768,0.001008,0.00390625,-0.06835938,0.0234375,0.765625,-0.484375,8.148438,-0.005859375,-0.005859375,0,-0.04882812,0.0078125,0,0.003173828,-0.0002441406,-0.05529785,0,0,-0.05529785,0,4.077,0,0,0,0,nan,2,0.339,0,0,0,0,0,0,0,0,0,1,2,0
321.778,0.000966,-0.0390625,0.03320312,-0.0078125,1.117188,0.5546875,9.945312,-0.01171875,0,-0.001953125,-0.04882812,0.0078125,0,0.003173828,-0.0002441406,-0.05529785,0,0,-0.05529785,0,4.077,0,0,0,0,nan,2,0.349,0,0,0,0,0,0,0,0,0,1,2,1
321.788,0.000982,0.02734375,0.05273438,0.005859375,-0.6796875,0.3515625,10.86719,0.0078125,0.01367188,0.001953125,-0.04882812,0.0078125,0,0.003173828,-0.0002441406,-0.05529785,0,0,-0.05529785,0,4.077,0,0,0,0,nan,2,0.36,0,0,0,0,0,0,0,0,0,1,2,0
321.798,0.001016,0.009765625,0.0234375,-0.001953125,0.15625,-0.765625,10.08594,0.005859375,0.01171875,-0.001953125,-0.04882812,0.0078125,0,0.003051758,-0.0002441406,-0.05529785,0,0,-0.05529785,0,4.077,0,0,0,0,nan,2,0.37,0,0,0,0,0,0,0,0,0,1,2,1
321.808,0.001008,-0.015625,0.01367188,0.00390625,0.3125,0.4453125,10.28906,-0.005859375,0.00390625,-0.00390625,-0.04882812,0.0078125,0,0.003051758,-0.0002441406,-0.05529785,0,0,-0.05529785,0,4.077,0,0,0,0,nan,2,0.38,0,0,0,0,0,0,0,0,0,1,2,1
321.818,0.001005,0.02148438,0.03125,0.005859375,-0.1015625,-0.265625,10.39844,0,0.0078125,-0.001953125,-0.04882812,0.0078125,0,0.003051758,-0.0002441406,-0.05529785,0,0,-0.05529785,0,4.077,0,0,0,0,nan,2,0.39,0,0,0,0,0,0,0,0,0,1,2,1
321.828,0.001018,-0.0078125,-0.00390625,-0.01171875,-0.15625,0.15625,10.23438,-0.00390625,0,-0.001953125,-0.04882812,0.0078125,0,0.003051758,-0.0002441406,-0.05529785,0,0,-0.05529785,0,4.077,0,0,0,0,nan,2,0.4,0,0,0,0,0,0,0,0,0,1,2,1
321.838,0.001009,-0.009765625,0.009765625,0.0234375,-0.3046875,-0.171875,9.851562,-0.001953125,-0.001953125,0.001953125,-0.04882812,0.0078125,0,0.002929688,-0.0002441406,-0.05529785,0,0,-0.05529785,0,4.077,0,0,0,0,nan,2,0.41,0,0,0,0,0,0,0,0,0,1,2,1
321.848,0.001009,0.005859375,0.009765625,-0.01171875,0.1015625,0.2109375,9.757812,-0.005859375,0.00390625,0,-0.04882812,0.0078125,0,0.002929688,-0.0002441406,-0.05529785,0,0,-0.05529785,0,4.077,0,0,0,0,nan,2,0.42,0,0,0,0,0,0,0,0,0,1,2,1
321.857,0.001012,0.005859375,-0.005859375,0.005859375,0.15625,-0.171875,9.828125,0,0,-0.00390625,-0.04882812,0.0078125,0,0.002807617,-0.0002441406,-0.05529785,0,0,-0.05529785,0,4.077,0,0,0,0,nan,2,0.429,0,0,0,0,0,0,0,0,0,1,2,1
321.868,0.001012,0.001953125,-0.001953125,0.001953125,0.140625,-0.0859375,9.734375,0,0.001953125,0.00390625,-0.04882812,0.0078125,0,0.002807617,-0.0002441406,-0.05529785,0,0,-0.05529785,0,4.077,0,0,0,0,nan,2,0.439,0,0,0,0,0,0,0,0,0,1,2,1
321.878,0.001012,0.0078125,0.01171875,-0.001953125,0.25,-0.1171875,9.59375,-0.001953125,0.001953125,0.00390625,-0.04882812,0.0078125,0,0.002807617,-0.0002441406,-0.05529785,0,0,-0.05529785,0,4.077,0,0,0,0,nan,2,0.449,0,0,0,0,0,0,0,0,0,1,2,1
321.888,0.001012,-0.0078125,0.00390625,0,0.4140625,0.1328125,9.953125,-0.005859375,0.00390625,-0.005859375,-0.04882812,0.0078125,0,0.002685547,-0.0002441406,-0.05541992,0,0,-0.05541992,0,4.077,0,0,0,0,nan,2,0.46,0,0,0,0,0,0,0,0,0,1,2,1
321.898,0.001014,-0.00390625,0.0078125,0.00390625,0.1640625,-0.25,10.14844,0.001953125,0.00390625,0.001953125,-0.04882812,0.0078125,0,0.002685547,-0.0002441406,-0.05529785,0,0,-0.05529785,0,4.077,0,0,0,0,nan,2,0.47,0,0,0,0,0,0,0,0,0,1,2,1
321.908,0.001015,-0.00390625,-0.00390625,0,0.140625,-0.03125,9.84375,-0.001953125,-0.001953125,-0.001953125,-0.04882812,0.0078125,0,0.002685547,-0.0002441406,-0.05541992,0,0,-0.05541992,0,4.077,0,0,0,0,nan,2,0.48,0,0,0,0,0,0,0,0,0,1,2,1
321.918,0.001013,0.0078125,0.009765625,0,0.34375,-0.28125,9.773438,0.00390625,0.005859375,0.00390625,-0.04882812,0.0078125,0,0.002685547,-0.0002441406,-0.05541992,0,0,-0.05541992,0,4.077,0,0,0,0,nan,2,0.49,0,0,0,0,0,0,0,0,0,1,2,1
321.928,0.001012,-0.001953125,-0.001953125,-0.01171875,0.1953125,0.359375,10.05469,-0.001953125,0,-0.009765625,-0.04882812,0.0078125,0,0.002563477,-0.0002441406,-0.05541992,0,0,-0.05541992,0,4.077,0,0,0,0,nan,2,0.5,0,0,0,0,0,0,0,0,0,1,2,1
321.938,0.001012,0.001953125,-0.001953125,0,0.171875,-0.203125,9.742188,0.001953125,0,0.005859375,-0.04882812,0.0078125,0,0.002563477,-0.0002441406,-0.05529785,0,0,-0.05529785,0,4.077,0,0,0,0,nan,2,0.51,0,0,0,0,0,0,0,0,0,1,2,1
321.948,0.001012,-0.00390625,0.001953125,0.01171875,-0.1484375,-0.109375,9.867188,-0.001953125,0,0,-0.04882812,0.0078125,0,0.002563477,-0.0002441406,-0.05541992,0,0,-0.05541992,0,4.077,0,0,0,0,nan,2,0.52,0,0,0,0,0,0,0,0,0,1,2,1
321.958,0.001012,0.00390625,0.001953125,-0.01171875,0.0625,-0.125,10.00781,0.001953125,0.001953125,-0.00390625,-0.04882812,0.0078125,0,0.002563477,-0.0003662109,-0.05541992,0,0,-0.05541992,0,4.077,0,0,0,0,nan,2,0.53,0,0,0,0,0,0,0,0,0,1,2,1
321.968,0.001008,-0.0078125,-0.001953125,0,-0.015625,0.1875,9.835938,-0.00390625,-0.001953125,0.00390625,-0.04882812,0.0078125,0,0.002563477,-0.0003662109,-0.05541992,0,0,-0.05541992,0,4.077,0,0,0,0,nan,2,0.539,0,0,0,0,0,0,0,0,0,1,2,1
321.978,0.001008,0.009765625,-0.00390625,-0.0078125,0.125,-0.1171875,9.828125,0.005859375,0,-0.005859375,-0.04882812,0.0078125,0,0.002563477,-0.0003662109,-0.05541992,0,0,-0.05541992,0,4.077,0,0,0,0,nan,2,0.549,0,0,0,0,0,0,0,0,0,1,2,1
321.988,0.001008,-0.0078125,0.00390625,0.00390625,-0.015625,0.015625,9.875,-0.00390625,-0.001953125,0.005859375,-0.04882812,0.0078125,0,0.002441406,-0.0003662109,-0.05541992,0,0,-0.05541992,0,4.077,0,0,0,0,nan,2,0.56,0,0,0,0,0,0,0,0,0,1,2,1
321.998,0.001007,0.00390625,-0.001953125,0.001953125,0.0546875,0.0078125,9.867188,0.001953125,0.001953125,-0.001953125,-0.04882812,0.0078125,0,0.002441406,-0.0003662109,-0.05541992,0,0,-0.05541992,0,4.077,0,0,0,0,nan,2,0.57,0,0,0,0,0,0,0,0,0,1,2,1
322.008,0.001005,-0.005859375,0,0.001953125,-0.015625,-0.0234375,9.851562,-0.001953125,-0.001953125,0,-0.04882812,0.0078125,0,0.002441406,-0.0004882812,-0.05541992,0,0,-0.05541992,0,4.077,0,0,0,0,nan,2,0.58,0,0,0,0,0,0,0,0,0,1,2,1
322.018,0.001008,0.001953125,0.001953125,0,0.0859375,-0.0078125,9.90625,0,0.00390625,0,-0.04882812,0.0078125,0,0.002441406,-0.0003662109,-0.05541992,0,0,-0.05541992,0,4.077,0,0,0,0,nan,2,0.59,0,0,0,0,0,0,0,0,0,1,2,1
322.028,0.001008,-0.001953125,0.001953125,-0.0078125,0.0078125,0,9.804688,-0.001953125,0.001953125,-0.001953125,-0.04882812,0.0078125,0,0.002319336,-0.0004882812,-0.05541992,0,0,-0.05541992,0,4.077,0,0,0,0,nan,2,0.6,0,0,0,0,0,0,0,0,0,1,2,1
322.038,0.001008,-0.001953125,-0.00390625,0.005859375,0.078125,-0.03125,9.835938,0,0,0,-0.04882812,0.0078125,0,0.002319336,-0.0004882812,-0.05541992,0,0,-0.05541992,0,4.077,0,0,0,0,nan,2,0.61,0,0,0,0,0,0,0,0,0,1,2,1
322.048,0.001008,-0.001953125,0.00390625,-0.00390625,-0.0078125,0.015625,9.867188,-0.001953125,0,-0.001953125,-0.04882812,0.0078125,0,0.002319336,-0.0004882812,-0.05541992,0,0,-0.05541992,0,4.077,0,0,0,0,nan,2,0.62,0,0,0,0,0,0,0,0,0,1,2,1
322.058,0.001008,-0.001953125,0.005859375,0.001953125,0.09375,-0.0859375,9.820312,0,0.00390625,-0.001953125,-0.04882812,0.0078125,0,0.002319336,-0.0004882812,-0.05541992,0,0,-0.05541992,0,4.077,0,0,0,0,nan,2,0.63,0,0,0,0,0,0,0,0,0,1,2,1
322.068,0.001012,-0.00390625,0,0,-0.015625,-0.015625,9.765625,-0.001953125,0,0.001953125,-0.04882812,0.0078125,0,0.002197266,-0.0004882812,-0.05541992,0,0,-0.05541992,0,4.077,0,0,0,0,nan,2,0.639,0,0,0,0,0,0,0,0,0,1,2,1
322.078,0.001012,0.001953125,0,-0.00390625,0.0625,-0.015625,9.765625,0.001953125,0.001953125,-0.001953125,-0.04882812,0.0078125,0,0.002197266,-0.0004882812,-0.05541992,0,0,-0.05541992,0,4.077,0,0,0,0,nan,2,0.649,0,0,0,0,0,0,0,0,0,1,2,1
322.088,0.001012,-0.00390625,0.00390625,0,-0.0234375,-0.015625,9.859375,-0.001953125,0.001953125,0,-0.04882812,0.0078125,0,0.002197266,-0.0004882812,-0.05541992,0,0,-0.05541992,0,4.077,0,0,0,0,nan,2,0.66,0,0,0,0,0,0,0,0,0,1,2,1
322.098,0.001013,-0.001953125,-0.00390625,0.001953125,0.0625,-0.0078125,9.859375,0,-0.001953125,0,-0.04882812,0.0078125,0,0.002197266,-0.0004882812,-0.05541992,0,0,-0.05541992,0,4.077,0,0,0,0,nan,2,0.67,0,0,0,0,0,0,0,0,0,1,2,1
322.108,0.001012,-0.001953125,0.00390625,0,0.0390625,-0.0546875,9.78125,-0.001953125,0.001953125,0,-0.04882812,0.0078125,0,0.002197266,-0.0004882812,-0.05541992,0,0,-0.05541992,0,4.077,0,0,0,0,nan,2,0.68,0,0,0,0,0,0,0,0,0,1,2,1
322.118,0.001012,0.001953125,0.001953125,0,0.0234375,-0.0234375,9.84375,0,0.001953125,0,-0.04882812,0.0078125,0,0.002075195,-0.0004882812,-0.05541992,0,0,-0.05541992,0,4.077,0,0,0,0,nan,2,0.69,0,0,0,0,0,0,0,0,0,1,2,1
322.128,0.001012,-0.00390625,0,-0.00390625,0.046875,0.0234375,9.820312,-0.001953125,0,0,-0.04882812,0.0078125,0,0.002075195,-0.0004882812,-0.05541992,0,0,-0.05541992,0,4.077,0,0,0,0,nan,2,0.7,0,0,0,0,0,0,0,0,0,1,2,1
322.138,0.001012,0.001953125,0.00390625,0,0.0234375,0,9.890625,0,0.001953125,0,-0.04882812,0.0078125,0,0.002075195,-0.0004882812,-0.05541992,0,0,-0.05541992,0,4.077,0,0,0,0,nan,2,0.71,0,0,0,0,0,0,0,0,0,1,2,1
322.148,0.001053,0,0,0.001953125,0.0625,-0.03125,9.828125,0,0,0,-0.04882812,0.0078125,0,0.002075195,-0.0004882812,-0.05541992,0,0,-0.05541992,0,4.077,0,0,0,0,nan,2,0.72,0,0,0,0,0,0,0,0,0,1,2,1
322.158,0.001012,-0.00390625,0,-0.00390625,0.0390625,-0.03125,9.859375,-0.001953125,-0.001953125,0,-0.04882812,0.0078125,0,0.001953125,-0.0004882812,-0.05541992,0,0,-0.05541992,0,4.077,0,0,0,0,nan,2,0.73,0,0,0,0,0,0,0,0,0,1,2,1
322.168,0.001007,0.001953125,0.001953125,0,0.015625,-0.015625,9.820312,0,0,0,-0.04882812,0.0078125,0,0.001953125,-0.0006103516,-0.05541992,0,0,-0.05541992,0,4.077,0,0,0,0,nan,2,0.739,0,0,0,0,0,0,0,0,0,1,2,1
322.178,0.001007,-0.001953125,0,-0.001953125,0.0546875,0.015625,9.875,0,0,0,-0.04882812,0.0078125,0,0.001953125,-0.0006103516,-0.05541992,0,0,-0.05541992,0,4.077,0,0,0,0,nan,2,0.749,0,0,0,0,0,0,0,0,0,1,2,1
322.188,0.001007,0.001953125,0,0.00390625,0.03125,-0.0078125,9.796875,0,0,0,-0.04882812,0.0078125,0,0.001953125,-0.0006103516,-0.05541992,0,0,-0.05541992,0,4.077,0,0,0,0,nan,2,0.76,0,0,0,0,0,0,0,0,0,1,2,1
322.198,0.001007,-0.001953125,0,-0.001953125,0.0234375,-0.0234375,9.875,-0.001953125,0,0,-0.04882812,0.0078125,0,0.001953125,-0.0006103516,-0.05541992,0,0,-0.05541992,0,4.077,0,0,0,0,nan,2,0.77,0,0,0,0,0,0,0,0,0,1,2,1
322.208,0.000982,0.00390625,-0.001953125,0,0.03125,0,9.851562,0,0.001953125,0,-0.04882812,0.0078125,0,0.001831055,-0.0006103516,-0.05541992,0,0,-0.05541992,0,4.077,0,0,0,0,nan,2,0.78,0,0,0,0,0,0,0,0,0,1,2,1
322.218,0.00101,0,0.00390625,-0.00390625,0.0546875,-0.0546875,9.859375,0,0.001953125,-0.001953125,-0.04882812,0.0078125,0,0.001831055,-0.0006103516,-0.05541992,0,0,-0.05541992,0,4.077,0,0,0,0,nan,2,0.79,0,0,0,0,0,0,0,0,0,1,2,1
322.228,0.001007,0.001953125,0.001953125,-0.00390625,0.0078125,-0.015625,9.835938,0,0.001953125,-0.001953125,-0.04882812,0.0078125,0,0.001831055,-0.0006103516,-0.05541992,0,0,-0.05541992,0,4.077,0,0,0,0,nan,2,0.8,0,0,0,0,0,0,0,0,0,1,2,1
322.238,0.001007,0.001953125,-0.001953125,0.001953125,0.046875,-0.015625,9.859375,0,0,0,-0.04882812,0.0078125,0,0.001831055,-0.0006103516,-0.05541992,0,0,-0.05541992,0,4.077,0,0,0,0,nan,2,0.81,0,0,0,0,0,0,0,0,0,1,2,1
322.25,0.002112,-0.001953125,0.001953125,0,0.0546875,0,9.835938,0,0,-0.001953125,-0.04882812,0.0078125,0,0.001831055,-0.0006103516,-0.05541992,0,0,-0.05541992,0,4.077,0,0,0,0,nan,2,0.821,0,0,0,0,0,0,0,0,0,1,2,1
322.301,0.001027,0.001953125,0.00390625,0,0.0546875,0,9.828125,0,0,-0.001953125,-0.04882812,0.0078125,0,0.001831055,-0.0006103516,-0.05541992,0,0,-0.05541992,0,4.077,0,0,0,0,nan,2,0.822,0,0,0,0,0,0,0,0,0,1,2,1
322.308,0.001134,0.001953125,0,0,0.0546875,0.015625,9.84375,0.001953125,0,0.001953125,-0.04882812,0.0078125,0,0.001953125,-0.0006103516,-0.05529785,0,0,-0.05529785,0,4.077,0,0,0,0,nan,2,0.88,0,0,0,0,0,0,0,0,0,1,2,1
322.318,0.001117,0,0.001953125,0,0.0390625,0.0078125,9.859375,0,0.001953125,0,-0.04882812,0.0078125,0,0.001953125,-0.0006103516,-0.05529785,0,0,-0.05529785,0,4.077,0,0,0,0,nan,2,0.889,0,0,0,0,0,0,0,0,0,1,2,1
322.328,0.000873,0.001953125,0,0.001953125,0.046875,0.0078125,9.859375,0,0,0,-0.04882812,0.0078125,0,0.001953125,-0.0006103516,-0.05529785,0,0,-0.05529785,0,4.077,0,0,0,0,nan,2,0.899,0,0,0,0,0,0,0,0,0,1,2,1
322.337,0.001146,-0.001953125,0,0,0.03125,0,9.8125,-0.001953125,0,0,-0.04882812,0.0078125,0,0.001953125,-0.0006103516,-0.05529785,0,0,-0.05529785,0,4.077,0,0,0,0,nan,2,0.909,0,0,0,0,0,0,0,0,0,1,2,1
322.398,0.001263,0.001953125,0.001953125,0,0.03125,-0.0390625,9.890625,-0.001953125,0.001953125,0,-0.04882812,0.0078125,0,0.001831055,-0.0006103516,-0.05529785,0,0,-0.05529785,0,4.077,0,0,0,0,nan,2,0.917,0,0,0,0,0,0,0,0,0,1,2,1
322.408,0.001008,0.001953125,0.001953125,0,0.0546875,0,9.835938,0,0,0.001953125,-0.04882812,0.0078125,0,0.001831055,-0.0004882812,-0.05529785,0,0,-0.05529785,0,4.077,0,0,0,0,nan,2,0.98,0,0,0,0,0,0,0,0,0,1,2,1
322.418,0.001006,0,0,0.001953125,0.03125,-0.0078125,9.859375,0,0,0,-0.04882812,0.0078125,0,0.001831055,-0.0004882812,-0.05529785,0,0,-0.05529785,0,4.077,0,0,0,0,nan,2,0.99,0,0,0,0,0,0,0,0,0,1,2,1
322.428,0.001007,-0.001953125,0,-0.00390625,0.0625,-0.0390625,9.835938,0,0.001953125,-0.001953125,-0.04882812,0.0078125,0,0.001831055,-0.0004882812,-0.05529785,0,0,-0.05529785,0,4.077,0,0,0,0,nan,2,1,0,0,0,0,0,0,0,0,0,1,2,1
322.439,0.001006,-0.001953125,0.001953125,0,0.015625,0.015625,9.90625,0,0,0,-0.04882812,0.0078125,0,0.001831055,-0.0004882812,-0.05529785,0,0,-0.05529785,0,4.077,0,0,0,0,nan,2,1.01,0,0,0,0,0,0,0,0,0,1,2,1
