t,dt_s,gyro_x,gyro_y,gyro_z,acc_x,acc_y,acc_z,rates.x,rates.y,rates.z,ratesTarget.x,ratesTarget.y,ratesTarget.z,attitude.x,attitude.y,attitude.z,attitudeTarget.x,attitudeTarget.y,attitudeTarget.z,thrustTarget,battery_v,rc_roll,rc_pitch,rc_yaw,rc_throttle,rc_mode,flight_mode,rc_age_s,armed,fault_mask,motor_rl,motor_rr,motor_fr,motor_fl,rate_i_x,rate_i_y,rate_i_z,mix_scale,control_source,accel_correction_confidence
1902.759,0.001007,0.001953125,0,0,0.0234375,0.03125,9.882812,0.001953125,0,0,0.005859375,0.00390625,0,-0.0001220703,-0.0002441406,-0.0002441406,0,0,-0.0002441406,0,4.077,0,0,0,0,nan,2,0.218,1,0,0,0,0,0,0,0,0,1,2,1
1902.769,0.00101,0.001953125,0,0,-0.0234375,0,9.835938,0,0,0,0.005859375,0.00390625,0,-0.0001220703,-0.0002441406,-0.0002441406,0,0,-0.0002441406,0,4.077,0,0,0,0,nan,2,0.228,1,0,0,0,0,0,0,0,0,1,2,1
1902.779,0.001013,0,-0.00390625,-0.00390625,-0.015625,-0.0078125,9.796875,0,0,-0.001953125,0.005859375,0.00390625,0,-0.0001220703,-0.0002441406,-0.0002441406,0,0,-0.0002441406,0,4.077,0,0,0,0,nan,2,0.238,1,0,0,0,0,0,0,0,0,1,2,1
1902.788,0.00101,0.001953125,0,0,0.03125,-0.0078125,9.8125,0,0,0,0.005859375,0.00390625,0,-0.0001220703,-0.0002441406,-0.0002441406,0,0,-0.0002441406,0,4.077,0,0,0,0,nan,2,0.247,1,0,0,0,0,0,0,0,0,1,2,1
1902.798,0.001004,0,-0.001953125,0,-0.03125,0.0078125,9.8125,0,0,0,0.005859375,0.00390625,0,-0.0001220703,-0.0002441406,-0.0002441406,0,0,-0.0002441406,0,4.077,0,0,0,0,nan,2,0.257,1,0,0,0,0,0,0,0,0,1,2,1
1902.808,0.001008,0.001953125,0,-0.00390625,-0.0078125,0.015625,9.757812,0.001953125,0,-0.001953125,0.005859375,0.00390625,0,-0.0001220703,-0.0002441406,-0.0002441406,0,0,-0.0002441406,0,4.077,0,0,0,0,nan,2,0.268,1,0,0,0,0,0,0,0,0,1,2,1
1902.818,0.001007,0.001953125,0,-0.001953125,0.015625,0.015625,9.835938,0,0,0,0.005859375,0.00390625,0,-0.0001220703,-0.0002441406,-0.0002441406,0,0,-0.0002441406,0,4.077,0,0,0,0,nan,2,0.278,1,0,0,0,0,0,0,0,0,1,2,1
1902.828,0.001007,0,-0.00390625,0,0,0.0234375,9.8125,0,-0.001953125,0,0.005859375,0.00390625,0,-0.0001220703,-0.0002441406,-0.0002441406,0,0,-0.0002441406,0,4.077,0,0,0,0,nan,2,0.288,1,0,0,0,0,0,0,0,0,1,2,1
1902.838,0.001007,0.001953125,0,0,-0.0390625,-0.0078125,9.796875,0,0,0,0.005859375,0.00390625,0,-0.0001220703,-0.0002441406,-0.0002441406,0,0,-0.0002441406,0,4.077,0,0,0,0,nan,2,0.298,1,0,0,0,0,0,0,0,0,1,2,1
1902.849,0.001007,0.001953125,0.001953125,0,0.0234375,0,9.867188,-0.001953125,0,0,0.005859375,0.00390625,0,-0.0001220703,-0.0002441406,-0.0002441406,0,0,-0.0002441406,0,4.077,0,0,0,0,nan,2,0.308,1,0,0,0,0,0,0,0,0,1,2,1
1902.859,0.001007,0,0,0.001953125,0.03125,0.0234375,9.78125,0,0,0.001953125,0.005859375,0.00390625,0,-0.0001220703,-0.0002441406,-0.0002441406,0,0,-0.0002441406,0,4.077,0,0,0,0,nan,2,0.318,1,0,0,0,0,0,0,0,0,1,2,1
1902.869,0.001007,-0.001953125,0,0,0,0.0390625,9.828125,0,0,0,0.005859375,0.00390625,0,-0.0001220703,-0.0002441406,-0.0002441406,0,0,-0.0002441406,0,4.077,0,0,0,0,nan,2,0.328,1,0,0,0,0,0,0,0,0,1,2,1
1902.879,0.001007,0.001953125,0.001953125,-0.001953125,-0.0234375,-0.046875,9.789062,0,0.001953125,0,0.005859375,0.00390625,0,-0.0001220703,-0.0002441406,-0.0002441406,0,0,-0.0002441406,0,4.077,0,0,0,0,nan,2,0.338,1,0,0,0,0,0,0,0,0,1,2,1
1902.888,0.001018,0,0.001953125,-0.001953125,-0.015625,-0.0078125,9.796875,0,0.001953125,0,0.005859375,0.00390625,0,-0.0001220703,-0.0002441406,-0.0002441406,0,0,-0.0002441406,0,4.077,0,0,0,0,nan,2,0.347,1,0,0,0,0,0,0,0,0,1,2,1
1902.898,0.001016,0,0,0.001953125,-0.046875,-0.0234375,9.796875,0.001953125,0,0,0.005859375,0.00390625,0,0,-0.0002441406,-0.0002441406,0,0,-0.0002441406,0,4.077,0,0,0,0,nan,2,0.357,1,0,0,0,0,0,0,0,0,1,2,1
1902.908,0.001012,0.001953125,0,0,0,-0.03125,9.828125,0,0,0.001953125,0.005859375,0.00390625,0,0,-0.0002441406,-0.0002441406,0,0,-0.0002441406,0,4.077,0,0,0,0,nan,2,0.368,1,0,0,0,0,0,0,0,0,1,2,1
1902.918,0.001013,0.005859375,-0.001953125,-0.001953125,-0.03125,-0.015625,9.820312,0.001953125,-0.001953125,0,0.005859375,0.00390625,0,0,-0.0002441406,-0.0002441406,0,0,-0.0002441406,0,4.077,0,0,0,0,nan,2,0.378,1,0,0,0,0,0,0,0,0,1,2,1
1902.928,0.001013,0,0.001953125,0.001953125,0,-0.0234375,9.851562,0,0,0,0.005859375,0.00390625,0,0,-0.0002441406,-0.0002441406,0,0,-0.0002441406,0,4.077,0,0,0,0,nan,2,0.388,1,0,0,0,0,0,0,0,0,1,2,1
1902.938,0.001013,-0.00390625,0,0,-0.0078125,-0.0078125,9.804688,0,0,0.001953125,0.005859375,0.00390625,0,0,-0.0002441406,-0.0002441406,0,0,-0.0002441406,0,4.077,0,0,0,0,nan,2,0.398,1,0,0,0,0,0,0,0,0,1,2,1
1902.949,0.001013,0,0,0,0.03125,-0.0078125,9.828125,0,0,0,0.005859375,0.00390625,0,0,-0.0002441406,-0.0002441406,0,0,-0.0002441406,0,4.077,0,0,0,0,nan,2,0.408,1,0,0,0,0,0,0,0,0,1,2,1
1902.959,0.001013,0,0.001953125,-0.001953125,-0.015625,0.03125,9.796875,0,0,0,0.005859375,0.00390625,0,0,-0.0002441406,-0.0002441406,0,0,-0.0002441406,0,4.077,0,0,0,0,nan,2,0.418,1,0,0,0,0,0,0,0,0,1,2,1
1902.969,0.001013,-0.001953125,0,0,0.0078125,-0.0078125,9.8125,0,0,0,0.005859375,0.00390625,0,0,-0.0002441406,-0.0002441406,0,0,-0.0002441406,0,4.077,0,0,0,0,nan,2,0.428,1,0,0,0,0,0,0,0,0,1,2,1
1902.979,0.001066,0.00390625,-0.001953125,0.001953125,-0.015625,0.015625,9.84375,0.001953125,-0.001953125,0,0.005859375,0.00390625,0,0,-0.0002441406,-0.0002441406,0,0,-0.0002441406,0,4.077,0,0,0,0,nan,2,0.438,1,0,0,0,0,0,0,0,0,1,2,1
1902.988,0.000991,-0.001953125,-0.00390625,0,0.0078125,0.0390625,9.851562,0,-0.001953125,0.001953125,0.005859375,0.00390625,0,0,-0.0002441406,-0.0002441406,0,0,-0.0002441406,0,4.077,0,0,0,0,nan,2,0.447,1,0,0,0,0,0,0,0,0,1,2,1
1902.998,0.001003,-0.001953125,-0.001953125,0.00390625,-0.0234375,-0.046875,9.78125,0,0,0.001953125,0.005859375,0.00390625,0,0,-0.0002441406,-0.0002441406,0,0,-0.0002441406,0,4.077,0,0,0,0,nan,2,0.457,1,0,0,0,0,0,0,0,0,1,2,1
1903.008,0.001057,0,0,-0.00390625,0,-0.015625,9.835938,0,-0.001953125,0,0.005859375,0.00390625,0,0,-0.0002441406,-0.0001220703,0,0,-0.0002441406,0,4.077,0,0,0,0,nan,2,0.468,1,0,0,0,0,0,0,0,0,1,2,1
1903.018,0.001046,0,-0.001953125,0.001953125,0.03125,0.0078125,9.859375,0,0,0,0.005859375,0.00390625,0,0,-0.0002441406,-0.0002441406,0,0,-0.0002441406,0,4.077,0,0,0,0,nan,2,0.478,1,0,0,0,0,0,0,0,0,1,2,1
1903.028,0.001029,0,0.001953125,-0.001953125,0.0078125,0.015625,9.867188,0,0.001953125,0,0.005859375,0.00390625,0,0,-0.0002441406,-0.0002441406,0,0,-0.0002441406,0,4.077,0,0,0,0,nan,2,0.488,1,0,0,0,0,0,0,0,0,1,2,1
1903.038,0.000959,-0.001953125,-0.001953125,0.005859375,-0.015625,-0.0078125,9.765625,-0.001953125,0,0,0,0,0,0,-0.0002441406,-0.0002441406,0,0,-0.0002441406,0.1421204,4.077,0,0,0,0.09997559,nan,2,0.008,1,128,0.1455383,0.1390686,0.1443481,0.1394653,0,0,0,1,2,0.9047619
1903.049,0.001005,-0.005859375,0.009765625,-0.00390625,0.4453125,-0.2578125,9.71875,0.001953125,0.00390625,-0.005859375,0,0,0,0,-0.0002441406,-0.0002441406,0,0,-0.0002441406,0.1421204,4.077,0,0,0,0.09997559,nan,2,0.019,1,128,0.131897,0.1506042,0.1337891,0.1521301,0,0,0,1,2,0.8412699
1903.059,0.001003,-0.01171875,0.015625,0.01171875,-0.1484375,0.28125,9.9375,-0.001953125,0.005859375,0.00390625,0,0,0,0,-0.0002441406,-0.0002441406,0,0,-0.0002441406,0.1421204,4.077,0,0,0,0.09997559,nan,2,0.029,1,128,0.1477356,0.1339111,0.1493225,0.1374512,0,0,0,1,2,0.6666667
1903.068,0.000984,0.046875,-0.009765625,-0.0078125,0.4765625,-0.3671875,9.585938,0.009765625,-0.005859375,0,0,0,0,0,-0.0002441406,-0.0002441406,0,0,-0.0002441406,0.1421204,4.077,0,0,0,0.09997559,nan,2,0.038,1,128,0.1393127,0.1479797,0.1405945,0.1405334,0,0,0,1,2,0.5555556
1903.078,0.001027,0.05859375,-0.04296875,0.00390625,1.265625,2.09375,8.242188,0.009765625,-0.009765625,0,0,0,0,0,-0.0002441406,-0.0002441406,0,0,-0.0002441406,0.1421204,4.077,0,0,0,0.09997559,nan,2,0.003,1,128,0.1446838,0.143219,0.1442566,0.136261,0,0,0,1,2,0
1903.088,0.001073,-0.0625,-0.02148438,0.0078125,-0.34375,-4.382812,8.726562,-0.01757812,0.0078125,-0.001953125,0,0,0,0,-0.0002441406,-0.0002441406,0,0,-0.0002441406,0.1421204,4.077,0,0,0,0.09997559,nan,2,0.013,1,128,0.1409302,0.1413269,0.1347046,0.1514587,0,0,0,1,2,0.8730159
1903.098,0.001063,-0.02539062,0,0.015625,-3.648438,-5.445312,11.21094,-0.00390625,0.0078125,0.00390625,0,0,0,0,-0.0002441406,-0.0002441406,0,0,-0.0002441406,0.1421204,4.077,0,0,0,0.09997559,nan,2,0.023,1,128,0.1507874,0.1318054,0.1511536,0.1347046,0,0,0,1,2,0
1903.108,0.001073,-0.01367188,0.03125,-0.0234375,1.820312,4.546875,4.625,-0.001953125,0,-0.005859375,0,0,0,-0.0001220703,-0.0002441406,-0.0002441406,0,0,-0.0002441406,0.1421204,4.077,0,0,0,0.09997559,nan,2,0.033,1,128,0.1318359,0.1525269,0.1315613,0.1524963,0,0,0,1,2,0
1903.118,0.000988,0.0078125,0.02929688,-0.03125,0.15625,2.734375,6.773438,-0.00390625,0.001953125,-0.01757812,0,0,0,-0.0001220703,-0.0002441406,-0.0003662109,0,0,-0.0002441406,0.1421204,4.077,0,0,0,0.09997559,nan,2,0.043,1,128,0.1195679,0.1608582,0.1227417,0.1652527,0,0,0,1,2,0
1903.129,0.001012,0.02148438,-0.005859375,-0.01171875,-0.2421875,1.695312,9.71875,0,0.001953125,-0.009765625,0,0,0,0,-0.0002441406,-0.0004882812,0,0,-0.0002441406,0.1421204,4.077,0,0,0,0.09997559,nan,2,0.003,1,128,0.1415405,0.1423035,0.1419373,0.1426392,0,0,0,1,2,0.8730159
1903.138,0.001012,-0.00390625,-0.001953125,0.02734375,0.28125,-1.140625,10.42969,0.001953125,0.01171875,0.01171875,0,0,0,0,-0.0001220703,-0.0003662109,0,0,-0.0002441406,0.1421204,4.077,0,0,0,0.09997559,nan,2,0.013,1,128,0.1658325,0.1168213,0.1676941,0.118042,0,0,0,1,2,0
1903.149,0.001012,0.015625,0.02148438,0.02148438,-0.359375,0.078125,12.03906,0.005859375,0.00390625,0.02734375,0,0,0,0,0,-0.0002441406,0,0,-0.0002441406,0.1421204,4.077,0,0,0,0.09997559,nan,2,0.023,1,128,0.1607056,0.1247253,0.1614685,0.1214905,0,0,0,1,2,0
1903.159,0.001002,-0.04882812,0.0703125,0.005859375,-0.15625,0.53125,8.9375,-0.01367188,0,0.015625,0,0,0,0,-0.0001220703,0,0,0,-0.0002441406,0.1421204,4.077,0,0,0,0.09997559,nan,2,0.033,1,128,0.1360779,0.14328,0.1324463,0.1566162,0,0,0,1,2,0
1903.168,0.001041,-0.02148438,-0.005859375,0.01757812,-0.4375,0.640625,7.734375,-0.01953125,-0.005859375,0.01171875,0,0,0,-0.0002441406,-0.0001220703,0.0001220703,0,0,-0.0002441406,0.1421204,4.077,0,0,0,0.09997559,nan,2,0.042,1,128,0.145874,0.1398926,0.1423035,0.1403809,0,0,0,1,2,0
1903.178,0.000978,0.03125,0.001953125,0.01171875,0.0625,-0.953125,9.203125,0,0.01367188,0.009765625,0.001953125,0,0,-0.0003662109,0,0.0002441406,0,0,-0.0002441406,0.1421204,4.077,0,0,0,0.09997559,nan,2,0.003,1,128,0.1402283,0.141571,0.1486511,0.13797,0,0,0,1,2,0
1903.188,0.001005,0.07226562,-0.04101562,-0.02734375,0.15625,-1.09375,10.58594,0.03320312,-0.01367188,-0.015625,0,0,0,-0.0002441406,-0.0001220703,0.0002441406,0,0,-0.0002441406,0.1421204,4.077,0,0,0,0.09997559,nan,2,0.013,1,128,0.1089478,0.1798096,0.1152649,0.1643982,0,0,0,1,2,0
1903.198,0.001009,-0.02148438,-0.0078125,-0.005859375,0.1171875,2.117188,12.03125,0.005859375,-0.01367188,-0.015625,0,0,0,0,-0.0002441406,0,0,0,-0.0002441406,0.1421204,4.077,0,0,0,0.09997559,nan,2,0.023,1,128,0.1448059,0.1408997,0.1382751,0.1444397,0,0,0,1,2,0
1903.208,0.001029,-0.001953125,-0.03125,0.05078125,-1.578125,1.179688,13.53906,-0.00390625,-0.00390625,0.03125,0,0,0,0,-0.0002441406,0.0001220703,0,0,-0.0002441406,0.1421204,4.077,0,0,0,0.09997559,nan,2,0.033,1,128,0.1957703,0.09173584,0.1911621,0.08978271,0,0,0,1,2,0
1903.218,0.001025,0.02734375,-0.01757812,0.02539062,-0.5703125,0.7265625,7.757812,0.009765625,-0.0078125,0.02929688,0,0,0,0,-0.0002441406,0.0004882812,0,0,-0.0002441406,0.1421204,4.077,0,0,0,0.09997559,nan,2,0.043,1,128,0.144043,0.1431885,0.1476135,0.1335754,0,0,0,1,2,0
1903.229,0.001037,0.03710938,0.01367188,0.046875,1.023438,-0.4609375,5.945312,0.0078125,0.00390625,0.0390625,0,0,0,0,-0.0003662109,0.0008544922,0,0,-0.0002441406,0.1421204,4.077,0,0,0,0.09997559,nan,2,0.002,1,128,0.1611328,0.1192017,0.1682434,0.1198425,0,0,0,1,2,0
1903.239,0.001008,-0.01757812,0.02148438,0.05664062,1.984375,0.15625,8.625,-0.00390625,0.01953125,0.0546875,0,0,0,0,-0.0002441406,0.001342773,0,0,-0.0002441406,0.1421204,4.077,0,0,0,0.09997559,nan,2,0.012,1,128,0.1706848,0.1077881,0.1721802,0.1177673,0,0,0,1,2,0
1903.249,0.001016,0.001953125,0.001953125,0.03320312,-0.9296875,-3.210938,7.507812,-0.01171875,0.015625,0.04296875,0,0,0,0,0,0.001831055,0,0,-0.0002441406,0.1421204,4.077,0,0,0,0.09997559,nan,2,0.022,1,128,0.1434937,0.1401978,0.1399841,0.1447449,0,0,0,1,2,0
1903.259,0.001006,0.01757812,-0.03710938,-0.01953125,-0.8515625,5.4375,8.632812,0,-0.009765625,0.005859375,0,0,0,0,0,0.002075195,0,0,-0.0002441406,0.1421204,4.077,0,0,0,0.09997559,nan,2,0.032,1,128,0.1025391,0.188446,0.09860229,0.178833,0,0,0,1,2,0.07936508
1903.269,0.001006,0.005859375,-0.00390625,-0.0546875,-0.8671875,3.796875,14.15625,0.009765625,0.005859375,-0.0390625,0,0,0,0,0,0.001831055,0,0,-0.0002441406,0.1421204,4.077,0,0,0,0.09997559,nan,2,0.042,1,128,0.08352661,0.1969604,0.08969116,0.1982117,0,0,0,1,2,0
1903.279,0.001006,-0.0234375,-0.005859375,-0.0390625,0.671875,-4.171875,12.6875,-0.01171875,-0.00390625,-0.046875,0,0,0,0,0,0.001464844,0,0,-0.0002441406,0.1421204,4.077,0,0,0,0.09997559,nan,2,0.052,1,128,0.1259766,0.1583557,0.1217346,0.1623535,0,0,0,1,2,0
1903.288,0.001041,-0.08203125,0.0234375,-0.03320312,-0.515625,-0.3984375,9.664062,-0.0234375,0.00390625,-0.046875,0,0,0,0,-0.0001220703,0.0009765625,0,0,-0.0002441406,0.1421204,4.077,0,0,0,0.09997559,nan,2,0.062,1,128,0.1390686,0.1400757,0.1325378,0.1567383,0,0,0,1,2,0.6984127
1903.298,0.001018,-0.05273438,0.04882812,-0.0078125,-0.4375,-5.390625,3.117188,-0.01953125,0.009765625,-0.02148438,0,0,0,-0.0002441406,0,0.0006103516,0,0,-0.0002441406,0.1421204,4.077,0,0,0,0.09997559,nan,2,0.072,1,128,0.1625977,0.1167908,0.1625977,0.1264648,0,0,0,1,2,0
1903.308,0.00096,0.01757812,-0.015625,-0.01171875,1.265625,-3.617188,6.867188,-0.009765625,0,-0.01171875,0.001953125,0,0,-0.0003662109,0,0.0004882812,0,0,-0.0002441406,0.1421204,4.075,0,0,0,0.09997559,nan,2,0.003,1,128,0.1460266,0.1391602,0.1449585,0.1382446,0,0,0,1,2,0
1903.318,0.001012,0.05859375,-0.01953125,-0.009765625,0.703125,-2.460938,9.695312,0.01367188,-0.005859375,-0.015625,0.001953125,0,0,-0.0003662109,-0.0001220703,0.0002441406,0,0,-0.0002441406,0.1421204,4.075,0,0,0,0.09997559,nan,2,0.013,1,128,0.1374207,0.1488342,0.1428223,0.1393738,0,0,0,1,2,0.4126984
1903.328,0.000989,0.02734375,-0.01953125,0.01953125,-1.28125,-1.28125,6.3125,0.01757812,-0.0234375,0.01171875,0.001953125,0,0,-0.0003662109,0,0.0002441406,0,0,-0.0002441406,0.1421204,4.075,0,0,0,0.09997559,nan,2,0.023,1,128,0.1749878,0.1213379,0.1711731,0.1009216,0,0,0,1,2,0
1903.339,0.001056,-0.05859375,0.02148438,0.03515625,-0.96875,-3.90625,0.6796875,0.01171875,-0.009765625,0.03320312,0.001953125,0,0,-0.0002441406,-0.0001220703,0.0004882812,0,0,-0.0002441406,0.1421204,4.075,0,0,0,0.09997559,nan,2,0.033,1,128,0.17099,0.1146545,0.1700439,0.1127625,0,0,0,1,2,0
1903.349,0.000985,0.02539062,0.009765625,0.0390625,-1.140625,-1.679688,1.085938,-0.00390625,0.0078125,0.03710938,0.001953125,0,0,-0.0002441406,-0.0001220703,0.0008544922,0,0,-0.0002441406,0.1421204,4.075,0,0,0,0.09997559,nan,2,0.001,1,128,0.1582336,0.1229248,0.1595764,0.127655,0,0,0,1,2,0
1903.359,0.001012,-0.01367188,-0.01171875,0.06445312,1.421875,-3.640625,4.257812,-0.001953125,0,0.05664062,0,0,0,-0.0003662109,-0.0001220703,0.001342773,0,0,-0.0002441406,0.1421204,4.075,0,0,0,0.09997559,nan,2,0.011,1,128,0.1767578,0.1090088,0.17453,0.1081543,0,0,0,1,2,0
1903.369,0.001012,-0.01953125,0.009765625,0.01171875,1.554688,2.375,14.78125,-0.0078125,0,0.02929688,0,0,0,-0.0003662109,-0.0001220703,0.001831055,0,0,-0.0002441406,0.1421204,4.075,0,0,0,0.09997559,nan,2,0.021,1,128,0.1219482,0.160553,0.1199341,0.1659851,0,0,0,1,2,0
1903.378,0.000956,-0.0078125,-0.04492188,-0.005859375,0.65625,-2.789062,5.960938,0.0234375,-0.009765625,0.001953125,0,0,0,-0.0002441406,-0.0001220703,0.001953125,0,0,-0.0002441406,0.1421204,4.075,0,0,0,0.09997559,nan,2,0.03,1,128,0.1176453,0.1716003,0.1184692,0.1607056,0,0,0,1,2,0
1903.388,0.000943,0.01367188,-0.01757812,-0.0390625,-0.5703125,-4.125,7.765625,-0.01757812,0.001953125,-0.02734375,0.00390625,0,0,-0.0006103516,0,0.001831055,0,0,-0.0002441406,0.1421204,4.075,0,0,0,0.09997559,nan,2,0.04,1,128,0.1078491,0.1809387,0.1055298,0.1741028,0,0,0,1,2,0
1903.398,0.001006,-0.03710938,-0.001953125,-0.06835938,0.9453125,4.5,15.90625,-0.0078125,-0.001953125,-0.0625,0.00390625,0,0,-0.0006103516,0,0.001342773,0,0,-0.0002441406,0.1421204,4.075,0,0,0,0.09997559,nan,2,0.05,1,128,0.09912109,0.1862183,0.09576416,0.1872864,0,0,0,1,2,0
1903.408,0.001015,-0.03125,-0.005859375,-0.04101562,-0.21875,3.046875,13.85938,-0.005859375,-0.00390625,-0.0546875,0.00390625,0,0,-0.0007324219,0,0.0006103516,0,0,-0.0002441406,0.1421204,4.075,0,0,0,0.09997559,nan,2,0.061,1,128,0.1413574,0.1452942,0.1386719,0.1430969,0,0,0,1,2,0
1903.418,0.001006,-0.01171875,0.005859375,-0.009765625,-1.164062,4.578125,8.75,-0.05859375,0.00390625,-0.01757812,0.0078125,0,0,-0.001220703,0,0.0002441406,0,0,-0.0002441406,0.1421204,4.075,0,0,0,0.09997559,nan,2,0.009,1,128,0.173645,0.1080627,0.1649475,0.1217651,0,0,0,1,2,0.3968254
1903.428,0.000999,0.04101562,-0.02929688,0.06054688,0.7421875,6.34375,11.05469,0.001953125,-0.005859375,0.0390625,0.0078125,0,0,-0.001342773,0.0001220703,0.0003662109,0,0,-0.0002441406,0.1421204,4.075,0,0,0,0.09997559,nan,2,0.019,1,128,0.2129211,0.07739258,0.2098083,0.06829834,0,0,0,1,2,0
1903.438,0.000999,0.06054688,0.015625,0,-0.3046875,-8.960938,6.726562,0.01171875,-0.001953125,0.01171875,0.0078125,0,0,-0.001220703,0,0.0007324219,0,0,-0.0002441406,0.1421204,4.075,0,0,0,0.09997559,nan,2,0.029,1,128,0.1156006,0.1640015,0.1219788,0.1668091,0,0,0,1,2,0
1903.449,0.000956,-0.0234375,0.02734375,-0.00390625,-2.351562,-4.828125,7.625,-0.015625,0.01757812,-0.0078125,0.0078125,0,0,-0.001220703,0,0.0007324219,0,0,-0.0002441406,0.1421204,4.075,0,0,0,0.09997559,nan,2,0.039,1,128,0.1270752,0.1488953,0.1281738,0.1642761,0,0,0,1,2,0.03174603
1903.459,0.001022,0.0625,-0.03515625,0.03710938,0.71875,1.132812,16.14844,0.001953125,-0.0078125,0.01953125,0.0078125,-0.001953125,0,-0.001342773,0.0001220703,0.0007324219,0,0,-0.0002441406,0.1421204,4.075,0,0,0,0.09997559,nan,2,0.049,1,128,0.1802368,0.1134338,0.1745911,0.1001587,0,0,0,1,2,0
1903.468,0.001017,0.02148438,-0.01367188,0.01953125,3.4375,-3.265625,5.21875,0.009765625,-0.01171875,0.03710938,0.0078125,0,0,-0.001342773,0.0001220703,0.001098633,0,0,-0.0002441406,0.1421204,4.075,0,0,0,0.09997559,nan,2,0.059,1,128,0.1609192,0.1285706,0.1586609,0.1202698,0,0,0,1,2,0
1903.478,0.000943,0.03320312,-0.01757812,-0.01171875,-2.09375,1.960938,12.52344,0.02539062,-0.01171875,-0.001953125,0.0078125,0,0,-0.001342773,0.0001220703,0.001220703,0,0,-0.0002441406,0.1421204,4.075,0,0,0,0.09997559,nan,2,0.069,1,128,0.1075745,0.180481,0.1128235,0.167511,0,0,0,1,2,0
1903.488,0.000899,-0.0859375,0.07617188,0.01757812,-0.0390625,1.242188,12.60156,-0.0234375,0.03320312,-0.005859375,0.0078125,-0.001953125,0,-0.001220703,0.0002441406,0.001098633,0,0,-0.0002441406,0.2263184,4.075,0,0,0,0.2000122,nan,2,0.004,1,128,0.2339478,0.2053528,0.2297363,0.2362061,0,0,0,1,2,0
1903.498,0.001003,-0.01367188,0.02148438,0.001953125,0.4921875,-5.929688,5.28125,0,0.01953125,0.01171875,0.0078125,-0.00390625,0,-0.001342773,0.0004882812,0.001220703,0,0,-0.0002441406,0.2263184,4.075,0,0,0,0.2000122,nan,2,0.014,1,128,0.2319031,0.2196655,0.231842,0.2218323,0,0,0,1,2,0
1903.508,0.00101,-0.02734375,0.03320312,-0.02734375,1.117188,6.023438,13.63281,-0.01953125,0.0078125,-0.02929688,0.0078125,-0.00390625,0,-0.001342773,0.0006103516,0.001098633,0,0,-0.0002441406,0.2263184,4.075,0,0,0,0.2000122,nan,2,0.024,1,128,0.1905518,0.2597351,0.1834106,0.2716064,0,0,0,1,2,0
1903.518,0.001005,0.02148438,-0.02734375,0.04101562,-0.609375,-5.882812,11.21094,0.01367188,-0.0078125,0.02148438,0.0078125,-0.00390625,0,-0.001342773,0.0006103516,0.0009765625,0,0,-0.0002441406,0.2263184,4.075,0,0,0,0.2000122,nan,2,0.034,1,128,0.2770386,0.1821289,0.2760925,0.1700134,0,0,0,1,2,0
1903.529,0.000998,0.00390625,0.0234375,0.005859375,-2.234375,-6.351562,7.835938,0.0078125,0.00390625,0.015625,0.0078125,-0.00390625,0,-0.001342773,0.0006103516,0.001342773,0,0,-0.0002441406,0.2263184,4.075,0,0,0,0.2000122,nan,2,0.044,1,128,0.2166138,0.2304382,0.2225952,0.2356262,0,0,0,1,2,0
1903.539,0.000982,0.001953125,0.01171875,0.06054688,-0.421875,1.140625,5.039062,-0.001953125,0.01367188,0.03710938,0.0078125,-0.00390625,0,-0.001342773,0.0007324219,0.001464844,0,0,-0.0002441406,0.2263184,4.075,0,0,0,0.2000122,nan,2,0.004,1,128,0.2721863,0.1763916,0.2716675,0.1849976,0,0,0,1,2,0
1903.549,0.001012,0.04492188,-0.015625,0.07617188,2,-2.828125,6.148438,0.009765625,-0.009765625,0.0859375,0.0078125,-0.00390625,0,-0.001464844,0.0007324219,0.002197266,0,0,-0.0002441406,0.2263184,4.075,0,0,0,0.2000122,nan,2,0.014,1,128,0.2745056,0.1828613,0.2784729,0.1694336,0,0,0,1,2,0
1903.559,0.001012,-0.01171875,0.009765625,0.01367188,0.625,1.601562,17.80469,-0.009765625,0.00390625,0.03320312,0.0078125,-0.00390625,0,-0.001342773,0.0007324219,0.002807617,0,0,-0.0002441406,0.2263184,4.075,0,0,0,0.2000122,nan,2,0.024,1,128,0.1954346,0.2543945,0.1912842,0.2641602,0,0,0,1,2,0
1903.569,0.000966,0.01367188,0.009765625,-0.078125,0.8046875,-1.554688,4.375,-0.005859375,0.01367188,-0.04101562,0.009765625,-0.00390625,0,-0.001464844,0.0007324219,0.002807617,0,0,-0.0002441406,0.2263184,4.075,0,0,0,0.2000122,nan,2,0.034,1,128,0.1349487,0.3124695,0.1394348,0.3184204,0,0,0,1,2,0
1903.578,0.000978,-0.02148438,0.03515625,-0.09179688,-0.3125,4.539062,12.32812,-0.0234375,0.01757812,-0.08007812,0.009765625,-0.00390625,0,-0.001586914,0.0008544922,0.002197266,0,0,-0.0002441406,0.2263184,4.075,0,0,0,0.2000122,nan,2,0.043,1,128,0.1567078,0.2873535,0.1542969,0.3069458,0,0,0,1,2,0
1903.588,0.00099,0.09765625,-0.01171875,-0.0078125,1.476562,-3.0625,5.273438,0.02539062,-0.0078125,-0.03320312,0.009765625,-0.005859375,0,-0.001708984,0.0009765625,0.001464844,0,0,-0.0002441406,0.2263184,4.075,0,0,0,0.2000122,nan,2,0.005,1,128,0.2677002,0.1923523,0.2760925,0.1690979,0,0,0,1,2,0
1903.598,0.001027,-0.01953125,0.001953125,-0.001953125,-0.6796875,1.507812,11.85156,0.009765625,-0.01171875,-0.00390625,0.009765625,-0.00390625,0,-0.001586914,0.0008544922,0.001464844,0,0,-0.0002441406,0.2263184,4.075,0,0,0,0.2000122,nan,2,0.015,1,128,0.2413635,0.2112122,0.2392578,0.2134399,0,0,0,1,2,0
1903.608,0.001033,-0.01367188,0.02734375,0.09570312,1.46875,0.5078125,7.171875,-0.0390625,0.009765625,0.0546875,0.009765625,-0.005859375,0,-0.001708984,0.0008544922,0.001586914,0,0,-0.0002441406,0.2263184,4.075,0,0,0,0.2000122,nan,2,0.025,1,128,0.321228,0.1255188,0.3126831,0.1458435,0,0,0,1,2,0
1903.618,0.001012,0.01171875,-0.05664062,0.08007812,-2.320312,2.765625,13.98438,0.001953125,-0.03125,0.08984375,0.01171875,-0.005859375,0,-0.001953125,0.0008544922,0.002441406,0,0,-0.0002441406,0.2263184,4.075,0,0,0,0.2000122,nan,2,0.035,1,128,0.2800293,0.1858215,0.2737122,0.1657104,0,0,0,1,2,0
1903.629,0.000982,-0.06640625,0.04296875,-0.02148438,-2.679688,0.0078125,11.44531,-0.005859375,0.00390625,0.001953125,0.009765625,-0.00390625,0,-0.001708984,0.0006103516,0.002929688,0,0,-0.0002441406,0.2263184,4.075,0,0,0,0.2000122,nan,2,0.045,1,128,0.1531677,0.2884216,0.1519165,0.3117371,0,0,0,1,2,0
1903.639,0.00097,0.06054688,0.001953125,-0.05078125,0.765625,-5.328125,6.648438,-0.01171875,0.01757812,-0.02539062,0.01171875,-0.005859375,0,-0.002075195,0.0008544922,0.002685547,0,0,-0.0002441406,0.2263184,4.075,0,0,0,0.2000122,nan,2,0.003,1,128,0.1843567,0.2673645,0.1907349,0.2627869,0,0,0,1,2,0
1903.649,0.000989,0.2265625,-0.03320312,-0.06445312,3.03125,-2.039062,7.835938,0.08007812,-0.009765625,-0.1191406,0.01171875,-0.005859375,0,-0.001831055,0.0008544922,0.001953125,0,0,-0.0002441406,0.2263184,4.075,0,0,0,0.2000122,nan,2,0.013,1,128,0.09490967,0.362915,0.1276245,0.3198242,0,0,0,1,2,0
1903.659,0.001008,0.1621094,0.07226562,-0.08984375,-1.914062,-3.875,10.76562,-0.03320312,0.06445312,-0.1035156,0.009765625,-0.005859375,0,-0.001586914,0.001098633,0.0006103516,0,0,-0.0002441406,0.2263184,4.075,0,0,0,0.2000122,nan,2,0.023,1,128,0.223175,0.204834,0.2350769,0.2421875,0,0,0,1,2,0
1903.668,0.000968,0.03320312,-0.01171875,-0.0703125,1.375,0.375,6.3125,-0.009765625,0.078125,-0.1035156,0.01171875,-0.009765625,0,-0.001831055,0.001586914,-0.0002441406,0,0,-0.0002441406,0.2263184,4.075,0,0,0,0.2000122,nan,2,0.032,1,128,0.1827698,0.2518311,0.2067261,0.2639465,0,0,0,1,2,0
1903.678,0.000978,-0.3066406,0.1445312,0.02929688,-0.6171875,7.820312,12.40625,-0.0703125,0.01171875,0.009765625,0.01171875,-0.009765625,0,-0.001953125,0.001464844,-0.0004882812,0,0,-0.0002441406,0.2263184,4.075,0,0,0,0.2000122,nan,2,0.042,1,128,0.3219604,0.1221924,0.2889709,0.1721191,0,0,0,1,2,0
1903.688,0.001013,-0.08398438,0.02929688,0.1230469,-0.46875,-4.539062,7.796875,-0.0546875,0.04882812,0.08007812,0.015625,-0.01171875,0,-0.002685547,0.001831055,-0.0001220703,0,0,-0.0002441406,0.2263184,4.075,0,0,0,0.2000122,nan,2,0.003,1,128,0.3287354,0.1062927,0.3399658,0.1302795,0.0009765625,0,0,1,2,0
1903.698,0.00103,0.203125,-0.1054688,0.1308594,-0.0625,-4.359375,8.085938,0.0703125,-0.05664062,0.1230469,0.01757812,-0.009765625,0,-0.002929688,0.001708984,0.0009765625,0,0,-0.0002441406,0.2263184,4.075,0,0,0,0.2000122,nan,2,0.013,1,128,0.2878113,0.1876221,0.3054199,0.1244507,0.0009765625,0,0,1,2,0
1903.708,0.00101,-0.02148438,0.04296875,0.07617188,-1.609375,-2.898438,5.914062,-0.0078125,0.02734375,0.08398438,0.015625,-0.009765625,0,-0.002563477,0.001708984,0.001953125,0,0,-0.0002441406,0.2263184,4.075,0,0,0,0.2000122,nan,2,0.023,1,128,0.230896,0.2080994,0.2307129,0.2355652,0.0009765625,0,0,1,2,0
1903.718,0.001008,0.01953125,-0.03515625,0.08007812,-2.460938,-0.6953125,8.210938,-0.005859375,-0.0078125,0.0703125,0.01757812,-0.01171875,0,-0.002929688,0.002075195,0.002685547,0,0,-0.0002441406,0.2263184,4.075,0,0,0,0.2000122,nan,2,0.033,1,128,0.253479,0.2122192,0.2427979,0.1967773,0.0009765625,0,0,1,2,0
1903.728,0.001038,-0.06640625,0.05078125,0.05859375,-2.78125,-2.976562,10.10938,-0.01757812,0.0078125,0.05273438,0.015625,-0.01171875,0,-0.002685547,0.001953125,0.003173828,0,0,-0.0002441406,0.2263184,4.075,0,0,0,0.2000122,nan,2,0.043,1,128,0.2453308,0.1968689,0.2364197,0.2266541,0.0009765625,0,0,1,2,0
1903.739,0.001022,-0.02539062,0.05859375,0.015625,-1.484375,0.1640625,11.96094,0.015625,-0.005859375,0.02929688,0.01367188,-0.009765625,0,-0.002319336,0.001831055,0.003662109,0,0,-0.0002441406,0.2263184,4.075,0,0,0,0.2000122,nan,2,0.007,1,128,0.2020264,0.2428589,0.2033081,0.2570496,0.0009765625,0,0,1,2,0
1903.749,0.00101,0.125,-0.06445312,-0.07421875,-0.6015625,3.054688,12.63281,0.02539062,-0.05273438,-0.0234375,0.015625,-0.009765625,0,-0.002563477,0.001708984,0.00378418,0,0,-0.0002441406,0.2263184,4.075,0,0,0,0.2000122,nan,2,0.017,1,128,0.1423035,0.3292542,0.1392517,0.2944641,0.0009765625,0,0,1,2,0
1903.759,0.001025,0.009765625,-0.0234375,-0.03710938,-0.2578125,-2.820312,7.28125,-0.01757812,0.009765625,-0.0390625,0.015625,-0.009765625,0,-0.002563477,0.001586914,0.003417969,0,0,-0.0002441406,0.2263184,4.075,0,0,0,0.2000122,nan,2,0.027,1,128,0.2050171,0.239563,0.2051697,0.2555237,0.0009765625,0,0,1,2,0
1903.769,0.000969,0.1621094,-0.046875,-0.01367188,2.382812,-5.375,8.609375,0.05078125,-0.01953125,-0.04882812,0.015625,-0.009765625,0,-0.002563477,0.001708984,0.002807617,0,0,-0.0002441406,0.2263184,4.075,0,0,0,0.2000122,nan,2,0.037,1,128,0.2214355,0.2405701,0.2371826,0.2060852,0.0009765625,0,0,1,2,0
1903.778,0.000989,-0.1113281,0.02734375,-0.09765625,2.328125,-1.15625,7.265625,0.1035156,-0.03515625,-0.1074219,0.009765625,-0.0078125,0,-0.001464844,0.001464844,0.001953125,0,0,-0.0002441406,0.2263184,4.075,0,0,0,0.2000122,nan,2,0.046,1,128,0.1781311,0.2806702,0.1774902,0.2689514,0.0009765625,0,0,1,2,0
1903.788,0.001001,-0.02929688,0.03320312,-0.02539062,-3.046875,4.570312,10.6875,-0.05078125,0.02539062,-0.05664062,0.009765625,-0.009765625,0,-0.001708984,0.001586914,0.001098633,0,0,-0.0002441406,0.2263184,4.075,0,0,0,0.2000122,nan,2,0.005,1,128,0.2675476,0.1743774,0.254303,0.2090454,0.0009765625,0,0,1,2,0
1903.798,0.001038,0.1230469,-0.01757812,0.00390625,0.2578125,-7.648438,9.625,0.04882812,0.0078125,0.001953125,0.009765625,-0.01171875,0,-0.001708984,0.001831055,0.0008544922,0,0,-0.0002441406,0.2263184,4.075,0,0,0,0.2000122,nan,2,0.015,1,128,0.2577209,0.1954956,0.2782898,0.1737366,0.0009765625,0,0,1,2,0
1903.808,0.00101,-0.0234375,-0.04296875,0.05078125,1.289062,-0.4765625,9.476562,-0.01757812,-0.01757812,0.0234375,0.0078125,-0.009765625,0,-0.001464844,0.001586914,0.0009765625,0,0,-0.0002441406,0.2263184,4.075,0,0,0,0.2000122,nan,2,0.025,1,128,0.2716675,0.1822205,0.2547302,0.1966248,0.0009765625,0,0,1,2,0.4444444
1903.818,0.001061,0.005859375,-0.1015625,0,2.273438,3.914062,7.015625,0.00390625,0.005859375,0.01171875,0.009765625,-0.01171875,0,-0.001464844,0.001831055,0.001220703,0,0,-0.0002441406,0.2263184,4.075,0,0,0,0.2000122,nan,2,0.035,1,128,0.2208252,0.2377625,0.2145691,0.2321167,0.0009765625,0,0,1,2,0
1903.829,0.000989,0.02539062,-0.02734375,0.015625,1.117188,4.835938,7.085938,0.02734375,-0.04882812,0.02734375,0.0078125,-0.009765625,0,-0.001342773,0.001586914,0.001464844,0,0,-0.0002441406,0.2263184,4.075,0,0,0,0.2000122,nan,2,0.045,1,128,0.2540894,0.2137756,0.2443848,0.1929932,0.0009765625,0,0,1,2,0
1903.839,0.00106,-0.0390625,-0.3300781,-0.1308594,0.8828125,8.609375,12.25,0.06835938,-0.1582031,-0.1171875,0.00390625,-0.0078125,0,-0.0006103516,0.001342773,0.001098633,0,0,-0.0002441406,0.2263184,4.075,0,0,0,0.2000122,nan,2,0.004,1,128,0.07980347,0.4393616,0.01849365,0.3675842,0.0009765625,0,0,1,2,0
1903.849,0.001003,0.04101562,-0.03710938,0.01953125,-1.59375,5.945312,10.20312,-0.01171875,0.01757812,-0.00390625,0.00390625,-0.00390625,0,-0.0007324219,0.0006103516,0.0007324219,0,0,-0.0002441406,0.2263184,4.075,0,0,0,0.2000122,nan,2,0.014,1,128,0.2644653,0.1654968,0.2817078,0.193573,0.0009765625,0,0,1,2,0
1903.859,0.001023,0.005859375,0.005859375,0.08789062,1.070312,-4.0625,8.921875,0.01953125,-0.015625,0.078125,0.00390625,-0.001953125,0,-0.0004882812,0.0003662109,0.001220703,0,0,-0.0002441406,0.2263184,4.075,0,0,0,0.2000122,nan,2,0.024,1,128,0.3197327,0.1297302,0.3238525,0.1319885,0.0009765625,0,0,1,2,0.1587302
1903.869,0.001006,-0.078125,-0.03320312,0.015625,0.578125,-2.445312,8.945312,-0.06054688,0.01171875,0.07617188,0.005859375,-0.00390625,0,-0.0009765625,0.0007324219,0.002075195,0,0,-0.0002441406,0.2263184,4.075,0,0,0,0.2000122,nan,2,0.034,1,128,0.229248,0.229248,0.2071533,0.2395935,0.0009765625,0,0,1,2,0
1903.879,0.001056,0.08984375,-0.078125,-0.046875,-1.671875,-3.273438,9.351562,0.009765625,-0.001953125,-0.02734375,0.0078125,-0.005859375,0,-0.001464844,0.001098633,0.002197266,0,0,-0.0002441406,0.2263184,4.075,0,0,0,0.2000122,nan,2,0.044,1,128,0.1426697,0.3221741,0.1504822,0.2899475,0.0009765625,0,0,1,2,0.1746032
1903.888,0.000976,0.08398438,-0.0390625,-0.1054688,-0.7109375,2.835938,10.14844,0.02734375,-0.02148438,-0.08203125,0.0078125,-0.0078125,0,-0.001464844,0.001220703,0.001708984,0,0,-0.0002441406,0.2263184,4.075,0,0,0,0.2000122,nan,2,0.054,1,128,0.1374512,0.3293762,0.1360168,0.3024292,0.0009765625,0,0,1,2,0
1903.898,0.001068,-0.1191406,0.06445312,-0.04296875,1.390625,-1.265625,3.671875,-0.03515625,0.02734375,-0.0625,0.0078125,-0.0078125,0,-0.001342773,0.001220703,0.0008544922,0,0,-0.0002441406,0.2263184,4.075,0,0,0,0.2000122,nan,2,0.064,1,128,0.2358093,0.2025452,0.2283325,0.2385864,0.0009765625,0,0,1,2,0
1903.908,0.001061,0.06054688,-0.1152344,-0.02539062,0.4453125,-4.726562,11.17969,0.005859375,0.01367188,-0.02929688,0.01171875,-0.009765625,0,-0.001953125,0.001586914,0.0004882812,0,0,-0.0002441406,0.2263184,4.075,0,0,0,0.2000122,nan,2,0.074,1,128,0.2296753,0.2301025,0.2386169,0.2068787,0.0009765625,0,0,1,2,0
1903.918,0.001016,0.03515625,0.0078125,0.06054688,-2.046875,0.5390625,15.76562,0.05859375,0,0.02539062,0.0078125,-0.0078125,0,-0.001220703,0.001464844,0.0003662109,0,0,-0.0002441406,0.2263184,4.075,0,0,0,0.2000122,nan,2,0.084,1,128,0.2919617,0.156311,0.3022461,0.1547546,0.0009765625,0,0,1,2,0
1903.928,0.001052,0.0703125,-0.05859375,0.0703125,-1.40625,6.734375,13.47656,-0.01953125,0.01367188,0.06640625,0.009765625,-0.009765625,0,-0.001586914,0.001586914,0.0008544922,0,0,-0.0002441406,0.3105164,4.075,0,0,0,0.2999878,nan,2,0,1,128,0.3653259,0.2506104,0.3711243,0.2550659,0.0009765625,0,0,1,2,0
1903.939,0.000992,0.0546875,-0.1679688,-0.06640625,-2.3125,5.164062,11.77344,0.05859375,-0.1113281,-0.01953125,0.0078125,-0.00390625,0,-0.001464844,0.0006103516,0.001220703,0,0,-0.0002441406,0.3105164,4.075,0,0,0,0.2999878,nan,2,0.011,1,128,0.2115173,0.434845,0.212677,0.3830566,0.0009765625,0,0,1,2,0
1903.949,0.000959,-0.01367188,0.0234375,0.08203125,-2.4375,2.648438,8.476562,-0.02539062,-0.01171875,0.06640625,0.009765625,-0.001953125,0,-0.001586914,0.0002441406,0.001586914,0,0,-0.0002441406,0.3105164,4.075,0,0,0,0.2999878,nan,2,0.021,1,128,0.3846741,0.2262878,0.3897705,0.241394,0.0009765625,0,0,1,2,0
1903.959,0.00101,-0.01367188,0.001953125,0.07421875,-0.2265625,0.640625,9.882812,0,0.0078125,0.06640625,0.009765625,-0.001953125,0,-0.001586914,0.0002441406,0.002197266,0,0,-0.0002441406,0.3105164,4.072,0,0,0,0.2999878,nan,2,0.031,1,128,0.3424072,0.2773132,0.3387756,0.2835999,0.0009765625,0,0,1,2,0.6507937
1903.969,0.000981,0.009765625,-0.0078125,0.02539062,1.414062,1.867188,7.820312,-0.01953125,-0.001953125,0.03515625,0.01171875,-0.001953125,0,-0.001831055,0.0003662109,0.002685547,0,0,-0.0002441406,0.3105164,4.072,0,0,0,0.2999878,nan,2,0.041,1,128,0.2946472,0.3285217,0.2913818,0.3275452,0.0009765625,0,0,1,2,0
1903.979,0.001015,-0.0078125,0.046875,-0.03125,-1.539062,-1.351562,10.71094,0,0.01757812,-0.02148438,0.01171875,-0.001953125,0,-0.001831055,0.0004882812,0.002807617,0,0,-0.0002441406,0.3105164,4.072,0,0,0,0.2999878,nan,2,0.051,1,128,0.2517395,0.361908,0.2587585,0.3697205,0.0009765625,0,0,1,2,0
1903.989,0.001012,0.001953125,-0.02929688,-0.0625,1.421875,3.359375,11.875,-0.0078125,0.001953125,-0.0625,0.01367188,-0.00390625,0,-0.002075195,0.0007324219,0.002319336,0,0,-0.0002441406,0.3105164,4.072,0,0,0,0.2999878,nan,2,0.009,1,128,0.2523804,0.3748169,0.248291,0.3666382,0.0009765625,0,0,1,2,0
1903.998,0.001009,0.046875,0.046875,-0.06640625,1.671875,-4.125,11.39844,0.05078125,0.0234375,-0.0625,0.01171875,-0.005859375,0,-0.001953125,0.0008544922,0.001831055,0,0,-0.0002441406,0.3105164,4.072,0,0,0,0.2999878,nan,2,0.018,1,128,0.2659912,0.3483887,0.2889404,0.3387756,0.0009765625,0,0,1,2,0
1904.008,0.001002,-0.05664062,0.06640625,-0.07617188,-0.828125,-1.3125,8.265625,-0.015625,0.01757812,-0.0859375,0.009765625,-0.00390625,0,-0.001586914,0.0006103516,0.0009765625,0,0,-0.0002441406,0.3105164,4.072,0,0,0,0.2999878,nan,2,0.028,1,128,0.2776794,0.3252563,0.2755737,0.3636169,0.0009765625,0,0,1,2,0
1904.018,0.001046,0.07421875,-0.02929688,-0.02539062,-0.7578125,4.578125,12.875,-0.005859375,0.015625,-0.05273438,0.01171875,-0.005859375,0,-0.002075195,0.001098633,0.0003662109,0,0,-0.0002441406,0.3105164,4.072,0,0,0,0.2999878,nan,2,0.038,1,128,0.3189087,0.3076172,0.3207703,0.2947998,0.0009765625,0,0,1,2,0
1904.028,0.001013,0.046875,0.05859375,-0.0390625,1.953125,1.5,10.71875,0.04296875,-0.005859375,-0.04492188,0.009765625,-0.00390625,0,-0.001586914,0.0007324219,-0.0001220703,0,0,-0.0002441406,0.3105164,4.072,0,0,0,0.2999878,nan,2,0.048,1,128,0.2910461,0.3212585,0.3065491,0.3232422,0.0009765625,0,0,1,2,0
1904.039,0.0009860001,-0.1113281,0.1425781,0.04882812,0.46875,-4.210938,10.14062,-0.001953125,0.07617188,0.001953125,0.0078125,-0.005859375,0,-0.001342773,0.001098633,-0.0003662109,0,0,-0.0002441406,0.3105164,4.072,0,0,0,0.2999878,nan,2,0.001,1,128,0.3589478,0.230957,0.3764038,0.2757874,0.0009765625,0,0,1,2,0
1904.049,0.000991,0.04296875,-0.08007812,-0.0234375,-1.734375,2.390625,12.14844,0.001953125,-0.06835938,-0.01367188,0.009765625,-0.005859375,0,-0.001708984,0.001098633,-0.0003662109,0,0,-0.0002441406,0.3105164,4.072,0,0,0,0.2999878,nan,2,0.011,1,128,0.299408,0.3522339,0.2772522,0.3132019,0.0009765625,-0.0009765625,0,1,2,0
1904.059,0.001076,-0.03710938,0.1347656,0.01367188,1.25,-0.9609375,10.36719,-0.015625,0.05273438,0.001953125,0.009765625,-0.00390625,0,-0.001464844,0.0008544922,-0.0004882812,0,0,-0.0002441406,0.3105164,4.072,0,0,0,0.2999878,nan,2,0.021,1,128,0.3207092,0.265564,0.3392334,0.3165894,0.0009765625,0,0,1,2,0
1904.069,0.000958,-0.02539062,-0.01367188,0.046875,-0.765625,-1.34375,7.867188,0.01171875,0.01171875,0.05273438,0.009765625,-0.0078125,0,-0.001708984,0.001464844,-0.0001220703,0,0,-0.0002441406,0.3105164,4.072,0,0,0,0.2999878,nan,2,0.031,1,128,0.3692627,0.2602539,0.3664856,0.2460938,0.0009765625,-0.0009765625,0,1,2,0
1904.078,0.001049,0.01171875,-0.01757812,0.04882812,0.640625,0.5234375,9.84375,0.02148438,-0.02539062,0.05273438,0.009765625,-0.0078125,0,-0.001586914,0.001220703,0.0003662109,0,0,-0.0002441406,0.3105164,4.072,0,0,0,0.2999878,nan,2,0.04,1,128,0.3287354,0.296936,0.3278503,0.2886047,0.0009765625,-0.0009765625,0,1,2,0.3968254
1904.088,0.001011,-0.1445312,0.06835938,0.02539062,-0.21875,-2.242188,9.671875,-0.05859375,0.04882812,0.03125,0.009765625,-0.0078125,0,-0.001586914,0.001342773,0.0007324219,0,0,-0.0002441406,0.3105164,4.072,0,0,0,0.2999878,nan,2,0.003,1,128,0.3050537,0.2952271,0.2939758,0.3478394,0.0009765625,-0.0009765625,0,1,2,0.2063492
1904.098,0.001014,0.1367188,-0.02929688,0.02539062,0.7578125,2.398438,10.85156,0.078125,-0.04101562,0.0234375,0.01171875,-0.0078125,0,-0.001831055,0.001342773,0.001098633,0,0,-0.0002441406,0.3105164,4.072,0,0,0,0.2999878,nan,2,0.013,1,128,0.2865906,0.348999,0.3132324,0.2933044,0.0009765625,-0.0009765625,0,1,2,0
1904.108,0.000981,-0.1035156,-0.01367188,0.0546875,1.085938,-3.15625,9.859375,0.001953125,-0.02148438,0.02929688,0.0078125,-0.005859375,0,-0.001464844,0.0008544922,0.001342773,0,0,-0.0002441406,0.3105164,4.072,0,0,0,0.2999878,nan,2,0.023,1,128,0.3348389,0.2822571,0.3253479,0.2996826,0.0009765625,-0.0009765625,0,1,2,0
1904.118,0.001007,-0.02148438,-0.03320312,-0.00390625,-0.921875,2.390625,11.83594,-0.04882812,-0.001953125,0.01367188,0.01171875,-0.005859375,0,-0.001831055,0.001098633,0.001586914,0,0,-0.0002441406,0.3105164,4.072,0,0,0,0.2999878,nan,2,0.033,1,128,0.3036499,0.3210144,0.28302,0.3344116,0.0009765625,-0.0009765625,0,1,2,0
1904.128,0.000979,0.009765625,-0.02734375,-0.02734375,1.507812,0.609375,8.1875,0,-0.04296875,-0.01171875,0.009765625,-0.005859375,0,-0.001708984,0.0008544922,0.001586914,0,0,-0.0002441406,0.3105164,4.072,0,0,0,0.2999878,nan,2,0.043,1,128,0.2865906,0.3463135,0.2718506,0.3373413,0.0009765625,-0.0009765625,0,1,2,0
1904.139,0.001019,0.04882812,0.1484375,-0.0390625,-1.546875,-0.765625,9.273438,-0.03320312,0.05859375,-0.02734375,0.01367188,-0.005859375,0,-0.002075195,0.0009765625,0.001464844,0,0,-0.0002441406,0.3105164,4.072,0,0,0,0.2999878,nan,2,0.005,1,128,0.2678223,0.3234558,0.2936096,0.3571777,0.0009765625,-0.0009765625,0,1,2,0.1111111
1904.148,0.001007,0.2167969,-0.03710938,-0.09960938,-0.6171875,0.4609375,11.28906,0.07617188,0,-0.078125,0.01367188,-0.0078125,0,-0.002441406,0.001342773,0.001098633,0,0,-0.0002441406,0.3105164,4.072,0,0,0,0.2999878,nan,2,0.015,1,128,0.1902466,0.4399109,0.2259827,0.3859558,0.0009765625,-0.0009765625,0,1,2,0
1904.159,0.001016,-0.09375,0.046875,-0.08203125,1.539062,-1.265625,7.882812,-0.03710938,0.015625,-0.0859375,0.01367188,-0.0078125,0,-0.002197266,0.001220703,0.0001220703,0,0,-0.0002441406,0.3105164,4.072,0,0,0,0.2999878,nan,2,0.025,1,128,0.2907715,0.3182373,0.2768555,0.3562622,0.0009765625,-0.0009765625,0,1,2,0
1904.169,0.001014,0.04882812,-0.06640625,-0.0625,1.507812,-1.601562,7.617188,0.03320312,-0.015625,-0.04492188,0.01367188,-0.009765625,0,-0.002441406,0.001464844,-0.0003662109,0,0,-0.0002441406,0.3105164,4.072,0,0,0,0.2999878,nan,2,0.035,1,128,0.3007812,0.3329163,0.3062134,0.3021851,0.0009765625,-0.0009765625,0,1,2,0
1904.179,0.001011,-0.02148438,0.06054688,0.01367188,-2.5625,0.328125,10.32812,0.04296875,-0.001953125,-0.02734375,0.01171875,-0.005859375,0,-0.001953125,0.001098633,-0.0008544922,0,0,-0.0002441406,0.3105164,4.072,0,0,0,0.2999878,nan,2,0.001,1,128,0.3416138,0.2658997,0.3556213,0.2789612,0.0009765625,-0.0009765625,0,1,2,0
1904.189,0.001014,-0.005859375,-0.05664062,0.0078125,-0.2734375,1.492188,9.109375,0.001953125,0.00390625,0.01171875,0.01171875,-0.0078125,0,-0.002075195,0.001342773,-0.0008544922,0,0,-0.0002441406,0.3105164,4.072,0,0,0,0.2999878,nan,2,0.011,1,128,0.3379211,0.287323,0.3274841,0.2893677,0.0009765625,-0.0009765625,0,1,2,0
1904.198,0.001001,-0.07226562,0.05078125,0.04296875,0.546875,-3.523438,10.46875,0.03320312,0.01953125,0.02148438,0.009765625,-0.0078125,0,-0.001708984,0.001464844,-0.0007324219,0,0,-0.0002441406,0.3105164,4.072,0,0,0,0.2999878,nan,2,0.02,1,128,0.3352661,0.2745667,0.3450012,0.287262,0.0009765625,-0.0009765625,0,1,2,0
1904.208,0.001064,0.09960938,0.01953125,0.1015625,-0.0859375,3.851562,11.76562,-0.02148438,0.01171875,0.1015625,0.01171875,-0.009765625,0,-0.001831055,0.001464844,0,0,0,-0.0002441406,0.3105164,4.072,0,0,0,0.2999878,nan,2,0.03,1,128,0.4075928,0.2092896,0.4035034,0.2217407,0.0009765625,-0.0009765625,0,1,2,0
1904.218,0.001011,0.07421875,-0.06054688,0.09179688,0.21875,-3.742188,9.960938,0.04882812,-0.03710938,0.09570312,0.009765625,-0.0078125,0,-0.001586914,0.001342773,0.001098633,0,0,-0.0002441406,0.3105164,4.072,0,0,0,0.2999878,nan,2,0.04,1,128,0.3186646,0.3132324,0.3236694,0.2865601,0.0009765625,-0.0009765625,0,1,2,0
1904.228,0.000977,-0.04296875,0.03320312,-0.06054688,-0.09375,4.578125,11.60938,-0.02148438,0.005859375,-0.01171875,0.009765625,-0.005859375,0,-0.001586914,0.001098633,0.001464844,0,0,-0.0002441406,0.3105164,4.072,0,0,0,0.2999878,nan,2,0.051,1,128,0.2077637,0.4006042,0.2063904,0.4273376,0.0009765625,-0.0009765625,0,1,2,0
1904.239,0.000988,0.0078125,-0.0390625,-0.03710938,1.3125,-0.921875,7.945312,-0.05078125,0.0234375,-0.03320312,0.01171875,-0.009765625,0,-0.002075195,0.001586914,0.001220703,0,0,-0.0002441406,0.3105164,4.072,0,0,0,0.2999878,nan,2,0.006,1,128,0.2916565,0.331543,0.2785034,0.3404236,0.0009765625,-0.0009765625,0,1,2,0
1904.249,0.001008,0,-0.07617188,-0.01367188,1.210938,0.3984375,8.976562,0.03320312,-0.0625,0.001953125,0.01171875,-0.0078125,0,-0.001831055,0.001342773,0.001098633,0,0,-0.0002441406,0.3105164,4.072,0,0,0,0.2999878,nan,2,0.016,1,128,0.3399048,0.302124,0.3221436,0.2779236,0.0009765625,-0.0009765625,0,1,2,0
1904.259,0.001008,-0.06054688,0.0703125,0.009765625,-0.984375,0.609375,13.20312,-0.01757812,0.02734375,0.01367188,0.009765625,-0.0078125,0,-0.001708984,0.001220703,0.001098633,0,0,-0.0002441406,0.3105164,4.072,0,0,0,0.2999878,nan,2,0.026,1,128,0.3240051,0.2769165,0.327301,0.3139038,0.0009765625,-0.0009765625,0,1,2,0
1904.269,0.001026,0.03515625,-0.1289062,-0.02929688,0.9140625,0.5078125,7.0625,0.04296875,-0.06835938,-0.01367188,0.009765625,-0.0078125,0,-0.001586914,0.001220703,0.001220703,0,0,-0.0002441406,0.3105164,4.072,0,0,0,0.2999878,nan,2,0.036,1,128,0.2820129,0.3695984,0.262146,0.3283691,0.0009765625,-0.0009765625,0,1,2,0
1904.279,0.00104,-0.0546875,0.04882812,-0.02539062,-0.171875,-4.617188,8.945312,-0.009765625,0.02539062,-0.01953125,0.0078125,-0.005859375,0,-0.001220703,0.0009765625,0.0009765625,0,0,-0.0002441406,0.3105164,4.072,0,0,0,0.2999878,nan,2,0.002,1,128,0.297699,0.3035583,0.2981262,0.3427429,0.0009765625,-0.0009765625,0,1,2,0
1904.288,0.000999,0.046875,0.046875,-0.00390625,-0.78125,4.359375,13.10938,-0.005859375,0.04296875,-0.009765625,0.0078125,-0.0078125,0,-0.001464844,0.001220703,0.0008544922,0,0,-0.0002441406,0.3105164,4.072,0,0,0,0.2999878,nan,2,0.011,1,128,0.3191833,0.2878418,0.3360901,0.2989502,0.0009765625,-0.0009765625,0,1,2,0
1904.298,0.001014,0.0390625,-0.0859375,-0.08203125,1.40625,-2.53125,10.89062,0.046875,-0.05664062,-0.05664062,0.0078125,-0.005859375,0,-0.001220703,0.0009765625,0.0004882812,0,0,-0.0002441406,0.3105164,4.072,0,0,0,0.2999878,nan,2,0.021,1,128,0.2575378,0.381897,0.2506409,0.3520508,0.0009765625,-0.0009765625,0,1,2,0
1904.308,0.000941,-0.1015625,0.08203125,0.015625,0.1015625,-1.726562,7.398438,-0.07226562,0.06054688,-0.02148438,0.0078125,-0.005859375,0,-0.001342773,0.001098633,0,0,0,-0.0002441406,0.3105164,4.072,0,0,0,0.2999878,nan,2,0.031,1,128,0.3494873,0.2432861,0.3453369,0.3040161,0.0009765625,-0.0009765625,0,1,2,0
1904.318,0.000942,0.07421875,-0.05859375,0.03125,-1.945312,0.6796875,13.29688,0.02929688,-0.015625,0.03710938,0.009765625,-0.0078125,0,-0.001708984,0.001464844,0.0001220703,0,0,-0.0002441406,0.3105164,4.072,0,0,0,0.2999878,nan,2,0.041,1,128,0.3616333,0.2746582,0.3638,0.2420349,0.0009765625,-0.0009765625,0,1,2,0
1904.328,0.000992,-0.02539062,0.1132812,-0.0078125,1.679688,2.25,7.445312,-0.01757812,0.001953125,0.02734375,0.0078125,-0.0078125,0,-0.001342773,0.001220703,0.0006103516,0,0,-0.0002441406,0.3105164,4.072,0,0,0,0.2999878,nan,2,0.051,1,128,0.2937622,0.3160706,0.2829895,0.3492737,0.0009765625,-0.0009765625,0,1,2,0
1904.339,0.001039,0.04882812,-0.01953125,0.02539062,-0.5625,-3.359375,8.554688,0.005859375,0.01367188,0.01953125,0.009765625,-0.009765625,0,-0.001586914,0.001586914,0.0008544922,0,0,-0.0002441406,0.3105164,4.072,0,0,0,0.2999878,nan,2,0.002,1,128,0.3037415,0.3203125,0.3082581,0.3097839,0.0009765625,-0.0009765625,0,1,2,0
1904.348,0.001006,-0.03320312,-0.02539062,-0.02734375,-0.5,2.523438,11.375,0.01953125,-0.01953125,-0.0234375,0.0078125,-0.009765625,0,-0.001464844,0.001464844,0.0007324219,0,0,-0.0002441406,0.3105164,4.072,0,0,0,0.2999878,nan,2,0.012,1,128,0.2735901,0.3521729,0.2669678,0.3493958,0.0009765625,-0.0009765625,0,1,2,0
1904.359,0.001046,-0.09765625,-0.015625,0.05859375,0.546875,-3.882812,6.296875,-0.03710938,0.02539062,0.0234375,0.009765625,-0.009765625,0,-0.001708984,0.001708984,0.0007324219,0,0,-0.0002441406,0.3105164,4.072,0,0,0,0.2999878,nan,2,0.022,1,128,0.3685913,0.2470398,0.3599854,0.2664795,0.0009765625,-0.0009765625,0,1,2,0
1904.369,0.001017,-0.0078125,-0.05859375,0.03515625,0.421875,1.257812,8.90625,0.00390625,-0.04882812,0.04101562,0.009765625,-0.009765625,0,-0.001586914,0.001586914,0.001098633,0,0,-0.0002441406,0.3105164,4.072,0,0,0,0.2999878,nan,2,0.032,1,128,0.3480225,0.2887573,0.3276062,0.27771,0.0009765625,-0.0009765625,0,1,2,0
1904.379,0.001035,-0.0234375,0.04882812,0.06640625,-0.828125,0.375,11.04688,-0.009765625,0.0234375,0.04882812,0.0078125,-0.0078125,0,-0.001464844,0.001464844,0.001586914,0,0,-0.0002441406,0.3105164,4.072,0,0,0,0.2999878,nan,2,0.042,1,128,0.340271,0.2635803,0.3460999,0.2921753,0.0009765625,-0.0009765625,0,1,2,0
1904.389,0.001012,0.01367188,-0.005859375,0.05078125,0.5390625,-1.8125,9.15625,-0.00390625,0.01367188,0.06640625,0.009765625,-0.009765625,0,-0.001708984,0.001708984,0.002197266,0,0,-0.0002441406,0.3105164,4.072,0,0,0,0.2999878,nan,2,0.009,1,128,0.333252,0.2863464,0.3369141,0.2855835,0.0009765625,-0.0009765625,0,1,2,0.01587302
1904.398,0.000965,-0.06445312,0.01367188,0.0546875,-1.625,3.820312,11.99219,0.00390625,-0.015625,0.06445312,0.009765625,-0.0078125,0,-0.001708984,0.001464844,0.002807617,0,0,-0.0002441406,0.3105164,4.072,0,0,0,0.2999878,nan,2,0.018,1,128,0.3264771,0.2915344,0.3207397,0.3033752,0.0009765625,-0.0009765625,0,1,2,0
1904.408,0.001004,-0.04492188,0.06054688,-0.0546875,1.304688,-2.21875,9.007812,-0.0078125,0.02734375,-0.01953125,0.009765625,-0.009765625,0,-0.001708984,0.001586914,0.002929688,0,0,-0.0002441406,0.3105164,4.072,0,0,0,0.2999878,nan,2,0.028,1,128,0.2288513,0.3799438,0.233551,0.3997498,0.0009765625,-0.0009765625,0,1,2,0.07936508
1904.418,0.000977,0.02734375,-0.0859375,-0.03125,-0.8828125,-0.234375,7.835938,0.005859375,-0.04101562,-0.04296875,0.01171875,-0.009765625,0,-0.001831055,0.001586914,0.002563477,0,0,-0.0002441406,0.3105164,4.072,0,0,0,0.2999878,nan,2,0.038,1,128,0.2891846,0.350708,0.2746582,0.3275452,0.0009765625,-0.0009765625,0,1,2,0
1904.428,0.001035,0.078125,0.05664062,-0.01757812,-2.0625,3.273438,13.89062,0.02539062,0.01171875,-0.03320312,0.009765625,-0.0078125,0,-0.001586914,0.001220703,0.002197266,0,0,-0.0002441406,0.3105164,4.072,0,0,0,0.2999878,nan,2,0.048,1,128,0.3042908,0.2974854,0.3254089,0.3149414,0.0009765625,-0.0009765625,0,1,2,0
1904.439,0.000988,0.0078125,0,-0.06054688,0.78125,-1.375,5.140625,0.009765625,0.02148438,-0.06835938,0.009765625,-0.009765625,0,-0.001464844,0.001586914,0.001586914,0,0,-0.0002441406,0.3105164,4.072,0,0,0,0.2999878,nan,2,0.004,1,128,0.2896729,0.3307495,0.2865906,0.335083,0.0009765625,-0.0009765625,0,1,2,0
1904.449,0.001036,0.0703125,-0.08007812,-0.1015625,2.070312,-0.578125,8.671875,0.06445312,-0.06445312,-0.1035156,0.005859375,-0.0078125,0,-0.0009765625,0.001342773,0.0006103516,0,0,-0.0002441406,0.3105164,4.072,0,0,0,0.2999878,nan,2,0.014,1,128,0.2600098,0.3797913,0.2528381,0.3494568,0.0009765625,-0.0009765625,0,1,2,0
1904.459,0.001003,-0.1074219,0.08789062,-0.04492188,0.1640625,-4.578125,7.851562,-0.07226562,0.07617188,-0.06445312,0.005859375,-0.0078125,0,-0.001098633,0.001342773,-0.0002441406,0,0,-0.0002441406,0.3105164,4.072,0,0,0,0.2999878,nan,2,0.024,1,128,0.3282776,0.2541809,0.3316956,0.3279419,0.0009765625,-0.0009765625,0,1,2,0
1904.469,0.001013,0.08984375,-0.1328125,0.01171875,0.1328125,-0.8203125,8.054688,0.02148438,-0.03320312,-0.005859375,0.0078125,-0.009765625,0,-0.001464844,0.001708984,-0.0006103516,0,0,-0.0002441406,0.3105164,4.072,0,0,0,0.2999878,nan,2,0.034,1,128,0.3763733,0.2710571,0.3686523,0.2260437,0.0009765625,-0.0009765625,0,1,2,0
1904.479,0.001013,-0.08203125,0.05078125,0.05664062,-1.46875,1.578125,14.24219,-0.0234375,0.015625,0.03320312,0.0078125,-0.0078125,0,-0.001098633,0.001464844,-0.0004882812,0,0,-0.0002441406,0.3105164,4.072,0,0,0,0.2999878,nan,2,0.044,1,128,0.3732605,0.2313232,0.3679504,0.2695618,0.0009765625,-0.0009765625,0,1,2,0
1904.488,0.001017,-0.015625,-0.03710938,0.0703125,1.21875,-0.796875,6.765625,-0.03320312,0.02734375,0.0546875,0.009765625,-0.009765625,0,-0.001464844,0.001831055,-0.0001220703,0,0,-0.0002441406,0.3105164,4.072,0,0,0,0.2999878,nan,2,0.054,1,128,0.3591614,0.2590637,0.3528442,0.2710266,0.0009765625,-0.0009765625,0,1,2,0
1904.498,0.001028,-0.015625,-0.04296875,0.02148438,-1.953125,-0.4375,10.82812,0.0078125,-0.03710938,0.04101562,0.0078125,-0.009765625,0,-0.001342773,0.001586914,0.0004882812,0,0,-0.0002441406,0.3105164,4.072,0,0,0,0.2999878,nan,2,0.005,1,128,0.3058472,0.3243713,0.2928162,0.3190918,0.0009765625,-0.0009765625,0,1,2,0
1904.508,0.001014,-0.03125,0.015625,-0.0078125,1.835938,0.6796875,8.375,-0.01757812,0.0390625,0,0.0078125,-0.009765625,0,-0.001342773,0.001586914,0.0006103516,0,0,-0.0002441406,0.3105164,4.072,0,0,0,0.2999878,nan,2,0.015,1,128,0.2663879,0.3338928,0.2740479,0.3677673,0.0009765625,-0.0009765625,0,1,2,0
1904.518,0.000965,0.1015625,-0.05078125,-0.046875,0.015625,-1.867188,7.875,0.02929688,-0.02148438,-0.04296875,0.0078125,-0.009765625,0,-0.001464844,0.001708984,0.0003662109,0,0,-0.0002441406,0.3105164,4.072,0,0,0,0.2999878,nan,2,0.025,1,128,0.2562561,0.3760681,0.2590027,0.350769,0.0009765625,-0.0009765625,0,1,2,0
1904.528,0.001012,-0.1289062,0.09179688,-0.0546875,-1.804688,3.3125,12.13281,-0.01953125,0.02734375,-0.03320312,0.005859375,-0.009765625,0,-0.001098633,0.001586914,0,0,0,-0.0002441406,0.3105164,4.072,0,0,0,0.2999878,nan,2,0.035,1,128,0.2952271,0.3048706,0.2939148,0.3480835,0.0009765625,-0.0009765625,0,1,2,0
1904.539,0.001041,-0.03710938,-0.03125,-0.03125,0.0390625,-1.578125,7.976562,-0.04101562,0.015625,-0.0078125,0.009765625,-0.01171875,0,-0.001586914,0.001953125,0,0,0,-0.0002441406,0.3105164,4.072,0,0,0,0.2999878,nan,2,0.001,1,128,0.3167114,0.3059998,0.3063354,0.3130493,0.0009765625,-0.0009765625,0,1,2,0
1904.548,0.001012,0.03125,-0.015625,-0.009765625,1.429688,-1.414062,8.320312,0.02929688,-0.0234375,-0.0234375,0.0078125,-0.009765625,0,-0.001342773,0.001708984,-0.0003662109,0,0,-0.0002441406,0.3105164,4.072,0,0,0,0.2999878,nan,2,0.011,1,128,0.3051147,0.3171997,0.3070068,0.3128052,0.0009765625,-0.0009765625,0,1,2,0
1904.559,0.001027,-0.00390625,0.02148438,0.03515625,-1.21875,-2.140625,7.625,-0.01953125,0.03320312,0.0234375,0.0078125,-0.01171875,0,-0.001464844,0.001953125,-0.0002441406,0,0,-0.0002441406,0.3105164,4.072,0,0,0,0.2999878,nan,2,0.021,1,128,0.3530273,0.2567139,0.3553162,0.2770691,0.0009765625,-0.0009765625,0,1,2,0
1904.569,0.001012,-0.04101562,-0.01757812,0.07617188,-1.085938,3.039062,12.75781,0.01171875,-0.03515625,0.0703125,0.0078125,-0.01171875,0,-0.001342773,0.001831055,0.0002441406,0,0,-0.0002441406,0.3105164,4.072,0,0,0,0.2999878,nan,2,0.031,1,128,0.3854675,0.2450867,0.372345,0.2392273,0.0009765625,-0.0009765625,0,1,2,0
1904.579,0.001001,-0.03125,0.04101562,-0.001953125,1.125,-2.367188,6.320312,-0.04101562,0.03515625,0.01757812,0.009765625,-0.01171875,0,-0.001586914,0.002075195,0.0006103516,0,0,-0.0002441406,0.3105164,4.072,0,0,0,0.2999878,nan,2,0.041,1,128,0.2695923,0.3370972,0.2705994,0.3648376,0.0009765625,-0.0009765625,0,1,2,0
1904.588,0.001028,0.05859375,0.05078125,-0.06445312,-1.539062,3.289062,11.98438,0.04882812,0.00390625,-0.02929688,0.009765625,-0.01367188,0,-0.001464844,0.002197266,0.0006103516,0,0,-0.0002441406,0.3105164,4.072,0,0,0,0.2999878,nan,2,0.007,1,128,0.2403259,0.3806458,0.2582397,0.362915,0.0009765625,-0.0009765625,0,1,2,0
1904.598,0.001039,0.03515625,-0.05273438,-0.02539062,0.0078125,0.8828125,9.78125,0.00390625,-0.01757812,-0.04492188,0.0078125,-0.01367188,0,-0.001342773,0.002441406,0.0001220703,0,0,-0.0002441406,0.3105164,4.072,0,0,0,0.2999878,nan,2,0.017,1,128,0.3096313,0.3218079,0.2911377,0.3195496,0.0009765625,-0.0009765625,0,1,2,0.4920635
1904.608,0.001039,0.015625,-0.01367188,0.001953125,1.34375,-0.828125,8.9375,0.03320312,-0.02734375,-0.015625,0.005859375,-0.01171875,0,-0.0008544922,0.002075195,-0.0002441406,0,0,-0.0002441406,0.3105164,4.071,0,0,0,0.2999878,nan,2,0.027,1,128,0.3377686,0.2844543,0.3352966,0.2846069,0.0009765625,-0.0009765625,0,1,2,0
1904.618,0.000956,-0.009765625,0.0078125,0.0078125,-0.6953125,-3.03125,8.507812,0,0.01953125,0.0078125,0.005859375,-0.01367188,0,-0.0008544922,0.002197266,-0.0002441406,0,0,-0.0002441406,0.3105164,4.071,0,0,0,0.2999878,nan,2,0.037,1,128,0.3278198,0.2832031,0.3319397,0.2991638,0.0009765625,-0.0009765625,0,1,2,0
1904.628,0.000997,0.03710938,-0.02929688,0.009765625,-1.164062,3.984375,14.15625,0.01171875,-0.02148438,0.005859375,0.005859375,-0.01367188,0,-0.0009765625,0.002197266,-0.0001220703,0,0,-0.0002441406,0.3105164,4.071,0,0,0,0.2999878,nan,2,0.047,1,128,0.3132935,0.3117371,0.3162537,0.3008423,0.0009765625,-0.0009765625,0,1,2,0
1904.639,0.001,-0.01953125,0.02539062,-0.0234375,1.453125,0.21875,6.765625,-0.015625,0.0078125,-0.005859375,0.005859375,-0.01171875,0,-0.0009765625,0.002075195,-0.0001220703,0,0,-0.0002441406,0.3105164,4.071,0,0,0,0.2999878,nan,2,0.001,1,128,0.2846985,0.3261414,0.2840881,0.347168,0.0009765625,-0.0009765625,0,1,2,0
1904.648,0.000964,-0.03125,-0.0234375,0,1.71875,-3.023438,9.023438,0.02148438,-0.015625,-0.001953125,0.005859375,-0.01367188,0,-0.0009765625,0.002197266,-0.0001220703,0,0,-0.0002441406,0.3105164,4.071,0,0,0,0.2999878,nan,2,0.011,1,128,0.3088074,0.3172913,0.3078918,0.3081055,0.0009765625,-0.0009765625,0,1,2,0.3492064
1904.659,0.001017,-0.05273438,0.06835938,0.005859375,-1.789062,1.546875,10.11719,-0.046875,0.0234375,-0.01953125,0.005859375,-0.01171875,0,-0.0009765625,0.001953125,-0.0002441406,0,0,-0.0002441406,0.3105164,4.071,0,0,0,0.2999878,nan,2,0.021,1,128,0.3067017,0.2935181,0.302124,0.3397522,0.0009765625,-0.0009765625,0,1,2,0
1904.669,0.001008,0,-0.04492188,0.001953125,-0.8671875,1.992188,13.63281,-0.009765625,-0.00390625,0.00390625,0.0078125,-0.01367188,0,-0.001220703,0.002197266,-0.0002441406,0,0,-0.0002441406,0.3105164,4.071,0,0,0,0.2999878,nan,2,0.031,1,128,0.323822,0.3017578,0.3199768,0.2965698,0.0009765625,-0.0009765625,0,1,2,0
1904.678,0.000992,-0.009765625,0.00390625,0.009765625,1.570312,0.046875,8.210938,0.02539062,-0.01367188,0.015625,0.005859375,-0.01171875,0,-0.0009765625,0.001953125,-0.0002441406,0,0,-0.0002441406,0.3105164,4.071,0,0,0,0.2999878,nan,2,0.04,1,128,0.3237915,0.2931213,0.3275757,0.2976379,0.0009765625,-0.0009765625,0,1,2,0
1904.688,0.000985,0.03710938,0.01757812,-0.001953125,-0.921875,-0.46875,9.351562,0.01367188,0.01953125,0.009765625,0.00390625,-0.01367188,0,-0.0007324219,0.002075195,-0.0001220703,0,0,-0.0002441406,0.3105164,4.071,0,0,0,0.2999878,nan,2,0.006,1,128,0.3079529,0.3054199,0.3152771,0.313446,0.0009765625,-0.0009765625,0,1,2,0.1111111
1904.698,0.001009,-0.009765625,0.03125,-0.06640625,-0.5234375,3.15625,12.34375,0.01953125,0.01171875,-0.04296875,0.00390625,-0.01367188,0,-0.0004882812,0.002197266,-0.0002441406,0,0,-0.0002441406,0.3105164,4.071,0,0,0,0.2999878,nan,2,0.016,1,128,0.2406006,0.3740845,0.2403259,0.387085,0.0009765625,-0.0009765625,0,1,2,0
1904.708,0.001018,-0.005859375,0,-0.01171875,1.421875,-0.59375,10.14844,-0.0078125,-0.005859375,-0.03125,0.00390625,-0.01367188,0,-0.0004882812,0.002197266,-0.0006103516,0,0,-0.0002441406,0.3105164,4.071,0,0,0,0.2999878,nan,2,0.026,1,128,0.3137207,0.3044434,0.3089905,0.3149719,0.0009765625,-0.0009765625,0,1,2,0.04761905
1904.718,0.001012,-0.0234375,0.02539062,0.00390625,0.46875,-0.7734375,7.515625,-0.009765625,-0.00390625,-0.00390625,0.00390625,-0.01171875,0,-0.0006103516,0.002075195,-0.0007324219,0,0,-0.0002441406,0.3105164,4.071,0,0,0,0.2999878,nan,2,0.036,1,128,0.3303223,0.284729,0.3296204,0.2974243,0.0009765625,-0.0009765625,0,1,2,0
1904.728,0.001015,0.09960938,0.05664062,0,-1.632812,2.484375,11.23438,0.07617188,0.01171875,0.0078125,0.001953125,-0.01171875,0,-0.0003662109,0.002075195,-0.0007324219,0,0,-0.0002441406,0.3105164,4.071,0,0,0,0.2999878,nan,2,0.046,1,128,0.2953186,0.3157654,0.3308411,0.3001709,0.0009765625,-0.0009765625,0,1,2,0
1904.739,0.001055,-0.005859375,-0.03320312,0.001953125,0.6796875,0.96875,6.90625,-0.03125,0.005859375,-0.00390625,0,-0.01367188,0,-0.0001220703,0.002197266,-0.0008544922,0,0,-0.0002441406,0.3105164,4.071,0,0,0,0.2999878,nan,2,0.057,1,128,0.3345642,0.2795715,0.3182373,0.3097229,0.0009765625,-0.0009765625,0,1,2,0
1904.749,0.001036,0.07226562,-0.04882812,-0.02929688,1.34375,-2.1875,10.03906,0.02539062,-0.03515625,-0.02539062,0.001953125,-0.01171875,0,-0.0002441406,0.002075195,-0.0009765625,0,0,-0.0002441406,0.3105164,4.071,0,0,0,0.2999878,nan,2,0.004,1,128,0.2787476,0.3500977,0.2835693,0.3297119,0.0009765625,-0.0009765625,0,1,2,0
1904.759,0.001058,-0.08203125,0.05273438,0.04296875,-1.039062,3.453125,10.82812,0.009765625,0.02148438,0.0078125,0,-0.009765625,0,0,0.001708984,-0.0009765625,0,0,-0.0002441406,0.3105164,4.071,0,0,0,0.2999878,nan,2,0.014,1,128,0.3400879,0.2590027,0.3513184,0.2917175,0.0009765625,-0.0009765625,0,1,2,0
1904.769,0.001012,0.03320312,-0.06835938,0.04101562,-0.6484375,0.7890625,13.84375,-0.02539062,0,0.0234375,0.001953125,-0.01171875,0,-0.0003662109,0.002075195,-0.0008544922,0,0,-0.0002441406,0.3105164,4.071,0,0,0,0.2999878,nan,2,0.024,1,128,0.3383179,0.289032,0.329071,0.2857056,0.0009765625,-0.0009765625,0,1,2,0
1904.779,0.001012,-0.02929688,0.005859375,-0.01757812,1.179688,-0.3515625,7.5625,0.03515625,-0.0234375,-0.01171875,0.001953125,-0.009765625,0,-0.0002441406,0.001831055,-0.0007324219,0,0,-0.0002441406,0.3105164,4.071,0,0,0,0.2999878,nan,2,0.034,1,128,0.2726746,0.3460083,0.2797241,0.343689,0.0009765625,-0.0009765625,0,1,2,0
1904.788,0.001029,-0.0390625,0.03320312,0.015625,-2.09375,-0.359375,11.08594,-0.05273438,0.03320312,0.0078125,0.00390625,-0.01171875,0,-0.0006103516,0.001953125,-0.0008544922,0,0,-0.0002441406,0.3105164,4.071,0,0,0,0.2999878,nan,2,0.043,1,128,0.332489,0.2740479,0.3323059,0.3032532,0.0009765625,-0.0009765625,0,1,2,0
1904.798,0.001008,0.1015625,-0.015625,-0.05078125,0.6484375,4.414062,13.46875,0.03320312,-0.015625,-0.001953125,0.00390625,-0.01367188,0,-0.0006103516,0.002075195,-0.0007324219,0,0,-0.0002441406,0.3105164,4.071,0,0,0,0.2999878,nan,2,0.009,1,128,0.2885742,0.3395081,0.2962036,0.3178406,0.0009765625,-0.0009765625,0,1,2,0
1904.808,0.000978,-0.0078125,0,0.03125,1.382812,-3.601562,9.929688,0.00390625,0.01953125,0.02929688,0.00390625,-0.01367188,0,-0.0004882812,0.002441406,-0.0004882812,0,0,-0.0002441406,0.3105164,4.071,0,0,0,0.2999878,nan,2,0.019,1,128,0.3347778,0.2821655,0.3337402,0.2914429,0.0009765625,-0.0009765625,0,1,2,0
1904.818,0.001046,0.02539062,-0.06835938,0.00390625,-1.351562,0.8515625,8.671875,0.00390625,-0.02148438,0,0.001953125,-0.01367188,0,-0.0004882812,0.002441406,-0.0004882812,0,0,-0.0002441406,0.3105164,4.071,0,0,0,0.2999878,nan,2,0.029,1,128,0.3039246,0.3252869,0.2921143,0.3207703,0.0009765625,-0.0009765625,0,1,2,0
1904.828,0.001038,-0.09960938,0.05664062,0.0234375,-1.242188,1.148438,14.69531,-0.03320312,0.01171875,0.009765625,0.001953125,-0.01367188,0,-0.0003662109,0.002197266,-0.0003662109,0,0,-0.0002441406,0.3105164,4.071,0,0,0,0.2999878,nan,2,0.039,1,128,0.3270569,0.2781067,0.3200684,0.3168945,0.0009765625,-0.0009765625,0,1,2,0
1904.838,0.001028,0.015625,-0.0390625,0.0390625,2.054688,1.476562,7.6875,-0.01757812,0.00390625,0.04492188,0.00390625,-0.015625,0,-0.0007324219,0.002441406,0,0,0,-0.0002441406,0.3105164,4.071,0,0,0,0.2999878,nan,2,0.049,1,128,0.3467407,0.2749634,0.3461914,0.2742004,0.0009765625,-0.0009765625,0,1,2,0
1904.849,0.001015,0.04296875,0.03710938,0.03710938,-1.195312,-3.210938,9.609375,-0.02148438,-0.005859375,0.02734375,0.005859375,-0.01367188,0,-0.0008544922,0.002441406,0.0002441406,0,0,-0.0002441406,0.3105164,4.071,0,0,0,0.2999878,nan,2,0.06,1,128,0.3166809,0.3004761,0.3147583,0.3102112,0.0009765625,-0.0009765625,0,1,2,0.06349207
1904.859,0.001018,0.05273438,-0.06445312,-0.02148438,-0.2734375,2.421875,10.11719,-0.02539062,0.009765625,0.01171875,0.0078125,-0.015625,0,-0.001220703,0.002685547,0.0004882812,0,0,-0.0002441406,0.3105164,4.071,0,0,0,0.2999878,nan,2,0.004,1,128,0.2840576,0.3371887,0.2814026,0.339447,0.0009765625,-0.0009765625,0,1,2,0
1904.869,0.000948,0.0234375,-0.04882812,0.009765625,1.59375,-3.226562,9.234375,0.02539062,-0.04101562,0.00390625,0.005859375,-0.01367188,0,-0.001098633,0.002319336,0.0004882812,0,0,-0.0002441406,0.3105164,4.071,0,0,0,0.2999878,nan,2,0.014,1,128,0.3185425,0.3105164,0.3138123,0.2992554,0.0009765625,-0.0009765625,0,1,2,0.6031746
1904.879,0.00105,-0.001953125,-0.04101562,0.03710938,0.4453125,-0.9609375,7.023438,-0.07226562,0.015625,0.03710938,0.009765625,-0.015625,0,-0.001464844,0.002563477,0.0007324219,0,0,-0.0002441406,0.3105164,4.071,0,0,0,0.2999878,nan,2,0.024,1,128,0.3646545,0.2516479,0.3458252,0.2799683,0.0009765625,-0.001953125,0,1,2,0
1904.888,0.001026,0.07617188,-0.03710938,-0.009765625,-1.421875,-0.734375,12.49219,0.07617188,-0.06054688,0.0078125,0.0078125,-0.01367188,0,-0.001220703,0.002319336,0.0008544922,0,0,-0.0002441406,0.3105164,4.071,0,0,0,0.2999878,nan,2,0.033,1,128,0.2855835,0.3510132,0.2950439,0.3104553,0.0009765625,-0.0009765625,0,1,2,0
1904.898,0.001012,-0.08007812,0.03320312,-0.01367188,0.703125,-1.179688,7.070312,-0.0234375,0.001953125,-0.01171875,0.005859375,-0.01171875,0,-0.0008544922,0.001953125,0.0008544922,0,0,-0.0002441406,0.3105164,4.071,0,0,0,0.2999878,nan,2,0.006,1,128,0.306427,0.2998962,0.2973938,0.3384094,0.0009765625,-0.0009765625,0,1,2,0
1904.908,0.001016,0.04101562,-0.005859375,-0.00390625,-0.4296875,-2.367188,8.28125,-0.005859375,0.001953125,-0.001953125,0.0078125,-0.01367188,0,-0.001220703,0.002197266,0.0007324219,0,0,-0.0002441406,0.3105164,4.071,0,0,0,0.2999878,nan,2,0.016,1,128,0.3214111,0.2991943,0.3229065,0.298584,0.0009765625,-0.001953125,0,1,2,0
1904.918,0.00101,-0.02734375,0.0625,0.015625,-1.125,5.132812,13.28906,0.03320312,0.01171875,0.02539062,0.00390625,-0.01367188,0,-0.0007324219,0.002075195,0.0009765625,0,0,-0.0002441406,0.3105164,4.071,0,0,0,0.2999878,nan,2,0.026,1,128,0.3233032,0.2861023,0.3322754,0.3004456,0.0009765625,-0.001953125,0,1,2,0
1904.928,0.001015,-0.009765625,-0.005859375,-0.03320312,0.6015625,-3.882812,8.445312,0.0078125,-0.0078125,-0.01757812,0.00390625,-0.01367188,0,-0.0007324219,0.002441406,0.001098633,0,0,-0.0002441406,0.3105164,4.071,0,0,0,0.2999878,nan,2,0.036,1,128,0.2559814,0.3718872,0.2488403,0.365387,0.0009765625,-0.001953125,0,1,2,0
1904.939,0.001026,-0.03515625,-0.01367188,-0.02734375,0.5625,-1.507812,8.726562,-0.005859375,-0.015625,-0.03125,0.005859375,-0.01367188,0,-0.0008544922,0.002319336,0.0007324219,0,0,-0.0002441406,0.3105164,4.071,0,0,0,0.2999878,nan,2,0.001,1,128,0.2991943,0.3218384,0.2931213,0.3279419,0.0009765625,-0.001953125,0,1,2,0
1904.948,0.001012,-0.0078125,0.001953125,0.009765625,-2.34375,1.5,10.80469,0.001953125,0.01171875,0.0078125,0.00390625,-0.01367188,0,-0.0008544922,0.002319336,0.0006103516,0,0,-0.0002441406,0.3105164,4.071,0,0,0,0.2999878,nan,2,0.011,1,128,0.3380432,0.2740784,0.3432007,0.2868042,0.0009765625,-0.001953125,0,1,2,0
1904.959,0.001002,0.06054688,-0.046875,-0.015625,1.945312,3.101562,10.34375,-0.0078125,-0.01367188,0.005859375,0.005859375,-0.01367188,0,-0.0009765625,0.002319336,0.0008544922,0,0,-0.0002441406,0.3105164,4.071,0,0,0,0.2999878,nan,2,0.021,1,128,0.2971802,0.3246155,0.2980042,0.3223267,0.0009765625,-0.001953125,0,1,2,0
1904.969,0.001059,-0.03125,0.01171875,-0.015625,0.984375,-4.96875,9.679688,-0.01171875,0.009765625,0.009765625,0.005859375,-0.01367188,0,-0.0009765625,0.002319336,0.0008544922,0,0,-0.0002441406,0.3105164,4.071,0,0,0,0.2999878,nan,2,0.031,1,128,0.3060913,0.306427,0.3039856,0.3256226,0.0009765625,-0.001953125,0,1,2,0
1904.979,0.001036,0.03320312,0,-0.04492188,-1.601562,2.4375,9.84375,0.0078125,-0.009765625,-0.02148438,0.005859375,-0.01367188,0,-0.0009765625,0.002319336,0.0008544922,0,0,-0.0002441406,0.3105164,4.071,0,0,0,0.2999878,nan,2,0.002,1,128,0.2782593,0.3418274,0.2809143,0.3411255,0.0009765625,-0.001953125,0,1,2,0.03174603
1904.989,0.001067,-0.1757812,-0.03515625,0.0546875,-0.2421875,-0.8515625,7.84375,-0.02539062,-0.001953125,0.01171875,0.005859375,-0.01367188,0,-0.0009765625,0.002319336,0.0006103516,0,0,-0.0002441406,0.3105164,4.071,0,0,0,0.2999878,nan,2,0.012,1,128,0.3764343,0.2427673,0.3587341,0.2641602,0.0009765625,-0.001953125,0,1,2,0
1904.999,0.001012,0.03710938,-0.03320312,0.03320312,1.703125,0.8203125,8.054688,-0.015625,-0.0078125,0.03320312,0.01171875,-0.01367188,0,-0.001831055,0.002441406,0.0008544922,0,0,-0.0002441406,0.3105164,4.071,0,0,0,0.2999878,nan,2,0.022,1,128,0.3392944,0.2839355,0.350769,0.2680969,0.0009765625,-0.001953125,0,1,2,0
1905.008,0.001011,-0.009765625,-0.03515625,0.0625,-2.015625,0.7109375,10.66406,-0.009765625,0.001953125,0.04101562,0.01171875,-0.015625,0,-0.001953125,0.002441406,0.001098633,0,0,-0.0002441406,0.3105164,4.071,0,0,0,0.2999878,nan,2,0.031,1,128,0.3449707,0.2745667,0.3453064,0.2772522,0.001953125,-0.001953125,0,1,2,0
1905.018,0.001013,0.0078125,-0.01757812,0.03515625,0.7890625,-0.5234375,9.421875,0,-0.00390625,0.03515625,0.01171875,-0.015625,0,-0.001953125,0.002441406,0.001586914,0,0,-0.0002441406,0.3105164,4.071,0,0,0,0.2999878,nan,2,0.041,1,128,0.3148193,0.3034058,0.3144531,0.3094177,0.001953125,-0.001953125,0,1,2,0.06349207
1905.028,0.001013,-0.005859375,0.04492188,-0.009765625,-1.507812,1.226562,8.664062,0,0,0.005859375,0.01171875,-0.01367188,0,-0.001953125,0.002319336,0.001708984,0,0,-0.0002441406,0.3105164,4.071,0,0,0,0.2999878,nan,2,0.051,1,128,0.2799988,0.3323975,0.2850342,0.344635,0.001953125,-0.001953125,0,1,2,0
1905.038,0.000994,0.02929688,-0.046875,-0.015625,0.8203125,1.375,11.78125,0.00390625,0.001953125,-0.01171875,0.01171875,-0.015625,0,-0.002075195,0.002441406,0.001708984,0,0,-0.0002441406,0.3105164,4.071,0,0,0,0.2999878,nan,2,0.062,1,128,0.2879333,0.3308411,0.2917786,0.331543,0.001953125,-0.001953125,0,1,2,0
1905.049,0.000982,0.02148438,-0.02539062,-0.01757812,1.34375,-1.195312,7.75,0.009765625,-0.009765625,-0.01953125,0.01171875,-0.01367188,0,-0.001953125,0.002441406,0.001464844,0,0,-0.0002441406,0.3105164,4.071,0,0,0,0.2999878,nan,2,0.008,1,128,0.3025208,0.316803,0.3015137,0.3212585,0.001953125,-0.001953125,0,1,2,0
1905.059,0.000964,0.01171875,0.00390625,-0.0625,-0.8359375,-0.84375,9.03125,-0.01953125,0.009765625,-0.05078125,0.01171875,-0.015625,0,-0.001953125,0.002563477,0.001098633,0,0,-0.0002441406,0.3105164,4.071,0,0,0,0.2999878,nan,2,0.018,1,128,0.2668762,0.348999,0.2635498,0.3626709,0.001953125,-0.001953125,0,1,2,0
1905.069,0.00098,-0.07421875,-0.05273438,-0.07617188,-2.03125,2.601562,12.17969,0.00390625,-0.02539062,-0.05273438,0.01171875,-0.015625,0,-0.001953125,0.002563477,0.0007324219,0,0,-0.0002441406,0.3105164,4.071,0,0,0,0.2999878,nan,2,0.028,1,128,0.2823181,0.3462219,0.2682495,0.3453064,0.001953125,-0.001953125,0,1,2,0
1905.079,0.001067,-0.01953125,0.03125,-0.03515625,0.8359375,0.359375,10.33594,-0.01367188,0.03125,-0.04296875,0.01171875,-0.015625,0,-0.001953125,0.002441406,0.0001220703,0,0,-0.0002441406,0.3105164,4.071,0,0,0,0.2999878,nan,2,0.038,1,128,0.3075562,0.2929077,0.316803,0.3248291,0.001953125,-0.001953125,0,1,2,0
1905.088,0.001052,-0.0390625,0,0.01757812,1.492188,-3.460938,8.703125,-0.02734375,0.005859375,-0.001953125,0.01367188,-0.015625,0,-0.002197266,0.002685547,0,0,0,-0.0002441406,0.3105164,4.071,0,0,0,0.2999878,nan,2,0.001,1,128,0.3562927,0.2619324,0.3451233,0.2787476,0.001953125,-0.001953125,0,1,2,0.3015873
1905.098,0.001012,-0.00390625,0.009765625,0.03710938,-0.421875,2.117188,8.726562,-0.009765625,-0.00390625,0.03320312,0.01171875,-0.015625,0,-0.001953125,0.002563477,0.0001220703,0,0,-0.0002441406,0.3105164,4.071,0,0,0,0.2999878,nan,2,0.011,1,128,0.3575439,0.2585144,0.3431702,0.2828674,0.001953125,-0.001953125,0,1,2,0
1905.108,0.001014,0.0234375,0.0078125,-0.015625,-0.0859375,-2.296875,8.164062,0.01367188,-0.01171875,0.005859375,0.009765625,-0.015625,0,-0.001708984,0.002441406,0.0004882812,0,0,-0.0002441406,0.3105164,4.071,0,0,0,0.2999878,nan,2,0.021,1,128,0.2801819,0.3390503,0.2814636,0.3414307,0.001953125,-0.001953125,0,1,2,0
1905.118,0.00106,0,0.0078125,-0.02148438,0.7578125,-2.867188,8.335938,0.0078125,0.001953125,-0.01953125,0.009765625,-0.01367188,0,-0.001708984,0.002441406,0.0002441406,0,0,-0.0002441406,0.3105164,4.071,0,0,0,0.2999878,nan,2,0.031,1,128,0.2876892,0.3233032,0.2947693,0.3363342,0.001953125,-0.001953125,0,1,2,0
1905.128,0.000971,-0.08007812,0.02539062,0.09179688,-2,2.25,11.42969,-0.06445312,0.04101562,0.06054688,0.01171875,-0.015625,0,-0.001831055,0.002685547,0.0004882812,0,0,-0.0002441406,0.3105164,4.071,0,0,0,0.2999878,nan,2,0.041,1,128,0.4066772,0.1987305,0.3939514,0.2427673,0.001953125,-0.001953125,0,1,2,0
1905.138,0.000998,0.05859375,-0.03710938,0.04296875,1.5,-0.2265625,7.898438,0.015625,-0.0234375,0.0546875,0.01171875,-0.015625,0,-0.002075195,0.002685547,0.001220703,0,0,-0.0002441406,0.3105164,4.071,0,0,0,0.2999878,nan,2,0.052,1,128,0.3163147,0.3123779,0.3175049,0.2958984,0.001953125,-0.001953125,0,1,2,0
1905.148,0.001012,0.02734375,-0.01757812,-0.01757812,-1.796875,-0.703125,9.015625,-0.009765625,0.00390625,0,0.01171875,-0.015625,0,-0.001953125,0.002685547,0.001464844,0,0,-0.0002441406,0.3105164,4.071,0,0,0,0.2999878,nan,2,0.062,1,128,0.2590332,0.3548584,0.2584229,0.3697815,0.001953125,-0.001953125,0,1,2,0
1905.159,0.000984,0.07226562,-0.009765625,-0.0234375,-0.328125,1.851562,13.03125,0.02148438,-0.00390625,-0.01757812,0.01367188,-0.015625,0,-0.002197266,0.002685547,0.001342773,0,0,-0.0002441406,0.3105164,4.071,0,0,0,0.2999878,nan,2,0.072,1,128,0.2799988,0.3393555,0.2917786,0.3309937,0.001953125,-0.001953125,0,1,2,0
1905.169,0.001034,0.05859375,0.06445312,-0.06640625,1.96875,-1.554688,6.070312,0.03125,0.02539062,-0.02539062,0.01171875,-0.01757812,0,-0.001953125,0.002807617,0.001098633,0,0,-0.0002441406,0.3105164,4.071,0,0,0,0.2999878,nan,2,0.082,1,128,0.2731628,0.3310242,0.2945251,0.3434143,0.001953125,-0.001953125,0,1,2,0
1905.179,0.001021,0.1738281,-0.009765625,-0.0625,-0.1875,-0.4140625,7.890625,0.07617188,0.0234375,-0.046875,0.009765625,-0.01953125,0,-0.001708984,0.003173828,0.0007324219,0,0,-0.0002441406,0.3105164,4.071,0,0,0,0.2999878,nan,2,0.002,1,128,0.2568665,0.3604736,0.2867126,0.3380432,0.001953125,-0.001953125,0,1,2,0
1905.189,0.000999,-0.01757812,0.001953125,-0.04101562,-1.703125,2.265625,12.40625,0.03515625,-0.01953125,-0.04492188,0.0078125,-0.01757812,0,-0.001342773,0.002929688,0.0002441406,0,0,-0.0002441406,0.3105164,4.071,0,0,0,0.2999878,nan,2,0.012,1,128,0.3044434,0.3149109,0.3059387,0.316803,0.001953125,-0.001953125,0,1,2,0
1905.198,0.001004,-0.01171875,0.01171875,-0.03320312,1.578125,0.421875,6.945312,-0.05078125,0.02539062,-0.02734375,0.009765625,-0.01953125,0,-0.001464844,0.003173828,0,0,0,-0.0002441406,0.3105164,4.071,0,0,0,0.2999878,nan,2,0.021,1,128,0.3118591,0.2961121,0.3030396,0.3311157,0.001953125,-0.001953125,0,1,2,0
1905.208,0.001003,-0.06640625,-0.02929688,-0.02539062,0.0546875,-5.070312,10.51562,-0.01367188,-0.01757812,-0.015625,0.009765625,-0.01953125,0,-0.001464844,0.003173828,-0.0002441406,0,0,-0.0002441406,0.3105164,4.071,0,0,0,0.2999878,nan,2,0.031,1,128,0.3067322,0.3158875,0.2928772,0.3265991,0.001953125,-0.001953125,0,1,2,0
1905.218,0.001034,-0.06054688,-0.02734375,-0.06445312,-1.296875,5.6875,13.375,-0.03710938,-0.02929688,-0.02929688,0.009765625,-0.015625,0,-0.001586914,0.002685547,-0.0003662109,0,0,-0.0002441406,0.3105164,4.071,0,0,0,0.2999878,nan,2,0.002,1,128,0.282074,0.3345642,0.2667236,0.3587341,0.001953125,-0.001953125,0,1,2,0
1905.229,0.001064,0.01757812,-0.046875,-0.05273438,1.1875,-1.59375,10.38281,-0.001953125,-0.04492188,-0.04296875,0.009765625,-0.01367188,0,-0.001708984,0.002319336,-0.0007324219,0,0,-0.0002441406,0.3105164,4.071,0,0,0,0.2999878,nan,2,0.012,1,128,0.2828064,0.3412781,0.2761536,0.3418579,0.001953125,-0.001953125,0,1,2,0
1905.238,0.000991,-0.07421875,0.0390625,-0.005859375,0.4765625,-0.4921875,8.1875,-0.0234375,0.015625,-0.009765625,0.009765625,-0.01367188,0,-0.001708984,0.002197266,-0.001098633,0,0,-0.0002441406,0.3105164,4.071,0,0,0,0.2999878,nan,2,0.022,1,128,0.3496704,0.25177,0.3514404,0.2892456,0.001953125,-0.001953125,0,1,2,0
1905.249,0.001025,0.04296875,-0.02929688,0.02734375,-2.59375,0.75,11.04688,-0.009765625,0.01367188,0.02148438,0.01171875,-0.015625,0,-0.002075195,0.002441406,-0.0009765625,0,0,-0.0002441406,0.3105164,4.071,0,0,0,0.2999878,nan,2,0.032,1,128,0.3397217,0.2782288,0.3459473,0.2781982,0.001953125,-0.001953125,0,1,2,0
1905.259,0.000983,-0.03125,-0.00390625,-0.015625,0.015625,2.359375,9.671875,0,-0.001953125,-0.01367188,0.01171875,-0.01367188,0,-0.001953125,0.002441406,-0.0008544922,0,0,-0.0002441406,0.3105164,4.07,0,0,0,0.2999878,nan,2,0.043,1,128,0.2784729,0.3361511,0.2752686,0.3522339,0.001953125,-0.001953125,0,1,2,0.3650794
1905.268,0.001009,-0.109375,0.01171875,-0.02929688,0.890625,-4.171875,10.23438,-0.0546875,0.02929688,-0.01757812,0.01367188,-0.015625,0,-0.002197266,0.002685547,-0.001098633,0,0,-0.0002441406,0.3105164,4.07,0,0,0,0.2999878,nan,2,0.007,1,128,0.3005676,0.3095093,0.2880554,0.3439636,0.001953125,-0.001953125,0,1,2,0
1905.278,0.001008,0.01953125,-0.0546875,-0.005859375,-0.90625,5.070312,12.125,0.00390625,-0.03515625,0.00390625,0.01367188,-0.015625,0,-0.002441406,0.002685547,-0.001098633,0,0,-0.0002441406,0.3105164,4.07,0,0,0,0.2999878,nan,2,0.017,1,128,0.3240662,0.3054199,0.3166504,0.295929,0.001953125,-0.001953125,0,1,2,0
1905.289,0.001013,-0.09570312,0.0390625,0.0234375,-0.171875,-0.5390625,12.67188,-0.09179688,0.0546875,0.01757812,0.01757812,-0.015625,0,-0.002807617,0.002685547,-0.0008544922,0,0,-0.0002441406,0.3105164,4.07,0,0,0,0.2999878,nan,2,0.028,1,128,0.3207397,0.2723083,0.3132935,0.3357849,0.001953125,-0.001953125,0,1,2,0
1905.298,0.001012,0.1367188,-0.08984375,0.02539062,0.4609375,-0.453125,7.742188,0.03515625,-0.03125,0.03710938,0.01953125,-0.01757812,0,-0.003173828,0.002807617,-0.0006103516,0,0,-0.0002441406,0.3105164,4.07,0,0,0,0.2999878,nan,2,0.037,1,128,0.3224792,0.3123474,0.3343506,0.2729187,0.001953125,-0.001953125,0,1,2,0
1905.308,0.001013,-0.0234375,0.04296875,0.02539062,-1.984375,0.9375,13.125,0,0.01171875,0.02539062,0.01757812,-0.015625,0,-0.002807617,0.002563477,-0.0002441406,0,0,-0.0002441406,0.3105164,4.07,0,0,0,0.2999878,nan,2,0.047,1,128,0.311554,0.2897949,0.317688,0.3230591,0.001953125,-0.001953125,0,1,2,0
1905.318,0.00099,-0.02148438,-0.001953125,0.0078125,1.742188,1.351562,6.46875,-0.03125,0.01953125,0.02734375,0.01953125,-0.01757812,0,-0.003173828,0.002929688,0,0,0,-0.0002441406,0.3105164,4.07,0,0,0,0.2999878,nan,2,0.003,1,128,0.3137512,0.3031616,0.3083801,0.3168335,0.001953125,-0.001953125,0,1,2,0
1905.328,0.001009,0.009765625,-0.005859375,-0.04101562,0.09375,-4.25,9.429688,0.05664062,-0.0234375,-0.01757812,0.01757812,-0.015625,0,-0.002929688,0.002807617,0.0001220703,0,0,-0.0002441406,0.3105164,4.07,0,0,0,0.2999878,nan,2,0.013,1,128,0.2536926,0.3652344,0.2680054,0.3551941,0.001953125,-0.001953125,0,1,2,0
1905.338,0.001027,-0.009765625,0.07421875,0.01367188,-1.507812,3.382812,12.55469,-0.0546875,0.04882812,-0.01171875,0.01953125,-0.01757812,0,-0.003051758,0.003051758,-0.0001220703,0,0,-0.0002441406,0.3105164,4.07,0,0,0,0.2999878,nan,2,0.023,1,128,0.322937,0.2761841,0.3199158,0.3230896,0.001953125,-0.001953125,0,1,2,0
1905.348,0.001012,0.1386719,-0.06054688,0.01757812,0.8828125,-3.054688,9.820312,0.05859375,-0.03320312,0.015625,0.01953125,-0.01757812,0,-0.003173828,0.003051758,0,0,0,-0.0002441406,0.3105164,4.07,0,0,0,0.2999878,nan,2,0.033,1,128,0.3155823,0.3152161,0.3302307,0.2810364,0.001953125,-0.001953125,0,1,2,0
1905.358,0.001012,-0.06445312,0.078125,0.04492188,1.132812,0.6015625,8.898438,-0.005859375,0.00390625,0.0390625,0.015625,-0.015625,0,-0.002685547,0.002563477,0.0002441406,0,0,-0.0002441406,0.3105164,4.07,0,0,0,0.2999878,nan,2,0.043,1,128,0.3382874,0.258728,0.3395996,0.3054504,0.001953125,-0.001953125,0,1,2,0
1905.369,0.001033,0.03515625,0.015625,0.07617188,-1.242188,0.6171875,11.5625,-0.015625,0.03125,0.0703125,0.01953125,-0.01757812,0,-0.003173828,0.003051758,0.0008544922,0,0,-0.0002441406,0.3105164,4.07,0,0,0,0.2999878,nan,2,0.054,1,128,0.3663635,0.2479858,0.3759766,0.2518005,0.001953125,-0.001953125,0,1,2,0
1905.379,0.00104,0.1054688,-0.03710938,0.04492188,1.367188,-0.625,8.242188,0.07226562,-0.0703125,0.0625,0.01757812,-0.015625,0,-0.002807617,0.002685547,0.001586914,0,0,-0.0002441406,0.3105164,4.07,0,0,0,0.2999878,nan,2,0.002,1,128,0.312439,0.3231812,0.3161011,0.2903748,0.001953125,-0.001953125,0,1,2,0
1905.389,0.001012,-0.05859375,0.08007812,0.01953125,-0.8828125,0.4765625,7.867188,-0.04101562,0.05664062,0.04296875,0.01757812,-0.01757812,0,-0.002807617,0.002929688,0.002075195,0,0,-0.0002441406,0.3105164,4.07,0,0,0,0.2999878,nan,2,0.012,1,128,0.3019409,0.2924194,0.3036804,0.3440552,0.001953125,-0.001953125,0,1,2,0
1905.399,0.001012,0.02734375,-0.04882812,-0.01171875,0.171875,1.242188,12.51562,0.03710938,-0.02929688,0.00390625,0.01757812,-0.01757812,0,-0.002929688,0.003051758,0.002197266,0,0,-0.0002441406,0.3105164,4.07,0,0,0,0.2999878,nan,2,0.022,1,128,0.2783203,0.3527527,0.2789001,0.3321228,0.001953125,-0.001953125,0,1,2,0
1905.408,0.001005,-0.1367188,0.2617188,0.0546875,1.632812,-4.632812,10.96875,-0.01171875,0.0859375,-0.01171875,0.015625,-0.01757812,0,-0.002685547,0.002929688,0.002075195,0,0,-0.0002441406,0.3105164,4.07,0,0,0,0.2999878,nan,2,0.031,1,128,0.3076782,0.259552,0.3385315,0.3363342,0.001953125,-0.001953125,0,1,2,0
1905.418,0.001002,-0.01171875,-0.05859375,-0.02539062,-0.875,-0.328125,7.617188,-0.03320312,0.04101562,-0.03515625,0.01757812,-0.02539062,0,-0.003051758,0.00402832,0.001831055,0,0,-0.0002441406,0.3105164,4.07,0,0,0,0.2999878,nan,2,0.041,1,128,0.2946472,0.3337097,0.2770386,0.3367004,0.001953125,-0.002929688,0,1,2,0
1905.428,0.000997,0.01757812,-0.08789062,0.04882812,-1.28125,3.257812,13.35938,0.04296875,-0.05664062,0.03125,0.01757812,-0.0234375,0,-0.002807617,0.00390625,0.001831055,0,0,-0.0002441406,0.3105164,4.07,0,0,0,0.2999878,nan,2,0.051,1,128,0.3742981,0.2633362,0.3630676,0.241394,0.001953125,-0.002929688,0,1,2,0
1905.438,0.000996,0.01757812,0.0625,0.1054688,1.53125,-2.117188,7.789062,-0.001953125,0.046875,0.05664062,0.01757812,-0.0234375,0,-0.002807617,0.00390625,0.002197266,0,0,-0.0002441406,0.3105164,4.07,0,0,0,0.2999878,nan,2,0.062,1,128,0.3713684,0.2226257,0.3894043,0.2586975,0.001953125,-0.002929688,0,1,2,0
1905.448,0.001047,0.07421875,-0.1484375,0.1191406,-0.578125,0.1484375,8.007812,0.015625,-0.07617188,0.1015625,0.01757812,-0.0234375,0,-0.002929688,0.00402832,0.003051758,0,0,-0.0002441406,0.3105164,4.07,0,0,0,0.2999878,nan,2,0.072,1,128,0.3968506,0.2537231,0.3729248,0.2185974,0.001953125,-0.002929688,0,1,2,0
1905.459,0.000995,-0.03710938,0.01367188,0.06835938,0.296875,-0.65625,10.86719,0.03710938,-0.03125,0.0859375,0.01367188,-0.01953125,0,-0.002319336,0.003173828,0.00402832,0,0,-0.0002441406,0.3105164,4.07,0,0,0,0.2999878,nan,2,0.082,1,128,0.3127747,0.2937012,0.3202515,0.3153687,0.001953125,-0.002929688,0,1,2,0
1905.469,0.001031,0.009765625,0.015625,-0.015625,0.53125,-0.6484375,7.664062,-0.015625,0.02734375,0.0234375,0.015625,-0.01953125,0,-0.002441406,0.003295898,0.004638672,0,0,-0.0002441406,0.3105164,4.07,0,0,0,0.2999878,nan,2,0.092,1,128,0.2521973,0.3503113,0.2590942,0.3805237,0.001953125,-0.002929688,0,1,2,0
1905.479,0.001003,0.08398438,0.02734375,0.00390625,-1.039062,4.054688,13.23438,0.07421875,-0.046875,0.005859375,0.01367188,-0.01757812,0,-0.002197266,0.002929688,0.004638672,0,0,-0.0002441406,0.3105164,4.07,0,0,0,0.2999878,nan,2,0.102,1,128,0.2860718,0.3349915,0.3059998,0.3150635,0.001953125,-0.002929688,0,1,2,0
1905.488,0.000976,-0.05664062,-0.0546875,-0.03710938,0.75,-1.882812,9.304688,0.0234375,-0.02734375,-0.05078125,0.01171875,-0.015625,0,-0.001953125,0.002563477,0.004394531,0,0,-0.0002441406,0.3105164,4.07,0,0,0,0.2999878,nan,2,0.111,1,128,0.2622986,0.3526306,0.2590942,0.3680725,0.001953125,-0.002929688,0,1,2,0.3650794
1905.498,0.001045,-0.02929688,-0.07617188,-0.03515625,1.140625,-3.507812,9.671875,0.009765625,-0.03515625,-0.04101562,0.01171875,-0.01367188,0,-0.001831055,0.002197266,0.00402832,0,0,-0.0002441406,0.3105164,4.07,0,0,0,0.2999878,nan,2,0.121,1,128,0.2889404,0.3340454,0.2785034,0.3406067,0.001953125,-0.002929688,0,1,2,0
1905.508,0.00102,-0.05664062,-0.015625,-0.04296875,-0.6875,0.25,10.10156,-0.01757812,0.01367188,-0.02734375,0.01171875,-0.01367188,0,-0.001953125,0.002319336,0.00378418,0,0,-0.0002441406,0.3105164,4.07,0,0,0,0.2999878,nan,2,0.131,1,128,0.2908325,0.3217468,0.2849731,0.3445435,0.001953125,-0.002929688,0,1,2,0
1905.518,0.001061,0.02539062,0.01953125,0.005859375,-1.507812,3.507812,12.98438,-0.01757812,0.03125,-0.001953125,0.01367188,-0.01757812,0,-0.002319336,0.002807617,0.003662109,0,0,-0.0002441406,0.3105164,4.07,0,0,0,0.2999878,nan,2,0.141,1,128,0.3320923,0.2814636,0.3387451,0.2898254,0.001953125,-0.002929688,0,1,2,0
1905.528,0.001025,0.01367188,-0.0546875,-0.001953125,1.59375,0.1484375,9.820312,0.03710938,-0.05664062,-0.00390625,0.01367188,-0.01757812,0,-0.002075195,0.002563477,0.003662109,0,0,-0.0002441406,0,4.07,0,0,0,0,nan,2,0.005,1,128,0.1000061,0.1000061,0.1000061,0.1000061,0,0,0,1,2,0.5396826
1905.538,0.001004,-0.1503906,0.140625,0.01171875,1.21875,-2.96875,7.492188,-0.1015625,0.0859375,-0.001953125,0.01367188,-0.01757812,0,-0.002685547,0.002807617,0.003540039,0,0,-0.0002441406,0,4.07,0,0,0,0,nan,2,0.015,1,128,0.1000061,0.1000061,0.1000061,0.1000061,0,0,0,1,2,0
1905.548,0.001038,0.1113281,-0.08398438,0.05273438,1.757812,0.8984375,11.89844,0.0078125,-0.04296875,0.01171875,0.01367188,-0.01757812,0,-0.003173828,0.003051758,0.003540039,0,0,-0.0002441406,0,4.07,0,0,0,0,nan,2,0.025,1,128,0.1000061,0.1000061,0.1000061,0.1000061,0,0,0,1,2,0
1905.558,0.001068,-0.05859375,0.07617188,0.02539062,-1.945312,2.992188,14.375,-0.02148438,0.02734375,0.04492188,0.01367188,-0.01757812,0,-0.003051758,0.002929688,0.00390625,0,0,-0.0002441406,0,4.07,0,0,0,0,nan,2,0.035,1,128,0.1000061,0.1000061,0.1000061,0.1000061,0,0,0,1,2,0
1905.569,0.001037,0.0078125,0.00390625,0.09179688,2.414062,-3.71875,8.46875,0.01757812,-0.01367188,0.08007812,0.01367188,-0.01757812,0,-0.003051758,0.003173828,0.004516602,0,0,-0.0002441406,0,4.07,0,0,0,0,nan,2,0.002,1,128,0.1000061,0.1000061,0.1000061,0.1000061,0,0,0,1,2,0.1587302
1905.579,0.00101,0.046875,0.0390625,0.02539062,-0.3515625,-7.546875,8.804688,0.02929688,-0.00390625,0.0546875,0.01367188,-0.01757812,0,-0.002807617,0.003051758,0.005249023,0,0,-0.0002441406,0,4.07,0,0,0,0,nan,2,0.012,1,128,0.1000061,0.1000061,0.1000061,0.1000061,0,0,0,1,2,0
1905.589,0.001021,0.0390625,-0.02148438,-0.01757812,-0.75,-1.335938,5.171875,0.00390625,-0.001953125,-0.015625,0.01367188,-0.01757812,0,-0.002807617,0.003173828,0.005371094,0,0,-0.0002441406,0,4.07,0,0,0,0,nan,2,0.022,1,128,0.1000061,0.1000061,0.1000061,0.1000061,0,0,0,1,2,0
1905.599,0.00101,-0.00390625,0.078125,-0.09570312,1.21875,-8.46875,11.35156,-0.00390625,0.02148438,-0.0546875,0.01367188,-0.01757812,0,-0.002685547,0.003051758,0.005126953,0,0,-0.0002441406,0,4.07,0,0,0,0,nan,2,0.032,1,128,0.1000061,0.1000061,0.1000061,0.1000061,0,0,0,1,2,0
1905.608,0.001047,0.08007812,-0.046875,-0.140625,-1.882812,0.8515625,5.25,-0.0078125,0.015625,-0.1347656,0.01367188,-0.01757812,0,-0.002929688,0.003173828,0.004150391,0,0,-0.0002441406,0,4.07,0,0,0,0,nan,2,0.041,1,128,0.1000061,0.1000061,0.1000061,0.1000061,0,0,0,1,2,0
1905.618,0.000991,-0.07617188,0.07421875,-0.109375,1.945312,-5.8125,4.140625,-0.015625,0.01757812,-0.1269531,0.01367188,-0.01757812,0,-0.002929688,0.003295898,0.002807617,0,0,-0.0002441406,0,4.07,0,0,0,0,nan,2,0.004,1,128,0.1000061,0.1000061,0.1000061,0.1000061,0,0,0,1,2,0
1905.628,0.001028,0.06835938,-0.04101562,-0.03515625,3.765625,-1.023438,11.54688,0.04492188,-0.04492188,-0.0703125,0.01367188,-0.01757812,0,-0.002807617,0.003051758,0.001708984,0,0,-0.0002441406,0,4.07,0,0,0,0,nan,2,0.014,1,128,0.1000061,0.1000061,0.1000061,0.1000061,0,0,0,1,2,0
1905.638,0.001067,-0.005859375,0.00390625,-0.0859375,0.2265625,-1.8125,16.79688,-0.0078125,0.005859375,-0.06640625,0.01367188,-0.01757812,0,-0.002685547,0.002929688,0.001098633,0,0,-0.0002441406,0,4.07,0,0,0,0,nan,2,0.024,1,128,0.1000061,0.1000061,0.1000061,0.1000061,0,0,0,1,2,0
1905.648,0.00101,0.015625,-0.0078125,-0.1269531,1.210938,-5.351562,8.695312,-0.04101562,0.01171875,-0.1132812,0.01367188,-0.01757812,0,-0.002807617,0.002929688,0.0002441406,0,0,-0.0002441406,0,4.07,0,0,0,0,nan,2,0.034,1,128,0.1000061,0.1000061,0.1000061,0.1000061,0,0,0,1,2,0.03174603
1905.658,0.000958,0.01757812,0.01171875,-0.06835938,1.609375,-2.796875,13.10938,0.0078125,-0.00390625,-0.08789062,0.01367188,-0.01757812,0,-0.003051758,0.003051758,-0.0008544922,0,0,-0.0002441406,0,4.07,0,0,0,0,nan,2,0.044,1,128,0.1000061,0.1000061,0.1000061,0.1000061,0,0,0,1,2,0
1905.669,0.001033,-0.02929688,-0.001953125,-0.04492188,3.078125,4.171875,8.695312,-0.015625,-0.009765625,-0.046875,0.01367188,-0.01757812,0,-0.003051758,0.002929688,-0.001464844,0,0,-0.0002441406,0,4.07,0,0,0,0,nan,2,0.006,1,128,0.1000061,0.1000061,0.1000061,0.1000061,0,0,0,1,2,0.2539683
1905.679,0.001009,0.1269531,-0.04101562,-0.03320312,0.234375,-0.1328125,4.289062,0.06054688,-0.009765625,-0.03710938,0.01367188,-0.01757812,0,-0.002685547,0.002929688,-0.001953125,0,0,-0.0002441406,0,4.07,0,0,0,0,nan,2,0.016,1,128,0.1000061,0.1000061,0.1000061,0.1000061,0,0,0,1,2,0
1905.689,0.0009860001,-0.02148438,-0.0234375,-0.0546875,1.671875,-5.007812,5.515625,0.0078125,-0.02148438,-0.046875,0.01367188,-0.01757812,0,-0.002197266,0.002685547,-0.002319336,0,0,-0.0002441406,0,4.07,0,0,0,0,nan,2,0.026,1,128,0.1000061,0.1000061,0.1000061,0.1000061,0,0,0,1,2,0
1905.699,0.001034,0.001953125,0.06640625,-0.1191406,0.6328125,-0.890625,4.570312,-0.009765625,0.0234375,-0.1035156,0.01367188,-0.01757812,0,-0.002197266,0.002563477,-0.003173828,0,0,-0.0002441406,0,4.07,0,0,0,0,nan,2,0.036,1,128,0.1000061,0.1000061,0.1000061,0.1000061,0,0,0,1,2,0
1905.709,0.00098,0,-0.046875,-0.0859375,-0.21875,-6.03125,9.625,-0.01953125,-0.01757812,-0.08203125,0.01367188,-0.01757812,0,-0.002319336,0.002563477,-0.00402832,0,0,-0.0002441406,0,4.07,0,0,0,0,nan,2,0.046,1,128,0.1000061,0.1000061,0.1000061,0.1000061,0,0,0,1,2,0
1905.718,0.00098,-0.08398438,0.06054688,-0.1542969,1.515625,5.460938,10.46875,-0.05664062,0.02734375,-0.1464844,0.01367188,-0.01757812,0,-0.002685547,0.002685547,-0.005126953,0,0,-0.0002441406,0,4.07,0,0,0,0,nan,2,0.056,1,128,0.1000061,0.1000061,0.1000061,0.1000061,0,0,0,1,2,0
1905.728,0.001036,0.001953125,-0.0390625,-0.05273438,-1.757812,3.484375,16.66406,0.009765625,-0.01367188,-0.09570312,0.01367188,-0.01757812,0,-0.002807617,0.002929688,-0.006469727,0,0,-0.0002441406,0,4.07,0,0,0,0,nan,2,0.066,1,128,0.1000061,0.1000061,0.1000061,0.1000061,0,0,0,1,2,0
1905.738,0.000982,-0.078125,0.05664062,-0.09960938,0.84375,4.71875,12.6875,-0.02929688,0.0234375,-0.08203125,0.01367188,-0.01757812,0,-0.002807617,0.002807617,-0.007324219,0,0,-0.0002441406,0,4.07,0,0,0,0,nan,2,0.003,1,128,0.1000061,0.1000061,0.1000061,0.1000061,0,0,0,1,2,0
1905.748,0.0009860001,0.1464844,-0.07617188,-0.08203125,-0.6484375,5.507812,12.89062,0.06054688,-0.02148438,-0.09570312,0.01367188,-0.01757812,0,-0.002807617,0.002929688,-0.008300781,0,0,-0.0002441406,0,4.07,0,0,0,0,nan,2,0.013,1,128,0.1000061,0.1000061,0.1000061,0.1000061,0,0,0,1,2,0
1905.758,0.001009,-0.01367188,0.01953125,0.01171875,-0.890625,1.046875,15.35156,0.01953125,-0.02148438,-0.0234375,0.01367188,-0.01757812,0,-0.002319336,0.002563477,-0.008911133,0,0,-0.008911133,0,4.07,0,0,0,0,nan,2,0.023,0,0,0,0,0,0,0,0,0,1,2,0
1905.768,0.001009,-0.046875,0.04882812,0,0.8671875,-4.773438,10.67969,-0.01953125,0.03125,-0.00390625,0.01367188,-0.01757812,0,-0.002441406,0.002685547,-0.008911133,0,0,-0.008911133,0,4.07,0,0,0,0,nan,2,0.033,0,0,0,0,0,0,0,0,0,1,2,0
1905.779,0.001015,-0.001953125,-0.03320312,-0.03125,-0.3046875,1.609375,9.671875,0.01367188,-0.02148438,-0.02734375,0.01367188,-0.01757812,0,-0.002319336,0.002685547,-0.009155273,0,0,-0.009155273,0,4.07,0,0,0,0,nan,2,0.043,0,0,0,0,0,0,0,0,0,1,2,1
1905.789,0.001009,-0.01953125,0.046875,-0.0078125,-0.8671875,1.1875,9.632812,-0.01367188,0.01757812,-0.01171875,0.01367188,-0.01757812,0,-0.002441406,0.002563477,-0.009277344,0,0,-0.009277344,0,4.07,0,0,0,0,nan,2,0.053,0,0,0,0,0,0,0,0,0,1,2,1
1905.799,0.00101,-0.02539062,0.005859375,-0.00390625,0.1796875,-2.695312,3.632812,-0.0234375,0.01757812,0.001953125,0.01367188,-0.01757812,0,-0.002563477,0.002685547,-0.009277344,0,0,-0.009277344,0,4.07,0,0,0,0,nan,2,0.064,0,0,0,0,0,0,0,0,0,1,2,0
1905.809,0.001008,0.001953125,-0.005859375,-0.0390625,-0.2890625,-1.203125,8.960938,0.01171875,-0.0234375,-0.02148438,0.01367188,-0.01757812,0,-0.002563477,0.002563477,-0.009399414,0,0,-0.009399414,0,4.07,0,0,0,0,nan,2,0.074,0,0,0,0,0,0,0,0,0,1,2,1
1905.818,0.001008,-0.04492188,0.009765625,-0.05078125,0.3125,-1.101562,9.132812,-0.01367188,0.00390625,-0.04492188,0.01367188,-0.01757812,0,-0.002563477,0.002563477,-0.009765625,0,0,-0.009765625,0,4.07,0,0,0,0,nan,2,0.083,0,0,0,0,0,0,0,0,0,1,2,1
1905.828,0.001016,-0.001953125,-0.02929688,-0.03125,0.7265625,-0.7890625,3.867188,0,0.001953125,-0.04101562,0.01367188,-0.01757812,0,-0.002563477,0.002685547,-0.01013184,0,0,-0.01013184,0,4.07,0,0,0,0,nan,2,0.093,0,0,0,0,0,0,0,0,0,1,2,0
1905.838,0.001012,-0.01757812,-0.01171875,-0.02148438,-0.84375,0.2421875,9.84375,-0.01367188,-0.00390625,-0.02734375,0.01367188,-0.01757812,0,-0.002563477,0.002685547,-0.01049805,0,0,-0.01049805,0,4.07,0,0,0,0,nan,2,0.103,0,0,0,0,0,0,0,0,0,1,2,1
1905.848,0.001042,-0.04492188,-0.02148438,-0.03320312,-1,0.9921875,11.98438,0.0078125,-0.02148438,-0.03320312,0.01367188,-0.01757812,0,-0.002441406,0.002441406,-0.01086426,0,0,-0.01086426,0,4.07,0,0,0,0,nan,2,0.113,0,0,0,0,0,0,0,0,0,1,2,0
1905.858,0.001011,-0.01757812,0.02734375,-0.01757812,0.71875,-1.125,6.585938,-0.0078125,0.01367188,-0.0234375,0.01367188,-0.01757812,0,-0.002441406,0.002563477,-0.0111084,0,0,-0.0111084,0,4.07,0,0,0,0,nan,2,0.123,0,0,0,0,0,0,0,0,0,1,2,0
1905.868,0.001014,-0.03125,-0.005859375,-0.015625,0.078125,0.2890625,9.984375,-0.01171875,0.01367188,-0.009765625,0.01367188,-0.01757812,0,-0.002563477,0.002563477,-0.01123047,0,0,-0.01123047,0,4.07,0,0,0,0,nan,2,0.133,0,0,0,0,0,0,0,0,0,1,2,1
1905.879,0.001011,0.02148438,-0.02929688,0.03320312,-0.328125,0.4140625,11.27344,0.0078125,0,0.02539062,0.01367188,-0.01757812,0,-0.002685547,0.002685547,-0.0111084,0,0,-0.0111084,0,4.07,0,0,0,0,nan,2,0.143,0,0,0,0,0,0,0,0,0,1,2,0
1905.889,0.001013,-0.0234375,0.05273438,-0.04296875,0.0390625,0.609375,9.289062,-0.001953125,0.01367188,0.001953125,0.01367188,-0.01757812,0,-0.002563477,0.002685547,-0.01086426,0,0,-0.01086426,0,4.07,0,0,0,0,nan,2,0.153,0,0,0,0,0,0,0,0,0,1,2,1
1905.899,0.001011,0.009765625,0.0078125,-0.04492188,0.0859375,0.015625,12.32031,0.005859375,-0.009765625,-0.04492188,0.01367188,-0.01757812,0,-0.002563477,0.002685547,-0.01123047,0,0,-0.01123047,0,4.07,0,0,0,0,nan,2,0.164,0,0,0,0,0,0,0,0,0,1,2,0
1905.909,0.001013,-0.01953125,-0.01953125,0.01171875,0.3203125,0.0390625,4.8125,0,0,-0.001953125,0.01367188,-0.01757812,0,-0.002563477,0.002685547,-0.01147461,0,0,-0.01147461,0,4.077,0,0,0,0,nan,2,0.174,0,0,0,0,0,0,0,0,0,1,2,0
1905.918,0.001019,-0.01953125,-0.02539062,-0.01367188,-0.4453125,0.953125,4.078125,-0.01171875,0.001953125,0.001953125,0.01367188,-0.01757812,0,-0.002563477,0.002685547,-0.01135254,0,0,-0.01135254,0,4.077,0,0,0,0,nan,2,0.183,0,0,0,0,0,0,0,0,0,1,2,0
1905.928,0.001012,-0.009765625,0.02929688,-0.01757812,0.046875,1.96875,11.19531,-0.005859375,0.009765625,-0.01367188,0.01367188,-0.01757812,0,-0.002563477,0.002807617,-0.01147461,0,0,-0.01147461,0,4.077,0,0,0,0,nan,2,0.193,0,0,0,0,0,0,0,0,0,1,2,0
1905.938,0.000984,0.005859375,-0.03125,-0.0078125,0.7109375,-0.3203125,6.203125,0.0078125,-0.01367188,-0.01171875,0.01367188,-0.01757812,0,-0.002563477,0.002807617,-0.01159668,0,0,-0.01159668,0,4.077,0,0,0,0,nan,2,0.203,0,0,0,0,0,0,0,0,0,1,2,0
1905.948,0.001,-0.03320312,0.009765625,-0.015625,0.25,0.484375,4.390625,-0.01367188,0,-0.015625,0.01367188,-0.01757812,0,-0.002563477,0.002685547,-0.01171875,0,0,-0.01171875,0,4.077,0,0,0,0,nan,2,0.213,0,0,0,0,0,0,0,0,0,1,2,0
1905.958,0.001013,0,-0.00390625,-0.015625,-0.7109375,1.90625,2.96875,0,0.0078125,-0.015625,0.01367188,-0.01757812,0,-0.002563477,0.002685547,-0.01196289,0,0,-0.01196289,0,4.077,0,0,0,0,nan,2,0.223,0,0,0,0,0,0,0,0,0,1,2,0
1905.968,0.001013,-0.01171875,-0.0078125,0.0078125,-0.9609375,-1.875,8.796875,0.01367188,-0.001953125,-0.001953125,0.01367188,-0.01757812,0,-0.002441406,0.002685547,-0.01196289,0,0,-0.01196289,0,4.077,0,0,0,0,nan,2,0.233,0,0,0,0,0,0,0,0,0,1,2,1
1905.979,0.001013,0.046875,-0.0078125,0.00390625,2.359375,3.804688,14.42188,0.001953125,0,0.00390625,0.01367188,-0.01757812,0,-0.002441406,0.002807617,-0.01196289,0,0,-0.01196289,0,4.077,0,0,0,0,nan,2,0.243,0,0,0,0,0,0,0,0,0,1,2,0
1905.989,0.001013,-0.02734375,0,0,-2.171875,-3.523438,8.335938,0.001953125,-0.01171875,0.0078125,0.01367188,-0.01757812,0,-0.002563477,0.002685547,-0.01184082,0,0,-0.01184082,0,4.077,0,0,0,0,nan,2,0.253,0,0,0,0,0,0,0,0,0,1,2,1
1905.999,0.001013,-0.02539062,-0.01171875,0,3.578125,-0.375,10.40625,-0.0078125,-0.005859375,-0.009765625,0.01367188,-0.01757812,0,-0.002685547,0.002563477,-0.01196289,0,0,-0.01196289,0,4.077,0,0,0,0,nan,2,0.264,0,0,0,0,0,0,0,0,0,1,2,0
1906.009,0.001007,0.02539062,-0.01367188,0.009765625,0.515625,0.84375,10.46094,0,-0.0078125,-0.00390625,0.01367188,-0.01757812,0,-0.002807617,0.002563477,-0.01196289,0,0,-0.01196289,0,4.077,0,0,0,0,nan,2,0.274,0,0,0,0,0,0,0,0,0,1,2,1
1906.019,0.001012,0.001953125,0.01953125,0.02539062,-3.226562,-2.078125,9.382812,-0.0078125,0.005859375,0.009765625,0.01367188,-0.01757812,0,-0.002929688,0.002685547,-0.01196289,0,0,-0.01196289,0,4.077,0,0,0,0,nan,2,0.284,0,0,0,0,0,0,0,0,0,1,2,1
1906.028,0.001002,0.046875,0.009765625,-0.02148438,1.726562,2.585938,10.91406,0.009765625,0.00390625,-0.00390625,0.01367188,-0.01757812,0,-0.002929688,0.002685547,-0.01196289,0,0,-0.01196289,0,4.077,0,0,0,0,nan,2,0.293,0,0,0,0,0,0,0,0,0,1,2,0
1906.038,0.001013,0.0234375,-0.005859375,-0.02929688,1.234375,2.507812,9.90625,0.005859375,-0.005859375,-0.009765625,0.01367188,-0.01757812,0,-0.002929688,0.002685547,-0.01196289,0,0,-0.01196289,0,4.077,0,0,0,0,nan,2,0.303,0,0,0,0,0,0,0,0,0,1,2,1
1906.048,0.000956,0.04101562,-0.009765625,0,1.4375,4.273438,8.859375,0.00390625,-0.001953125,0,0.01367188,-0.01757812,0,-0.002807617,0.002685547,-0.01196289,0,0,-0.01196289,0,4.077,0,0,0,0,nan,2,0.313,0,0,0,0,0,0,0,0,0,1,2,1
1906.058,0.001007,-0.03710938,0.02929688,-0.0078125,-3.054688,-1.398438,10.29688,-0.009765625,0.0078125,-0.001953125,0.01367188,-0.01757812,0,-0.002807617,0.002563477,-0.01196289,0,0,-0.01196289,0,4.077,0,0,0,0,nan,2,0.323,0,0,0,0,0,0,0,0,0,1,2,0
1906.068,0.000962,0.05859375,0.015625,-0.01367188,1.460938,2.273438,10.08594,0.01367188,0.005859375,-0.001953125,0.01367188,-0.01757812,0,-0.002807617,0.002563477,-0.01196289,0,0,-0.01196289,0,4.077,0,0,0,0,nan,2,0.333,0,0,0,0,0,0,0,0,0,1,2,1
1906.078,0.000953,-0.07421875,-0.005859375,0.01953125,0.6640625,-2.796875,10.25781,-0.01171875,-0.001953125,0.00390625,0.01367188,-0.01757812,0,-0.002807617,0.002685547,-0.01196289,0,0,-0.01196289,0,4.077,0,0,0,0,nan,2,0.343,0,0,0,0,0,0,0,0,0,1,2,1
1906.089,0.000993,0.05859375,0.03320312,-0.02539062,-0.6875,2.015625,9.875,0.0078125,0.01367188,0,0.01367188,-0.01757812,0,-0.002685547,0.002685547,-0.01196289,0,0,-0.01196289,0,4.077,0,0,0,0,nan,2,0.354,0,0,0,0,0,0,0,0,0,1,2,1
1906.099,0.001007,-0.009765625,0.0546875,0.0234375,-0.796875,-1.359375,10.40625,-0.009765625,0.005859375,-0.001953125,0.01367188,-0.01757812,0,-0.002807617,0.002807617,-0.01196289,0,0,-0.01196289,0,4.077,0,0,0,0,nan,2,0.364,0,0,0,0,0,0,0,0,0,1,2,1
1906.109,0.001001,0.04882812,0.07617188,0.01171875,-2.289062,0.7109375,10.32812,0.005859375,0.01367188,0.001953125,0.01367188,-0.01757812,0,-0.002807617,0.002807617,-0.01196289,0,0,-0.01196289,0,4.077,0,0,0,0,nan,2,0.374,0,0,0,0,0,0,0,0,0,1,2,1
1906.118,0.001003,0.03515625,0.08007812,0.01171875,-3.164062,0.421875,10.90625,0.0078125,0.01953125,0,0.01367188,-0.01757812,0,-0.002685547,0.002807617,-0.01196289,0,0,-0.01196289,0,4.077,0,0,0,0,nan,2,0.383,0,0,0,0,0,0,0,0,0,1,2,0
1906.128,0.000996,-0.08007812,-0.01757812,0.01953125,-1.28125,-0.765625,9.804688,-0.005859375,0.005859375,0.001953125,0.01367188,-0.01757812,0,-0.002685547,0.002685547,-0.01196289,0,0,-0.01196289,0,4.077,0,0,0,0,nan,2,0.393,0,0,0,0,0,0,0,0,0,1,2,1
1906.138,0.001054,-0.1054688,-0.03515625,0.03320312,-0.203125,-0.6796875,10.66406,-0.01757812,-0.0078125,0.00390625,0.01367188,-0.01757812,0,-0.002685547,0.002685547,-0.01196289,0,0,-0.01196289,0,4.077,0,0,0,0,nan,2,0.403,0,0,0,0,0,0,0,0,0,1,2,1
1906.148,0.001008,-0.06445312,0.01757812,0.001953125,-0.484375,-0.1328125,10.58594,-0.00390625,-0.005859375,-0.001953125,0.01367188,-0.01757812,0,-0.002685547,0.002685547,-0.01196289,0,0,-0.01196289,0,4.077,0,0,0,0,nan,2,0.413,0,0,0,0,0,0,0,0,0,1,2,1
1906.158,0.001001,-0.0078125,0.005859375,-0.02539062,0.625,0.6484375,8.890625,0.0078125,-0.01367188,-0.00390625,0.01367188,-0.01757812,0,-0.002685547,0.002685547,-0.01196289,0,0,-0.01196289,0,4.077,0,0,0,0,nan,2,0.423,0,0,0,0,0,0,0,0,0,1,2,1
1906.168,0.001014,0.05078125,-0.08398438,-0.00390625,0.21875,-0.015625,8.109375,0.005859375,-0.01171875,0.001953125,0.01367188,-0.01757812,0,-0.002685547,0.002685547,-0.01196289,0,0,-0.01196289,0,4.077,0,0,0,0,nan,2,0.433,0,0,0,0,0,0,0,0,0,1,2,0
1906.179,0.001023,-0.01367188,0.01953125,0.01953125,-0.0234375,-0.140625,10.8125,-0.0078125,0.01171875,0.001953125,0.01367188,-0.01757812,0,-0.002685547,0.002563477,-0.01196289,0,0,-0.01196289,0,4.077,0,0,0,0,nan,2,0.443,0,0,0,0,0,0,0,0,0,1,2,0
1906.189,0.001047,-0.03320312,0.01367188,-0.015625,0.15625,-0.265625,9.46875,-0.009765625,-0.001953125,0,0.01367188,-0.01757812,0,-0.002685547,0.002563477,-0.01196289,0,0,-0.01196289,0,4.077,0,0,0,0,nan,2,0.454,0,0,0,0,0,0,0,0,0,1,2,1
1906.199,0.001001,-0.0625,0.0078125,0.01171875,-0.796875,0.171875,11.61719,-0.009765625,0.00390625,-0.00390625,0.01367188,-0.01757812,0,-0.002685547,0.002563477,-0.01196289,0,0,-0.01196289,0,4.077,0,0,0,0,nan,2,0.464,0,0,0,0,0,0,0,0,0,1,2,0
1906.209,0.001001,0.0390625,-0.01367188,0.005859375,0.3125,-0.4453125,8.132812,0.0078125,-0.0078125,0.0078125,0.01367188,-0.01757812,0,-0.002685547,0.002563477,-0.01196289,0,0,-0.01196289,0,4.077,0,0,0,0,nan,2,0.474,0,0,0,0,0,0,0,0,0,1,2,0
1906.219,0.001008,-0.00390625,0.005859375,-0.03320312,0.0078125,0.1640625,10.21875,0.001953125,0.005859375,-0.005859375,0.01367188,-0.01757812,0,-0.002685547,0.002563477,-0.01196289,0,0,-0.01196289,0,4.077,0,0,0,0,nan,2,0.484,0,0,0,0,0,0,0,0,0,1,2,1
1906.228,0.001013,0.01171875,-0.001953125,-0.01953125,0.1796875,0.6171875,9.664062,0,0,-0.009765625,0.01367188,-0.01757812,0,-0.002685547,0.002563477,-0.01196289,0,0,-0.01196289,0,4.077,0,0,0,0,nan,2,0.493,0,0,0,0,0,0,0,0,0,1,2,1
1906.238,0.001016,0,0.005859375,0.001953125,0.3125,-0.0625,10.82031,0,0,-0.00390625,0.01367188,-0.01757812,0,-0.002685547,0.002563477,-0.01196289,0,0,-0.01196289,0,4.077,0,0,0,0,nan,2,0.503,0,0,0,0,0,0,0,0,0,1,2,0
1906.248,0.001013,0.00390625,-0.0078125,-0.00390625,0.2578125,-0.1171875,10.11719,0.00390625,-0.00390625,0,0.01367188,-0.01757812,0,-0.002685547,0.002563477,-0.01196289,0,0,-0.01196289,0,4.077,0,0,0,0,nan,2,0.513,0,0,0,0,0,0,0,0,0,1,2,1
1906.258,0.001007,-0.0078125,-0.001953125,-0.01367188,0.2734375,0.0234375,10.46094,0.001953125,-0.001953125,0,0.01367188,-0.01757812,0,-0.002685547,0.002563477,-0.01196289,0,0,-0.01196289,0,4.077,0,0,0,0,nan,2,0.523,0,0,0,0,0,0,0,0,0,1,2,1
1906.268,0.001007,0.001953125,-0.0078125,-0.02539062,0.203125,0.0234375,8.992188,0.001953125,-0.001953125,-0.00390625,0.01367188,-0.01757812,0,-0.002685547,0.002441406,-0.01196289,0,0,-0.01196289,0,4.077,0,0,0,0,nan,2,0.533,0,0,0,0,0,0,0,0,0,1,2,1
1906.279,0.001007,0,0,-0.015625,-0.0703125,-0.296875,9.328125,-0.00390625,0.001953125,0,0.01367188,-0.01757812,0,-0.002685547,0.002441406,-0.01196289,0,0,-0.01196289,0,4.077,0,0,0,0,nan,2,0.543,0,0,0,0,0,0,0,0,0,1,2,1
1906.289,0.001007,0.001953125,0,0.015625,-0.0234375,-0.3046875,9.835938,0,0.001953125,0.005859375,0.01367188,-0.01757812,0,-0.002685547,0.002441406,-0.01196289,0,0,-0.01196289,0,4.077,0,0,0,0,nan,2,0.553,0,0,0,0,0,0,0,0,0,1,2,1
1906.299,0.001039,0.005859375,-0.009765625,0.00390625,-0.0078125,0.015625,10.03125,0.00390625,-0.001953125,0,0.01367188,-0.01757812,0,-0.002685547,0.002441406,-0.01196289,0,0,-0.01196289,0,4.077,0,0,0,0,nan,2,0.564,0,0,0,0,0,0,0,0,0,1,2,1
1906.309,0.001007,-0.005859375,0.00390625,-0.001953125,-0.0390625,-0.1484375,10.17188,0.001953125,0,0.00390625,0.01367188,-0.01757812,0,-0.002563477,0.002441406,-0.01196289,0,0,-0.01196289,0,4.077,0,0,0,0,nan,2,0.574,0,0,0,0,0,0,0,0,0,1,2,1
1906.319,0.00102,-0.0078125,0.00390625,0,-0.1328125,0.15625,9.734375,-0.00390625,0,-0.001953125,0.01367188,-0.01757812,0,-0.002685547,0.002441406,-0.01196289,0,0,-0.01196289,0,4.077,0,0,0,0,nan,2,0.584,0,0,0,0,0,0,0,0,0,1,2,1
1906.328,0.001028,0,0.001953125,-0.015625,0.015625,-0.1953125,9.8125,0.00390625,0.001953125,-0.001953125,0.01367188,-0.01757812,0,-0.002563477,0.002441406,-0.01196289,0,0,-0.01196289,0,4.077,0,0,0,0,nan,2,0.593,0,0,0,0,0,0,0,0,0,1,2,1
1906.338,0.001003,-0.001953125,0.001953125,0.009765625,-0.03125,0.2421875,9.773438,-0.00390625,0.001953125,0,0.01367188,-0.01757812,0,-0.002563477,0.002319336,-0.01196289,0,0,-0.01196289,0,4.077,0,0,0,0,nan,2,0.603,0,0,0,0,0,0,0,0,0,1,2,1
1906.348,0.001013,-0.001953125,-0.0078125,-0.00390625,-0.0234375,-0.328125,9.6875,0.001953125,0,0,0.01367188,-0.01757812,0,-0.002563477,0.002441406,-0.01196289,0,0,-0.01196289,0,4.077,0,0,0,0,nan,2,0.613,0,0,0,0,0,0,0,0,0,1,2,1
1906.358,0.001013,0,0.0078125,0,-0.1953125,0.1328125,9.796875,-0.001953125,0.001953125,-0.005859375,0.01367188,-0.01757812,0,-0.002563477,0.002319336,-0.01196289,0,0,-0.01196289,0,4.077,0,0,0,0,nan,2,0.623,0,0,0,0,0,0,0,0,0,1,2,1
1906.368,0.001013,0.001953125,-0.00390625,0.009765625,0.140625,-0.1171875,9.835938,0.001953125,-0.001953125,0.0078125,0.01367188,-0.01757812,0,-0.002563477,0.002319336,-0.01196289,0,0,-0.01196289,0,4.077,0,0,0,0,nan,2,0.633,0,0,0,0,0,0,0,0,0,1,2,1
1906.378,0.001013,-0.00390625,0,-0.01367188,-0.09375,0.0859375,9.898438,-0.00390625,-0.001953125,-0.005859375,0.01367188,-0.01757812,0,-0.002563477,0.002319336,-0.01196289,0,0,-0.01196289,0,4.077,0,0,0,0,nan,2,0.643,0,0,0,0,0,0,0,0,0,1,2,1
1906.389,0.001013,-0.001953125,0.00390625,0.00390625,0.1640625,-0.0078125,9.835938,0.001953125,0.00390625,0.001953125,0.01367188,-0.01757812,0,-0.002563477,0.002319336,-0.01196289,0,0,-0.01196289,0,4.077,0,0,0,0,nan,2,0.653,0,0,0,0,0,0,0,0,0,1,2,1
1906.399,0.001013,0,0,0.005859375,-0.1171875,0.015625,9.78125,0,-0.001953125,0.001953125,0.01367188,-0.01757812,0,-0.002563477,0.002319336,-0.01196289,0,0,-0.01196289,0,4.077,0,0,0,0,nan,2,0.664,0,0,0,0,0,0,0,0,0,1,2,1
1906.409,0.001013,0,0.005859375,-0.0078125,0.09375,-0.1015625,9.804688,0.001953125,0.001953125,-0.005859375,0.01367188,-0.01757812,0,-0.002441406,0.002319336,-0.01196289,0,0,-0.01196289,0,4.077,0,0,0,0,nan,2,0.674,0,0,0,0,0,0,0,0,0,1,2,1
1906.419,0.00102,-0.005859375,0,0.005859375,-0.03125,0.078125,9.875,-0.00390625,-0.001953125,0,0.01367188,-0.01757812,0,-0.002563477,0.002319336,-0.01196289,0,0,-0.01196289,0,4.077,0,0,0,0,nan,2,0.684,0,0,0,0,0,0,0,0,0,1,2,1
1906.428,0.000999,0,0.001953125,-0.001953125,-0.03125,-0.015625,9.851562,0,0.001953125,0.00390625,0.01367188,-0.01757812,0,-0.002441406,0.002319336,-0.01196289,0,0,-0.01196289,0,4.077,0,0,0,0,nan,2,0.693,0,0,0,0,0,0,0,0,0,1,2,1
1906.438,0.000998,-0.001953125,-0.005859375,-0.0078125,0,0.0078125,9.835938,-0.001953125,-0.001953125,-0.00390625,0.01367188,-0.01757812,0,-0.002441406,0.002319336,-0.01196289,0,0,-0.01196289,0,4.077,0,0,0,0,nan,2,0.703,0,0,0,0,0,0,0,0,0,1,2,1
1906.448,0.001002,-0.001953125,-0.001953125,0.00390625,0.0078125,-0.015625,9.820312,0,-0.001953125,0,0.01367188,-0.01757812,0,-0.002441406,0.002319336,-0.01196289,0,0,-0.01196289,0,4.077,0,0,0,0,nan,2,0.713,0,0,0,0,0,0,0,0,0,1,2,1
1906.458,0.001061,-0.001953125,0.001953125,0.001953125,0.0234375,-0.0390625,9.757812,-0.001953125,0,0.001953125,0.01367188,-0.01757812,0,-0.002441406,0.002197266,-0.01196289,0,0,-0.01196289,0,4.077,0,0,0,0,nan,2,0.723,0,0,0,0,0,0,0,0,0,1,2,1
1906.468,0.000942,0.001953125,0.001953125,0.001953125,0.0234375,0.0234375,9.820312,-0.001953125,0,-0.001953125,0.01367188,-0.01757812,0,-0.002441406,0.002197266,-0.01196289,0,0,-0.01196289,0,4.077,0,0,0,0,nan,2,0.733,0,0,0,0,0,0,0,0,0,1,2,1
1906.478,0.001091,0.001953125,0,0.001953125,0.015625,-0.0078125,9.742188,0,0,0,0.01367188,-0.01757812,0,-0.002441406,0.002197266,-0.01196289,0,0,-0.01196289,0,4.077,0,0,0,0,nan,2,0.743,0,0,0,0,0,0,0,0,0,1,2,1
1906.489,0.001001,0,0.005859375,0.001953125,-0.0078125,0.0390625,9.8125,0,0.001953125,0,0.01367188,-0.01757812,0,-0.002441406,0.002197266,-0.01196289,0,0,-0.01196289,0,4.077,0,0,0,0,nan,2,0.754,0,0,0,0,0,0,0,0,0,1,2,1
1906.499,0.000973,0,-0.001953125,-0.001953125,0.0625,0,9.835938,0,0.001953125,0,0.01367188,-0.01757812,0,-0.002441406,0.002197266,-0.01196289,0,0,-0.01196289,0,4.077,0,0,0,0,nan,2,0.764,0,0,0,0,0,0,0,0,0,1,2,1
1906.509,0.001007,0,-0.001953125,-0.001953125,-0.0390625,-0.03125,9.796875,-0.001953125,0,-0.001953125,0.01367188,-0.01757812,0,-0.002441406,0.002197266,-0.01196289,0,0,-0.01196289,0,4.077,0,0,0,0,nan,2,0.774,0,0,0,0,0,0,0,0,0,1,2,1
1906.519,0.001003,0,-0.00390625,-0.001953125,0.0078125,-0.046875,9.789062,0,0,0,0.01367188,-0.01757812,0,-0.002441406,0.002197266,-0.01196289,0,0,-0.01196289,0,4.077,0,0,0,0,nan,2,0.784,0,0,0,0,0,0,0,0,0,1,2,1
1906.528,0.001019,-0.001953125,-0.001953125,0,-0.015625,0.0078125,9.789062,0,-0.001953125,-0.001953125,0.01367188,-0.01757812,0,-0.002441406,0.002197266,-0.01196289,0,0,-0.01196289,0,4.077,0,0,0,0,nan,2,0.793,0,0,0,0,0,0,0,0,0,1,2,1
1906.538,0.001015,0,-0.00390625,0,0.0078125,-0.03125,9.8125,0,0,0,0.01367188,-0.01757812,0,-0.002441406,0.002197266,-0.01196289,0,0,-0.01196289,0,4.077,0,0,0,0,nan,2,0.803,0,0,0,0,0,0,0,0,0,1,2,1
1906.548,0.001014,0,0.001953125,0,-0.0078125,0.0390625,9.796875,0,0.001953125,0,0.01367188,-0.01757812,0,-0.002441406,0.002197266,-0.01196289,0,0,-0.01196289,0,4.077,0,0,0,0,nan,2,0.813,0,0,0,0,0,0,0,0,0,1,2,1
1906.558,0.001014,0,0.001953125,0,0,0.015625,9.78125,0,0,0.001953125,0.01367188,-0.01757812,0,-0.002319336,0.002197266,-0.01196289,0,0,-0.01196289,0,4.077,0,0,0,0,nan,2,0.823,0,0,0,0,0,0,0,0,0,1,2,1
1906.568,0.001013,-0.001953125,0,-0.001953125,0.0234375,0.0078125,9.773438,0,0.001953125,0,0.01367188,-0.01757812,0,-0.002319336,0.002197266,-0.01196289,0,0,-0.01196289,0,4.077,0,0,0,0,nan,2,0.833,0,0,0,0,0,0,0,0,0,1,2,1
1906.578,0.001013,0.00390625,0,0,0.0078125,0.0234375,9.789062,0.001953125,0.001953125,0.001953125,0.01367188,-0.01757812,0,-0.002319336,0.002197266,-0.01196289,0,0,-0.01196289,0,4.077,0,0,0,0,nan,2,0.843,0,0,0,0,0,0,0,0,0,1,2,1
1906.589,0.001013,0.001953125,0,0,0.0078125,0.015625,9.8125,0,0,0.001953125,0.01367188,-0.01757812,0,-0.002319336,0.002197266,-0.01196289,0,0,-0.01196289,0,4.077,0,0,0,0,nan,2,0.853,0,0,0,0,0,0,0,0,0,1,2,1
1906.599,0.001013,0,0.001953125,0.001953125,0.0234375,0.0234375,9.757812,0,0,0,0.01367188,-0.01757812,0,-0.002319336,0.002197266,-0.01196289,0,0,-0.01196289,0,4.077,0,0,0,0,nan,2,0.864,0,0,0,0,0,0,0,0,0,1,2,1
1906.609,0.000991,0.00390625,0,-0.001953125,0.0390625,0,9.804688,0.001953125,0,0,0.01367188,-0.01757812,0,-0.002319336,0.002197266,-0.01196289,0,0,-0.01196289,0,4.077,0,0,0,0,nan,2,0.874,0,0,0,0,0,0,0,0,0,1,2,1
1906.618,0.001019,0.001953125,0.001953125,-0.001953125,0.0234375,0.0078125,9.84375,0.001953125,0,0,0.01367188,-0.01757812,0,-0.002197266,0.002197266,-0.01196289,0,0,-0.01196289,0,4.077,0,0,0,0,nan,2,0.883,0,0,0,0,0,0,0,0,0,1,2,1
1906.628,0.001011,0,-0.001953125,-0.00390625,0.0078125,0.0078125,9.8125,0,0,-0.001953125,0.01367188,-0.01757812,0,-0.002197266,0.002197266,-0.01196289,0,0,-0.01196289,0,4.077,0,0,0,0,nan,2,0.893,0,0,0,0,0,0,0,0,0,1,2,1
1906.638,0.00106,0,0.00390625,0,0.015625,-0.015625,9.757812,0,0,0,0.01367188,-0.01757812,0,-0.002197266,0.002075195,-0.01196289,0,0,-0.01196289,0,4.077,0,0,0,0,nan,2,0.903,0,0,0,0,0,0,0,0,0,1,2,1
1906.648,0.001012,0,0,0.001953125,-0.015625,-0.0234375,9.820312,0,0,0,0.01367188,-0.01757812,0,-0.002197266,0.002075195,-0.01196289,0,0,-0.01196289,0,4.077,0,0,0,0,nan,2,0.913,0,0,0,0,0,0,0,0,0,1,2,1
1906.658,0.001013,0,-0.001953125,-0.001953125,0,0.03125,9.789062,0,0,0,0.01367188,-0.01757812,0,-0.002197266,0.002075195,-0.01196289,0,0,-0.01196289,0,4.077,0,0,0,0,nan,2,0.923,0,0,0,0,0,0,0,0,0,1,2,1
1906.668,0.001013,0.001953125,0,0,0.03125,-0.015625,9.773438,0.001953125,0,0,0.01367188,-0.01757812,0,-0.002197266,0.002075195,-0.01196289,0,0,-0.01196289,0,4.077,0,0,0,0,nan,2,0.933,0,0,0,0,0,0,0,0,0,1,2,1
1906.679,0.001013,0,-0.001953125,0.001953125,0.015625,0.015625,9.796875,0,-0.001953125,0,0.01367188,-0.01757812,0,-0.002197266,0.002075195,-0.01196289,0,0,-0.01196289,0,4.077,0,0,0,0,nan,2,0.943,0,0,0,0,0,0,0,0,0,1,2,1
1906.689,0.001013,0.001953125,-0.001953125,0.001953125,0,0.0234375,9.78125,0,0,0,0.01367188,-0.01757812,0,-0.002197266,0.002075195,-0.01196289,0,0,-0.01196289,0,4.077,0,0,0,0,nan,2,0.953,0,0,0,0,0,0,0,0,0,1,2,1
1906.699,0.001013,-0.005859375,0.001953125,0,-0.0078125,0.015625,9.804688,-0.00390625,0,0,0.01367188,-0.01757812,0,-0.002075195,0.002075195,-0.01196289,0,0,-0.01196289,0,4.077,0,0,0,0,nan,2,0.964,0,0,0,0,0,0,0,0,0,1,2,1
1906.709,0.001013,0,0,0,-0.0078125,0.015625,9.796875,0.001953125,0.001953125,0,0.01367188,-0.01757812,0,-0.002075195,0.002075195,-0.01196289,0,0,-0.01196289,0,4.077,0,0,0,0,nan,2,0.974,0,0,0,0,0,0,0,0,0,1,2,1
1906.719,0.001016,0,0.001953125,0,0.0078125,-0.0234375,9.84375,0,0.001953125,0,0.01367188,-0.01757812,0,-0.002075195,0.002075195,-0.01196289,0,0,-0.01196289,0,4.077,0,0,0,0,nan,2,0.984,0,0,0,0,0,0,0,0,0,1,2,1
1906.728,0.001002,-0.001953125,-0.00390625,-0.001953125,0,0.015625,9.804688,0,-0.001953125,0,0.01367188,-0.01757812,0,-0.002075195,0.002075195,-0.01196289,0,0,-0.01196289,0,4.077,0,0,0,0,nan,2,0.993,0,0,0,0,0,0,0,0,0,1,2,1
1906.738,0.001006,0,-0.00390625,0,0.046875,0.03125,9.828125,0,-0.001953125,0,0.01367188,-0.01757812,0,-0.002075195,0.002075195,-0.01196289,0,0,-0.01196289,0,4.077,0,0,0,0,nan,2,1.003,0,0,0,0,0,0,0,0,0,1,2,1
1906.748,0.001003,0,-0.001953125,0,-0.0234375,0.0078125,9.84375,0,0,0,0.01367188,-0.01757812,0,-0.002075195,0.002075195,-0.01196289,0,0,-0.01196289,0,4.077,0,0,0,0,nan,2,1.013,0,0,0,0,0,0,0,0,0,1,2,1
