t,dt_s,gyro_x,gyro_y,gyro_z,acc_x,acc_y,acc_z,rates.x,rates.y,rates.z,ratesTarget.x,ratesTarget.y,ratesTarget.z,attitude.x,attitude.y,attitude.z,attitudeTarget.x,attitudeTarget.y,attitudeTarget.z,thrustTarget,battery_v,rc_roll,rc_pitch,rc_yaw,rc_throttle,rc_mode,flight_mode,rc_age_s,armed,fault_mask,motor_rl,motor_rr,motor_fr,motor_fl,rate_i_x,rate_i_y,rate_i_z,mix_scale,control_source,accel_correction_confidence
47.249,0.001009,0.001953125,0,0.001953125,-0.015625,0.015625,9.835938,0,0,0,0,0,0,-0.0001220703,-0.0001220703,-0.0003662109,0,0,-0.0003662109,0,4.077,0,0,0,0,nan,2,-1,0,0,0,0,0,0,0,0,0,1,1,1
47.259,0.001014,-0.001953125,-0.001953125,0.001953125,0,0.015625,9.796875,-0.001953125,-0.001953125,0.001953125,0,0,0,-0.0001220703,-0.0001220703,-0.0003662109,0,0,-0.0003662109,0,4.077,0,0,0,0,nan,2,-1,0,0,0,0,0,0,0,0,0,1,1,1
47.268,0.001007,0.001953125,0.001953125,-0.001953125,-0.015625,-0.0078125,9.804688,0,0.001953125,0,0,0,0,-0.0001220703,-0.0001220703,-0.0003662109,0,0,-0.0003662109,0,4.077,0,0,0,0,nan,2,-1,0,0,0,0,0,0,0,0,0,1,1,1
47.278,0.001007,-0.001953125,-0.001953125,-0.001953125,0.0078125,0.015625,9.804688,0.001953125,0,0,0,0,0,-0.0001220703,-0.0001220703,-0.0003662109,0,0,-0.0003662109,0,4.077,0,0,0,0,nan,2,-1,0,0,0,0,0,0,0,0,0,1,1,1
47.288,0.001006,0,-0.001953125,0,0.03125,0.0078125,9.804688,0.001953125,0,0,0,0,0,-0.0001220703,-0.0001220703,-0.0003662109,0,0,-0.0003662109,0,4.077,0,0,0,0,nan,2,-1,0,0,0,0,0,0,0,0,0,1,1,1
47.298,0.001006,0,-0.001953125,-0.001953125,-0.0234375,-0.03125,9.820312,0,0,-0.001953125,0,0,0,-0.0001220703,-0.0001220703,-0.0003662109,0,0,-0.0003662109,0,4.077,0,0,0,0,nan,2,-1,0,0,0,0,0,0,0,0,0,1,1,1
47.308,0.001006,0,-0.001953125,-0.001953125,0.015625,0.0078125,9.796875,0,0,-0.001953125,0,0,0,-0.0001220703,-0.0001220703,-0.0003662109,0,0,-0.0003662109,0,4.077,0,0,0,0,nan,2,-1,0,0,0,0,0,0,0,0,0,1,1,1
47.319,0.001006,0.001953125,-0.001953125,0.00390625,0,0.0234375,9.796875,0,0,0,0,0,0,-0.0001220703,-0.0001220703,-0.0003662109,0,0,-0.0003662109,0,4.077,0,0,0,0,nan,2,-1,0,0,0,0,0,0,0,0,0,1,1,1
47.329,0.001006,0,0.001953125,0,-0.0078125,0.0234375,9.828125,0,0.001953125,0,0,0,0,-0.0001220703,-0.0001220703,-0.0003662109,0,0,-0.0003662109,0,4.077,0,0,0,0,nan,2,-1,0,0,0,0,0,0,0,0,0,1,1,1
47.339,0.001006,-0.001953125,-0.001953125,-0.00390625,0,-0.0390625,9.835938,0,0,-0.001953125,0,0,0,-0.0001220703,-0.0001220703,-0.0003662109,0,0,-0.0003662109,0,4.077,0,0,0,0,nan,2,-1,0,0,0,0,0,0,0,0,0,1,1,1
47.349,0.001006,-0.001953125,-0.001953125,0,0.0234375,-0.046875,9.78125,0,0,0,0,0,0,-0.0001220703,-0.0001220703,-0.0004882812,0,0,-0.0004882812,0,4.077,0,0,0,0,nan,2,-1,0,0,0,0,0,0,0,0,0,1,1,1
47.358,0.001019,0,0,-0.001953125,-0.0078125,-0.015625,9.757812,0,-0.001953125,0,0,0,0,-0.0001220703,-0.0001220703,-0.0004882812,0,0,-0.0004882812,0,4.077,0,0,0,0,nan,2,-1,0,0,0,0,0,0,0,0,0,1,1,1
47.368,0.001009,0,0,0.00390625,-0.0078125,0.015625,9.789062,0,0,0.001953125,0,0,0,-0.0001220703,-0.0001220703,-0.0004882812,0,0,-0.0004882812,0,4.077,0,0,0,0,nan,2,-1,0,0,0,0,0,0,0,0,0,1,1,1
47.378,0.001014,-0.001953125,0,0.001953125,-0.0078125,0.0078125,9.851562,0,0,0.001953125,0,0,0,-0.0001220703,-0.0001220703,-0.0003662109,0,0,-0.0003662109,0,4.077,0,0,0,0,nan,2,-1,0,0,0,0,0,0,0,0,0,1,1,1
47.388,0.001014,0,0,0,0.03125,-0.015625,9.859375,0,0,0,0,0,0,-0.0001220703,-0.0001220703,-0.0003662109,0,0,-0.0003662109,0,4.077,0,0,0,0,nan,2,-1,0,0,0,0,0,0,0,0,0,1,1,1
47.398,0.001014,0,-0.001953125,0,-0.0078125,0.0078125,9.828125,0,0,0,0,0,0,-0.0001220703,-0.0001220703,-0.0003662109,0,0,-0.0003662109,0,4.077,0,0,0,0,nan,2,-1,0,0,0,0,0,0,0,0,0,1,1,1
47.408,0.001014,-0.001953125,-0.001953125,-0.001953125,0.0078125,0.015625,9.867188,-0.001953125,0,0,0,0,0,-0.0001220703,-0.0001220703,-0.0003662109,0,0,-0.0003662109,0,4.077,0,0,0,0,nan,2,-1,0,0,0,0,0,0,0,0,0,1,1,1
47.419,0.001014,-0.00390625,0,0,0,0.0234375,9.835938,-0.001953125,0.001953125,0,0,0,0,-0.0001220703,-0.0001220703,-0.0003662109,0,0,-0.0003662109,0,4.077,0,0,0,0,nan,2,-1,0,0,0,0,0,0,0,0,0,1,1,1
47.429,0.001014,-0.001953125,-0.001953125,0.001953125,-0.0078125,-0.015625,9.851562,0,0,0,0,0,0,-0.0001220703,-0.0001220703,-0.0003662109,0,0,-0.0003662109,0,4.077,0,0,0,0,nan,2,-1,0,0,0,0,0,0,0,0,0,1,1,1
47.439,0.001014,-0.001953125,0,0.001953125,-0.015625,-0.015625,9.8125,0,0,0,0,0,0,-0.0001220703,-0.0001220703,-0.0003662109,0,0,-0.0003662109,0,4.077,0,0,0,0,nan,2,-1,0,0,0,0,0,0,0,0,0,1,1,1
47.449,0.001014,0,-0.001953125,-0.001953125,-0.03125,0.0078125,9.8125,0,0,0,0,0,0,-0.0001220703,-0.0001220703,-0.0003662109,0,0,-0.0003662109,0,4.077,0,0,0,0,nan,2,-1,0,0,0,0,0,0,0,0,0,1,1,1
47.458,0.001006,0.00390625,-0.00390625,0.001953125,0.0234375,-0.015625,9.78125,0.001953125,-0.001953125,0,0,0,0,-0.0001220703,-0.0001220703,-0.0003662109,0,0,-0.0003662109,0,4.077,0,0,0,0,nan,2,-1,0,0,0,0,0,0,0,0,0,1,1,1
47.468,0.001005,0,-0.001953125,-0.00390625,-0.0234375,0.0078125,9.734375,0,-0.001953125,0,0,0,0,-0.0001220703,-0.0001220703,-0.0003662109,0,0,-0.0003662109,0,4.077,0,0,0,0,nan,2,-1,0,0,0,0,0,0,0,0,0,1,1,1
47.478,0.001011,-0.001953125,0.005859375,0.001953125,0.03125,0.03125,9.789062,0,0,0.001953125,0,0,0,-0.0001220703,-0.0001220703,-0.0003662109,0,0,-0.0003662109,0,4.077,0,0,0,0,nan,2,-1,0,0,0,0,0,0,0,0,0,1,1,1
47.488,0.001011,-0.001953125,0.001953125,0,-0.015625,0.015625,9.859375,0,0.001953125,0,0,0,0,-0.0001220703,-0.0001220703,-0.0003662109,0,0,-0.0003662109,0,4.077,0,0,0,0,nan,2,-1,0,0,0,0,0,0,0,0,0,1,1,1
47.498,0.001011,0,-0.001953125,0,-0.0078125,-0.03125,9.78125,0,0,0.001953125,0,0,0,-0.0001220703,-0.0001220703,-0.0003662109,0,0,-0.0003662109,0,4.077,0,0,0,0,nan,2,-1,0,0,0,0,0,0,0,0,0,1,1,1
47.508,0.001011,-0.001953125,0.001953125,0,0.0078125,-0.03125,9.820312,0,0.001953125,0,0,0,0,-0.0001220703,-0.0001220703,-0.0003662109,0,0,-0.0003662109,0,4.077,0,0,0,0,nan,2,-1,0,0,0,0,0,0,0,0,0,1,1,1
47.519,0.001011,0.00390625,-0.00390625,0,-0.0390625,-0.0234375,9.804688,0,0,0,0,0,0,-0.0001220703,-0.0001220703,-0.0003662109,0,0,-0.0003662109,0,4.077,0,0,0,0,nan,2,-1,0,0,0,0,0,0,0,0,0,1,1,1
47.529,0.001011,0,0,0.001953125,0,-0.015625,9.8125,0,0,0,0,0,0,-0.0001220703,-0.0001220703,-0.0003662109,0,0,-0.0003662109,0,4.077,0,0,0,0,nan,2,-1,0,0,0,0,0,0,0,0,0,1,1,1
47.539,0.001011,0,-0.001953125,0.00390625,0,-0.0234375,9.828125,0,0,0,0,0,0,-0.0001220703,-0.0001220703,-0.0003662109,0,0,-0.0003662109,0,4.077,0,0,0,0,nan,2,-1,0,0,0,0,0,0,0,0,0,1,1,1
47.549,0.001011,-0.001953125,0.001953125,-0.001953125,0.015625,0,9.796875,0,0,0,0,0,0,-0.0001220703,-0.0001220703,-0.0003662109,0,0,-0.0003662109,0,4.077,0,0,0,0,nan,2,-1,0,0,0,0,0,0,0,0,0,1,1,1
47.559,0.001006,0,0.00390625,-0.001953125,-0.015625,-0.015625,9.78125,0,0.001953125,0,0,0,0,-0.0001220703,-0.0001220703,-0.0003662109,0,0,-0.0003662109,0,4.077,0,0,0,0,nan,2,-1,0,0,0,0,0,0,0,0,0,1,1,1
47.568,0.001001,-0.001953125,0.001953125,0,0.015625,0.0078125,9.78125,0,0.001953125,0,0,0,0,-0.0001220703,0,-0.0003662109,0,0,-0.0003662109,0,4.077,0,0,0,0,nan,2,-1,0,0,0,0,0,0,0,0,0,1,1,1
47.578,0.001011,0.001953125,0,-0.001953125,0,-0.015625,9.789062,0.001953125,0,0,0,0,0,-0.0001220703,0,-0.0003662109,0,0,-0.0003662109,0,4.077,0,0,0,0,nan,2,-1,0,0,0,0,0,0,0,0,0,1,1,1
47.588,0.000977,0.00390625,0,-0.001953125,0.0078125,0.0234375,9.84375,0.001953125,0,-0.001953125,0,0,0,-0.0001220703,0,-0.0003662109,0,0,-0.0003662109,0,4.077,0,0,0,0,nan,2,-1,0,0,0,0,0,0,0,0,0,1,1,1
47.598,0.001009,-0.001953125,0,0,0,0.015625,9.804688,-0.001953125,0,0,0,0,0,-0.0001220703,-0.0001220703,-0.0004882812,0,0,-0.0004882812,0,4.077,0,0,0,0,nan,2,-1,0,0,0,0,0,0,0,0,0,1,1,1
47.608,0.001009,0,0.001953125,-0.001953125,0.0234375,0,9.828125,0,0.001953125,0,0,0,0,-0.0001220703,-0.0001220703,-0.0003662109,0,0,-0.0003662109,0,4.077,0,0,0,0,nan,2,-1,0,0,0,0,0,0,0,0,0,1,1,1
47.618,0.001009,0,0.001953125,0,-0.0078125,-0.015625,9.835938,0,0,0,0,0,0,-0.0001220703,-0.0001220703,-0.0003662109,0,0,-0.0003662109,0,4.077,0,0,0,0,nan,2,-1,0,0,0,0,0,0,0,0,0,1,1,1
47.629,0.001009,-0.001953125,0.001953125,0.001953125,0,-0.015625,9.78125,0,0,0,0,0,0,-0.0001220703,-0.0001220703,-0.0003662109,0,0,-0.0003662109,0,4.077,0,0,0,0,nan,2,-1,0,0,0,0,0,0,0,0,0,1,1,1
47.639,0.001009,0,0,-0.00390625,-0.0078125,-0.0234375,9.75,0,0,0,0,0,0,-0.0001220703,-0.0001220703,-0.0003662109,0,0,-0.0003662109,0,4.077,0,0,0,0,nan,2,-1,0,0,0,0,0,0,0,0,0,1,1,1
47.649,0.001009,0,0.00390625,-0.001953125,-0.0390625,-0.0078125,9.796875,0,0.001953125,0,0,0,0,-0.0001220703,-0.0001220703,-0.0003662109,0,0,-0.0003662109,0,4.077,0,0,0,0,nan,2,-1,0,0,0,0,0,0,0,0,0,1,1,1
47.659,0.001014,-0.001953125,0,-0.001953125,0,0.03125,9.78125,-0.001953125,0.001953125,0,0,0,0,-0.0001220703,0,-0.0003662109,0,0,-0.0003662109,0,4.077,0,0,0,0,nan,2,-1,0,0,0,0,0,0,0,0,0,1,1,1
47.668,0.000997,-0.001953125,0.001953125,0,-0.0078125,-0.015625,9.734375,0,0.001953125,0,0,0,0,-0.0001220703,0,-0.0004882812,0,0,-0.0004882812,0,4.077,0,0,0,0,nan,2,-1,0,0,0,0,0,0,0,0,0,1,1,1
47.678,0.001009,0,0,-0.001953125,0.03125,0,9.765625,0,-0.001953125,-0.001953125,0,0,0,-0.0001220703,0,-0.0004882812,0,0,-0.0004882812,0,4.077,0,0,0,0,nan,2,-1,0,0,0,0,0,0,0,0,0,1,1,1
47.688,0.001011,0.001953125,0.001953125,0,0.046875,0.0078125,9.765625,0,0,0,0,0,0,-0.0001220703,0,-0.0004882812,0,0,-0.0004882812,0,4.077,0,0,0,0,nan,2,-1,0,0,0,0,0,0,0,0,0,1,1,1
47.698,0.001011,0,0,0,0.0234375,0.0078125,9.757812,0,0,0,0,0,0,-0.0001220703,0,-0.0004882812,0,0,-0.0004882812,0,4.077,0,0,0,0,nan,2,-1,0,0,0,0,0,0,0,0,0,1,1,1
47.708,0.001011,0,-0.00390625,0,-0.0078125,0,9.820312,-0.001953125,-0.001953125,0,0,0,0,-0.0001220703,0,-0.0004882812,0,0,-0.0004882812,0,4.077,0,0,0,0,nan,2,-1,0,0,0,0,0,0,0,0,0,1,1,1
47.718,0.001011,-0.001953125,0.001953125,0,0.0234375,0.0078125,9.742188,0,0.001953125,0,0,0,0,-0.0001220703,0,-0.0004882812,0,0,-0.0004882812,0,4.077,0,0,0,0,nan,2,-1,0,0,0,0,0,0,0,0,0,1,1,1
47.729,0.001011,0,0,0,0,0.0234375,9.75,0,0,0,0,0,0,-0.0001220703,-0.0001220703,-0.0004882812,0,0,-0.0004882812,0,4.077,0,0,0,0,nan,2,-1,0,0,0,0,0,0,0,0,0,1,1,1
47.739,0.001011,0.001953125,-0.001953125,0,0.03125,-0.0390625,9.820312,0,0,0,0,0,0,-0.0001220703,-0.0001220703,-0.0004882812,0,0,-0.0004882812,0,4.077,0,0,0,0,nan,2,-1,0,0,0,0,0,0,0,0,0,1,1,1
47.749,0.001011,0,-0.001953125,0,0.0078125,-0.03125,9.8125,0,0,0.001953125,0,0,0,-0.0002441406,-0.0001220703,-0.0003662109,0,0,-0.0003662109,0,4.077,0,0,0,0,nan,2,-1,0,0,0,0,0,0,0,0,0,1,1,1
47.759,0.001019,-0.001953125,0,-0.001953125,0.03125,0,9.75,-0.001953125,0,0,0,0,0,-0.0002441406,-0.0001220703,-0.0003662109,0,0,-0.0003662109,0,4.077,0,0,0,0,nan,2,-1,0,0,0,0,0,0,0,0,0,1,1,1
47.768,0.001009,0,0.001953125,0.001953125,-0.0234375,-0.0390625,9.84375,-0.001953125,0.001953125,0,0,0,0,-0.0002441406,-0.0001220703,-0.0003662109,0,0,-0.0003662109,0,4.077,0,0,0,0,nan,2,-1,0,0,0,0,0,0,0,0,0,1,1,1
47.778,0.000998,0,-0.001953125,0,0.03125,-0.0078125,9.804688,0,0,0,0,0,0,-0.0002441406,0,-0.0003662109,0,0,-0.0003662109,0,4.077,0,0,0,0,nan,2,-1,0,0,0,0,0,0,0,0,0,1,1,1
47.788,0.001005,0,0.001953125,0.00390625,-0.03125,0,9.804688,0,0.001953125,0.001953125,0,0,0,-0.0002441406,0,-0.0003662109,0,0,-0.0003662109,0,4.077,0,0,0,0,nan,2,-1,0,0,0,0,0,0,0,0,0,1,1,1
47.798,0.001055,-0.001953125,0,0,-0.0078125,0.0078125,9.84375,-0.001953125,0,0,0,0,0,-0.0002441406,0,-0.0003662109,0,0,-0.0003662109,0,4.077,0,0,0,0,nan,2,-1,0,0,0,0,0,0,0,0,0,1,1,1
47.808,0.001005,0,-0.00390625,-0.001953125,-0.015625,-0.0078125,9.835938,-0.001953125,0,0,0,0,0,-0.0002441406,0,-0.0003662109,0,0,-0.0003662109,0,4.077,0,0,0,0,nan,2,-1,0,0,0,0,0,0,0,0,0,1,1,1
47.818,0.001004,0,-0.001953125,-0.001953125,0.03125,-0.015625,9.789062,-0.001953125,0,0,0,0,0,-0.0002441406,0,-0.0003662109,0,0,-0.0003662109,0,4.077,0,0,0,0,nan,2,-1,0,0,0,0,0,0,0,0,0,1,1,1
47.829,0.001005,0,-0.001953125,-0.00390625,0.0078125,-0.0078125,9.789062,0,0,-0.001953125,0,0,0,-0.0002441406,0,-0.0003662109,0,0,-0.0003662109,0,4.077,0,0,0,0,nan,2,-1,0,0,0,0,0,0,0,0,0,1,1,1
47.839,0.001004,0,0,0,0.0546875,-0.015625,9.84375,0.001953125,0,0,0,0,0,-0.0002441406,0,-0.0003662109,0,0,-0.0003662109,0,4.077,0,0,0,0,nan,2,-1,0,0,0,0,0,0,0,0,0,1,1,1
47.849,0.001005,0.001953125,-0.001953125,0.001953125,0.0234375,0,9.796875,0.001953125,-0.001953125,0.001953125,0,0,0,-0.0002441406,-0.0001220703,-0.0003662109,0,0,-0.0003662109,0,4.077,0,0,0,0,nan,2,-1,0,0,0,0,0,0,0,0,0,1,1,1
47.859,0.001005,-0.001953125,-0.001953125,0,0,0.0234375,9.78125,-0.001953125,0,0,0,0,0,-0.0002441406,-0.0001220703,-0.0003662109,0,0,-0.0003662109,0,4.077,0,0,0,0,nan,2,-1,0,0,0,0,0,0,0,0,0,1,1,1
47.868,0.001016,0.001953125,-0.001953125,0.001953125,0.0078125,-0.0078125,9.820312,0,0,0,0,0,0,-0.0002441406,-0.0001220703,-0.0003662109,0,0,-0.0003662109,0,4.077,0,0,0,0,nan,2,-1,0,0,0,0,0,0,0,0,0,1,1,1
47.878,0.001013,-0.001953125,-0.001953125,0,-0.015625,0,9.820312,0,0,0,0,0,0,-0.0002441406,-0.0001220703,-0.0003662109,0,0,-0.0003662109,0,4.077,0,0,0,0,nan,2,-1,0,0,0,0,0,0,0,0,0,1,1,1
47.888,0.001015,-0.001953125,0.00390625,0.001953125,0,0,9.78125,-0.001953125,0.001953125,0,0,0,0,-0.0002441406,-0.0001220703,-0.0003662109,0,0,-0.0003662109,0,4.077,0,0,0,0,nan,2,-1,0,0,0,0,0,0,0,0,0,1,1,1
47.898,0.001016,0.001953125,0.001953125,-0.001953125,-0.0546875,-0.0234375,9.828125,0.001953125,0.001953125,-0.001953125,0,0,0,-0.0002441406,-0.0001220703,-0.0003662109,0,0,-0.0003662109,0,4.077,0,0,0,0,nan,2,-1,0,0,0,0,0,0,0,0,0,1,1,1
47.908,0.001014,-0.001953125,0,0,-0.0078125,-0.0234375,9.796875,-0.001953125,0.001953125,0,0,0,0,-0.0002441406,0,-0.0003662109,0,0,-0.0003662109,0,4.077,0,0,0,0,nan,2,-1,0,0,0,0,0,0,0,0,0,1,1,1
47.918,0.001016,0.001953125,0.001953125,0.005859375,0,0.015625,9.773438,0.001953125,0,0.001953125,0,0,0,-0.0002441406,0,-0.0003662109,0,0,-0.0003662109,0,4.077,0,0,0,0,nan,2,-1,0,0,0,0,0,0,0,0,0,1,1,1
47.929,0.001014,0,-0.001953125,0.001953125,-0.0078125,-0.0078125,9.804688,0,-0.001953125,0,0,0,0,-0.0002441406,0,-0.0003662109,0,0,-0.0003662109,0,4.077,0,0,0,0,nan,2,-1,0,0,0,0,0,0,0,0,0,1,1,1
47.939,0.001016,0.00390625,0,0,-0.0078125,-0.015625,9.773438,0.001953125,0,0,0,0,0,-0.0002441406,0,-0.0003662109,0,0,-0.0003662109,0,4.077,0,0,0,0,nan,2,-1,0,0,0,0,0,0,0,0,0,1,1,1
47.949,0.001014,0,0,0,0,0,9.820312,0,0,-0.001953125,0,0,0,-0.0002441406,0,-0.0003662109,0,0,-0.0003662109,0,4.077,0,0,0,0,nan,2,-1,0,0,0,0,0,0,0,0,0,1,1,1
47.959,0.001014,0.00390625,-0.001953125,-0.001953125,-0.03125,-0.046875,9.867188,0,-0.001953125,0,0,0,0,-0.0002441406,0,-0.0003662109,0,0,-0.0003662109,0,4.077,0,0,0,0,nan,2,-1,0,0,0,0,0,0,0,0,0,1,1,1
47.968,0.001009,-0.001953125,0.001953125,-0.001953125,-0.015625,-0.0625,9.789062,0,0.001953125,-0.001953125,0,0,0,-0.0002441406,0,-0.0003662109,0,0,-0.0003662109,0,4.077,0,0,0,0,nan,2,-1,0,0,0,0,0,0,0,0,0,1,1,1
47.978,0.001006,0,0.00390625,-0.00390625,0,0,9.789062,0.001953125,0,-0.001953125,0,0,0,-0.0002441406,0,-0.0003662109,0,0,-0.0003662109,0,4.077,0,0,0,0,nan,2,-1,0,0,0,0,0,0,0,0,0,1,1,1
47.988,0.001009,0,-0.001953125,0,0,0.015625,9.835938,0,0,0,0,0,0,-0.0002441406,0,-0.0004882812,0,0,-0.0004882812,0,4.077,0,0,0,0,nan,2,-1,0,0,0,0,0,0,0,0,0,1,1,1
47.998,0.001009,0.001953125,0,0.001953125,-0.0078125,0.015625,9.835938,0,0,0,0,0,0,-0.0002441406,0,-0.0004882812,0,0,-0.0004882812,0,4.077,0,0,0,0,nan,2,-1,0,0,0,0,0,0,0,0,0,1,1,1
48.008,0.001009,-0.001953125,0.001953125,0,0,0.015625,9.773438,0,0,0,0,0,0,-0.0002441406,0,-0.0004882812,0,0,-0.0004882812,0,4.077,0,0,0,0,nan,2,-1,0,0,0,0,0,0,0,0,0,1,1,1
48.018,0.001009,0.00390625,0,-0.001953125,0.0234375,0.015625,9.765625,0.001953125,-0.001953125,0,0,0,0,-0.0002441406,0,-0.0003662109,0,0,-0.0003662109,0,4.077,0,0,0,0,nan,2,-1,0,0,0,0,0,0,0,0,0,1,1,1
48.029,0.001009,-0.001953125,0.001953125,-0.001953125,0.0078125,-0.0078125,9.796875,0,0.001953125,-0.001953125,0,0,0,-0.0002441406,0,-0.0003662109,0,0,-0.0003662109,0,4.077,0,0,0,0,nan,2,-1,0,0,0,0,0,0,0,0,0,1,1,1
48.039,0.001009,0,0,0,-0.0234375,0.015625,9.804688,0,0,0.001953125,0,0,0,-0.0002441406,0,-0.0003662109,0,0,-0.0003662109,0,4.077,0,0,0,0,nan,2,-1,0,0,0,0,0,0,0,0,0,1,1,1
48.049,0.001009,0.001953125,0.001953125,0,-0.0078125,-0.0078125,9.78125,0,0,0.001953125,0,0,0,-0.0002441406,0,-0.0003662109,0,0,-0.0003662109,0,4.077,0,0,0,0,nan,2,-1,0,0,0,0,0,0,0,0,0,1,1,1
48.059,0.00101,-0.00390625,0.001953125,0.001953125,-0.0078125,-0.015625,9.8125,-0.001953125,0.001953125,0.001953125,0,0,0,-0.0002441406,0,-0.0003662109,0,0,-0.0003662109,0,4.077,0,0,0,0,nan,2,-1,0,0,0,0,0,0,0,0,0,1,1,1
48.068,0.001009,0,-0.001953125,0,-0.015625,0.0078125,9.804688,0,0,0,0,0,0,-0.0002441406,0,-0.0003662109,0,0,-0.0003662109,0,4.077,0,0,0,0,nan,2,-1,0,0,0,0,0,0,0,0,0,1,1,1
48.078,0.001011,-0.001953125,0.001953125,0,0,-0.015625,9.820312,0,0,0,0,0,0,-0.0002441406,0,-0.0003662109,0,0,-0.0003662109,0,4.077,0,0,0,0,nan,2,-1,0,0,0,0,0,0,0,0,0,1,1,1
48.088,0.001009,0,0.001953125,0,-0.03125,0.03125,9.78125,-0.001953125,0.001953125,0,0,0,0,-0.0002441406,0,-0.0003662109,0,0,-0.0003662109,0,4.077,0,0,0,0,nan,2,-1,0,0,0,0,0,0,0,0,0,1,1,1
48.098,0.001011,0.001953125,-0.00390625,0.001953125,0.0078125,-0.0078125,9.773438,0,-0.001953125,0.001953125,0,0,0,-0.0002441406,0,-0.0003662109,0,0,-0.0003662109,0,4.077,0,0,0,0,nan,2,-1,0,0,0,0,0,0,0,0,0,1,1,1
48.108,0.001011,0,0,0,0.03125,0.0234375,9.851562,0,0,0,0,0,0,-0.0002441406,0,-0.0003662109,0,0,-0.0003662109,0,4.077,0,0,0,0,nan,2,-1,0,0,0,0,0,0,0,0,0,1,1,1
48.118,0.001011,0.001953125,-0.00390625,0,-0.015625,0.0234375,9.796875,0.001953125,-0.001953125,0,0,0,0,-0.0002441406,0,-0.0003662109,0,0,-0.0003662109,0,4.077,0,0,0,0,nan,2,-1,0,0,0,0,0,0,0,0,0,1,1,1
48.129,0.000969,0,-0.001953125,0,-0.0078125,0.0078125,9.765625,0,0,0,0,0,0,-0.0002441406,0,-0.0003662109,0,0,-0.0003662109,0,4.077,0,0,0,0,nan,2,-1,0,0,0,0,0,0,0,0,0,1,1,1
48.139,0.001027,0,0,0,0.0078125,-0.03125,9.773438,0,0,0,0,0,0,-0.0002441406,0,-0.0003662109,0,0,-0.0003662109,0,4.077,0,0,0,0,nan,2,-1,0,0,0,0,0,0,0,0,0,1,1,1
48.149,0.000988,0.001953125,0.001953125,0.001953125,0.015625,-0.0234375,9.757812,0.001953125,0,0,0,0,0,-0.0002441406,0,-0.0003662109,0,0,-0.0003662109,0,4.077,0,0,0,0,nan,2,-1,0,0,0,0,0,0,0,0,0,1,1,1
48.159,0.000973,0,-0.001953125,-0.001953125,-0.015625,0,9.8125,0,0,0.001953125,0,0,0,-0.0002441406,0,-0.0003662109,0,0,-0.0003662109,0,4.077,0,0,0,0,nan,2,-1,0,0,0,0,0,0,0,0,0,1,1,1
48.169,0.001014,0,0.001953125,0.001953125,0.0234375,-0.015625,9.820312,0,0,0,0,0,0,-0.0002441406,0,-0.0003662109,0,0,-0.0003662109,0,4.077,0,0,0,0,nan,2,-1,0,0,0,0,0,0,0,0,0,1,1,1
48.178,0.001006,0,0,-0.001953125,0,-0.0390625,9.796875,0,0.001953125,0,0,0,0,-0.0002441406,0,-0.0003662109,0,0,-0.0003662109,0,4.077,0,0,0,0,nan,2,-1,0,0,0,0,0,0,0,0,0,1,1,1
48.188,0.001003,0.001953125,0.001953125,0,0.0234375,-0.0234375,9.757812,0,0,0,0,0,0,-0.0002441406,0,-0.0003662109,0,0,-0.0003662109,0,4.077,0,0,0,0,nan,2,-1,0,0,0,0,0,0,0,0,0,1,1,1
48.198,0.001004,0,0.00390625,0,0,0.015625,9.78125,0,0.001953125,0,0,0,0,-0.0002441406,0,-0.0003662109,0,0,-0.0003662109,0,4.077,0,0,0,0,nan,2,-1,0,0,0,0,0,0,0,0,0,1,1,1
48.208,0.001065,-0.001953125,0.001953125,-0.001953125,0.0234375,0.0390625,9.773438,-0.001953125,0,0,0,0,0,-0.0002441406,0,-0.0003662109,0,0,-0.0003662109,0,4.077,0,0,0,0,nan,2,-1,0,0,0,0,0,0,0,0,0,1,1,1
48.218,0.001004,0,0.00390625,0,-0.03125,-0.0078125,9.789062,0,0,-0.001953125,0,0,0,-0.0002441406,0,-0.0003662109,0,0,-0.0003662109,0,4.077,0,0,0,0,nan,2,-1,0,0,0,0,0,0,0,0,0,1,1,1
48.229,0.001004,0,0.001953125,0,-0.03125,0,9.789062,0,0,0.001953125,0,0,0,-0.0002441406,0,-0.0003662109,0,0,-0.0003662109,0,4.077,0,0,0,0,nan,2,-1,0,0,0,0,0,0,0,0,0,1,1,1
48.239,0.001004,0,-0.001953125,0.001953125,-0.0078125,0.0234375,9.773438,0,0,0,0,0,0,-0.0002441406,0,-0.0003662109,0,0,-0.0003662109,0,4.077,0,0,0,0,nan,2,-1,0,0,0,0,0,0,0,0,0,1,1,1
48.249,0.001004,0,-0.001953125,0,-0.0390625,-0.0078125,9.835938,0,0,0,0,0,0,-0.0002441406,0,-0.0003662109,0,0,-0.0003662109,0,4.077,0,0,0,0,nan,2,-1,0,0,0,0,0,0,0,0,0,1,1,1
48.259,0.001004,-0.001953125,0.001953125,0.001953125,0.03125,-0.0234375,9.828125,0,0.001953125,0,0,0,0,-0.0002441406,0,-0.0003662109,0,0,-0.0003662109,0,4.077,0,0,0,0,nan,2,-1,0,0,0,0,0,0,0,0,0,1,1,1
48.268,0.001016,-0.001953125,0.001953125,-0.001953125,0,0,9.882812,-0.001953125,0,-0.001953125,0,0,0,-0.0002441406,0,-0.0003662109,0,0,-0.0003662109,0,4.077,0,0,0,0,nan,2,-1,0,0,0,0,0,0,0,0,0,1,1,1
48.278,0.001017,0,0,0,0.0078125,-0.0078125,9.84375,0,0,0,0,0,0,-0.0002441406,0,-0.0003662109,0,0,-0.0003662109,0,4.077,0,0,0,0,nan,2,-1,0,0,0,0,0,0,0,0,0,1,1,1
48.288,0.001016,0,0,0,-0.03125,-0.0078125,9.773438,0,0,0,0,0,0,-0.0002441406,0,-0.0003662109,0,0,-0.0003662109,0,4.077,0,0,0,0,nan,2,-1,0,0,0,0,0,0,0,0,0,1,1,1
48.298,0.001017,0,0.001953125,-0.005859375,0.0078125,0.0078125,9.75,0,0.001953125,-0.001953125,0,0,0,-0.0002441406,0,-0.0003662109,0,0,-0.0003662109,0,4.077,0,0,0,0,nan,2,-1,0,0,0,0,0,0,0,0,0,1,1,1
48.308,0.001017,0,-0.00390625,0,0.0078125,0.03125,9.835938,0.001953125,-0.001953125,0,0,0,0,-0.0002441406,0,-0.0003662109,0,0,-0.0003662109,0,4.077,0,0,0,0,nan,2,-1,0,0,0,0,0,0,0,0,0,1,1,1
48.318,0.001016,0.001953125,0.001953125,0.001953125,0,-0.03125,9.773438,0,0,-0.001953125,0,0,0,-0.0002441406,0,-0.0003662109,0,0,-0.0003662109,0,4.077,0,0,0,0,nan,2,-1,0,0,0,0,0,0,0,0,0,1,1,1
48.329,0.001016,0.001953125,0,-0.001953125,-0.015625,0,9.820312,0,0,0,0,0,0,-0.0002441406,0,-0.0003662109,0,0,-0.0003662109,0,4.077,0,0,0,0,nan,2,-1,0,0,0,0,0,0,0,0,0,1,1,1
48.339,0.001016,0,0.001953125,-0.00390625,0,0.015625,9.75,0,0,-0.001953125,0,0,0,-0.0002441406,0,-0.0003662109,0,0,-0.0003662109,0,4.077,0,0,0,0,nan,2,-1,0,0,0,0,0,0,0,0,0,1,1,1
48.349,0.001016,0,0,0,0.015625,-0.0078125,9.765625,0,0,0,0,0,0,-0.0002441406,0,-0.0003662109,0,0,-0.0003662109,0,4.077,0,0,0,0,nan,2,-1,0,0,0,0,0,0,0,0,0,1,1,1
48.359,0.001016,0,-0.001953125,-0.001953125,0.0234375,-0.0078125,9.84375,0,0,0,0,0,0,-0.0002441406,0,-0.0003662109,0,0,-0.0003662109,0,4.077,0,0,0,0,nan,2,-1,0,0,0,0,0,0,0,0,0,1,1,1
48.368,0.00101,0,0,0,0.0234375,-0.0078125,9.796875,-0.001953125,0,0,0,0,0,-0.0002441406,0,-0.0003662109,0,0,-0.0003662109,0,4.077,0,0,0,0,nan,2,-1,0,0,0,0,0,0,0,0,0,1,1,1
48.378,0.001005,0,-0.001953125,0,0.03125,0.0078125,9.765625,0,0,0,0,0,0,-0.0002441406,0,-0.0003662109,0,0,-0.0003662109,0,4.077,0,0,0,0,nan,2,-1,0,0,0,0,0,0,0,0,0,1,1,1
48.388,0.00101,-0.001953125,0.00390625,-0.001953125,-0.03125,0.03125,9.8125,-0.001953125,0.001953125,0,0,0,0,-0.0002441406,0,-0.0003662109,0,0,-0.0003662109,0,4.077,0,0,0,0,nan,2,-1,0,0,0,0,0,0,0,0,0,1,1,1
48.398,0.001009,0.001953125,0,0,-0.0234375,0.015625,9.789062,0.001953125,0,0,0,0,0,-0.0002441406,0.0001220703,-0.0003662109,0,0,-0.0003662109,0,4.077,0,0,0,0,nan,2,-1,0,0,0,0,0,0,0,0,0,1,1,1
48.408,0.001009,0,0,-0.00390625,-0.0234375,-0.0078125,9.867188,0,0,-0.001953125,0,0,0,-0.0002441406,0.0001220703,-0.0003662109,0,0,-0.0003662109,0,4.077,0,0,0,0,nan,2,-1,0,0,0,0,0,0,0,0,0,1,1,1
48.418,0.001009,-0.001953125,0.001953125,0,0.0078125,-0.015625,9.859375,0,0,0,0,0,0,-0.0002441406,0.0001220703,-0.0003662109,0,0,-0.0003662109,0,4.077,0,0,0,0,nan,2,-1,0,0,0,0,0,0,0,0,0,1,1,1
48.429,0.001009,0,0.00390625,0,-0.0078125,-0.03125,9.820312,0,0.001953125,0,0,0,0,-0.0002441406,0.0001220703,-0.0003662109,0,0,-0.0003662109,0,4.077,0,0,0,0,nan,2,-1,0,0,0,0,0,0,0,0,0,1,1,1
48.439,0.001009,0.001953125,0,0,0,0.0078125,9.84375,0,0.001953125,0,0,0,0,-0.0002441406,0.0001220703,-0.0003662109,0,0,-0.0003662109,0,4.077,0,0,0,0,nan,2,-1,0,0,0,0,0,0,0,0,0,1,1,1
48.449,0.001009,0.001953125,0.001953125,-0.001953125,0.015625,0.015625,9.78125,0.001953125,0,0,0,0,0,-0.0002441406,0.0001220703,-0.0003662109,0,0,-0.0003662109,0,4.077,0,0,0,0,nan,2,-1,0,0,0,0,0,0,0,0,0,1,1,1
48.459,0.001009,-0.001953125,0.005859375,0,-0.046875,-0.03125,9.78125,0,0.001953125,0.001953125,0,0,0,-0.0002441406,0.0001220703,-0.0003662109,0,0,-0.0003662109,0,4.077,0,0,0,0,nan,2,-1,0,0,0,0,0,0,0,0,0,1,1,1
48.469,0.001013,0.001953125,0.001953125,-0.001953125,0.0078125,0.015625,9.804688,0.001953125,0.001953125,-0.001953125,0,0,0,-0.0002441406,0.0001220703,-0.0003662109,0,0,-0.0003662109,0,4.077,0,0,0,0,nan,2,-1,0,0,0,0,0,0,0,0,0,1,1,1
48.478,0.001005,0.001953125,0.001953125,0.001953125,-0.0234375,-0.0390625,9.804688,0.001953125,0,0,0,0,0,-0.0002441406,0.0001220703,-0.0003662109,0,0,-0.0003662109,0,4.077,0,0,0,0,nan,2,-1,0,0,0,0,0,0,0,0,0,1,1,1
48.488,0.001011,0.001953125,0.005859375,0.001953125,0.015625,0,9.8125,0,0.001953125,0.001953125,0,0,0,-0.0002441406,0.0001220703,-0.0003662109,0,0,-0.0003662109,0,4.077,0,0,0,0,nan,2,-1,0,0,0,0,0,0,0,0,0,1,1,1
48.498,0.001011,0.001953125,0,0.001953125,0.015625,0.015625,9.796875,0.001953125,0,0.001953125,0,0,0,-0.0002441406,0.0001220703,-0.0003662109,0,0,-0.0003662109,0,4.077,0,0,0,0,nan,2,-1,0,0,0,0,0,0,0,0,0,1,1,1
48.508,0.001011,-0.001953125,0,0,-0.0078125,-0.015625,9.8125,0.001953125,0,0,0,0,0,-0.0002441406,0.0001220703,-0.0003662109,0,0,-0.0003662109,0,4.077,0,0,0,0,nan,2,-1,0,0,0,0,0,0,0,0,0,1,1,1
48.518,0.001011,-0.001953125,-0.001953125,-0.001953125,0,-0.0234375,9.796875,-0.001953125,0,-0.001953125,0,0,0,-0.0002441406,0.0001220703,-0.0003662109,0,0,-0.0003662109,0,4.077,0,0,0,0,nan,2,-1,0,0,0,0,0,0,0,0,0,1,1,1
48.529,0.001032,-0.001953125,-0.00390625,-0.00390625,-0.0078125,0.046875,9.796875,0,-0.001953125,0,0,0,0,-0.0002441406,0.0001220703,-0.0003662109,0,0,-0.0003662109,0,4.077,0,0,0,0,nan,2,-1,0,0,0,0,0,0,0,0,0,1,1,1
48.539,0.001011,-0.001953125,-0.001953125,0,0.0078125,-0.0078125,9.804688,0,0,0,0,0,0,-0.0002441406,0.0001220703,-0.0003662109,0,0,-0.0003662109,0,4.077,0,0,0,0,nan,2,-1,0,0,0,0,0,0,0,0,0,1,1,1
48.549,0.001011,-0.001953125,0,0,0.0234375,0.0234375,9.804688,0,-0.001953125,0,0,0,0,-0.0002441406,0.0001220703,-0.0003662109,0,0,-0.0003662109,0,4.077,0,0,0,0,nan,2,-1,0,0,0,0,0,0,0,0,0,1,1,1
48.559,0.001011,0,0,-0.001953125,-0.0078125,0,9.789062,0,0,0,0,0,0,-0.0002441406,0.0001220703,-0.0003662109,0,0,-0.0003662109,0,4.077,0,0,0,0,nan,2,-1,0,0,0,0,0,0,0,0,0,1,1,1
48.569,0.001006,0,-0.001953125,0,-0.0390625,0.0078125,9.859375,0,0,0,0,0,0,-0.0002441406,0.0001220703,-0.0003662109,0,0,-0.0003662109,0,4.077,0,0,0,0,nan,2,-1,0,0,0,0,0,0,0,0,0,1,1,1
48.578,0.001004,0.001953125,-0.00390625,0,-0.0234375,-0.015625,9.804688,0.001953125,-0.001953125,0,0,0,0,-0.0002441406,0.0001220703,-0.0003662109,0,0,-0.0003662109,0,4.077,0,0,0,0,nan,2,-1,0,0,0,0,0,0,0,0,0,1,1,1
48.588,0.001012,0.001953125,0.001953125,-0.001953125,-0.03125,-0.015625,9.796875,0,0,0,0,0,0,-0.0002441406,0.0001220703,-0.0003662109,0,0,-0.0003662109,0,4.077,0,0,0,0,nan,2,-1,0,0,0,0,0,0,0,0,0,1,1,1
48.598,0.001009,0,0.001953125,-0.00390625,0.0078125,-0.015625,9.78125,0,0,-0.001953125,0,0,0,-0.0002441406,0.0001220703,-0.0003662109,0,0,-0.0003662109,0,4.077,0,0,0,0,nan,2,-1,0,0,0,0,0,0,0,0,0,1,1,1
48.608,0.001009,-0.001953125,-0.001953125,-0.001953125,-0.0234375,0.015625,9.757812,0,-0.001953125,-0.001953125,0,0,0,-0.0002441406,0.0001220703,-0.0003662109,0,0,-0.0003662109,0,4.077,0,0,0,0,nan,2,-1,0,0,0,0,0,0,0,0,0,1,1,1
48.618,0.000977,-0.001953125,-0.001953125,-0.001953125,0.0078125,0.0078125,9.8125,0,0,0.001953125,0,0,0,-0.0002441406,0.0001220703,-0.0003662109,0,0,-0.0003662109,0,4.077,0,0,0,0,nan,2,-1,0,0,0,0,0,0,0,0,0,1,1,1
48.628,0.001009,0,0.001953125,0,0.0078125,0.03125,9.84375,0.001953125,0,0,0,0,0,-0.0002441406,0.0001220703,-0.0003662109,0,0,-0.0003662109,0,4.077,0,0,0,0,nan,2,-1,0,0,0,0,0,0,0,0,0,1,1,1
48.639,0.001009,0,0,0,0,0.0078125,9.796875,0,0.001953125,0,0,0,0,-0.0002441406,0.0001220703,-0.0003662109,0,0,-0.0003662109,0,4.077,0,0,0,0,nan,2,-1,0,0,0,0,0,0,0,0,0,1,1,1
48.649,0.001009,0,-0.001953125,0,-0.015625,0.015625,9.78125,0,0.001953125,0,0,0,0,-0.0002441406,0.0002441406,-0.0003662109,0,0,-0.0003662109,0,4.077,0,0,0,0,nan,2,-1,0,0,0,0,0,0,0,0,0,1,1,1
48.659,0.000988,0,-0.00390625,-0.001953125,-0.015625,-0.0234375,9.8125,0.001953125,-0.001953125,0,0,0,0,-0.0002441406,0.0002441406,-0.0003662109,0,0,-0.0003662109,0,4.077,0,0,0,0,nan,2,-1,0,0,0,0,0,0,0,0,0,1,1,1
48.669,0.000983,0.00390625,0,-0.001953125,-0.015625,0.0078125,9.851562,0.001953125,0,-0.001953125,0,0,0,-0.0002441406,0.0002441406,-0.0003662109,0,0,-0.0003662109,0,4.077,0,0,0,0,nan,2,-1,0,0,0,0,0,0,0,0,0,1,1,1
48.678,0.001013,0,0,0.001953125,-0.0078125,0.0234375,9.804688,0.001953125,0,0.001953125,0,0,0,-0.0002441406,0.0002441406,-0.0003662109,0,0,-0.0003662109,0,4.077,0,0,0,0,nan,2,-1,0,0,0,0,0,0,0,0,0,1,1,1
48.688,0.001006,0.001953125,-0.00390625,0,-0.015625,-0.015625,9.78125,0,-0.001953125,0.001953125,0,0,0,-0.0002441406,0.0002441406,-0.0003662109,0,0,-0.0003662109,0,4.077,0,0,0,0,nan,2,-1,0,0,0,0,0,0,0,0,0,1,1,1
48.698,0.001008,-0.001953125,0.001953125,0.001953125,0,0.0078125,9.773438,0,0,0,0,0,0,-0.0002441406,0.0002441406,-0.0003662109,0,0,-0.0003662109,0,4.077,0,0,0,0,nan,2,-1,0,0,0,0,0,0,0,0,0,1,1,1
48.708,0.001006,0,0,0,-0.015625,-0.0078125,9.765625,0,0,0,0,0,0,-0.0002441406,0.0001220703,-0.0003662109,0,0,-0.0003662109,0,4.077,0,0,0,0,nan,2,-1,0,0,0,0,0,0,0,0,0,1,1,1
48.718,0.001008,0.001953125,0.001953125,0.001953125,0,0,9.835938,0,0.001953125,0.001953125,0,0,0,-0.0002441406,0.0001220703,-0.0002441406,0,0,-0.0002441406,0,4.077,0,0,0,0,nan,2,-1,0,0,0,0,0,0,0,0,0,1,1,1
48.728,0.001006,-0.001953125,0,0.001953125,0.015625,0,9.84375,0,0,0.001953125,0,0,0,-0.0002441406,0.0002441406,-0.0002441406,0,0,-0.0002441406,0,4.077,0,0,0,0,nan,2,-1,0,0,0,0,0,0,0,0,0,1,1,1
48.739,0.001008,0,0,-0.001953125,0.0234375,-0.0078125,9.820312,0,0,0,0,0,0,-0.0002441406,0.0002441406,-0.0002441406,0,0,-0.0002441406,0,4.077,0,0,0,0,nan,2,-1,0,0,0,0,0,0,0,0,0,1,1,1
48.749,0.001006,0.00390625,-0.00390625,0,0,0.0078125,9.773438,0.001953125,0,0,0,0,0,-0.0002441406,0.0001220703,-0.0002441406,0,0,-0.0002441406,0,4.077,0,0,0,0,nan,2,-1,0,0,0,0,0,0,0,0,0,1,1,1
48.759,0.001008,0,0,0,0,0.03125,9.804688,0,0,0,0,0,0,-0.0002441406,0.0001220703,-0.0002441406,0,0,-0.0002441406,0,4.077,0,0,0,0,nan,2,-1,0,0,0,0,0,0,0,0,0,1,1,1
48.769,0.001008,0.001953125,0.001953125,0.001953125,0.0234375,0.0078125,9.742188,0,0,0,0,0,0,-0.0002441406,0.0001220703,-0.0002441406,0,0,-0.0002441406,0,4.077,0,0,0,0,nan,2,-1,0,0,0,0,0,0,0,0,0,1,1,1
48.778,0.001013,0.001953125,0.001953125,0.005859375,0,-0.0390625,9.773438,0.001953125,0.001953125,0.001953125,0,0,0,-0.0001220703,0.0002441406,-0.0002441406,0,0,-0.0002441406,0,4.077,0,0,0,0,nan,2,-1,0,0,0,0,0,0,0,0,0,1,1,1
48.788,0.000983,0.001953125,0.001953125,0.00390625,0,0.0078125,9.78125,0,0.001953125,0.001953125,0,0,0,-0.0002441406,0.0002441406,-0.0002441406,0,0,-0.0002441406,0,4.077,0,0,0,0,nan,2,-1,0,0,0,0,0,0,0,0,0,1,1,1
48.798,0.001012,0,0,0,0.015625,-0.03125,9.773438,0.001953125,0,0,0,0,0,-0.0001220703,0.0002441406,-0.0002441406,0,0,-0.0002441406,0,4.077,0,0,0,0,nan,2,-1,0,0,0,0,0,0,0,0,0,1,1,1
48.808,0.001015,-0.001953125,0,0,-0.03125,0.0078125,9.835938,0,0,0,0,0,0,-0.0002441406,0.0002441406,-0.0002441406,0,0,-0.0002441406,0,4.077,0,0,0,0,nan,2,-1,0,0,0,0,0,0,0,0,0,1,1,1
48.818,0.001012,0,0,0.001953125,0,0,9.742188,0,0,0,0,0,0,-0.0002441406,0.0002441406,-0.0002441406,0,0,-0.0002441406,0,4.077,0,0,0,0,nan,2,-1,0,0,0,0,0,0,0,0,0,1,1,1
48.828,0.001009,-0.001953125,-0.001953125,0,0.0078125,0.0078125,9.773438,0,0,0,0,0,0,-0.0001220703,0.0002441406,-0.0002441406,0,0,-0.0002441406,0,4.077,0,0,0,0,nan,2,-1,0,0,0,0,0,0,0,0,0,1,1,1
48.839,0.001009,0,-0.00390625,0.001953125,-0.0234375,-0.0234375,9.851562,0,0,0,0,0,0,-0.0001220703,0.0002441406,-0.0002441406,0,0,-0.0002441406,0,4.077,0,0,0,0,nan,2,-1,0,0,0,0,0,0,0,0,0,1,1,1
48.849,0.001009,0.001953125,-0.001953125,0,0.0546875,-0.0078125,9.828125,0,0,0,0,0,0,-0.0001220703,0.0002441406,-0.0002441406,0,0,-0.0002441406,0,4.077,0,0,0,0,nan,2,-1,0,0,0,0,0,0,0,0,0,1,1,1
48.859,0.001009,0,-0.001953125,0,-0.0234375,-0.0078125,9.835938,0,-0.001953125,0,0,0,0,-0.0001220703,0.0001220703,-0.0002441406,0,0,-0.0002441406,0,4.077,0,0,0,0,nan,2,-1,0,0,0,0,0,0,0,0,0,1,1,1
48.869,0.001005,0,-0.001953125,0.001953125,-0.03125,0,9.8125,0,0,0,0,0,0,-0.0001220703,0.0001220703,-0.0002441406,0,0,-0.0002441406,0,4.077,0,0,0,0,nan,2,-1,0,0,0,0,0,0,0,0,0,1,1,1
48.878,0.00101,0.001953125,0.00390625,0,-0.015625,-0.015625,9.820312,0.001953125,0.001953125,0,0,0,0,-0.0001220703,0.0001220703,-0.0002441406,0,0,-0.0002441406,0,4.077,0,0,0,0,nan,2,-1,0,0,0,0,0,0,0,0,0,1,1,1
48.888,0.001009,0.001953125,0,0,0.0078125,-0.046875,9.8125,0.001953125,0,0,0,0,0,-0.0001220703,0.0002441406,-0.0002441406,0,0,-0.0002441406,0,4.077,0,0,0,0,nan,2,-1,0,0,0,0,0,0,0,0,0,1,1,1
48.898,0.001011,0,-0.001953125,-0.001953125,0,-0.03125,9.796875,0.001953125,-0.001953125,0,0,0,0,-0.0001220703,0.0002441406,-0.0002441406,0,0,-0.0002441406,0,4.077,0,0,0,0,nan,2,-1,0,0,0,0,0,0,0,0,0,1,1,1
48.908,0.001011,0.001953125,0.00390625,0,-0.015625,0.0390625,9.820312,0,0.001953125,0,0,0,0,-0.0001220703,0.0002441406,-0.0002441406,0,0,-0.0002441406,0,4.077,0,0,0,0,nan,2,-1,0,0,0,0,0,0,0,0,0,1,1,1
48.918,0.001026,0.00390625,0.00390625,0,-0.015625,-0.03125,9.8125,0.001953125,0,0,0,0,0,-0.0001220703,0.0002441406,-0.0002441406,0,0,-0.0002441406,0,4.077,0,0,0,0,nan,2,-1,0,0,0,0,0,0,0,0,0,1,1,1
48.928,0.001011,-0.001953125,-0.001953125,0,-0.0234375,0,9.789062,0.001953125,0,0,0,0,0,-0.0001220703,0.0002441406,-0.0002441406,0,0,-0.0002441406,0,4.077,0,0,0,0,nan,2,-1,0,0,0,0,0,0,0,0,0,1,1,1
48.939,0.001011,0,-0.001953125,0.001953125,-0.0234375,-0.0078125,9.789062,0,0,0,0,0,0,-0.0001220703,0.0002441406,-0.0002441406,0,0,-0.0002441406,0,4.077,0,0,0,0,nan,2,-1,0,0,0,0,0,0,0,0,0,1,1,1
48.949,0.001011,0.001953125,0,0,0.03125,0.0078125,9.757812,0.001953125,0,0.001953125,0,0,0,-0.0001220703,0.0002441406,-0.0002441406,0,0,-0.0002441406,0,4.077,0,0,0,0,nan,2,-1,0,0,0,0,0,0,0,0,0,1,1,1
48.959,0.001011,-0.001953125,-0.00390625,-0.001953125,-0.015625,-0.015625,9.820312,-0.001953125,-0.001953125,0,0,0,0,-0.0001220703,0.0002441406,-0.0002441406,0,0,-0.0002441406,0,4.077,0,0,0,0,nan,2,-1,0,0,0,0,0,0,0,0,0,1,1,1
48.969,0.001015,0,-0.001953125,0,-0.0078125,-0.0078125,9.789062,0,0.001953125,0,0,0,0,-0.0001220703,0.0002441406,-0.0002441406,0,0,-0.0002441406,0,4.077,0,0,0,0,nan,2,-1,0,0,0,0,0,0,0,0,0,1,1,1
48.978,0.001007,0.00390625,-0.001953125,-0.001953125,0.0390625,-0.0234375,9.734375,0.001953125,-0.001953125,0,0,0,0,-0.0001220703,0.0002441406,-0.0002441406,0,0,-0.0002441406,0,4.077,0,0,0,0,nan,2,-1,0,0,0,0,0,0,0,0,0,1,1,1
48.988,0.001008,-0.001953125,-0.001953125,0.001953125,-0.0078125,0.0234375,9.835938,0,-0.001953125,0,0,0,0,-0.0001220703,0.0002441406,-0.0002441406,0,0,-0.0002441406,0,4.077,0,0,0,0,nan,2,-1,0,0,0,0,0,0,0,0,0,1,1,1
48.998,0.001009,0,-0.00390625,0,0.0078125,0.0234375,9.789062,-0.001953125,-0.001953125,0.001953125,0,0,0,-0.0001220703,0.0002441406,-0.0002441406,0,0,-0.0002441406,0,4.077,0,0,0,0,nan,2,-1,0,0,0,0,0,0,0,0,0,1,1,1
49.008,0.001009,0.001953125,0,-0.001953125,0.0234375,-0.03125,9.835938,0,0,0.001953125,0,0,0,-0.0001220703,0.0001220703,-0.0002441406,0,0,-0.0002441406,0,4.077,0,0,0,0,nan,2,-1,0,0,0,0,0,0,0,0,0,1,1,1
49.018,0.001009,-0.001953125,0,-0.001953125,-0.03125,0,9.820312,0,-0.001953125,0,0,0,0,-0.0001220703,0.0001220703,-0.0002441406,0,0,-0.0002441406,0,4.077,0,0,0,0,nan,2,-1,0,0,0,0,0,0,0,0,0,1,1,1
49.028,0.000977,-0.001953125,-0.001953125,0.001953125,-0.0078125,0.0078125,9.796875,-0.001953125,0,0,0,0,0,-0.0001220703,0.0001220703,-0.0002441406,0,0,-0.0002441406,0,4.077,0,0,0,0,nan,2,-1,0,0,0,0,0,0,0,0,0,1,1,1
49.039,0.001009,0,0,0,0.015625,-0.0078125,9.789062,0,0,0,0,0,0,-0.0001220703,0.0001220703,-0.0002441406,0,0,-0.0002441406,0,4.077,0,0,0,0,nan,2,-1,0,0,0,0,0,0,0,0,0,1,1,1
49.049,0.001009,0,-0.001953125,-0.001953125,0.0234375,0.0078125,9.78125,0,0,0,0,0,0,-0.0001220703,0.0001220703,-0.0002441406,0,0,-0.0002441406,0,4.077,0,0,0,0,nan,2,-1,0,0,0,0,0,0,0,0,0,1,1,1
49.059,0.001009,-0.001953125,0,-0.001953125,-0.0078125,-0.0234375,9.789062,0,0,0,0,0,0,-0.0001220703,0.0001220703,-0.0002441406,0,0,-0.0002441406,0,4.077,0,0,0,0,nan,2,-1,0,0,0,0,0,0,0,0,0,1,1,1
49.069,0.001008,0,0,0,0.046875,-0.015625,9.867188,0,0,0,0,0,0,-0.0001220703,0.0001220703,-0.0002441406,0,0,-0.0002441406,0,4.077,0,0,0,0,nan,2,-1,0,0,0,0,0,0,0,0,0,1,1,1
49.078,0.001002,0,0.001953125,0,0.0078125,-0.0234375,9.804688,0,0,0,0,0,0,-0.0001220703,0.0001220703,-0.0002441406,0,0,-0.0002441406,0,4.077,0,0,0,0,nan,2,-1,0,0,0,0,0,0,0,0,0,1,1,1
49.088,0.001008,-0.001953125,0,-0.001953125,0.0078125,0.015625,9.796875,0,-0.001953125,-0.001953125,0,0,0,-0.0001220703,0.0001220703,-0.0002441406,0,0,-0.0002441406,0,4.077,0,0,0,0,nan,2,-1,0,0,0,0,0,0,0,0,0,1,1,1
49.098,0.001004,0,0,-0.001953125,-0.03125,0.03125,9.757812,0,0,-0.001953125,0,0,0,-0.0001220703,0.0001220703,-0.0002441406,0,0,-0.0002441406,0,4.077,0,0,0,0,nan,2,-1,0,0,0,0,0,0,0,0,0,1,1,1
49.108,0.001006,0,0.00390625,0.001953125,-0.0234375,0.0078125,9.835938,0,0,0,0,0,0,-0.0001220703,0.0001220703,-0.0002441406,0,0,-0.0002441406,0,4.077,0,0,0,0,nan,2,-1,0,0,0,0,0,0,0,0,0,1,1,1
49.118,0.001006,0.001953125,-0.001953125,-0.001953125,0.0078125,0.0390625,9.820312,0,0,-0.001953125,0,0,0,-0.0001220703,0.0001220703,-0.0002441406,0,0,-0.0002441406,0,4.077,0,0,0,0,nan,2,-1,0,0,0,0,0,0,0,0,0,1,1,1
49.128,0.001006,0,0.001953125,0.00390625,-0.015625,0.0078125,9.8125,-0.001953125,0,0.001953125,0,0,0,-0.0001220703,0.0001220703,-0.0002441406,0,0,-0.0002441406,0,4.077,0,0,0,0,nan,2,-1,0,0,0,0,0,0,0,0,0,1,1,1
49.139,0.001016,0,0,0,-0.0078125,0.0234375,9.835938,0,0,0,0,0,0,-0.0001220703,0.0001220703,-0.0002441406,0,0,-0.0002441406,0,4.077,0,0,0,0,nan,2,-1,0,0,0,0,0,0,0,0,0,1,1,1
49.149,0.001029,0,0,0,0.0234375,-0.015625,9.84375,0,0,0,0,0,0,-0.0001220703,0.0001220703,-0.0002441406,0,0,-0.0002441406,0,4.077,0,0,0,0,nan,2,-1,0,0,0,0,0,0,0,0,0,1,1,1
49.159,0.001022,-0.00390625,0.001953125,0,0,-0.03125,9.796875,-0.001953125,0.001953125,0,0,0,0,-0.0001220703,0.0001220703,-0.0002441406,0,0,-0.0002441406,0,4.077,0,0,0,0,nan,2,-1,0,0,0,0,0,0,0,0,0,1,1,1
49.169,0.001012,0,0.001953125,0,0,0.0234375,9.828125,-0.001953125,0.001953125,0,0,0,0,-0.0001220703,0.0001220703,-0.0002441406,0,0,-0.0002441406,0,4.077,0,0,0,0,nan,2,-1,0,0,0,0,0,0,0,0,0,1,1,1
49.178,0.000982,-0.001953125,0,0,0.0078125,-0.0234375,9.757812,-0.001953125,0,0,0,0,0,-0.0001220703,0.0001220703,-0.0002441406,0,0,-0.0002441406,0,4.077,0,0,0,0,nan,2,-1,0,0,0,0,0,0,0,0,0,1,1,1
49.188,0.001004,0.00390625,0,-0.001953125,-0.015625,0.015625,9.890625,0.001953125,0,-0.001953125,0,0,0,-0.0001220703,0.0001220703,-0.0002441406,0,0,-0.0002441406,0,4.077,0,0,0,0,nan,2,-1,0,0,0,0,0,0,0,0,0,1,1,1
49.198,0.001004,-0.001953125,0.001953125,0.001953125,0.0078125,0,9.8125,0,0.001953125,0,0,0,0,-0.0001220703,0.0001220703,-0.0002441406,0,0,-0.0002441406,0,4.077,0,0,0,0,nan,2,-1,0,0,0,0,0,0,0,0,0,1,1,1
49.208,0.001001,0,0,0.001953125,0,0.0078125,9.773438,-0.001953125,0,0,0,0,0,-0.0001220703,0.0001220703,-0.0002441406,0,0,-0.0002441406,0,4.077,0,0,0,0,nan,2,-1,0,0,0,0,0,0,0,0,0,1,1,1
49.218,0.001047,0.001953125,0,0.001953125,-0.015625,0.0234375,9.8125,0,-0.001953125,0,0,0,0,-0.0001220703,0.0001220703,-0.0002441406,0,0,-0.0002441406,0,4.077,0,0,0,0,nan,2,-1,0,0,0,0,0,0,0,0,0,1,1,1
49.229,0.001049,0,0.005859375,0,0.03125,0.015625,9.789062,0,0.001953125,0,0,0,0,-0.0001220703,0.0001220703,-0.0002441406,0,0,-0.0002441406,0,4.077,0,0,0,0,nan,2,0.002,0,0,0,0,0,0,0,0,0,1,2,1
49.239,0.001011,0.00390625,-0.001953125,-0.001953125,0.015625,0.0078125,9.820312,0.001953125,0,-0.001953125,0,0,0,-0.0001220703,0.0001220703,-0.0002441406,0,0,-0.0002441406,0,4.077,0,0,0,0,nan,2,0.012,0,0,0,0,0,0,0,0,0,1,2,1
49.249,0.001042,0,0,-0.001953125,0.0078125,0.03125,9.8125,0,0.001953125,-0.001953125,0,0,0,-0.0001220703,0.0001220703,-0.0002441406,0,0,-0.0002441406,0,4.077,0,0,0,0,nan,2,0.022,0,0,0,0,0,0,0,0,0,1,2,1
49.259,0.001043,0,0,-0.001953125,0.0234375,0,9.820312,0,0,0,0,0,0,-0.0001220703,0.0001220703,-0.0002441406,0,0,-0.0002441406,0,4.077,0,0,0,0,nan,2,0.032,0,0,0,0,0,0,0,0,0,1,2,1
49.269,0.001006,0.001953125,-0.00390625,0,0.0078125,-0.0234375,9.773438,0,-0.001953125,0,0,0,0,-0.0001220703,0.0001220703,-0.0002441406,0,0,-0.0002441406,0,4.077,0,0,0,0,nan,2,0.042,0,0,0,0,0,0,0,0,0,1,2,1
49.278,0.001011,0,0,0,-0.0078125,-0.0234375,9.804688,-0.001953125,0,0,0,0,0,-0.0001220703,0.0001220703,-0.0002441406,0,0,-0.0002441406,0,4.077,0,0,0,0,nan,2,0.052,0,0,0,0,0,0,0,0,0,1,2,1
49.288,0.001014,-0.001953125,0.001953125,-0.001953125,-0.0078125,0.0078125,9.78125,-0.001953125,0.001953125,0,0,0,0,-0.0001220703,0.0001220703,-0.0002441406,0,0,-0.0002441406,0,4.077,0,0,0,0,nan,2,0.062,0,0,0,0,0,0,0,0,0,1,2,1
49.298,0.001014,0,-0.00390625,-0.001953125,0.0390625,-0.015625,9.851562,0,0,-0.001953125,0,0,0,-0.0001220703,0.0001220703,-0.0002441406,0,0,-0.0002441406,0,4.077,0,0,0,0,nan,2,0.072,0,0,0,0,0,0,0,0,0,1,2,1
49.308,0.001014,0.001953125,0.005859375,0,0.015625,-0.0390625,9.796875,0,0.001953125,0,0,0,0,-0.0001220703,0.0001220703,-0.0002441406,0,0,-0.0002441406,0,4.077,0,0,0,0,nan,2,0.082,0,0,0,0,0,0,0,0,0,1,2,1
49.318,0.001015,0.00390625,0,0.001953125,0.0078125,-0.0546875,9.804688,0.001953125,0,0.001953125,0,0,0,-0.0001220703,0.0001220703,-0.0002441406,0,0,-0.0002441406,0,4.077,0,0,0,0,nan,2,0.092,0,0,0,0,0,0,0,0,0,1,2,1
49.328,0.001014,0,-0.001953125,0,-0.0078125,0.0078125,9.796875,0,0,0,0,0,0,-0.0001220703,0.0001220703,-0.0002441406,0,0,-0.0002441406,0,4.077,0,0,0,0,nan,2,0.102,0,0,0,0,0,0,0,0,0,1,2,1
49.339,0.001015,0,-0.00390625,0.001953125,0.03125,-0.0078125,9.835938,0,0,0,0,0,0,-0.0001220703,0.0001220703,-0.0002441406,0,0,-0.0002441406,0,4.077,0,0,0,0,nan,2,0.112,0,0,0,0,0,0,0,0,0,1,2,1
49.349,0.001014,0.001953125,0,0,-0.015625,-0.0078125,9.835938,0,0,0,0,0,0,-0.0001220703,0.0001220703,-0.0002441406,0,0,-0.0002441406,0,4.077,0,0,0,0,nan,2,0.122,0,0,0,0,0,0,0,0,0,1,2,1
49.359,0.001015,-0.00390625,0.00390625,0,0.03125,0,9.804688,0,0.001953125,0,0,0,0,-0.0001220703,0.0001220703,-0.0002441406,0,0,-0.0002441406,0,4.077,0,0,0,0,nan,2,0.132,0,0,0,0,0,0,0,0,0,1,2,1
49.369,0.001014,0,0,0,0.03125,0.03125,9.820312,0,0,-0.001953125,0,0,0,-0.0001220703,0.0001220703,-0.0002441406,0,0,-0.0002441406,0,4.077,0,0,0,0,nan,2,0.142,0,0,0,0,0,0,0,0,0,1,2,1
49.378,0.001017,0,-0.001953125,0.001953125,-0.0078125,0.015625,9.789062,0,0,0.001953125,0,0,0,-0.0001220703,0.0001220703,-0.0002441406,0,0,-0.0002441406,0,4.077,0,0,0,0,nan,2,0.152,0,0,0,0,0,0,0,0,0,1,2,1
49.388,0.00101,-0.001953125,0,0,-0.015625,0.0078125,9.84375,0,0,0.001953125,0,0,0,-0.0001220703,0.0001220703,-0.0002441406,0,0,-0.0002441406,0,4.077,0,0,0,0,nan,2,0.162,0,0,0,0,0,0,0,0,0,1,2,1
49.398,0.001006,-0.001953125,-0.001953125,-0.001953125,0,-0.0078125,9.820312,-0.001953125,0,0,0,0,0,-0.0001220703,0.0001220703,-0.0002441406,0,0,-0.0002441406,0,4.077,0,0,0,0,nan,2,0.172,0,0,0,0,0,0,0,0,0,1,2,1
49.408,0.001011,-0.001953125,0,0,-0.03125,-0.0078125,9.820312,-0.001953125,0,0,0,0,0,-0.0002441406,0.0001220703,-0.0002441406,0,0,-0.0002441406,0,4.077,0,0,0,0,nan,2,0.182,0,0,0,0,0,0,0,0,0,1,2,1
49.418,0.001011,0,0.001953125,-0.001953125,0.0234375,-0.0234375,9.796875,0,0,-0.001953125,0,0,0,-0.0002441406,0.0001220703,-0.0002441406,0,0,-0.0002441406,0,4.077,0,0,0,0,nan,2,0.192,0,0,0,0,0,0,0,0,0,1,2,1
49.429,0.00103,-0.001953125,-0.001953125,-0.001953125,-0.015625,0.0078125,9.804688,0,0,0,0,0,0,-0.0002441406,0.0001220703,-0.0002441406,0,0,-0.0002441406,0,4.077,0,0,0,0,nan,2,0.202,0,0,0,0,0,0,0,0,0,1,2,1
49.438,0.00095,-0.001953125,-0.001953125,0.001953125,-0.015625,0.0234375,9.804688,0,0,0,0,0,0,-0.0002441406,0.0001220703,-0.0002441406,0,0,-0.0002441406,0,4.077,0,0,0,0,nan,2,0.212,0,0,0,0,0,0,0,0,0,1,2,1
49.449,0.001011,0.001953125,-0.001953125,0,0.015625,-0.015625,9.828125,0,-0.001953125,0,0,0,0,-0.0002441406,0.0001220703,-0.0002441406,0,0,-0.0002441406,0,4.077,0,0,0,0,nan,2,0.222,0,0,0,0,0,0,0,0,0,1,2,1
49.459,0.001024,-0.001953125,0.01367188,-0.00390625,0,-0.015625,9.789062,0,0.00390625,0,0,0,0,-0.0002441406,0.0001220703,-0.0002441406,0,0,-0.0002441406,0,4.077,0,0,0,0,nan,2,0.232,1,0,0.1000061,0.1000061,0.1000061,0.1000061,0,0,0,1,2,0.968254
49.469,0.001011,-0.001953125,-0.00390625,-0.001953125,-0.03125,-0.015625,9.804688,-0.001953125,0,-0.001953125,0,0,0,-0.0002441406,0.0001220703,-0.0002441406,0,0,-0.0002441406,0,4.077,0,0,0,0,nan,2,0.242,1,0,0.1000061,0.1000061,0.1000061,0.1000061,0,0,0,1,2,0.968254
49.478,0.001001,-0.00390625,-0.0078125,0.0078125,-0.1015625,0.046875,9.929688,-0.001953125,-0.00390625,0.005859375,0,0,0,-0.0002441406,0.0001220703,-0.0002441406,0,0,-0.0002441406,0,4.077,0,0,0,0,nan,2,0.251,1,0,0.1000061,0.1000061,0.1000061,0.1000061,0,0,0,1,2,0.7460318
49.488,0.000999,-0.001953125,0.005859375,0.00390625,0.1953125,0.1328125,9.796875,0.001953125,0.005859375,-0.001953125,0,0,0,-0.0002441406,0.0001220703,-0.0002441406,0,0,-0.0002441406,0,4.077,0,0,0,0,nan,2,0.262,1,0,0.1000061,0.1000061,0.1000061,0.1000061,0,0,0,1,2,0.984127
49.498,0.001004,-0.0078125,-0.01367188,-0.005859375,-0.4453125,0.2109375,9.195312,-0.01171875,0,0,0,0,0,-0.0002441406,0.0001220703,-0.0002441406,0,0,-0.0002441406,0,4.077,0,0,0,0,nan,2,0.272,1,0,0.1000061,0.1000061,0.1000061,0.1000061,0,0,0,1,2,0
49.508,0.001004,0.009765625,0.009765625,0.015625,1.023438,-0.203125,9.210938,0,0.00390625,0.005859375,0,0,0,-0.0002441406,0.0001220703,-0.0002441406,0,0,-0.0002441406,0,4.077,0,0,0,0,nan,2,0.282,1,0,0.1000061,0.1000061,0.1000061,0.1000061,0,0,0,1,2,0
49.518,0.001004,0.0390625,-0.009765625,-0.01757812,1.414062,1.078125,10.21094,0.00390625,-0.005859375,-0.001953125,0,0,0,-0.0002441406,0.0001220703,-0.0002441406,0,0,-0.0002441406,0,4.077,0,0,0,0,nan,2,0.292,1,0,0.1000061,0.1000061,0.1000061,0.1000061,0,0,0,1,2,0
49.528,0.001004,0.1054688,0.06445312,-0.03125,-0.75,3.773438,9.796875,0.02539062,0.00390625,0,0,0,0,-0.0002441406,0.0001220703,-0.0002441406,0,0,-0.0002441406,0,4.077,0,0,0,0,nan,2,0.302,1,0,0.1000061,0.1000061,0.1000061,0.1000061,0,0,0,1,2,0
49.539,0.001004,-0.078125,-0.1171875,0.02539062,1.265625,-4.023438,9.125,-0.0078125,0,0,0,0,0,-0.0002441406,0.0002441406,-0.0002441406,0,0,-0.0002441406,0,4.077,0,0,0,0,nan,2,0.312,1,0,0.1000061,0.1000061,0.1000061,0.1000061,0,0,0,1,2,0.4444444
49.549,0.001004,0,-0.04882812,-0.01171875,0.7578125,-0.59375,10.07031,-0.001953125,-0.01171875,-0.00390625,0,0,0,-0.0003662109,0.0001220703,-0.0002441406,0,0,-0.0002441406,0,4.077,0,0,0,0,nan,2,0.322,1,0,0.1000061,0.1000061,0.1000061,0.1000061,0,0,0,1,2,0.3650794
49.559,0.001004,-0.0390625,0,-0.01367188,2.335938,0.1171875,7.773438,-0.01171875,0.001953125,-0.001953125,0,0,0,-0.0003662109,0.0002441406,-0.0002441406,0,0,-0.0002441406,0,4.077,0,0,0,0,nan,2,0.332,1,0,0.1000061,0.1000061,0.1000061,0.1000061,0,0,0,1,2,0
49.569,0.001004,0.04492188,0.005859375,0.0078125,2.335938,2.09375,12.66406,0.001953125,0.001953125,0.01171875,0,0,0,-0.0004882812,0.0002441406,-0.0002441406,0,0,-0.0002441406,0,4.077,0,0,0,0,nan,2,0.342,1,0,0.1000061,0.1000061,0.1000061,0.1000061,0,0,0,1,2,0
49.578,0.001023,0.04882812,-0.015625,-0.005859375,0.5546875,4.96875,15.25,0.0078125,-0.009765625,0.005859375,0,0,0,-0.0003662109,0.0002441406,-0.0001220703,0,0,-0.0002441406,0,4.077,0,0,0,0,nan,2,0.351,1,0,0.1000061,0.1000061,0.1000061,0.1000061,0,0,0,1,2,0
49.588,0.001018,0.0390625,-0.05664062,0,0.2890625,-4.351562,12.96094,0.015625,-0.01757812,-0.005859375,0,0,0,-0.0003662109,0.0001220703,-0.0001220703,0,0,-0.0002441406,0,4.077,0,0,0,0,nan,2,0.362,1,0,0.1000061,0.1000061,0.1000061,0.1000061,0,0,0,1,2,0
49.598,0.00102,0.01757812,0.001953125,-0.01953125,1.726562,-0.21875,12.48438,0,0.001953125,-0.02148438,0,0,0,-0.0002441406,0,-0.0002441406,0,0,-0.0002441406,0,4.077,0,0,0,0,nan,2,0.372,1,0,0.1000061,0.1000061,0.1000061,0.1000061,0,0,0,1,2,0
49.608,0.001018,0.0625,-0.02148438,-0.0078125,0.1171875,1.234375,10.90625,0.005859375,0,-0.015625,0,0,0,-0.0003662109,0.0001220703,-0.0004882812,0,0,-0.0002441406,0,4.072,0,0,0,0,nan,2,0.382,1,0,0.1000061,0.1000061,0.1000061,0.1000061,0,0,0,1,2,0
49.618,0.001016,0.01367188,0.009765625,0.005859375,-0.6328125,-0.4296875,14.32812,0.0078125,-0.005859375,-0.001953125,0,0,0,-0.0002441406,0,-0.0006103516,0,0,-0.0002441406,0,4.072,0,0,0,0,nan,2,0.392,1,0,0.1000061,0.1000061,0.1000061,0.1000061,0,0,0,1,2,0
49.628,0.001016,-0.001953125,-0.01171875,0.01953125,-0.171875,-0.2421875,8.640625,-0.009765625,0.0078125,0.01171875,0,0,0,-0.0002441406,0.0001220703,-0.0004882812,0,0,-0.0002441406,0,4.072,0,0,0,0,nan,2,0.402,1,0,0.1000061,0.1000061,0.1000061,0.1000061,0,0,0,1,2,0
49.639,0.001016,0.015625,0.02148438,-0.00390625,-0.2109375,1.5,11.60156,0.001953125,-0.0078125,0.005859375,0,0,0,-0.0003662109,0,-0.0003662109,0,0,-0.0002441406,0,4.072,0,0,0,0,nan,2,0.412,1,0,0.1000061,0.1000061,0.1000061,0.1000061,0,0,0,1,2,0
49.649,0.001016,0,-0.0390625,0.01171875,-0.0703125,-0.296875,8.53125,0.001953125,-0.005859375,0.005859375,0,0,0,-0.0004882812,0,-0.0003662109,0,0,-0.0002441406,0,4.072,0,0,0,0,nan,2,0.422,1,0,0.1000061,0.1000061,0.1000061,0.1000061,0,0,0,1,2,0
49.659,0.001016,0.0078125,-0.02929688,0.04296875,0.1484375,0.3046875,8.148438,-0.005859375,-0.005859375,0.02734375,0,0,0,-0.0004882812,0,-0.0002441406,0,0,-0.0002441406,0,4.072,0,0,0,0,nan,2,0.432,1,0,0.1000061,0.1000061,0.1000061,0.1000061,0,0,0,1,2,0
49.668,0.00105,-0.01367188,0.03125,0.04296875,0.4453125,-0.359375,9.84375,-0.005859375,0.01171875,0.04296875,0,0,0,-0.0004882812,0.0001220703,0.0001220703,0,0,-0.0002441406,0,4.072,0,0,0,0,nan,2,0.441,1,0,0.1000061,0.1000061,0.1000061,0.1000061,0,0,0,1,2,0.8412699
49.678,0.001019,-0.03515625,0.0390625,0.00390625,0.1796875,-0.5625,8.414062,-0.01171875,0.00390625,0.02929688,0,0,0,-0.0006103516,0.0001220703,0.0004882812,0,0,-0.0002441406,0,4.072,0,0,0,0,nan,2,0.451,1,0,0.1000061,0.1000061,0.1000061,0.1000061,0,0,0,1,2,0
49.688,0.001033,0,0.0078125,-0.0078125,-0.171875,0.328125,9.445312,-0.001953125,-0.005859375,-0.001953125,0,0,0,-0.0007324219,0.0001220703,0.0006103516,0,0,-0.0002441406,0,4.072,0,0,0,0,nan,2,0.462,1,0,0.1000061,0.1000061,0.1000061,0.1000061,0,0,0,1,2,0.2698413
49.698,0.001008,0.01953125,0.009765625,-0.005859375,-0.1328125,0.5546875,10.42969,0.01171875,0,-0.009765625,0,0,0,-0.0006103516,0,0.0004882812,0,0,-0.0002441406,0,4.072,0,0,0,0,nan,2,0.472,1,0,0.1000061,0.1000061,0.1000061,0.1000061,0,0,0,1,2,0
49.708,0.001025,-0.015625,-0.009765625,-0.01171875,0.25,0.0625,9.757812,-0.001953125,-0.005859375,-0.015625,0,0,0,-0.0006103516,0,0.0003662109,0,0,-0.0002441406,0,4.072,0,0,0,0,nan,2,0.482,1,0,0.1000061,0.1000061,0.1000061,0.1000061,0,0,0,1,2,0.8888889
49.718,0.000702,0.02734375,-0.02929688,0.01171875,0.8359375,0.40625,9.570312,-0.00390625,0.001953125,0.00390625,0.00390625,0,0,-0.0007324219,0,0.0003662109,0,0,-0.0002441406,0.1421204,4.072,0,0,0,0.09997559,nan,2,0.009,1,128,0.1640625,0.1235657,0.1624146,0.1183777,0,0,0,1,2,0.6031746
49.728,0.000958,-0.0234375,0.01367188,0,-1.171875,0.140625,10.82812,-0.005859375,0.009765625,0.001953125,0.00390625,0,0,-0.0007324219,0.0001220703,0.0003662109,0,0,-0.0002441406,0.1421204,4.072,0,0,0,0.09997559,nan,2,0.019,1,128,0.1377869,0.1429138,0.1383667,0.1493835,0,0,0,1,2,0
49.739,0.000939,0.015625,0,0.009765625,0.171875,1.492188,13.28125,-0.001953125,-0.009765625,0.001953125,0.00390625,0,0,-0.0007324219,0,0.0003662109,0,0,-0.0002441406,0.1421204,4.072,0,0,0,0.09997559,nan,2,0.029,1,128,0.1487732,0.1385498,0.1448975,0.1362,0,0,0,1,2,0
49.749,0.001002,0,-0.0234375,0.06640625,1.09375,-0.6875,12.03125,0.01757812,-0.01367188,0.04492188,0.00390625,0,0,-0.0006103516,0,0.0006103516,0,0,-0.0002441406,0.1421204,4.072,0,0,0,0.09997559,nan,2,0.039,1,128,0.1955872,0.09262085,0.1957703,0.08444214,0,0,0,1,2,0
49.759,0.000954,-0.04492188,-0.0234375,0.046875,1.757812,-0.2421875,12.08594,-0.009765625,0.0078125,0.06054688,0.001953125,0,0,-0.0006103516,0,0.001220703,0,0,-0.0002441406,0.1421204,4.072,0,0,0,0.09997559,nan,2,0.049,1,128,0.1663818,0.1177673,0.1604614,0.1238403,0,0,0,1,2,0
49.768,0.001025,0.03515625,-0.00390625,0.06445312,-0.3203125,-5.226562,7.484375,-0.0078125,0.001953125,0.06054688,0.00390625,0,0,-0.0007324219,0.0001220703,0.001831055,0,0,-0.0002441406,0.1421204,4.072,0,0,0,0.09997559,nan,2,0.059,1,128,0.1624451,0.123291,0.1633911,0.1192932,0,0,0,1,2,0
49.778,0.000969,-0.02734375,0.01171875,0.01953125,-1.179688,1.484375,10.01562,-0.01171875,-0.00390625,0.03710938,0.005859375,0,0,-0.0008544922,0,0.002319336,0,0,-0.0002441406,0.1421204,4.072,0,0,0,0.09997559,nan,2,0.004,1,128,0.1288147,0.1554565,0.1244202,0.1596985,0,0,0,1,2,0.1746032
49.788,0.001027,-0.00390625,-0.0078125,0.01367188,2.46875,-0.4609375,8.492188,0.0078125,-0.0078125,0.01757812,0.005859375,0,0,-0.0008544922,0,0.002563477,0,0,-0.0002441406,0.1421204,4.072,0,0,0,0.09997559,nan,2,0.014,1,128,0.1339111,0.1528015,0.133667,0.1480103,0,0,0,1,2,0
49.798,0.001003,-0.02539062,-0.0078125,0.01757812,-1.09375,-2.367188,8.257812,-0.001953125,0,0.01953125,0.00390625,0,0,-0.0008544922,0,0.002685547,0,0,-0.0002441406,0.1421204,4.072,0,0,0,0.09997559,nan,2,0.024,1,128,0.1538086,0.1318665,0.1480713,0.1346741,0,0,0,1,2,0
49.808,0.001017,-0.005859375,0.0234375,-0.01367188,-0.109375,6.414062,12.92188,-0.01367188,0.01171875,0.001953125,0.005859375,0,0,-0.0008544922,0.0001220703,0.002807617,0,0,-0.0002441406,0.1421204,4.072,0,0,0,0.09997559,nan,2,0.034,1,128,0.1216431,0.1572266,0.1213074,0.1682434,0,0,0,1,2,0
49.819,0.0009869999,-0.03710938,0.05078125,-0.05078125,-0.6875,-8.007812,6.773438,-0.02929688,0.0234375,-0.046875,0.005859375,0,0,-0.0009765625,0.0001220703,0.002563477,0,0,-0.0002441406,0.1421204,4.072,0,0,0,0.09997559,nan,2,0.006,1,128,0.09014893,0.1834412,0.08953857,0.2052917,0,0,0,1,2,0
49.829,0.001036,0.005859375,0.01171875,-0.05273438,-1.640625,0.7890625,10.46875,0.0078125,0.009765625,-0.05078125,0.005859375,-0.001953125,0,-0.001098633,0.0003662109,0.002075195,0,0,-0.0002441406,0.1421204,4.072,0,0,0,0.09997559,nan,2,0.016,1,128,0.1218872,0.1629333,0.1260681,0.1575317,0,0,0,1,2,0
49.839,0.001012,0.01757812,-0.03125,-0.03125,0.03125,4.398438,14.3125,0.0078125,-0.02148438,-0.02929688,0.005859375,-0.001953125,0,-0.001098633,0.0002441406,0.001708984,0,0,-0.0002441406,0.1421204,4.072,0,0,0,0.09997559,nan,2,0.026,1,128,0.1486816,0.1444702,0.1438904,0.1313782,0,0,0,1,2,0
49.849,0.00101,-0.04101562,0.02734375,-0.01953125,1.445312,2.398438,11.125,-0.009765625,0.005859375,-0.02148438,0.005859375,0,0,-0.0009765625,0.0001220703,0.001464844,0,0,-0.0002441406,0.1421204,4.072,0,0,0,0.09997559,nan,2,0.036,1,128,0.14328,0.1350098,0.1421204,0.1480103,0,0,0,1,2,0
49.858,0.001037,0.03320312,-0.015625,0.02148438,-0.625,1.921875,15.50781,-0.00390625,0.001953125,0.009765625,0.005859375,-0.001953125,0,-0.0009765625,0.0001220703,0.001342773,0,0,-0.0002441406,0.1421204,4.072,0,0,0,0.09997559,nan,2,0.045,1,128,0.1740112,0.1086731,0.1724548,0.1132812,0,0,0,1,2,0
49.869,0.00101,-0.01367188,0.005859375,0.001953125,-1.210938,-4.46875,9.1875,-0.01171875,0.00390625,0.009765625,0.005859375,0,0,-0.0009765625,0.0001220703,0.001586914,0,0,-0.0002441406,0.1421204,4.072,0,0,0,0.09997559,nan,2,0.01,1,128,0.1411743,0.1399841,0.1383057,0.1489868,0,0,0,1,2,0.01587302
49.878,0.001011,0.01953125,-0.01757812,0.001953125,0.2578125,5.03125,14.01562,0.0078125,-0.009765625,0.0078125,0.005859375,0,0,-0.001098633,0.0001220703,0.001586914,0,0,-0.0002441406,0.1421204,4.072,0,0,0,0.09997559,nan,2,0.019,1,128,0.13974,0.1504211,0.1393738,0.1388855,0,0,0,1,2,0
49.888,0.001005,-0.01367188,0.02734375,0.00390625,-1.460938,6.453125,9.40625,-0.005859375,0,0.005859375,0.005859375,0,0,-0.0009765625,0,0.001708984,0,0,-0.0002441406,0.1421204,4.072,0,0,0,0.09997559,nan,2,0.029,1,128,0.1439514,0.1349487,0.1399536,0.1495667,0,0,0,1,2,0
49.898,0.001007,0.0390625,-0.001953125,0.03320312,0.5078125,1.632812,7.03125,0.02734375,-0.01757812,0.02539062,0.005859375,0,0,-0.0009765625,-0.0001220703,0.001831055,0,0,-0.0002441406,0.1421204,4.072,0,0,0,0.09997559,nan,2,0.039,1,128,0.1654358,0.1238403,0.1705627,0.1086121,0,0,0,1,2,0
49.908,0.000991,-0.0234375,0.046875,0.005859375,2,-5.265625,10.33594,-0.02148438,0.03710938,0.015625,0.005859375,0,0,-0.0009765625,0.0001220703,0.002075195,0,0,-0.0002441406,0.1421204,4.072,0,0,0,0.09997559,nan,2,0.049,1,128,0.1312561,0.1417542,0.1343689,0.1610413,0,0,0,1,2,0
49.918,0.001008,-0.04101562,0.00390625,-0.02148438,1.226562,-4.390625,9.226562,0.001953125,-0.01757812,-0.0078125,0.005859375,0,0,-0.0009765625,0.0001220703,0.002197266,0,0,-0.0002441406,0.1421204,4.072,0,0,0,0.09997559,nan,2,0.008,1,128,0.1172485,0.1744385,0.1064148,0.1702881,0,0,0,1,2,0.01587302
49.929,0.00103,0.02148438,-0.02148438,-0.0078125,-2.335938,-2.34375,4.929688,0.009765625,-0.005859375,-0.015625,0.005859375,-0.001953125,0,-0.0009765625,0.0002441406,0.001953125,0,0,-0.0002441406,0.1421204,4.072,0,0,0,0.09997559,nan,2,0.018,1,128,0.1347351,0.1521912,0.1364746,0.144989,0,0,0,1,2,0
49.939,0.001003,0.01757812,0.005859375,0.005859375,2.3125,-4.21875,10.24219,0.005859375,0,0,0.005859375,-0.001953125,0,-0.0009765625,0.0002441406,0.001953125,0,0,-0.0002441406,0.1421204,4.072,0,0,0,0.09997559,nan,2,0.028,1,128,0.1535339,0.1308899,0.154541,0.1294556,0,0,0,1,2,0
49.949,0.001041,0.01367188,-0.009765625,0.00390625,-2.328125,0.8515625,15.34375,0.001953125,0.001953125,0.00390625,0.005859375,-0.001953125,0,-0.0009765625,0.0002441406,0.001953125,0,0,-0.0002441406,0.1421204,4.072,0,0,0,0.09997559,nan,2,0.038,1,128,0.1443176,0.1394958,0.1445923,0.1400146,0,0,0,1,2,0
49.959,0.00101,0.0078125,0.01367188,-0.009765625,0.7109375,8.109375,9.539062,0.00390625,-0.005859375,-0.00390625,0.005859375,0,0,-0.0009765625,0.0001220703,0.001953125,0,0,-0.0002441406,0.1421204,4.072,0,0,0,0.09997559,nan,2,0.048,1,128,0.1317444,0.1523743,0.1327515,0.1515503,0,0,0,1,2,0
49.969,0.00101,-0.015625,0.01953125,0.01171875,0.1015625,-3.320312,11.46875,-0.015625,0.005859375,0.00390625,0.005859375,0,0,-0.001098633,0.0001220703,0.001953125,0,0,-0.0002441406,0.1421204,4.072,0,0,0,0.09997559,nan,2,0.059,1,128,0.1575928,0.1242065,0.1531372,0.1334839,0,0,0,1,2,0
49.978,0.000978,0.03515625,0.00390625,0.04101562,2.523438,-1.015625,13.42969,0.01953125,0.005859375,0.02929688,0.005859375,-0.001953125,0,-0.001098633,0.0002441406,0.002075195,0,0,-0.0002441406,0.1421204,4.072,0,0,0,0.09997559,nan,2,0.068,1,128,0.1717224,0.1102295,0.1828003,0.1036682,0,0,0,1,2,0
49.988,0.001023,-0.0078125,0.005859375,0.01953125,-3.007812,3.46875,13.91406,-0.0078125,0.01171875,0.02929688,0.005859375,-0.001953125,0,-0.0009765625,0.0002441406,0.002441406,0,0,-0.0002441406,0.1421204,4.072,0,0,0,0.09997559,nan,2,0.005,1,128,0.1461182,0.1344604,0.1424561,0.1453857,0,0,0,1,2,0
49.998,0.001061,0.02734375,-0.0234375,-0.03320312,1.789062,0.0703125,2.046875,0.01953125,-0.009765625,-0.01757812,0.005859375,-0.001953125,0,-0.0009765625,0.0002441406,0.002441406,0,0,-0.0002441406,0.1421204,4.072,0,0,0,0.09997559,nan,2,0.015,1,128,0.09341431,0.1966858,0.09484863,0.1834717,0,0,0,1,2,0
50.008,0.00101,-0.03320312,0.02148438,-0.005859375,-1.039062,-6.148438,11.44531,-0.046875,0.02148438,-0.01367188,0.005859375,-0.001953125,0,-0.001098633,0.0003662109,0.002319336,0,0,-0.0002441406,0.1421204,4.072,0,0,0,0.09997559,nan,2,0.025,1,128,0.1463928,0.1304932,0.1348572,0.1566772,0,0,0,1,2,0
50.019,0.001016,-0.00390625,-0.04296875,0.02539062,0.03125,-0.453125,5.710938,-0.009765625,-0.009765625,0.01757812,0.0078125,-0.00390625,0,-0.001342773,0.0004882812,0.002319336,0,0,-0.0002441406,0.1421204,4.072,0,0,0,0.09997559,nan,2,0.003,1,128,0.1785278,0.1157532,0.1699829,0.1041565,0,0,0,1,2,0
50.028,0.00101,-0.02148438,0.0390625,0,0.5703125,-1.039062,15.8125,0.01367188,0.00390625,0.01367188,0.005859375,-0.001953125,0,-0.0009765625,0.0002441406,0.002563477,0,0,-0.0002441406,0.1421204,4.072,0,0,0,0.09997559,nan,2,0.013,1,128,0.1411438,0.1336975,0.1450195,0.1485596,0,0,0,1,2,0
50.039,0.00101,-0.125,0.05859375,0.001953125,-1.648438,4.867188,10.03125,-0.08007812,0.0546875,0.00390625,0.0078125,-0.00390625,0,-0.001342773,0.0007324219,0.002563477,0,0,-0.0002441406,0.1421204,4.072,0,0,0,0.09997559,nan,2,0.023,1,128,0.1467896,0.1222229,0.1320801,0.1672974,0,0,0,1,2,0
50.049,0.00101,0.1015625,-0.0703125,0.01367188,1.664062,-3.617188,8.507812,0.0234375,-0.0234375,0.015625,0.009765625,-0.005859375,0,-0.001586914,0.0008544922,0.002685547,0,0,-0.0002441406,0.1421204,4.072,0,0,0,0.09997559,nan,2,0.033,1,128,0.1576843,0.1437073,0.159729,0.1072998,0,0,0,1,2,0.1269841
50.059,0.000964,-0.01367188,0.01953125,0.009765625,-1.609375,-1.898438,5.695312,0.02539062,-0.01367188,0.01367188,0.0078125,-0.00390625,0,-0.001342773,0.0006103516,0.002807617,0,0,-0.0002441406,0.1421204,4.072,0,0,0,0.09997559,nan,2,0.043,1,128,0.137146,0.1448059,0.1416626,0.1448059,0,0,0,1,2,0
50.069,0.00101,-0.015625,0.01367188,0.02148438,-0.0546875,0.6875,16.375,-0.02929688,0.02539062,0.01953125,0.009765625,-0.00390625,0,-0.001586914,0.0007324219,0.002929688,0,0,-0.0002441406,0.1421204,4.072,0,0,0,0.09997559,nan,2,0.053,1,128,0.1556091,0.1209106,0.1547546,0.1371765,0,0,0,1,2,0
50.078,0.001054,0.04492188,-0.02148438,-0.05664062,0.0546875,-6.304688,3.992188,0.06640625,-0.03125,-0.0390625,0.0078125,-0.00390625,0,-0.001220703,0.0006103516,0.002807617,0,0,-0.0002441406,0.1421204,4.072,0,0,0,0.09997559,nan,2,0.063,1,128,0.07363892,0.2195435,0.08499146,0.1902466,0,0,0,1,2,0
50.088,0.000998,-0.05078125,-0.00390625,-0.02929688,0.125,1.210938,8.382812,0.001953125,-0.0078125,-0.04296875,0.005859375,-0.00390625,0,-0.0009765625,0.0004882812,0.002319336,0,0,-0.0002441406,0.1421204,4.072,0,0,0,0.09997559,nan,2,0.001,1,128,0.1383362,0.1455383,0.1292725,0.155304,0,0,0,1,2,0
50.098,0.00101,-0.04101562,-0.04882812,-0.0234375,-0.5859375,-0.7265625,15.41406,-0.05859375,-0.01953125,-0.0234375,0.009765625,-0.00390625,0,-0.001708984,0.0006103516,0.002075195,0,0,-0.0002441406,0.1421204,4.072,0,0,0,0.09997559,nan,2,0.011,1,128,0.1532898,0.1434326,0.1316833,0.1400146,0,0,0,1,2,0
50.108,0.001006,-0.05664062,-0.02734375,-0.05273438,0.1796875,-0.34375,8.9375,0.00390625,-0.0546875,-0.046875,0.009765625,0,0,-0.001708984,0.0001220703,0.001708984,0,0,-0.0002441406,0.1421204,4.072,0,0,0,0.09997559,nan,2,0.021,1,128,0.1118774,0.181366,0.1014709,0.1737061,0,0,0,1,2,0
50.119,0.001029,0.04296875,0,0,-2.171875,1.796875,11.83594,-0.00390625,-0.001953125,-0.01953125,0.01171875,0,0,-0.002075195,0,0.001342773,0,0,-0.0002441406,0.1421204,4.072,0,0,0,0.09997559,nan,2,0.031,1,128,0.1558838,0.1238708,0.1678162,0.1208496,0,0,0,1,2,0
50.128,0.001008,0.0390625,-0.05859375,0.02539062,0.3359375,3.625,16.58594,0.01757812,-0.05273438,0.005859375,0.01171875,0.001953125,0,-0.002075195,-0.0001220703,0.001342773,0,0,-0.0002441406,0.1421204,4.072,0,0,0,0.09997559,nan,2,0.041,1,128,0.1807861,0.1208191,0.1724548,0.09432983,0,0,0,1,2,0
50.139,0.001056,-0.1054688,0.0703125,0.02148438,2.210938,1.117188,8.867188,-0.06640625,0.01953125,0.0234375,0.015625,0.001953125,0,-0.002563477,-0.0002441406,0.001464844,0,0,-0.0002441406,0.1421204,4.072,0,0,0,0.09997559,nan,2,0.052,1,128,0.1630554,0.1090088,0.1546631,0.1416931,0,0,0,1,2,0
50.149,0.000994,0.04882812,-0.07226562,0.04101562,-1.71875,-3.070312,4.5625,0.03710938,-0.03515625,0.02929688,0.015625,0.001953125,0,-0.002685547,-0.0002441406,0.001708984,0,0,-0.0002441406,0.1421204,4.072,0,0,0,0.09997559,nan,2,0.062,1,128,0.160675,0.139679,0.1608887,0.1072083,0,0,0,1,2,0
50.159,0.001002,0,-0.01171875,0,-0.34375,-0.5234375,15.35938,0.0078125,-0.01171875,0.01953125,0.015625,0.001953125,0,-0.002441406,-0.0006103516,0.002075195,0,0,-0.0002441406,0,4.072,0,0,0,0,nan,2,0.005,1,128,0.1000061,0.1000061,0.1000061,0.1000061,0,0,0,1,2,0
50.169,0.001017,-0.08007812,0.04492188,-0.001953125,-1.453125,3.648438,7.625,-0.04101562,0.01953125,-0.01171875,0.015625,0.001953125,0,-0.002563477,-0.0004882812,0.001953125,0,0,-0.0002441406,0,4.072,0,0,0,0,nan,2,0.015,1,128,0.1000061,0.1000061,0.1000061,0.1000061,0,0,0,1,2,0
50.178,0.001026,0.08398438,-0.03125,0.01171875,-1.164062,-5.40625,9.710938,0.0390625,-0.01367188,0.01171875,0.015625,0.001953125,0,-0.002441406,-0.0004882812,0.002075195,0,0,-0.0002441406,0,4.072,0,0,0,0,nan,2,0.024,1,128,0.1000061,0.1000061,0.1000061,0.1000061,0,0,0,1,2,0
50.188,0.000998,0.06445312,-0.015625,-0.02734375,0.6328125,2.976562,8.578125,0.03320312,-0.02148438,-0.01171875,0.015625,0.001953125,0,-0.002075195,-0.0007324219,0.002075195,0,0,-0.0002441406,0,4.072,0,0,0,0,nan,2,0.034,1,128,0.1000061,0.1000061,0.1000061,0.1000061,0,0,0,1,2,0
50.198,0.001029,0.09375,-0.02929688,-0.015625,0.7109375,-1.53125,13.39062,0.0546875,-0.0390625,-0.02148438,0.015625,0.001953125,0,-0.001586914,-0.001098633,0.001953125,0,0,-0.0002441406,0,4.072,0,0,0,0,nan,2,0.005,1,128,0.1000061,0.1000061,0.1000061,0.1000061,0,0,0,1,2,0
50.208,0.00101,0.001953125,-0.03320312,-0.009765625,1.242188,1.226562,20.02344,0.02148438,-0.01953125,-0.015625,0.015625,0.001953125,0,-0.001098633,-0.001220703,0.001708984,0,0,-0.0002441406,0,4.072,0,0,0,0,nan,2,0.015,1,128,0.1000061,0.1000061,0.1000061,0.1000061,0,0,0,1,2,0
50.218,0.001012,-0.01953125,0.0390625,-0.02734375,-2.078125,-2.15625,16.14844,-0.01953125,0.01953125,-0.01757812,0.015625,0.001953125,0,-0.001098633,-0.001220703,0.001586914,0,0,-0.0002441406,0,4.072,0,0,0,0,nan,2,0.025,1,128,0.1000061,0.1000061,0.1000061,0.1000061,0,0,0,1,2,0
50.228,0.001012,0.04101562,-0.0390625,-0.03515625,-0.1484375,-5.046875,9.359375,0.00390625,-0.015625,-0.02539062,0.015625,0.001953125,0,-0.001220703,-0.001098633,0.001342773,0,0,-0.0002441406,0,4.072,0,0,0,0,nan,2,0.035,1,128,0.1000061,0.1000061,0.1000061,0.1000061,0,0,0,1,2,0
50.238,0.001012,-0.02148438,0.02734375,-0.01757812,-0.6484375,-0.953125,12.28125,0,0.009765625,-0.0234375,0.015625,0.001953125,0,-0.001098633,-0.001220703,0.001098633,0,0,-0.0002441406,0,4.072,0,0,0,0,nan,2,0.045,1,128,0.1000061,0.1000061,0.1000061,0.1000061,0,0,0,1,2,0
50.249,0.001066,0.03515625,0.001953125,-0.01367188,-0.015625,3.289062,16.21094,-0.001953125,0,-0.009765625,0.015625,0.001953125,0,-0.001220703,-0.001098633,0.0009765625,0,0,0.0009765625,0,4.072,0,0,0,0,nan,2,0.056,0,0,0,0,0,0,0,0,0,1,2,0
50.259,0.001011,0.02148438,0.0078125,0.015625,1.75,3.109375,16.60938,-0.001953125,0.001953125,0.00390625,0.015625,0.001953125,0,-0.001098633,-0.001098633,0.0009765625,0,0,0.0009765625,0,4.077,0,0,0,0,nan,2,0.066,0,0,0,0,0,0,0,0,0,1,2,0
50.269,0.001011,-0.0078125,0.03125,0.02148438,1.0625,0.6015625,2.679688,-0.0078125,0.02148438,0.015625,0.015625,0.001953125,0,-0.001220703,-0.0009765625,0.0009765625,0,0,0.0009765625,0,4.077,0,0,0,0,nan,2,0.076,0,0,0,0,0,0,0,0,0,1,2,0
50.279,0.001018,-0.01367188,-0.02929688,0.005859375,-0.4609375,-3.632812,14.78906,-0.001953125,0.00390625,0.009765625,0.015625,0.001953125,0,-0.001342773,-0.0008544922,0.001220703,0,0,0.001220703,0,4.077,0,0,0,0,nan,2,0.086,0,0,0,0,0,0,0,0,0,1,2,0
50.289,0.001014,-0.01171875,0.015625,-0.01953125,-0.359375,-1.46875,14.85156,-0.009765625,0.0078125,-0.015625,0.015625,0.001953125,0,-0.001342773,-0.0008544922,0.001098633,0,0,0.001098633,0,4.077,0,0,0,0,nan,2,0.096,0,0,0,0,0,0,0,0,0,1,2,0
50.298,0.000993,0.05664062,0.01367188,-0.005859375,0.6640625,3.09375,7.976562,0.01367188,0.01953125,-0.01367188,0.015625,0.001953125,0,-0.001342773,-0.0006103516,0.0009765625,0,0,0.0009765625,0,4.077,0,0,0,0,nan,2,0.105,0,0,0,0,0,0,0,0,0,1,2,0
50.308,0.001004,0.04882812,-0.05859375,0.01953125,0.0859375,2.289062,9.5625,0.02929688,-0.0234375,-0.001953125,0.015625,0.001953125,0,-0.001098633,-0.0007324219,0.0008544922,0,0,0.0008544922,0,4.077,0,0,0,0,nan,2,0.115,0,0,0,0,0,0,0,0,0,1,2,1
50.318,0.001011,-0.04101562,0.009765625,-0.02148438,-0.5625,-2.90625,9.835938,-0.01757812,0,-0.009765625,0.015625,0.001953125,0,-0.0009765625,-0.0008544922,0.0008544922,0,0,0.0008544922,0,4.077,0,0,0,0,nan,2,0.125,0,0,0,0,0,0,0,0,0,1,2,1
50.328,0.000996,0.01953125,-0.01171875,-0.03125,-1,0.5078125,7.953125,-0.00390625,0,-0.02539062,0.015625,0.001953125,0,-0.001098633,-0.0008544922,0.0006103516,0,0,0.0006103516,0,4.077,0,0,0,0,nan,2,0.135,0,0,0,0,0,0,0,0,0,1,2,0
50.34,0.002676,-0.01953125,-0.00390625,-0.03125,0.640625,-0.234375,8.1875,-0.00390625,0.001953125,-0.02929688,0.015625,0.001953125,0,-0.0009765625,-0.0008544922,0.0003662109,0,0,0.0003662109,0,4.077,0,0,0,0,nan,2,0.147,0,0,0,0,0,0,0,0,0,1,2,0
50.349,0.001017,-0.005859375,-0.02929688,-0.03320312,-0.125,-0.515625,9.671875,-0.0078125,-0.00390625,-0.03125,0.015625,0.001953125,0,-0.001098633,-0.0009765625,0.0001220703,0,0,0.0001220703,0,4.077,0,0,0,0,nan,2,0.156,0,0,0,0,0,0,0,0,0,1,2,1
50.359,0.001082,0.01757812,-0.009765625,0.005859375,-0.59375,0.5625,10.21094,-0.001953125,0.005859375,0,0.015625,0.001953125,0,-0.001342773,-0.0007324219,-0.0001220703,0,0,-0.0001220703,0,4.077,0,0,0,0,nan,2,0.166,0,0,0,0,0,0,0,0,0,1,2,1
50.369,0.001024,-0.001953125,-0.05273438,-0.01171875,-0.5390625,-1.203125,10.04688,0.0078125,-0.01367188,-0.005859375,0.015625,0.001953125,0,-0.001220703,-0.0007324219,0,0,0,0,0,4.077,0,0,0,0,nan,2,0.176,0,0,0,0,0,0,0,0,0,1,2,1
50.379,0.001017,0.0078125,-0.0078125,0.005859375,0.328125,0.7578125,7.09375,0.009765625,0.001953125,-0.00390625,0.015625,0.001953125,0,-0.001098633,-0.0007324219,-0.0001220703,0,0,-0.0001220703,0,4.077,0,0,0,0,nan,2,0.186,0,0,0,0,0,0,0,0,0,1,2,0
50.389,0.001021,0.05078125,-0.0078125,0.02148438,-0.15625,-0.75,13.94531,0.009765625,-0.005859375,0.01757812,0.015625,0.001953125,0,-0.001098633,-0.0007324219,0,0,0,0,0,4.077,0,0,0,0,nan,2,0.196,0,0,0,0,0,0,0,0,0,1,2,0
50.398,0.001006,0.001953125,0.00390625,0.0078125,0.5078125,-1.523438,10.69531,-0.00390625,0.009765625,0.01171875,0.015625,0.001953125,0,-0.001098633,-0.0008544922,0.0001220703,0,0,0.0001220703,0,4.077,0,0,0,0,nan,2,0.205,0,0,0,0,0,0,0,0,0,1,2,0
50.408,0.00101,0.02539062,0.005859375,0.01171875,0.296875,-0.203125,15.85938,0,0.00390625,0.01171875,0.015625,0.001953125,0,-0.001098633,-0.0007324219,0.0002441406,0,0,0.0002441406,0,4.077,0,0,0,0,nan,2,0.215,0,0,0,0,0,0,0,0,0,1,2,0
50.418,0.001002,0.0390625,0.005859375,0.00390625,-0.875,-1,17.14062,0.001953125,0.001953125,0.00390625,0.015625,0.001953125,0,-0.001098633,-0.0007324219,0.0002441406,0,0,0.0002441406,0,4.077,0,0,0,0,nan,2,0.225,0,0,0,0,0,0,0,0,0,1,2,0
50.428,0.001009,-0.03515625,0.001953125,-0.01953125,-1.007812,0.9375,4.71875,-0.005859375,0.00390625,-0.01171875,0.015625,0.001953125,0,-0.001098633,-0.0007324219,0.0002441406,0,0,0.0002441406,0,4.077,0,0,0,0,nan,2,0.235,0,0,0,0,0,0,0,0,0,1,2,0
50.438,0.001009,0.01367188,-0.02148438,0.015625,-0.453125,-2.914062,11.15625,0,0.001953125,-0.00390625,0.015625,0.001953125,0,-0.001220703,-0.0006103516,0.0001220703,0,0,0.0001220703,0,4.077,0,0,0,0,nan,2,0.245,0,0,0,0,0,0,0,0,0,1,2,0
50.449,0.001009,0.01953125,-0.01367188,-0.0078125,1.992188,2.804688,9.953125,0.00390625,-0.00390625,-0.001953125,0.015625,0.001953125,0,-0.001098633,-0.0006103516,0.0001220703,0,0,0.0001220703,0,4.077,0,0,0,0,nan,2,0.255,0,0,0,0,0,0,0,0,0,1,2,1
50.459,0.001002,-0.01757812,0.02148438,-0.015625,-3,-1.804688,9.25,0.00390625,0.001953125,-0.01171875,0.015625,0.001953125,0,-0.001098633,-0.0006103516,0.0001220703,0,0,0.0001220703,0,4.077,0,0,0,0,nan,2,0.266,0,0,0,0,0,0,0,0,0,1,2,1
50.469,0.001016,0.0078125,0,-0.01757812,2.445312,4.710938,8.585938,-0.001953125,0.005859375,-0.009765625,0.015625,0.001953125,0,-0.0009765625,-0.0006103516,0,0,0,0,0,4.077,0,0,0,0,nan,2,0.276,0,0,0,0,0,0,0,0,0,1,2,1
50.479,0.001009,-0.005859375,-0.01171875,0.01757812,1.539062,-3.75,11.41406,-0.00390625,0.001953125,0.00390625,0.015625,0.001953125,0,-0.0008544922,-0.0004882812,0,0,0,0,0,4.077,0,0,0,0,nan,2,0.286,0,0,0,0,0,0,0,0,0,1,2,0
50.489,0.00101,-0.03320312,0.015625,0.009765625,-1.414062,-3.054688,11.04688,-0.009765625,-0.001953125,0.0078125,0.015625,0.001953125,0,-0.0009765625,-0.0004882812,0,0,0,0,0,4.077,0,0,0,0,nan,2,0.296,0,0,0,0,0,0,0,0,0,1,2,0
50.498,0.001007,0.0390625,-0.0234375,-0.00390625,4.429688,1.171875,10.41406,0.009765625,-0.00390625,0.001953125,0.015625,0.001953125,0,-0.0009765625,-0.0003662109,0,0,0,0,0,4.077,0,0,0,0,nan,2,0.305,0,0,0,0,0,0,0,0,0,1,2,0
50.508,0.001012,0.03515625,-0.03710938,-0.01171875,4.671875,2.945312,9.554688,0.0078125,-0.01757812,0.001953125,0.015625,0.001953125,0,-0.0008544922,-0.0004882812,0.0001220703,0,0,0.0001220703,0,4.077,0,0,0,0,nan,2,0.315,0,0,0,0,0,0,0,0,0,1,2,0
50.518,0.001018,-0.009765625,-0.04882812,0.01757812,4.1875,1.039062,8.960938,-0.01171875,-0.0078125,0.00390625,0.015625,0.001953125,0,-0.0008544922,-0.0006103516,0.0001220703,0,0,0.0001220703,0,4.077,0,0,0,0,nan,2,0.325,0,0,0,0,0,0,0,0,0,1,2,1
50.528,0.001004,0.00390625,-0.02734375,0.0078125,1.632812,0.21875,9.289062,0.005859375,-0.001953125,-0.005859375,0.015625,0.001953125,0,-0.0008544922,-0.0006103516,0.0001220703,0,0,0.0001220703,0,4.077,0,0,0,0,nan,2,0.335,0,0,0,0,0,0,0,0,0,1,2,1
50.538,0.001011,-0.05078125,-0.015625,-0.005859375,0.3359375,-2.5,10.32812,0.00390625,0.001953125,-0.00390625,0.015625,0.001953125,0,-0.0006103516,-0.0006103516,0,0,0,0,0,4.077,0,0,0,0,nan,2,0.345,0,0,0,0,0,0,0,0,0,1,2,1
50.548,0.001011,0.07421875,0.01757812,0.02148438,-0.7109375,2.570312,9.101562,0.0078125,0.001953125,0.009765625,0.015625,0.001953125,0,-0.0004882812,-0.0004882812,0.0001220703,0,0,0.0001220703,0,4.077,0,0,0,0,nan,2,0.355,0,0,0,0,0,0,0,0,0,1,2,1
50.559,0.000921,-0.0625,-0.06445312,-0.009765625,2.96875,-1.234375,9.507812,-0.00390625,-0.009765625,0.001953125,0.015625,0.001953125,0,-0.0004882812,-0.0006103516,0.0001220703,0,0,0.0001220703,0,4.077,0,0,0,0,nan,2,0.366,0,0,0,0,0,0,0,0,0,1,2,1
50.569,0.001011,0.0078125,0.0703125,-0.01171875,-2.992188,-0.0078125,11.09375,-0.00390625,0.00390625,-0.005859375,0.015625,0.001953125,0,-0.0004882812,-0.0007324219,0.0001220703,0,0,0.0001220703,0,4.077,0,0,0,0,nan,2,0.376,0,0,0,0,0,0,0,0,0,1,2,0
50.578,0.000998,0.02148438,0.08789062,-0.01171875,-2.445312,1.078125,10.90625,0.001953125,0.005859375,-0.005859375,0.015625,0.001953125,0,-0.0003662109,-0.0007324219,0.0001220703,0,0,0.0001220703,0,4.077,0,0,0,0,nan,2,0.385,0,0,0,0,0,0,0,0,0,1,2,0
50.589,0.001046,-0.09179688,-0.0390625,0.02929688,-0.203125,-2.382812,10.3125,-0.01757812,0.001953125,0.005859375,0.015625,0.001953125,0,-0.0004882812,-0.0007324219,0,0,0,0,0,4.077,0,0,0,0,nan,2,0.396,0,0,0,0,0,0,0,0,0,1,2,1
50.598,0.000984,-0.1289062,-0.02148438,0.03125,-0.6953125,-1.359375,10.39844,-0.01367188,-0.00390625,0.00390625,0.015625,0.001953125,0,-0.0004882812,-0.0007324219,0.0001220703,0,0,0.0001220703,0,4.077,0,0,0,0,nan,2,0.405,0,0,0,0,0,0,0,0,0,1,2,1
50.608,0.000945,-0.09375,0.0234375,0.02929688,-0.5390625,-0.9765625,10.38281,-0.0078125,-0.0078125,-0.001953125,0.015625,0.001953125,0,-0.0004882812,-0.0007324219,0.0001220703,0,0,0.0001220703,0,4.077,0,0,0,0,nan,2,0.415,0,0,0,0,0,0,0,0,0,1,2,1
50.618,0.001006,-0.03125,0.0546875,0.005859375,0.0078125,-0.046875,10.73438,0.001953125,-0.00390625,-0.00390625,0.015625,0.001953125,0,-0.0004882812,-0.0008544922,0.0001220703,0,0,0.0001220703,0,4.077,0,0,0,0,nan,2,0.425,0,0,0,0,0,0,0,0,0,1,2,1
50.628,0.001043,-0.02148438,0.046875,-0.009765625,0.1875,-0.0625,10.82812,0,0.00390625,0,0.015625,0.001953125,0,-0.0004882812,-0.0007324219,0.0001220703,0,0,0.0001220703,0,4.077,0,0,0,0,nan,2,0.435,0,0,0,0,0,0,0,0,0,1,2,0
50.638,0.000998,0.02734375,-0.06054688,0.00390625,0.6484375,0.34375,8.21875,-0.001953125,-0.01367188,0,0.015625,0.001953125,0,-0.0004882812,-0.0007324219,0.0001220703,0,0,0.0001220703,0,4.077,0,0,0,0,nan,2,0.445,0,0,0,0,0,0,0,0,0,1,2,0
50.648,0.000997,0.005859375,-0.01367188,-0.0078125,-0.6953125,0.2109375,10.69531,-0.001953125,0.0078125,-0.005859375,0.015625,0.001953125,0,-0.0004882812,-0.0007324219,0.0001220703,0,0,0.0001220703,0,4.077,0,0,0,0,nan,2,0.455,0,0,0,0,0,0,0,0,0,1,2,1
50.659,0.001004,0.015625,0.005859375,0.001953125,0.5859375,-0.4765625,8.75,-0.005859375,-0.001953125,0.00390625,0.015625,0.001953125,0,-0.0004882812,-0.0007324219,0.0001220703,0,0,0.0001220703,0,4.077,0,0,0,0,nan,2,0.466,0,0,0,0,0,0,0,0,0,1,2,0
50.669,0.001009,-0.07226562,0.04101562,-0.00390625,-0.2109375,-0.0234375,11.96875,-0.0078125,0.01171875,-0.00390625,0.015625,0.001953125,0,-0.0004882812,-0.0007324219,0.0001220703,0,0,0.0001220703,0,4.077,0,0,0,0,nan,2,0.476,0,0,0,0,0,0,0,0,0,1,2,0
50.679,0.001004,0.0234375,-0.009765625,0.02148438,-0.046875,0.3125,8.765625,0.00390625,-0.0078125,0.005859375,0.015625,0.001953125,0,-0.0004882812,-0.0007324219,0.0001220703,0,0,0.0001220703,0,4.077,0,0,0,0,nan,2,0.486,0,0,0,0,0,0,0,0,0,1,2,0
50.689,0.001001,0.005859375,0.009765625,-0.01757812,-0.078125,-0.171875,9.71875,0.001953125,0,0.00390625,0.015625,0.001953125,0,-0.0004882812,-0.0007324219,0.0001220703,0,0,0.0001220703,0,4.077,0,0,0,0,nan,2,0.496,0,0,0,0,0,0,0,0,0,1,2,1
50.698,0.001015,0.005859375,-0.01757812,-0.03125,-0.0859375,0.3125,8.90625,0.001953125,-0.001953125,-0.005859375,0.015625,0.001953125,0,-0.0004882812,-0.0007324219,0.0001220703,0,0,0.0001220703,0,4.077,0,0,0,0,nan,2,0.505,0,0,0,0,0,0,0,0,0,1,2,1
50.708,0.001019,0.001953125,-0.01171875,-0.00390625,0.2578125,0.109375,10.55469,0.001953125,-0.001953125,-0.001953125,0.015625,0.001953125,0,-0.0004882812,-0.0007324219,0.0001220703,0,0,0.0001220703,0,4.077,0,0,0,0,nan,2,0.515,0,0,0,0,0,0,0,0,0,1,2,1
50.718,0.001016,0.02148438,-0.01757812,0.005859375,0.484375,-0.09375,9.96875,0.005859375,-0.0078125,0.001953125,0.015625,0.001953125,0,-0.0004882812,-0.0007324219,0.0001220703,0,0,0.0001220703,0,4.077,0,0,0,0,nan,2,0.525,0,0,0,0,0,0,0,0,0,1,2,1
50.728,0.001011,0.0078125,0.005859375,0.001953125,0.2421875,-0.125,10.50781,0.005859375,-0.00390625,0.001953125,0.015625,0.001953125,0,-0.0004882812,-0.0007324219,0.0001220703,0,0,0.0001220703,0,4.077,0,0,0,0,nan,2,0.535,0,0,0,0,0,0,0,0,0,1,2,1
50.739,0.001025,-0.00390625,0.0078125,-0.009765625,0.21875,-0.0546875,9.3125,0.001953125,-0.001953125,0,0.015625,0.001953125,0,-0.0004882812,-0.0007324219,0.0001220703,0,0,0.0001220703,0,4.077,0,0,0,0,nan,2,0.545,0,0,0,0,0,0,0,0,0,1,2,1
50.748,0.001017,0.01171875,0,0.001953125,-0.015625,0.328125,9.59375,-0.00390625,0,0,0.015625,0.001953125,0,-0.0004882812,-0.0007324219,0.0001220703,0,0,0.0001220703,0,4.077,0,0,0,0,nan,2,0.555,0,0,0,0,0,0,0,0,0,1,2,1
50.759,0.001062,-0.0078125,0.00390625,0.01171875,-0.1640625,0.0390625,9.8125,-0.005859375,0.00390625,-0.001953125,0.015625,0.001953125,0,-0.0004882812,-0.0007324219,0.0001220703,0,0,0.0001220703,0,4.077,0,0,0,0,nan,2,0.566,0,0,0,0,0,0,0,0,0,1,2,1
50.769,0.001062,0.001953125,0,-0.0078125,-0.0703125,0.0390625,9.890625,0,0.001953125,-0.00390625,0.015625,0.001953125,0,-0.0004882812,-0.0007324219,0.0001220703,0,0,0.0001220703,0,4.077,0,0,0,0,nan,2,0.576,0,0,0,0,0,0,0,0,0,1,2,1
50.779,0.001016,0.0078125,-0.00390625,0.0078125,0.015625,0.09375,10.25,0.00390625,-0.00390625,0.0078125,0.015625,0.001953125,0,-0.0004882812,-0.0007324219,0.0001220703,0,0,0.0001220703,0,4.077,0,0,0,0,nan,2,0.586,0,0,0,0,0,0,0,0,0,1,2,1
50.789,0.001019,-0.001953125,-0.00390625,-0.00390625,0.1484375,0.046875,9.984375,0,-0.001953125,-0.00390625,0.015625,0.001953125,0,-0.0004882812,-0.0007324219,0,0,0,0,0,4.077,0,0,0,0,nan,2,0.596,0,0,0,0,0,0,0,0,0,1,2,1
50.798,0.001013,-0.001953125,-0.0078125,-0.00390625,-0.0703125,-0.0390625,9.75,0.001953125,-0.00390625,0.001953125,0.015625,0.001953125,0,-0.0004882812,-0.0007324219,0,0,0,0,0,4.077,0,0,0,0,nan,2,0.605,0,0,0,0,0,0,0,0,0,1,2,1
50.808,0.001003,-0.0078125,0.0078125,-0.00390625,0.2109375,0.1171875,9.710938,-0.001953125,0.005859375,0.00390625,0.015625,0.001953125,0,-0.0004882812,-0.0007324219,0.0001220703,0,0,0.0001220703,0,4.077,0,0,0,0,nan,2,0.615,0,0,0,0,0,0,0,0,0,1,2,1
50.818,0.001009,-0.00390625,-0.00390625,-0.001953125,-0.140625,0.09375,9.6875,-0.001953125,-0.001953125,-0.00390625,0.015625,0.001953125,0,-0.0004882812,-0.0007324219,0.0001220703,0,0,0.0001220703,0,4.077,0,0,0,0,nan,2,0.625,0,0,0,0,0,0,0,0,0,1,2,1
50.828,0.001009,0.001953125,0.01367188,0.005859375,-0.046875,-0.1796875,9.84375,0,0.00390625,0.00390625,0.015625,0.001953125,0,-0.0004882812,-0.0007324219,0.0001220703,0,0,0.0001220703,0,4.077,0,0,0,0,nan,2,0.635,0,0,0,0,0,0,0,0,0,1,2,1
50.838,0.001009,-0.00390625,-0.005859375,0.00390625,-0.09375,0.0625,9.9375,0,-0.005859375,0.00390625,0.015625,0.001953125,0,-0.0004882812,-0.0007324219,0.0001220703,0,0,0.0001220703,0,4.077,0,0,0,0,nan,2,0.645,0,0,0,0,0,0,0,0,0,1,2,1
50.848,0.001009,0.001953125,0.009765625,-0.0078125,0.03125,-0.0625,9.78125,0.001953125,0.00390625,-0.00390625,0.015625,0.001953125,0,-0.0004882812,-0.0007324219,0.0001220703,0,0,0.0001220703,0,4.077,0,0,0,0,nan,2,0.655,0,0,0,0,0,0,0,0,0,1,2,1
50.859,0.000997,-0.00390625,-0.001953125,-0.001953125,-0.015625,0.0546875,9.804688,0,-0.001953125,-0.001953125,0.015625,0.001953125,0,-0.0004882812,-0.0007324219,0.0001220703,0,0,0.0001220703,0,4.077,0,0,0,0,nan,2,0.666,0,0,0,0,0,0,0,0,0,1,2,1
50.869,0.001009,0.001953125,-0.001953125,0.005859375,0.015625,0.046875,9.789062,0,0.001953125,0.00390625,0.015625,0.001953125,0,-0.0004882812,-0.0007324219,0.0001220703,0,0,0.0001220703,0,4.077,0,0,0,0,nan,2,0.676,0,0,0,0,0,0,0,0,0,1,2,1
50.879,0.001009,-0.001953125,-0.001953125,-0.00390625,0.0078125,-0.0390625,9.796875,-0.001953125,0,-0.001953125,0.015625,0.001953125,0,-0.0004882812,-0.0006103516,0.0001220703,0,0,0.0001220703,0,4.077,0,0,0,0,nan,2,0.686,0,0,0,0,0,0,0,0,0,1,2,1
50.889,0.001004,0.001953125,-0.001953125,0.001953125,0,-0.0234375,9.828125,0,0.001953125,0,0.015625,0.001953125,0,-0.0004882812,-0.0006103516,0.0001220703,0,0,0.0001220703,0,4.077,0,0,0,0,nan,2,0.696,0,0,0,0,0,0,0,0,0,1,2,1
50.898,0.001018,0,-0.00390625,0,0.03125,-0.015625,9.789062,0.001953125,0,0.001953125,0.015625,0.001953125,0,-0.0004882812,-0.0006103516,0.0001220703,0,0,0.0001220703,0,4.077,0,0,0,0,nan,2,0.705,0,0,0,0,0,0,0,0,0,1,2,1
50.908,0.0009869999,-0.001953125,0,-0.005859375,-0.0234375,0.015625,9.882812,0,0,-0.001953125,0.015625,0.001953125,0,-0.0004882812,-0.0006103516,0.0001220703,0,0,0.0001220703,0,4.077,0,0,0,0,nan,2,0.715,0,0,0,0,0,0,0,0,0,1,2,1
50.918,0.001011,-0.001953125,-0.001953125,-0.00390625,0.03125,-0.0234375,9.773438,0,0,-0.001953125,0.015625,0.001953125,0,-0.0004882812,-0.0006103516,0.0001220703,0,0,0.0001220703,0,4.077,0,0,0,0,nan,2,0.725,0,0,0,0,0,0,0,0,0,1,2,1
50.928,0.001011,0.001953125,-0.001953125,0.00390625,-0.046875,0.0703125,9.8125,0,0,0,0.015625,0.001953125,0,-0.0004882812,-0.0006103516,0.0001220703,0,0,0.0001220703,0,4.077,0,0,0,0,nan,2,0.735,0,0,0,0,0,0,0,0,0,1,2,1
50.938,0.001011,0.001953125,-0.001953125,0.001953125,0.0390625,-0.0390625,9.804688,0.001953125,0,0.001953125,0.015625,0.001953125,0,-0.0004882812,-0.0006103516,0.0001220703,0,0,0.0001220703,0,4.077,0,0,0,0,nan,2,0.745,0,0,0,0,0,0,0,0,0,1,2,1
50.948,0.001011,0,0,0,-0.046875,0,9.765625,0,0,0,0.015625,0.001953125,0,-0.0004882812,-0.0006103516,0.0001220703,0,0,0.0001220703,0,4.077,0,0,0,0,nan,2,0.755,0,0,0,0,0,0,0,0,0,1,2,1
50.959,0.001011,-0.00390625,0.001953125,-0.001953125,0.0234375,0.0078125,9.789062,-0.001953125,0.001953125,0,0.015625,0.001953125,0,-0.0004882812,-0.0006103516,0.0001220703,0,0,0.0001220703,0,4.077,0,0,0,0,nan,2,0.766,0,0,0,0,0,0,0,0,0,1,2,1
50.969,0.001011,0.005859375,0,-0.001953125,0,0.046875,9.78125,0.001953125,0,-0.001953125,0.015625,0.001953125,0,-0.0004882812,-0.0006103516,0.0001220703,0,0,0.0001220703,0,4.077,0,0,0,0,nan,2,0.776,0,0,0,0,0,0,0,0,0,1,2,1
50.979,0.001011,-0.001953125,0.005859375,0,0.0390625,0,9.8125,0,0.001953125,0,0.015625,0.001953125,0,-0.0004882812,-0.0006103516,0.0001220703,0,0,0.0001220703,0,4.077,0,0,0,0,nan,2,0.786,0,0,0,0,0,0,0,0,0,1,2,1
50.989,0.001011,0,-0.001953125,0,-0.0234375,0.0078125,9.835938,-0.001953125,0,0,0.015625,0.001953125,0,-0.0004882812,-0.0006103516,0.0001220703,0,0,0.0001220703,0,4.077,0,0,0,0,nan,2,0.796,0,0,0,0,0,0,0,0,0,1,2,1
50.998,0.001002,0,0,0.00390625,0.015625,-0.0078125,9.828125,0,0,0.001953125,0.015625,0.001953125,0,-0.0004882812,-0.0006103516,0.0001220703,0,0,0.0001220703,0,4.077,0,0,0,0,nan,2,0.805,0,0,0,0,0,0,0,0,0,1,2,1
51.008,0.001002,0.001953125,-0.001953125,0,-0.015625,0.0078125,9.75,0.001953125,0,0,0.015625,0.001953125,0,-0.0004882812,-0.0006103516,0.0001220703,0,0,0.0001220703,0,4.077,0,0,0,0,nan,2,0.815,0,0,0,0,0,0,0,0,0,1,2,1
51.018,0.001027,-0.00390625,0.005859375,0,-0.0390625,0.015625,9.804688,0,0.001953125,0,0.015625,0.001953125,0,-0.0004882812,-0.0006103516,0.0001220703,0,0,0.0001220703,0,4.077,0,0,0,0,nan,2,0.825,0,0,0,0,0,0,0,0,0,1,2,1
51.028,0.000972,-0.00390625,-0.005859375,0,0.0078125,0.03125,9.757812,-0.001953125,-0.001953125,0,0.015625,0.001953125,0,-0.0004882812,-0.0006103516,0.0001220703,0,0,0.0001220703,0,4.077,0,0,0,0,nan,2,0.835,0,0,0,0,0,0,0,0,0,1,2,1
51.039,0.000998,0,0.001953125,0.005859375,0.03125,-0.0078125,9.804688,0,0,0.001953125,0.015625,0.001953125,0,-0.0004882812,-0.0006103516,0.0001220703,0,0,0.0001220703,0,4.077,0,0,0,0,nan,2,0.845,0,0,0,0,0,0,0,0,0,1,2,1
51.049,0.001034,0.001953125,-0.001953125,0,-0.015625,-0.0234375,9.859375,0,0,0,0.015625,0.001953125,0,-0.0004882812,-0.0006103516,0.0001220703,0,0,0.0001220703,0,4.077,0,0,0,0,nan,2,0.855,0,0,0,0,0,0,0,0,0,1,2,1
51.059,0.001015,0,-0.001953125,0,0.0078125,-0.015625,9.765625,0,0,0,0.015625,0.001953125,0,-0.0004882812,-0.0006103516,0.0001220703,0,0,0.0001220703,0,4.077,0,0,0,0,nan,2,0.866,0,0,0,0,0,0,0,0,0,1,2,1
51.069,0.001068,0,0.001953125,-0.001953125,-0.03125,0,9.804688,0,0,0,0.015625,0.001953125,0,-0.0004882812,-0.0006103516,0.0001220703,0,0,0.0001220703,0,4.077,0,0,0,0,nan,2,0.876,0,0,0,0,0,0,0,0,0,1,2,1
51.079,0.001015,0,0.001953125,0.00390625,0.0234375,0.015625,9.789062,-0.001953125,0.001953125,0.001953125,0.015625,0.001953125,0,-0.0004882812,-0.0006103516,0.0001220703,0,0,0.0001220703,0,4.077,0,0,0,0,nan,2,0.886,0,0,0,0,0,0,0,0,0,1,2,1
51.089,0.001014,0.001953125,-0.001953125,-0.00390625,0.0078125,0.015625,9.796875,0.001953125,0,-0.001953125,0.015625,0.001953125,0,-0.0004882812,-0.0006103516,0.0001220703,0,0,0.0001220703,0,4.077,0,0,0,0,nan,2,0.896,0,0,0,0,0,0,0,0,0,1,2,1
51.098,0.001007,0,0.001953125,0,0.0546875,0.0078125,9.835938,0,0,-0.001953125,0.015625,0.001953125,0,-0.0004882812,-0.0006103516,0.0001220703,0,0,0.0001220703,0,4.077,0,0,0,0,nan,2,0.905,0,0,0,0,0,0,0,0,0,1,2,1
51.108,0.001011,0.001953125,-0.00390625,-0.00390625,-0.015625,-0.0078125,9.726562,0.001953125,0,-0.001953125,0.015625,0.001953125,0,-0.0004882812,-0.0006103516,0.0001220703,0,0,0.0001220703,0,4.077,0,0,0,0,nan,2,0.915,0,0,0,0,0,0,0,0,0,1,2,1
51.118,0.001009,-0.001953125,-0.001953125,-0.001953125,-0.0078125,-0.0078125,9.773438,-0.001953125,0,0,0.015625,0.001953125,0,-0.0004882812,-0.0006103516,0.0001220703,0,0,0.0001220703,0,4.077,0,0,0,0,nan,2,0.925,0,0,0,0,0,0,0,0,0,1,2,1
51.128,0.001011,0,0.00390625,-0.001953125,-0.015625,-0.03125,9.828125,0,0.001953125,-0.001953125,0.015625,0.001953125,0,-0.0004882812,-0.0006103516,0,0,0,0,0,4.077,0,0,0,0,nan,2,0.935,0,0,0,0,0,0,0,0,0,1,2,1
51.138,0.001011,-0.001953125,-0.001953125,-0.001953125,-0.0390625,-0.015625,9.828125,0,0,0,0.015625,0.001953125,0,-0.0004882812,-0.0004882812,0,0,0,0,0,4.077,0,0,0,0,nan,2,0.945,0,0,0,0,0,0,0,0,0,1,2,1
51.148,0.001011,0,-0.001953125,0,0.03125,-0.0234375,9.773438,0,0,0,0.015625,0.001953125,0,-0.0004882812,-0.0004882812,0,0,0,0,0,4.077,0,0,0,0,nan,2,0.955,0,0,0,0,0,0,0,0,0,1,2,1
51.159,0.001011,0.00390625,-0.001953125,-0.001953125,0.0078125,0.015625,9.796875,0.001953125,0,0,0.015625,0.001953125,0,-0.0004882812,-0.0004882812,0.0001220703,0,0,0.0001220703,0,4.077,0,0,0,0,nan,2,0.966,0,0,0,0,0,0,0,0,0,1,2,1
51.169,0.000974,0.001953125,0.001953125,-0.001953125,0.0078125,0,9.835938,0.00390625,0.001953125,-0.001953125,0.015625,0.001953125,0,-0.0004882812,-0.0004882812,0.0001220703,0,0,0.0001220703,0,4.077,0,0,0,0,nan,2,0.976,0,0,0,0,0,0,0,0,0,1,2,1
51.179,0.00095,0.001953125,0.001953125,0,0,0,9.867188,0.001953125,0.001953125,0,0.015625,0.001953125,0,-0.0004882812,-0.0004882812,0,0,0,0,0,4.077,0,0,0,0,nan,2,0.986,0,0,0,0,0,0,0,0,0,1,2,1
51.189,0.001015,-0.001953125,0,-0.001953125,0,0.015625,9.796875,0,0,0,0.015625,0.001953125,0,-0.0003662109,-0.0004882812,0,0,0,0,0,4.077,0,0,0,0,nan,2,0.996,0,0,0,0,0,0,0,0,0,1,2,1
51.198,0.001012,0,0,0.001953125,0.0078125,0,9.890625,0,0,0,0.015625,0.001953125,0,-0.0003662109,-0.0004882812,0,0,0,0,0,4.077,0,0,0,0,nan,2,1.005,0,0,0,0,0,0,0,0,0,1,2,1
51.208,0.001011,0,0,0,-0.0078125,-0.0078125,9.789062,0,0,-0.001953125,0.015625,0.001953125,0,-0.0003662109,-0.0004882812,0,0,0,0,0,4.077,0,0,0,0,nan,2,1.015,0,0,0,0,0,0,0,0,0,1,2,1
51.218,0.001007,-0.001953125,0,0,0,-0.0078125,9.804688,0,0,0,0.015625,0.001953125,0,-0.0003662109,-0.0004882812,0,0,0,0,0,4.077,0,0,0,0,nan,2,1.025,0,0,0,0,0,0,0,0,0,1,2,1
51.228,0.001009,0.001953125,0.00390625,0,0.03125,-0.03125,9.804688,0,0.00390625,0,0.015625,0.001953125,0,-0.0003662109,-0.0004882812,0,0,0,0,0,4.077,0,0,0,0,nan,2,1.035,0,0,0,0,0,0,0,0,0,1,2,1
51.238,0.001009,0,-0.001953125,-0.001953125,0.0078125,-0.046875,9.742188,0,-0.001953125,0,0.015625,0.001953125,0,-0.0003662109,-0.0004882812,0,0,0,0,0,4.077,0,0,0,0,nan,2,1.045,0,0,0,0,0,0,0,0,0,1,2,1
