t,dt_s,gyro_x,gyro_y,gyro_z,acc_x,acc_y,acc_z,rates.x,rates.y,rates.z,ratesTarget.x,ratesTarget.y,ratesTarget.z,attitude.x,attitude.y,attitude.z,attitudeTarget.x,attitudeTarget.y,attitudeTarget.z,thrustTarget,battery_v,rc_roll,rc_pitch,rc_yaw,rc_throttle,rc_mode,flight_mode,rc_age_s,armed,fault_mask,motor_rl,motor_rr,motor_fr,motor_fl,rate_i_x,rate_i_y,rate_i_z,mix_scale,control_source,accel_correction_confidence
1427.327,0.000972,0,-0.00390625,0,-0.0390625,-0.0078125,9.820312,0,-0.001953125,-0.001953125,0,0,0,-0.002685547,0.003662109,0.0003662109,0,0,0.0003662109,0,4.077,0,0,0,0,nan,2,0.003,0,0,0,0,0,0,0,0,0,1,2,1
1427.337,0.001072,0,-0.001953125,-0.00390625,-0.0390625,-0.0078125,9.8125,0,0,-0.001953125,0,0,0,-0.002685547,0.003662109,0.0003662109,0,0,0.0003662109,0,4.077,0,0,0,0,nan,2,0.013,0,0,0,0,0,0,0,0,0,1,2,1
1427.347,0.001016,0,-0.001953125,0,-0.0078125,-0.0234375,9.835938,0,0,0,0,0,0,-0.002685547,0.003662109,0.0003662109,0,0,0.0003662109,0,4.077,0,0,0,0,nan,2,0.023,0,0,0,0,0,0,0,0,0,1,2,1
1427.356,0.001012,-0.001953125,-0.001953125,-0.001953125,-0.046875,-0.046875,9.75,0,-0.001953125,0,0,0,0,-0.002685547,0.003662109,0.0003662109,0,0,0.0003662109,0,4.077,0,0,0,0,nan,2,0.032,0,0,0,0,0,0,0,0,0,1,2,1
1427.366,0.001011,-0.001953125,0,0,-0.0546875,-0.0546875,9.820312,-0.001953125,-0.001953125,0,0,0,0,-0.002685547,0.003540039,0.0003662109,0,0,0.0003662109,0,4.077,0,0,0,0,nan,2,0.042,0,0,0,0,0,0,0,0,0,1,2,1
1427.376,0.001012,-0.001953125,0,0,-0.046875,-0.0546875,9.75,0,0,0,0,0,0,-0.002685547,0.003540039,0.0003662109,0,0,0.0003662109,0,4.077,0,0,0,0,nan,2,0.053,0,0,0,0,0,0,0,0,0,1,2,1
1427.387,0.001011,-0.001953125,0,0,-0.0234375,-0.046875,9.828125,-0.001953125,0,0,0,0,0,-0.002685547,0.003540039,0.0003662109,0,0,0.0003662109,0,4.077,0,0,0,0,nan,2,0.063,0,0,0,0,0,0,0,0,0,1,2,1
1427.397,0.001012,-0.001953125,0.001953125,0,-0.0234375,-0.03125,9.8125,0,0.001953125,0,0,0,0,-0.002807617,0.003662109,0.0003662109,0,0,0.0003662109,0,4.077,0,0,0,0,nan,2,0.073,0,0,0,0,0,0,0,0,0,1,2,1
1427.407,0.001011,0.001953125,-0.001953125,0,-0.0234375,-0.0546875,9.789062,0,-0.001953125,0,0,0,0,-0.002807617,0.003662109,0.0003662109,0,0,0.0003662109,0,4.077,0,0,0,0,nan,2,0.083,0,0,0,0,0,0,0,0,0,1,2,1
1427.417,0.001012,-0.001953125,0,0,-0.0234375,-0.0390625,9.796875,-0.001953125,0,0,0,0,0,-0.002807617,0.003662109,0.0003662109,0,0,0.0003662109,0,4.077,0,0,0,0,nan,2,0.093,0,0,0,0,0,0,0,0,0,1,2,1
1427.427,0.000982,0,0,0.001953125,-0.046875,-0.046875,9.789062,0,0,0.001953125,0,0,0,-0.002807617,0.003662109,0.0003662109,0,0,0.0003662109,0,4.077,0,0,0,0,nan,2,0.103,0,0,0,0,0,0,0,0,0,1,2,1
1427.437,0.001012,0,0.001953125,-0.00390625,-0.0234375,-0.03125,9.835938,0,0,-0.001953125,0,0,0,-0.002807617,0.003662109,0.0003662109,0,0,0.0003662109,0,4.077,0,0,0,0,nan,2,0.113,0,0,0,0,0,0,0,0,0,1,2,1
1427.447,0.001011,0.001953125,0,0.00390625,-0.03125,-0.0234375,9.867188,0,0.001953125,0.001953125,0,0,0,-0.002807617,0.003662109,0.0003662109,0,0,0.0003662109,0,4.077,0,0,0,0,nan,2,0.123,0,0,0,0,0,0,0,0,0,1,2,1
1427.456,0.001008,0,-0.001953125,0,-0.0390625,-0.0234375,9.84375,0,-0.001953125,0,0,0,0,-0.002807617,0.003662109,0.0003662109,0,0,0.0003662109,0,4.077,0,0,0,0,nan,2,0.132,0,0,0,0,0,0,0,0,0,1,2,1
1427.466,0.001008,0,0,-0.00390625,-0.0234375,-0.015625,9.859375,0,0,-0.001953125,0,0,0,-0.002807617,0.003662109,0.0003662109,0,0,0.0003662109,0,4.077,0,0,0,0,nan,2,0.142,0,0,0,0,0,0,0,0,0,1,2,1
1427.476,0.001008,0.00390625,-0.001953125,-0.001953125,-0.046875,-0.046875,9.78125,0,0,-0.001953125,0,0,0,-0.002807617,0.003662109,0.0003662109,0,0,0.0003662109,0,4.077,0,0,0,0,nan,2,0.152,0,0,0,0,0,0,0,0,0,1,2,1
1427.486,0.001008,0,-0.001953125,0,-0.0546875,-0.046875,9.820312,0.001953125,0,-0.001953125,0,0,0,-0.002807617,0.003662109,0.0003662109,0,0,0.0003662109,0,4.077,0,0,0,0,nan,2,0.163,0,0,0,0,0,0,0,0,0,1,2,1
1427.497,0.001069,0,-0.001953125,-0.001953125,-0.0078125,-0.0078125,9.820312,0,-0.001953125,0,0,0,0,-0.002807617,0.003662109,0.0003662109,0,0,0.0003662109,0,4.077,0,0,0,0,nan,2,0.173,0,0,0,0,0,0,0,0,0,1,2,1
1427.507,0.001009,0.001953125,-0.001953125,-0.001953125,-0.0234375,-0.0078125,9.789062,0,0,0,0,0,0,-0.002807617,0.003662109,0.0003662109,0,0,0.0003662109,0,4.077,0,0,0,0,nan,2,0.183,0,0,0,0,0,0,0,0,0,1,2,1
1427.517,0.000972,0,0,-0.001953125,-0.09375,-0.0625,9.8125,0,0,0,0,0,0,-0.002807617,0.003662109,0.0003662109,0,0,0.0003662109,0,4.077,0,0,0,0,nan,2,0.193,0,0,0,0,0,0,0,0,0,1,2,1
1427.527,0.001053,-0.001953125,-0.001953125,0,-0.0234375,0.0078125,9.796875,0,0.00390625,0,0,0,0,-0.002807617,0.003662109,0.0003662109,0,0,0.0003662109,0,4.077,0,0,0,0,nan,2,0.203,1,0,0.1000061,0.1000061,0.1000061,0.1000061,0,0,0,1,2,0.984127
1427.537,0.001013,-0.00390625,0.00390625,0.00390625,-0.15625,-0.0078125,9.882812,0,0,0.00390625,0,0,0,-0.002807617,0.003662109,0.0003662109,0,0,0.0003662109,0,4.077,0,0,0,0,nan,2,0.213,1,0,0.1000061,0.1000061,0.1000061,0.1000061,0,0,0,1,2,0.8412699
1427.547,0.001014,-0.009765625,-0.0078125,0.00390625,-0.140625,0.40625,9.976562,-0.00390625,-0.001953125,-0.005859375,0,0,0,-0.002807617,0.003662109,0.0003662109,0,0,0.0003662109,0,4.077,0,0,0,0,nan,2,0.223,1,0,0.1000061,0.1000061,0.1000061,0.1000061,0,0,0,1,2,0.6031746
1427.556,0.001012,-0.01953125,-0.00390625,0.01171875,-0.0703125,0.46875,9.679688,-0.00390625,0,0.00390625,0,0,0,-0.002685547,0.003662109,0.0003662109,0,0,0.0003662109,0,4.077,0,0,0,0,nan,2,0.232,1,0,0.1000061,0.1000061,0.1000061,0.1000061,0,0,0,1,2,0.7142857
1427.566,0.001012,0.046875,-0.01367188,-0.005859375,-0.328125,-0.5625,8.984375,0.005859375,-0.001953125,-0.001953125,0,0,0,-0.002807617,0.003662109,0.0003662109,0,0,0.0003662109,0,4.077,0,0,0,0,nan,2,0.242,1,0,0.1000061,0.1000061,0.1000061,0.1000061,0,0,0,1,2,0
1427.576,0.001012,-0.001953125,0.02539062,0.00390625,0.1328125,-0.515625,10.71094,-0.0078125,0.0078125,0,0,0,0,-0.002685547,0.003662109,0.0003662109,0,0,0.0003662109,0,4.077,0,0,0,0,nan,2,0.252,1,0,0.1000061,0.1000061,0.1000061,0.1000061,0,0,0,1,2,0
1427.586,0.001012,0.02148438,0.08789062,-0.01367188,-1.773438,0.3515625,10.86719,0.005859375,0.00390625,-0.005859375,0,0,0,-0.002685547,0.003662109,0.0003662109,0,0,0.0003662109,0,4.077,0,0,0,0,nan,2,0.263,1,0,0.1000061,0.1000061,0.1000061,0.1000061,0,0,0,1,2,0
1427.597,0.001012,0.015625,0.02734375,0,-1.265625,0.1171875,10.14844,0.02148438,0.01171875,-0.001953125,0,0,0,-0.002685547,0.003540039,0.0003662109,0,0,0.0003662109,0,4.077,0,0,0,0,nan,2,0.273,1,0,0.1000061,0.1000061,0.1000061,0.1000061,0,0,0,1,2,0.1428571
1427.607,0.001012,-0.015625,-0.0625,-0.005859375,0.8828125,1.070312,9.953125,-0.015625,-0.01171875,-0.001953125,0,0,0,-0.002685547,0.003540039,0.0003662109,0,0,0.0003662109,0,4.077,0,0,0,0,nan,2,0.283,1,0,0.1000061,0.1000061,0.1000061,0.1000061,0,0,0,1,2,0.4920635
1427.617,0.00097,-0.01953125,-0.005859375,0.02734375,0.296875,-3.5,10.07812,-0.0078125,-0.001953125,0.005859375,0,0,0,-0.002807617,0.003540039,0.0003662109,0,0,0.0003662109,0,4.077,0,0,0,0,nan,2,0.293,1,0,0.1000061,0.1000061,0.1000061,0.1000061,0,0,0,1,2,0
1427.627,0.001007,0.009765625,0.05273438,0.01367188,-1.882812,-2.070312,12.02344,0,0.005859375,0,0,0,0,-0.002685547,0.003540039,0.0003662109,0,0,0.0003662109,0,4.077,0,0,0,0,nan,2,0.303,1,0,0.1000061,0.1000061,0.1000061,0.1000061,0,0,0,1,2,0
1427.637,0.001016,-0.06445312,0.05078125,0.005859375,-3.34375,-1.664062,5.28125,-0.0078125,0.01171875,0.00390625,0,0,0,-0.002685547,0.003540039,0.0003662109,0,0,0.0003662109,0,4.077,0,0,0,0,nan,2,0.313,1,0,0.1000061,0.1000061,0.1000061,0.1000061,0,0,0,1,2,0
1427.647,0.001015,-0.01953125,0.02734375,0.001953125,-1.890625,1.789062,11.625,-0.0078125,0.0078125,0.005859375,0,0,0,-0.002807617,0.003662109,0.0003662109,0,0,0.0003662109,0,4.077,0,0,0,0,nan,2,0.323,1,0,0.1000061,0.1000061,0.1000061,0.1000061,0,0,0,1,2,0
1427.657,0.001012,-0.01367188,0.03320312,-0.0390625,-2.242188,2.5625,5.859375,-0.015625,0.001953125,-0.01171875,0,0,0,-0.002929688,0.003662109,0.0003662109,0,0,0.0003662109,0,4.077,0,0,0,0,nan,2,0.333,1,0,0.1000061,0.1000061,0.1000061,0.1000061,0,0,0,1,2,0
1427.666,0.001008,0.0078125,-0.01953125,0,2.421875,-0.9765625,8.078125,0,0,-0.01367188,0,0,0,-0.002929688,0.003662109,0.0002441406,0,0,0.0003662109,0,4.077,0,0,0,0,nan,2,0.342,1,0,0.1000061,0.1000061,0.1000061,0.1000061,0,0,0,1,2,0
1427.676,0.001008,-0.015625,0.02734375,0.015625,0.546875,-0.1484375,2.96875,0.001953125,0.015625,0.01171875,0,0,0,-0.002929688,0.003662109,0.0002441406,0,0,0.0003662109,0,4.077,0,0,0,0,nan,2,0.352,1,0,0.1000061,0.1000061,0.1000061,0.1000061,0,0,0,1,2,0
1427.686,0.001008,0.009765625,-0.005859375,-0.001953125,0.3671875,0.1796875,10.15625,-0.001953125,0.00390625,0.009765625,0,0,0,-0.002929688,0.00378418,0.0003662109,0,0,0.0003662109,0,4.077,0,0,0,0,nan,2,0.363,1,0,0.1000061,0.1000061,0.1000061,0.1000061,0,0,0,1,2,0.2380952
1427.697,0.001008,0.01953125,-0.0234375,-0.015625,0.7265625,-2.601562,9.6875,0.02148438,-0.009765625,-0.01367188,0,0,0,-0.002807617,0.00378418,0.0003662109,0,0,0.0003662109,0,4.077,0,0,0,0,nan,2,0.373,1,0,0.1000061,0.1000061,0.1000061,0.1000061,0,0,0,1,2,0.4444444
1427.707,0.001008,0.03710938,0.005859375,0,0.3515625,0.5078125,13.78906,0.01953125,-0.001953125,-0.009765625,0,0,0,-0.002807617,0.00378418,0.0001220703,0,0,0.0003662109,0,4.077,0,0,0,0,nan,2,0.383,1,0,0.1000061,0.1000061,0.1000061,0.1000061,0,0,0,1,2,0
1427.717,0.001008,0.005859375,-0.009765625,0.009765625,0.0390625,-0.6328125,6.757812,0.00390625,0,0.009765625,0,0,0,-0.002685547,0.003662109,0.0002441406,0,0,0.0003662109,0,4.077,0,0,0,0,nan,2,0.393,1,0,0.1000061,0.1000061,0.1000061,0.1000061,0,0,0,1,2,0
1427.727,0.001046,-0.01953125,-0.04101562,-0.015625,-0.2578125,0.3203125,10.04688,-0.005859375,-0.015625,-0.0078125,0,0,0,-0.002685547,0.003662109,0.0002441406,0,0,0.0003662109,0,4.077,0,0,0,0,nan,2,0.403,1,0,0.1000061,0.1000061,0.1000061,0.1000061,0,0,0,1,2,0.4920635
1427.737,0.001009,-0.02148438,-0.01757812,0.005859375,-0.296875,0.0859375,10.9375,-0.01367188,-0.005859375,-0.005859375,0,0,0,-0.002807617,0.003540039,0.0001220703,0,0,0.0003662109,0,4.077,0,0,0,0,nan,2,0.413,1,0,0.1000061,0.1000061,0.1000061,0.1000061,0,0,0,1,2,0
1427.746,0.000996,-0.01367188,0.0390625,-0.009765625,-0.3125,-0.0625,10.63281,-0.005859375,0,-0.001953125,0,0,0,-0.002929688,0.003417969,0.0001220703,0,0,0.0003662109,0,4.077,0,0,0,0,nan,2,0.422,1,0,0.1000061,0.1000061,0.1000061,0.1000061,0,0,0,1,2,0
1427.756,0.001017,0.00390625,-0.009765625,0.01953125,0.40625,-0.40625,10.01562,0.001953125,0,0.01171875,0,0,0,-0.002929688,0.003417969,0.0001220703,0,0,0.0003662109,0,4.077,0,0,0,0,nan,2,0.432,1,0,0.1000061,0.1000061,0.1000061,0.1000061,0,0,0,1,2,0.5079365
1427.766,0.001039,0.01757812,0.009765625,0.01757812,-0.1953125,0.328125,10.21875,-0.01757812,0.01367188,0.009765625,0,0,0,-0.003051758,0.003662109,0.0002441406,0,0,0.0003662109,0,4.077,0,0,0,0,nan,2,0.442,1,0,0.1000061,0.1000061,0.1000061,0.1000061,0,0,0,1,2,0.1428571
1427.776,0.001032,0.001953125,-0.001953125,0.02148438,-0.0234375,0.8046875,9.875,0,0.00390625,0.015625,0,0,0,-0.003051758,0.003662109,0.0003662109,0,0,0.0003662109,0,4.077,0,0,0,0,nan,2,0.452,1,0,0.1000061,0.1000061,0.1000061,0.1000061,0,0,0,1,2,0.7301587
1427.787,0.000926,-0.0078125,0.00390625,-0.005859375,0.0234375,-0.1484375,9.765625,-0.005859375,0,0.001953125,0.01757812,-0.02148438,0,-0.003051758,0.003662109,0.0004882812,0,0,0.0003662109,0.1421204,4.077,0,0,0,0.09997559,nan,2,0.007,1,0,0.1366577,0.145874,0.1329956,0.1528931,0,0,0,1,2,0.9047619
1427.797,0.000945,0.03710938,-0.009765625,0.01367188,-0.2578125,-0.953125,6.742188,0,-0.00390625,0.005859375,0.01953125,-0.02148438,0,-0.003051758,0.003662109,0.0004882812,0,0,0.0003662109,0.1421204,4.077,0,0,0,0.09997559,nan,2,0.017,1,0,0.1526794,0.1321106,0.1525879,0.1310425,0,0,0,1,2,0
1427.807,0.00101,-0.005859375,0.02539062,-0.01367188,-0.84375,2.210938,11.21875,-0.00390625,0.00390625,-0.009765625,0.01757812,-0.02148438,0,-0.003051758,0.003662109,0.0004882812,0,0,0.0003662109,0.1421204,4.077,0,0,0,0.09997559,nan,2,0.027,1,0,0.1230774,0.1551208,0.1231995,0.1670227,0,0,0,1,2,0
1427.817,0.00101,-0.001953125,0.02148438,-0.005859375,-0.8671875,-0.8046875,10.73438,0,-0.0078125,-0.005859375,0.01757812,-0.02148438,0,-0.003051758,0.003540039,0.0003662109,0,0,0.0003662109,0.1421204,4.077,0,0,0,0.09997559,nan,2,0.037,1,0,0.1425171,0.1380005,0.1452637,0.1426392,0,0,0,1,2,0
1427.827,0.001022,0.03125,-0.01367188,0.02539062,-0.328125,-1.734375,4.007812,0.01171875,0.005859375,0.01367188,0.01953125,-0.02148438,0,-0.003173828,0.003662109,0.0003662109,0,0,0.0003662109,0.1421204,4.077,0,0,0,0.09997559,nan,2,0.047,1,0,0.1708679,0.1116333,0.1776123,0.1082764,0,0,0,1,2,0
1427.836,0.000988,-0.02539062,-0.005859375,0.03515625,-0.5546875,2.414062,14.25,-0.0078125,0,0.03710938,0.01757812,-0.02148438,0,-0.003051758,0.00378418,0.0006103516,0,0,0.0003662109,0.1421204,4.077,0,0,0,0.09997559,nan,2,0.007,1,0,0.1717529,0.1110229,0.1661987,0.1194458,0,0,0,1,2,0
1427.847,0.001001,-0.0078125,0.005859375,0.02929688,0.90625,2.09375,15.94531,-0.005859375,0.009765625,0.02929688,0.01953125,-0.0234375,0,-0.003173828,0.00378418,0.0009765625,0,0,0.0003662109,0.1421204,4.077,0,0,0,0.09997559,nan,2,0.018,1,0,0.1444092,0.1346436,0.1447754,0.1445923,0,0,0,1,2,0
1427.856,0.001007,-0.001953125,-0.02148438,0.01757812,-0.3671875,0.234375,4.820312,0,-0.009765625,0.0234375,0.01953125,-0.0234375,0,-0.003173828,0.00378418,0.001220703,0,0,0.0003662109,0.1421204,4.077,0,0,0,0.09997559,nan,2,0.027,1,0,0.1427307,0.143219,0.1395264,0.1429443,0,0,0,1,2,0
1427.867,0.000995,0.02734375,-0.009765625,0.015625,0.9609375,1.9375,14.44531,0.02929688,-0.00390625,0.01757812,0.01757812,-0.02148438,0,-0.003051758,0.003662109,0.001464844,0,0,0.0003662109,0.1421204,4.077,0,0,0,0.09997559,nan,2,0.037,1,0,0.1356201,0.144928,0.144928,0.1429443,0,0,0,1,2,0
1427.877,0.000982,-0.03125,0.01367188,0.01757812,-1.359375,-6.304688,7.210938,-0.005859375,0.0078125,0.02148438,0.01757812,-0.02148438,0,-0.002929688,0.003662109,0.001708984,0,0,0.0003662109,0.1421204,4.077,0,0,0,0.09997559,nan,2,0.047,1,0,0.1483765,0.1269531,0.149292,0.1437988,0,0,0,1,2,0.6666667
1427.887,0.000989,0.0625,-0.01757812,0.02929688,-0.828125,3.34375,9.148438,0.02539062,-0.015625,0.02734375,0.01757812,-0.02148438,0,-0.003051758,0.003662109,0.001953125,0,0,0.0003662109,0.1421204,4.077,0,0,0,0.09997559,nan,2,0.006,1,0,0.1533203,0.1349487,0.1619568,0.1181946,0,0,0,1,2,0.8095238
1427.897,0.000954,-0.02539062,0.00390625,0.02148438,1.117188,6.9375,10.54688,0.001953125,-0.00390625,0.02929688,0.01757812,-0.02148438,0,-0.002929688,0.003540039,0.002197266,0,0,0.0003662109,0.1421204,4.077,0,0,0,0.09997559,nan,2,0.016,1,0,0.1457825,0.1329041,0.1449585,0.1447449,0,0,0,1,2,0
1427.907,0.00104,0.04101562,-0.015625,-0.001953125,0.8515625,4.554688,9.484375,0.02148438,-0.00390625,0.01171875,0.01757812,-0.02148438,0,-0.002807617,0.003540039,0.002441406,0,0,0.0003662109,0.1421204,4.077,0,0,0,0.09997559,nan,2,0.026,1,0,0.1208801,0.1615906,0.1272583,0.1586914,0,0,0,1,2,0
1427.917,0.00104,0,0.005859375,-0.015625,0.125,2.953125,8.601562,0,0.009765625,-0.01367188,0.015625,-0.02148438,0,-0.002685547,0.003540039,0.002441406,0,0,0.0003662109,0.1421204,4.077,0,0,0,0.09997559,nan,2,0.036,1,0,0.1174622,0.1585693,0.1187134,0.1736755,0,0,0,1,2,0
1427.927,0.001039,-0.001953125,0.01367188,-0.009765625,0.90625,1.515625,7.445312,0.005859375,0.009765625,-0.015625,0.015625,-0.02148438,0,-0.002685547,0.003540039,0.002197266,0,0,0.0003662109,0.1421204,4.077,0,0,0,0.09997559,nan,2,0.004,1,0,0.1322021,0.1451416,0.1373596,0.153717,0,0,0,1,2,0
1427.936,0.000999,0.0078125,0.009765625,-0.01953125,1.367188,-0.6953125,10.39062,0.00390625,0.0078125,-0.009765625,0.015625,-0.02148438,0,-0.002685547,0.003662109,0.002197266,0,0,0.0003662109,0.1421204,4.077,0,0,0,0.09997559,nan,2,0.013,1,0,0.1344604,0.1441956,0.1384888,0.1512756,0,0,0,1,2,0
1427.946,0.00101,0.03515625,0,-0.0234375,0.8828125,-1.84375,15.78125,0.01367188,0.005859375,-0.02148438,0.015625,-0.02148438,0,-0.002563477,0.003662109,0.001953125,0,0,0.0003662109,0.1421204,4.077,0,0,0,0.09997559,nan,2,0.023,1,0,0.1261597,0.1548767,0.1339417,0.1534119,0,0,0,1,2,0
1427.956,0.00094,0.05273438,-0.01757812,-0.02929688,-1.914062,5.21875,7.609375,0.0390625,-0.0078125,-0.02734375,0.01367188,-0.02148438,0,-0.002319336,0.003662109,0.001708984,0,0,0.0003662109,0.1421204,4.077,0,0,0,0.09997559,nan,2,0.033,1,0,0.1239624,0.1592712,0.1326599,0.1525269,0,0,0,1,2,0.1428571
1427.966,0.0009869999,-0.04101562,0.04882812,-0.00390625,-1.5625,0.203125,10.92188,-0.02929688,0.04101562,-0.01367188,0.01367188,-0.0234375,0,-0.002441406,0.00390625,0.001464844,0,0,0.0003662109,0.1421204,4.077,0,0,0,0.09997559,nan,2,0.043,1,0,0.1533508,0.1162415,0.1556091,0.143219,0,0,0,1,2,0
1427.976,0.001032,0.08007812,-0.0390625,0.0234375,-1.742188,2.976562,13.89844,0.009765625,0.00390625,0.01953125,0.015625,-0.02539062,0,-0.002685547,0.004272461,0.001586914,0,0,0.0003662109,0.1421204,4.077,0,0,0,0.09997559,nan,2,0.054,1,0,0.1727295,0.1192017,0.1768799,0.09957886,0,-0.0009765625,0,1,2,0
1427.987,0.001012,-0.0390625,0.02734375,-0.0234375,1.632812,7.976562,9.992188,-0.005859375,0.00390625,-0.009765625,0.015625,-0.02539062,0,-0.002685547,0.004272461,0.001586914,0,0,0.0003662109,0.1421204,4.077,0,0,0,0.09997559,nan,2,0.007,1,0,0.112854,0.1664734,0.1129456,0.1761475,0,-0.0009765625,0,1,2,0
1427.997,0.00101,0.01757812,0.03125,-0.01367188,-1.171875,-0.859375,9.804688,0.01367188,0.001953125,-0.015625,0.015625,-0.02539062,0,-0.002685547,0.004272461,0.001464844,0,0,0.0003662109,0.1421204,4.077,0,0,0,0.09997559,nan,2,0.017,1,0,0.1326294,0.1445923,0.1429443,0.1482239,0,-0.0009765625,0,1,2,0.6666667
1428.007,0.001021,-0.02734375,-0.009765625,0.02539062,1.78125,-0.8203125,1.976562,0.00390625,-0.00390625,0.0234375,0.015625,-0.02539062,0,-0.002563477,0.004272461,0.001464844,0,0,0.0003662109,0.1421204,4.077,0,0,0,0.09997559,nan,2,0.027,1,0,0.1812439,0.1012878,0.1757812,0.1101074,0,-0.0009765625,0,1,2,0
1428.017,0.001005,-0.04882812,-0.02929688,0.005859375,0.1015625,-4.992188,12.88281,-0.00390625,-0.005859375,0.001953125,0.015625,-0.02539062,0,-0.002563477,0.004272461,0.001586914,0,0,0.0003662109,0.1421204,4.077,0,0,0,0.09997559,nan,2,0.037,1,0,0.1337891,0.1506348,0.1266479,0.1573486,0,-0.0009765625,0,1,2,0
1428.026,0.001017,0.01367188,0.0078125,-0.005859375,1.328125,1.046875,7.820312,0.01367188,0.01171875,-0.009765625,0.015625,-0.02539062,0,-0.002441406,0.004394531,0.001586914,0,0,0.0003662109,0.1421204,4.077,0,0,0,0.09997559,nan,2,0.005,1,0,0.1271362,0.149292,0.1364136,0.1555786,0,-0.0009765625,0,1,2,0
1428.036,0.001038,0.02148438,-0.009765625,0.01367188,0.8671875,-3.804688,6.179688,0.01367188,-0.00390625,0.00390625,0.01367188,-0.02734375,0,-0.002319336,0.004394531,0.001586914,0,0,0.0003662109,0.1421204,4.077,0,0,0,0.09997559,nan,2,0.015,1,0,0.1571655,0.1257019,0.159729,0.125824,0,-0.0009765625,0,1,2,0
1428.047,0.001061,0.0234375,0.009765625,0.01953125,-0.7890625,-5.140625,2.3125,0.0078125,0,0.015625,0.01367188,-0.02539062,0,-0.002319336,0.004394531,0.001708984,0,0,0.0003662109,0.1421204,4.077,0,0,0,0.09997559,nan,2,0.026,1,0,0.1511536,0.1274719,0.157959,0.1318359,0,-0.0009765625,0,1,2,0
1428.056,0.001011,0.0234375,-0.03320312,0.01171875,-0.5703125,0.2890625,12,-0.00390625,-0.00390625,0.01367188,0.015625,-0.02734375,0,-0.002441406,0.004394531,0.001831055,0,0,0.0003662109,0.1421204,4.077,0,0,0,0.09997559,nan,2,0.035,1,0,0.1435242,0.140686,0.1436157,0.1405945,0,-0.0009765625,0,1,2,0
1428.066,0.00101,-0.01757812,0.01757812,0.046875,1.757812,3.039062,12.46875,-0.015625,0.009765625,0.0390625,0.015625,-0.02734375,0,-0.002563477,0.004516602,0.002075195,0,0,0.0003662109,0.1421204,4.077,0,0,0,0.09997559,nan,2,0.045,1,0,0.177063,0.09857178,0.1776428,0.1151428,0,-0.0009765625,0,1,2,0
1428.076,0.00101,0.00390625,0.01757812,0.0078125,-1.867188,-1.34375,7.757812,0.02539062,-0.00390625,0.03320312,0.01367188,-0.02734375,0,-0.002441406,0.004516602,0.002563477,0,0,0.0003662109,0.1421204,4.077,0,0,0,0.09997559,nan,2,0.056,1,0,0.1283569,0.1537476,0.1340942,0.1521912,0,-0.0009765625,0,1,2,0
1428.087,0.00099,0.03710938,0.005859375,-0.02148438,1.195312,-2.695312,8,0.02148438,-0.00390625,-0.01367188,0.01367188,-0.02734375,0,-0.002319336,0.004638672,0.002563477,0,0,0.0003662109,0.1421204,4.077,0,0,0,0.09997559,nan,2,0.066,1,0,0.09387207,0.189209,0.1009521,0.1843872,0,-0.0009765625,0,1,2,0
1428.097,0.000996,-0.02148438,-0.015625,-0.02929688,-1.0625,5.789062,14.82031,0.005859375,0.01367188,-0.0234375,0.01367188,-0.02929688,0,-0.002197266,0.004760742,0.002441406,0,0,0.0003662109,0.1421204,4.077,0,0,0,0.09997559,nan,2,0.007,1,0,0.1212158,0.1575928,0.1212463,0.1683655,0,-0.0009765625,0,1,2,0
1428.107,0.001027,0.02148438,-0.03320312,-0.01757812,0.4140625,-2.289062,9.671875,0.01953125,-0.001953125,-0.01953125,0.01367188,-0.02929688,0,-0.002197266,0.004882812,0.002197266,0,0,0.0003662109,0.1421204,4.077,0,0,0,0.09997559,nan,2,0.017,1,0,0.1400452,0.1437073,0.1477051,0.1369324,0,-0.0009765625,0,1,2,0.7142857
1428.117,0.001036,0.06054688,-0.03515625,0.01367188,-0.6328125,-3.796875,4.773438,0.02929688,-0.001953125,0.00390625,0.01367188,-0.02929688,0,-0.002319336,0.004882812,0.002075195,0,0,0.0003662109,0.1421204,4.077,0,0,0,0.09997559,nan,2,0.027,1,0,0.1564941,0.1248474,0.1739807,0.1130981,0,-0.0009765625,0,1,2,0
1428.127,0.001024,-0.0625,0.015625,-0.01367188,1.632812,0.390625,11.82031,-0.0390625,0.009765625,-0.00390625,0.015625,-0.02929688,0,-0.002441406,0.004882812,0.002075195,0,0,0.0003662109,0.1421204,4.077,0,0,0,0.09997559,nan,2,0.005,1,0,0.134491,0.1393127,0.1290283,0.1655884,0.0009765625,-0.0009765625,0,1,2,0
1428.136,0.001004,-0.00390625,0,0.02148438,0.640625,0.5625,8.867188,0.02539062,-0.001953125,0.01953125,0.015625,-0.02929688,0,-0.002563477,0.004760742,0.002197266,0,0,0.0003662109,0.1421204,4.077,0,0,0,0.09997559,nan,2,0.014,1,0,0.1615906,0.1158142,0.1782227,0.112793,0.0009765625,-0.0009765625,0,1,2,0
1428.147,0.001008,-0.078125,0.06835938,-0.01953125,1.890625,-0.453125,3.445312,-0.03125,0.03125,-0.001953125,0.015625,-0.02929688,0,-0.002441406,0.004760742,0.002319336,0,0,0.0003662109,0.1421204,4.077,0,0,0,0.09997559,nan,2,0.025,1,0,0.1152039,0.1475525,0.1170044,0.1886597,0.0009765625,-0.0009765625,0,1,2,0
1428.156,0.001075,0.08203125,-0.02148438,0.005859375,2.085938,6.296875,11.49219,-0.01171875,0.03710938,-0.00390625,0.01757812,-0.03125,0,-0.002929688,0.005249023,0.002197266,0,0,0.0003662109,0.1421204,4.077,0,0,0,0.09997559,nan,2,0.034,1,0,0.1397705,0.1367798,0.1545105,0.1373596,0.0009765625,-0.0009765625,0,1,2,0
1428.166,0.00101,0.00390625,-0.01953125,0.009765625,-0.1484375,-1.445312,15.60938,-0.00390625,-0.03320312,0.01367188,0.01757812,-0.03125,0,-0.003051758,0.005004883,0.002319336,0,0,0.0003662109,0.1421204,4.077,0,0,0,0.09997559,nan,2,0.044,1,0,0.15979,0.1304321,0.1506348,0.1275635,0.0009765625,-0.0009765625,0,1,2,0
1428.177,0.001029,-0.02148438,0.04101562,-0.015625,1.15625,6.257812,9.34375,-0.01757812,0.0078125,-0.01367188,0.01757812,-0.02929688,0,-0.003051758,0.005004883,0.002319336,0,0,0.0003662109,0.1421204,4.077,0,0,0,0.09997559,nan,2,0.055,1,0,0.1165771,0.1557007,0.1186829,0.1774597,0.0009765625,-0.0009765625,0,1,2,0
1428.187,0.001017,-0.07226562,-0.03320312,-0.0078125,-0.9765625,-1.164062,7.03125,-0.0625,0,-0.0078125,0.02148438,-0.03125,0,-0.003540039,0.005126953,0.002197266,0,0,0.0003662109,0.1421204,4.077,0,0,0,0.09997559,nan,2,0.065,1,0,0.1563416,0.1270752,0.1386719,0.1463013,0.0009765625,-0.0009765625,0,1,2,0
1428.197,0.001042,0.01171875,0.0234375,-0.02148438,1.390625,-6.125,9.328125,0.046875,-0.01367188,-0.009765625,0.01953125,-0.02929688,0,-0.003295898,0.004882812,0.002197266,0,0,0.0003662109,0.1421204,4.077,0,0,0,0.09997559,nan,2,0.075,1,0,0.1225281,0.1542358,0.1417542,0.1499023,0.0009765625,-0.0009765625,0,1,2,0
1428.207,0.001035,0.06640625,0.0546875,0.01171875,-0.8515625,-1.539062,11.25781,0.046875,0.03515625,-0.0078125,0.01757812,-0.03125,0,-0.002929688,0.005126953,0.001953125,0,0,0.0003662109,0.1421204,4.077,0,0,0,0.09997559,nan,2,0.085,1,0,0.1417847,0.125,0.166748,0.1348877,0.0009765625,-0.0009765625,0,1,2,0
1428.216,0.000997,-0.07226562,-0.001953125,-0.01953125,-0.1171875,-2.992188,5.078125,-0.05273438,-0.001953125,-0.00390625,0.01757812,-0.03125,0,-0.003051758,0.005249023,0.001953125,0,0,0.0003662109,0.2263184,4.077,0,0,0,0.2000122,nan,2,0.003,1,0,0.2328186,0.2182922,0.2063599,0.2477722,0.0009765625,-0.0009765625,0,1,2,0
1428.226,0.001026,-0.001953125,0.03515625,0.02539062,2.734375,-1.328125,4.085938,0.01757812,-0.00390625,0.009765625,0.01953125,-0.03125,0,-0.003295898,0.005126953,0.001953125,0,0,0.0003662109,0.2263184,4.077,0,0,0,0.2000122,nan,2,0.013,1,0,0.2467651,0.1981812,0.2640686,0.1962585,0.0009765625,-0.0009765625,0,1,2,0
1428.237,0.000991,-0.01757812,0.0546875,0.02148438,-1.53125,4.9375,14.59375,-0.02734375,0.03515625,0.0234375,0.01953125,-0.03125,0,-0.003173828,0.005249023,0.002197266,0,0,0.0003662109,0.2263184,4.077,0,0,0,0.2000122,nan,2,0.024,1,0,0.2352905,0.1968994,0.2398071,0.2332458,0.0009765625,-0.0009765625,0,1,2,0
1428.246,0.001052,-0.02148438,0.01171875,0.05078125,0.6875,5.226562,10.44531,-0.05273438,0.04296875,0.04296875,0.0234375,-0.03320312,0,-0.00378418,0.005615234,0.002563477,0,0,0.0003662109,0.2263184,4.077,0,0,0,0.2000122,nan,2,0.033,1,0,0.2581177,0.1819458,0.2572327,0.2080078,0.0009765625,-0.0009765625,0,1,2,0
1428.256,0.000961,0.0078125,-0.04492188,0.1132812,-1.828125,-0.75,7.34375,0,-0.01367188,0.08789062,0.0234375,-0.03320312,0,-0.00378418,0.005615234,0.003173828,0,0,0.0003662109,0.2263184,4.077,0,0,0,0.2000122,nan,2,0.043,1,0,0.2991943,0.1541748,0.2966309,0.1552734,0.0009765625,-0.0009765625,0,1,2,0
1428.267,0.001008,0.01757812,0,0.05664062,-2.171875,1.679688,9.101562,-0.01757812,0.02148438,0.08007812,0.0234375,-0.03515625,0,-0.00390625,0.005859375,0.004150391,0,0,0.0003662109,0.2263184,4.077,0,0,0,0.2000122,nan,2,0.004,1,0,0.2281799,0.2141113,0.2316895,0.2312927,0.0009765625,-0.001953125,0,1,2,0.0952381
1428.277,0.001075,0.046875,-0.02539062,0.0390625,-1.453125,1.921875,13.46094,0.046875,-0.03710938,0.0390625,0.02148438,-0.03320312,0,-0.003662109,0.005615234,0.004638672,0,0,0.0003662109,0.2263184,4.077,0,0,0,0.2000122,nan,2,0.014,1,0,0.2098694,0.248291,0.2124329,0.2346802,0.0009765625,-0.001953125,0,1,2,0
1428.286,0.001007,-0.01757812,0.05273438,0.005859375,1.726562,0.15625,8.109375,0.00390625,0.02539062,0.01367188,0.01953125,-0.03320312,0,-0.003295898,0.005615234,0.004882812,0,0,0.0003662109,0.2263184,4.077,0,0,0,0.2000122,nan,2,0.024,1,0,0.1988831,0.2321777,0.2087708,0.2654419,0.0009765625,-0.001953125,0,1,2,0
1428.297,0.001007,0.06054688,-0.09570312,0.04492188,-1.140625,-3.9375,10.19531,0.01757812,-0.0234375,0.0390625,0.02148438,-0.03515625,0,-0.003540039,0.005859375,0.005126953,0,0,0.0003662109,0.2263184,4.077,0,0,0,0.2000122,nan,2,0.034,1,0,0.2641907,0.2015686,0.2605591,0.1789551,0.0009765625,-0.001953125,0,1,2,0
1428.307,0.00101,-0.02734375,0.015625,-0.1054688,1.265625,3.171875,12.36719,0.02539062,-0.015625,-0.05273438,0.01953125,-0.03125,0,-0.003173828,0.005371094,0.005126953,0,0,0.0003662109,0.2263184,4.077,0,0,0,0.2000122,nan,2,0.044,1,0,0.1058655,0.3319397,0.1148376,0.3526306,0.0009765625,-0.001953125,0,1,2,0
1428.317,0.001047,-0.0625,0.0078125,-0.1835938,-0.3046875,-5.617188,7.53125,-0.02929688,0.015625,-0.1582031,0.01953125,-0.03320312,0,-0.003173828,0.005371094,0.00390625,0,0,0.0003662109,0.2263184,4.077,0,0,0,0.2000122,nan,2,0.001,1,0,0.09484863,0.3443604,0.09024048,0.375824,0.0009765625,-0.001953125,0,1,2,0.1269841
1428.327,0.00101,0.2460938,0.04882812,-0.2578125,-0.609375,-1.734375,8.109375,0.08007812,-0.0234375,-0.1757812,0.01953125,-0.03125,0,-0.003051758,0.005249023,0.002319336,0,0,0.0003662109,0.2263184,4.077,0,0,0,0.2000122,nan,2,0.011,1,0,0.1026306,0.3468323,0.1412048,0.3146057,0.0009765625,-0.001953125,0,1,2,0
1428.337,0.001012,-0.1367188,0.06054688,0.02734375,-0.8046875,6.210938,14.16406,-0.03710938,0.02734375,-0.03125,0.015625,-0.03125,0,-0.002563477,0.005249023,0.001342773,0,0,0.0003662109,0.2263184,4.077,0,0,0,0.2000122,nan,2,0.021,1,0,0.353363,0.07995605,0.3356934,0.1362305,0.0009765625,-0.001953125,0,1,2,0
1428.347,0.001009,0.2070312,0.1113281,0.00390625,-0.1796875,7.75,11.41406,0.02929688,0.04882812,0.01171875,0.02148438,-0.03320312,0,-0.003540039,0.005493164,0.001342773,0,0,0.0003662109,0.2263184,4.077,0,0,0,0.2000122,nan,2,0.031,1,0,0.2212524,0.2038269,0.2875977,0.1925659,0.0009765625,-0.001953125,0,1,2,0
1428.356,0.001008,-0.02539062,-0.0625,0.03515625,-0.6953125,6.71875,12.54688,0.0859375,-0.02929688,0.03320312,0.015625,-0.03515625,0,-0.002685547,0.005859375,0.001586914,0,0,0.0003662109,0.2263184,4.077,0,0,0,0.2000122,nan,2,0.04,1,0,0.2634277,0.2064819,0.2587891,0.1765747,0.0009765625,-0.001953125,0,1,2,0
1428.366,0.000994,-0.001953125,0.001953125,0.1347656,1.125,4.304688,10.60938,-0.01953125,0.009765625,0.1074219,0.015625,-0.03515625,0,-0.002563477,0.005737305,0.002319336,0,0,0.0003662109,0.2263184,4.077,0,0,0,0.2000122,nan,2,0,1,0,0.3323364,0.106842,0.3258057,0.1402893,0.0009765625,-0.001953125,0,1,2,0
1428.376,0.000999,-0.0390625,-0.02148438,0.01757812,0.203125,0.6015625,12.88281,-0.02929688,0.001953125,0.04882812,0.015625,-0.03515625,0,-0.002685547,0.005859375,0.003173828,0,0,0.0003662109,0.2263184,4.077,0,0,0,0.2000122,nan,2,0.01,1,0,0.1853943,0.2614746,0.1772766,0.2811279,0.0009765625,-0.001953125,0,1,2,0
1428.387,0.001013,0.005859375,0.01171875,0.04296875,-2.835938,2.921875,11.09375,0.001953125,0.00390625,0.05078125,0.01757812,-0.03515625,0,-0.002929688,0.005859375,0.003662109,0,0,0.0003662109,0.2263184,4.077,0,0,0,0.2000122,nan,2,0.02,1,0,0.2297668,0.2131653,0.2432251,0.2191162,0.0009765625,-0.001953125,0,1,2,0
1428.397,0.00101,-0.01757812,-0.001953125,-0.04296875,-1.789062,0.875,7.3125,0.01367188,-0.01367188,-0.00390625,0.01757812,-0.03515625,0,-0.002807617,0.005737305,0.00402832,0,0,0.0003662109,0.2263184,4.077,0,0,0,0.2000122,nan,2,0.03,1,0,0.1565857,0.2918396,0.160553,0.2962952,0.0009765625,-0.001953125,0,1,2,0
1428.407,0.001019,-0.0859375,-0.02539062,-0.04492188,0.6484375,-2.085938,4.945312,-0.04882812,0.02148438,-0.06054688,0.01757812,-0.03515625,0,-0.002929688,0.005859375,0.003540039,0,0,0.0003662109,0.2263184,4.077,0,0,0,0.2000122,nan,2,0.04,1,0,0.1682434,0.269043,0.1580505,0.3099365,0.0009765625,-0.001953125,0,1,2,0
1428.417,0.001038,0.04101562,-0.07421875,0.00390625,-1.664062,7.703125,14.25,0.01367188,-0.0234375,-0.0234375,0.01953125,-0.03320312,0,-0.003173828,0.005737305,0.003173828,0,0,0.0003662109,0.2263184,4.077,0,0,0,0.2000122,nan,2,0.002,1,0,0.2447205,0.2093811,0.2524719,0.1987,0.0009765625,-0.001953125,0,1,2,0
1428.427,0.001007,0.08789062,-0.07617188,0.1074219,1.367188,0.6484375,6.710938,0.04101562,-0.04101562,0.06054688,0.01757812,-0.03320312,0,-0.002807617,0.005615234,0.003295898,0,0,0.0003662109,0.2263184,4.077,0,0,0,0.2000122,nan,2,0.012,1,0,0.3399658,0.1213989,0.3405457,0.1033325,0.0009765625,-0.001953125,0,1,2,0
1428.437,0.001,-0.09765625,0.0234375,0.0703125,1.25,4.953125,9.109375,-0.05273438,0.03125,0.078125,0.01757812,-0.03515625,0,-0.002807617,0.005859375,0.00402832,0,0,0.0003662109,0.2263184,4.077,0,0,0,0.2000122,nan,2,0.022,1,0,0.2785645,0.1602478,0.2644653,0.2019653,0.0009765625,-0.001953125,0,1,2,0
1428.447,0.001009,0.1230469,-0.02929688,-0.01757812,-1.789062,4.679688,15.03906,0.05078125,-0.0234375,0.03320312,0.01757812,-0.03515625,0,-0.003051758,0.005859375,0.004760742,0,0,0.0003662109,0.2263184,4.077,0,0,0,0.2000122,nan,2,0.032,1,0,0.1644592,0.2900696,0.1886902,0.2620239,0.0009765625,-0.001953125,0,1,2,0
1428.456,0.001057,-0.2167969,-0.001953125,-0.01171875,-2.921875,4.6875,15.66406,-0.07617188,-0.005859375,-0.01757812,0.01757812,-0.03515625,0,-0.002807617,0.005737305,0.004638672,0,0,0.0003662109,0.2263184,4.077,0,0,0,0.2000122,nan,2,0.041,1,0,0.2037048,0.2408142,0.1641541,0.2966003,0.0009765625,-0.001953125,0,1,2,0
1428.466,0.001032,-0.02929688,-0.009765625,-0.1054688,1.671875,-10.05469,9.742188,0.02539062,0.03125,-0.078125,0.01953125,-0.03710938,0,-0.003173828,0.005981445,0.004272461,0,0,0.0003662109,0.2263184,4.077,0,0,0,0.2000122,nan,2,0.052,1,0,0.09973145,0.340332,0.130127,0.3350525,0.0009765625,-0.001953125,0,1,2,0
1428.476,0.001003,-0.009765625,0.01367188,-0.1289062,-0.4921875,2.382812,14.11719,0.06640625,-0.05078125,-0.1328125,0.01171875,-0.03320312,0,-0.002075195,0.005737305,0.003051758,0,0,0.0003662109,0.2263184,4.077,0,0,0,0.2000122,nan,2,0.003,1,0,0.1632996,0.2935791,0.1511536,0.2972412,0.0009765625,-0.001953125,0,1,2,0
1428.487,0.000989,-0.0703125,-0.015625,-0.1542969,0.7109375,-0.0625,4.539062,0.02148438,0.02148438,-0.1503906,0.009765625,-0.03515625,0,-0.001586914,0.005859375,0.001586914,0,0,0.0003662109,0.2263184,4.077,0,0,0,0.2000122,nan,2,0.013,1,0,0.17099,0.2678528,0.1730042,0.2934265,0.0009765625,-0.001953125,0,1,2,0
1428.497,0.00101,0.05664062,-0.04882812,-0.06835938,-3.007812,-3.59375,10.5625,0.009765625,-0.0078125,-0.09570312,0.009765625,-0.03515625,0,-0.001586914,0.005981445,0.0002441406,0,0,0.0003662109,0.2263184,4.077,0,0,0,0.2000122,nan,2,0.023,1,0,0.2641296,0.186676,0.2623901,0.1920776,0.0009765625,-0.001953125,0,1,2,0
1428.507,0.001024,-0.09570312,-0.08203125,0.01757812,1.359375,-3.03125,11.41406,-0.03515625,-0.04296875,-0.01953125,0.0078125,-0.03320312,0,-0.001342773,0.005615234,-0.0002441406,0,0,0.0003662109,0.2263184,4.077,0,0,0,0.2000122,nan,2,0.033,1,0,0.3132629,0.1441956,0.2793274,0.1684875,0.0009765625,-0.001953125,0,1,2,0
1428.517,0.001035,0.0390625,-0.009765625,0.04882812,-2.382812,3.015625,12.625,-0.01367188,-0.00390625,0.0390625,0.009765625,-0.03125,0,-0.001464844,0.005249023,-0.0001220703,0,0,0.0003662109,0.2263184,4.077,0,0,0,0.2000122,nan,2,0.002,1,0,0.2748718,0.1611633,0.2869873,0.1822205,0.0009765625,-0.001953125,0,1,2,0
1428.527,0.001034,-0.08398438,-0.01367188,0.1289062,1.179688,-2.484375,9.109375,-0.02539062,0,0.09375,0.0078125,-0.03125,0,-0.001342773,0.005126953,0.0006103516,0,0,0.0003662109,0.2263184,4.077,0,0,0,0.2000122,nan,2,0.012,1,0,0.3114319,0.1266785,0.3082886,0.158844,0.0009765625,-0.001953125,0,1,2,0.3809524
1428.537,0.001014,0.1035156,0.001953125,0.1875,2.859375,-3.984375,10.3125,0.01367188,0.01171875,0.1875,0.009765625,-0.03125,0,-0.001586914,0.005126953,0.002197266,0,0,0.0003662109,0.2263184,4.077,0,0,0,0.2000122,nan,2,0.022,1,0,0.3391113,0.09701538,0.3655701,0.1035767,0.0009765625,-0.001953125,0,1,2,0
1428.547,0.00101,0.02929688,-0.03515625,0.1757812,0.5859375,0.0078125,4.796875,0.001953125,-0.009765625,0.1992188,0.005859375,-0.02929688,0,-0.001098633,0.004760742,0.004150391,0,0,0.0003662109,0.2263184,4.077,0,0,0,0.2000122,nan,2,0.032,1,0,0.2865295,0.1555786,0.285614,0.1775513,0.0009765625,-0.001953125,0,1,2,0
1428.556,0.00105,-0.0390625,-0.01953125,0.02539062,-3.453125,2.8125,9.726562,-0.00390625,-0.009765625,0.078125,0.005859375,-0.02734375,0,-0.0009765625,0.004638672,0.005493164,0,0,0.0003662109,0.2263184,4.077,0,0,0,0.2000122,nan,2,0.041,1,0,0.1321411,0.3114014,0.1297302,0.3319702,0.0009765625,-0.001953125,0,1,2,0
1428.566,0.001056,-0.1816406,0.015625,-0.08007812,-0.0625,-7.976562,11.11719,-0.04101562,-0.0390625,-0.0390625,0.0078125,-0.02539062,0,-0.001220703,0.004394531,0.005493164,0,0,0.0003662109,0.2263184,4.077,0,0,0,0.2000122,nan,2,0.002,1,0,0.1130371,0.3435059,0.09075928,0.3579407,0.0009765625,-0.001953125,0,1,2,0
1428.576,0.00101,-0.2265625,-0.04882812,-0.1464844,1.625,-12.01562,12.51562,-0.1679688,-0.01757812,-0.1308594,0.009765625,-0.02734375,0,-0.001708984,0.004394531,0.004638672,0,0,0.0003662109,0.2263184,4.077,0,0,0,0.2000122,nan,2,0.012,1,0,0.1372681,0.318512,0.06253052,0.3869324,0.0009765625,-0.001953125,0,1,2,0
1428.587,0.001024,0.09375,0.1484375,-0.06835938,-3.007812,7.382812,12.5625,-0.001953125,0.046875,-0.1191406,0.01367188,-0.02734375,0,-0.002441406,0.004516602,0.003173828,0,0,0.0003662109,0.2263184,4.077,0,0,0,0.2000122,nan,2,0.022,1,0,0.2036133,0.2216492,0.2504578,0.2295532,0.0009765625,-0.001953125,0,1,2,0
1428.597,0.001011,0.1035156,-0.1601562,-0.046875,1.5625,1.78125,5.023438,0.03710938,-0.05078125,-0.07226562,0.015625,-0.02734375,0,-0.002441406,0.004638672,0.002197266,0,0,0.0003662109,0.2263184,4.077,0,0,0,0.2000122,nan,2,0.032,1,0,0.2546082,0.2188721,0.2528076,0.1789856,0.0009765625,-0.002929688,0,1,2,0
1428.607,0.00101,-0.05859375,-0.05859375,-0.0390625,-3.273438,-2.765625,13.07031,0.02539062,-0.0078125,-0.0703125,0.009765625,-0.02734375,0,-0.001708984,0.004638672,0.001464844,0,0,0.0003662109,0.2263184,4.077,0,0,0,0.2000122,nan,2,0.042,1,0,0.2296448,0.2221985,0.2177124,0.2357178,0.0009765625,-0.002929688,0,1,2,0
1428.617,0.001005,-0.078125,0.02148438,-0.02929688,1.585938,-3.390625,11.84375,0.03125,0.00390625,-0.02148438,0.0078125,-0.02734375,0,-0.001342773,0.004638672,0.001220703,0,0,0.0003662109,0.2263184,4.077,0,0,0,0.2000122,nan,2,0.052,1,0,0.2362061,0.2072144,0.2380676,0.2237854,0.0009765625,-0.002929688,0,1,2,0
1428.627,0.00101,0.1015625,0,0.07226562,-1.46875,5.703125,18.09375,0.0546875,0.00390625,0.03125,0.005859375,-0.02734375,0,-0.001098633,0.004516602,0.001220703,0,0,0.0003662109,0.2263184,4.077,0,0,0,0.2000122,nan,2,0.063,1,0,0.2787476,0.159668,0.3049011,0.1619263,0.0009765625,-0.002929688,0,1,2,0
1428.637,0.000982,-0.06835938,0,0.05273438,-0.359375,-1.546875,9.570312,-0.06445312,-0.0078125,0.03125,0.0078125,-0.02539062,0,-0.001220703,0.004394531,0.001586914,0,0,0.0003662109,0.2263184,4.077,0,0,0,0.2000122,nan,2,0.073,1,0,0.2599792,0.1847229,0.2403259,0.2202148,0.0009765625,-0.002929688,0,1,2,0.7142857
1428.646,0.000978,0.05664062,-0.1464844,0.171875,0.609375,-4.867188,5.25,-0.03125,-0.01367188,0.08984375,0.009765625,-0.02734375,0,-0.001586914,0.004638672,0.001953125,0,0,0.0003662109,0.2263184,4.077,0,0,0,0.2000122,nan,2,0.082,1,0,0.3525391,0.111145,0.3379822,0.1035767,0.0009765625,-0.002929688,0,1,2,0
1428.656,0.001018,-0.06054688,-0.03710938,0.1464844,2.601562,-2.460938,11.60156,-0.01757812,-0.02539062,0.140625,0.0078125,-0.02539062,0,-0.001342773,0.004394531,0.003295898,0,0,0.0003662109,0.3105164,4.077,0,0,0,0.2999878,nan,2,0.006,1,0,0.3927917,0.2250977,0.3822327,0.2419739,0.0009765625,-0.002929688,0,1,2,0
1428.666,0.001021,-0.0390625,0.0703125,0.1347656,3.257812,-5.59375,13.47656,-0.08789062,0.04492188,0.1230469,0.01171875,-0.02734375,0,-0.002075195,0.004516602,0.004638672,0,0,0.0003662109,0.3105164,4.077,0,0,0,0.2999878,nan,2,0.016,1,0,0.3370972,0.2593079,0.3401184,0.3055725,0.0009765625,-0.002929688,0,1,2,0
1428.676,0.00101,-0.1308594,0.0234375,-0.08007812,1.671875,-4.15625,9.734375,-0.1347656,0.02929688,-0.001953125,0.015625,-0.03125,0,-0.002685547,0.005126953,0.005371094,0,0,0.0003662109,0.3105164,4.077,0,0,0,0.2999878,nan,2,0.026,1,0,0.1814575,0.4333191,0.1417847,0.4855042,0.0009765625,-0.002929688,0,1,2,0
1428.686,0.000944,0.2265625,0.03515625,-0.1894531,1.71875,-8.804688,12.74219,0.08398438,0.00390625,-0.1171875,0.015625,-0.03125,0,-0.002441406,0.005126953,0.004760742,0,0,0.0003662109,0.3105164,4.077,0,0,0,0.2999878,nan,2,0.036,1,0,0.1225281,0.4891052,0.1680298,0.4624329,0.0009765625,-0.002929688,0,1,2,0
1428.697,0.001006,-0.08203125,-0.1113281,-0.04101562,1.875,-1.609375,4.546875,0,-0.02734375,-0.046875,0.01171875,-0.03320312,0,-0.001831055,0.005615234,0.00402832,0,0,0.0003662109,0.3105164,4.077,0,0,0,0.2999878,nan,2,0.046,1,0,0.3564148,0.2842407,0.3130188,0.2884216,0.0009765625,-0.002929688,0,1,2,0
1428.707,0.000983,0.02734375,0.08007812,0.001953125,2,-6.414062,11.48438,-0.02148438,0.07617188,-0.01367188,0.01367188,-0.03515625,0,-0.002075195,0.005981445,0.003662109,0,0,0.0003662109,0.3105164,4.077,0,0,0,0.2999878,nan,2,0.006,1,0,0.3232117,0.2649231,0.3520508,0.3018799,0.0009765625,-0.002929688,0,1,2,0
1428.717,0.00101,0.0078125,0.06054688,-0.09570312,0.6328125,-0.2890625,8.03125,-0.02148438,0.03710938,-0.06445312,0.015625,-0.0390625,0,-0.002441406,0.006347656,0.003295898,0,0,0.0003662109,0.3105164,4.077,0,0,0,0.2999878,nan,2,0.016,1,0,0.2388916,0.3672791,0.2469788,0.3889465,0.0009765625,-0.002929688,0,1,2,0
1428.727,0.00101,-0.07617188,0.1191406,-0.078125,0.0546875,-3.132812,7.039062,-0.05078125,0.02734375,-0.09375,0.01757812,-0.0390625,0,-0.002807617,0.006591797,0.002563477,0,0,0.0003662109,0.3105164,4.077,0,0,0,0.2999878,nan,2,0.026,1,0,0.2480164,0.3553467,0.2475281,0.3912048,0.0009765625,-0.002929688,0,1,2,0
1428.737,0.000981,-0.02734375,0.07421875,-0.07617188,-1.515625,-3.9375,9.96875,-0.0390625,-0.00390625,-0.06445312,0.01953125,-0.0390625,0,-0.003295898,0.006469727,0.001831055,0,0,0.0003662109,0.3105164,4.067,0,0,0,0.2999878,nan,2,0.036,1,0,0.3002625,0.3033752,0.3092651,0.3292236,0.001953125,-0.002929688,0,1,2,0
1428.747,0.001008,-0.001953125,-0.09960938,-0.015625,-1.671875,1.625,10.34375,-0.0625,-0.005859375,-0.02929688,0.02148438,-0.0390625,0,-0.003662109,0.006469727,0.001220703,0,0,0.0003662109,0.3105164,4.067,0,0,0,0.2999878,nan,2,0.046,1,0,0.3531799,0.2622986,0.341095,0.2855225,0.001953125,-0.002929688,0,1,2,0
1428.756,0.000973,-0.02929688,-0.0390625,-0.04492188,-1.617188,5.953125,15.94531,0.01953125,-0.02148438,-0.05664062,0.02148438,-0.0390625,0,-0.00378418,0.006347656,0.0008544922,0,0,0.0003662109,0.3105164,4.067,0,0,0,0.2999878,nan,2,0.008,1,0,0.2673035,0.3509521,0.2758179,0.3480225,0.001953125,-0.002929688,0,1,2,0
1428.766,0.001001,0.06054688,-0.06640625,-0.01953125,-0.25,0.8125,11.00781,0.005859375,-0.02148438,-0.02148438,0.0234375,-0.03710938,0,-0.00402832,0.006225586,0.0004882812,0,0,0.0003662109,0.3105164,4.067,0,0,0,0.2999878,nan,2,0.018,1,0,0.3301392,0.289032,0.3349915,0.2879333,0.001953125,-0.002929688,0,1,2,0
1428.776,0.001007,-0.046875,0.0390625,0.005859375,0.7109375,0.3984375,7.914062,-0.03515625,0.01953125,0.009765625,0.0234375,-0.03710938,0,-0.00402832,0.006225586,0.0004882812,0,0,0.0003662109,0.3105164,4.067,0,0,0,0.2999878,nan,2,0.028,1,0,0.3404541,0.2581787,0.3430786,0.3003845,0.001953125,-0.002929688,0,1,2,0
1428.787,0.000998,0.08203125,0.02539062,0.005859375,1.351562,-4.21875,10.00781,0.0390625,0.02929688,0.02539062,0.02539062,-0.0390625,0,-0.004150391,0.006347656,0.0006103516,0,0,0.0003662109,0.3105164,4.067,0,0,0,0.2999878,nan,2,0.038,1,0,0.3109131,0.2905579,0.3471069,0.2935486,0.001953125,-0.002929688,0,1,2,0
1428.797,0.000946,-0.07617188,0.03320312,0.05664062,-0.4296875,1.359375,8.296875,-0.0234375,0.03320312,0.03320312,0.02539062,-0.0390625,0,-0.004272461,0.006713867,0.0008544922,0,0,0.0003662109,0.3105164,4.067,0,0,0,0.2999878,nan,2,0.048,1,0,0.3438721,0.2591553,0.3476562,0.2914124,0.001953125,-0.002929688,0,1,2,0
1428.807,0.001041,0.1269531,0.02148438,0.06054688,-1.539062,-1.5625,12.21094,0.07421875,-0.0078125,0.05078125,0.02539062,-0.0390625,0,-0.004150391,0.006591797,0.001220703,0,0,0.0003662109,0.3105164,4.067,0,0,0,0.2999878,nan,2,0.005,1,0,0.3318787,0.2814636,0.3625183,0.2662659,0.001953125,-0.002929688,0,1,2,0
1428.817,0.001062,0.03125,0.03320312,0.0625,2.117188,1.890625,5.875,0.03320312,0.015625,0.0625,0.02148438,-0.0390625,0,-0.003540039,0.006713867,0.001708984,0,0,0.0003662109,0.3105164,4.067,0,0,0,0.2999878,nan,2,0.015,1,0,0.3474426,0.2547913,0.358429,0.2814331,0.001953125,-0.002929688,0,1,2,0
1428.827,0.001007,0.06445312,-0.03125,0.001953125,-1.359375,-1.421875,8.96875,0.0234375,-0.02734375,0.0390625,0.02148438,-0.0390625,0,-0.003417969,0.006591797,0.002319336,0,0,0.0003662109,0.3105164,4.067,0,0,0,0.2999878,nan,2,0.025,1,0,0.2888489,0.3329163,0.2889404,0.3314209,0.001953125,-0.00390625,0,1,2,0
1428.836,0.00101,-0.08984375,0.05664062,-0.08789062,0.7421875,0.4140625,8.898438,-0.01757812,0.009765625,-0.04101562,0.01953125,-0.0390625,0,-0.003295898,0.006469727,0.002319336,0,0,0.0003662109,0.3105164,4.067,0,0,0,0.2999878,nan,2,0.034,1,0,0.2088623,0.3896179,0.2078247,0.435791,0.001953125,-0.00390625,0,1,2,0
1428.847,0.000983,-0.03710938,-0.0546875,-0.1054688,1.625,-1.289062,9.429688,-0.03515625,-0.0078125,-0.0859375,0.02148438,-0.04101562,0,-0.003662109,0.006713867,0.001586914,0,0,0.0003662109,0.3105164,4.067,0,0,0,0.2999878,nan,2,0.045,1,0,0.2483826,0.3717957,0.2349854,0.3869324,0.001953125,-0.00390625,0,1,2,0.5238096
1428.856,0.00103,0.01953125,0.01757812,-0.06054688,1.328125,-3.859375,8.578125,0.01367188,-0.01171875,-0.07226562,0.0234375,-0.0390625,0,-0.00378418,0.006469727,0.0007324219,0,0,0.0003662109,0.3105164,4.067,0,0,0,0.2999878,nan,2,0.006,1,0,0.3007812,0.3071594,0.3186646,0.3154907,0.001953125,-0.00390625,0,1,2,0.3174603
1428.866,0.001058,-0.03125,0.01367188,-0.0078125,0.375,-1.0625,8.023438,0.01171875,0.03710938,-0.009765625,0.02148438,-0.04101562,0,-0.003662109,0.006835938,0.0003662109,0,0,0.0003662109,0.3105164,4.067,0,0,0,0.2999878,nan,2,0.016,1,0,0.3493652,0.2500916,0.3656616,0.2770081,0.001953125,-0.00390625,0,1,2,0
1428.876,0.00101,-0.0234375,-0.06445312,-0.015625,-1.867188,-0.140625,12.45312,-0.00390625,-0.01953125,0.01171875,0.02148438,-0.04101562,0,-0.003662109,0.006835938,0.0004882812,0,0,0.0003662109,0.3105164,4.067,0,0,0,0.2999878,nan,2,0.026,1,0,0.3309021,0.2888489,0.3195801,0.3027649,0.001953125,-0.00390625,0,1,2,0
1428.886,0.00101,-0.1171875,0.03125,0.00390625,-0.421875,2.734375,10.9375,-0.0390625,0.0234375,0.0078125,0.0234375,-0.04101562,0,-0.00378418,0.006835938,0.0004882812,0,0,0.0003662109,0.3105164,4.067,0,0,0,0.2999878,nan,2,0.036,1,0,0.3193359,0.2796021,0.3170471,0.3261108,0.001953125,-0.00390625,0,1,2,0
1428.897,0.00101,0.03515625,0.04101562,0.001953125,1.8125,0.2265625,6.632812,0.04492188,-0.02929688,0.005859375,0.0234375,-0.0390625,0,-0.00390625,0.006591797,0.0006103516,0,0,0.0003662109,0.3105164,4.067,0,0,0,0.2999878,nan,2,0.046,1,0,0.2954712,0.3187256,0.3191223,0.3087769,0.001953125,-0.00390625,0,1,2,0
1428.907,0.00102,0.09375,0.046875,-0.00390625,0.2265625,-4.515625,7.546875,-0.001953125,0.01757812,-0.015625,0.0234375,-0.0390625,0,-0.00378418,0.006591797,0.0004882812,0,0,0.0003662109,0.3105164,4.067,0,0,0,0.2999878,nan,2,0.003,1,0,0.2869568,0.3113708,0.3037415,0.3400269,0.001953125,-0.00390625,0,1,2,0
1428.917,0.001048,0.005859375,0.01757812,-0.03125,-1.476562,2.125,10.02344,0.05273438,0,-0.01367188,0.02148438,-0.04101562,0,-0.003540039,0.006713867,0.0003662109,0,0,0.0003662109,0.3105164,4.067,0,0,0,0.2999878,nan,2,0.013,1,0,0.2852173,0.3259888,0.3050842,0.3258057,0.001953125,-0.00390625,0,1,2,0
1428.927,0.001013,0.07226562,-0.005859375,0.04101562,-1.476562,2.71875,14.50781,0.03320312,-0.01171875,0.015625,0.01953125,-0.0390625,0,-0.003295898,0.006713867,0.0003662109,0,0,0.0003662109,0.3105164,4.067,0,0,0,0.2999878,nan,2,0.023,1,0,0.3476562,0.2648315,0.3604126,0.2692566,0.001953125,-0.00390625,0,1,2,0
1428.937,0.000971,-0.08203125,0.06445312,0.005859375,1.421875,1.84375,9.085938,-0.03515625,0.04101562,0.015625,0.01953125,-0.04101562,0,-0.003295898,0.006713867,0.0006103516,0,0,0.0003662109,0.3105164,4.067,0,0,0,0.2999878,nan,2,0.033,1,0,0.3058777,0.2846069,0.30896,0.3426514,0.001953125,-0.00390625,0,1,2,0.04761905
1428.947,0.000998,0.06835938,0.009765625,-0.04882812,1.125,-4.265625,11.11719,0.01171875,0.02734375,-0.01367188,0.02148438,-0.04296875,0,-0.003540039,0.007202148,0.0006103516,0,0,0.0003662109,0.3105164,4.067,0,0,0,0.2999878,nan,2,0.043,1,0,0.2611389,0.3475647,0.285675,0.3477173,0.001953125,-0.00390625,0,1,2,0
1428.957,0.001035,-0.0546875,-0.03515625,-0.001953125,-1.210938,1.296875,9.117188,0.01757812,-0.0234375,-0.0078125,0.01953125,-0.04296875,0,-0.003417969,0.007080078,0.0004882812,0,0,0.0003662109,0.3105164,4.067,0,0,0,0.2999878,nan,2,0.009,1,0,0.3101196,0.309021,0.3060913,0.316864,0.001953125,-0.00390625,0,1,2,0
1428.966,0.001007,0.005859375,0.09179688,-0.0078125,-0.6796875,4.421875,12.41406,-0.03125,0.046875,-0.005859375,0.02148438,-0.04296875,0,-0.003540039,0.007202148,0.0004882812,0,0,0.0003662109,0.3105164,4.067,0,0,0,0.2999878,nan,2,0.018,1,0,0.2936707,0.2957153,0.3092651,0.3434143,0.001953125,-0.00390625,0,1,2,0
1428.976,0.000935,-0.03125,-0.06445312,-0.06640625,-0.734375,-1.117188,11.57031,0.005859375,-0.005859375,-0.05273438,0.02148438,-0.04492188,0,-0.003540039,0.007568359,0.0001220703,0,0,0.0003662109,0.3105164,4.067,0,0,0,0.2999878,nan,2,0.028,1,0,0.2574768,0.3653564,0.253418,0.3658752,0.001953125,-0.00390625,0,1,2,0
1428.986,0.001007,0.06835938,0.1660156,-0.0234375,2.289062,0.8359375,9.789062,0.0234375,0.0546875,-0.05078125,0.02148438,-0.04492188,0,-0.003540039,0.007568359,-0.0004882812,0,0,0.0003662109,0.3105164,4.067,0,0,0,0.2999878,nan,2,0.038,1,0,0.2912598,0.2876892,0.3391113,0.3240356,0.001953125,-0.00390625,0,1,2,0.1269841
1428.997,0.001015,0.08007812,-0.09179688,-0.0234375,2.257812,-0.5,5.9375,-0.01171875,-0.03125,-0.04492188,0.0234375,-0.046875,0,-0.00390625,0.0078125,-0.0009765625,0,0,0.0003662109,0.3105164,4.067,0,0,0,0.2999878,nan,2,0.048,1,0,0.3165894,0.3125305,0.3102112,0.3027649,0.001953125,-0.00390625,0,1,2,0
1429.007,0.001016,0.08984375,0.1113281,-0.005859375,1.875,-4.625,11.25781,0.03710938,0.02539062,-0.01367188,0.02148438,-0.04492188,0,-0.003540039,0.00769043,-0.001220703,0,0,0.0003662109,0.3105164,4.067,0,0,0,0.2999878,nan,2,0.005,1,0,0.3022766,0.2864075,0.3388062,0.3146057,0.001953125,-0.00390625,0,1,2,0
1429.017,0.00101,0.009765625,0.08007812,-0.0390625,-0.2265625,-1.984375,5.898438,-0.01171875,0.02148438,-0.01757812,0.02148438,-0.04492188,0,-0.003417969,0.007568359,-0.001342773,0,0,0.0003662109,0.3105164,4.067,0,0,0,0.2999878,nan,2,0.015,1,0,0.2939453,0.2990723,0.3067017,0.3424072,0.001953125,-0.00390625,0,1,2,0
1429.027,0.00101,0.1484375,-0.01171875,0.02539062,-1.570312,0.890625,12.35156,0.01367188,0.00390625,0.0078125,0.02148438,-0.046875,0,-0.003662109,0.00769043,-0.001464844,0,0,0.0003662109,0.3105164,4.067,0,0,0,0.2999878,nan,2,0.025,1,0,0.3361816,0.2711792,0.3594666,0.2752991,0.001953125,-0.004882812,0,1,2,0
1429.037,0.000981,0.01171875,0.03320312,0.05273438,-2.242188,4.648438,12.02344,0.00390625,0.02148438,0.02929688,0.02148438,-0.046875,0,-0.003662109,0.0078125,-0.001342773,0,0,0.0003662109,0.3105164,4.067,0,0,0,0.2999878,nan,2,0.035,1,0,0.342041,0.2580872,0.3574524,0.2845459,0.001953125,-0.004882812,0,1,2,0
1429.047,0.001002,-0.046875,-0.005859375,0.07617188,0.6015625,-2.492188,7.445312,-0.04296875,0.02148438,0.07226562,0.0234375,-0.04882812,0,-0.00378418,0.008178711,-0.0007324219,0,0,0.0003662109,0.3105164,4.067,0,0,0,0.2999878,nan,2,0.045,1,0,0.3745117,0.2340088,0.3668823,0.2667236,0.001953125,-0.004882812,0,1,2,0
1429.056,0.001008,0.0234375,-0.03125,0.09179688,0.625,-1.765625,7.664062,0.00390625,-0.01367188,0.0859375,0.0234375,-0.04882812,0,-0.00390625,0.008178711,0,0,0,0.0003662109,0.3105164,4.067,0,0,0,0.2999878,nan,2,0.006,1,0,0.3518372,0.2649841,0.3545532,0.2707214,0.001953125,-0.004882812,0,1,2,0
1429.066,0.000944,-0.08007812,0.04882812,0.04296875,-1.78125,1.21875,10.96094,-0.0390625,0.02148438,0.06835938,0.0234375,-0.04882812,0,-0.00390625,0.008178711,0.0006103516,0,0,0.0003662109,0.3105164,4.067,0,0,0,0.2999878,nan,2,0.016,1,0,0.3240662,0.2712708,0.322876,0.3239136,0.001953125,-0.004882812,0,1,2,0
1429.076,0.00101,0.1386719,-0.04296875,-0.04296875,0.4375,3.726562,10.33594,0.0234375,-0.02734375,0.01171875,0.02539062,-0.04882812,0,-0.004150391,0.008300781,0.0009765625,0,0,0.0003662109,0.3105164,4.067,0,0,0,0.2999878,nan,2,0.026,1,0,0.2492065,0.3711548,0.2649536,0.356781,0.001953125,-0.004882812,0,1,2,0
1429.087,0.00105,-0.02929688,-0.04296875,-0.06054688,1.460938,-1.921875,9.03125,-0.03320312,0.001953125,-0.04882812,0.0234375,-0.04882812,0,-0.00402832,0.008178711,0.0007324219,0,0,0.0003662109,0.3105164,4.067,0,0,0,0.2999878,nan,2,0.036,1,0,0.2417297,0.3612366,0.2339172,0.4052124,0.001953125,-0.004882812,0,1,2,0.03174603
1429.097,0.00102,-0.078125,0.0078125,-0.05859375,1.367188,-5.304688,8.789062,-0.05859375,0.0078125,-0.04296875,0.02734375,-0.04882812,0,-0.004638672,0.008056641,0.0003662109,0,0,0.0003662109,0.3105164,4.067,0,0,0,0.2999878,nan,2,0.046,1,0,0.2848511,0.3156738,0.2873535,0.3542175,0.001953125,-0.004882812,0,1,2,0
1429.107,0.001046,-0.005859375,-0.05273438,-0.00390625,0.6484375,-2.195312,7.492188,0.0390625,-0.05078125,-0.01757812,0.02734375,-0.04492188,0,-0.004394531,0.00769043,0,0,0,0.0003662109,0.3105164,4.067,0,0,0,0.2999878,nan,2,0.057,1,0,0.3323364,0.2850342,0.3363647,0.2883606,0.001953125,-0.004882812,0,1,2,0
1429.117,0.000992,-0.07226562,0.08007812,-0.04296875,-0.84375,0.5703125,6.242188,-0.04492188,0.0390625,0,0.02734375,-0.04492188,0,-0.004516602,0.007568359,0,0,0,0.0003662109,0.3105164,4.067,0,0,0,0.2999878,nan,2,0.067,1,0,0.3015747,0.2824097,0.3124084,0.3457031,0.001953125,-0.004882812,0,1,2,0
1429.127,0.00095,0.08007812,-0.05273438,-0.04882812,-2.289062,0.546875,10.96094,0.02148438,-0.0078125,-0.03320312,0.02929688,-0.046875,0,-0.004760742,0.00793457,-0.0002441406,0,0,0.0003662109,0.3105164,4.067,0,0,0,0.2999878,nan,2,0.077,1,0,0.2790527,0.3402405,0.2907715,0.3320312,0.002929688,-0.004882812,0,1,2,0
1429.137,0.001015,0.03515625,0.005859375,-0.09375,-0.4921875,5.921875,14.71875,0.04101562,0.009765625,-0.08789062,0.02734375,-0.046875,0,-0.004394531,0.00769043,-0.0009765625,0,0,0.0003662109,0.3105164,4.067,0,0,0,0.2999878,nan,2,0.005,1,0,0.2296753,0.3673096,0.2527466,0.392395,0.002929688,-0.004882812,0,1,2,0
1429.147,0.001027,0.1152344,-0.00390625,-0.02734375,0.046875,1.773438,10.92188,-0.02734375,0.005859375,-0.04882812,0.02734375,-0.046875,0,-0.004516602,0.00793457,-0.001586914,0,0,0.0003662109,0.3105164,4.067,0,0,0,0.2999878,nan,2,0.015,1,0,0.3280029,0.2781677,0.3293152,0.3066101,0.002929688,-0.004882812,0,1,2,0
1429.157,0.001011,0.1191406,-0.02148438,0.005859375,0.3125,-1.375,12.13281,0.06054688,-0.001953125,-0.009765625,0.02539062,-0.04882812,0,-0.004394531,0.008056641,-0.001831055,0,0,0.0003662109,0.3105164,4.067,0,0,0,0.2999878,nan,2,0.025,1,0,0.3190002,0.2930298,0.3464355,0.2836304,0.002929688,-0.004882812,0,1,2,0
1429.166,0.001011,-0.05859375,0.0234375,0.06640625,1.1875,-0.7734375,9.867188,-0.015625,0.0234375,0.0390625,0.02539062,-0.04882812,0,-0.004150391,0.008056641,-0.001586914,0,0,0.0003662109,0.3105164,4.067,0,0,0,0.2999878,nan,2,0.034,1,0,0.375061,0.2197876,0.3742065,0.2730408,0.002929688,-0.004882812,0,1,2,0.3333333
1429.176,0.001,-0.05078125,0.0546875,0.01171875,1.46875,-5.398438,9.617188,0.01367188,0.03320312,0.02539062,0.02539062,-0.04882812,0,-0.004150391,0.008300781,-0.001220703,0,0,0.0003662109,0.3105164,4.067,0,0,0,0.2999878,nan,2,0.045,1,0,0.2885132,0.3070374,0.3091431,0.3374023,0.002929688,-0.004882812,0,1,2,0
1429.186,0.00097,0.00390625,-0.03320312,0.005859375,-2.523438,0.625,8.125,0.01757812,-0.02539062,0.02148438,0.0234375,-0.04882812,0,-0.00402832,0.008178711,-0.0009765625,0,0,0.0003662109,0.3105164,4.067,0,0,0,0.2999878,nan,2,0.007,1,0,0.3042603,0.3078918,0.3084106,0.3215332,0.002929688,-0.004882812,0,1,2,0
1429.196,0.00101,-0.001953125,0.09179688,0.01953125,-1.21875,3.648438,12.46094,-0.03125,0.04882812,0.01757812,0.02539062,-0.04882812,0,-0.004150391,0.008300781,-0.0008544922,0,0,0.0003662109,0.3105164,4.067,0,0,0,0.2999878,nan,2,0.017,1,0,0.3178101,0.2662964,0.3329468,0.3250427,0.002929688,-0.004882812,0,1,2,0
1429.207,0.000988,0.03515625,-0.1035156,0.01367188,0.8125,-1.1875,7.679688,0.0390625,-0.03515625,0.01757812,0.02539062,-0.05078125,0,-0.004150391,0.008422852,-0.0006103516,0,0,0.0003662109,0.3105164,4.067,0,0,0,0.2999878,nan,2,0.027,1,0,0.3082275,0.3202209,0.3125305,0.3011475,0.002929688,-0.004882812,0,1,2,0
1429.217,0.00101,-0.046875,0.015625,0.08984375,1.179688,-3.351562,7.53125,-0.01757812,0.01953125,0.04101562,0.0234375,-0.05078125,0,-0.00402832,0.008422852,-0.0004882812,0,0,0.0003662109,0.3105164,4.067,0,0,0,0.2999878,nan,2,0.037,1,0,0.3687744,0.2280273,0.372467,0.2728271,0.002929688,-0.005859375,0,1,2,0
1429.227,0.00101,-0.00390625,0.005859375,0.06445312,-0.3515625,-2.007812,9.5,-0.01171875,0.01757812,0.07421875,0.02539062,-0.05273438,0,-0.004272461,0.008789062,0.0001220703,0,0,0.0003662109,0.3105164,4.067,0,0,0,0.2999878,nan,2,0.047,1,0,0.3495789,0.2550049,0.3609924,0.2765503,0.002929688,-0.005859375,0,1,2,0.1746032
1429.237,0.001047,-0.0078125,0.03320312,0.0078125,-1.679688,3.695312,12.96875,0.00390625,-0.0078125,0.03515625,0.02539062,-0.05078125,0,-0.004150391,0.008666992,0.0007324219,0,0,0.0003662109,0.3105164,4.067,0,0,0,0.2999878,nan,2,0.058,1,0,0.2786865,0.3237305,0.286438,0.3532715,0.002929688,-0.005859375,0,1,2,0
1429.247,0.001009,0.02148438,0.005859375,-0.0234375,0.984375,0.0390625,9.78125,0,0,-0.005859375,0.02539062,-0.05273438,0,-0.004272461,0.008666992,0.0008544922,0,0,0.0003662109,0.3105164,4.067,0,0,0,0.2999878,nan,2,0.068,1,0,0.2728882,0.3314209,0.2831726,0.3546448,0.002929688,-0.005859375,0,1,2,0.7460318
1429.257,0.001066,-0.07617188,0.05859375,-0.0546875,1.429688,0.0078125,7.953125,-0.046875,0.03125,-0.03515625,0.02734375,-0.05273438,0,-0.004516602,0.008789062,0.0004882812,0,0,0.0003662109,0.3105164,4.067,0,0,0,0.2999878,nan,2,0.078,1,0,0.2703857,0.3227844,0.2747192,0.3742065,0.002929688,-0.005859375,0,1,2,0
1429.266,0.000995,-0.1210938,0.05664062,-0.08007812,0.7734375,-4.273438,7.117188,-0.06054688,0.03710938,-0.0625,0.02929688,-0.0546875,0,-0.004760742,0.009033203,0.0001220703,0,0,0.0003662109,0.3105164,4.067,0,0,0,0.2999878,nan,2,0.087,1,0,0.2526245,0.3381042,0.2526855,0.3987122,0.002929688,-0.005859375,0,1,2,0
1429.276,0.001013,0,0.09179688,-0.04882812,-0.875,-2.773438,9.507812,-0.001953125,0.03125,-0.046875,0.02929688,-0.0546875,0,-0.004882812,0.009155273,-0.0003662109,0,0,0.0003662109,0.3105164,4.067,0,0,0,0.2999878,nan,2,0,1,0,0.2901611,0.3051758,0.3089294,0.3378296,0.002929688,-0.005859375,0,1,2,0.0952381
1429.287,0.001068,0.04882812,-0.0546875,-0.03710938,-0.15625,-3.21875,6.921875,0.03125,-0.03125,-0.04492188,0.02929688,-0.0546875,0,-0.004760742,0.009033203,-0.0008544922,0,0,0.0003662109,0.3105164,4.067,0,0,0,0.2999878,nan,2,0.01,1,0,0.2907104,0.3230591,0.2996521,0.3286743,0.002929688,-0.005859375,0,1,2,0
1429.297,0.001025,0.1152344,0.1035156,0.00390625,-1.023438,1.101562,8.15625,0.0625,0.03125,-0.02148438,0.02734375,-0.05273438,0,-0.004516602,0.008911133,-0.001220703,0,0,0.0003662109,0.3105164,4.067,0,0,0,0.2999878,nan,2,0.02,1,0,0.3195496,0.263855,0.3722839,0.2864075,0.002929688,-0.005859375,0,1,2,0
1429.307,0.001024,0.04296875,-0.009765625,0.01367188,-2.445312,2.039062,13.94531,0.005859375,-0.02734375,-0.00390625,0.02734375,-0.0546875,0,-0.004394531,0.009033203,-0.001342773,0,0,0.0003662109,0.3105164,4.067,0,0,0,0.2999878,nan,2,0.03,1,0,0.3373718,0.2796631,0.3337708,0.2912598,0.002929688,-0.005859375,0,1,2,0
1429.317,0.00101,-0.08789062,0.0546875,-0.01171875,-1.078125,5.9375,14.14844,0.001953125,0.0078125,-0.00390625,0.02539062,-0.0546875,0,-0.004272461,0.009033203,-0.001342773,0,0,0.0003662109,0.3105164,4.067,0,0,0,0.2999878,nan,2,0.04,1,0,0.2944031,0.3024902,0.3024292,0.3427734,0.002929688,-0.005859375,0,1,2,0
1429.327,0.00101,0.0390625,-0.01757812,0.03125,0.796875,-0.2734375,9.867188,-0.01367188,-0.009765625,0.015625,0.02539062,-0.0546875,0,-0.004394531,0.009155273,-0.001342773,0,0,0.0003662109,0.3105164,4.067,0,0,0,0.2999878,nan,2,0.05,1,0,0.3421326,0.268219,0.3392944,0.2924805,0.002929688,-0.005859375,0,1,2,0.2539683
1429.337,0.001068,0.05859375,-0.04296875,-0.00390625,2.429688,-2.4375,5.265625,-0.01367188,0.009765625,0.02148438,0.02734375,-0.0546875,0,-0.004516602,0.009155273,-0.001098633,0,0,0.0003662109,0.3105164,4.067,0,0,0,0.2999878,nan,2,0.061,1,0,0.3125305,0.2880859,0.3248291,0.3166809,0.002929688,-0.005859375,0,1,2,0
1429.347,0.000995,-0.00390625,0.005859375,0.0234375,1.195312,-2.375,7.414062,-0.01953125,-0.0078125,0.02539062,0.02734375,-0.0546875,0,-0.004516602,0.009277344,-0.0008544922,0,0,0.0003662109,0.3105164,4.067,0,0,0,0.2999878,nan,2,0.071,1,0,0.3249817,0.2828979,0.3199463,0.31427,0.002929688,-0.005859375,0,1,2,0
1429.357,0.001014,-0.1464844,-0.0078125,0.0390625,-1.1875,-4.742188,11.96094,-0.01757812,-0.01171875,0.0390625,0.02539062,-0.0546875,0,-0.004272461,0.009033203,-0.0004882812,0,0,0.0003662109,0.3105164,4.067,0,0,0,0.2999878,nan,2,0.081,1,0,0.3298645,0.2720947,0.319397,0.3207397,0.002929688,-0.005859375,0,1,2,0
1429.366,0.001012,-0.00390625,-0.01953125,0.0625,-1.765625,7.125,15.36719,-0.02148438,0.0234375,0.05664062,0.02734375,-0.0546875,0,-0.004516602,0.009277344,0,0,0,0.0003662109,0.3105164,4.067,0,0,0,0.2999878,nan,2,0.008,1,0,0.3348389,0.2623596,0.3445435,0.3003845,0.002929688,-0.005859375,0,1,2,0
1429.376,0.000988,0.015625,-0.03320312,0.078125,-0.109375,-2.117188,11.21875,0.0546875,-0.05273438,0.0625,0.02539062,-0.0546875,0,-0.004272461,0.009033203,0.0006103516,0,0,0.0003662109,0.3105164,4.067,0,0,0,0.2999878,nan,2,0.018,1,0,0.324585,0.2950439,0.3338013,0.2886963,0.002929688,-0.005859375,0,1,2,0
1429.386,0.000959,0.01367188,0.04101562,0.08203125,1.476562,1.015625,6.9375,-0.001953125,0.01953125,0.0625,0.02539062,-0.05273438,0,-0.004150391,0.008911133,0.001220703,0,0,0.0003662109,0.3105164,4.07,0,0,0,0.2999878,nan,2,0.028,1,0,0.3245544,0.2647705,0.3421936,0.3106079,0.002929688,-0.006835938,0,1,2,0
1429.397,0.001068,0.02929688,-0.01757812,-0.015625,1.296875,-5.335938,7.945312,0.005859375,0.0234375,0,0.0234375,-0.0546875,0,-0.00402832,0.009155273,0.001586914,0,0,0.0003662109,0.3105164,4.07,0,0,0,0.2999878,nan,2,0.008,1,0,0.2521667,0.3458252,0.2659912,0.3781128,0.002929688,-0.006835938,0,1,2,0.3650794
1429.407,0.00101,0.09765625,-0.05078125,-0.03710938,-1.882812,0.4921875,8.039062,0.04882812,-0.03320312,-0.03320312,0.0234375,-0.0546875,0,-0.00390625,0.009277344,0.001464844,0,0,0.0003662109,0.3105164,4.07,0,0,0,0.2999878,nan,2,0.018,1,0,0.250885,0.369873,0.2632751,0.3580627,0.002929688,-0.006835938,0,1,2,0
1429.417,0.00104,-0.07421875,0.05664062,-0.01757812,-1.976562,5.703125,12.14062,-0.015625,0.0234375,-0.0234375,0.02148438,-0.0546875,0,-0.003540039,0.009155273,0.001220703,0,0,0.0003662109,0.3105164,4.07,0,0,0,0.2999878,nan,2,0.028,1,0,0.3074646,0.2807312,0.3119202,0.34198,0.002929688,-0.006835938,0,1,2,0
1429.427,0.001004,0.06640625,-0.1035156,0,-2.765625,3.710938,13.91406,-0.015625,-0.03515625,0,0.0234375,-0.0546875,0,-0.00390625,0.009277344,0.001098633,0,0,0.0003662109,0.3105164,4.07,0,0,0,0.2999878,nan,2,0.038,1,0,0.3300171,0.2907104,0.3275757,0.2938232,0.002929688,-0.006835938,0,1,2,0
1429.437,0.0009860001,-0.06835938,0.09179688,0.001953125,-1.3125,2.007812,12.69531,0.046875,0.03125,-0.01171875,0.02148438,-0.0546875,0,-0.003540039,0.009155273,0.0009765625,0,0,0.0003662109,0.3105164,4.07,0,0,0,0.2999878,nan,2,0.048,1,0,0.29245,0.2889099,0.3343506,0.3263855,0.002929688,-0.006835938,0,1,2,0
1429.447,0.001013,0,0.04101562,0.001953125,0.8203125,3.492188,10.91406,0.02734375,0.0234375,-0.00390625,0.02148438,-0.05664062,0,-0.003540039,0.009399414,0.0008544922,0,0,0.0003662109,0.3105164,4.07,0,0,0,0.2999878,nan,2,0.006,1,0,0.3122253,0.2841492,0.3380127,0.3077393,0.002929688,-0.006835938,0,1,2,0
1429.456,0.001029,0.1289062,-0.08203125,-0.02148438,1.640625,-1.867188,10.52344,0.09375,-0.02734375,-0.03515625,0.01757812,-0.05664062,0,-0.002929688,0.009521484,0.0004882812,0,0,0.0003662109,0.3105164,4.07,0,0,0,0.2999878,nan,2,0.015,1,0,0.2810974,0.3385315,0.2971802,0.3253174,0.002929688,-0.006835938,0,1,2,0
1429.466,0.001009,-0.1132812,-0.0078125,-0.03320312,1.671875,-5.03125,6.710938,-0.03125,0.0078125,-0.03320312,0.01367188,-0.05664062,0,-0.002319336,0.009399414,0.0002441406,0,0,0.0003662109,0.3105164,4.07,0,0,0,0.2999878,nan,2,0.025,1,0,0.3027344,0.2946167,0.2831726,0.3616028,0.002929688,-0.006835938,0,1,2,0
1429.476,0.000989,-0.08398438,-0.04492188,-0.02734375,1.523438,-1.1875,5,-0.01953125,-0.04296875,-0.03515625,0.01367188,-0.05664062,0,-0.002441406,0.009399414,-0.0001220703,0,0,0.0003662109,0.3105164,4.07,0,0,0,0.2999878,nan,2,0,1,0,0.3077087,0.3106689,0.2892151,0.3345032,0.002929688,-0.006835938,0,1,2,0
1429.486,0.00101,0.08789062,0.02734375,0.015625,1.703125,-4.296875,11.34375,0.09179688,-0.009765625,-0.02148438,0.01171875,-0.0546875,0,-0.001953125,0.009277344,-0.0003662109,0,0,0.0003662109,0.3105164,4.07,0,0,0,0.2999878,nan,2,0.01,1,0,0.2977905,0.3018188,0.3404236,0.302063,0.002929688,-0.006835938,0,1,2,0
1429.496,0.00101,0.01757812,0.01367188,-0.02929688,0.40625,-5.585938,8.796875,0.005859375,0.005859375,-0.00390625,0.01171875,-0.0546875,0,-0.001953125,0.009155273,-0.0003662109,0,0,0.0003662109,0.3105164,4.07,0,0,0,0.2999878,nan,2,0.02,1,0,0.2888794,0.3031921,0.3124084,0.3376465,0.002929688,-0.006835938,0,1,2,0
1429.507,0.000983,-0.07226562,0.0390625,-0.03710938,-0.4140625,0.7734375,9.453125,-0.03320312,0.01171875,-0.03710938,0.01171875,-0.0546875,0,-0.002075195,0.009277344,-0.0006103516,0,0,0.0003662109,0.3105164,4.07,0,0,0,0.2999878,nan,2,0.03,1,0,0.2870178,0.3087463,0.2891235,0.3572388,0.002929688,-0.006835938,0,1,2,0.01587302
1429.517,0.00101,-0.08007812,0.05273438,-0.02929688,-1.523438,-0.6953125,7.609375,0.00390625,0.00390625,-0.07226562,0.01367188,-0.0546875,0,-0.002197266,0.009033203,-0.001342773,0,0,0.0003662109,0.3105164,4.07,0,0,0,0.2999878,nan,2,0.04,1,0,0.2732849,0.3158264,0.3025208,0.3504944,0.002929688,-0.006835938,0,1,2,0
1429.527,0.00101,-0.08203125,0.0859375,-0.078125,-2.515625,-0.9140625,6,-0.08984375,0.04296875,-0.0703125,0.01757812,-0.05664062,0,-0.002807617,0.009399414,-0.002075195,0,0,0.0003662109,0.3105164,4.07,0,0,0,0.2999878,nan,2,0.05,1,0,0.2836914,0.3070374,0.2801208,0.3712158,0.002929688,-0.006835938,0,1,2,0
1429.537,0.00101,0.05859375,-0.125,-0.1328125,-2.109375,2.375,11.55469,0.05273438,-0.04882812,-0.1074219,0.01757812,-0.05664062,0,-0.002807617,0.009521484,-0.002929688,0,0,0.0003662109,0.3105164,4.07,0,0,0,0.2999878,nan,2,0.061,1,0,0.2300415,0.3992615,0.2398071,0.3729553,0.002929688,-0.006835938,0,1,2,0
1429.546,0.001016,0.005859375,0.0625,0.00390625,-2.65625,5.265625,13.5,0.01953125,0.03710938,-0.06445312,0.01367188,-0.0546875,0,-0.002441406,0.009277344,-0.00378418,0,0,0.0003662109,0.3105164,4.07,0,0,0,0.2999878,nan,2,0.07,1,0,0.3339844,0.2382202,0.3686523,0.301239,0.002929688,-0.006835938,0,1,2,0
1429.557,0.001008,-0.001953125,0.06445312,0.046875,-2.585938,0.859375,11.15625,-0.02734375,-0.001953125,0.015625,0.01367188,-0.05273438,0,-0.002319336,0.008789062,-0.004150391,0,0,0.0003662109,0.3105164,4.07,0,0,0,0.2999878,nan,2,0.081,1,0,0.3938293,0.189209,0.407959,0.2510986,0.002929688,-0.006835938,0,1,2,0
1429.566,0.001016,-0.08398438,0.01757812,0.03515625,-1.632812,5.171875,10.5,-0.06445312,0.03320312,0.02148438,0.015625,-0.0546875,0,-0.002685547,0.009033203,-0.00390625,0,0,0.0003662109,0.3105164,4.07,0,0,0,0.2999878,nan,2,0.09,1,0,0.3348389,0.2521667,0.3383179,0.3167725,0.002929688,-0.0078125,0,1,2,0
1429.576,0.001013,0.0390625,-0.04882812,0.1074219,0.1953125,-2.6875,9.0625,0.01757812,-0.0234375,0.078125,0.01757812,-0.0546875,0,-0.002929688,0.009033203,-0.003417969,0,0,0.0003662109,0.3105164,4.07,0,0,0,0.2999878,nan,2,0.1,1,0,0.3905945,0.2240295,0.4044495,0.2230225,0.002929688,-0.0078125,0,1,2,0.2063492
1429.586,0.001014,0.04492188,0.001953125,0.02148438,1.601562,0.546875,5.773438,0.01757812,0.001953125,0.04492188,0.01757812,-0.0546875,0,-0.002929688,0.008911133,-0.002807617,0,0,0.0003662109,0.3105164,4.07,0,0,0,0.2999878,nan,2,0.11,1,0,0.2737122,0.322937,0.29953,0.3459473,0.002929688,-0.0078125,0,1,2,0
1429.597,0.000997,0.07226562,0.02734375,-0.02539062,-1.210938,-4.507812,8.804688,0.02734375,0.02734375,-0.015625,0.01757812,-0.0546875,0,-0.002807617,0.009155273,-0.002685547,0,0,0.0003662109,0.3105164,4.07,0,0,0,0.2999878,nan,2,0.009,1,0,0.2350159,0.3571167,0.2658081,0.3841553,0.002929688,-0.0078125,0,1,2,0.2222222
1429.607,0.001018,0.07617188,-0.04296875,-0.08203125,-1.710938,5.992188,14.86719,0.02539062,0,-0.06445312,0.015625,-0.0546875,0,-0.002563477,0.009277344,-0.003051758,0,0,0.0003662109,0.3105164,4.07,0,0,0,0.2999878,nan,2,0.019,1,0,0.2277832,0.3764038,0.2401733,0.3977661,0.002929688,-0.0078125,0,1,2,0
1429.617,0.001037,0.0703125,-0.0546875,-0.0625,-2.484375,1.820312,11.96094,0.03320312,-0.0390625,-0.078125,0.01367188,-0.0546875,0,-0.002319336,0.009155273,-0.00390625,0,0,0.0003662109,0.3105164,4.07,0,0,0,0.2999878,nan,2,0.029,1,0,0.2805176,0.3334961,0.2894287,0.3386841,0.002929688,-0.0078125,0,1,2,0
1429.627,0.001072,0.1054688,-0.01953125,-0.005859375,-1.398438,5.007812,13.02344,0.00390625,0.04296875,-0.01171875,0.015625,-0.05664062,0,-0.002563477,0.009399414,-0.004272461,0,0,0.0003662109,0.3105164,4.07,0,0,0,0.2999878,nan,2,0.039,1,0,0.3442383,0.2445068,0.3813477,0.2720337,0.002929688,-0.0078125,0,1,2,0
1429.637,0.00101,-0.005859375,-0.0546875,0.03710938,-0.71875,-1.8125,11.375,0,0,0.03515625,0.015625,-0.05859375,0,-0.002685547,0.009643555,-0.004150391,0,0,0.0003662109,0.3105164,4.07,0,0,0,0.2999878,nan,2,0.049,1,0,0.3606567,0.25,0.3678894,0.2635498,0.002929688,-0.0078125,0,1,2,0
1429.647,0.001009,0.04296875,-0.0078125,0.05273438,2.117188,2.609375,6.929688,0.01953125,-0.02148438,0.04882812,0.015625,-0.05664062,0,-0.002563477,0.009521484,-0.003662109,0,0,0.0003662109,0.3105164,4.07,0,0,0,0.2999878,nan,2,0.06,1,0,0.335083,0.2668762,0.3485107,0.291626,0.002929688,-0.0078125,0,1,2,0
1429.657,0.001015,-0.005859375,0.08007812,-0.04882812,0.9609375,-6.4375,11.48438,-0.009765625,0.03320312,-0.01171875,0.015625,-0.05664062,0,-0.002441406,0.009643555,-0.003417969,0,0,0.0003662109,0.3105164,4.07,0,0,0,0.2999878,nan,2,0.07,1,0,0.2254944,0.3599243,0.2466125,0.4100342,0.002929688,-0.0078125,0,1,2,0
1429.666,0.000999,0.005859375,-0.015625,-0.109375,-2.539062,3.359375,12.42188,-0.009765625,-0.00390625,-0.0859375,0.015625,-0.05859375,0,-0.002563477,0.009643555,-0.00402832,0,0,0.0003662109,0.3105164,4.07,0,0,0,0.2999878,nan,2,0.079,1,0,0.2116394,0.3909912,0.2191467,0.4203491,0.002929688,-0.0078125,0,1,2,0
1429.676,0.000991,-0.1777344,0.08203125,-0.0390625,-2.820312,3.953125,16.02344,-0.07421875,0.03320312,-0.0703125,0.015625,-0.05664062,0,-0.002563477,0.009521484,-0.004882812,0,0,0.0003662109,0.3105164,4.07,0,0,0,0.2999878,nan,2,0.089,1,0,0.3193359,0.2583313,0.3161011,0.3483276,0.002929688,-0.0078125,0,1,2,0
1429.686,0.000991,-0.04882812,0.03515625,0,-2.070312,5.257812,11.89844,-0.04882812,0.05273438,-0.02929688,0.01953125,-0.06054688,0,-0.003173828,0.01013184,-0.005371094,0,0,0.0003662109,0.3105164,4.07,0,0,0,0.2999878,nan,2,0.003,1,0,0.3269348,0.2640686,0.3398438,0.3112488,0.00390625,-0.0078125,0,1,2,0
1429.697,0.000988,-0.02734375,0.0390625,-0.00390625,-1.820312,4.015625,14.82812,0.001953125,0.005859375,-0.01171875,0.01953125,-0.06054688,0,-0.003173828,0.01025391,-0.005493164,0,0,0.0003662109,0.3105164,4.07,0,0,0,0.2999878,nan,2,0.013,1,0,0.3113098,0.2862549,0.3261719,0.3183594,0.00390625,-0.0078125,0,1,2,0
1429.707,0.001012,-0.04296875,0.0078125,0.005859375,-0.203125,0.8125,8.796875,-0.01367188,0.009765625,0.00390625,0.01953125,-0.06054688,0,-0.003295898,0.01025391,-0.005615234,0,0,0.0003662109,0.3105164,4.07,0,0,0,0.2999878,nan,2,0.023,1,0,0.3290405,0.2642822,0.3414612,0.3072815,0.00390625,-0.0078125,0,1,2,0
1429.717,0.00101,0.03515625,0.0234375,-0.01171875,1.96875,0.9765625,10.27344,0.015625,-0.00390625,-0.01757812,0.01953125,-0.06054688,0,-0.003295898,0.01013184,-0.005737305,0,0,0.0003662109,0.3105164,4.07,0,0,0,0.2999878,nan,2,0.033,1,0,0.2949829,0.3006592,0.3205566,0.3259277,0.00390625,-0.008789062,0,1,2,0
1429.727,0.000996,-0.009765625,-0.01171875,0,1.203125,0.1015625,7.148438,0.01757812,-0.001953125,0.00390625,0.01757812,-0.06054688,0,-0.003051758,0.01013184,-0.005737305,0,0,0.0003662109,0.3105164,4.07,0,0,0,0.2999878,nan,2,0.043,1,0,0.3107605,0.2860413,0.325592,0.3197021,0.00390625,-0.008789062,0,1,2,0
1429.737,0.000999,0.00390625,0.0078125,0.00390625,1.453125,-6.4375,11.5625,0.01953125,0.015625,0.02734375,0.01757812,-0.0625,0,-0.002929688,0.01025391,-0.005493164,0,0,0.0003662109,0.3105164,4.07,0,0,0,0.2999878,nan,2,0.007,1,0,0.3082275,0.286499,0.3312073,0.3161621,0.00390625,-0.008789062,0,1,2,0
1429.746,0.001026,-0.0390625,-0.046875,0,-1.484375,6.265625,14.23438,-0.009765625,-0.01367188,0.001953125,0.01757812,-0.0625,0,-0.002807617,0.01037598,-0.005371094,0,0,0.0003662109,0.3105164,4.07,0,0,0,0.2999878,nan,2,0.016,1,0,0.2929993,0.3136902,0.2877197,0.3476868,0.00390625,-0.008789062,0,1,2,0
1429.756,0.00103,0.01367188,0.01953125,0,-0.9609375,1.3125,15.26562,0.01367188,0.0078125,0.00390625,0.015625,-0.06054688,0,-0.002685547,0.01025391,-0.005371094,0,0,0.0003662109,0.3105164,4.07,0,0,0,0.2999878,nan,2,0.026,1,0,0.2945557,0.2970276,0.3178101,0.3327332,0.00390625,-0.008789062,0,1,2,0
1429.766,0.000988,-0.0390625,0.03125,-0.0078125,0.6328125,1.304688,8.132812,-0.01171875,0,0.001953125,0.015625,-0.0625,0,-0.002685547,0.01025391,-0.005371094,0,0,0.0003662109,0.3105164,4.07,0,0,0,0.2999878,nan,2,0.006,1,0,0.3081665,0.2872009,0.3196716,0.3270569,0.00390625,-0.008789062,0,1,2,0
1429.776,0.001003,-0.01757812,-0.01367188,0.07421875,1.367188,-2.109375,7.59375,0.005859375,0.001953125,0.03125,0.01757812,-0.0625,0,-0.002929688,0.01049805,-0.005249023,0,0,0.0003662109,0.3105164,4.07,0,0,0,0.2999878,nan,2,0.016,1,0,0.3609924,0.2385559,0.380127,0.2624207,0.00390625,-0.008789062,0,1,2,0
1429.786,0.000982,0,-0.02148438,0.1367188,1.023438,0.53125,6.632812,0.00390625,-0.0234375,0.1113281,0.01757812,-0.0625,0,-0.002929688,0.01025391,-0.004516602,0,0,0.0003662109,0.3105164,4.07,0,0,0,0.2999878,nan,2,0.026,1,0,0.4064941,0.1961365,0.418396,0.2210693,0.00390625,-0.008789062,0,1,2,0
1429.797,0.00104,0.06835938,0.01953125,0.07226562,-2.15625,-1.507812,8.046875,-0.00390625,0,0.09570312,0.01953125,-0.06054688,0,-0.003173828,0.01013184,-0.003295898,0,0,0.0003662109,0.3105164,4.07,0,0,0,0.2999878,nan,2,0.007,1,0,0.2971802,0.2946472,0.3254395,0.3248596,0.00390625,-0.008789062,0,1,2,0
1429.807,0.001012,-0.06445312,0.01953125,-0.01171875,0.4609375,1.96875,12.67969,-0.0234375,0.01757812,0.03125,0.01953125,-0.0625,0,-0.003173828,0.01037598,-0.002685547,0,0,0.0003662109,0.3105164,4.07,0,0,0,0.2999878,nan,2,0.017,1,0,0.2545471,0.3381653,0.2656555,0.383728,0.00390625,-0.008789062,0,1,2,0
1429.817,0.001013,-0.06054688,-0.01171875,-0.0390625,1.007812,-5.609375,5.171875,-0.05859375,0.001953125,-0.015625,0.02148438,-0.06445312,0,-0.003540039,0.01062012,-0.002685547,0,0,0.0003662109,0.3105164,4.07,0,0,0,0.2999878,nan,2,0.027,1,0,0.2577209,0.3444824,0.2511292,0.3887634,0.00390625,-0.008789062,0,1,2,0
1429.827,0.001013,-0.04101562,-0.04882812,-0.1171875,1.796875,-1.03125,8.039062,0.06640625,-0.0390625,-0.08398438,0.01953125,-0.0625,0,-0.003173828,0.01049805,-0.003173828,0,0,0.0003662109,0.3105164,4.07,0,0,0,0.2999878,nan,2,0.037,1,0,0.2046509,0.4066467,0.2173462,0.4134216,0.00390625,-0.008789062,0,1,2,0
1429.837,0.000995,-0.1113281,0.1171875,-0.09179688,0.90625,-5.460938,7.679688,-0.05078125,0.046875,-0.0859375,0.01953125,-0.0625,0,-0.003051758,0.01049805,-0.004150391,0,0,0.0003662109,0.3105164,4.07,0,0,0,0.2999878,nan,2,0.001,1,0,0.2807007,0.2900391,0.2923889,0.3789978,0.00390625,-0.008789062,0,1,2,0.2063492
1429.847,0.001045,0,0.109375,-0.046875,1.101562,-5.148438,8.507812,-0.05664062,0.05859375,-0.06640625,0.0234375,-0.06445312,0,-0.00390625,0.01086426,-0.004882812,0,0,0.0003662109,0.3105164,4.07,0,0,0,0.2999878,nan,2,0.011,1,0,0.3032532,0.2741394,0.3309021,0.3338013,0.00390625,-0.008789062,0,1,2,0.5079365
1429.857,0.001027,-0.04882812,0.09375,-0.015625,-0.2109375,-3.40625,4.53125,-0.015625,0.01171875,-0.05078125,0.0234375,-0.06640625,0,-0.00390625,0.01123047,-0.005493164,0,0,0.0003662109,0.3105164,4.07,0,0,0,0.2999878,nan,2,0.021,1,0,0.3096924,0.2849121,0.3192139,0.3282776,0.00390625,-0.009765625,0,1,2,0
1429.866,0.00099,0.1054688,0.03710938,0.0234375,-2.289062,1.75,10.80469,0.06640625,0.05859375,0.01757812,0.02148438,-0.0703125,0,-0.003662109,0.01171875,-0.005493164,0,0,0.0003662109,0.3105164,4.07,0,0,0,0.2999878,nan,2,0.03,1,0,0.3448486,0.2380371,0.3967896,0.2624207,0.00390625,-0.009765625,0,1,2,0
1429.876,0.000994,0.03710938,-0.04492188,0.1152344,-1.703125,2.023438,12.875,0.01171875,-0.02148438,0.05859375,0.02148438,-0.0703125,0,-0.003417969,0.01171875,-0.005371094,0,0,0.0003662109,0.3105164,4.07,0,0,0,0.2999878,nan,2,0.008,1,0,0.3981628,0.2082214,0.4032898,0.2324219,0.00390625,-0.009765625,0,1,2,0
1429.886,0.00101,-0.02929688,0.05273438,0.08789062,0.4375,-0.3359375,9.757812,-0.02148438,0.03320312,0.08789062,0.01953125,-0.0703125,0,-0.003417969,0.01171875,-0.004394531,0,0,0.0003662109,0.3105164,4.07,0,0,0,0.2999878,nan,2,0.018,1,0,0.3377075,0.2405701,0.3594971,0.3043213,0.00390625,-0.009765625,0,1,2,0.4920635
1429.897,0.001013,0.0078125,0.001953125,-0.005859375,1.453125,-1.125,8.90625,0.01171875,0,0.04296875,0.01953125,-0.0703125,0,-0.003295898,0.01184082,-0.00378418,0,0,0.0003662109,0.3105164,4.07,0,0,0,0.2999878,nan,2,0.028,1,0,0.2632751,0.3332825,0.280304,0.3652649,0.00390625,-0.009765625,0,1,2,0
1429.907,0.000943,-0.04882812,0.01367188,-0.04101562,-1.453125,1.171875,8.742188,-0.01757812,0.01367188,-0.01953125,0.01953125,-0.07226562,0,-0.003295898,0.01196289,-0.003662109,0,0,0.0003662109,0.3105164,4.07,0,0,0,0.2999878,nan,2,0.006,1,0,0.2514038,0.3392639,0.2633057,0.3881226,0.00390625,-0.009765625,0,1,2,0
1429.917,0.000997,0.02148438,-0.1035156,-0.1132812,-2.929688,2.109375,12.03125,0.04101562,-0.06640625,-0.07617188,0.01953125,-0.0703125,0,-0.003295898,0.01171875,-0.004150391,0,0,0.0003662109,0.3105164,4.07,0,0,0,0.2999878,nan,2,0.016,1,0,0.2102051,0.4111023,0.2149353,0.4058533,0.00390625,-0.009765625,0,1,2,0
1429.927,0.001011,0.02539062,0.09179688,-0.07226562,-0.875,4.78125,15.38281,0.009765625,0.0390625,-0.06835938,0.01757812,-0.06835938,0,-0.002929688,0.01147461,-0.004882812,0,0,0.0003662109,0.3105164,4.07,0,0,0,0.2999878,nan,2,0.026,1,0,0.2711487,0.2933044,0.3120117,0.3656616,0.00390625,-0.009765625,0,1,2,0
1429.937,0.001002,-0.03125,0.06445312,-0.05078125,-1.054688,3.070312,12.57812,-0.01367188,0.0078125,-0.0546875,0.01953125,-0.06835938,0,-0.003173828,0.01147461,-0.005615234,0,0,0.0003662109,0.3105164,4.07,0,0,0,0.2999878,nan,2,0.003,1,0,0.3053589,0.280426,0.3279724,0.3283386,0.00390625,-0.009765625,0,1,2,0
1429.947,0.001004,0.02148438,-0.04101562,0.009765625,-0.15625,3,11.53125,0.005859375,0,-0.01171875,0.01953125,-0.06835938,0,-0.003295898,0.01147461,-0.005981445,0,0,0.0003662109,0.3105164,4.07,0,0,0,0.2999878,nan,2,0.013,1,0,0.3435669,0.248291,0.3716431,0.2786255,0.00390625,-0.009765625,0,1,2,0
1429.956,0.001021,0.005859375,0.0234375,0.09960938,0.59375,-1.648438,10.32031,-0.005859375,0.03515625,0.0625,0.01953125,-0.0703125,0,-0.003417969,0.01159668,-0.005737305,0,0,0.0003662109,0.3105164,4.07,0,0,0,0.2999878,nan,2,0.022,1,0,0.3917847,0.1896667,0.4216003,0.2390442,0.00390625,-0.009765625,0,1,2,0
1429.966,0.000998,-0.05078125,0.02734375,0.05273438,1.164062,1.71875,11.3125,-0.01757812,0.0078125,0.06640625,0.01953125,-0.0703125,0,-0.003051758,0.01159668,-0.005004883,0,0,0.0003662109,0.3105164,4.07,0,0,0,0.2999878,nan,2,0.003,1,0,0.3245239,0.2641296,0.3288269,0.324646,0.00390625,-0.009765625,0,1,2,0
1429.976,0.001008,0.04882812,0,-0.04101562,-1.984375,1.25,12.55469,0.01171875,0.01953125,-0.001953125,0.01953125,-0.0703125,0,-0.003173828,0.01171875,-0.004638672,0,0,0.0003662109,0.3105164,4.07,0,0,0,0.2999878,nan,2,0.013,1,0,0.2230835,0.3657532,0.2524719,0.4007874,0.00390625,-0.009765625,0,1,2,0
1429.986,0.00101,0.01953125,0.02929688,0.00390625,0.4453125,1.28125,7.796875,0.0234375,0.00390625,-0.02148438,0.01953125,-0.0703125,0,-0.003051758,0.01184082,-0.004882812,0,0,0.0003662109,0.3105164,4.07,0,0,0,0.2999878,nan,2,0.023,1,0,0.2862244,0.3065186,0.3147583,0.3346252,0.00390625,-0.01074219,0,1,2,0
1429.996,0.000993,0.005859375,0.015625,-0.09570312,1.203125,-0.109375,9.914062,0.03320312,-0.02148438,-0.08007812,0.015625,-0.0703125,0,-0.002685547,0.01159668,-0.005371094,0,0,0.0003662109,0.3105164,4.07,0,0,0,0.2999878,nan,2,0.033,1,0,0.2268982,0.368927,0.2453613,0.4009399,0.00390625,-0.01074219,0,1,2,0.5555556
1430.007,0.000982,0.09179688,0.1015625,0.01953125,1.5,0.296875,5.71875,-0.02929688,0.06054688,-0.02539062,0.01757812,-0.07226562,0,-0.003051758,0.01184082,-0.006103516,0,0,0.0003662109,0.3105164,4.07,0,0,0,0.2999878,nan,2,0.008,1,0,0.3539734,0.2160339,0.3972168,0.2749023,0.00390625,-0.01074219,0,1,2,0
1430.017,0.001023,0.09960938,0.04882812,0.06640625,1.703125,-1.203125,10.05469,0.046875,0.00390625,0.04296875,0.015625,-0.07226562,0,-0.002685547,0.01208496,-0.005981445,0,0,0.0003662109,0.3105164,4.07,0,0,0,0.2999878,nan,2,0.018,1,0,0.3890381,0.2053528,0.4215698,0.2261353,0.00390625,-0.01074219,0,1,2,0.04761905
1430.027,0.001013,-0.1132812,0.01953125,0.03125,-0.3359375,-3.132812,8.742188,-0.0546875,0.00390625,0.04882812,0.015625,-0.07226562,0,-0.002563477,0.01184082,-0.005493164,0,0,0.0003662109,0.3105164,4.07,0,0,0,0.2999878,nan,2,0.028,1,0,0.3284302,0.2563782,0.3203125,0.3369751,0.00390625,-0.01074219,0,1,2,0
1430.037,0.000995,0.0234375,-0.0390625,0.01953125,-1.914062,4.421875,12.55469,-0.001953125,0.0078125,0.01953125,0.01757812,-0.07226562,0,-0.002807617,0.01208496,-0.005126953,0,0,0.0003662109,0.3105164,4.07,0,0,0,0.2999878,nan,2,0.038,1,0,0.2843933,0.3103943,0.3080139,0.3392944,0.00390625,-0.01074219,0,1,2,0
1430.047,0.001013,-0.09375,0.0078125,-0.03125,0.078125,-1.4375,6.21875,-0.01367188,0.0078125,0,0.015625,-0.07226562,0,-0.002685547,0.01208496,-0.005004883,0,0,0.0003662109,0.3105164,4.07,0,0,0,0.2999878,nan,2,0.009,1,0,0.2724304,0.3147278,0.2865906,0.3683472,0.00390625,-0.01074219,0,1,2,0
1430.056,0.001023,-0.01757812,0.0390625,-0.06835938,1.765625,-0.6484375,7.59375,-0.001953125,0,-0.046875,0.01757812,-0.07226562,0,-0.002929688,0.01208496,-0.005249023,0,0,0.0003662109,0.3105164,4.07,0,0,0,0.2999878,nan,2,0.018,1,0,0.2370605,0.3508911,0.2637024,0.3904114,0.00390625,-0.01074219,0,1,2,0
1430.066,0.001024,0.08984375,0.01171875,0.01171875,0.21875,-4.695312,6.382812,-0.01757812,0.009765625,-0.0078125,0.01757812,-0.07226562,0,-0.003051758,0.01220703,-0.005615234,0,0,0.0003662109,0.3105164,4.07,0,0,0,0.2999878,nan,2,0.028,1,0,0.3384705,0.2499084,0.3599243,0.2937927,0.00390625,-0.01074219,0,1,2,0
1430.076,0.00099,-0.015625,0.05859375,0.07226562,-0.40625,0.25,7.34375,0.01953125,-0.0078125,0.04296875,0.01757812,-0.07226562,0,-0.002929688,0.01184082,-0.005493164,0,0,0.0003662109,0.3105164,4.07,0,0,0,0.2999878,nan,2,0.005,1,0,0.3668518,0.2166443,0.3970947,0.2615051,0.00390625,-0.01074219,0,1,2,0
1430.087,0.001017,-0.0078125,0.01171875,0.1191406,-1.804688,0.640625,12.46875,-0.015625,0.01953125,0.109375,0.01953125,-0.07226562,0,-0.003051758,0.01220703,-0.004638672,0,0,0.0003662109,0.3105164,4.07,0,0,0,0.2999878,nan,2,0.015,1,0,0.396759,0.1925354,0.4161072,0.2366943,0.00390625,-0.01074219,0,1,2,0
1430.097,0.001015,0.01171875,-0.04882812,0.06054688,1.1875,0.46875,9.890625,0.0078125,-0.02148438,0.08398438,0.01757812,-0.07226562,0,-0.003051758,0.01220703,-0.003662109,0,0,0.0003662109,0.3105164,4.07,0,0,0,0.2999878,nan,2,0.025,1,0,0.298645,0.3022461,0.3123169,0.3288879,0.00390625,-0.01074219,0,1,2,0.2222222
1430.107,0.001015,-0.015625,0.01757812,0.015625,0.1015625,0.6015625,9.75,-0.01367188,0,0.02929688,0.01953125,-0.07226562,0,-0.003173828,0.01208496,-0.003051758,0,0,0.0003662109,0.3105164,4.07,0,0,0,0.2999878,nan,2,0.003,1,0,0.2619934,0.3222656,0.2814941,0.3763428,0.00390625,-0.01074219,0,1,2,0.7142857
1430.117,0.000981,0.01757812,0.01171875,-0.07617188,-1.929688,3.234375,12.08594,-0.03710938,0.005859375,-0.05664062,0.02148438,-0.07226562,0,-0.003417969,0.01208496,-0.003295898,0,0,0.0003662109,0.3105164,4.07,0,0,0,0.2999878,nan,2,0.013,1,0,0.2018127,0.3864441,0.217926,0.4359131,0.00390625,-0.01171875,0,1,2,0
1430.127,0.001015,-0.01757812,-0.1210938,-0.08789062,-1.460938,2.914062,12.71875,0.009765625,-0.03125,-0.1074219,0.02148438,-0.07226562,0,-0.003417969,0.01220703,-0.004150391,0,0,0.0003662109,0.3105164,4.07,0,0,0,0.2999878,nan,2,0.023,1,0,0.2360535,0.3745117,0.2352905,0.3962708,0.00390625,-0.01171875,0,1,2,0
1430.137,0.00101,0.1503906,0.03710938,-0.09179688,-0.328125,2.828125,13.4375,0.03125,0.03515625,-0.09765625,0.02148438,-0.07226562,0,-0.003540039,0.01184082,-0.005126953,0,0,0.0003662109,0.3105164,4.07,0,0,0,0.2999878,nan,2,0.033,1,0,0.2476807,0.3204651,0.309845,0.3641052,0.00390625,-0.01171875,0,1,2,0
1430.147,0.00102,-0.01953125,0.1015625,0.04882812,-0.171875,0.828125,12.10156,-0.001953125,0.06445312,-0.00390625,0.01757812,-0.07226562,0,-0.003051758,0.01220703,-0.005737305,0,0,0.0003662109,0.3105164,4.07,0,0,0,0.2999878,nan,2,0.043,1,0,0.4054871,0.1600037,0.436676,0.2399292,0.00390625,-0.01171875,0,1,2,0
1430.157,0.000974,0.1132812,-0.0078125,0.09765625,2,2.195312,6.640625,0.07617188,-0.015625,0.07226562,0.015625,-0.07421875,0,-0.002685547,0.01220703,-0.005371094,0,0,0.0003662109,0.3105164,4.07,0,0,0,0.2999878,nan,2,0.053,1,0,0.3924255,0.2045898,0.4324646,0.2126465,0.00390625,-0.01171875,0,1,2,0
1430.166,0.001049,-0.06445312,0.04296875,0.04882812,0.7890625,-3.742188,9.421875,-0.02734375,0.02929688,0.05859375,0.015625,-0.07421875,0,-0.002563477,0.01220703,-0.004760742,0,0,0.0003662109,0.3105164,4.07,0,0,0,0.2999878,nan,2,0.063,1,0,0.3180237,0.2574768,0.3322449,0.3343811,0.00390625,-0.01171875,0,1,2,0.2222222
1430.177,0.001031,-0.01757812,-0.04882812,0.01171875,-1.546875,5.945312,14.55469,-0.02734375,-0.015625,0.02539062,0.015625,-0.07421875,0,-0.002807617,0.0123291,-0.004394531,0,0,0.0003662109,0,4.07,0,0,0,0,nan,2,0,1,0,0.1000061,0.1000061,0.1000061,0.1000061,0,0,0,1,2,0
1430.186,0.00096,-0.06054688,0.09375,-0.01171875,-1.023438,1.570312,16.83594,-0.03710938,0.015625,-0.01171875,0.015625,-0.07421875,0,-0.002807617,0.01208496,-0.004272461,0,0,0.0003662109,0,4.07,0,0,0,0,nan,2,0.01,1,0,0.1000061,0.1000061,0.1000061,0.1000061,0,0,0,1,2,0
1430.196,0.001002,0.02734375,-0.02734375,-0.03710938,-1.757812,8.640625,17.01562,0.005859375,0.03125,-0.02148438,0.015625,-0.07421875,0,-0.003051758,0.01257324,-0.004394531,0,0,0.0003662109,0,4.07,0,0,0,0,nan,2,0.02,1,0,0.1000061,0.1000061,0.1000061,0.1000061,0,0,0,1,2,0
1430.206,0.000968,-0.02929688,-0.1132812,-0.06835938,0.28125,-2.84375,8.804688,-0.01171875,-0.03515625,-0.07617188,0.015625,-0.07421875,0,-0.003051758,0.01257324,-0.005004883,0,0,0.0003662109,0,4.07,0,0,0,0,nan,2,0.03,1,0,0.1000061,0.1000061,0.1000061,0.1000061,0,0,0,1,2,0
1430.217,0.00101,-0.05859375,0.07226562,0.01757812,1.320312,4.0625,17.75781,-0.009765625,0.02734375,-0.015625,0.015625,-0.07421875,0,-0.002807617,0.0123291,-0.005493164,0,0,0.0003662109,0,4.07,0,0,0,0,nan,2,0.007,1,0,0.1000061,0.1000061,0.1000061,0.1000061,0,0,0,1,2,0
1430.227,0.001041,-0.01171875,0.01367188,0.02539062,1.84375,-1.28125,2.28125,-0.01171875,0.005859375,0.01757812,0.015625,-0.07421875,0,-0.003051758,0.01257324,-0.005371094,0,0,0.0003662109,0,4.07,0,0,0,0,nan,2,0.017,1,0,0.1000061,0.1000061,0.1000061,0.1000061,0,0,0,1,2,0
1430.237,0.00101,0.0234375,-0.02148438,0.05664062,-0.171875,-2.84375,7.070312,0.02148438,-0.009765625,0.04492188,0.015625,-0.07421875,0,-0.003051758,0.01257324,-0.005004883,0,0,0.0003662109,0,4.07,0,0,0,0,nan,2,0.027,1,0,0.1000061,0.1000061,0.1000061,0.1000061,0,0,0,1,2,0
1430.247,0.000993,0.01757812,-0.03710938,0.07226562,0.71875,2.109375,4.375,0.015625,-0.009765625,0.07421875,0.015625,-0.07421875,0,-0.002685547,0.0123291,-0.004394531,0,0,0.0003662109,0,4.07,0,0,0,0,nan,2,0.001,1,0,0.1000061,0.1000061,0.1000061,0.1000061,0,0,0,1,2,0
1430.257,0.001004,0,0.009765625,-0.01171875,3.554688,-0.0234375,15.77344,-0.001953125,0.001953125,0.01367188,0.015625,-0.07421875,0,-0.002685547,0.01220703,-0.00390625,0,0,0.0003662109,0,4.07,0,0,0,0,nan,2,0.011,1,0,0.1000061,0.1000061,0.1000061,0.1000061,0,0,0,1,2,0
1430.266,0.001017,0.04296875,-0.03710938,-0.01367188,-2.023438,6.828125,15.64062,0.009765625,-0.0234375,-0.005859375,0.015625,-0.07421875,0,-0.002807617,0.01220703,-0.00390625,0,0,0.0003662109,0,4.07,0,0,0,0,nan,2,0.02,1,0,0.1000061,0.1000061,0.1000061,0.1000061,0,0,0,1,2,0
1430.277,0.00103,0.009765625,-0.03125,-0.01757812,-0.6015625,-3.71875,6.039062,-0.01171875,-0.02148438,-0.02148438,0.015625,-0.07421875,0,-0.002807617,0.01208496,-0.004150391,0,0,0.0003662109,0,4.07,0,0,0,0,nan,2,0.031,1,0,0.1000061,0.1000061,0.1000061,0.1000061,0,0,0,1,2,0
1430.286,0.001063,-0.02929688,0,0.02148438,-3.984375,4,14.46094,0.00390625,-0.0234375,0.015625,0.015625,-0.07421875,0,-0.002685547,0.01184082,-0.004150391,0,0,0.0003662109,0,4.07,0,0,0,0,nan,2,0.008,1,0,0.1000061,0.1000061,0.1000061,0.1000061,0,0,0,1,2,0
1430.296,0.000963,-0.04882812,0.04882812,-0.04101562,-3.523438,-7.976562,6.375,-0.02539062,0.02148438,-0.02148438,0.015625,-0.07421875,0,-0.002685547,0.01171875,-0.004150391,0,0,0.0003662109,0,4.07,0,0,0,0,nan,2,0.018,1,0,0.1000061,0.1000061,0.1000061,0.1000061,0,0,0,1,2,0
1430.307,0.001069,-0.02148438,0.0234375,-0.06054688,1.5,-1.054688,3.265625,-0.02734375,0,-0.04882812,0.015625,-0.07421875,0,-0.002929688,0.01184082,-0.004516602,0,0,0.0003662109,0,4.07,0,0,0,0,nan,2,0.028,1,0,0.1000061,0.1000061,0.1000061,0.1000061,0,0,0,1,2,0
1430.317,0.001009,-0.15625,0.1015625,-0.03320312,-1.078125,-3.359375,5.398438,-0.0390625,0.02929688,-0.04296875,0.015625,-0.07421875,0,-0.003051758,0.01184082,-0.005004883,0,0,0.0003662109,0,4.07,0,0,0,0,nan,2,0.008,1,0,0.1000061,0.1000061,0.1000061,0.1000061,0,0,0,1,2,0
1430.327,0.001013,-0.01171875,-0.009765625,-0.00390625,0.125,-7.429688,5.84375,-0.01171875,-0.0078125,-0.005859375,0.015625,-0.07421875,0,-0.003417969,0.01208496,-0.005126953,0,0,-0.005126953,0,4.07,0,0,0,0,nan,2,0.018,0,0,0,0,0,0,0,0,0,1,2,1
1430.338,0.002454,-0.04492188,0.03125,-0.00390625,-3.109375,1.429688,11.9375,-0.01367188,0.005859375,-0.005859375,0.015625,-0.07421875,0,-0.003417969,0.01196289,-0.005249023,0,0,-0.005249023,0,4.07,0,0,0,0,nan,2,0.03,0,0,0,0,0,0,0,0,0,1,2,0
1430.346,0.001008,-0.005859375,0.02148438,-0.01171875,0.5546875,4.007812,7.226562,-0.01171875,0.00390625,-0.00390625,0.015625,-0.07421875,0,-0.003540039,0.01220703,-0.005249023,0,0,-0.005249023,0,4.07,0,0,0,0,nan,2,0.038,0,0,0,0,0,0,0,0,0,1,2,0
1430.356,0.001005,0.001953125,0.009765625,-0.03710938,0.75,0.671875,7.703125,0.005859375,0,-0.0234375,0.015625,-0.07421875,0,-0.003540039,0.01220703,-0.005371094,0,0,-0.005371094,0,4.07,0,0,0,0,nan,2,0.048,0,0,0,0,0,0,0,0,0,1,2,0
1430.366,0.001013,0.01171875,-0.015625,-0.02148438,-1.117188,4.304688,13.33594,-0.001953125,-0.009765625,-0.02929688,0.015625,-0.07421875,0,-0.003540039,0.01220703,-0.005615234,0,0,-0.005615234,0,4.07,0,0,0,0,nan,2,0.058,0,0,0,0,0,0,0,0,0,1,2,0
1430.376,0.001013,0.0078125,0.005859375,-0.03710938,-1.929688,0.65625,12.64844,-0.001953125,-0.0078125,-0.04492188,0.015625,-0.07421875,0,-0.003540039,0.01208496,-0.006103516,0,0,-0.006103516,0,4.07,0,0,0,0,nan,2,0.068,0,0,0,0,0,0,0,0,0,1,2,0
1430.387,0.001013,0,-0.0234375,0.005859375,-0.0703125,4.234375,11.23438,0,-0.009765625,-0.0078125,0.015625,-0.07421875,0,-0.003540039,0.01208496,-0.006347656,0,0,-0.006347656,0,4.07,0,0,0,0,nan,2,0.078,0,0,0,0,0,0,0,0,0,1,2,0
1430.397,0.001013,-0.005859375,-0.02539062,0.01757812,-0.1171875,-0.484375,9.3125,-0.005859375,0.0078125,0.00390625,0.015625,-0.07421875,0,-0.003662109,0.01208496,-0.006347656,0,0,-0.006347656,0,4.07,0,0,0,0,nan,2,0.088,0,0,0,0,0,0,0,0,0,1,2,1
1430.407,0.001013,0,0.0078125,0.02929688,-0.0625,2.15625,8.234375,-0.001953125,0.005859375,0.02929688,0.015625,-0.07421875,0,-0.00378418,0.01220703,-0.006103516,0,0,-0.006103516,0,4.07,0,0,0,0,nan,2,0.098,0,0,0,0,0,0,0,0,0,1,2,0
1430.417,0.001015,-0.00390625,-0.005859375,0.03710938,0.4296875,1.125,9,0.001953125,-0.01367188,0.03320312,0.015625,-0.07421875,0,-0.00378418,0.01208496,-0.005737305,0,0,-0.005737305,0,4.07,0,0,0,0,nan,2,0.108,0,0,0,0,0,0,0,0,0,1,2,1
1430.427,0.001006,-0.005859375,-0.005859375,0.01367188,-0.5703125,-1.195312,9.460938,-0.001953125,-0.005859375,0.02539062,0.015625,-0.07421875,0,-0.00378418,0.01196289,-0.005493164,0,0,-0.005493164,0,4.07,0,0,0,0,nan,2,0.119,0,0,0,0,0,0,0,0,0,1,2,1
1430.437,0.001019,-0.01953125,0.0078125,-0.01757812,-0.65625,0.8046875,11.17188,-0.0078125,0.01171875,-0.01171875,0.015625,-0.07421875,0,-0.00378418,0.01196289,-0.005493164,0,0,-0.005493164,0,4.07,0,0,0,0,nan,2,0.129,0,0,0,0,0,0,0,0,0,1,2,0
1430.446,0.001011,-0.04101562,0.046875,-0.01757812,-0.3671875,-0.0390625,10.85156,-0.005859375,0.01171875,-0.005859375,0.015625,-0.07421875,0,-0.003662109,0.01196289,-0.005493164,0,0,-0.005493164,0,4.07,0,0,0,0,nan,2,0.138,0,0,0,0,0,0,0,0,0,1,2,0
1430.456,0.001011,0.01757812,-0.02734375,-0.046875,0.328125,-0.546875,12.10938,0.001953125,-0.01171875,-0.04492188,0.015625,-0.07421875,0,-0.00378418,0.01184082,-0.005737305,0,0,-0.005737305,0,4.07,0,0,0,0,nan,2,0.148,0,0,0,0,0,0,0,0,0,1,2,0
1430.466,0.001011,-0.0234375,0.00390625,0.01171875,0.2734375,-1.4375,11.53125,0,-0.01171875,-0.01367188,0.015625,-0.07421875,0,-0.003662109,0.01171875,-0.006103516,0,0,-0.006103516,0,4.07,0,0,0,0,nan,2,0.158,0,0,0,0,0,0,0,0,0,1,2,0
1430.476,0.001011,-0.04296875,0.046875,-0.01171875,0.2734375,1.335938,8.507812,-0.005859375,0.01757812,-0.0078125,0.015625,-0.07421875,0,-0.003662109,0.01159668,-0.006225586,0,0,-0.006225586,0,4.07,0,0,0,0,nan,2,0.168,0,0,0,0,0,0,0,0,0,1,2,0
1430.487,0.001011,0.00390625,-0.01171875,0,-0.2734375,1.359375,10.21875,-0.015625,-0.001953125,0.005859375,0.015625,-0.07421875,0,-0.00378418,0.01159668,-0.006225586,0,0,-0.006225586,0,4.07,0,0,0,0,nan,2,0.178,0,0,0,0,0,0,0,0,0,1,2,1
1430.497,0.001011,-0.03125,0.02539062,-0.01757812,0.796875,-1.414062,7.84375,-0.01171875,0.01171875,-0.01171875,0.015625,-0.07421875,0,-0.00390625,0.01159668,-0.006225586,0,0,-0.006225586,0,4.07,0,0,0,0,nan,2,0.188,0,0,0,0,0,0,0,0,0,1,2,0
1430.507,0.001011,0.04492188,-0.02929688,-0.0078125,0.6484375,-0.9296875,14.16406,0.01367188,-0.009765625,-0.0078125,0.015625,-0.07421875,0,-0.00402832,0.01171875,-0.006347656,0,0,-0.006347656,0,4.07,0,0,0,0,nan,2,0.198,0,0,0,0,0,0,0,0,0,1,2,0
1430.517,0.000979,0.01171875,0.005859375,-0.015625,1.0625,-0.0859375,12.64844,0.00390625,-0.005859375,-0.01757812,0.015625,-0.07421875,0,-0.00378418,0.01147461,-0.006469727,0,0,-0.006469727,0,4.07,0,0,0,0,nan,2,0.208,0,0,0,0,0,0,0,0,0,1,2,0
1430.527,0.001013,0,0.01171875,-0.01953125,0.4375,2.351562,9.429688,-0.001953125,0.005859375,-0.01757812,0.015625,-0.07421875,0,-0.00390625,0.01159668,-0.006713867,0,0,-0.006713867,0,4.07,0,0,0,0,nan,2,0.219,0,0,0,0,0,0,0,0,0,1,2,1
1430.537,0.001015,0.01953125,-0.005859375,-0.005859375,-0.5390625,-1.367188,11.92188,0.01367188,-0.01367188,-0.005859375,0.015625,-0.07421875,0,-0.00378418,0.01147461,-0.006713867,0,0,-0.006713867,0,4.07,0,0,0,0,nan,2,0.229,0,0,0,0,0,0,0,0,0,1,2,0
1430.547,0.001011,0.009765625,0.0390625,-0.015625,1.117188,3.0625,13.51562,-0.01953125,0.0234375,-0.01757812,0.015625,-0.07421875,0,-0.00390625,0.01147461,-0.006958008,0,0,-0.006958008,0,4.07,0,0,0,0,nan,2,0.239,0,0,0,0,0,0,0,0,0,1,2,0
1430.556,0.001008,0,-0.02734375,0.00390625,2.664062,0.453125,4.929688,0.00390625,-0.005859375,0.00390625,0.015625,-0.07421875,0,-0.00390625,0.01159668,-0.006958008,0,0,-0.006958008,0,4.07,0,0,0,0,nan,2,0.248,0,0,0,0,0,0,0,0,0,1,2,0
1430.566,0.001009,-0.0390625,0.02539062,-0.009765625,-1.726562,-1.046875,2.5,-0.00390625,0.009765625,-0.005859375,0.015625,-0.07421875,0,-0.00378418,0.01147461,-0.006958008,0,0,-0.006958008,0,4.07,0,0,0,0,nan,2,0.258,0,0,0,0,0,0,0,0,0,1,2,0
1430.576,0.001008,0.06054688,-0.01367188,0.00390625,2.929688,6.15625,12.20312,0.001953125,0.009765625,0.009765625,0.015625,-0.07421875,0,-0.00390625,0.01171875,-0.006958008,0,0,-0.006958008,0,4.07,0,0,0,0,nan,2,0.268,0,0,0,0,0,0,0,0,0,1,2,0
1430.587,0.001009,0.04101562,-0.05273438,-0.0078125,2.023438,1.632812,10.39062,0.00390625,-0.0078125,0.001953125,0.015625,-0.07421875,0,-0.00390625,0.01171875,-0.006835938,0,0,-0.006835938,0,4.07,0,0,0,0,nan,2,0.278,0,0,0,0,0,0,0,0,0,1,2,1
1430.597,0.001003,0.0390625,-0.04492188,-0.0078125,4.867188,5.015625,9.875,0.001953125,-0.001953125,0.00390625,0.015625,-0.07421875,0,-0.00402832,0.01171875,-0.006835938,0,0,-0.006835938,0,4.07,0,0,0,0,nan,2,0.288,0,0,0,0,0,0,0,0,0,1,2,0
1430.607,0.001003,0.03125,0.02148438,-0.0078125,1.679688,4.625,9.9375,0.00390625,0.01367188,0.00390625,0.015625,-0.07421875,0,-0.00402832,0.01184082,-0.006713867,0,0,-0.006713867,0,4.07,0,0,0,0,nan,2,0.298,0,0,0,0,0,0,0,0,0,1,2,0
1430.617,0.001013,-0.01171875,-0.015625,0.009765625,-2.28125,-0.96875,9.34375,-0.001953125,-0.0078125,-0.001953125,0.015625,-0.07421875,0,-0.00402832,0.01171875,-0.006713867,0,0,-0.006713867,0,4.07,0,0,0,0,nan,2,0.308,0,0,0,0,0,0,0,0,0,1,2,1
1430.627,0.001011,0.08398438,0.046875,0.0078125,-0.5078125,5.648438,9.507812,0.01757812,0.005859375,0.0078125,0.015625,-0.07421875,0,-0.00402832,0.01171875,-0.006713867,0,0,-0.006713867,0,4.07,0,0,0,0,nan,2,0.319,0,0,0,0,0,0,0,0,0,1,2,0
1430.637,0.000996,-0.04101562,-0.001953125,0.009765625,-2.234375,0.71875,9.328125,-0.01171875,0.0078125,0.00390625,0.015625,-0.07421875,0,-0.00402832,0.01171875,-0.006713867,0,0,-0.006713867,0,4.07,0,0,0,0,nan,2,0.329,0,0,0,0,0,0,0,0,0,1,2,1
1430.646,0.001003,-0.0625,-0.02539062,0.005859375,1.039062,-3.664062,9.609375,-0.0078125,-0.001953125,-0.005859375,0.015625,-0.07421875,0,-0.00402832,0.01171875,-0.006713867,0,0,-0.006713867,0,4.07,0,0,0,0,nan,2,0.338,0,0,0,0,0,0,0,0,0,1,2,1
1430.656,0.000995,0.0390625,-0.02539062,-0.005859375,1.296875,2.375,9.039062,0.0078125,-0.001953125,-0.0078125,0.015625,-0.07421875,0,-0.00402832,0.01171875,-0.006835938,0,0,-0.006835938,0,4.07,0,0,0,0,nan,2,0.348,0,0,0,0,0,0,0,0,0,1,2,1
1430.666,0.000981,-0.0234375,0.03515625,0.0078125,-2.609375,-0.8671875,10.03125,0.001953125,0,-0.001953125,0.015625,-0.07421875,0,-0.00402832,0.01147461,-0.006835938,0,0,-0.006835938,0,4.07,0,0,0,0,nan,2,0.358,0,0,0,0,0,0,0,0,0,1,2,1
1430.677,0.001037,-0.04101562,-0.04296875,0.03125,0.7734375,-2.117188,9.1875,-0.009765625,-0.005859375,0.00390625,0.015625,-0.07421875,0,-0.00390625,0.01147461,-0.006835938,0,0,-0.006835938,0,4.07,0,0,0,0,nan,2,0.368,0,0,0,0,0,0,0,0,0,1,2,1
1430.687,0.001007,-0.01171875,0.04492188,0.01757812,-1.273438,0.09375,10.16406,-0.00390625,0.01171875,0.00390625,0.015625,-0.07421875,0,-0.00402832,0.01147461,-0.006835938,0,0,-0.006835938,0,4.077,0,0,0,0,nan,2,0.378,0,0,0,0,0,0,0,0,0,1,2,1
1430.697,0.001055,-0.05859375,0.015625,0.005859375,-0.4765625,-0.5078125,9.859375,-0.015625,0.0078125,0.001953125,0.015625,-0.07421875,0,-0.00402832,0.01135254,-0.006835938,0,0,-0.006835938,0,4.077,0,0,0,0,nan,2,0.388,0,0,0,0,0,0,0,0,0,1,2,1
1430.707,0.00101,-0.09765625,-0.005859375,0.01757812,-0.234375,-1.4375,10.82031,-0.015625,-0.005859375,0.001953125,0.015625,-0.07421875,0,-0.00402832,0.01135254,-0.006835938,0,0,-0.006835938,0,4.077,0,0,0,0,nan,2,0.398,0,0,0,0,0,0,0,0,0,1,2,0
1430.717,0.000998,-0.02929688,0.0625,0.005859375,-0.015625,-0.109375,10.74219,0,-0.0078125,-0.001953125,0.015625,-0.07421875,0,-0.00402832,0.01123047,-0.006835938,0,0,-0.006835938,0,4.077,0,0,0,0,nan,2,0.408,0,0,0,0,0,0,0,0,0,1,2,1
1430.727,0.001019,0.046875,0.0234375,0.009765625,0.59375,-0.34375,10.07031,0.005859375,-0.005859375,0.001953125,0.015625,-0.07421875,0,-0.00402832,0.01123047,-0.006835938,0,0,-0.006835938,0,4.077,0,0,0,0,nan,2,0.419,0,0,0,0,0,0,0,0,0,1,2,1
1430.737,0.001007,0.0390625,-0.00390625,0.0234375,-0.3046875,-0.5859375,10.17188,0,0.00390625,0.001953125,0.015625,-0.07421875,0,-0.00402832,0.01123047,-0.006835938,0,0,-0.006835938,0,4.077,0,0,0,0,nan,2,0.429,0,0,0,0,0,0,0,0,0,1,2,1
1430.747,0.00101,-0.0390625,0.03125,-0.015625,0.3671875,-0.078125,10.9375,-0.009765625,0.0078125,-0.005859375,0.015625,-0.07421875,0,-0.00402832,0.01123047,-0.006835938,0,0,-0.006835938,0,4.077,0,0,0,0,nan,2,0.439,0,0,0,0,0,0,0,0,0,1,2,0
1430.756,0.001008,-0.01953125,-0.009765625,-0.01953125,-0.421875,0.2578125,9.78125,-0.00390625,-0.001953125,-0.00390625,0.015625,-0.07421875,0,-0.00402832,0.0111084,-0.006835938,0,0,-0.006835938,0,4.077,0,0,0,0,nan,2,0.448,0,0,0,0,0,0,0,0,0,1,2,1
1430.766,0.001008,0.01171875,0.009765625,-0.01171875,-0.7265625,-0.4375,9.484375,0,0,0.00390625,0.015625,-0.07421875,0,-0.00402832,0.0111084,-0.006835938,0,0,-0.006835938,0,4.077,0,0,0,0,nan,2,0.458,0,0,0,0,0,0,0,0,0,1,2,1
1430.776,0.001008,-0.00390625,0.02734375,0.001953125,0.3359375,-0.5234375,10.39062,-0.001953125,0.0078125,-0.005859375,0.015625,-0.07421875,0,-0.00402832,0.0111084,-0.006835938,0,0,-0.006835938,0,4.077,0,0,0,0,nan,2,0.468,0,0,0,0,0,0,0,0,0,1,2,1
1430.787,0.001008,-0.0234375,0.01367188,0.01171875,-0.34375,0.1640625,10.03125,-0.00390625,0.001953125,0,0.015625,-0.07421875,0,-0.00402832,0.01098633,-0.006835938,0,0,-0.006835938,0,4.077,0,0,0,0,nan,2,0.478,0,0,0,0,0,0,0,0,0,1,2,1
1430.797,0.001008,0.015625,0.015625,0.009765625,0.234375,-0.0546875,10.14062,0,0.001953125,0.001953125,0.015625,-0.07421875,0,-0.00402832,0.01098633,-0.006835938,0,0,-0.006835938,0,4.077,0,0,0,0,nan,2,0.488,0,0,0,0,0,0,0,0,0,1,2,1
1430.807,0.000954,-0.015625,-0.015625,-0.00390625,-0.3203125,0.1171875,9.679688,-0.001953125,-0.00390625,0.00390625,0.015625,-0.07421875,0,-0.00402832,0.01098633,-0.006835938,0,0,-0.006835938,0,4.077,0,0,0,0,nan,2,0.498,0,0,0,0,0,0,0,0,0,1,2,1
1430.817,0.001046,-0.005859375,-0.005859375,0.001953125,-0.015625,0.515625,9.664062,-0.001953125,0,0,0.015625,-0.07421875,0,-0.00402832,0.01098633,-0.006835938,0,0,-0.006835938,0,4.077,0,0,0,0,nan,2,0.508,0,0,0,0,0,0,0,0,0,1,2,1
1430.827,0.001016,0.02148438,-0.01953125,0.01171875,0.328125,0.3515625,9.242188,0.001953125,-0.001953125,-0.001953125,0.015625,-0.07421875,0,-0.00402832,0.01086426,-0.006835938,0,0,-0.006835938,0,4.077,0,0,0,0,nan,2,0.519,0,0,0,0,0,0,0,0,0,1,2,1
1430.836,0.001073,-0.00390625,0.0234375,0.009765625,0.2578125,-0.234375,10.125,-0.001953125,0.009765625,0.001953125,0.015625,-0.07421875,0,-0.00402832,0.01086426,-0.006835938,0,0,-0.006835938,0,4.077,0,0,0,0,nan,2,0.528,0,0,0,0,0,0,0,0,0,1,2,1
1430.847,0.001008,-0.00390625,0.005859375,0,0.078125,-0.3515625,9.828125,0,0.0078125,0.001953125,0.015625,-0.07421875,0,-0.00402832,0.01086426,-0.006835938,0,0,-0.006835938,0,4.077,0,0,0,0,nan,2,0.539,0,0,0,0,0,0,0,0,0,1,2,1
1430.856,0.001012,-0.00390625,0.005859375,0.00390625,-0.2421875,-0.2265625,9.898438,0,0,0.00390625,0.015625,-0.07421875,0,-0.00402832,0.01086426,-0.006835938,0,0,-0.006835938,0,4.077,0,0,0,0,nan,2,0.548,0,0,0,0,0,0,0,0,0,1,2,1
1430.866,0.001012,0,-0.001953125,-0.00390625,0.0546875,0.03125,9.867188,0.001953125,-0.001953125,-0.001953125,0.015625,-0.07421875,0,-0.00402832,0.01086426,-0.006835938,0,0,-0.006835938,0,4.077,0,0,0,0,nan,2,0.558,0,0,0,0,0,0,0,0,0,1,2,1
1430.876,0.001012,0.005859375,0.00390625,0.00390625,0.140625,-0.2890625,9.875,0.00390625,0.00390625,0.005859375,0.015625,-0.07421875,0,-0.00402832,0.01086426,-0.006835938,0,0,-0.006835938,0,4.077,0,0,0,0,nan,2,0.568,0,0,0,0,0,0,0,0,0,1,2,1
1430.887,0.001012,0,0,0.01171875,-0.0625,0.2421875,9.710938,0,-0.001953125,0.001953125,0.015625,-0.07421875,0,-0.00402832,0.01074219,-0.006835938,0,0,-0.006835938,0,4.077,0,0,0,0,nan,2,0.578,0,0,0,0,0,0,0,0,0,1,2,1
1430.897,0.001012,0,-0.001953125,-0.001953125,-0.015625,-0.1796875,9.632812,0,0.001953125,0,0.015625,-0.07421875,0,-0.00402832,0.01074219,-0.006835938,0,0,-0.006835938,0,4.077,0,0,0,0,nan,2,0.588,0,0,0,0,0,0,0,0,0,1,2,1
1430.907,0.001012,-0.0078125,0,-0.01171875,-0.1640625,0.1484375,9.828125,-0.00390625,-0.001953125,-0.005859375,0.015625,-0.07421875,0,-0.00402832,0.01062012,-0.006835938,0,0,-0.006835938,0,4.077,0,0,0,0,nan,2,0.598,0,0,0,0,0,0,0,0,0,1,2,1
1430.917,0.001015,0.005859375,0.001953125,0.01171875,0.0625,-0.171875,9.898438,0.00390625,0.001953125,0.0078125,0.015625,-0.07421875,0,-0.00402832,0.01062012,-0.006835938,0,0,-0.006835938,0,4.077,0,0,0,0,nan,2,0.608,0,0,0,0,0,0,0,0,0,1,2,1
1430.927,0.001011,-0.0078125,-0.00390625,-0.01171875,-0.234375,0.0546875,9.773438,-0.005859375,-0.00390625,-0.0078125,0.015625,-0.07421875,0,-0.00402832,0.01062012,-0.006835938,0,0,-0.006835938,0,4.077,0,0,0,0,nan,2,0.619,0,0,0,0,0,0,0,0,0,1,2,1
1430.937,0.001013,0.009765625,0.00390625,0.005859375,0.171875,-0.125,9.835938,0.00390625,0.00390625,0.00390625,0.015625,-0.07421875,0,-0.00402832,0.01062012,-0.006958008,0,0,-0.006958008,0,4.077,0,0,0,0,nan,2,0.629,0,0,0,0,0,0,0,0,0,1,2,1
1430.947,0.001034,-0.0078125,-0.001953125,-0.005859375,-0.21875,-0.0078125,9.820312,-0.00390625,-0.00390625,0,0.015625,-0.07421875,0,-0.00402832,0.01049805,-0.006835938,0,0,-0.006835938,0,4.077,0,0,0,0,nan,2,0.639,0,0,0,0,0,0,0,0,0,1,2,1
1430.956,0.000976,0.0078125,0.009765625,0.001953125,0.0390625,0.015625,9.796875,0.001953125,0.00390625,-0.001953125,0.015625,-0.07421875,0,-0.00402832,0.01049805,-0.006958008,0,0,-0.006958008,0,4.077,0,0,0,0,nan,2,0.648,0,0,0,0,0,0,0,0,0,1,2,1
1430.966,0.000979,-0.005859375,-0.005859375,0,-0.03125,-0.0625,9.765625,-0.001953125,-0.001953125,0.001953125,0.015625,-0.07421875,0,-0.00402832,0.01049805,-0.006958008,0,0,-0.006958008,0,4.077,0,0,0,0,nan,2,0.658,0,0,0,0,0,0,0,0,0,1,2,1
1430.977,0.001024,0.001953125,0.005859375,-0.001953125,-0.078125,-0.0546875,9.78125,0,0.001953125,-0.00390625,0.015625,-0.07421875,0,-0.00402832,0.01049805,-0.006958008,0,0,-0.006958008,0,4.077,0,0,0,0,nan,2,0.668,0,0,0,0,0,0,0,0,0,1,2,1
1430.987,0.001002,0,-0.00390625,0.001953125,0.0546875,-0.0234375,9.867188,0,0,0,0.015625,-0.07421875,0,-0.00402832,0.01037598,-0.006958008,0,0,-0.006958008,0,4.077,0,0,0,0,nan,2,0.678,0,0,0,0,0,0,0,0,0,1,2,1
1430.997,0.001002,0,0,0.00390625,-0.109375,0,9.820312,-0.001953125,-0.001953125,0.005859375,0.015625,-0.07421875,0,-0.00402832,0.01037598,-0.006958008,0,0,-0.006958008,0,4.077,0,0,0,0,nan,2,0.688,0,0,0,0,0,0,0,0,0,1,2,1
1431.007,0.001013,0,0,-0.0078125,-0.0234375,-0.0625,9.890625,0,0.001953125,-0.00390625,0.015625,-0.07421875,0,-0.00402832,0.01037598,-0.006958008,0,0,-0.006958008,0,4.077,0,0,0,0,nan,2,0.698,0,0,0,0,0,0,0,0,0,1,2,1
1431.017,0.001016,-0.001953125,0,0.001953125,-0.1171875,0.03125,9.75,0,0,0,0.015625,-0.07421875,0,-0.00402832,0.01025391,-0.006958008,0,0,-0.006958008,0,4.077,0,0,0,0,nan,2,0.708,0,0,0,0,0,0,0,0,0,1,2,1
1431.027,0.000999,0,-0.001953125,0,0.0390625,-0.1015625,9.828125,0.001953125,0.001953125,0.001953125,0.015625,-0.07421875,0,-0.00402832,0.01025391,-0.006958008,0,0,-0.006958008,0,4.077,0,0,0,0,nan,2,0.718,0,0,0,0,0,0,0,0,0,1,2,1
1431.037,0.001001,-0.00390625,0,-0.00390625,-0.0859375,0.0625,9.84375,-0.001953125,0,-0.00390625,0.015625,-0.07421875,0,-0.00402832,0.01025391,-0.006958008,0,0,-0.006958008,0,4.077,0,0,0,0,nan,2,0.729,0,0,0,0,0,0,0,0,0,1,2,1
1431.047,0.001001,0.00390625,0.00390625,0.001953125,-0.03125,-0.078125,9.84375,0.001953125,0.001953125,0.001953125,0.015625,-0.07421875,0,-0.00390625,0.01025391,-0.006958008,0,0,-0.006958008,0,4.077,0,0,0,0,nan,2,0.739,0,0,0,0,0,0,0,0,0,1,2,1
1431.056,0.001018,0,0.001953125,-0.005859375,-0.0625,0,9.742188,0,0.001953125,-0.001953125,0.015625,-0.07421875,0,-0.00390625,0.01025391,-0.006958008,0,0,-0.006958008,0,4.077,0,0,0,0,nan,2,0.748,0,0,0,0,0,0,0,0,0,1,2,1
1431.066,0.001017,0.00390625,0,0.001953125,0,-0.0625,9.804688,0.001953125,0,0,0.015625,-0.07421875,0,-0.00390625,0.01025391,-0.006958008,0,0,-0.006958008,0,4.077,0,0,0,0,nan,2,0.758,0,0,0,0,0,0,0,0,0,1,2,1
1431.076,0.001026,-0.001953125,0.00390625,-0.00390625,-0.09375,-0.03125,9.835938,0,0.001953125,-0.001953125,0.015625,-0.07421875,0,-0.00390625,0.01013184,-0.006958008,0,0,-0.006958008,0,4.077,0,0,0,0,nan,2,0.768,0,0,0,0,0,0,0,0,0,1,2,1
1431.087,0.001013,-0.001953125,0,0,-0.0234375,-0.03125,9.804688,0,0,0,0.015625,-0.07421875,0,-0.00390625,0.01013184,-0.006958008,0,0,-0.006958008,0,4.077,0,0,0,0,nan,2,0.778,0,0,0,0,0,0,0,0,0,1,2,1
1431.097,0.001048,0,-0.00390625,0,-0.0390625,-0.0390625,9.78125,0,-0.001953125,0,0.015625,-0.07421875,0,-0.00390625,0.01013184,-0.006958008,0,0,-0.006958008,0,4.077,0,0,0,0,nan,2,0.788,0,0,0,0,0,0,0,0,0,1,2,1
1431.107,0.001018,0.005859375,0,0.001953125,-0.078125,-0.0546875,9.789062,0,0,0.001953125,0.015625,-0.07421875,0,-0.00390625,0.01013184,-0.006958008,0,0,-0.006958008,0,4.077,0,0,0,0,nan,2,0.798,0,0,0,0,0,0,0,0,0,1,2,1
1431.117,0.001018,-0.001953125,-0.001953125,-0.001953125,-0.0078125,-0.0390625,9.75,0,0,0,0.015625,-0.07421875,0,-0.00390625,0.01013184,-0.006958008,0,0,-0.006958008,0,4.077,0,0,0,0,nan,2,0.808,0,0,0,0,0,0,0,0,0,1,2,1
1431.127,0.000984,0.001953125,0,-0.001953125,-0.0546875,-0.0078125,9.84375,0.001953125,0,0.001953125,0.015625,-0.07421875,0,-0.00390625,0.01000977,-0.006958008,0,0,-0.006958008,0,4.077,0,0,0,0,nan,2,0.819,0,0,0,0,0,0,0,0,0,1,2,1
1431.137,0.001001,0.001953125,0.005859375,-0.005859375,-0.0078125,-0.015625,9.765625,0,0.001953125,-0.001953125,0.015625,-0.07421875,0,-0.00390625,0.01000977,-0.006958008,0,0,-0.006958008,0,4.077,0,0,0,0,nan,2,0.829,0,0,0,0,0,0,0,0,0,1,2,1
1431.147,0.001019,0.001953125,0,-0.001953125,-0.0703125,-0.0078125,9.804688,0,0,-0.001953125,0.015625,-0.07421875,0,-0.00390625,0.01000977,-0.006958008,0,0,-0.006958008,0,4.077,0,0,0,0,nan,2,0.839,0,0,0,0,0,0,0,0,0,1,2,1
1431.156,0.001008,0,0,0.001953125,-0.015625,-0.046875,9.78125,0.001953125,0,0.001953125,0.015625,-0.07421875,0,-0.00390625,0.01000977,-0.006958008,0,0,-0.006958008,0,4.077,0,0,0,0,nan,2,0.848,0,0,0,0,0,0,0,0,0,1,2,1
1431.166,0.001008,-0.001953125,-0.00390625,-0.001953125,-0.015625,-0.015625,9.796875,0,-0.001953125,0,0.015625,-0.07421875,0,-0.00390625,0.009887695,-0.006958008,0,0,-0.006958008,0,4.077,0,0,0,0,nan,2,0.858,0,0,0,0,0,0,0,0,0,1,2,1
1431.176,0.001008,0,0,0,-0.046875,-0.03125,9.765625,-0.001953125,0,0,0.015625,-0.07421875,0,-0.00390625,0.009887695,-0.006958008,0,0,-0.006958008,0,4.077,0,0,0,0,nan,2,0.868,0,0,0,0,0,0,0,0,0,1,2,1
1431.187,0.001008,-0.001953125,0,0,-0.046875,-0.03125,9.789062,-0.001953125,0.001953125,0,0.015625,-0.07421875,0,-0.00390625,0.009887695,-0.006958008,0,0,-0.006958008,0,4.077,0,0,0,0,nan,2,0.878,0,0,0,0,0,0,0,0,0,1,2,1
1431.197,0.001008,0,0.005859375,-0.00390625,-0.03125,-0.03125,9.796875,-0.001953125,0.001953125,-0.001953125,0.015625,-0.07421875,0,-0.00390625,0.009887695,-0.006958008,0,0,-0.006958008,0,4.077,0,0,0,0,nan,2,0.888,0,0,0,0,0,0,0,0,0,1,2,1
1431.207,0.000952,0.001953125,0,0.001953125,-0.03125,-0.0703125,9.804688,0,0,0,0.015625,-0.07421875,0,-0.00390625,0.009887695,-0.006958008,0,0,-0.006958008,0,4.077,0,0,0,0,nan,2,0.898,0,0,0,0,0,0,0,0,0,1,2,1
1431.217,0.001031,0,0.005859375,0,-0.0390625,-0.0234375,9.78125,0,0.001953125,0,0.015625,-0.07421875,0,-0.00390625,0.009765625,-0.006958008,0,0,-0.006958008,0,4.077,0,0,0,0,nan,2,0.908,0,0,0,0,0,0,0,0,0,1,2,1
1431.227,0.00101,0.001953125,0.001953125,-0.001953125,-0.078125,-0.0078125,9.804688,0.001953125,0.001953125,-0.001953125,0.015625,-0.07421875,0,-0.00390625,0.009765625,-0.006958008,0,0,-0.006958008,0,4.077,0,0,0,0,nan,2,0.918,0,0,0,0,0,0,0,0,0,1,2,1
1431.237,0.001009,0.001953125,0,0,-0.0078125,-0.015625,9.78125,0,0,0,0.015625,-0.07421875,0,-0.00390625,0.009765625,-0.006958008,0,0,-0.006958008,0,4.077,0,0,0,0,nan,2,0.929,0,0,0,0,0,0,0,0,0,1,2,1
1431.247,0.001008,-0.001953125,0.001953125,0.001953125,-0.078125,0,9.804688,0,0,0,0.015625,-0.07421875,0,-0.00390625,0.009765625,-0.006958008,0,0,-0.006958008,0,4.077,0,0,0,0,nan,2,0.939,0,0,0,0,0,0,0,0,0,1,2,1
1431.256,0.001012,-0.001953125,0,0,-0.03125,-0.015625,9.773438,-0.001953125,0,0,0.015625,-0.07421875,0,-0.00390625,0.009765625,-0.006958008,0,0,-0.006958008,0,4.077,0,0,0,0,nan,2,0.948,0,0,0,0,0,0,0,0,0,1,2,1
1431.266,0.000994,0,0,-0.001953125,-0.0234375,-0.0234375,9.796875,0,0,-0.001953125,0.015625,-0.07421875,0,-0.00390625,0.009765625,-0.006958008,0,0,-0.006958008,0,4.077,0,0,0,0,nan,2,0.958,0,0,0,0,0,0,0,0,0,1,2,1
1431.276,0.001013,-0.001953125,0,0.001953125,-0.015625,-0.0234375,9.804688,-0.001953125,0,0,0.015625,-0.07421875,0,-0.00390625,0.009643555,-0.006958008,0,0,-0.006958008,0,4.077,0,0,0,0,nan,2,0.968,0,0,0,0,0,0,0,0,0,1,2,1
1431.286,0.001012,-0.001953125,-0.001953125,0.001953125,-0.0078125,-0.0234375,9.867188,0,0,0,0.015625,-0.07421875,0,-0.00390625,0.009643555,-0.006958008,0,0,-0.006958008,0,4.077,0,0,0,0,nan,2,0.978,0,0,0,0,0,0,0,0,0,1,2,1
1431.297,0.001012,-0.00390625,0.00390625,0.001953125,-0.0703125,-0.0234375,9.757812,0,0.001953125,0.001953125,0.015625,-0.07421875,0,-0.00390625,0.009643555,-0.006958008,0,0,-0.006958008,0,4.077,0,0,0,0,nan,2,0.988,0,0,0,0,0,0,0,0,0,1,2,1
1431.307,0.001012,0.00390625,-0.001953125,-0.005859375,-0.0703125,-0.0390625,9.789062,0.001953125,-0.001953125,0,0.015625,-0.07421875,0,-0.00390625,0.009643555,-0.006958008,0,0,-0.006958008,0,4.077,0,0,0,0,nan,2,0.998,0,0,0,0,0,0,0,0,0,1,2,1
1431.317,0.001012,0.00390625,0,0,-0.0234375,-0.046875,9.789062,0,0,0,0.015625,-0.07421875,0,-0.00378418,0.009521484,-0.006958008,0,0,-0.006958008,0,4.077,0,0,0,0,nan,2,1.008,0,0,0,0,0,0,0,0,0,1,2,1
