t,dt_s,gyro_x,gyro_y,gyro_z,acc_x,acc_y,acc_z,rates.x,rates.y,rates.z,ratesTarget.x,ratesTarget.y,ratesTarget.z,attitude.x,attitude.y,attitude.z,attitudeTarget.x,attitudeTarget.y,attitudeTarget.z,thrustTarget,battery_v,rc_roll,rc_pitch,rc_yaw,rc_throttle,rc_mode,flight_mode,rc_age_s,armed,fault_mask,motor_rl,motor_rr,motor_fr,motor_fl,rate_i_x,rate_i_y,rate_i_z,mix_scale,control_source,accel_correction_confidence
265.22,0.00105,0.01171875,0.0234375,0.078125,0.5,0.9609375,8.679688,0.005859375,0.015625,0.0546875,0.578125,-0.109375,0,-0.0970459,0.01538086,0.05456543,0,0,0.09448242,0,4.077,0,0,0,0,nan,2,0.029,1,128,0.1000061,0.1000061,0.1000061,0.1000061,0,0,0,1,2,0
265.23,0.001012,-0.04882812,0.02734375,0.07226562,-0.796875,1.3125,13.42969,-0.009765625,0.00390625,0.06835938,0.578125,-0.109375,0,-0.0970459,0.01538086,0.05529785,0,0,0.09448242,0,4.077,0,0,0,0,nan,2,0.04,1,128,0.1000061,0.1000061,0.1000061,0.1000061,0,0,0,1,2,0
265.24,0.001,-0.00390625,0.02148438,0.03320312,1.375,3.171875,8.960938,0.00390625,-0.001953125,0.04882812,0.578125,-0.109375,0,-0.0970459,0.01550293,0.05578613,0,0,0.09448242,0,4.077,0,0,0,0,nan,2,0.049,1,128,0.1000061,0.1000061,0.1000061,0.1000061,0,0,0,1,2,0.3174603
265.25,0.001,0.009765625,0.01367188,0.02539062,-1.773438,2.882812,11.17188,0,0,0.03515625,0.578125,-0.109375,0,-0.09692383,0.01550293,0.05627441,0,0,0.09448242,0,4.077,0,0,0,0,nan,2,0.059,1,128,0.1000061,0.1000061,0.1000061,0.1000061,0,0,0,1,2,0
265.26,0.001,0.06054688,0.02148438,-0.01367188,0.28125,5.609375,17.59375,0.00390625,0.001953125,-0.001953125,0.578125,-0.109375,0,-0.0970459,0.015625,0.05639648,0,0,0.09448242,0,4.077,0,0,0,0,nan,2,0.069,1,128,0.1000061,0.1000061,0.1000061,0.1000061,0,0,0,1,2,0
265.27,0.001,0,0.03125,-0.02929688,0.4609375,0.8828125,14.84375,0,0,-0.01953125,0.578125,-0.109375,0,-0.09692383,0.015625,0.05627441,0,0,0.09448242,0,4.077,0,0,0,0,nan,2,0.08,1,128,0.1000061,0.1000061,0.1000061,0.1000061,0,0,0,1,2,0
265.28,0.001004,0.03320312,-0.03515625,0.01171875,0.0390625,-3.992188,9.84375,0.0078125,-0.0078125,-0.005859375,0.578125,-0.109375,0,-0.0970459,0.015625,0.05603027,0,0,0.09448242,0,4.077,0,0,0,0,nan,2,0.09,1,128,0.1000061,0.1000061,0.1000061,0.1000061,0,0,0,1,2,0
265.29,0.001004,-0.03515625,0.01757812,0.06835938,1.71875,-2.875,9.460938,-0.0078125,0,0.04492188,0.578125,-0.109375,0,-0.09692383,0.01550293,0.05627441,0,0,0.09448242,0,4.077,0,0,0,0,nan,2,0.1,1,128,0.1000061,0.1000061,0.1000061,0.1000061,0,0,0,1,2,0.4444444
265.3,0.001002,-0.02734375,0.02539062,0.09375,0.484375,-3.289062,9.484375,0.009765625,0.009765625,0.09179688,0.578125,-0.109375,0,-0.09692383,0.015625,0.05712891,0,0,0.09448242,0,4.077,0,0,0,0,nan,2,0.11,1,128,0.1000061,0.1000061,0.1000061,0.1000061,0,0,0,1,2,0.3492064
265.31,0.001003,0.02929688,0.015625,0.07617188,1.09375,2.320312,11.69531,0.01757812,0.0078125,0.08007812,0.578125,-0.109375,0,-0.09680176,0.01574707,0.0579834,0,0,0.09448242,0,4.077,0,0,0,0,nan,2,0.12,1,128,0.1000061,0.1000061,0.1000061,0.1000061,0,0,0,1,2,0
265.32,0.001109,0.03125,0.0703125,0,2.960938,3.742188,14.53906,0.009765625,0.02148438,0.01757812,0.578125,-0.109375,0,-0.09667969,0.01586914,0.05834961,0,0,0.09448242,0,4.077,0,0,0,0,nan,2,0.129,1,128,0.1000061,0.1000061,0.1000061,0.1000061,0,0,0,1,2,0
265.33,0.001,-0.03710938,0.05273438,-0.08398438,-2.898438,-1.234375,1.484375,-0.00390625,0.01953125,-0.05664062,0.578125,-0.109375,0,-0.09667969,0.01586914,0.05810547,0,0,0.09448242,0,4.077,0,0,0,0,nan,2,0.14,1,128,0.1000061,0.1000061,0.1000061,0.1000061,0,0,0,1,2,0
265.34,0.00102,0.0078125,-0.04296875,-0.09179688,1.601562,0.25,9.835938,-0.009765625,-0.03515625,-0.08398438,0.578125,-0.109375,0,-0.09680176,0.01574707,0.05749512,0,0,0.09448242,0,4.077,0,0,0,0,nan,2,0.149,1,128,0.1000061,0.1000061,0.1000061,0.1000061,0,0,0,1,2,0.0952381
265.35,0.00102,0.046875,-0.0234375,-0.1015625,-1.710938,-1.867188,1.9375,-0.001953125,-0.01367188,-0.09570312,0.578125,-0.109375,0,-0.09692383,0.01550293,0.05651855,0,0,0.09448242,0,4.077,0,0,0,0,nan,2,0.159,1,128,0.1000061,0.1000061,0.1000061,0.1000061,0,0,0,1,2,0
265.36,0.00102,-0.03710938,-0.0078125,-0.06835938,-1.8125,-1.507812,-2.3125,-0.01367188,0.009765625,-0.07421875,0.578125,-0.109375,0,-0.09692383,0.01538086,0.05578613,0,0,0.09448242,0,4.077,0,0,0,0,nan,2,0.169,1,128,0.1000061,0.1000061,0.1000061,0.1000061,0,0,0,1,2,0
265.37,0.00102,-0.05859375,0.03125,-0.015625,-1.4375,1.945312,1.976562,-0.015625,0.01367188,-0.03710938,0.578125,-0.109375,0,-0.09692383,0.01525879,0.05517578,0,0,0.09448242,0,4.077,0,0,0,0,nan,2,0.18,1,128,0.1000061,0.1000061,0.1000061,0.1000061,0,0,0,1,2,0
265.38,0.001011,-0.06054688,0.03320312,0.015625,-4.640625,1.335938,7.710938,0.001953125,0.009765625,0,0.578125,-0.109375,0,-0.09692383,0.01525879,0.05505371,0,0,0.09448242,0,4.077,0,0,0,0,nan,2,0.19,1,128,0.1000061,0.1000061,0.1000061,0.1000061,0,0,0,1,2,0
265.391,0.001081,-0.02539062,0.046875,0.01757812,-2.328125,4.21875,14.47656,-0.009765625,0.001953125,0.02148438,0.578125,-0.109375,0,-0.0970459,0.01525879,0.05517578,0,0,0.09448242,0,4.077,0,0,0,0,nan,2,0.2,1,128,0.1000061,0.1000061,0.1000061,0.1000061,0,0,0,1,2,0
265.4,0.001013,0.05664062,0.01757812,0.02734375,1.320312,-5.554688,9.953125,0.0234375,-0.005859375,0.02734375,0.578125,-0.109375,0,-0.0970459,0.01525879,0.05541992,0,0,0.09448242,0,4.077,0,0,0,0,nan,2,0.21,1,128,0.1000061,0.1000061,0.1000061,0.1000061,0,0,0,1,2,0
265.411,0.001022,0.02539062,0.01171875,0.0078125,3.09375,-4.570312,10.78125,-0.00390625,-0.00390625,0.015625,0.578125,-0.109375,0,-0.09716797,0.01525879,0.05566406,0,0,0.09448242,0,4.077,0,0,0,0,nan,2,0.22,1,128,0.1000061,0.1000061,0.1000061,0.1000061,0,0,0,1,2,0
265.421,0.001012,-0.0234375,0.00390625,-0.009765625,1.820312,-4.109375,6.398438,-0.01953125,0.005859375,0.001953125,0.578125,-0.109375,0,-0.09716797,0.01525879,0.05578613,0,0,0.09448242,0,4.077,0,0,0,0,nan,2,0.23,1,128,0.1000061,0.1000061,0.1000061,0.1000061,0,0,0,1,2,0
265.431,0.001014,-0.0078125,0.01953125,-0.04101562,2.296875,-3.515625,7.554688,0,0.001953125,-0.02539062,0.578125,-0.109375,0,-0.09716797,0.01525879,0.05566406,0,0,0.09448242,0,4.077,0,0,0,0,nan,2,0.24,1,128,0.1000061,0.1000061,0.1000061,0.1000061,0,0,0,1,2,0
265.44,0.001071,-0.005859375,-0.005859375,-0.06445312,0.046875,-5.578125,9.757812,0.009765625,-0.0078125,-0.04882812,0.578125,-0.109375,0,-0.09716797,0.01513672,0.05529785,0,0,0.09448242,0,4.077,0,0,0,0,nan,2,0.249,1,128,0.1000061,0.1000061,0.1000061,0.1000061,0,0,0,1,2,0
265.45,0.001017,0.01367188,-0.0234375,-0.06835938,0.7578125,-3.726562,8.945312,0.009765625,-0.001953125,-0.06445312,0.578125,-0.109375,0,-0.09716797,0.01513672,0.0546875,0,0,0.09448242,0,4.077,0,0,0,0,nan,2,0.259,1,128,0.1000061,0.1000061,0.1000061,0.1000061,0,0,0,1,2,0.4444444
265.461,0.000999,-0.015625,0.005859375,-0.0703125,0.15625,-5.929688,10.83594,0.001953125,0.01171875,-0.07421875,0.578125,-0.109375,0,-0.0970459,0.01513672,0.05395508,0,0,0.09448242,0,4.077,0,0,0,0,nan,2,0.008,1,128,0.1000061,0.1000061,0.1000061,0.1000061,0,0,0,1,2,0
265.471,0.000991,-0.03710938,-0.01171875,-0.07617188,1.335938,5.789062,13.60156,-0.02148438,0.009765625,-0.0859375,0.578125,-0.109375,0,-0.09716797,0.01513672,0.05310059,0,0,0.09448242,0,4.077,0,0,0,0,nan,2,0.018,1,128,0.1000061,0.1000061,0.1000061,0.1000061,0,0,0,1,2,0
265.48,0.001005,-0.00390625,0.05078125,-0.07226562,0.203125,-1.804688,10.29688,-0.01367188,0.015625,-0.0703125,0.578125,-0.109375,0,-0.09741211,0.01513672,0.05236816,0,0,0.09448242,0,4.077,0,0,0,0,nan,2,0.028,1,128,0.1000061,0.1000061,0.1000061,0.1000061,0,0,0,1,2,0
265.49,0.001002,0.01757812,0.03125,-0.04882812,1.898438,0.5859375,15.96875,0.009765625,0.005859375,-0.0546875,0.578125,-0.109375,0,-0.09741211,0.01501465,0.05175781,0,0,0.09448242,0,4.077,0,0,0,0,nan,2,0.038,1,128,0.1000061,0.1000061,0.1000061,0.1000061,0,0,0,1,2,0
265.5,0.000998,0.03125,0.02539062,-0.07421875,1.65625,4.179688,13.77344,0.005859375,-0.00390625,-0.06640625,0.578125,-0.109375,0,-0.09729004,0.01501465,0.05114746,0,0,0.09448242,0,4.077,0,0,0,0,nan,2,0.048,1,128,0.1000061,0.1000061,0.1000061,0.1000061,0,0,0,1,2,0
265.51,0.000998,0.04296875,0.009765625,-0.08007812,-0.2734375,1.070312,6.640625,0.01171875,-0.005859375,-0.06640625,0.578125,-0.109375,0,-0.09729004,0.01501465,0.05053711,0,0,0.09448242,0,4.077,0,0,0,0,nan,2,0.058,1,128,0.1000061,0.1000061,0.1000061,0.1000061,0,0,0,1,2,0
265.521,0.001,0.03320312,-0.04882812,-0.06054688,-0.9765625,1.390625,7.234375,0.001953125,-0.0234375,-0.05859375,0.578125,-0.109375,0,-0.09729004,0.01489258,0.04992676,0,0,0.09448242,0,4.077,0,0,0,0,nan,2,0.068,1,128,0.1000061,0.1000061,0.1000061,0.1000061,0,0,0,1,2,0
265.53,0.001,0.0078125,0.00390625,-0.08203125,-3.117188,-2.71875,4.546875,-0.00390625,-0.0078125,-0.07226562,0.578125,-0.109375,0,-0.09729004,0.01464844,0.04931641,0,0,0.09448242,0,4.077,0,0,0,0,nan,2,0.078,1,128,0.1000061,0.1000061,0.1000061,0.1000061,0,0,0,1,2,0
265.54,0.001,-0.001953125,-0.03710938,-0.06054688,-1.921875,-0.9921875,6.125,0.00390625,-0.005859375,-0.05859375,0.578125,-0.109375,0,-0.09729004,0.01464844,0.04858398,0,0,0.09448242,0,4.077,0,0,0,0,nan,2,0.088,1,128,0.1000061,0.1000061,0.1000061,0.1000061,0,0,0,1,2,0
265.55,0.00102,-0.0390625,0.0390625,-0.046875,-0.1796875,4.226562,11.64844,0.005859375,0.01757812,-0.0546875,0.578125,-0.109375,0,-0.09716797,0.01452637,0.0480957,0,0,0.09448242,0,4.077,0,0,0,0,nan,2,0.098,1,128,0.1000061,0.1000061,0.1000061,0.1000061,0,0,0,1,2,0
265.56,0.001018,0.03515625,-0.00390625,-0.05859375,-3.367188,-1.8125,4.859375,0.02148438,-0.005859375,-0.05664062,0.578125,-0.109375,0,-0.0970459,0.0144043,0.04760742,0,0,0.09448242,0,4.077,0,0,0,0,nan,2,0.108,1,128,0.1000061,0.1000061,0.1000061,0.1000061,0,0,0,1,2,0
265.57,0.00102,0.02929688,0.0078125,-0.04296875,-2.820312,-2.382812,2.03125,0,0.009765625,-0.046875,0.578125,-0.109375,0,-0.09692383,0.0144043,0.04699707,0,0,0.09448242,0,4.077,0,0,0,0,nan,2,0.118,1,128,0.1000061,0.1000061,0.1000061,0.1000061,0,0,0,1,2,0
265.58,0.00102,0.02734375,-0.01953125,-0.0390625,-2.585938,-2.15625,6.21875,0.0078125,-0.02734375,-0.0390625,0.578125,-0.109375,0,-0.09692383,0.01428223,0.04663086,0,0,0.09448242,0,4.077,0,0,0,0,nan,2,0.128,1,128,0.1000061,0.1000061,0.1000061,0.1000061,0,0,0,1,2,0
265.59,0.001018,-0.01757812,0.02148438,-0.01953125,-0.96875,0.8828125,17.89062,-0.01171875,0.015625,-0.02539062,0.578125,-0.109375,0,-0.09692383,0.01428223,0.04626465,0,0,0.09448242,0,4.077,0,0,0,0,nan,2,0.138,1,128,0.1000061,0.1000061,0.1000061,0.1000061,0,0,0,1,2,0
265.6,0.001022,0.01953125,-0.01757812,-0.015625,2.125,3.773438,16.25781,0.01171875,-0.01953125,-0.01171875,0.578125,-0.109375,0,-0.09692383,0.01416016,0.04614258,0,0,0.09448242,0,4.077,0,0,0,0,nan,2,0.148,1,128,0.1000061,0.1000061,0.1000061,0.1000061,0,0,0,1,2,0
265.61,0.00102,0.00390625,0.02539062,-0.00390625,-0.6484375,-2.265625,5.46875,-0.00390625,0.01367188,-0.009765625,0.578125,-0.109375,0,-0.09692383,0.01416016,0.04602051,0,0,0.09448242,0,4.077,0,0,0,0,nan,2,0.158,1,128,0.1000061,0.1000061,0.1000061,0.1000061,0,0,0,1,2,0
265.62,0.00104,-0.01953125,-0.046875,-0.005859375,1.109375,0.34375,7.867188,-0.009765625,-0.01367188,0,0.578125,-0.109375,0,-0.09692383,0.01428223,0.04602051,0,0,0.09448242,0,4.077,0,0,0,0,nan,2,0.168,1,128,0.1000061,0.1000061,0.1000061,0.1000061,0,0,0,1,2,0
265.63,0.001022,-0.03710938,0.001953125,0.02734375,0.1640625,1.039062,17.89844,0,-0.005859375,0.015625,0.578125,-0.109375,0,-0.09680176,0.01416016,0.04614258,0,0,0.09448242,0,4.077,0,0,0,0,nan,2,0.178,1,128,0.1000061,0.1000061,0.1000061,0.1000061,0,0,0,1,2,0
265.641,0.00102,0.01171875,-0.01953125,0.01757812,2.75,1.28125,17.80469,0.001953125,0.001953125,0.015625,0.578125,-0.109375,0,-0.09692383,0.01428223,0.04626465,0,0,0.09448242,0,4.077,0,0,0,0,nan,2,0.188,1,128,0.1000061,0.1000061,0.1000061,0.1000061,0,0,0,1,2,0
265.65,0.001008,0.0390625,0.01171875,0.001953125,2.570312,4.867188,17.30469,0.0234375,-0.01171875,0.0078125,0.578125,-0.109375,0,-0.09692383,0.01416016,0.04638672,0,0,0.09448242,0,4.077,0,0,0,0,nan,2,0.198,1,128,0.1000061,0.1000061,0.1000061,0.1000061,0,0,0,1,2,0
265.66,0.001085,0.02734375,0.02734375,0.0078125,1.117188,-1.351562,15.23438,0.0234375,-0.0234375,0.00390625,0.578125,-0.109375,0,-0.09667969,0.01391602,0.04650879,0,0,0.09448242,0,4.077,0,0,0,0,nan,2,0.208,1,128,0.1000061,0.1000061,0.1000061,0.1000061,0,0,0,1,2,0
265.67,0.001008,0.02148438,-0.03515625,0.01367188,4.210938,-1.523438,13.55469,0.02929688,-0.02734375,0.01171875,0.578125,-0.109375,0,-0.09643555,0.01379395,0.04650879,0,0,0.09448242,0,4.077,0,0,0,0,nan,2,0.218,1,128,0.1000061,0.1000061,0.1000061,0.1000061,0,0,0,1,2,0
265.68,0.001026,0.04492188,-0.00390625,0.01367188,1.101562,-1.3125,0.0703125,0.0234375,-0.015625,0.01953125,0.578125,-0.109375,0,-0.09619141,0.0135498,0.04675293,0,0,0.09448242,0,4.077,0,0,0,0,nan,2,0.228,1,128,0.1000061,0.1000061,0.1000061,0.1000061,0,0,0,1,2,0
265.69,0.001031,-0.015625,-0.02539062,0.04492188,-2.695312,1.90625,2.101562,0.01171875,-0.02148438,0.02929688,0.578125,-0.109375,0,-0.09594727,0.01330566,0.04699707,0,0,0.09448242,0,4.077,0,0,0,0,nan,2,0,1,128,0.1000061,0.1000061,0.1000061,0.1000061,0,0,0,1,2,0
265.7,0.00102,0.001953125,-0.005859375,0,-0.8671875,-4.71875,10.71875,0.015625,-0.001953125,0.005859375,0.578125,-0.109375,0,-0.0958252,0.01318359,0.04711914,0,0,0.09448242,0,4.077,0,0,0,0,nan,2,0.01,1,128,0.1000061,0.1000061,0.1000061,0.1000061,0,0,0,1,2,0
265.71,0.00095,0.01953125,0.03710938,-0.03320312,1.140625,-5.304688,8.625,0.015625,0.0078125,-0.015625,0.578125,-0.109375,0,-0.09570312,0.01318359,0.04711914,0,0,0.09448242,0,4.077,0,0,0,0,nan,2,0.02,1,128,0.1000061,0.1000061,0.1000061,0.1000061,0,0,0,1,2,0.1904762
265.72,0.001016,-0.001953125,-0.0390625,-0.03320312,1.945312,3.5625,8.945312,-0.015625,0.0078125,-0.02148438,0.578125,-0.109375,0,-0.0958252,0.01342773,0.046875,0,0,0.09448242,0,4.077,0,0,0,0,nan,2,0.03,1,128,0.1000061,0.1000061,0.1000061,0.1000061,0,0,0,1,2,0.1587302
265.73,0.001049,-0.00390625,0.01171875,-0.02148438,0.28125,-0.1015625,1.914062,-0.01367188,-0.01953125,-0.02539062,0.578125,-0.109375,0,-0.0958252,0.01318359,0.04675293,0,0,0.09448242,0,4.077,0,0,0,0,nan,2,0.039,1,128,0.1000061,0.1000061,0.1000061,0.1000061,0,0,0,1,2,0
265.741,0.001008,-0.02539062,-0.015625,0,0.25,0.6328125,13.61719,-0.001953125,-0.01757812,-0.01171875,0.578125,-0.109375,0,-0.0958252,0.01306152,0.04650879,0,0,0.09448242,0,4.077,0,0,0,0,nan,2,0.05,1,128,0.1000061,0.1000061,0.1000061,0.1000061,0,0,0,1,2,0
265.75,0.001012,0.02734375,0.01171875,0.015625,0.0234375,4.132812,15.90625,0.01171875,0.0078125,0.005859375,0.578125,-0.109375,0,-0.0958252,0.01293945,0.04650879,0,0,0.09448242,0,4.077,0,0,0,0,nan,2,0.06,1,128,0.1000061,0.1000061,0.1000061,0.1000061,0,0,0,1,2,0
265.76,0.001012,0.01367188,0.01171875,0.02929688,-3.367188,-4.109375,7.46875,-0.005859375,0.02148438,0.02734375,0.578125,-0.109375,0,-0.09594727,0.01318359,0.04663086,0,0,0.09448242,0,4.077,0,0,0,0,nan,2,0.07,1,128,0.1000061,0.1000061,0.1000061,0.1000061,0,0,0,1,2,0
265.77,0.00101,-0.0234375,-0.001953125,0.015625,1.0625,-3.46875,5.320312,-0.02148438,0.015625,0.02148438,0.578125,-0.109375,0,-0.09606934,0.01330566,0.046875,0,0,0.09448242,0,4.077,0,0,0,0,nan,2,0.08,1,128,0.1000061,0.1000061,0.1000061,0.1000061,0,0,0,1,2,0
265.78,0.001007,-0.009765625,0.05078125,-0.005859375,0.671875,-0.8671875,13.57031,0,0.005859375,-0.00390625,0.578125,-0.109375,0,-0.09606934,0.01330566,0.046875,0,0,0.09448242,0,4.077,0,0,0,0,nan,2,0.09,1,128,0.1000061,0.1000061,0.1000061,0.1000061,0,0,0,1,2,0
265.79,0.001006,-0.03125,0.00390625,-0.02929688,2.898438,1.390625,21.25,0,0.01171875,-0.0234375,0.578125,-0.109375,0,-0.09606934,0.01342773,0.04675293,0,0,0.09448242,0,4.077,0,0,0,0,nan,2,0.1,1,128,0.1000061,0.1000061,0.1000061,0.1000061,0,0,0,1,2,0
265.8,0.001041,-0.01953125,0.015625,-0.01757812,-3.070312,-1.46875,4.40625,-0.009765625,0.03710938,-0.01953125,0.578125,-0.109375,0,-0.09619141,0.01379395,0.04650879,0,0,0.09448242,0,4.077,0,0,0,0,nan,2,0.11,1,128,0.1000061,0.1000061,0.1000061,0.1000061,0,0,0,1,2,0
265.81,0.001066,-0.001953125,-0.03125,0,-3.023438,-3.554688,-0.1171875,-0.01757812,0.01757812,-0.00390625,0.578125,-0.109375,0,-0.09643555,0.01403809,0.04638672,0,0,0.09448242,0,4.077,0,0,0,0,nan,2,0.12,1,128,0.1000061,0.1000061,0.1000061,0.1000061,0,0,0,1,2,0
265.82,0.000998,-0.03710938,-0.02148438,0.0234375,-0.203125,-0.3125,5.492188,-0.02539062,-0.01953125,0.009765625,0.578125,-0.109375,0,-0.09655762,0.01403809,0.04638672,0,0,0.09448242,0,4.077,0,0,0,0,nan,2,0.129,1,128,0.1000061,0.1000061,0.1000061,0.1000061,0,0,0,1,2,0
265.831,0.000994,0.0390625,-0.02539062,0.01171875,-1.546875,1.054688,16.02344,0.02148438,-0.02539062,0.01171875,0.578125,-0.109375,0,-0.09655762,0.01379395,0.04650879,0,0,0.09448242,0,4.077,0,0,0,0,nan,2,0.14,1,128,0.1000061,0.1000061,0.1000061,0.1000061,0,0,0,1,2,0
265.84,0.00084,0.00390625,-0.06445312,0.01171875,-1.109375,-0.609375,12.21875,0.015625,-0.02539062,0.01757812,0.578125,-0.109375,0,-0.09643555,0.0135498,0.04675293,0,0,0.09448242,0,4.077,0,0,0,0,nan,2,0.149,1,128,0.1000061,0.1000061,0.1000061,0.1000061,0,0,0,1,2,0
265.85,0.000966,0.01953125,0.01953125,0.0078125,0.75,4.734375,11.40625,0.0078125,-0.001953125,0.01367188,0.578125,-0.109375,0,-0.09619141,0.01342773,0.046875,0,0,0.09448242,0,4.077,0,0,0,0,nan,2,0.16,1,128,0.1000061,0.1000061,0.1000061,0.1000061,0,0,0,1,2,0
265.86,0.000951,-0.015625,0.03125,0.02734375,-0.875,-0.484375,9.9375,0.005859375,0.01953125,0.01953125,0.578125,-0.109375,0,-0.09606934,0.0135498,0.04699707,0,0,0.09448242,0,4.077,0,0,0,0,nan,2,0.17,1,128,0.1000061,0.1000061,0.1000061,0.1000061,0,0,0,1,2,0
265.87,0.001042,0.001953125,-0.0078125,0.0234375,1.265625,1.179688,13.32812,0.00390625,0.0078125,0.02539062,0.578125,-0.109375,0,-0.09606934,0.01379395,0.04724121,0,0,0.09448242,0,4.077,0,0,0,0,nan,2,0.18,1,128,0.1000061,0.1000061,0.1000061,0.1000061,0,0,0,1,2,0
265.88,0.001041,0.02929688,-0.03320312,0.015625,-1.46875,-4.695312,8.023438,0,0.001953125,0.015625,0.578125,-0.109375,0,-0.09619141,0.01379395,0.04748535,0,0,0.09448242,0,4.077,0,0,0,0,nan,2,0.19,1,128,0.1000061,0.1000061,0.1000061,0.1000061,0,0,0,1,2,0
265.89,0.001021,0.03515625,-0.015625,-0.00390625,1.703125,1.96875,12.5625,0.00390625,-0.02539062,0.00390625,0.578125,-0.109375,0,-0.09619141,0.01367188,0.04760742,0,0,0.09448242,0,4.077,0,0,0,0,nan,2,0.2,1,128,0.1000061,0.1000061,0.1000061,0.1000061,0,0,0,1,2,0
265.9,0.001009,-0.0234375,0.02539062,-0.009765625,1.210938,1.367188,13.84375,-0.001953125,-0.001953125,-0.005859375,0.578125,-0.109375,0,-0.09606934,0.0135498,0.04760742,0,0,0.09448242,0,4.077,0,0,0,0,nan,2,0.21,1,128,0.1000061,0.1000061,0.1000061,0.1000061,0,0,0,1,2,0
265.91,0.000963,0.00390625,-0.0078125,0.01367188,3.515625,3.210938,19.69531,0.005859375,0.015625,0.001953125,0.578125,-0.109375,0,-0.09606934,0.01367188,0.04748535,0,0,0.09448242,0,4.077,0,0,0,0,nan,2,0.22,1,128,0.1000061,0.1000061,0.1000061,0.1000061,0,0,0,1,2,0
265.921,0.001015,0.02929688,-0.009765625,0.0234375,2.890625,4.375,11.92188,-0.00390625,0.001953125,0.02148438,0.578125,-0.109375,0,-0.09619141,0.01391602,0.04760742,0,0,0.09448242,0,4.077,0,0,0,0,nan,2,0.23,1,128,0.1000061,0.1000061,0.1000061,0.1000061,0,0,0,1,2,0
265.93,0.001021,0.02734375,-0.01367188,0.0390625,-1.53125,-0.109375,6.710938,-0.009765625,-0.01757812,0.03710938,0.578125,-0.109375,0,-0.09631348,0.01379395,0.04797363,0,0,0.09448242,0,4.077,0,0,0,0,nan,2,0.24,1,128,0.1000061,0.1000061,0.1000061,0.1000061,0,0,0,1,2,0
265.94,0.001131,-0.0078125,-0.06640625,0.02148438,1.789062,5.164062,15.125,0.009765625,-0.03515625,0.01757812,0.578125,-0.109375,0,-0.09619141,0.01367188,0.04821777,0,0,0.09448242,0,4.077,0,0,0,0,nan,2,0.008,1,128,0.1000061,0.1000061,0.1000061,0.1000061,0,0,0,1,2,0
265.95,0.00105,0.009765625,-0.03710938,-0.0078125,-1.46875,-5.351562,9.820312,0.02539062,-0.01757812,-0.001953125,0.578125,-0.109375,0,-0.09606934,0.01342773,0.04833984,0,0,0.09448242,0,4.077,0,0,0,0,nan,2,0.019,1,128,0.1000061,0.1000061,0.1000061,0.1000061,0,0,0,1,2,0
265.96,0.000917,0.03320312,-0.01953125,-0.04101562,-0.9921875,-2.226562,15.65625,0.00390625,-0.02929688,-0.02148438,0.578125,-0.109375,0,-0.09594727,0.01318359,0.04821777,0,0,0.09448242,0,4.077,0,0,0,0,nan,2,0.028,1,128,0.1000061,0.1000061,0.1000061,0.1000061,0,0,0,1,2,0
265.97,0.001012,-0.05078125,-0.06640625,-0.04296875,2.796875,-1.453125,10.67969,-0.01757812,-0.03320312,-0.03320312,0.578125,-0.109375,0,-0.09570312,0.01281738,0.04797363,0,0,0.09448242,0,4.077,0,0,0,0,nan,2,0.038,1,128,0.1000061,0.1000061,0.1000061,0.1000061,0,0,0,1,2,0
265.98,0.001018,-0.015625,-0.0390625,-0.015625,-0.265625,-2.71875,1.765625,0.01953125,-0.0234375,-0.03125,0.578125,-0.109375,0,-0.09558105,0.01257324,0.04760742,0,0,0.09448242,0,4.077,0,0,0,0,nan,2,0.048,1,128,0.1000061,0.1000061,0.1000061,0.1000061,0,0,0,1,2,0
265.99,0.001008,-0.06640625,-0.01757812,0.005859375,-1.257812,-1.226562,3.0625,-0.02539062,-0.02734375,-0.00390625,0.578125,-0.109375,0,-0.09558105,0.01220703,0.04748535,0,0,0.09448242,0,4.077,0,0,0,0,nan,2,0.058,1,128,0.1000061,0.1000061,0.1000061,0.1000061,0,0,0,1,2,0
266,0.001009,-0.06835938,0.02539062,0.03710938,-2.476562,-0.28125,8.640625,-0.02148438,0.001953125,0.02929688,0.578125,-0.109375,0,-0.09570312,0.01220703,0.04760742,0,0,0.09448242,0,4.077,0,0,0,0,nan,2,0.069,1,128,0.1000061,0.1000061,0.1000061,0.1000061,0,0,0,1,2,0
266.01,0.00101,-0.03710938,0.01367188,0.01953125,2.648438,-1.53125,10.39844,-0.01757812,0.02539062,0.03320312,0.578125,-0.109375,0,-0.0958252,0.01245117,0.04797363,0,0,0.09448242,0,4.077,0,0,0,0,nan,2,0.079,1,128,0.1000061,0.1000061,0.1000061,0.1000061,0,0,0,1,2,0
266.021,0.001012,0.03125,0.0078125,0.02929688,0.9140625,-0.21875,3.507812,0.005859375,0.01953125,0.02539062,0.578125,-0.109375,0,-0.09594727,0.01269531,0.04821777,0,0,0.09448242,0,4.077,0,0,0,0,nan,2,0.089,1,128,0.1000061,0.1000061,0.1000061,0.1000061,0,0,0,1,2,0
266.031,0.000921,-0.01171875,-0.01171875,0.01367188,-1.070312,-2.84375,7.84375,0.005859375,-0.0234375,0.009765625,0.578125,-0.109375,0,-0.0958252,0.01257324,0.04833984,0,0,0.09448242,0,4.077,0,0,0,0,nan,2,0.099,1,128,0.1000061,0.1000061,0.1000061,0.1000061,0,0,0,1,2,0
266.041,0.001006,-0.00390625,-0.009765625,0.01757812,1.695312,4.984375,19.39062,0.001953125,-0.03320312,0.015625,0.578125,-0.109375,0,-0.09570312,0.0123291,0.04846191,0,0,0.09448242,0,4.077,0,0,0,0,nan,2,0.109,1,128,0.1000061,0.1000061,0.1000061,0.1000061,0,0,0,1,2,0
266.05,0.001014,0.005859375,-0.04101562,0.01757812,-0.2578125,0.796875,13.22656,0.00390625,-0.0390625,0.0234375,0.578125,-0.109375,0,-0.09570312,0.01208496,0.04870605,0,0,0.09448242,0,4.077,0,0,0,0,nan,2,0.118,1,128,0.1000061,0.1000061,0.1000061,0.1000061,0,0,0,1,2,0
266.06,0.001012,-0.02148438,-0.0859375,0.03125,0.609375,0.4375,19.20312,0.0078125,-0.03710938,0.02929688,0.578125,-0.109375,0,-0.09545898,0.01184082,0.0489502,0,0,0.09448242,0,4.077,0,0,0,0,nan,2,0.128,1,128,0.1000061,0.1000061,0.1000061,0.1000061,0,0,0,1,2,0
266.07,0.001012,0.01367188,0.01757812,0.01757812,4.007812,-1.164062,15.94531,0.02148438,-0.00390625,0.01953125,0.578125,-0.109375,0,-0.09533691,0.01171875,0.04919434,0,0,0.09448242,0,4.077,0,0,0,0,nan,2,0.138,1,128,0.1000061,0.1000061,0.1000061,0.1000061,0,0,0,1,2,0
266.08,0.001009,0.046875,0.01757812,0.015625,1.53125,-1.804688,1.226562,0.02929688,-0.005859375,0.01367188,0.578125,-0.109375,0,-0.09509277,0.01147461,0.04943848,0,0,0.09448242,0,4.077,0,0,0,0,nan,2,0.148,1,128,0.1000061,0.1000061,0.1000061,0.1000061,0,0,0,1,2,0
266.09,0.001002,0.009765625,0.02734375,0.01953125,0.9765625,0.7265625,5.890625,0.00390625,0.015625,0.00390625,0.578125,-0.109375,0,-0.0949707,0.01159668,0.04943848,0,0,0.09448242,0,4.077,0,0,0,0,nan,2,0.158,1,128,0.1000061,0.1000061,0.1000061,0.1000061,0,0,0,1,2,0
266.1,0.001012,0.015625,0.01367188,0.00390625,-0.3984375,3.8125,12.6875,-0.001953125,0.01953125,0.0078125,0.578125,-0.109375,0,-0.0949707,0.01171875,0.04956055,0,0,0.09448242,0,4.077,0,0,0,0,nan,2,0.169,1,128,0.1000061,0.1000061,0.1000061,0.1000061,0,0,0,1,2,0
266.11,0.001007,0.015625,-0.01953125,-0.009765625,0.9140625,-1.5625,8.8125,-0.001953125,-0.009765625,0.005859375,0.578125,-0.109375,0,-0.09521484,0.01171875,0.04968262,0,0,0.09448242,0,4.077,0,0,0,0,nan,2,0.179,1,128,0.1000061,0.1000061,0.1000061,0.1000061,0,0,0,1,2,0
266.12,0.001008,0.02929688,0.01757812,-0.01171875,-1.34375,-0.8671875,0.2890625,0.00390625,-0.001953125,-0.015625,0.578125,-0.109375,0,-0.09521484,0.01171875,0.04956055,0,0,0.09448242,0,4.077,0,0,0,0,nan,2,0.189,1,128,0.1000061,0.1000061,0.1000061,0.1000061,0,0,0,1,2,0
266.131,0.001008,-0.001953125,-0.005859375,-0.02148438,-2.84375,-2.9375,1.21875,-0.01953125,0.00390625,-0.01953125,0.578125,-0.109375,0,-0.09521484,0.01171875,0.04943848,0,0,0.09448242,0,4.077,0,0,0,0,nan,2,0.199,1,128,0.1000061,0.1000061,0.1000061,0.1000061,0,0,0,1,2,0
266.141,0.000985,0.02929688,-0.0078125,-0.005859375,-0.4296875,0.9140625,11.42969,0,-0.02734375,-0.005859375,0.578125,-0.109375,0,-0.09533691,0.01159668,0.04931641,0,0,0.09448242,0,4.077,0,0,0,0,nan,2,0.209,1,128,0.1000061,0.1000061,0.1000061,0.1000061,0,0,0,1,2,0
266.15,0.001006,0.00390625,-0.05273438,0.015625,-3.046875,-0.8828125,2.757812,0.01953125,-0.01171875,0,0.578125,-0.109375,0,-0.09509277,0.01159668,0.04931641,0,0,0.09448242,0,4.077,0,0,0,0,nan,2,0.218,1,128,0.1000061,0.1000061,0.1000061,0.1000061,0,0,0,1,2,0
266.16,0.000997,-0.02734375,0.05273438,0.03320312,-3.960938,-3.296875,2.835938,-0.00390625,0.03515625,0.0234375,0.578125,-0.109375,0,-0.09509277,0.01171875,0.04943848,0,0,0.09448242,0,4.077,0,0,0,0,nan,2,0.228,1,128,0.1000061,0.1000061,0.1000061,0.1000061,0,0,0,1,2,0
266.17,0.00102,0.03125,0.05859375,0.046875,-0.3828125,1.953125,12.03125,-0.001953125,0.02929688,0.04492188,0.578125,-0.109375,0,-0.09509277,0.01196289,0.04968262,0,0,0.09448242,0,4.077,0,0,0,0,nan,2,0.238,1,128,0.1000061,0.1000061,0.1000061,0.1000061,0,0,0,1,2,0
266.18,0.001032,-0.03125,-0.00390625,0.05078125,-1.078125,1.773438,14.75,-0.01953125,-0.00390625,0.05078125,0.578125,-0.109375,0,-0.09521484,0.01220703,0.0501709,0,0,0.09448242,0,4.077,0,0,0,0,nan,2,0.248,1,128,0.1000061,0.1000061,0.1000061,0.1000061,0,0,0,1,2,0
266.19,0.001014,0.015625,-0.04492188,0.03515625,2.828125,3.25,18.04688,0.00390625,-0.01953125,0.046875,0.578125,-0.109375,0,-0.09545898,0.01220703,0.05078125,0,0,0.09448242,0,4.077,0,0,0,0,nan,2,0.002,1,128,0.1000061,0.1000061,0.1000061,0.1000061,0,0,0,1,2,0
266.2,0.00098,0.00390625,-0.06054688,0.03515625,0.7421875,0.5390625,7.734375,0.01171875,-0.02734375,0.0390625,0.578125,-0.109375,0,-0.09533691,0.01208496,0.05114746,0,0,0.09448242,0,4.077,0,0,0,0,nan,2,0.012,1,128,0.1000061,0.1000061,0.1000061,0.1000061,0,0,0,1,2,0
266.211,0.001045,-0.01171875,-0.06835938,0.04296875,1.640625,1.367188,9.085938,0.001953125,-0.04101562,0.04101562,0.578125,-0.109375,0,-0.09521484,0.01184082,0.05151367,0,0,0.09448242,0,4.077,0,0,0,0,nan,2,0.022,1,128,0.1000061,0.1000061,0.1000061,0.1000061,0,0,0,1,2,0.01587302
266.22,0.000961,-0.04492188,-0.0390625,0.046875,0.1015625,1.789062,12.30469,0,-0.01953125,0.04101562,0.578125,-0.109375,0,-0.0949707,0.01171875,0.05187988,0,0,0.09448242,0,4.077,0,0,0,0,nan,2,0.032,1,128,0.1000061,0.1000061,0.1000061,0.1000061,0,0,0,1,2,0
266.23,0.001008,-0.06054688,0.01171875,0.02539062,0.7578125,-0.1875,11.82031,-0.009765625,-0.009765625,0.02734375,0.578125,-0.109375,0,-0.09484863,0.01159668,0.05224609,0,0,0.09448242,0,4.077,0,0,0,0,nan,2,0.042,1,128,0.1000061,0.1000061,0.1000061,0.1000061,0,0,0,1,2,0
266.241,0.001085,0.0078125,-0.00390625,0.0234375,-1.554688,0.171875,3,0.001953125,0.02539062,0.0234375,0.578125,-0.109375,0,-0.0949707,0.01184082,0.05249023,0,0,0.09448242,0,4.077,0,0,0,0,nan,2,0.053,1,128,0.1000061,0.1000061,0.1000061,0.1000061,0,0,0,1,2,0
266.251,0.001008,-0.02734375,0.0078125,0.05078125,-4.546875,-4.523438,-0.8046875,-0.01367188,0.02734375,0.03515625,0.578125,-0.109375,0,-0.09509277,0.01208496,0.05273438,0,0,0.09448242,0,4.077,0,0,0,0,nan,2,0.063,1,128,0.1000061,0.1000061,0.1000061,0.1000061,0,0,0,1,2,0
266.26,0.001,0.00390625,0.03125,0.05273438,-1.9375,-1.28125,5.554688,-0.01367188,-0.001953125,0.05078125,0.578125,-0.109375,0,-0.09521484,0.01208496,0.05310059,0,0,0.09448242,0,4.077,0,0,0,0,nan,2,0.072,1,128,0.1000061,0.1000061,0.1000061,0.1000061,0,0,0,1,2,0
266.27,0.001,0.009765625,-0.06640625,0.03320312,-0.3828125,-0.0234375,12.66406,0.009765625,-0.04101562,0.04101562,0.578125,-0.109375,0,-0.09521484,0.01208496,0.05358887,0,0,0.09448242,0,4.077,0,0,0,0,nan,2,0.082,1,128,0.1000061,0.1000061,0.1000061,0.1000061,0,0,0,1,2,0
266.28,0.001004,-0.01367188,-0.03125,0.00390625,-1.46875,0.671875,11.59375,0.001953125,-0.015625,0.02539062,0.578125,-0.109375,0,-0.09521484,0.01184082,0.05395508,0,0,0.09448242,0,4.077,0,0,0,0,nan,2,0.092,1,128,0.1000061,0.1000061,0.1000061,0.1000061,0,0,0,1,2,0
266.29,0.000998,-0.0234375,0.01757812,0.04101562,2.039062,3.132812,10.35156,-0.00390625,0.0078125,0.03710938,0.578125,-0.109375,0,-0.09509277,0.01184082,0.05419922,0,0,0.09448242,0,4.077,0,0,0,0,nan,2,0.102,1,128,0.1000061,0.1000061,0.1000061,0.1000061,0,0,0,1,2,0
266.3,0.000999,-0.02734375,0.05859375,0.046875,-1.546875,-0.75,4.445312,-0.015625,0.0234375,0.04296875,0.578125,-0.109375,0,-0.09521484,0.01196289,0.0546875,0,0,0.09448242,0,4.077,0,0,0,0,nan,2,0.112,1,128,0.1000061,0.1000061,0.1000061,0.1000061,0,0,0,1,2,0
266.31,0.001002,-0.01367188,-0.01171875,0.009765625,1.289062,0.046875,16.10156,-0.001953125,-0.0078125,0.01757812,0.578125,-0.109375,0,-0.09533691,0.01208496,0.05493164,0,0,0.09448242,0,4.077,0,0,0,0,nan,2,0.122,1,128,0.1000061,0.1000061,0.1000061,0.1000061,0,0,0,1,2,0
266.32,0.001005,-0.03125,-0.0234375,-0.0234375,1.578125,1.703125,16.25,-0.005859375,-0.01757812,-0.009765625,0.578125,-0.109375,0,-0.09533691,0.01196289,0.05505371,0,0,0.09448242,0,4.077,0,0,0,0,nan,2,0.132,1,128,0.1000061,0.1000061,0.1000061,0.1000061,0,0,0,1,2,0
266.33,0.001004,-0.04101562,-0.046875,-0.02929688,3.34375,3.648438,15.64844,0,-0.01367188,-0.02539062,0.578125,-0.109375,0,-0.09533691,0.01184082,0.05480957,0,0,0.09448242,0,4.077,0,0,0,0,nan,2,0.142,1,128,0.1000061,0.1000061,0.1000061,0.1000061,0,0,0,1,2,0
266.34,0.001004,0.01757812,0.01757812,-0.01367188,1.710938,3.671875,10.63281,0.00390625,0.001953125,-0.01953125,0.578125,-0.109375,0,-0.09533691,0.01171875,0.05456543,0,0,0.09448242,0,4.077,0,0,0,0,nan,2,0.152,1,128,0.1000061,0.1000061,0.1000061,0.1000061,0,0,0,1,2,0
266.351,0.00102,0.0390625,0.02539062,0.01757812,-2.164062,-1.804688,8.984375,-0.00390625,-0.0078125,0.00390625,0.578125,-0.109375,0,-0.09533691,0.01159668,0.05456543,0,0,0.09448242,0,4.077,0,0,0,0,nan,2,0.163,1,128,0.1000061,0.1000061,0.1000061,0.1000061,0,0,0,1,2,0.1746032
266.36,0.001008,-0.046875,-0.0234375,0.00390625,0.828125,2.1875,14.85156,-0.02929688,-0.009765625,0.01171875,0.578125,-0.109375,0,-0.09545898,0.01159668,0.05456543,0,0,0.09448242,0,4.077,0,0,0,0,nan,2,0.172,1,128,0.1000061,0.1000061,0.1000061,0.1000061,0,0,0,1,2,0
266.37,0.001008,-0.03125,0.005859375,0.0234375,0.921875,0.84375,15.99219,-0.00390625,0.02734375,0.015625,0.578125,-0.109375,0,-0.09558105,0.01171875,0.05480957,0,0,0.09448242,0,4.077,0,0,0,0,nan,2,0.182,1,128,0.1000061,0.1000061,0.1000061,0.1000061,0,0,0,1,2,0
266.38,0.001008,0.04296875,0.02148438,0.01171875,-0.1015625,-5.195312,12.45312,0.01757812,-0.005859375,0.01171875,0.578125,-0.109375,0,-0.09558105,0.01184082,0.05493164,0,0,0.09448242,0,4.077,0,0,0,0,nan,2,0.192,1,128,0.1000061,0.1000061,0.1000061,0.1000061,0,0,0,1,2,0
266.39,0.001013,-0.02734375,0.01953125,0.04101562,3,-2.835938,6.039062,-0.009765625,0.009765625,0.03515625,0.578125,-0.109375,0,-0.09558105,0.01184082,0.05517578,0,0,0.09448242,0,4.077,0,0,0,0,nan,2,0.202,1,128,0.1000061,0.1000061,0.1000061,0.1000061,0,0,0,1,2,0
266.4,0.000933,0.001953125,0.01171875,0.04101562,-4.234375,2.601562,9.351562,-0.005859375,0.01367188,0.04101562,0.578125,-0.109375,0,-0.09558105,0.01196289,0.05554199,0,0,0.09448242,0,4.077,0,0,0,0,nan,2,0.212,1,128,0.1000061,0.1000061,0.1000061,0.1000061,0,0,0,1,2,0
266.41,0.001013,0.005859375,-0.009765625,0.0234375,0.09375,2.5625,17.11719,0.005859375,-0.0078125,0.02929688,0.578125,-0.109375,0,-0.09558105,0.01196289,0.05578613,0,0,0.09448242,0,4.077,0,0,0,0,nan,2,0.222,1,128,0.1000061,0.1000061,0.1000061,0.1000061,0,0,0,1,2,0
266.42,0.001012,0.009765625,-0.06640625,-0.015625,-0.171875,0.1796875,16.33594,0.01367188,-0.04296875,0,0.578125,-0.109375,0,-0.09533691,0.01171875,0.05603027,0,0,0.09448242,0,4.077,0,0,0,0,nan,2,0.232,1,128,0.1000061,0.1000061,0.1000061,0.1000061,0,0,0,1,2,0
266.431,0.001037,0.03125,-0.01953125,-0.04101562,2.835938,-0.3203125,14.19531,0.0234375,-0.02148438,-0.0234375,0.578125,-0.109375,0,-0.09509277,0.01159668,0.0559082,0,0,0.09448242,0,4.077,0,0,0,0,nan,2,0.242,1,128,0.1000061,0.1000061,0.1000061,0.1000061,0,0,0,1,2,0
266.441,0.000998,0.06445312,-0.01367188,-0.03515625,1.242188,0.2890625,8.101562,0.03320312,-0.01953125,-0.03320312,0.578125,-0.109375,0,-0.09484863,0.01123047,0.05566406,0,0,0.09448242,0,4.077,0,0,0,0,nan,2,0.253,1,128,0.1000061,0.1000061,0.1000061,0.1000061,0,0,0,1,2,0
266.45,0.000925,0.0078125,-0.00390625,-0.02734375,-0.921875,2.46875,10.10156,0.009765625,-0.02539062,-0.03710938,0.578125,-0.109375,0,-0.09472656,0.0111084,0.05529785,0,0,0.09448242,0,4.077,0,0,0,0,nan,2,0.008,1,128,0.1000061,0.1000061,0.1000061,0.1000061,0,0,0,1,2,0
266.461,0.001521,-0.0078125,-0.01953125,0.04296875,1.554688,-3.15625,11.02344,0.015625,-0.01367188,0.009765625,0.578125,-0.109375,0,-0.09460449,0.01086426,0.05517578,0,0,0.09448242,0,4.077,0,0,0,0,nan,2,0.019,1,128,0.1000061,0.1000061,0.1000061,0.1000061,0,0,0,1,2,0
266.47,0.000877,-0.04296875,0.03125,0.05273438,0.6875,-5.25,8.539062,0.005859375,0,0.04882812,0.578125,-0.109375,0,-0.09460449,0.01074219,0.05541992,0,0,0.09448242,0,4.077,0,0,0,0,nan,2,0.029,1,128,0.1000061,0.1000061,0.1000061,0.1000061,0,0,0,1,2,0.4920635
266.48,0.001012,0.0390625,-0.03320312,0.0625,-0.84375,-6.265625,8.882812,0.01757812,0,0.06640625,0.578125,-0.109375,0,-0.09448242,0.01074219,0.05603027,0,0,0.09448242,0,4.077,0,0,0,0,nan,2,0.038,1,128,0.1000061,0.1000061,0.1000061,0.1000061,0,0,0,1,2,0
266.49,0.001013,-0.0234375,0.015625,0.02539062,2.234375,-4.234375,8.023438,-0.00390625,0.01757812,0.04492188,0.578125,-0.109375,0,-0.09448242,0.01098633,0.05664062,0,0,0.09448242,0,4.077,0,0,0,0,nan,2,0.048,1,128,0.1000061,0.1000061,0.1000061,0.1000061,0,0,0,1,2,0.04761905
266.5,0.00101,-0.005859375,-0.005859375,-0.01757812,-1.867188,4.9375,8.5,0.00390625,0.005859375,0,0.578125,-0.109375,0,-0.09436035,0.0111084,0.0567627,0,0,0.09448242,0,4.077,0,0,0,0,nan,2,0.059,1,128,0.1000061,0.1000061,0.1000061,0.1000061,0,0,0,1,2,0.1746032
266.51,0.001011,0.005859375,-0.00390625,-0.0546875,-1.398438,5.023438,16.23438,0.00390625,-0.0078125,-0.05078125,0.578125,-0.109375,0,-0.09423828,0.01086426,0.05651855,0,0,0.09448242,0,4.077,0,0,0,0,nan,2,0.069,1,128,0.1000061,0.1000061,0.1000061,0.1000061,0,0,0,1,2,0
266.52,0.001012,0.01953125,0.00390625,-0.078125,-2.28125,0.3984375,15.38281,-0.01171875,0.009765625,-0.07421875,0.578125,-0.109375,0,-0.09436035,0.01086426,0.0559082,0,0,0.09448242,0,4.077,0,0,0,0,nan,2,0.079,1,128,0.1000061,0.1000061,0.1000061,0.1000061,0,0,0,1,2,0
266.53,0.001012,0.02148438,-0.06835938,-0.08007812,0.25,-2.046875,13.6875,0.0078125,-0.015625,-0.08203125,0.578125,-0.109375,0,-0.09436035,0.01086426,0.05505371,0,0,0.09448242,0,4.077,0,0,0,0,nan,2,0.089,1,128,0.1000061,0.1000061,0.1000061,0.1000061,0,0,0,1,2,0
266.54,0.001012,-0.0390625,0.03710938,-0.06835938,0.7734375,-0.6953125,7.210938,-0.01367188,0.015625,-0.0703125,0.578125,-0.109375,0,-0.09436035,0.01074219,0.05432129,0,0,0.09448242,0,4.077,0,0,0,0,nan,2,0.099,1,128,0.1000061,0.1000061,0.1000061,0.1000061,0,0,0,1,2,0
266.551,0.000972,0.0390625,0.015625,-0.0390625,-1.265625,-3.820312,2.921875,0.0078125,0.01171875,-0.05664062,0.578125,-0.109375,0,-0.09436035,0.01074219,0.05358887,0,0,0.09448242,0,4.077,0,0,0,0,nan,2,0.109,1,128,0.1000061,0.1000061,0.1000061,0.1000061,0,0,0,1,2,0
266.56,0.001008,0.02148438,-0.05859375,-0.01757812,0.0078125,-0.578125,11.19531,0.001953125,-0.0234375,-0.03125,0.578125,-0.109375,0,-0.09436035,0.01062012,0.05322266,0,0,0.09448242,0,4.077,0,0,0,0,nan,2,0.118,1,128,0.1000061,0.1000061,0.1000061,0.1000061,0,0,0,1,2,0
266.57,0.001008,-0.0234375,-0.01171875,0.01757812,-0.171875,2.320312,8.546875,-0.001953125,0.01367188,0.009765625,0.578125,-0.109375,0,-0.09436035,0.01074219,0.05322266,0,0,0.09448242,0,4.077,0,0,0,0,nan,2,0.128,1,128,0.1000061,0.1000061,0.1000061,0.1000061,0,0,0,1,2,0
266.58,0.001008,0.03125,0.03125,0.04296875,-3.820312,-4.335938,5.578125,0.009765625,0,0.02929688,0.578125,-0.109375,0,-0.09436035,0.01074219,0.05334473,0,0,0.09448242,0,4.077,0,0,0,0,nan,2,0.138,1,128,0.1000061,0.1000061,0.1000061,0.1000061,0,0,0,1,2,0
266.59,0.001003,-0.03710938,0.015625,0.0078125,-0.234375,-3.335938,7.070312,-0.02734375,0.015625,0.01953125,0.578125,-0.109375,0,-0.09436035,0.01086426,0.05371094,0,0,0.09448242,0,4.077,0,0,0,0,nan,2,0.148,1,128,0.1000061,0.1000061,0.1000061,0.1000061,0,0,0,1,2,0
266.6,0.001008,-0.0234375,0.0078125,-0.009765625,0.9296875,1.210938,7.664062,-0.009765625,0.001953125,-0.001953125,0.578125,-0.109375,0,-0.09448242,0.01086426,0.05371094,0,0,0.09448242,0,4.077,0,0,0,0,nan,2,0.158,1,128,0.1000061,0.1000061,0.1000061,0.1000061,0,0,0,1,2,0
266.61,0.001008,0.005859375,0.001953125,-0.03125,0.8203125,7.007812,12.57031,0.009765625,-0.00390625,-0.02539062,0.578125,-0.109375,0,-0.09436035,0.01086426,0.05358887,0,0,0.09448242,0,4.077,0,0,0,0,nan,2,0.169,1,128,0.1000061,0.1000061,0.1000061,0.1000061,0,0,0,1,2,0
266.62,0.001008,0.0078125,0.001953125,-0.05273438,-2.492188,5.257812,13.20312,0.0234375,-0.005859375,-0.04492188,0.578125,-0.109375,0,-0.09411621,0.01074219,0.05322266,0,0,0.09448242,0,4.077,0,0,0,0,nan,2,0.179,1,128,0.1000061,0.1000061,0.1000061,0.1000061,0,0,0,1,2,0
266.63,0.001008,0.005859375,0.0078125,-0.04296875,-2.59375,1.96875,13.50781,0.02148438,-0.0078125,-0.04492188,0.578125,-0.109375,0,-0.09387207,0.01062012,0.05273438,0,0,0.09448242,0,4.077,0,0,0,0,nan,2,0.189,1,128,0.1000061,0.1000061,0.1000061,0.1000061,0,0,0,1,2,0
266.64,0.00101,0.0078125,-0.03320312,-0.0390625,0.4140625,2.375,16.52344,0.01171875,-0.02148438,-0.046875,0.578125,-0.109375,0,-0.09375,0.01049805,0.05224609,0,0,0.09448242,0,4.077,0,0,0,0,nan,2,0.199,1,128,0.1000061,0.1000061,0.1000061,0.1000061,0,0,0,1,2,0
266.651,0.001087,0,-0.04492188,-0.0390625,-0.96875,-3.335938,12.58594,0.01757812,-0.015625,-0.0390625,0.578125,-0.109375,0,-0.09362793,0.01037598,0.05187988,0,0,0.09448242,0,4.077,0,0,0,0,nan,2,0.209,1,128,0.1000061,0.1000061,0.1000061,0.1000061,0,0,0,1,2,0
266.66,0.001004,0.005859375,0.01171875,-0.0234375,-1.578125,1,15.75,-0.009765625,0.01171875,-0.02539062,0.578125,-0.109375,0,-0.09362793,0.01037598,0.05151367,0,0,0.09448242,0,4.077,0,0,0,0,nan,2,0.218,1,128,0.1000061,0.1000061,0.1000061,0.1000061,0,0,0,1,2,0
266.67,0.001016,-0.005859375,0.02734375,-0.005859375,0.8359375,0.4296875,12.78125,-0.0078125,0.001953125,-0.01367188,0.578125,-0.109375,0,-0.09375,0.01037598,0.0513916,0,0,0.09448242,0,4.077,0,0,0,0,nan,2,0.228,1,128,0.1000061,0.1000061,0.1000061,0.1000061,0,0,0,1,2,0
266.68,0.001013,0.00390625,-0.02929688,-0.0234375,-0.84375,-5.546875,1.804688,-0.00390625,-0.00390625,-0.0234375,0.578125,-0.109375,0,-0.09375,0.01037598,0.05114746,0,0,0.09448242,0,4.077,0,0,0,0,nan,2,0.238,1,128,0.1000061,0.1000061,0.1000061,0.1000061,0,0,0,1,2,0
266.69,0.001051,0.001953125,0.005859375,-0.04296875,0.9921875,5.21875,17.84375,-0.005859375,-0.01171875,-0.03320312,0.578125,-0.109375,0,-0.09375,0.01025391,0.05090332,0,0,0.09448242,0,4.077,0,0,0,0,nan,2,0.003,1,128,0.1000061,0.1000061,0.1000061,0.1000061,0,0,0,1,2,0
266.7,0.000798,0.01757812,-0.046875,-0.03125,-1.492188,5.320312,13.91406,0.005859375,-0.01171875,-0.03710938,0.578125,-0.109375,0,-0.09387207,0.01025391,0.05053711,0,0,0.09448242,0,4.077,0,0,0,0,nan,2,0.013,1,128,0.1000061,0.1000061,0.1000061,0.1000061,0,0,0,1,2,0
266.71,0.000997,-0.005859375,-0.04296875,-0.00390625,3.242188,-4.320312,8.84375,-0.00390625,-0.02148438,-0.015625,0.578125,-0.109375,0,-0.09375,0.01025391,0.05029297,0,0,0.09448242,0,4.077,0,0,0,0,nan,2,0.023,1,128,0.1000061,0.1000061,0.1000061,0.1000061,0,0,0,1,2,0
266.72,0.001008,-0.015625,0.046875,0.03125,2.320312,-1.226562,3.203125,-0.015625,0,0.01757812,0.578125,-0.109375,0,-0.09375,0.01000977,0.05029297,0,0,0.09448242,0,4.077,0,0,0,0,nan,2,0.033,1,128,0.1000061,0.1000061,0.1000061,0.1000061,0,0,0,1,2,0
266.73,0.001008,-0.005859375,0.04492188,0.04296875,0.125,4.375,10.17188,-0.00390625,0.01953125,0.0390625,0.578125,-0.109375,0,-0.09375,0.01013184,0.05053711,0,0,0.09448242,0,4.077,0,0,0,0,nan,2,0.043,1,128,0.1000061,0.1000061,0.1000061,0.1000061,0,0,0,1,2,0
266.74,0.001008,0,-0.02539062,0.01757812,0.25,3.75,13.78906,0.001953125,0.00390625,0.02539062,0.578125,-0.109375,0,-0.09387207,0.01037598,0.05090332,0,0,0.09448242,0,4.077,0,0,0,0,nan,2,0.053,1,128,0.1000061,0.1000061,0.1000061,0.1000061,0,0,0,1,2,0
266.75,0.001002,0.0234375,-0.015625,0.005859375,-3.835938,-3.09375,1.875,0.001953125,-0.001953125,0.015625,0.578125,-0.109375,0,-0.09387207,0.01037598,0.05114746,0,0,0.09448242,0,4.077,0,0,0,0,nan,2,0.063,1,128,0.1000061,0.1000061,0.1000061,0.1000061,0,0,0,1,2,0
266.76,0.001006,0.005859375,0,0,-0.6484375,-0.4453125,1.632812,0.001953125,-0.02929688,0.001953125,0.578125,-0.109375,0,-0.09399414,0.01013184,0.05114746,0,0,0.09448242,0,4.077,0,0,0,0,nan,2,0.073,1,128,0.1000061,0.1000061,0.1000061,0.1000061,0,0,0,1,2,0
266.77,0.001008,-0.05078125,-0.03125,-0.0078125,-0.5859375,0.1953125,6.578125,0.001953125,-0.02539062,-0.01171875,0.578125,-0.109375,0,-0.09387207,0.009887695,0.05114746,0,0,0.09448242,0,4.077,0,0,0,0,nan,2,0.083,1,128,0.1000061,0.1000061,0.1000061,0.1000061,0,0,0,1,2,0
266.78,0.001008,0.00390625,-0.00390625,-0.02734375,-2.65625,2.148438,13.90625,0.00390625,0.00390625,-0.02148438,0.578125,-0.109375,0,-0.09375,0.009765625,0.05102539,0,0,0.09448242,0,4.077,0,0,0,0,nan,2,0.093,1,128,0.1000061,0.1000061,0.1000061,0.1000061,0,0,0,1,2,0
266.79,0.001008,-0.04101562,0.02734375,-0.02148438,-1.140625,0.1875,15.53906,-0.005859375,0.01953125,-0.01953125,0.578125,-0.109375,0,-0.09375,0.009887695,0.05078125,0,0,0.09448242,0,4.077,0,0,0,0,nan,2,0.103,1,128,0.1000061,0.1000061,0.1000061,0.1000061,0,0,0,1,2,0
266.8,0.001,0,0.02148438,-0.015625,0.0625,-1.328125,1.671875,-0.00390625,0.01367188,-0.02148438,0.578125,-0.109375,0,-0.09387207,0.01000977,0.05053711,0,0,0.09448242,0,4.077,0,0,0,0,nan,2,0.113,1,128,0.1000061,0.1000061,0.1000061,0.1000061,0,0,0,1,2,0
266.81,0.001005,-0.009765625,-0.005859375,0.01367188,-0.0625,5.101562,12.28125,0,-0.0078125,-0.00390625,0.578125,-0.109375,0,-0.09387207,0.009887695,0.05041504,0,0,0.09448242,0,4.077,0,0,0,0,nan,2,0.123,1,128,0.1000061,0.1000061,0.1000061,0.1000061,0,0,0,1,2,0
266.82,0.001016,0.00390625,-0.01367188,0.05859375,0.09375,0.0625,14.96094,0.0078125,-0.0234375,0.046875,0.578125,-0.109375,0,-0.09375,0.009765625,0.05065918,0,0,0.09448242,0,4.077,0,0,0,0,nan,2,0.133,1,128,0.1000061,0.1000061,0.1000061,0.1000061,0,0,0,1,2,0
266.83,0.001012,-0.02734375,0.015625,0.08789062,-0.6484375,-4.4375,6.945312,-0.01757812,0.001953125,0.08007812,0.578125,-0.109375,0,-0.09387207,0.009643555,0.0513916,0,0,0.09448242,0,4.077,0,0,0,0,nan,2,0.143,1,128,0.1000061,0.1000061,0.1000061,0.1000061,0,0,0,1,2,0
266.84,0.001012,-0.03125,-0.015625,0.06445312,1.351562,1.9375,11.60156,-0.02148438,0,0.07617188,0.578125,-0.109375,0,-0.09399414,0.009765625,0.05212402,0,0,0.09448242,0,4.077,0,0,0,0,nan,2,0.153,1,128,0.1000061,0.1000061,0.1000061,0.1000061,0,0,0,1,2,0
266.85,0.001012,-0.0546875,0.05078125,0.01367188,0.25,1.21875,16.4375,-0.02539062,0.01757812,0.03710938,0.578125,-0.109375,0,-0.09399414,0.009765625,0.05273438,0,0,0.09448242,0,4.077,0,0,0,0,nan,2,0.163,1,128,0.1000061,0.1000061,0.1000061,0.1000061,0,0,0,1,2,0
266.86,0.001006,-0.01757812,-0.0625,-0.01367188,-1.101562,1.054688,20.07031,0.015625,-0.02539062,-0.0078125,0.578125,-0.109375,0,-0.09399414,0.009887695,0.05285645,0,0,0.09448242,0,4.077,0,0,0,0,nan,2,0.173,1,128,0.1000061,0.1000061,0.1000061,0.1000061,0,0,0,1,2,0
266.87,0.001008,0.01171875,0.01367188,-0.03515625,3.34375,1.140625,18.75781,-0.0078125,0.01953125,-0.0234375,0.578125,-0.109375,0,-0.09399414,0.009765625,0.0526123,0,0,0.09448242,0,4.077,0,0,0,0,nan,2,0.183,1,128,0.1000061,0.1000061,0.1000061,0.1000061,0,0,0,1,2,0
266.88,0.001008,-0.04101562,0.005859375,-0.00390625,1.625,-3.132812,5.671875,-0.015625,-0.0078125,-0.01171875,0.578125,-0.109375,0,-0.09399414,0.009765625,0.05236816,0,0,0.09448242,0,4.077,0,0,0,0,nan,2,0.193,1,128,0.1000061,0.1000061,0.1000061,0.1000061,0,0,0,1,2,0
266.89,0.00101,-0.0078125,-0.00390625,0.0234375,3.15625,-2.421875,7.273438,-0.00390625,-0.01171875,0.00390625,0.578125,-0.109375,0,-0.09411621,0.009765625,0.05236816,0,0,0.09448242,0,4.077,0,0,0,0,nan,2,0.203,1,128,0.1000061,0.1000061,0.1000061,0.1000061,0,0,0,1,2,0
266.9,0.000821,-0.005859375,0.015625,0.02148438,-3.609375,2.695312,15.4375,0.001953125,0.005859375,0.02148438,0.578125,-0.109375,0,-0.09411621,0.009765625,0.0526123,0,0,0.09448242,0,4.077,0,0,0,0,nan,2,0.213,1,128,0.1000061,0.1000061,0.1000061,0.1000061,0,0,0,1,2,0
266.91,0.001035,0.02929688,-0.015625,0.02148438,-1.992188,-2.851562,11.05469,0.0078125,0,0.03125,0.578125,-0.109375,0,-0.09411621,0.009887695,0.05285645,0,0,0.09448242,0,4.077,0,0,0,0,nan,2,0.223,1,128,0.1000061,0.1000061,0.1000061,0.1000061,0,0,0,1,2,0
266.92,0.00101,-0.01171875,0.03515625,0.02734375,-0.1796875,-2.78125,7.507812,-0.005859375,0.01953125,0.02148438,0.578125,-0.109375,0,-0.09411621,0.009887695,0.05310059,0,0,0.09448242,0,4.077,0,0,0,0,nan,2,0.233,1,128,0.1000061,0.1000061,0.1000061,0.1000061,0,0,0,1,2,0
266.93,0.001077,0.0390625,-0.005859375,-0.015625,-3.507812,-2.421875,11.03125,0.01367188,0,-0.005859375,0.578125,-0.109375,0,-0.09411621,0.01000977,0.05310059,0,0,0.09448242,0,4.077,0,0,0,0,nan,2,0.242,1,128,0.1000061,0.1000061,0.1000061,0.1000061,0,0,0,1,2,0
266.94,0.001004,-0.01953125,0,-0.04882812,-1.273438,-5.367188,9.882812,-0.01171875,0.00390625,-0.03320312,0.578125,-0.109375,0,-0.09423828,0.009887695,0.05297852,0,0,0.09448242,0,4.077,0,0,0,0,nan,2,0,1,128,0.1000061,0.1000061,0.1000061,0.1000061,0,0,0,1,2,0
266.95,0.001033,0.009765625,0.0078125,-0.05078125,0.9453125,-1.367188,3.671875,0.00390625,0,-0.04492188,0.578125,-0.109375,0,-0.09423828,0.009887695,0.05249023,0,0,0.09448242,0,4.077,0,0,0,0,nan,2,0.01,1,128,0.1000061,0.1000061,0.1000061,0.1000061,0,0,0,1,2,0
266.96,0.000974,0.00390625,0.02539062,-0.04492188,0.2578125,-1.195312,4.96875,0,-0.001953125,-0.04882812,0.578125,-0.109375,0,-0.09423828,0.009887695,0.05200195,0,0,0.09448242,0,4.077,0,0,0,0,nan,2,0.02,1,128,0.1000061,0.1000061,0.1000061,0.1000061,0,0,0,1,2,0
266.97,0.000998,0.009765625,0.015625,-0.05078125,1.539062,6.6875,15.61719,0.009765625,-0.001953125,-0.05078125,0.578125,-0.109375,0,-0.09423828,0.009887695,0.05151367,0,0,0.09448242,0,4.077,0,0,0,0,nan,2,0.03,1,128,0.1000061,0.1000061,0.1000061,0.1000061,0,0,0,1,2,0
266.98,0.001,0.0078125,0.001953125,-0.04101562,-1.78125,-5.539062,11.03125,-0.00390625,-0.001953125,-0.04101562,0.578125,-0.109375,0,-0.09423828,0.009765625,0.05102539,0,0,0.09448242,0,4.077,0,0,0,0,nan,2,0.041,1,128,0.1000061,0.1000061,0.1000061,0.1000061,0,0,0,1,2,0
266.99,0.000946,0.01171875,-0.02539062,-0.01367188,-1.203125,-0.609375,13.83594,0.001953125,0.001953125,-0.01757812,0.578125,-0.109375,0,-0.09423828,0.009887695,0.05078125,0,0,0.09448242,0,4.077,0,0,0,0,nan,2,0.051,1,128,0.1000061,0.1000061,0.1000061,0.1000061,0,0,0,1,2,0
267,0.001014,-0.04492188,-0.00390625,0,-0.1953125,-3.976562,-0.421875,-0.005859375,0.00390625,-0.0078125,0.578125,-0.109375,0,-0.09423828,0.009887695,0.05065918,0,0,0.09448242,0,4.077,0,0,0,0,nan,2,0.061,1,128,0.1000061,0.1000061,0.1000061,0.1000061,0,0,0,1,2,0
267.01,0.001017,0.0234375,0.04101562,0.015625,-0.7265625,2.085938,7.9375,-0.00390625,0.01953125,0.0078125,0.578125,-0.109375,0,-0.09423828,0.009887695,0.05065918,0,0,0.09448242,0,4.077,0,0,0,0,nan,2,0.071,1,128,0.1000061,0.1000061,0.1000061,0.1000061,0,0,0,1,2,0
267.02,0.001015,0.02734375,0,0.046875,1.460938,5.875,16.66406,0.005859375,-0.001953125,0.02929688,0.578125,-0.109375,0,-0.09423828,0.009887695,0.05078125,0,0,0.09448242,0,4.077,0,0,0,0,nan,2,0.081,1,128,0.1000061,0.1000061,0.1000061,0.1000061,0,0,0,1,2,0
267.03,0.001016,0.01953125,-0.01367188,0.06835938,0.0546875,-0.625,7.789062,0.009765625,-0.009765625,0.05664062,0.578125,-0.109375,0,-0.09423828,0.01000977,0.05126953,0,0,0.09448242,0,4.077,0,0,0,0,nan,2,0.091,1,128,0.1000061,0.1000061,0.1000061,0.1000061,0,0,0,1,2,0
267.04,0.001018,-0.03320312,-0.01953125,0.06835938,0.7890625,-1.429688,4.273438,-0.02929688,0.00390625,0.07617188,0.578125,-0.109375,0,-0.09436035,0.01013184,0.05200195,0,0,0.09448242,0,4.077,0,0,0,0,nan,2,0.101,1,128,0.1000061,0.1000061,0.1000061,0.1000061,0,0,0,1,2,0
267.051,0.001016,-0.0078125,-0.00390625,0.04492188,-0.328125,1.296875,9.289062,-0.009765625,0,0.05664062,0.578125,-0.109375,0,-0.09448242,0.01013184,0.0526123,0,0,0.09448242,0,4.077,0,0,0,0,nan,2,0.111,1,128,0.1000061,0.1000061,0.1000061,0.1000061,0,0,0,1,2,0.06349207
267.06,0.001071,0.005859375,0.009765625,-0.001953125,-1.117188,-2.039062,4.289062,-0.0078125,0.005859375,0.01367188,0.578125,-0.109375,0,-0.09448242,0.01025391,0.05297852,0,0,0.09448242,0,4.077,0,0,0,0,nan,2,0.12,1,128,0.1000061,0.1000061,0.1000061,0.1000061,0,0,0,1,2,0
267.07,0.001012,0.009765625,0.02539062,-0.05078125,-0.3671875,5.101562,10.63281,-0.001953125,0.01757812,-0.02539062,0.578125,-0.109375,0,-0.09460449,0.01025391,0.05285645,0,0,0.09448242,0,4.077,0,0,0,0,nan,2,0.13,1,128,0.1000061,0.1000061,0.1000061,0.1000061,0,0,0,1,2,0
267.08,0.001014,0.02734375,0.04296875,-0.02734375,0.234375,3.90625,15.39844,-0.001953125,0.01367188,-0.03320312,0.578125,-0.109375,0,-0.09460449,0.01025391,0.05249023,0,0,0.09448242,0,4.077,0,0,0,0,nan,2,0.14,1,128,0.1000061,0.1000061,0.1000061,0.1000061,0,0,0,1,2,0
267.09,0.00101,0.009765625,0.005859375,0.009765625,-0.71875,-3.140625,12.13281,-0.009765625,-0.01171875,-0.0078125,0.578125,-0.109375,0,-0.09448242,0.01025391,0.05224609,0,0,0.09448242,0,4.077,0,0,0,0,nan,2,0.15,1,128,0.1000061,0.1000061,0.1000061,0.1000061,0,0,0,1,2,0
267.1,0.001005,0.03320312,-0.02929688,0.06054688,0.296875,3.679688,11.73438,-0.005859375,-0.00390625,0.0390625,0.578125,-0.109375,0,-0.09448242,0.01037598,0.05236816,0,0,0.09448242,0,4.077,0,0,0,0,nan,2,0.161,1,128,0.1000061,0.1000061,0.1000061,0.1000061,0,0,0,1,2,0
267.11,0.001012,0.0234375,-0.01367188,0.0703125,-0.7265625,0.7734375,8.585938,-0.0078125,0.01757812,0.07226562,0.578125,-0.109375,0,-0.09448242,0.01049805,0.05310059,0,0,0.09448242,0,4.077,0,0,0,0,nan,2,0.171,1,128,0.1000061,0.1000061,0.1000061,0.1000061,0,0,0,1,2,0
267.12,0.001013,-0.015625,0.009765625,0.08398438,1.890625,0.7734375,8.320312,0.00390625,0.015625,0.0859375,0.578125,-0.109375,0,-0.09436035,0.01062012,0.05383301,0,0,0.09448242,0,4.077,0,0,0,0,nan,2,0.181,1,128,0.1000061,0.1000061,0.1000061,0.1000061,0,0,0,1,2,0
267.13,0.001012,-0.001953125,0.01953125,0.05273438,-0.7421875,-2.851562,5.789062,0.0078125,0.0078125,0.05859375,0.578125,-0.109375,0,-0.09436035,0.01062012,0.05456543,0,0,0.09448242,0,4.077,0,0,0,0,nan,2,0.191,1,128,0.1000061,0.1000061,0.1000061,0.1000061,0,0,0,1,2,0
267.14,0.001012,-0.015625,-0.01171875,-0.0078125,1.007812,-0.5078125,6.5,-0.009765625,-0.01171875,0.01367188,0.578125,-0.109375,0,-0.09436035,0.01062012,0.05493164,0,0,0.09448242,0,4.077,0,0,0,0,nan,2,0.201,1,128,0.1000061,0.1000061,0.1000061,0.1000061,0,0,0,1,2,0
267.15,0.000965,0.01171875,-0.0390625,-0.005859375,1.6875,-1.0625,1.59375,-0.015625,0.00390625,0.00390625,0.578125,-0.109375,0,-0.09448242,0.01062012,0.05493164,0,0,0.09448242,0,4.077,0,0,0,0,nan,2,0.21,1,128,0.1000061,0.1000061,0.1000061,0.1000061,0,0,0,1,2,0
267.161,0.00101,-0.04492188,-0.005859375,-0.02148438,-1,3.257812,14.60938,-0.02734375,0,-0.0234375,0.578125,-0.109375,0,-0.09448242,0.01049805,0.05480957,0,0,0.09448242,0,4.077,0,0,0,0,nan,2,0.221,1,128,0.1000061,0.1000061,0.1000061,0.1000061,0,0,0,1,2,0
267.17,0.000894,0.02148438,-0.05078125,-0.03710938,0.46875,2.679688,8.96875,0.015625,-0.00390625,-0.03710938,0.578125,-0.109375,0,-0.09448242,0.01062012,0.05444336,0,0,0.09448242,0,4.077,0,0,0,0,nan,2,0.23,1,128,0.1000061,0.1000061,0.1000061,0.1000061,0,0,0,1,2,0.07936508
267.18,0.00098,-0.03515625,0.06445312,-0.01953125,0.8125,7.273438,15.85938,-0.0234375,0.01953125,-0.02734375,0.578125,-0.109375,0,-0.09460449,0.01062012,0.05419922,0,0,0.09448242,0,4.077,0,0,0,0,nan,2,0,1,128,0.1000061,0.1000061,0.1000061,0.1000061,0,0,0,1,2,0
267.19,0.000994,0.04296875,-0.0078125,0,-0.921875,-3.976562,9.273438,0.02539062,-0.01367188,-0.015625,0.578125,-0.109375,0,-0.09460449,0.01062012,0.05395508,0,0,0.09448242,0,4.077,0,0,0,0,nan,2,0.01,1,128,0.1000061,0.1000061,0.1000061,0.1000061,0,0,0,1,2,0.2222222
267.2,0.001038,-0.02929688,0.02929688,0.01171875,0.859375,-2.585938,5.140625,-0.01171875,0.01757812,0.001953125,0.578125,-0.109375,0,-0.09448242,0.01049805,0.05383301,0,0,0.09448242,0,4.077,0,0,0,0,nan,2,0.02,1,128,0.1000061,0.1000061,0.1000061,0.1000061,0,0,0,1,2,0
267.21,0.001015,0.005859375,-0.02148438,0.01953125,-1.148438,-6.640625,1.578125,0.001953125,0.001953125,0.01953125,0.578125,-0.109375,0,-0.09460449,0.01062012,0.05395508,0,0,0.09448242,0,4.077,0,0,0,0,nan,2,0.03,1,128,0.1000061,0.1000061,0.1000061,0.1000061,0,0,0,1,2,0
267.22,0.001007,0.00390625,-0.03125,0.04296875,1.828125,0.8828125,8.585938,-0.01953125,-0.02734375,0.04296875,0.578125,-0.109375,0,-0.09472656,0.01049805,0.05432129,0,0,0.09448242,0,4.077,0,0,0,0,nan,2,0.04,1,128,0.1000061,0.1000061,0.1000061,0.1000061,0,0,0,1,2,0
267.23,0.001001,-0.02929688,-0.001953125,0.04101562,-0.0234375,1.664062,8.070312,-0.02929688,0.015625,0.046875,0.578125,-0.109375,0,-0.09509277,0.01062012,0.05480957,0,0,0.09448242,0,4.077,0,0,0,0,nan,2,0.05,1,128,0.1000061,0.1000061,0.1000061,0.1000061,0,0,0,1,2,0
267.24,0.001004,0.01953125,-0.00390625,0.0625,0.609375,3.507812,9,0.02148438,0.009765625,0.0625,0.578125,-0.109375,0,-0.0949707,0.01086426,0.05529785,0,0,0.09448242,0,4.077,0,0,0,0,nan,2,0.061,1,128,0.1000061,0.1000061,0.1000061,0.1000061,0,0,0,1,2,0.04761905
267.25,0.001002,0.04296875,0.03125,0.08398438,2.023438,5.828125,14.21875,0.02734375,-0.00390625,0.07421875,0.578125,-0.109375,0,-0.09484863,0.01074219,0.05603027,0,0,0.09448242,0,4.077,0,0,0,0,nan,2,0.071,1,128,0.1000061,0.1000061,0.1000061,0.1000061,0,0,0,1,2,0
267.261,0.001002,-0.04882812,0.001953125,0.09570312,0.0703125,2.117188,13.39844,-0.00390625,-0.01367188,0.08007812,0.578125,-0.109375,0,-0.09472656,0.01062012,0.0567627,0,0,0.09448242,0,4.077,0,0,0,0,nan,2,0.081,1,128,0.1000061,0.1000061,0.1000061,0.1000061,0,0,0,1,2,0
267.27,0.001014,0,-0.00390625,0.08398438,-0.8359375,0.6171875,11.75781,-0.00390625,0.001953125,0.0859375,0.578125,-0.109375,0,-0.09472656,0.01062012,0.05761719,0,0,0.09448242,0,4.077,0,0,0,0,nan,2,0.09,1,128,0.1000061,0.1000061,0.1000061,0.1000061,0,0,0,1,2,0
267.28,0.001016,-0.05859375,-0.005859375,0.0859375,2.898438,4.09375,13.89062,-0.01953125,0.01757812,0.09375,0.578125,-0.109375,0,-0.09484863,0.01074219,0.05847168,0,0,0.09448242,0,4.077,0,0,0,0,nan,2,0.1,1,128,0.1000061,0.1000061,0.1000061,0.1000061,0,0,0,1,2,0
267.29,0.001016,-0.05859375,-0.0078125,0.08398438,1.375,0.078125,13.03125,-0.03125,0.02148438,0.08007812,0.578125,-0.109375,0,-0.0949707,0.0111084,0.05932617,0,0,0.09448242,0,4.077,0,0,0,0,nan,2,0.11,1,128,0.1000061,0.1000061,0.1000061,0.1000061,0,0,0,1,2,0
267.3,0.001013,-0.02929688,-0.009765625,0.04882812,0.4375,0.5390625,4.53125,-0.009765625,0.01367188,0.0625,0.578125,-0.109375,0,-0.09509277,0.01135254,0.06005859,0,0,0.09448242,0,4.077,0,0,0,0,nan,2,0.12,1,128,0.1000061,0.1000061,0.1000061,0.1000061,0,0,0,1,2,0
267.31,0.001017,-0.0234375,0.0234375,0.046875,-2.515625,-2.148438,2.914062,-0.01757812,0.03320312,0.046875,0.578125,-0.109375,0,-0.09509277,0.01171875,0.06054688,0,0,0.09448242,0,4.077,0,0,0,0,nan,2,0.13,1,128,0.1000061,0.1000061,0.1000061,0.1000061,0,0,0,1,2,0
267.32,0.001014,0.01367188,0.01367188,0.04296875,-1.648438,0.109375,4.453125,0.02539062,0.005859375,0.03710938,0.578125,-0.109375,0,-0.09509277,0.01184082,0.06091309,0,0,0.09448242,0,4.077,0,0,0,0,nan,2,0.14,1,128,0.1000061,0.1000061,0.1000061,0.1000061,0,0,0,1,2,0
267.33,0.001017,-0.01757812,-0.02929688,0.0234375,-2.898438,2.554688,4.96875,0.00390625,-0.01953125,0.03125,0.578125,-0.109375,0,-0.09484863,0.01184082,0.0612793,0,0,0.09448242,0,4.077,0,0,0,0,nan,2,0.15,1,128,0.1000061,0.1000061,0.1000061,0.1000061,0,0,0,1,2,0
267.34,0.001016,-0.009765625,-0.02734375,0.02929688,-3.617188,2.570312,7.3125,0.009765625,-0.01953125,0.03320312,0.578125,-0.109375,0,-0.09472656,0.01159668,0.06152344,0,0,0.09448242,0,4.077,0,0,0,0,nan,2,0.161,1,128,0.1000061,0.1000061,0.1000061,0.1000061,0,0,0,1,2,0
267.35,0.001016,-0.01367188,-0.02148438,0.04492188,-1.203125,5.429688,13.60156,-0.0078125,0.001953125,0.03710938,0.578125,-0.109375,0,-0.09484863,0.01171875,0.06188965,0,0,0.09448242,0,4.077,0,0,0,0,nan,2,0.171,1,128,0.1000061,0.1000061,0.1000061,0.1000061,0,0,0,1,2,0
267.361,0.001058,-0.01171875,-0.01367188,0.05078125,-2.84375,2.585938,12.75781,-0.005859375,0.0078125,0.046875,0.578125,-0.109375,0,-0.0949707,0.01184082,0.06225586,0,0,0.09448242,0,4.077,0,0,0,0,nan,2,0.181,1,128,0.1000061,0.1000061,0.1000061,0.1000061,0,0,0,1,2,0
267.37,0.001014,0.02734375,0.015625,0.04296875,-0.390625,3.34375,7.1875,-0.005859375,0.00390625,0.0390625,0.578125,-0.109375,0,-0.0949707,0.01196289,0.06262207,0,0,0.09448242,0,4.077,0,0,0,0,nan,2,0.19,1,128,0.1000061,0.1000061,0.1000061,0.1000061,0,0,0,1,2,0
267.38,0.001059,0.0078125,0.02148438,0.01757812,-0.390625,-1.367188,6.742188,0.009765625,-0.0078125,0.03125,0.578125,-0.109375,0,-0.0949707,0.01196289,0.06311035,0,0,0.09448242,0,4.077,0,0,0,0,nan,2,0.2,1,128,0.1000061,0.1000061,0.1000061,0.1000061,0,0,0,1,2,0
267.39,0.001016,-0.02539062,0.02539062,-0.02929688,-1.359375,-3.359375,11.3125,-0.009765625,0.0078125,-0.01367188,0.578125,-0.109375,0,-0.09484863,0.01184082,0.06311035,0,0,0.09448242,0,4.077,0,0,0,0,nan,2,0.21,1,128,0.1000061,0.1000061,0.1000061,0.1000061,0,0,0,1,2,0
267.4,0.000906,0.01367188,0.005859375,-0.1054688,2.757812,4.375,21.07812,-0.015625,0.015625,-0.08203125,0.578125,-0.109375,0,-0.09509277,0.01196289,0.06262207,0,0,0.09448242,0,4.077,0,0,0,0,nan,2,0.22,1,128,0.1000061,0.1000061,0.1000061,0.1000061,0,0,0,1,2,0
267.41,0.00105,0.05664062,-0.015625,-0.1289062,1.898438,-0.5234375,12.5,0.01953125,-0.01171875,-0.1152344,0.578125,-0.109375,0,-0.09509277,0.01184082,0.06152344,0,0,0.09448242,0,4.077,0,0,0,0,nan,2,0.23,1,128,0.1000061,0.1000061,0.1000061,0.1000061,0,0,0,1,2,0
267.42,0.001029,0.00390625,-0.01953125,-0.07421875,2.460938,-2.414062,7.234375,-0.01171875,-0.015625,-0.09570312,0.578125,-0.109375,0,-0.09509277,0.01171875,0.0604248,0,0,0.09448242,0,4.077,0,0,0,0,nan,2,0,1,128,0.1000061,0.1000061,0.1000061,0.1000061,0,0,0,1,2,0
267.43,0.001035,-0.03710938,-0.02148438,-0.0390625,3.101562,-3.953125,13.98438,-0.00390625,-0.009765625,-0.05273438,0.578125,-0.109375,0,-0.0949707,0.01159668,0.05981445,0,0,0.09448242,0,4.077,0,0,0,0,nan,2,0.01,1,128,0.1000061,0.1000061,0.1000061,0.1000061,0,0,0,1,2,0
267.44,0.000908,0.009765625,0.0078125,-0.001953125,-1.84375,4.382812,6.960938,-0.00390625,0.00390625,-0.0078125,0.578125,-0.109375,0,-0.0949707,0.01171875,0.05957031,0,0,0.09448242,0,4.077,0,0,0,0,nan,2,0.02,1,128,0.1000061,0.1000061,0.1000061,0.1000061,0,0,0,1,2,0
267.45,0.00103,-0.02734375,-0.0234375,0.01367188,1.71875,1.523438,7.492188,0.001953125,-0.01757812,0.00390625,0.578125,-0.109375,0,-0.09484863,0.01147461,0.05957031,0,0,0.09448242,0,4.077,0,0,0,0,nan,2,0.029,1,128,0.1000061,0.1000061,0.1000061,0.1000061,0,0,0,1,2,0
267.46,0.001012,-0.0078125,0.01367188,-0.01171875,1.921875,7.125,14.89062,0,0.00390625,-0.0078125,0.578125,-0.109375,0,-0.09484863,0.01147461,0.05957031,0,0,0.09448242,0,4.077,0,0,0,0,nan,2,0.039,1,128,0.1000061,0.1000061,0.1000061,0.1000061,0,0,0,1,2,0
267.47,0.001092,0.02734375,-0.01757812,-0.02734375,-2.039062,-0.5078125,8.828125,0.03125,-0.015625,-0.02539062,0.578125,-0.109375,0,-0.09472656,0.01135254,0.05932617,0,0,0.09448242,0,4.077,0,0,0,0,nan,2,0.05,1,128,0.1000061,0.1000061,0.1000061,0.1000061,0,0,0,1,2,0
267.48,0.001,0.04101562,0.005859375,-0.03515625,0.328125,2.328125,14.45312,0.0078125,0.01171875,-0.03515625,0.578125,-0.109375,0,-0.09484863,0.01135254,0.05908203,0,0,0.09448242,0,4.077,0,0,0,0,nan,2,0.06,1,128,0.1000061,0.1000061,0.1000061,0.1000061,0,0,0,1,2,0
267.49,0.00101,-0.0234375,0.01953125,-0.01367188,-0.234375,0.7890625,14.84375,-0.02148438,0.009765625,-0.02148438,0.578125,-0.109375,0,-0.09484863,0.01135254,0.05871582,0,0,0.09448242,0,4.077,0,0,0,0,nan,2,0.07,1,128,0.1000061,0.1000061,0.1000061,0.1000061,0,0,0,1,2,0
267.5,0.001006,-0.005859375,0,-0.0078125,2.679688,-2.78125,17.21875,0.0078125,0.00390625,-0.01367188,0.578125,-0.109375,0,-0.09484863,0.01147461,0.05859375,0,0,0.09448242,0,4.077,0,0,0,0,nan,2,0.08,1,128,0.1000061,0.1000061,0.1000061,0.1000061,0,0,0,1,2,0
267.51,0.001006,0.0234375,0.009765625,-0.01953125,2.367188,-4.296875,9.882812,0.01953125,-0.001953125,-0.01171875,0.578125,-0.109375,0,-0.09472656,0.01147461,0.05847168,0,0,0.09448242,0,4.077,0,0,0,0,nan,2,0.09,1,128,0.1000061,0.1000061,0.1000061,0.1000061,0,0,0,1,2,0
267.52,0.001007,-0.01367188,0.01171875,-0.01367188,1.664062,-4.476562,5.421875,-0.001953125,-0.00390625,-0.009765625,0.578125,-0.109375,0,-0.09472656,0.01135254,0.05834961,0,0,0.09448242,0,4.077,0,0,0,0,nan,2,0.1,1,128,0.1000061,0.1000061,0.1000061,0.1000061,0,0,0,1,2,0
267.53,0.001005,0.00390625,-0.0234375,0.01171875,3.804688,3.203125,11.89062,0.005859375,0.001953125,-0.001953125,0.578125,-0.109375,0,-0.09472656,0.01147461,0.05822754,0,0,0.09448242,0,4.077,0,0,0,0,nan,2,0.11,1,128,0.1000061,0.1000061,0.1000061,0.1000061,0,0,0,1,2,0
267.54,0.001006,0.00390625,-0.01757812,-0.015625,0.8515625,0.890625,14.29688,-0.0078125,0.009765625,-0.005859375,0.578125,-0.109375,0,-0.09472656,0.01147461,0.05822754,0,0,0.09448242,0,4.077,0,0,0,0,nan,2,0.12,1,128,0.1000061,0.1000061,0.1000061,0.1000061,0,0,0,1,2,0
267.55,0.001006,-0.02734375,-0.04101562,-0.03710938,1.4375,-2.515625,8.0625,-0.009765625,-0.015625,-0.02148438,0.578125,-0.109375,0,-0.09484863,0.01147461,0.05810547,0,0,0.09448242,0,4.077,0,0,0,0,nan,2,0.13,1,128,0.1000061,0.1000061,0.1000061,0.1000061,0,0,0,1,2,0
267.56,0.001006,-0.00390625,-0.06835938,-0.046875,0.5546875,-2.367188,1.625,0.0078125,-0.01367188,-0.04882812,0.578125,-0.109375,0,-0.09472656,0.01147461,0.05773926,0,0,0.09448242,0,4.077,0,0,0,0,nan,2,0.14,1,128,0.1000061,0.1000061,0.1000061,0.1000061,0,0,0,1,2,0
267.57,0.001006,0.01757812,0.02539062,-0.0546875,0.1640625,-4.773438,7.179688,-0.01171875,0.01367188,-0.046875,0.578125,-0.109375,0,-0.09484863,0.01135254,0.05725098,0,0,0.09448242,0,4.077,0,0,0,0,nan,2,0.149,1,128,0.1000061,0.1000061,0.1000061,0.1000061,0,0,0,1,2,0
267.58,0.001024,0.015625,-0.0078125,0.01953125,0.4296875,-2.070312,10.24219,-0.005859375,-0.009765625,0,0.578125,-0.109375,0,-0.0949707,0.01135254,0.05700684,0,0,0.09448242,0,4.077,0,0,0,0,nan,2,0.16,1,128,0.1000061,0.1000061,0.1000061,0.1000061,0,0,0,1,2,0
267.59,0.001022,-0.0078125,-0.03320312,0.046875,0.65625,3.976562,15.16406,0.00390625,-0.02148438,0.03320312,0.578125,-0.109375,0,-0.0949707,0.01123047,0.05725098,0,0,0.09448242,0,4.077,0,0,0,0,nan,2,0.17,1,128,0.1000061,0.1000061,0.1000061,0.1000061,0,0,0,1,2,0
267.6,0.001027,-0.01953125,-0.0078125,-0.001953125,-0.1875,-3.585938,0.84375,-0.01953125,0,0.02539062,0.578125,-0.109375,0,-0.09521484,0.01135254,0.05761719,0,0,0.09448242,0,4.077,0,0,0,0,nan,2,0.18,1,128,0.1000061,0.1000061,0.1000061,0.1000061,0,0,0,1,2,0
267.61,0.001027,-0.015625,-0.01171875,-0.01171875,1.171875,3.445312,8.445312,0.005859375,-0.01171875,0.00390625,0.578125,-0.109375,0,-0.09509277,0.01123047,0.05773926,0,0,0.09448242,0,4.077,0,0,0,0,nan,2,0.19,1,128,0.1000061,0.1000061,0.1000061,0.1000061,0,0,0,1,2,0
267.62,0.001022,-0.02148438,-0.02929688,-0.03515625,-1.835938,2.5625,15.27344,0.001953125,-0.01171875,-0.03515625,0.578125,-0.109375,0,-0.09509277,0.01123047,0.05761719,0,0,0.09448242,0,4.077,0,0,0,0,nan,2,0.2,1,128,0.1000061,0.1000061,0.1000061,0.1000061,0,0,0,1,2,0
267.631,0.001066,-0.06054688,0.009765625,-0.04492188,1.265625,0.3828125,16.51562,-0.01171875,-0.005859375,-0.04296875,0.578125,-0.109375,0,-0.09509277,0.0111084,0.05725098,0,0,0.09448242,0,4.077,0,0,0,0,nan,2,0.21,1,128,0.1000061,0.1000061,0.1000061,0.1000061,0,0,0,1,2,0
267.64,0.001014,-0.001953125,0.03125,-0.0234375,0.6875,-4.203125,8.359375,0.01367188,0.00390625,-0.03515625,0.578125,-0.109375,0,-0.09509277,0.0111084,0.0567627,0,0,0.09448242,0,4.077,0,0,0,0,nan,2,0.22,1,128,0.1000061,0.1000061,0.1000061,0.1000061,0,0,0,1,2,0.07936508
267.65,0.000965,0.02929688,0.00390625,0.01757812,0.046875,-3.585938,13.44531,0.005859375,-0.01367188,0,0.578125,-0.109375,0,-0.09509277,0.0111084,0.05664062,0,0,0.09448242,0,4.077,0,0,0,0,nan,2,0.229,1,128,0.1000061,0.1000061,0.1000061,0.1000061,0,0,0,1,2,0
267.66,0.001004,-0.015625,0,0.02929688,2.84375,-3.75,10.09375,-0.0078125,-0.0078125,0.02929688,0.578125,-0.109375,0,-0.09509277,0.0111084,0.0567627,0,0,0.09448242,0,4.077,0,0,0,0,nan,2,0.001,1,128,0.1000061,0.1000061,0.1000061,0.1000061,0,0,0,1,2,0
267.67,0.001035,0.01171875,-0.01367188,0.03125,-3.054688,3.882812,6.484375,-0.01367188,0.01171875,0.04296875,0.578125,-0.109375,0,-0.09509277,0.01123047,0.05725098,0,0,0.09448242,0,4.077,0,0,0,0,nan,2,0.011,1,128,0.1000061,0.1000061,0.1000061,0.1000061,0,0,0,1,2,0
267.68,0.001061,-0.02539062,0.02929688,0.03515625,-2.304688,-0.6015625,11.85938,-0.005859375,0.005859375,0.04101562,0.578125,-0.109375,0,-0.09509277,0.01123047,0.05761719,0,0,0.09448242,0,4.077,0,0,0,0,nan,2,0.021,1,128,0.1000061,0.1000061,0.1000061,0.1000061,0,0,0,1,2,0
267.69,0.001009,-0.0234375,0.015625,0.00390625,-0.6015625,-4,11.07031,-0.00390625,0,0.015625,0.578125,-0.109375,0,-0.09509277,0.01135254,0.05786133,0,0,0.09448242,0,4.077,0,0,0,0,nan,2,0.031,1,128,0.1000061,0.1000061,0.1000061,0.1000061,0,0,0,1,2,0
267.7,0.001007,-0.015625,0,-0.03320312,0.8203125,-5.851562,7.921875,0,-0.001953125,-0.015625,0.578125,-0.109375,0,-0.09509277,0.01135254,0.05786133,0,0,0.09448242,0,4.077,0,0,0,0,nan,2,0.041,1,128,0.1000061,0.1000061,0.1000061,0.1000061,0,0,0,1,2,0.6190476
267.71,0.001013,0.0078125,0.0078125,-0.05273438,3.34375,1.960938,10.5,0.00390625,-0.00390625,-0.04296875,0.578125,-0.109375,0,-0.09509277,0.01135254,0.05761719,0,0,0.09448242,0,4.077,0,0,0,0,nan,2,0.051,1,128,0.1000061,0.1000061,0.1000061,0.1000061,0,0,0,1,2,0
267.72,0.001004,0.01367188,0.02539062,-0.05664062,1.695312,4.695312,10.35938,-0.01171875,0.005859375,-0.05664062,0.578125,-0.109375,0,-0.09509277,0.01123047,0.05712891,0,0,0.09448242,0,4.077,0,0,0,0,nan,2,0.062,1,128,0.1000061,0.1000061,0.1000061,0.1000061,0,0,0,1,2,0
267.73,0.001005,-0.0703125,-0.001953125,-0.04882812,0.6953125,3.382812,13.24219,-0.01757812,-0.009765625,-0.05664062,0.578125,-0.109375,0,-0.09509277,0.0111084,0.05651855,0,0,0.09448242,0,4.077,0,0,0,0,nan,2,0.072,1,128,0.1000061,0.1000061,0.1000061,0.1000061,0,0,0,1,2,0
267.74,0.001006,-0.01171875,-0.015625,-0.02539062,-1.015625,1.851562,10.3125,0.001953125,-0.001953125,-0.03710938,0.578125,-0.109375,0,-0.09509277,0.0111084,0.05603027,0,0,0.09448242,0,4.077,0,0,0,0,nan,2,0.082,1,128,0.1000061,0.1000061,0.1000061,0.1000061,0,0,0,1,2,0
267.75,0.001006,0.009765625,-0.0234375,0.001953125,-3.59375,-4.554688,1.921875,0.01757812,-0.00390625,-0.0078125,0.578125,-0.109375,0,-0.09509277,0.0111084,0.05578613,0,0,0.09448242,0,4.077,0,0,0,0,nan,2,0.092,1,128,0.1000061,0.1000061,0.1000061,0.1000061,0,0,0,1,2,0
267.76,0.001006,0.04492188,0.001953125,0.02148438,-1.445312,0.046875,10.53125,0.0078125,0.009765625,0.009765625,0.578125,-0.109375,0,-0.09509277,0.01098633,0.05578613,0,0,0.09448242,0,4.077,0,0,0,0,nan,2,0.102,1,128,0.1000061,0.1000061,0.1000061,0.1000061,0,0,0,1,2,0
267.77,0.001016,-0.005859375,-0.01171875,0.01953125,-1.3125,1.492188,3.757812,-0.00390625,-0.0078125,0.0234375,0.578125,-0.109375,0,-0.09509277,0.01098633,0.05603027,0,0,0.09448242,0,4.077,0,0,0,0,nan,2,0.111,1,128,0.1000061,0.1000061,0.1000061,0.1000061,0,0,0,1,2,0
267.78,0.00092,0.02539062,-0.015625,0.01171875,-4.109375,2.867188,9.273438,-0.005859375,0.005859375,0.015625,0.578125,-0.109375,0,-0.09521484,0.0111084,0.05627441,0,0,0.09448242,0,4.077,0,0,0,0,nan,2,0.121,1,128,0.1000061,0.1000061,0.1000061,0.1000061,0,0,0,1,2,0
267.79,0.000998,-0.001953125,0.001953125,0.01171875,-1.546875,3.007812,15.73438,0,0.00390625,0.009765625,0.578125,-0.109375,0,-0.09521484,0.0111084,0.05639648,0,0,0.09448242,0,4.077,0,0,0,0,nan,2,0.131,1,128,0.1000061,0.1000061,0.1000061,0.1000061,0,0,0,1,2,0
267.8,0.001001,-0.04882812,0.00390625,0.02929688,0.703125,-4.273438,8.015625,-0.01367188,-0.00390625,0.0234375,0.578125,-0.109375,0,-0.09521484,0.01098633,0.05651855,0,0,0.09448242,0,4.077,0,0,0,0,nan,2,0.141,1,128,0.1000061,0.1000061,0.1000061,0.1000061,0,0,0,1,2,0
267.81,0.001014,-0.04101562,0.04296875,0.02929688,1.976562,2.96875,15.14844,-0.01953125,0.015625,0.0234375,0.578125,-0.109375,0,-0.09533691,0.0111084,0.0567627,0,0,0.09448242,0,4.077,0,0,0,0,nan,2,0.151,1,128,0.1000061,0.1000061,0.1000061,0.1000061,0,0,0,1,2,0
267.82,0.001041,0.00390625,0.04101562,-0.01953125,0.578125,0.234375,12.90625,-0.01367188,0.015625,-0.009765625,0.578125,-0.109375,0,-0.09558105,0.01123047,0.0567627,0,0,0.09448242,0,4.077,0,0,0,0,nan,2,0.162,1,128,0.1000061,0.1000061,0.1000061,0.1000061,0,0,0,1,2,0
267.83,0.001156,0.05078125,-0.001953125,-0.0703125,-0.5546875,0.453125,18.19531,0.02148438,-0.005859375,-0.04296875,0.578125,-0.109375,0,-0.09558105,0.01123047,0.05651855,0,0,0.09448242,0,4.077,0,0,0,0,nan,2,0.171,1,128,0.1000061,0.1000061,0.1000061,0.1000061,0,0,0,1,2,0
267.841,0.001016,0.015625,-0.005859375,-0.1035156,1.515625,0.609375,5.101562,0.001953125,-0.0078125,-0.08984375,0.578125,-0.109375,0,-0.09545898,0.0111084,0.05578613,0,0,0.09448242,0,4.077,0,0,0,0,nan,2,0.182,1,128,0.1000061,0.1000061,0.1000061,0.1000061,0,0,0,1,2,0
267.85,0.00098,-0.01171875,0.01953125,-0.08984375,0.421875,-4.039062,2.429688,0,0.01367188,-0.09375,0.578125,-0.109375,0,-0.09545898,0.01098633,0.05480957,0,0,0.09448242,0,4.077,0,0,0,0,nan,2,0.191,1,128,0.1000061,0.1000061,0.1000061,0.1000061,0,0,0,1,2,0
267.86,0.000967,0.0078125,0.02148438,-0.02539062,-1.132812,-2.171875,1.609375,-0.001953125,0.02148438,-0.05078125,0.578125,-0.109375,0,-0.09545898,0.01098633,0.05407715,0,0,0.09448242,0,4.077,0,0,0,0,nan,2,0.201,1,128,0.1000061,0.1000061,0.1000061,0.1000061,0,0,0,1,2,0
267.87,0.001239,-0.015625,0.05078125,0.0390625,0.2421875,0.40625,14.10156,-0.01367188,0.005859375,0.005859375,0.578125,-0.109375,0,-0.09545898,0.01086426,0.05395508,0,0,0.09448242,0,4.077,0,0,0,0,nan,2,0.211,1,128,0.1000061,0.1000061,0.1000061,0.1000061,0,0,0,1,2,0
267.88,0.001136,0.01757812,0.03710938,0.078125,-0.578125,-5.085938,10.27344,-0.00390625,0.01367188,0.05664062,0.578125,-0.109375,0,-0.09570312,0.01098633,0.05419922,0,0,0.09448242,0,4.077,0,0,0,0,nan,2,0.222,1,128,0.1000061,0.1000061,0.1000061,0.1000061,0,0,0,1,2,0
267.89,0.00093,0.0234375,0.01171875,0.05859375,1.390625,1.789062,11.57812,0.001953125,-0.009765625,0.06445312,0.578125,-0.109375,0,-0.09570312,0.0111084,0.05493164,0,0,0.09448242,0,4.077,0,0,0,0,nan,2,0.232,1,128,0.1000061,0.1000061,0.1000061,0.1000061,0,0,0,1,2,0
267.9,0.001014,0,0,0.01757812,-0.53125,1.03125,12.09375,-0.00390625,0.005859375,0.046875,0.578125,-0.109375,0,-0.0958252,0.01123047,0.05554199,0,0,0.09448242,0,4.077,0,0,0,0,nan,2,0.241,1,128,0.1000061,0.1000061,0.1000061,0.1000061,0,0,0,1,2,0
267.91,0.000963,0.02929688,-0.001953125,-0.00390625,-0.09375,-4.734375,11.09375,0.01367188,-0.005859375,0.0078125,0.578125,-0.109375,0,-0.09570312,0.0111084,0.05566406,0,0,0.09448242,0,4.077,0,0,0,0,nan,2,0.252,1,128,0.1000061,0.1000061,0.1000061,0.1000061,0,0,0,1,2,0
267.92,0.001043,0.00390625,-0.0234375,-0.05273438,0.890625,-1.890625,6.617188,0.01171875,-0.02539062,-0.04101562,0.578125,-0.109375,0,-0.09570312,0.0111084,0.05554199,0,0,0.09448242,0,4.077,0,0,0,0,nan,2,0.004,1,128,0.1000061,0.1000061,0.1000061,0.1000061,0,0,0,1,2,0
267.93,0.001018,-0.001953125,-0.00390625,-0.0234375,-1.132812,0.2890625,5.429688,-0.00390625,-0.00390625,-0.02539062,0.578125,-0.109375,0,-0.09570312,0.01098633,0.05517578,0,0,0.09448242,0,4.077,0,0,0,0,nan,2,0.014,1,128,0.1000061,0.1000061,0.1000061,0.1000061,0,0,0,1,2,0
267.94,0.001074,-0.0390625,0.04492188,0.03710938,-0.9921875,-1.773438,7.804688,-0.02929688,0.009765625,0.01953125,0.578125,-0.109375,0,-0.09570312,0.01098633,0.05517578,0,0,0.09448242,0,4.077,0,0,0,0,nan,2,0.023,1,128,0.1000061,0.1000061,0.1000061,0.1000061,0,0,0,1,2,0
267.95,0.001081,0,0.015625,0.06445312,1.625,2.578125,18.40625,0,0.005859375,0.04882812,0.578125,-0.109375,0,-0.0958252,0.0111084,0.05541992,0,0,0.09448242,0,4.077,0,0,0,0,nan,2,0.033,1,128,0.1000061,0.1000061,0.1000061,0.1000061,0,0,0,1,2,0
267.96,0.001006,-0.0546875,0.00390625,0.02929688,0.9296875,-1.828125,5.046875,-0.02148438,0.00390625,0.04296875,0.578125,-0.109375,0,-0.0958252,0.01123047,0.05603027,0,0,0.09448242,0,4.077,0,0,0,0,nan,2,0.044,1,128,0.1000061,0.1000061,0.1000061,0.1000061,0,0,0,1,2,0
267.97,0.001012,-0.009765625,-0.009765625,0.01757812,1.351562,-4.273438,2.882812,-0.001953125,0.0078125,0.02539062,0.578125,-0.109375,0,-0.09594727,0.01135254,0.05639648,0,0,0.09448242,0,4.077,0,0,0,0,nan,2,0.053,1,128,0.1000061,0.1000061,0.1000061,0.1000061,0,0,0,1,2,0
267.98,0.001016,-0.015625,0.03125,-0.001953125,1.3125,-0.921875,8.835938,-0.01171875,0.0078125,0,0.578125,-0.109375,0,-0.09606934,0.01135254,0.05639648,0,0,0.09448242,0,4.077,0,0,0,0,nan,2,0.064,1,128,0.1000061,0.1000061,0.1000061,0.1000061,0,0,0,1,2,0
267.99,0.001014,-0.01757812,-0.01757812,0.01953125,-0.5,1.546875,10.625,-0.01953125,-0.001953125,0.015625,0.578125,-0.109375,0,-0.09606934,0.01135254,0.05651855,0,0,0.09448242,0,4.077,0,0,0,0,nan,2,0.074,1,128,0.1000061,0.1000061,0.1000061,0.1000061,0,0,0,1,2,0
268,0.001012,0.015625,0.005859375,0.05664062,-2.757812,-0.6171875,3.664062,0,0.00390625,0.046875,0.578125,-0.109375,0,-0.09606934,0.01147461,0.0567627,0,0,0.09448242,0,4.077,0,0,0,0,nan,2,0.084,1,128,0.1000061,0.1000061,0.1000061,0.1000061,0,0,0,1,2,0
268.01,0.001012,0.01171875,-0.03320312,0.06054688,-4.085938,-1.65625,4.21875,0.01171875,-0.005859375,0.05859375,0.578125,-0.109375,0,-0.09606934,0.01147461,0.05737305,0,0,0.09448242,0,4.077,0,0,0,0,nan,2,0.094,1,128,0.1000061,0.1000061,0.1000061,0.1000061,0,0,0,1,2,0
268.02,0.001013,-0.0078125,0.015625,0.03320312,-1.085938,3.890625,14.07812,-0.009765625,0.005859375,0.04492188,0.578125,-0.109375,0,-0.09606934,0.01147461,0.0579834,0,0,0.09448242,0,4.077,0,0,0,0,nan,2,0.104,1,128,0.1000061,0.1000061,0.1000061,0.1000061,0,0,0,1,2,0
268.03,0.001008,-0.0078125,0.03125,0.01171875,-1.976562,-1.148438,16.63281,-0.005859375,0,0.01953125,0.578125,-0.109375,0,-0.09619141,0.01159668,0.05822754,0,0,0.09448242,0,4.077,0,0,0,0,nan,2,0.114,1,128,0.1000061,0.1000061,0.1000061,0.1000061,0,0,0,1,2,0
268.04,0.001014,0.00390625,-0.001953125,0.0078125,0.5625,-3.757812,13.99219,-0.01171875,-0.00390625,0.0078125,0.578125,-0.109375,0,-0.09619141,0.01159668,0.05834961,0,0,0.09448242,0,4.077,0,0,0,0,nan,2,0.124,1,128,0.1000061,0.1000061,0.1000061,0.1000061,0,0,0,1,2,0
268.05,0.001012,-0.01367188,-0.009765625,0.03125,0.9375,-3.765625,9.851562,-0.01367188,0.0078125,0.02734375,0.578125,-0.109375,0,-0.09631348,0.01171875,0.05859375,0,0,0.09448242,0,4.077,0,0,0,0,nan,2,0.134,1,128,0.1000061,0.1000061,0.1000061,0.1000061,0,0,0,1,2,0
268.06,0.001012,0.001953125,-0.0234375,0.05078125,0.203125,-3.992188,10.125,-0.001953125,0.00390625,0.04296875,0.578125,-0.109375,0,-0.09631348,0.01171875,0.05895996,0,0,0.09448242,0,4.077,0,0,0,0,nan,2,0.144,1,128,0.1000061,0.1000061,0.1000061,0.1000061,0,0,0,1,2,0
268.071,0.001014,-0.01367188,0.01757812,0.01171875,1.101562,3.3125,14.5625,-0.005859375,0.009765625,0.0234375,0.578125,-0.109375,0,-0.09631348,0.01171875,0.0592041,0,0,0.09448242,0,4.077,0,0,0,0,nan,2,0.154,1,128,0.1000061,0.1000061,0.1000061,0.1000061,0,0,0,1,2,0
268.08,0.001006,-0.01953125,0.02734375,-0.03320312,1.140625,1.226562,7.585938,0.001953125,0.009765625,-0.009765625,0.578125,-0.109375,0,-0.09631348,0.01184082,0.05932617,0,0,0.09448242,0,4.077,0,0,0,0,nan,2,0.164,1,128,0.1000061,0.1000061,0.1000061,0.1000061,0,0,0,1,2,0
268.09,0.001012,0.01757812,0.01367188,-0.06054688,-1.765625,-0.2265625,13.57031,0.005859375,0.001953125,-0.04882812,0.578125,-0.109375,0,-0.09631348,0.01184082,0.05895996,0,0,0.09448242,0,4.077,0,0,0,0,nan,2,0.174,1,128,0.1000061,0.1000061,0.1000061,0.1000061,0,0,0,1,2,0
268.1,0.001005,0.0078125,-0.01953125,-0.09570312,1.25,-1.25,9.898438,0.009765625,-0.00390625,-0.08203125,0.578125,-0.109375,0,-0.09619141,0.01171875,0.05834961,0,0,0.09448242,0,4.077,0,0,0,0,nan,2,0.184,1,128,0.1000061,0.1000061,0.1000061,0.1000061,0,0,0,1,2,0.2857143
268.11,0.001013,0.005859375,-0.03320312,-0.08007812,-0.5859375,-6.15625,1.265625,-0.005859375,-0.001953125,-0.078125,0.578125,-0.109375,0,-0.09619141,0.01171875,0.05749512,0,0,0.09448242,0,4.077,0,0,0,0,nan,2,0.194,1,128,0.1000061,0.1000061,0.1000061,0.1000061,0,0,0,1,2,0
268.12,0.001016,-0.03710938,-0.01367188,-0.02929688,2.507812,-0.25,5.210938,-0.01757812,-0.005859375,-0.04296875,0.578125,-0.109375,0,-0.09631348,0.01159668,0.05688477,0,0,0.09448242,0,4.077,0,0,0,0,nan,2,0.204,1,128,0.1000061,0.1000061,0.1000061,0.1000061,0,0,0,1,2,0
268.13,0.001008,0.0078125,-0.03320312,-0.009765625,1.726562,4.75,10.35156,-0.005859375,-0.00390625,-0.02148438,0.578125,-0.109375,0,-0.09655762,0.01159668,0.05651855,0,0,0.09448242,0,4.077,0,0,0,0,nan,2,0.214,1,128,0.1000061,0.1000061,0.1000061,0.1000061,0,0,0,1,2,0
268.14,0.000907,-0.0078125,-0.01367188,0.0234375,1.101562,3.148438,13.04688,0.009765625,-0.01171875,0.01171875,0.578125,-0.109375,0,-0.09643555,0.01159668,0.05651855,0,0,0.09448242,0,4.077,0,0,0,0,nan,2,0.224,1,128,0.1000061,0.1000061,0.1000061,0.1000061,0,0,0,1,2,0
268.15,0.000961,0.03515625,0.00390625,0.05273438,0.5234375,1.960938,7.359375,0.0234375,-0.009765625,0.04296875,0.578125,-0.109375,0,-0.09619141,0.01147461,0.05688477,0,0,0.09448242,0,4.077,0,0,0,0,nan,2,0.234,1,128,0.1000061,0.1000061,0.1000061,0.1000061,0,0,0,1,2,0
268.16,0.001022,0.0078125,-0.03515625,0.0546875,2.828125,1.296875,11.32031,0.015625,-0.009765625,0.0546875,0.578125,-0.109375,0,-0.09594727,0.01135254,0.05737305,0,0,0.09448242,0,4.077,0,0,0,0,nan,2,0.004,1,128,0.1000061,0.1000061,0.1000061,0.1000061,0,0,0,1,2,0
268.17,0.00109,-0.01367188,-0.001953125,0.03320312,-0.0546875,-1.210938,1.515625,0.005859375,-0.005859375,0.046875,0.578125,-0.109375,0,-0.0958252,0.01135254,0.05786133,0,0,0.09448242,0,4.077,0,0,0,0,nan,2,0.014,1,128,0.1000061,0.1000061,0.1000061,0.1000061,0,0,0,1,2,0
268.18,0.000928,0.04882812,-0.01171875,0.009765625,-1.554688,1.390625,15.49219,0.01953125,-0.0078125,0.01953125,0.578125,-0.109375,0,-0.0958252,0.01135254,0.05822754,0,0,0.09448242,0,4.077,0,0,0,0,nan,2,0.024,1,128,0.1000061,0.1000061,0.1000061,0.1000061,0,0,0,1,2,0
268.19,0.000952,0.01171875,-0.02148438,0,-1.96875,-5.6875,11.24219,0.001953125,-0.005859375,0.001953125,0.578125,-0.109375,0,-0.09570312,0.01123047,0.05834961,0,0,0.09448242,0,4.077,0,0,0,0,nan,2,0.034,1,128,0.1000061,0.1000061,0.1000061,0.1000061,0,0,0,1,2,0
268.2,0.001024,-0.00390625,0.01171875,-0.01367188,1.132812,-2.554688,10.75781,0.01367188,0.009765625,-0.0078125,0.578125,-0.109375,0,-0.09545898,0.01123047,0.05834961,0,0,0.09448242,0,4.077,0,0,0,0,nan,2,0.044,1,128,0.1000061,0.1000061,0.1000061,0.1000061,0,0,0,1,2,0
268.21,0.001026,-0.0234375,0.00390625,-0.001953125,0.9921875,0.09375,14.10156,-0.01953125,0,-0.001953125,0.578125,-0.109375,0,-0.09545898,0.01123047,0.05822754,0,0,0.09448242,0,4.077,0,0,0,0,nan,2,0.055,1,128,0.1000061,0.1000061,0.1000061,0.1000061,0,0,0,1,2,0
268.22,0.001024,0.02539062,-0.01171875,0.001953125,3.0625,1.070312,18.5625,0.009765625,0.01367188,0,0.578125,-0.109375,0,-0.09558105,0.01135254,0.05822754,0,0,0.09448242,0,4.077,0,0,0,0,nan,2,0.065,1,128,0.1000061,0.1000061,0.1000061,0.1000061,0,0,0,1,2,0
268.23,0.001084,0.01171875,0.02148438,-0.01953125,2.015625,-2.601562,9.875,0,0.015625,-0.015625,0.578125,-0.109375,0,-0.09558105,0.01135254,0.05810547,0,0,0.09448242,0,4.077,0,0,0,0,nan,2,0.075,1,128,0.1000061,0.1000061,0.1000061,0.1000061,0,0,0,1,2,0
268.24,0.001005,0.01757812,0.04492188,-0.02734375,-0.71875,-4.90625,1.65625,0,0.0078125,-0.02148438,0.578125,-0.109375,0,-0.09558105,0.01135254,0.0579834,0,0,0.09448242,0,4.077,0,0,0,0,nan,2,0.085,1,128,0.1000061,0.1000061,0.1000061,0.1000061,0,0,0,1,2,0
268.25,0.000975,0.005859375,0,0.009765625,1.710938,-0.375,7.898438,-0.001953125,-0.00390625,-0.0078125,0.578125,-0.109375,0,-0.09558105,0.01135254,0.05773926,0,0,0.09448242,0,4.077,0,0,0,0,nan,2,0.095,1,128,0.1000061,0.1000061,0.1000061,0.1000061,0,0,0,1,2,0
268.26,0.000968,-0.005859375,-0.0078125,0.01953125,-0.96875,2.65625,9.273438,-0.005859375,0.00390625,0.01367188,0.578125,-0.109375,0,-0.09545898,0.01135254,0.05786133,0,0,0.05786133,0,4.077,0,0,0,0,nan,2,0.104,0,0,0,0,0,0,0,0,0,1,2,1
268.27,0.001077,0.02148438,0,0.0625,2.851562,1.671875,11,0,0.01367188,0.04882812,0.578125,-0.109375,0,-0.09558105,0.01147461,0.05822754,0,0,0.05822754,0,4.077,0,0,0,0,nan,2,0.114,0,0,0,0,0,0,0,0,0,1,2,0
268.28,0.001024,0.00390625,0.015625,0.05664062,-3.5625,-2.601562,5.640625,0.009765625,-0.001953125,0.05664062,0.578125,-0.109375,0,-0.09533691,0.01135254,0.05871582,0,0,0.05871582,0,4.077,0,0,0,0,nan,2,0.124,0,0,0,0,0,0,0,0,0,1,2,0
268.29,0.001059,-0.01367188,0.015625,0.04296875,0.6953125,-1.484375,8.328125,0.01367188,-0.005859375,0.04882812,0.578125,-0.109375,0,-0.09521484,0.01135254,0.05932617,0,0,0.05932617,0,4.077,0,0,0,0,nan,2,0.134,0,0,0,0,0,0,0,0,0,1,2,0
268.3,0.001049,0.01757812,-0.0078125,0.02148438,-0.3828125,-1.984375,15.26562,0.01171875,-0.015625,0.03515625,0.578125,-0.109375,0,-0.09509277,0.01135254,0.05969238,0,0,0.05969238,0,4.077,0,0,0,0,nan,2,0.144,0,0,0,0,0,0,0,0,0,1,2,0
268.31,0.000978,-0.01953125,0,-0.02734375,-1.09375,-2.8125,9.445312,-0.00390625,0.001953125,-0.009765625,0.578125,-0.109375,0,-0.0949707,0.01135254,0.05981445,0,0,0.05981445,0,4.077,0,0,0,0,nan,2,0.155,0,0,0,0,0,0,0,0,0,1,2,1
268.32,0.001004,-0.015625,-0.01757812,-0.03125,0.40625,-1.828125,6.046875,-0.01171875,-0.001953125,-0.03320312,0.578125,-0.109375,0,-0.0949707,0.01135254,0.05957031,0,0,0.05957031,0,4.077,0,0,0,0,nan,2,0.165,0,0,0,0,0,0,0,0,0,1,2,0
268.33,0.001011,0.00390625,0.01757812,-0.001953125,0.6171875,0.4921875,9.179688,-0.005859375,0.001953125,-0.01171875,0.578125,-0.109375,0,-0.09484863,0.01123047,0.05932617,0,0,0.05932617,0,4.077,0,0,0,0,nan,2,0.174,0,0,0,0,0,0,0,0,0,1,2,1
268.341,0.001639,-0.01757812,-0.02148438,-0.00390625,1.523438,1.375,13.14844,0.009765625,-0.02148438,-0.001953125,0.578125,-0.109375,0,-0.09460449,0.0111084,0.05932617,0,0,0.05932617,0,4.077,0,0,0,0,nan,2,0.185,0,0,0,0,0,0,0,0,0,1,2,0
268.35,0.000927,-0.0234375,-0.0234375,0.04296875,0.53125,0.4921875,10.02344,-0.0078125,0.005859375,0.03320312,0.578125,-0.109375,0,-0.09448242,0.01086426,0.05957031,0,0,0.05957031,0,4.077,0,0,0,0,nan,2,0.194,0,0,0,0,0,0,0,0,0,1,2,1
268.36,0.001406,0.01171875,-0.009765625,0.03515625,-0.109375,1.203125,10.03125,0.00390625,-0.009765625,0.04101562,0.578125,-0.109375,0,-0.09411621,0.01086426,0.06005859,0,0,0.06005859,0,4.077,0,0,0,0,nan,2,0.205,0,0,0,0,0,0,0,0,0,1,2,1
268.37,0.001328,-0.01171875,0.0234375,0.01757812,-0.21875,-0.0234375,9.859375,-0.001953125,0.0078125,0.0234375,0.578125,-0.109375,0,-0.09375,0.01086426,0.06030273,0,0,0.06030273,0,4.077,0,0,0,0,nan,2,0.214,0,0,0,0,0,0,0,0,0,1,2,1
268.38,0.001108,0.03125,-0.02929688,0.015625,-0.3828125,-1.445312,10.63281,0.01171875,-0.005859375,0.015625,0.578125,-0.109375,0,-0.09338379,0.01074219,0.06054688,0,0,0.06054688,0,4.077,0,0,0,0,nan,2,0.224,0,0,0,0,0,0,0,0,0,1,2,1
268.39,0.001042,0.03125,0.02148438,0,-0.0078125,-0.578125,11.65625,0.005859375,0.01367188,-0.001953125,0.578125,-0.109375,0,-0.09338379,0.01074219,0.06054688,0,0,0.06054688,0,4.077,0,0,0,0,nan,2,0.234,0,0,0,0,0,0,0,0,0,1,2,0
268.4,0.000997,-0.015625,0.02148438,0.0078125,0.640625,0.7578125,8.320312,-0.009765625,0.005859375,0.005859375,0.578125,-0.109375,0,-0.09326172,0.01086426,0.06054688,0,0,0.06054688,0,4.077,0,0,0,0,nan,2,0.244,0,0,0,0,0,0,0,0,0,1,2,0
268.411,0.001389,0.01953125,-0.01367188,-0.02148438,0.2265625,-0.78125,9.8125,0.005859375,-0.005859375,-0.015625,0.578125,-0.109375,0,-0.09301758,0.01074219,0.06054688,0,0,0.06054688,0,4.077,0,0,0,0,nan,2,0.255,0,0,0,0,0,0,0,0,0,1,2,1
268.421,0.000839,0.02539062,0.001953125,-0.005859375,-0.75,-2.34375,9.296875,0.01171875,0,-0.01757812,0.578125,-0.109375,0,-0.09265137,0.01062012,0.06030273,0,0,0.06030273,0,4.077,0,0,0,0,nan,2,0.264,0,0,0,0,0,0,0,0,0,1,2,1
268.43,0.000878,0.02929688,-0.02148438,0.015625,0.3671875,1.78125,18.21875,0.009765625,-0.001953125,0.00390625,0.578125,-0.109375,0,-0.09265137,0.01062012,0.06030273,0,0,0.06030273,0,4.077,0,0,0,0,nan,2,0,0,0,0,0,0,0,0,0,0,1,2,0
268.441,0.001033,0.015625,-0.01367188,0.02734375,0.515625,-0.8828125,14.73438,-0.0078125,0.005859375,0.02539062,0.578125,-0.109375,0,-0.09265137,0.01062012,0.0604248,0,0,0.0604248,0,4.077,0,0,0,0,nan,2,0.01,0,0,0,0,0,0,0,0,0,1,2,0
268.45,0.000988,0.01757812,0,0.01171875,-0.375,-1.617188,14.46875,0,0.001953125,0.01953125,0.578125,-0.109375,0,-0.09265137,0.01074219,0.06066895,0,0,0.06066895,0,4.077,0,0,0,0,nan,2,0.02,0,0,0,0,0,0,0,0,0,1,2,0
268.46,0.001209,-0.0234375,-0.015625,-0.04492188,-0.453125,1.765625,8.398438,0.005859375,0,-0.0234375,0.578125,-0.109375,0,-0.0925293,0.01074219,0.06066895,0,0,0.06066895,0,4.077,0,0,0,0,nan,2,0.029,0,0,0,0,0,0,0,0,0,1,2,0
268.47,0.00143,-0.03125,0.00390625,-0.0234375,-1.328125,-0.7265625,7.796875,-0.00390625,-0.00390625,-0.02734375,0.578125,-0.109375,0,-0.0925293,0.01062012,0.0604248,0,0,0.0604248,0,4.077,0,0,0,0,nan,2,0.039,0,0,0,0,0,0,0,0,0,1,2,0
268.527,0.000972,0.01757812,-0.02148438,-0.01757812,0.921875,2.179688,13.95312,-0.009765625,-0.00390625,-0.02539062,0.578125,-0.109375,0,-0.09240723,0.01062012,0.06030273,0,0,0.06030273,0,4.077,0,0,0,0,nan,2,0.043,0,0,0,0,0,0,0,0,0,1,2,0
268.53,0.001129,-0.01757812,0.04296875,0.0078125,-1.460938,-1.257812,9.046875,-0.005859375,0.009765625,0.01953125,0.578125,-0.109375,0,-0.09265137,0.01086426,0.06152344,0,0,0.06152344,0,4.077,0,0,0,0,nan,2,0.099,0,0,0,0,0,0,0,0,0,1,2,1
268.54,0.00085,-0.04101562,-0.01367188,0.0078125,-0.6875,-3.867188,9.039062,-0.005859375,0.009765625,0.009765625,0.578125,-0.109375,0,-0.0925293,0.01086426,0.06164551,0,0,0.06164551,0,4.077,0,0,0,0,nan,2,0.11,0,0,0,0,0,0,0,0,0,1,2,1
268.55,0.001051,-0.05273438,0.01953125,0.0078125,-1.195312,-1.851562,8.625,-0.009765625,0.001953125,0.01367188,0.578125,-0.109375,0,-0.09228516,0.01086426,0.06176758,0,0,0.06176758,0,4.077,0,0,0,0,nan,2,0.12,0,0,0,0,0,0,0,0,0,1,2,1
268.56,0.001062,-0.02734375,-0.01367188,-0.00390625,-0.0078125,-0.0078125,10.47656,-0.001953125,-0.001953125,0.0078125,0.578125,-0.109375,0,-0.09191895,0.01086426,0.06188965,0,0,0.06188965,0,4.077,0,0,0,0,nan,2,0.129,0,0,0,0,0,0,0,0,0,1,2,1
268.57,0.000949,0.07421875,0.01171875,0,1.242188,5.953125,10.07031,0.0078125,0,0.009765625,0.578125,-0.109375,0,-0.09155273,0.01086426,0.06201172,0,0,0.06201172,0,4.077,0,0,0,0,nan,2,0.139,0,0,0,0,0,0,0,0,0,1,2,0
268.58,0.001106,-0.0390625,-0.0234375,-0.005859375,0.9140625,-1.6875,9.945312,-0.005859375,0,0.005859375,0.578125,-0.109375,0,-0.09143066,0.01074219,0.06201172,0,0,0.06201172,0,4.077,0,0,0,0,nan,2,0.149,0,0,0,0,0,0,0,0,0,1,2,1
268.59,0.001123,0.0234375,0.01953125,0.0078125,1.578125,0.640625,11.09375,0.00390625,-0.001953125,0.00390625,0.578125,-0.109375,0,-0.09118652,0.01074219,0.06213379,0,0,0.06213379,0,4.077,0,0,0,0,nan,2,0.159,0,0,0,0,0,0,0,0,0,1,2,0
268.601,0.00108,0.015625,-0.01171875,0.01757812,-1.0625,0.8125,9.03125,-0.005859375,-0.01367188,0.01367188,0.578125,-0.109375,0,-0.09106445,0.01074219,0.06225586,0,0,0.06225586,0,4.077,0,0,0,0,nan,2,0.007,0,0,0,0,0,0,0,0,0,1,2,1
268.61,0.001229,-0.01953125,0.02929688,-0.00390625,1.796875,-2.609375,10.625,-0.015625,0.009765625,-0.0078125,0.578125,-0.109375,0,-0.09106445,0.01074219,0.06213379,0,0,0.06213379,0,4.077,0,0,0,0,nan,2,0.016,0,0,0,0,0,0,0,0,0,1,2,0
268.621,0.001182,-0.01171875,-0.009765625,-0.015625,0.734375,-0.15625,10.03125,-0.001953125,0.00390625,0,0.578125,-0.109375,0,-0.09069824,0.01062012,0.06213379,0,0,0.06213379,0,4.077,0,0,0,0,nan,2,0.027,0,0,0,0,0,0,0,0,0,1,2,1
268.63,0.001058,0.009765625,-0.02929688,-0.0234375,-0.1640625,1.039062,9.773438,0.001953125,-0.009765625,0,0.578125,-0.109375,0,-0.09057617,0.01049805,0.06213379,0,0,0.06213379,0,4.077,0,0,0,0,nan,2,0.036,0,0,0,0,0,0,0,0,0,1,2,1
268.64,0.001033,0.02734375,-0.01757812,-0.01367188,0.6796875,1.695312,9.054688,0.009765625,-0.005859375,-0.009765625,0.578125,-0.109375,0,-0.09020996,0.01037598,0.06213379,0,0,0.06213379,0,4.077,0,0,0,0,nan,2,0.046,0,0,0,0,0,0,0,0,0,1,2,1
268.65,0.001026,0.0078125,-0.04296875,-0.00390625,0.9765625,0.7578125,8.460938,0.0078125,-0.01171875,-0.0078125,0.578125,-0.109375,0,-0.08984375,0.01037598,0.06213379,0,0,0.06213379,0,4.077,0,0,0,0,nan,2,0.056,0,0,0,0,0,0,0,0,0,1,2,0
268.66,0.000988,0.05859375,-0.00390625,-0.02148438,-0.921875,2.046875,10.10156,0.01171875,-0.001953125,-0.0078125,0.578125,-0.109375,0,-0.08959961,0.01025391,0.06201172,0,0,0.06201172,0,4.077,0,0,0,0,nan,2,0.066,0,0,0,0,0,0,0,0,0,1,2,1
268.67,0.001004,0.04296875,-0.04296875,-0.005859375,-0.328125,-0.0703125,9.554688,0.01367188,-0.009765625,-0.00390625,0.578125,-0.109375,0,-0.0892334,0.01025391,0.06201172,0,0,0.06201172,0,4.077,0,0,0,0,nan,2,0.077,0,0,0,0,0,0,0,0,0,1,2,1
268.68,0.001027,-0.009765625,-0.03515625,0.02734375,0.4375,-0.4453125,8.914062,-0.009765625,0.005859375,-0.001953125,0.578125,-0.109375,0,-0.08898926,0.01013184,0.06201172,0,0,0.06201172,0,4.077,0,0,0,0,nan,2,0.087,0,0,0,0,0,0,0,0,0,1,2,1
268.69,0.001027,-0.0859375,0.06445312,-0.01367188,0.7109375,-0.90625,11.40625,-0.01171875,0.009765625,-0.005859375,0.578125,-0.109375,0,-0.08862305,0.01000977,0.06201172,0,0,0.06201172,0,4.077,0,0,0,0,nan,2,0.097,0,0,0,0,0,0,0,0,0,1,2,0
268.7,0.001027,-0.03515625,-0.00390625,0.015625,-0.609375,-1.304688,10.14062,-0.0078125,-0.0078125,0.005859375,0.578125,-0.109375,0,-0.08850098,0.01000977,0.06201172,0,0,0.06201172,0,4.077,0,0,0,0,nan,2,0.106,0,0,0,0,0,0,0,0,0,1,2,1
268.71,0.001006,-0.01757812,-0.02929688,-0.015625,0.46875,0.265625,9.460938,-0.0078125,-0.00390625,-0.005859375,0.578125,-0.109375,0,-0.08813477,0.01000977,0.06201172,0,0,0.06201172,0,4.077,0,0,0,0,nan,2,0.116,0,0,0,0,0,0,0,0,0,1,2,1
268.72,0.00101,-0.01757812,0.01757812,0.0234375,0.59375,-0.0390625,9.507812,-0.00390625,0.001953125,0.005859375,0.578125,-0.109375,0,-0.08776855,0.009887695,0.06201172,0,0,0.06201172,0,4.077,0,0,0,0,nan,2,0.126,0,0,0,0,0,0,0,0,0,1,2,1
268.73,0.001006,-0.05859375,0.015625,-0.01757812,-0.015625,-0.75,10.08594,-0.001953125,0.001953125,-0.00390625,0.578125,-0.109375,0,-0.08728027,0.009887695,0.06201172,0,0,0.06201172,0,4.077,0,0,0,0,nan,2,0.136,0,0,0,0,0,0,0,0,0,1,2,1
268.74,0.001006,-0.03710938,0.01171875,-0.02148438,-0.5625,-0.2109375,10.45312,-0.0078125,0.0078125,-0.00390625,0.578125,-0.109375,0,-0.08691406,0.009887695,0.06201172,0,0,0.06201172,0,4.077,0,0,0,0,nan,2,0.146,0,0,0,0,0,0,0,0,0,1,2,1
268.75,0.001024,-0.0390625,0.03710938,0.02539062,-0.0546875,-0.546875,10.19531,-0.015625,0.005859375,0.001953125,0.578125,-0.109375,0,-0.08654785,0.009765625,0.06201172,0,0,0.06201172,0,4.077,0,0,0,0,nan,2,0.156,0,0,0,0,0,0,0,0,0,1,2,1
268.761,0.00119,-0.046875,0.01171875,0.02148438,-0.125,-0.09375,9.8125,-0.0078125,0.00390625,0.001953125,0.578125,-0.109375,0,-0.08618164,0.009765625,0.06201172,0,0,0.06201172,0,4.077,0,0,0,0,nan,2,0.167,0,0,0,0,0,0,0,0,0,1,2,1
268.77,0.001015,0.01757812,0.001953125,0.00390625,-0.03125,-0.125,9.460938,0.005859375,0,0.001953125,0.578125,-0.109375,0,-0.08581543,0.009765625,0.06201172,0,0,0.06201172,0,4.077,0,0,0,0,nan,2,0.177,0,0,0,0,0,0,0,0,0,1,2,1
268.78,0.001181,-0.01953125,-0.0078125,-0.0078125,-0.6015625,0.4609375,9.898438,-0.005859375,0,-0.001953125,0.578125,-0.109375,0,-0.08544922,0.009643555,0.06201172,0,0,0.06201172,0,4.077,0,0,0,0,nan,2,0.186,0,0,0,0,0,0,0,0,0,1,2,1
268.79,0.001058,-0.01171875,0.00390625,0.0078125,-0.1875,0.0078125,9.867188,-0.00390625,0.001953125,0,0.578125,-0.109375,0,-0.08496094,0.009521484,0.06201172,0,0,0.06201172,0,4.077,0,0,0,0,nan,2,0,0,0,0,0,0,0,0,0,0,1,2,1
268.801,0.001113,-0.01171875,0,-0.01171875,0.2109375,0.5390625,9.90625,-0.001953125,0.00390625,-0.01171875,0.578125,-0.109375,0,-0.08447266,0.009521484,0.06188965,0,0,0.06188965,0,4.077,0,0,0,0,nan,2,0.01,0,0,0,0,0,0,0,0,0,1,2,1
268.81,0.001014,0,0.01367188,0.005859375,0,0.3359375,10.08594,-0.005859375,0.00390625,0.00390625,0.578125,-0.109375,0,-0.08410645,0.009521484,0.06188965,0,0,0.06188965,0,4.077,0,0,0,0,nan,2,0.02,0,0,0,0,0,0,0,0,0,1,2,1
268.82,0.000826,0.001953125,-0.00390625,0.02539062,0.0546875,-0.4921875,9.328125,0,0,0.009765625,0.578125,-0.109375,0,-0.08374023,0.009399414,0.06188965,0,0,0.06188965,0,4.077,0,0,0,0,nan,2,0.03,0,0,0,0,0,0,0,0,0,1,2,1
268.83,0.001014,-0.01171875,0.00390625,-0.005859375,-0.09375,0.2578125,10.02344,-0.00390625,0,0,0.578125,-0.109375,0,-0.08337402,0.009399414,0.06188965,0,0,0.06188965,0,4.077,0,0,0,0,nan,2,0.04,0,0,0,0,0,0,0,0,0,1,2,1
268.84,0.001013,0.001953125,-0.01757812,-0.03125,-0.2265625,0.046875,10.05469,0.001953125,-0.001953125,-0.005859375,0.578125,-0.109375,0,-0.08288574,0.009399414,0.06188965,0,0,0.06188965,0,4.077,0,0,0,0,nan,2,0.05,0,0,0,0,0,0,0,0,0,1,2,1
268.85,0.001007,-0.005859375,0.009765625,-0.009765625,-0.0546875,0.2265625,10.16406,-0.00390625,-0.001953125,-0.01171875,0.578125,-0.109375,0,-0.08251953,0.009277344,0.06188965,0,0,0.06188965,0,4.077,0,0,0,0,nan,2,0.06,0,0,0,0,0,0,0,0,0,1,2,1
268.86,0.001013,-0.00390625,0.005859375,0.01757812,-0.140625,-0.1953125,9.75,-0.001953125,0.001953125,0.0078125,0.578125,-0.109375,0,-0.08215332,0.009277344,0.06188965,0,0,0.06188965,0,4.077,0,0,0,0,nan,2,0.07,0,0,0,0,0,0,0,0,0,1,2,1
268.87,0.001013,0,0,-0.00390625,-0.0234375,-0.015625,10.00781,0.001953125,0.001953125,-0.00390625,0.578125,-0.109375,0,-0.08178711,0.009155273,0.06188965,0,0,0.06188965,0,4.077,0,0,0,0,nan,2,0.08,0,0,0,0,0,0,0,0,0,1,2,1
268.88,0.001014,-0.001953125,-0.005859375,-0.005859375,-0.09375,-0.3046875,9.898438,0.001953125,0.001953125,0.005859375,0.578125,-0.109375,0,-0.08129883,0.009155273,0.06188965,0,0,0.06188965,0,4.077,0,0,0,0,nan,2,0.091,0,0,0,0,0,0,0,0,0,1,2,1
268.891,0.001014,-0.00390625,-0.0078125,-0.01171875,0.0625,-0.0546875,9.90625,0,0,-0.001953125,0.578125,-0.109375,0,-0.08093262,0.009033203,0.06188965,0,0,0.06188965,0,4.077,0,0,0,0,nan,2,0.101,0,0,0,0,0,0,0,0,0,1,2,1
268.9,0.001014,-0.005859375,0.0078125,0,0.1171875,-0.0078125,9.78125,-0.001953125,0.00390625,-0.00390625,0.578125,-0.109375,0,-0.08056641,0.009033203,0.06188965,0,0,0.06188965,0,4.077,0,0,0,0,nan,2,0.11,0,0,0,0,0,0,0,0,0,1,2,1
268.91,0.001014,-0.001953125,0.00390625,0.01171875,0.0234375,0.1640625,10.10938,-0.001953125,0.001953125,0,0.578125,-0.109375,0,-0.0802002,0.008911133,0.06188965,0,0,0.06188965,0,4.077,0,0,0,0,nan,2,0.12,0,0,0,0,0,0,0,0,0,1,2,1
268.92,0.001014,-0.001953125,0.001953125,0.00390625,-0.125,0.0390625,9.75,0,-0.001953125,-0.001953125,0.578125,-0.109375,0,-0.07983398,0.008911133,0.06188965,0,0,0.06188965,0,4.077,0,0,0,0,nan,2,0.13,0,0,0,0,0,0,0,0,0,1,2,1
268.93,0.001014,0.005859375,0.001953125,0.001953125,0.1796875,-0.0703125,9.851562,0.001953125,0.001953125,0.001953125,0.578125,-0.109375,0,-0.07946777,0.008789062,0.06188965,0,0,0.06188965,0,4.077,0,0,0,0,nan,2,0.14,0,0,0,0,0,0,0,0,0,1,2,1
268.94,0.001021,-0.0078125,-0.005859375,-0.01367188,-0.0234375,0.1953125,9.65625,-0.00390625,-0.00390625,-0.00390625,0.578125,-0.109375,0,-0.07910156,0.008789062,0.06188965,0,0,0.06188965,0,4.077,0,0,0,0,nan,2,0.15,0,0,0,0,0,0,0,0,0,1,2,1
268.95,0.001019,-0.001953125,0.001953125,-0.001953125,0.15625,-0.09375,9.945312,0,0.001953125,0.001953125,0.578125,-0.109375,0,-0.07873535,0.008666992,0.06188965,0,0,0.06188965,0,4.077,0,0,0,0,nan,2,0.16,0,0,0,0,0,0,0,0,0,1,2,1
268.96,0.001016,-0.00390625,0.00390625,0,0,0.203125,9.835938,-0.00390625,0,-0.00390625,0.578125,-0.109375,0,-0.07836914,0.008666992,0.06188965,0,0,0.06188965,0,4.077,0,0,0,0,nan,2,0.17,0,0,0,0,0,0,0,0,0,1,2,1
268.97,0.000947,-0.001953125,0.001953125,0.005859375,0.0625,-0.265625,9.773438,0,0.00390625,0.00390625,0.578125,-0.109375,0,-0.07800293,0.008666992,0.06188965,0,0,0.06188965,0,4.077,0,0,0,0,nan,2,0.18,0,0,0,0,0,0,0,0,0,1,2,1
268.98,0.001014,-0.0078125,0.001953125,-0.0078125,-0.15625,0,9.898438,-0.005859375,-0.001953125,-0.00390625,0.578125,-0.109375,0,-0.07763672,0.008544922,0.06188965,0,0,0.06188965,0,4.077,0,0,0,0,nan,2,0.191,0,0,0,0,0,0,0,0,0,1,2,1
268.99,0.001189,0.00390625,0.00390625,0.00390625,0.1015625,-0.0703125,9.859375,0,0.00390625,0.001953125,0.578125,-0.109375,0,-0.07727051,0.008544922,0.06188965,0,0,0.06188965,0,4.077,0,0,0,0,nan,2,0.2,0,0,0,0,0,0,0,0,0,1,2,1
269,0.001058,-0.001953125,-0.001953125,-0.01171875,-0.125,0.03125,9.882812,-0.001953125,-0.001953125,-0.00390625,0.578125,-0.109375,0,-0.0769043,0.008422852,0.06188965,0,0,0.06188965,0,4.077,0,0,0,0,nan,2,0.002,0,0,0,0,0,0,0,0,0,1,2,1
269.01,0.001175,-0.001953125,0.00390625,-0.00390625,0.1171875,0.0078125,9.890625,-0.001953125,0.001953125,-0.00390625,0.578125,-0.109375,0,-0.07653809,0.008422852,0.06176758,0,0,0.06176758,0,4.077,0,0,0,0,nan,2,0.012,0,0,0,0,0,0,0,0,0,1,2,1
269.021,0.001165,0,-0.00390625,0.00390625,-0.0546875,-0.0078125,9.78125,-0.001953125,-0.001953125,0.00390625,0.578125,-0.109375,0,-0.07617188,0.008300781,0.06188965,0,0,0.06188965,0,4.077,0,0,0,0,nan,2,0.023,0,0,0,0,0,0,0,0,0,1,2,1
269.03,0.000777,0,0.00390625,0.00390625,0.0625,-0.078125,9.757812,0,0.001953125,-0.001953125,0.578125,-0.109375,0,-0.07580566,0.008300781,0.06188965,0,0,0.06188965,0,4.077,0,0,0,0,nan,2,0.032,0,0,0,0,0,0,0,0,0,1,2,1
269.04,0.001001,-0.001953125,-0.005859375,0.001953125,-0.0546875,-0.03125,9.84375,-0.001953125,-0.001953125,0.001953125,0.578125,-0.109375,0,-0.07543945,0.008300781,0.06188965,0,0,0.06188965,0,4.077,0,0,0,0,nan,2,0.042,0,0,0,0,0,0,0,0,0,1,2,1
269.05,0.0009869999,-0.00390625,0.00390625,-0.005859375,0.0625,-0.0234375,9.914062,-0.001953125,0.001953125,-0.001953125,0.578125,-0.109375,0,-0.07507324,0.008178711,0.06188965,0,0,0.06188965,0,4.077,0,0,0,0,nan,2,0.052,0,0,0,0,0,0,0,0,0,1,2,1
269.06,0.001,-0.001953125,-0.001953125,0,0.0546875,0.0234375,9.84375,-0.001953125,0,-0.00390625,0.578125,-0.109375,0,-0.07470703,0.008178711,0.06188965,0,0,0.06188965,0,4.077,0,0,0,0,nan,2,0.062,0,0,0,0,0,0,0,0,0,1,2,1
269.07,0.001009,0.00390625,0.00390625,0.001953125,0.0703125,-0.0078125,9.851562,0.001953125,0.001953125,0,0.578125,-0.109375,0,-0.07434082,0.008056641,0.06188965,0,0,0.06188965,0,4.077,0,0,0,0,nan,2,0.072,0,0,0,0,0,0,0,0,0,1,2,1
269.08,0.001006,-0.00390625,0,0,0.03125,0,9.75,-0.00390625,0,0,0.578125,-0.109375,0,-0.07397461,0.008056641,0.06188965,0,0,0.06188965,0,4.077,0,0,0,0,nan,2,0.083,0,0,0,0,0,0,0,0,0,1,2,1
269.09,0.001006,0,0.00390625,0.001953125,-0.0234375,-0.0546875,9.773438,-0.001953125,0.001953125,0,0.578125,-0.109375,0,-0.0736084,0.00793457,0.06188965,0,0,0.06188965,0,4.077,0,0,0,0,nan,2,0.093,0,0,0,0,0,0,0,0,0,1,2,1
269.1,0.00101,-0.00390625,0,0.001953125,0.078125,-0.0390625,9.828125,-0.00390625,0.001953125,0,0.578125,-0.109375,0,-0.07336426,0.00793457,0.06188965,0,0,0.06188965,0,4.077,0,0,0,0,nan,2,0.102,0,0,0,0,0,0,0,0,0,1,2,1
269.11,0.001192,0,0.001953125,-0.001953125,0.03125,-0.015625,9.875,-0.001953125,0,0,0.578125,-0.109375,0,-0.07299805,0.00793457,0.06188965,0,0,0.06188965,0,4.077,0,0,0,0,nan,2,0.112,0,0,0,0,0,0,0,0,0,1,2,1
269.12,0.00101,-0.001953125,-0.001953125,0,0.046875,0.0234375,9.84375,0,0,-0.001953125,0.578125,-0.109375,0,-0.07263184,0.0078125,0.06188965,0,0,0.06188965,0,4.077,0,0,0,0,nan,2,0.122,0,0,0,0,0,0,0,0,0,1,2,1
269.13,0.001014,-0.00390625,-0.001953125,0,-0.015625,-0.0234375,9.84375,-0.001953125,-0.001953125,-0.001953125,0.578125,-0.109375,0,-0.0723877,0.0078125,0.06188965,0,0,0.06188965,0,4.077,0,0,0,0,nan,2,0.132,0,0,0,0,0,0,0,0,0,1,2,1
269.14,0.00101,0,0,0,0.0859375,-0.0234375,9.820312,-0.001953125,0.001953125,-0.001953125,0.578125,-0.109375,0,-0.07202148,0.00769043,0.06188965,0,0,0.06188965,0,4.077,0,0,0,0,nan,2,0.142,0,0,0,0,0,0,0,0,0,1,2,1
269.15,0.001015,0,-0.00390625,0.001953125,0,-0.015625,9.84375,-0.001953125,-0.001953125,0.001953125,0.578125,-0.109375,0,-0.07165527,0.00769043,0.06176758,0,0,0.06176758,0,4.077,0,0,0,0,nan,2,0.152,0,0,0,0,0,0,0,0,0,1,2,1
269.161,0.00109,-0.001953125,0,-0.00390625,0.046875,-0.0078125,9.875,-0.001953125,0,0,0.578125,-0.109375,0,-0.07128906,0.007568359,0.06188965,0,0,0.06188965,0,4.077,0,0,0,0,nan,2,0.162,0,0,0,0,0,0,0,0,0,1,2,1
269.17,0.000992,-0.001953125,0.001953125,0,0.015625,-0.0078125,9.898438,0,0,0,0.578125,-0.109375,0,-0.07104492,0.007568359,0.06188965,0,0,0.06188965,0,4.077,0,0,0,0,nan,2,0.172,0,0,0,0,0,0,0,0,0,1,2,1
269.18,0.001163,0.001953125,0,0.001953125,0.0625,-0.0390625,9.835938,0,0.001953125,0,0.578125,-0.109375,0,-0.07067871,0.007568359,0.06188965,0,0,0.06188965,0,4.077,0,0,0,0,nan,2,0.182,0,0,0,0,0,0,0,0,0,1,2,1
269.19,0.001049,-0.001953125,0,-0.001953125,0.109375,-0.015625,9.867188,-0.001953125,0,-0.001953125,0.578125,-0.109375,0,-0.0703125,0.007446289,0.06188965,0,0,0.06188965,0,4.077,0,0,0,0,nan,2,0.192,0,0,0,0,0,0,0,0,0,1,2,1
269.2,0.001146,0,0,0.001953125,0.03125,0.0078125,9.882812,0,0,0,0.578125,-0.109375,0,-0.06994629,0.007446289,0.06188965,0,0,0.06188965,0,4.077,0,0,0,0,nan,2,0.008,0,0,0,0,0,0,0,0,0,1,2,1
269.21,0.001006,-0.001953125,0.001953125,0,0.0546875,-0.046875,9.867188,-0.001953125,0,0,0.578125,-0.109375,0,-0.06970215,0.007324219,0.06188965,0,0,0.06188965,0,4.077,0,0,0,0,nan,2,0.018,0,0,0,0,0,0,0,0,0,1,2,1
269.22,0.001231,-0.001953125,0.00390625,0.001953125,0.015625,-0.03125,9.921875,0,0.001953125,0.001953125,0.578125,-0.109375,0,-0.06933594,0.007324219,0.06188965,0,0,0.06188965,0,4.077,0,0,0,0,nan,2,0.028,0,0,0,0,0,0,0,0,0,1,2,1
269.23,0.001083,-0.00390625,0.001953125,-0.001953125,0.0546875,-0.0078125,9.820312,-0.001953125,0,-0.001953125,0.578125,-0.109375,0,-0.06896973,0.007202148,0.06188965,0,0,0.06188965,0,4.077,0,0,0,0,nan,2,0.038,0,0,0,0,0,0,0,0,0,1,2,1
269.24,0.000999,0.001953125,0,0.001953125,0.0390625,0.015625,9.8125,0,0,0,0.578125,-0.109375,0,-0.06872559,0.007202148,0.06188965,0,0,0.06188965,0,4.077,0,0,0,0,nan,2,0.048,0,0,0,0,0,0,0,0,0,1,2,1
269.25,0.001007,-0.001953125,0,-0.00390625,0.0390625,0,9.875,-0.001953125,0.001953125,0,0.578125,-0.109375,0,-0.06835938,0.007202148,0.06188965,0,0,0.06188965,0,4.077,0,0,0,0,nan,2,0.058,0,0,0,0,0,0,0,0,0,1,2,1
