t,dt_s,gyro_x,gyro_y,gyro_z,acc_x,acc_y,acc_z,rates.x,rates.y,rates.z,ratesTarget.x,ratesTarget.y,ratesTarget.z,attitude.x,attitude.y,attitude.z,attitudeTarget.x,attitudeTarget.y,attitudeTarget.z,thrustTarget,battery_v,rc_roll,rc_pitch,rc_yaw,rc_throttle,rc_mode,flight_mode,rc_age_s,armed,fault_mask,motor_rl,motor_rr,motor_fr,motor_fl,rate_i_x,rate_i_y,rate_i_z,mix_scale,control_source
427.894,0.001017,-0.046875,0.1230469,0.001953125,0.3359375,-0.03125,11.98438,-0.01953125,0.04296875,-0.0078125,0.2617188,0.01367188,0,-0.04370117,-0.002197266,-0.3587646,0,0,-0.3737793,0.7610474,3.972,0,0,0,0.835022,nan,2,0.013,1,0,0.8074036,0.7001343,0.7479858,0.7886658,0.01855469,0.0009765625,0,1,2
427.904,0.001028,-0.01367188,-0.00390625,0.00390625,-3,-2.21875,15.96094,-0.03710938,0.0625,-0.009765625,0.2636719,0.01171875,0,-0.04382324,-0.001953125,-0.3590088,0,0,-0.3737793,0.7610474,3.972,0,0,0,0.835022,nan,2,0.023,1,0,0.7989807,0.7032776,0.7362976,0.8056641,0.01953125,0.0009765625,0,1,2
427.914,0.001013,-0.01953125,0.1152344,0.01171875,1.476562,-0.3125,4.96875,0.03515625,-0.005859375,-0.001953125,0.2617188,0.01367188,0,-0.04370117,-0.002197266,-0.3590088,0,0,-0.3737793,0.7610474,3.972,0,0,0,0.835022,nan,2,0.033,1,0,0.7957458,0.7310486,0.7365417,0.7808838,0.01953125,0.0009765625,0,1,2
427.924,0.001007,0.08007812,-0.0625,-0.00390625,1.367188,-1.828125,8.554688,0.04296875,-0.02148438,0,0.2617188,0.01367188,0,-0.04370117,-0.002197266,-0.3590088,0,0,-0.3737793,0.7610474,3.972,0,0,0,0.835022,nan,2,0.043,1,0,0.797699,0.7373047,0.7339478,0.775238,0.01953125,0.0009765625,0,1,2
427.934,0.001015,0.009765625,0.09570312,0.00390625,-1.4375,-3.484375,8.21875,-0.03515625,0.01367188,-0.005859375,0.2636719,0.01367188,0,-0.04394531,-0.002197266,-0.3591309,0,0,-0.3737793,0.7905273,3.972,0,0,0,0.8699951,nan,2,0.008,1,0,0.8296814,0.7481689,0.7553406,0.828949,0.02050781,0.0009765625,0,1,2
427.945,0.001015,-0.08984375,-0.09960938,-0.0234375,-0.625,1.578125,8,0.01367188,-0.0078125,-0.01171875,0.2636719,0.01171875,0,-0.04382324,-0.001953125,-0.3591309,0,0,-0.3737793,0.7905273,3.972,0,0,0,0.8699951,nan,2,0.018,1,0,0.8152466,0.7814636,0.7324524,0.8329163,0.02050781,0.0009765625,0,1,2
427.954,0.001006,0.02539062,0.09375,-0.02148438,-1.523438,0.6484375,10.90625,-0.03125,-0.005859375,-0.02929688,0.265625,0.01171875,0,-0.04431152,-0.002075195,-0.359375,0,0,-0.3737793,0.7905273,3.972,0,0,0,0.8699951,nan,2,0.027,1,0,0.8048401,0.7760315,0.7336121,0.8475952,0.02050781,0.0009765625,0,1,2
427.964,0.00101,-0.08789062,-0.1171875,-0.02734375,0.9140625,-2.078125,9.171875,-0.078125,-0.02929688,-0.02734375,0.2675781,0.01367188,0,-0.0447998,-0.002197266,-0.3596191,0,0,-0.3737793,0.7905273,3.972,0,0,0,0.8699951,nan,2,0.037,1,0,0.8353882,0.76474,0.7264709,0.8355103,0.02148438,0.0009765625,0,1,2
427.974,0.00101,-0.001953125,-0.0390625,-0.05664062,1.125,0.71875,10.9375,-0.04296875,-0.01757812,-0.03320312,0.2714844,0.01367188,0,-0.04516602,-0.002319336,-0.3598633,0,0,-0.3737793,0.7905273,3.972,0,0,0,0.8699951,nan,2,0.047,1,0,0.8032227,0.7865906,0.7143555,0.8579102,0.02148438,0.0009765625,0,1,2
427.984,0.001007,0.1601562,-0.0859375,0.001953125,-3.046875,-1.492188,10.34375,-0.01953125,-0.03125,-0.01953125,0.2753906,0.015625,0,-0.04577637,-0.002441406,-0.3601074,0,0,-0.3737793,0.7905273,3.972,0,0,0,0.8699951,nan,2,0.058,1,0,0.8398438,0.7553101,0.7666931,0.8002625,0.02148438,0.0009765625,0,1,2
427.994,0.001054,0.01757812,0.1367188,-0.01953125,0.1328125,-0.765625,11.8125,-0.009765625,0.04492188,-0.02539062,0.2753906,0.015625,0,-0.04577637,-0.002563477,-0.3603516,0,0,-0.3737793,0.7905273,3.972,0,0,0,0.8699951,nan,2,0.068,1,0,0.811676,0.7483521,0.7569275,0.8451233,0.02148438,0.0009765625,0,1,2
428.004,0.00101,0.03320312,-0.005859375,-0.03320312,2.335938,1.195312,11.24219,-0.0078125,-0.00390625,-0.02734375,0.2734375,0.01367188,0,-0.0456543,-0.002441406,-0.3605957,0,0,-0.3737793,0.7905273,3.972,0,0,0,0.8699951,nan,2,0.078,1,0,0.8164368,0.7775574,0.7226257,0.845459,0.02246094,0.0009765625,0,1,2
428.014,0.00101,0.0859375,-0.03710938,-0.015625,-0.3046875,1.765625,6.09375,0.001953125,-0.0078125,-0.02539062,0.2734375,0.015625,0,-0.0456543,-0.002441406,-0.3608398,0,0,-0.3737793,0.7905273,3.972,0,0,0,0.8699951,nan,2,0.088,1,0,0.8225403,0.7663269,0.7425537,0.8306885,0.02246094,0.0009765625,0,1,2
428.024,0.001011,0.171875,-0.015625,-0.01367188,-2.84375,-1.351562,7.554688,0.02539062,-0.00390625,-0.005859375,0.2734375,0.015625,0,-0.0456543,-0.002685547,-0.3609619,0,0,-0.3737793,0.7905273,3.972,0,0,0,0.8699951,nan,2,0.098,1,0,0.833252,0.7522888,0.7654419,0.8111267,0.02246094,0.0009765625,0,1,2
428.034,0.001009,-0.09375,-0.1445312,-0.06640625,0.625,-3.257812,8.46875,-0.046875,-0.02148438,-0.046875,0.2734375,0.015625,0,-0.04577637,-0.002563477,-0.3612061,0,0,-0.3737793,0.7905273,3.972,0,0,0,0.8699951,nan,2,0.108,1,0,0.7940674,0.8056946,0.6696167,0.8927307,0.0234375,0.0009765625,0,1,2
428.044,0.000993,0.00390625,-0.01367188,-0.04296875,3.585938,2.546875,11.10938,-0.0234375,-0.02148438,-0.04492188,0.2773438,0.015625,0,-0.04638672,-0.002563477,-0.3615723,0,0,-0.3737793,0.8326416,3.972,0,0,0,0.9199829,nan,2,0.007,1,0,0.8615723,0.8087463,0.7729797,0.887207,0.0234375,0.0009765625,0,1,2
428.054,0.000995,-0.01367188,0.07617188,0.001953125,-2.890625,-1.976562,5.515625,0.01367188,0.01171875,-0.009765625,0.2773438,0.015625,0,-0.04614258,-0.002685547,-0.3619385,0,0,-0.3737793,0.8326416,3.972,0,0,0,0.9199829,nan,2,0.017,1,0,0.9008484,0.7564087,0.8269043,0.8463745,0.0234375,0.0009765625,0,1,2
428.064,0.001378,0.06445312,0.06640625,-0.02734375,-2.859375,-3.382812,11.20312,0,0.01953125,-0.01171875,0.2773438,0.01757812,0,-0.04638672,-0.003051758,-0.3620605,0,0,-0.3737793,0.8705139,3.972,0,0,0,0.9650269,nan,2,0.003,1,128,0.9050598,0.8235168,0.8402405,0.913269,0.0234375,0.0009765625,0,1,2
428.074,0.000988,-0.1347656,-0.01953125,-0.005859375,1.554688,-1.96875,6.359375,-0.07226562,0.046875,-0.01757812,0.2792969,0.015625,0,-0.04638672,-0.002807617,-0.3621826,0,0,-0.3737793,0.8705139,3.972,0,0,0,0.9650269,nan,2,0.013,1,128,0.9269714,0.806366,0.8163452,0.9324341,0.02441406,0.0009765625,0,1,2
428.084,0.001002,-0.05664062,0.04882812,-0.03125,1.296875,5.726562,17.5,-0.04101562,-0.02734375,-0.015625,0.2792969,0.01757812,0,-0.04650879,-0.002929688,-0.3623047,0,0,-0.3737793,0.8705139,3.972,0,0,0,0.9650269,nan,2,0.023,1,128,0.9159851,0.840332,0.8012695,0.92453,0.02441406,0.0009765625,0,1,2
428.094,0.001005,-0.1503906,0.1855469,-0.005859375,-0.2890625,2.875,18.24219,-0.06445312,0.06054688,-0.015625,0.2792969,0.015625,0,-0.04675293,-0.002685547,-0.3625488,0,0,-0.3737793,0.8705139,3.972,0,0,0,0.9650269,nan,2,0.033,1,128,0.9176636,0.7966919,0.8317261,0.9360352,0.02441406,0.0009765625,0,1,2
428.104,0.000983,0.171875,-0.05859375,-0.03320312,0.1328125,-2.484375,7.695312,0.1074219,-0.02539062,-0.02734375,0.28125,0.015625,0,-0.04675293,-0.002563477,-0.362793,0,0,-0.3737793,0.8705139,3.972,0,0,0,0.9650269,nan,2,0.043,1,128,0.8769226,0.8816223,0.8269043,0.896637,0.02539062,0.0009765625,0,1,2
428.114,0.001007,0.09960938,0.01367188,-0.03125,-0.921875,-1.992188,1.625,-0.02734375,0.01367188,-0.03710938,0.28125,0.015625,0,-0.046875,-0.002685547,-0.3631592,0,0,-0.3737793,0.8705139,3.972,0,0,0,0.9650269,nan,2,0.053,1,128,0.8905029,0.8476868,0.8060913,0.9378052,0.02539062,0.0009765625,0,1,2
428.124,0.000975,-0.1113281,0.05273438,-0.02929688,0.9765625,-1.585938,11.69531,0.07226562,-0.02148438,-0.0390625,0.2773438,0.01757812,0,-0.04626465,-0.002929688,-0.3635254,0,0,-0.3737793,0.8999939,3.972,0,0,0,1,nan,2,0.009,1,128,0.9349365,0.8697815,0.8565369,0.9387512,0.02539062,0.0009765625,0,1,2
428.135,0.001017,0.1113281,-0.02148438,-0.0234375,0.296875,-1.914062,9.140625,0.03125,-0.03320312,-0.02539062,0.2734375,0.02148438,0,-0.04577637,-0.003417969,-0.3637695,0,0,-0.3737793,0.8999939,3.972,0,0,0,1,nan,2,0.019,1,128,0.9494324,0.8583374,0.8554688,0.9367371,0.02539062,0.001953125,0,1,2
428.145,0.000973,-0.04492188,0.06445312,-0.01367188,-3.859375,-0.828125,10.42188,-0.1347656,0.04492188,-0.015625,0.28125,0.02148438,0,-0.046875,-0.003540039,-0.3640137,0,0,-0.3737793,0.8999939,3.972,0,0,0,1,nan,2,0.004,1,128,0.9560242,0.8319092,0.8469849,0.9650879,0.02636719,0.001953125,0,1,2
428.154,0.001019,-0.046875,0.00390625,-0.05078125,1.140625,-4.453125,9.429688,-0.09375,0.05273438,-0.02929688,0.2871094,0.01757812,0,-0.04797363,-0.003051758,-0.3642578,0,0,-0.3737793,0.8999939,3.972,0,0,0,1,nan,2,0.013,1,128,0.9170837,0.8740234,0.8306885,0.9782104,0.02636719,0.001953125,0,1,2
428.164,0.000997,-0.09960938,0.04101562,-0.04101562,-0.3515625,-2.085938,15.5,0,-0.0078125,-0.03515625,0.2890625,0.01757812,0,-0.04821777,-0.003051758,-0.364502,0,0,-0.3737793,0.8999939,3.957,0,0,0,1,nan,2,0.023,1,128,0.9268799,0.8832397,0.8322754,0.9576111,0.02636719,0.001953125,0,1,2
428.174,0.00102,0.02734375,0.01953125,-0.05664062,2.109375,3.914062,4.078125,-0.0078125,-0.0390625,-0.0546875,0.2910156,0.01757812,0,-0.04858398,-0.002929688,-0.3651123,0,0,-0.3737793,0.8999939,3.957,0,0,0,1,nan,2,0.033,1,128,0.9273682,0.902832,0.8197021,0.9501038,0.02734375,0.001953125,0,1,2
428.184,0.000996,-0.125,0.1015625,-0.00390625,3.921875,1.5,13.51562,-0.01171875,0.02734375,-0.03515625,0.2890625,0.01757812,0,-0.04833984,-0.002807617,-0.3654785,0,0,-0.3737793,0.8999939,3.957,0,0,0,1,nan,2,0.004,1,128,0.9587097,0.8321838,0.8623657,0.9467468,0.02734375,0.001953125,0,1,2
428.194,0.001018,-0.07617188,0.09179688,-0.009765625,1.78125,1.585938,11.73438,-0.01953125,0.05078125,-0.02734375,0.2910156,0.015625,0,-0.04858398,-0.002563477,-0.3658447,0,0,-0.3737793,0.8999939,3.957,0,0,0,1,nan,2,0.014,1,128,0.9414673,0.8438721,0.8622131,0.9524536,0.02734375,0.001953125,0,1,2
428.204,0.001012,0.02148438,-0.07421875,-0.046875,0.265625,0.9453125,13.84375,-0.015625,-0.04101562,-0.0234375,0.2929688,0.015625,0,-0.04882812,-0.002685547,-0.3659668,0,0,-0.3737793,0.8999939,3.957,0,0,0,1,nan,2,0.024,1,128,0.9422913,0.8852844,0.8224182,0.9500122,0.02832031,0.001953125,0,1,2
428.214,0.001011,0.08007812,0.05078125,-0.05664062,-1.898438,2.046875,9.921875,0.009765625,0.009765625,-0.04296875,0.2910156,0.01757812,0,-0.04858398,-0.002929688,-0.366333,0,0,-0.3737793,0.8999939,3.957,0,0,0,1,nan,2,0.034,1,128,0.914978,0.8795776,0.8356628,0.9697571,0.02832031,0.001953125,0,1,2
428.224,0.001012,0.1191406,0.08984375,-0.01953125,-0.9140625,0.5546875,11.45312,0.06640625,-0.015625,-0.02539062,0.2890625,0.01953125,0,-0.04833984,-0.003173828,-0.3666992,0,0,-0.3737793,0.8999939,3.957,0,0,0,1,nan,2,0.044,1,128,0.9368896,0.8635864,0.8699036,0.9295959,0.02832031,0.001953125,0,1,2
428.234,0.001011,0.05859375,-0.1191406,-0.0234375,-0.7578125,-1.828125,5.664062,-0.02148438,-0.03125,-0.02734375,0.2910156,0.01953125,0,-0.04846191,-0.003173828,-0.3669434,0,0,-0.3737793,0.8999939,3.957,0,0,0,1,nan,2,0.055,1,128,0.9545898,0.8662415,0.8370972,0.9420776,0.02929688,0.001953125,0,1,2
428.244,0.001012,-0.1289062,0.15625,-0.0234375,-1.109375,0.609375,8.585938,-0.08789062,0.04101562,-0.02929688,0.2910156,0.01757812,0,-0.04833984,-0.003051758,-0.3673096,0,0,-0.3737793,0.8999939,3.957,0,0,0,1,nan,2,0.065,1,128,0.9568481,0.8282776,0.8380432,0.9768372,0.02929688,0.001953125,0,1,2
428.255,0.001011,0.08984375,0.06054688,-0.01171875,2.164062,-0.5234375,8.710938,0.02929688,0.005859375,-0.02734375,0.2929688,0.01757812,0,-0.04882812,-0.002929688,-0.3676758,0,0,-0.3737793,0.8999939,3.957,0,0,0,1,nan,2,0.075,1,128,0.9389954,0.8657837,0.8659973,0.9292297,0.02929688,0.001953125,0,1,2
428.264,0.001008,-0.0078125,-0.04296875,0.001953125,-0.03125,-3.375,11.09375,0.01757812,-0.00390625,-0.00390625,0.2929688,0.01757812,0,-0.04882812,-0.002929688,-0.3677979,0,0,-0.3737793,0.8999939,3.957,0,0,0,1,nan,2,0.084,1,128,0.9697876,0.8369141,0.880188,0.9131165,0.03027344,0.001953125,0,1,2
428.274,0.001009,-0.05273438,-0.046875,-0.00390625,-0.7578125,-0.9921875,10.92969,0.04492188,-0.03320312,-0.015625,0.2890625,0.02148438,0,-0.04833984,-0.003417969,-0.3679199,0,0,-0.3737793,0.8999939,3.957,0,0,0,1,nan,2,0.094,1,128,0.9541626,0.855835,0.8513489,0.9386597,0.03027344,0.001953125,0,1,2
428.284,0.001009,0.07421875,-0.0703125,-0.03125,-1.625,-5.054688,6.203125,-0.046875,-0.009765625,-0.02539062,0.2910156,0.02148438,0,-0.04858398,-0.003417969,-0.3681641,0,0,-0.3737793,0.8999939,3.957,0,0,0,1,nan,2,0.104,1,128,0.941803,0.8686829,0.8214722,0.9680481,0.03027344,0.001953125,0,1,2
428.294,0.001014,-0.2382812,0.140625,-0.03515625,0.65625,1.226562,19.79688,-0.02929688,0.0078125,-0.03125,0.2929688,0.02148438,0,-0.04870605,-0.003662109,-0.3684082,0,0,-0.3737793,0.8999939,3.957,0,0,0,1,nan,2,0.114,1,128,0.9374695,0.8548279,0.8266907,0.9810181,0.03027344,0.001953125,0,1,2
428.304,0.001008,-0.02929688,-0.0390625,-0.0390625,3.398438,3.210938,15.71094,0.0078125,0.02734375,-0.04296875,0.2929688,0.02148438,0,-0.04882812,-0.003540039,-0.3687744,0,0,-0.3737793,0.8999939,3.957,0,0,0,1,nan,2,0.124,1,128,0.9282837,0.8695679,0.8372498,0.9649048,0.03125,0.001953125,0,1,2
428.314,0.001016,0.09960938,-0.01953125,-0.02929688,-1.398438,6.0625,12.54688,0.04882812,-0.04882812,-0.0390625,0.2910156,0.0234375,0,-0.04833984,-0.00390625,-0.3692627,0,0,-0.3737793,0.8999939,3.957,0,0,0,1,nan,2,0.134,1,128,0.9491882,0.8722534,0.8410339,0.9375,0.03125,0.001953125,0,1,2
428.324,0.001008,-0.0234375,0.0546875,-0.04296875,3.28125,5.453125,15.11719,-0.01953125,0.0078125,-0.03320312,0.2910156,0.0234375,0,-0.04846191,-0.00390625,-0.3695068,0,0,-0.3737793,0.8999939,3.957,0,0,0,1,nan,2,0.144,1,128,0.9422607,0.8539734,0.8322754,0.9714661,0.03125,0.001953125,0,1,2
428.334,0.001009,-0.09960938,0.078125,-0.005859375,1.882812,2.851562,13.15625,-0.08398438,0.046875,-0.0078125,0.2910156,0.0234375,0,-0.04870605,-0.00390625,-0.369751,0,0,-0.3737793,0.8999939,3.957,0,0,0,1,nan,2,0.154,1,128,0.9767151,0.8068848,0.8590698,0.9573364,0.03222656,0.001953125,0,1,2
428.344,0.001008,-0.2167969,-0.06445312,-0.01953125,0.8671875,0.8828125,12.51562,-0.1210938,0.01757812,-0.00390625,0.2949219,0.0234375,0,-0.04907227,-0.00378418,-0.369751,0,0,-0.3737793,0.8999939,3.957,0,0,0,1,nan,2,0.165,1,128,0.9697876,0.8345032,0.8183899,0.9772949,0.03222656,0.001953125,0,1,2
428.355,0.001009,0.0703125,0.1328125,-0.01171875,-0.125,-2.71875,7.703125,0.04492188,0,-0.01953125,0.2949219,0.0234375,0,-0.04919434,-0.00390625,-0.3699951,0,0,-0.3737793,0.8999939,3.957,0,0,0,1,nan,2,0.175,1,128,0.928833,0.8700867,0.8545227,0.9465332,0.03222656,0.001953125,0,1,2
428.364,0.001037,-0.078125,0.1992188,-0.0234375,-1.804688,-1.242188,6.789062,0.005859375,0.06054688,-0.02929688,0.296875,0.02148438,0,-0.04931641,-0.003662109,-0.3701172,0,0,-0.3737793,0.8999939,3.957,0,0,0,1,nan,2,0.184,1,128,0.9174194,0.8634338,0.8418274,0.9773254,0.03320312,0.001953125,0,1,2
428.374,0.001006,0.1660156,-0.1601562,-0.04492188,-0.21875,3.40625,12.54688,0.03320312,-0.015625,-0.03710938,0.296875,0.02148438,0,-0.04956055,-0.003417969,-0.3704834,0,0,-0.3737793,0.8999939,3.957,0,0,0,1,nan,2,0.194,1,128,0.9272156,0.8985596,0.8250122,0.9491882,0.03320312,0.001953125,0,1,2
428.384,0.000982,0.1425781,-0.04101562,-0.01953125,-1.398438,1.960938,11.60156,0.001953125,-0.03515625,-0.02929688,0.296875,0.02148438,0,-0.04956055,-0.003540039,-0.3708496,0,0,-0.3737793,0.8999939,3.957,0,0,0,1,nan,2,0.204,1,128,0.9584656,0.8701477,0.8380737,0.9333191,0.03320312,0.001953125,0,1,2
428.394,0.001002,-0.1113281,0.078125,-0.015625,-1.195312,1.8125,11.79688,-0.05664062,0.03320312,-0.02929688,0.296875,0.01953125,0,-0.04943848,-0.003417969,-0.3712158,0,0,-0.3737793,0.8999939,3.957,0,0,0,1,nan,2,0.005,1,128,0.9627991,0.8293152,0.8398438,0.9680176,0.03320312,0.001953125,0,1,2
428.404,0.001012,0.07617188,0.01171875,-0.01171875,0.6328125,-0.578125,18.97656,0.04882812,-0.00390625,-0.009765625,0.296875,0.01953125,0,-0.04943848,-0.003417969,-0.3713379,0,0,-0.3737793,0.8999939,3.957,0,0,0,1,nan,2,0.015,1,128,0.9511414,0.8547974,0.8619385,0.9321289,0.03417969,0.001953125,0,1,2
428.414,0.000976,-0.25,0.01171875,0.00390625,-0.5390625,-0.9765625,12.35938,-0.1542969,0.03125,0.015625,0.3007812,0.01953125,0,-0.05004883,-0.003173828,-0.3712158,0,0,-0.3737793,0.8999939,3.957,0,0,0,1,nan,2,0.025,1,128,0.9945984,0.8057861,0.8361816,0.9634399,0.03417969,0.001953125,0,1,2
428.424,0.001012,0.2324219,-0.08007812,0.01171875,1.40625,-1.765625,8.328125,0.06054688,-0.001953125,0.005859375,0.3027344,0.01757812,0,-0.05053711,-0.002929688,-0.3710938,0,0,-0.3737793,0.8999939,3.957,0,0,0,1,nan,2,0.035,1,128,0.9354553,0.8815918,0.8624573,0.9205017,0.03515625,0.001953125,0,1,2
428.434,0.001011,-0.02734375,0.1367188,0.02539062,1.054688,5.375,22.9375,0.02734375,0.02734375,0.0234375,0.2988281,0.01757812,0,-0.04980469,-0.002929688,-0.3709717,0,0,-0.3737793,0.8999939,3.957,0,0,0,1,nan,2,0.045,1,128,0.9671936,0.8208313,0.8652344,0.9467468,0.03515625,0.001953125,0,1,2
428.444,0.001012,-0.05859375,-0.2421875,0,0.609375,6.28125,13.79688,-0.08203125,-0.01757812,0.009765625,0.3007812,0.015625,0,-0.05029297,-0.002685547,-0.3707275,0,0,-0.3737793,0.8999939,3.957,0,0,0,1,nan,2,0.056,1,128,0.9690247,0.8608093,0.8096924,0.9604797,0.03515625,0.001953125,0,1,2
428.455,0.001011,0.078125,0.05859375,-0.0234375,-1.765625,1.679688,11.46875,-0.03320312,0.015625,-0.01953125,0.3046875,0.015625,0,-0.05078125,-0.002685547,-0.3708496,0,0,-0.3737793,0.8999939,3.957,0,0,0,1,nan,2,0.066,1,128,0.922699,0.8760986,0.8188171,0.9823914,0.03515625,0.001953125,0,1,2
428.465,0.001012,0.08007812,0.05664062,0.02929688,-2.421875,0.1640625,15.16406,0.005859375,0.01367188,-0.001953125,0.3046875,0.015625,0,-0.05090332,-0.002563477,-0.3709717,0,0,-0.3737793,0.8999939,3.957,0,0,0,1,nan,2,0.076,1,128,0.9644775,0.8372803,0.8657227,0.9325256,0.03613281,0.001953125,0,1,2
428.474,0.001004,-0.1894531,0.1484375,0.0390625,-0.6015625,-4.710938,15.32031,-0.05273438,0.02929688,0.02539062,0.3046875,0.015625,0,-0.05090332,-0.002441406,-0.3708496,0,0,-0.3737793,0.8999939,3.957,0,0,0,1,nan,2,0.085,1,128,0.9964905,0.7964783,0.8690186,0.9379883,0.03613281,0.001953125,0,1,2
428.484,0.001007,-0.0078125,0.046875,-0.005859375,0.6640625,-3.21875,4.796875,-0.015625,0.03515625,0.01757812,0.3046875,0.01367188,0,-0.05090332,-0.002319336,-0.3706055,0,0,-0.3737793,0.8999939,3.957,0,0,0,1,nan,2,0.095,1,128,0.9473572,0.8452759,0.8368225,0.9705505,0.03613281,0.001953125,0,1,2
428.494,0.000997,-0.2382812,0.03125,-0.01953125,2.25,0.171875,7.304688,-0.06054688,0.04296875,-0.009765625,0.3046875,0.01367188,0,-0.05065918,-0.002319336,-0.3706055,0,0,-0.3737793,0.8999939,3.957,0,0,0,1,nan,2,0.105,1,128,0.9397278,0.8256836,0.7979126,1,0.03710938,0.001953125,0,1,2
428.504,0.001004,0.06640625,0.01757812,-0.005859375,3.078125,2.703125,12.70312,-0.015625,0.01171875,0.001953125,0.3046875,0.01367188,0,-0.05065918,-0.002319336,-0.3706055,0,0,-0.3737793,0.8999939,3.957,0,0,0,1,nan,2,0.115,1,128,0.970459,0.8337097,0.8470154,0.9487915,0.03710938,0.001953125,0,1,2
428.514,0.001004,-0.1347656,0.1699219,0.0234375,-0.578125,3.195312,14.57812,0.00390625,0.03515625,0.0078125,0.3046875,0.01171875,0,-0.05078125,-0.001953125,-0.3707275,0,0,-0.3737793,0.8999939,3.957,0,0,0,1,nan,2,0.125,1,128,0.9694519,0.8210144,0.8668213,0.9427185,0.03710938,0.001953125,0,1,2
428.524,0.001004,-0.06445312,0.1054688,0.0234375,0.9453125,2.734375,15.89062,-0.03320312,-0.00390625,0.009765625,0.3046875,0.01171875,0,-0.05065918,-0.001831055,-0.3706055,0,0,-0.3737793,0.8999939,3.957,0,0,0,1,nan,2,0.135,1,128,0.982666,0.8173828,0.8433838,0.9565735,0.03808594,0.001953125,0,1,2
428.534,0.001004,0.08398438,-0.1679688,0.03125,0.1015625,2.71875,12.27344,0.01171875,-0.0546875,0.02734375,0.3046875,0.01171875,0,-0.05078125,-0.001831055,-0.3703613,0,0,-0.3737793,0.8999939,3.957,0,0,0,1,nan,2,0.145,1,128,0.9910278,0.836853,0.8587036,0.9134216,0.03808594,0.001953125,0,1,2
428.544,0.001004,-0.1640625,0.1640625,0.02929688,-0.3203125,-1.695312,13.57031,-0.046875,0.06640625,0.02148438,0.3046875,0.01171875,0,-0.05065918,-0.001831055,-0.3702393,0,0,-0.3737793,0.8999939,3.957,0,0,0,1,nan,2,0.156,1,128,0.9657593,0.8046265,0.8521118,0.977478,0.03808594,0.001953125,0,1,2
428.554,0.001033,0.1484375,-0.09960938,-0.0078125,-0.4765625,-3.648438,8.453125,0.015625,0.01367188,0.0078125,0.3066406,0.009765625,0,-0.05102539,-0.001708984,-0.3701172,0,0,-0.3737793,0.8999939,3.957,0,0,0,1,nan,2,0.165,1,128,0.9404907,0.8674011,0.8395996,0.9525146,0.0390625,0.001953125,0,1,2
428.565,0.001012,-0.02929688,-0.015625,0.001953125,-0.578125,-0.8203125,9.203125,0.00390625,-0.009765625,0.005859375,0.3046875,0.009765625,0,-0.05090332,-0.001708984,-0.3699951,0,0,-0.3737793,0.8999939,3.957,0,0,0,1,nan,2,0.176,1,128,0.9596558,0.8537598,0.8331909,0.9533997,0.0390625,0.001953125,0,1,2
428.574,0.001014,-0.1425781,0.03125,-0.0078125,1.226562,-0.90625,8.507812,-0.06054688,0.02539062,0,0.3046875,0.01171875,0,-0.05090332,-0.001831055,-0.3699951,0,0,-0.3737793,0.8999939,3.957,0,0,0,1,nan,2,0.185,1,128,0.961853,0.8326721,0.8171387,0.9883423,0.0390625,0.001953125,0,1,2
428.584,0.000978,0.2753906,-0.02148438,-0.01367188,0.359375,3.1875,13.21094,0.08007812,0.001953125,-0.009765625,0.3085938,0.009765625,0,-0.05151367,-0.001464844,-0.3701172,0,0,-0.3737793,0.8999939,3.957,0,0,0,1,nan,2,0.007,1,128,0.9305115,0.8861084,0.8579407,0.9254456,0.04003906,0.001953125,0,1,2
428.594,0.001004,-0.05273438,-0.05078125,-0.0390625,-0.015625,-0.7265625,16.38281,-0.05078125,0.0234375,-0.02734375,0.3066406,0.005859375,0,-0.05114746,-0.001098633,-0.3702393,0,0,-0.3737793,0.8999939,3.957,0,0,0,1,nan,2,0.017,1,128,0.9378662,0.8663025,0.797821,0.9979858,0.04003906,0.001953125,0,1,2
428.604,0.001013,-0.2539062,0.1210938,-0.03320312,-1.75,-1.382812,5.867188,-0.03320312,0.03515625,-0.02929688,0.3046875,0.005859375,0,-0.05090332,-0.001098633,-0.3704834,0,0,-0.3737793,0.8999939,3.957,0,0,0,1,nan,2,0.027,1,128,0.9530945,0.8342285,0.8211975,0.9914551,0.04003906,0.001953125,0,1,2
428.614,0.001011,0.2050781,0.03515625,-0.01953125,2.429688,2.109375,4.867188,0.0234375,-0.02148438,-0.02539062,0.3046875,0.0078125,0,-0.05078125,-0.001220703,-0.3708496,0,0,-0.3737793,0.8999939,3.957,0,0,0,1,nan,2,0.037,1,128,0.9610901,0.8513794,0.842041,0.9454956,0.04003906,0.001953125,0,1,2
428.624,0.001012,-0.1054688,-0.03125,-0.015625,0.7265625,1.851562,5.789062,-0.0625,0.00390625,-0.0234375,0.3066406,0.009765625,0,-0.05102539,-0.001464844,-0.3710938,0,0,-0.3737793,0.8999939,3.957,0,0,0,1,nan,2,0.047,1,128,0.967804,0.8262939,0.8295898,0.9763184,0.04101562,0.001953125,0,1,2
428.634,0.001011,-0.125,0.00390625,-0.01953125,0.265625,3.71875,4.179688,-0.04492188,-0.0234375,-0.005859375,0.3066406,0.009765625,0,-0.05102539,-0.001708984,-0.3712158,0,0,-0.3737793,0.8999939,3.957,0,0,0,1,nan,2,0.058,1,128,0.9804077,0.8321533,0.8262634,0.9611816,0.04101562,0.001953125,0,1,2
428.644,0.001012,0.2636719,-0.02148438,-0.03515625,-0.4140625,-2.46875,15.89844,0.09179688,-0.05859375,-0.01757812,0.3066406,0.01171875,0,-0.05090332,-0.001831055,-0.3712158,0,0,-0.3737793,0.8999939,3.957,0,0,0,1,nan,2,0.068,1,128,0.9256592,0.9019775,0.8233948,0.9489746,0.04101562,0.001953125,0,1,2
428.655,0.001011,0.2441406,-0.015625,-0.05078125,-2.328125,-2.117188,10.52344,0.02734375,0.0234375,-0.02734375,0.3066406,0.01367188,0,-0.05114746,-0.002075195,-0.37146,0,0,-0.3737793,0.8999939,3.957,0,0,0,1,nan,2,0.078,1,128,0.920105,0.8790588,0.8272095,0.9736328,0.04199219,0.001953125,0,1,2
428.665,0.001011,-0.0703125,0.06054688,-0.02148438,-2.75,-3.039062,13.28906,0.02734375,0,-0.03320312,0.3066406,0.01367188,0,-0.05102539,-0.002075195,-0.3718262,0,0,-0.3737793,0.8999939,3.957,0,0,0,1,nan,2,0.088,1,128,0.9508362,0.855835,0.8324585,0.960907,0.04199219,0.001953125,0,1,2
428.674,0.000994,-0.2734375,0.28125,-0.03125,0.1484375,-3.484375,10.01562,-0.0625,0.06445312,-0.0234375,0.3085938,0.01171875,0,-0.0513916,-0.001953125,-0.3720703,0,0,-0.3737793,0.8999939,3.957,0,0,0,1,nan,2,0.097,1,128,0.9593506,0.8060608,0.8380432,0.9965515,0.04199219,0.001953125,0,1,2
428.684,0.000992,0.0078125,-0.09375,-0.04296875,-0.0703125,-0.1328125,29.10156,0.02148438,-0.005859375,-0.046875,0.3105469,0.01171875,0,-0.05163574,-0.001831055,-0.3724365,0,0,-0.3737793,0.8999939,3.957,0,0,0,1,nan,2,0.107,1,128,0.9336548,0.8818665,0.8111877,0.9732971,0.04296875,0.001953125,0,1,2
428.694,0.001009,0.00390625,-0.08007812,-0.015625,3.890625,2.710938,15.01562,0.00390625,-0.0078125,-0.02539062,0.3085938,0.01171875,0,-0.05151367,-0.001953125,-0.3728027,0,0,-0.3737793,0.8999939,3.957,0,0,0,1,nan,2,0.117,1,128,0.9821777,0.82724,0.8472595,0.9433289,0.04296875,0.001953125,0,1,2
428.704,0.001016,0.015625,-0.009765625,-0.02734375,0.984375,5.414062,12.99219,0.009765625,0.00390625,-0.03320312,0.3085938,0.01367188,0,-0.0513916,-0.002075195,-0.3731689,0,0,-0.3737793,0.8999939,3.957,0,0,0,1,nan,2,0.127,1,128,0.954834,0.8432617,0.8358765,0.9660339,0.04296875,0.001953125,0,1,2
428.714,0.001008,0.15625,-0.1210938,-0.03710938,0.1015625,5.6875,14.33594,-0.001953125,-0.0234375,-0.02539062,0.3105469,0.01171875,0,-0.05163574,-0.002075195,-0.3734131,0,0,-0.3737793,0.8999939,3.957,0,0,0,1,nan,2,0.137,1,128,0.9620361,0.8613586,0.8225098,0.954071,0.04394531,0.001953125,0,1,2
428.724,0.001009,-0.02539062,0.015625,-0.03125,-0.3671875,3.671875,10.36719,0.02929688,0.0234375,-0.03515625,0.3085938,0.01367188,0,-0.0513916,-0.002075195,-0.3737793,0,0,-0.3737793,0.8999939,3.957,0,0,0,1,nan,2,0.147,1,128,0.9447632,0.8477783,0.8328552,0.9745789,0.04394531,0.001953125,0,1,2
428.734,0.001008,-0.1425781,0.140625,-0.01367188,-0.8203125,2.75,10.39062,-0.05859375,0.046875,-0.015625,0.3085938,0.01367188,0,-0.0513916,-0.002197266,-0.3740234,0,0,-0.3737793,0.8999939,3.957,0,0,0,1,nan,2,0.158,1,128,0.9683228,0.815033,0.8298645,0.9867554,0.04394531,0.001953125,0,1,2
428.744,0.001009,0.05273438,0.06054688,0.01367188,-2.34375,-4.304688,9.382812,0.02734375,0.001953125,-0.001953125,0.3066406,0.01171875,0,-0.05126953,-0.002075195,-0.3740234,0,0,-0.3737793,0.8999939,3.957,0,0,0,1,nan,2,0.168,1,128,0.9732666,0.8318481,0.8542175,0.9406738,0.04492188,0.001953125,0,1,2
428.755,0.001008,-0.0078125,0.09179688,0.015625,-3.367188,-3.648438,10.85938,-0.015625,0.015625,-0.01367188,0.3085938,0.01367188,0,-0.05126953,-0.002197266,-0.3742676,0,0,-0.3737793,0.8999939,3.957,0,0,0,1,nan,2,0.178,1,128,0.9712524,0.8267212,0.841217,0.9607849,0.04492188,0.001953125,0,1,2
428.765,0.001009,0.04101562,0.02734375,0.01171875,0.28125,-2.898438,8.046875,-0.02929688,0.01953125,-0.005859375,0.3085938,0.01171875,0,-0.05151367,-0.002075195,-0.3742676,0,0,-0.3737793,0.8999939,3.957,0,0,0,1,nan,2,0.188,1,128,0.9757996,0.8202209,0.8416138,0.9623718,0.04492188,0.001953125,0,1,2
428.774,0.000998,0.03125,-0.1015625,-0.0390625,2.195312,5.210938,7.429688,-0.01171875,-0.04882812,-0.0234375,0.3085938,0.01367188,0,-0.05151367,-0.002197266,-0.3743896,0,0,-0.3737793,0.8999939,3.957,0,0,0,1,nan,2,0.197,1,128,0.9544067,0.8720398,0.7952881,0.9782715,0.04589844,0.001953125,0,1,2
428.784,0.000998,-0.078125,0.2285156,-0.01171875,1.085938,4.703125,10.34375,0.00390625,0.04101562,-0.01757812,0.3085938,0.01367188,0,-0.05151367,-0.002319336,-0.3746338,0,0,-0.3737793,0.8999939,3.957,0,0,0,1,nan,2,0.207,1,128,0.9490967,0.8300476,0.8433838,0.9774475,0.04589844,0.001953125,0,1,2
428.794,0.001017,0.2246094,-0.01757812,-0.05078125,2.023438,1.15625,16.70312,0.03710938,0.0078125,-0.02929688,0.3085938,0.01367188,0,-0.05151367,-0.002319336,-0.3748779,0,0,-0.3737793,0.8999939,3.957,0,0,0,1,nan,2,0.217,1,128,0.9267578,0.8733215,0.8138123,0.986084,0.04589844,0.001953125,0,1,2
428.804,0.001028,-0.1699219,-0.1171875,-0.0078125,-0.3984375,-0.46875,8.835938,-0.05273438,-0.05859375,-0.01757812,0.3085938,0.015625,0,-0.05126953,-0.002563477,-0.375,0,0,-0.3737793,0.8999939,3.957,0,0,0,1,nan,2,0.227,1,128,0.9998474,0.829834,0.8046875,0.9656372,0.04589844,0.001953125,0,1,2
428.814,0.0009860001,-0.03320312,-0.046875,0.01171875,0.109375,-1.320312,13.63281,0.015625,-0.03320312,0.01171875,0.3085938,0.01757812,0,-0.05163574,-0.002807617,-0.375,0,0,-0.3737793,0.8999939,3.962,0,0,0,1,nan,2,0.237,1,128,0.9968567,0.8179016,0.8569031,0.9283142,0.046875,0.001953125,0,1,2
428.824,0.000999,-0.01953125,0.1621094,0.04492188,-1.648438,-1.351562,7.234375,0.0078125,0.009765625,0.02734375,0.3085938,0.01953125,0,-0.0513916,-0.003173828,-0.3748779,0,0,-0.3737793,0.8999939,3.962,0,0,0,1,nan,2,0.247,1,128,0.9942627,0.7963257,0.875824,0.9335632,0.046875,0.002929688,0,1,2
428.835,0.00101,-0.2636719,0.001953125,0.01757812,-2.070312,-3.554688,9.75,-0.03320312,0.03125,0.01367188,0.3085938,0.01757812,0,-0.05151367,-0.002929688,-0.3746338,0,0,-0.3737793,0.8999939,3.962,0,0,0,1,nan,2,0.005,1,128,0.9642029,0.829834,0.8177185,0.9882507,0.046875,0.002929688,0,1,2
428.845,0.001023,0.1425781,-0.140625,0.01953125,-2.890625,-0.7421875,5.898438,0.01953125,0,0.01953125,0.3105469,0.015625,0,-0.05163574,-0.002685547,-0.3745117,0,0,-0.3737793,0.8999939,3.962,0,0,0,1,nan,2,0.015,1,128,0.9817505,0.8380737,0.8462524,0.9339294,0.04785156,0.002929688,0,1,2
428.855,0.001011,-0.07617188,0.07617188,-0.01171875,2.148438,1.3125,4.640625,-0.05664062,0.02148438,0.005859375,0.3085938,0.015625,0,-0.05151367,-0.002685547,-0.3743896,0,0,-0.3737793,0.8999939,3.962,0,0,0,1,nan,2,0.025,1,128,0.9638062,0.8351135,0.8027344,0.9983521,0.04785156,0.002929688,0,1,2
428.865,0.001012,0.09765625,-0.08984375,-0.03320312,4.21875,0.390625,6.632812,-0.005859375,0.03125,-0.01171875,0.3105469,0.015625,0,-0.05163574,-0.002563477,-0.3743896,0,0,-0.3737793,0.8999939,3.962,0,0,0,1,nan,2,0.035,1,128,0.9412842,0.8562927,0.8135986,0.9888,0.04785156,0.002929688,0,1,2
428.874,0.001004,0.0703125,-0.05273438,-0.005859375,-0.421875,0.3828125,13.9375,0.03320312,-0.02539062,-0.005859375,0.3085938,0.01757812,0,-0.05151367,-0.002807617,-0.3745117,0,0,-0.3737793,0.8999939,3.962,0,0,0,1,nan,2,0.044,1,128,0.9729614,0.8444214,0.8360901,0.9465332,0.04882812,0.002929688,0,1,2
428.884,0.001004,-0.08789062,-0.09375,-0.01953125,0.5,0.6328125,12.28906,-0.02148438,0.00390625,-0.005859375,0.3085938,0.015625,0,-0.05151367,-0.002685547,-0.3746338,0,0,-0.3737793,0.8999939,3.962,0,0,0,1,nan,2,0.055,1,128,0.9706116,0.8371887,0.8154907,0.9767151,0.04882812,0.002929688,0,1,2
428.894,0.001006,-0.1210938,0.1425781,0.015625,-1.195312,-2.695312,7.59375,-0.0390625,0.01953125,0.0078125,0.3085938,0.01757812,0,-0.05126953,-0.002929688,-0.3746338,0,0,-0.3737793,0.8999939,3.962,0,0,0,1,nan,2,0.065,1,128,0.9961853,0.7931519,0.8448792,0.9657898,0.04882812,0.002929688,0,1,2
428.904,0.000999,-0.1074219,0.03515625,0.00390625,-1.304688,1.757812,10.78906,-0.009765625,0.015625,0.01367188,0.3066406,0.01757812,0,-0.05114746,-0.002929688,-0.3745117,0,0,-0.3737793,0.8999939,3.962,0,0,0,1,nan,2,0.075,1,128,0.984375,0.8127441,0.8399658,0.9629211,0.04980469,0.002929688,0,1,2
428.914,0.001002,0.015625,0.01367188,-0.01757812,0.9296875,-0.1953125,3.890625,0.04882812,0.005859375,-0.001953125,0.3066406,0.015625,0,-0.05114746,-0.002807617,-0.3743896,0,0,-0.3737793,0.8999939,3.962,0,0,0,1,nan,2,0.085,1,128,0.9378967,0.8672791,0.8171997,0.9776306,0.04980469,0.002929688,0,1,2
428.924,0.001017,0.1171875,-0.1386719,-0.0078125,0.8046875,2.695312,7.828125,0.03710938,-0.07617188,-0.01953125,0.3066406,0.01757812,0,-0.05114746,-0.002807617,-0.3745117,0,0,-0.3737793,0.8999939,3.962,0,0,0,1,nan,2,0.095,1,128,0.9616699,0.8840942,0.797699,0.9565125,0.04980469,0.002929688,0,1,2
428.934,0.001007,-0.009765625,0.1953125,0.015625,4.382812,0.6328125,13.41406,0.00390625,0.0390625,0.001953125,0.3066406,0.015625,0,-0.05102539,-0.002685547,-0.3746338,0,0,-0.3737793,0.8999939,3.962,0,0,0,1,nan,2,0.001,1,128,0.9802551,0.8060913,0.854187,0.9594727,0.05078125,0.002929688,0,1,2
428.944,0.000969,-0.2207031,-0.0234375,0.02734375,0.1328125,-2.273438,14.35156,-0.078125,0.04101562,0.02734375,0.3066406,0.015625,0,-0.05114746,-0.002563477,-0.3743896,0,0,-0.3737793,0.8999939,3.962,0,0,0,1,nan,2,0.011,1,128,1,0.7836609,0.8306274,0.9668579,0.05078125,0.002929688,0,1,2
428.955,0.00102,0.078125,-0.01953125,0.03515625,0.53125,0.453125,13.67969,0.03710938,0.001953125,0.03125,0.3085938,0.01367188,0,-0.05126953,-0.002441406,-0.3740234,0,0,-0.3737793,0.8999939,3.962,0,0,0,1,nan,2,0.021,1,128,0.9707947,0.8405151,0.8408813,0.9478149,0.05078125,0.002929688,0,1,2
428.965,0.001004,0.04492188,-0.04882812,0.0390625,-2.007812,-0.609375,6.664062,-0.0546875,-0.02539062,0.04882812,0.3085938,0.01367188,0,-0.05151367,-0.002441406,-0.3736572,0,0,-0.3737793,0.8999939,3.962,0,0,0,1,nan,2,0.031,1,128,1,0.7894897,0.8260803,0.9215088,0.05175781,0.002929688,0,1,2
428.974,0.001016,-0.01367188,0.03710938,0.04101562,-0.1484375,-2.234375,9.382812,0.03515625,-0.03320312,0.04492188,0.3066406,0.015625,0,-0.05126953,-0.002685547,-0.3731689,0,0,-0.3737793,0.8999939,3.962,0,0,0,1,nan,2,0.04,1,128,0.9743042,0.8345032,0.8352356,0.9559326,0.05175781,0.002929688,0,1,2
428.984,0.001016,0.03320312,-0.1230469,0.05273438,1.960938,1.539062,8.101562,-0.02734375,-0.0078125,0.05078125,0.3085938,0.015625,0,-0.05151367,-0.002807617,-0.3726807,0,0,-0.3737793,0.8999939,3.962,0,0,0,1,nan,2,0.05,1,128,0.9985657,0.809021,0.8478394,0.9445801,0.05175781,0.002929688,0,1,2
428.994,0.001019,0.00390625,-0.06054688,0.00390625,0.1796875,1.164062,14.89062,0.01953125,-0.05078125,0.009765625,0.3085938,0.01953125,0,-0.05151367,-0.003173828,-0.3724365,0,0,-0.3737793,0.8999939,3.962,0,0,0,1,nan,2,0.061,1,128,0.9468384,0.8751221,0.7911682,0.9868774,0.05175781,0.002929688,0,1,2
429.004,0.00102,0.01757812,-0.01953125,0.02148438,2.140625,0.3125,14.64062,-0.04492188,-0.01367188,0.01757812,0.3125,0.01953125,0,-0.05200195,-0.003295898,-0.3723145,0,0,-0.3737793,0.8999939,3.962,0,0,0,1,nan,2,0.071,1,128,0.9919739,0.8176575,0.83078,0.9595947,0.05273438,0.002929688,0,1,2
429.014,0.001016,-0.2539062,0.2363281,0.04492188,-2.171875,-3.617188,6.148438,-0.05664062,0.05664062,0.02734375,0.3125,0.01953125,0,-0.05200195,-0.003295898,-0.3720703,0,0,-0.3737793,0.8999939,3.962,0,0,0,1,nan,2,0.081,1,128,0.9988708,0.7766418,0.8490601,0.9754333,0.05273438,0.002929688,0,1,2
429.024,0.001016,-0.078125,-0.005859375,0.02734375,-0.4140625,-3.351562,7.695312,-0.04492188,-0.005859375,0.02929688,0.3144531,0.01953125,0,-0.05236816,-0.003173828,-0.3718262,0,0,-0.3737793,0.8999939,3.962,0,0,0,1,nan,2,0.091,1,128,1,0.8141479,0.8274841,0.9550476,0.05371094,0.002929688,0,1,2
429.034,0.001016,0.06835938,0.06445312,0.01367188,-4.148438,-3.414062,11.85156,0.046875,0.02539062,0.01757812,0.3125,0.01757812,0,-0.05212402,-0.003051758,-0.371582,0,0,-0.3737793,0.8999939,3.962,0,0,0,1,nan,2,0.101,1,128,0.9550171,0.8430481,0.8268738,0.9750366,0.05371094,0.002929688,0,1,2
429.044,0.001016,0.0390625,-0.009765625,0.01953125,1.65625,-0.0703125,8.4375,0.02539062,0.005859375,0.02148438,0.3125,0.01757812,0,-0.05200195,-0.002929688,-0.3713379,0,0,-0.3737793,0.8999939,3.962,0,0,0,1,nan,2,0.111,1,128,0.9780579,0.8312683,0.8326416,0.9580383,0.05371094,0.002929688,0,1,2
429.054,0.001016,-0.0703125,-0.04492188,0.00390625,1.914062,2.117188,4.5,0,0.00390625,0.015625,0.3125,0.015625,0,-0.05212402,-0.002563477,-0.3712158,0,0,-0.3737793,0.8999939,3.962,0,0,0,1,nan,2,0.121,1,128,0.9816284,0.8260803,0.8186951,0.9736328,0.05371094,0.002929688,0,1,2
429.065,0.001023,-0.04296875,-0.001953125,0.01757812,-1.421875,3.898438,15.86719,-0.005859375,0.005859375,0.01367188,0.3125,0.01757812,0,-0.05200195,-0.002807617,-0.3710938,0,0,-0.3737793,0.8999939,3.962,0,0,0,1,nan,2,0.131,1,128,0.9891663,0.8073425,0.8344421,0.9690552,0.0546875,0.002929688,0,1,2
429.074,0.000972,0.1347656,-0.1699219,-0.01171875,1.242188,0.4296875,13.64062,-0.03125,-0.04882812,0.00390625,0.3125,0.015625,0,-0.05224609,-0.002807617,-0.3709717,0,0,-0.3737793,0.8999939,3.962,0,0,0,1,nan,2,0.14,1,128,0.9879456,0.8459778,0.7934265,0.9726562,0.0546875,0.002929688,0,1,2
429.084,0.001008,0.0390625,0.125,0.001953125,-2.78125,-4.125,6.320312,0.0078125,0.04296875,0,0.3125,0.01757812,0,-0.05224609,-0.002807617,-0.3709717,0,0,-0.3737793,0.8999939,3.962,0,0,0,1,nan,2,0.15,1,128,0.960907,0.8235474,0.8368835,0.9786682,0.0546875,0.002929688,0,1,2
429.094,0.001009,-0.1210938,-0.1308594,-0.0078125,-1.851562,-4.898438,7.734375,-0.07226562,0.009765625,-0.005859375,0.3144531,0.01757812,0,-0.05224609,-0.002807617,-0.3710938,0,0,-0.3737793,0.8999939,3.962,0,0,0,1,nan,2,0.001,1,128,0.9955139,0.8123474,0.8033142,0.9888,0.05566406,0.002929688,0,1,2
429.104,0.001017,-0.09375,0.046875,0.01757812,0.9296875,-4.039062,6.476562,0.01757812,-0.01757812,-0.005859375,0.3125,0.01757812,0,-0.05212402,-0.002807617,-0.3712158,0,0,-0.3737793,0.8999939,3.962,0,0,0,1,nan,2,0.011,1,128,0.9897766,0.8278809,0.827179,0.9551697,0.05566406,0.002929688,0,1,2
429.114,0.001007,0.06054688,-0.01757812,0.0078125,-0.671875,1.53125,9.265625,-0.01757812,0.01953125,0.001953125,0.3164062,0.015625,0,-0.0526123,-0.002563477,-0.3712158,0,0,-0.3737793,0.8999939,3.962,0,0,0,1,nan,2,0.021,1,128,0.9928284,0.808197,0.8372192,0.961731,0.05566406,0.002929688,0,1,2
429.124,0.001008,0.07421875,-0.01367188,-0.005859375,0.90625,0.4765625,4.140625,0.02734375,-0.015625,0.0078125,0.3144531,0.015625,0,-0.05249023,-0.002441406,-0.3710938,0,0,-0.3737793,0.8999939,3.962,0,0,0,1,nan,2,0.031,1,128,0.9736633,0.8425598,0.8193665,0.964386,0.05664062,0.002929688,0,1,2
429.135,0.001017,-0.1074219,-0.0859375,0.02734375,1.945312,2.171875,11.54688,-0.01367188,-0.01757812,0.00390625,0.3125,0.015625,0,-0.05200195,-0.002685547,-0.3710938,0,0,-0.3737793,0.8999939,3.962,0,0,0,1,nan,2,0.041,1,128,1,0.8096008,0.8147278,0.9733582,0.05664062,0.002929688,0,1,2
429.145,0.00104,-0.05859375,0.0078125,-0.01757812,2.5625,4.507812,17.78125,-0.005859375,-0.01757812,-0.01171875,0.3144531,0.015625,0,-0.05236816,-0.002685547,-0.3710938,0,0,-0.3737793,0,3.962,0,0,0,0,nan,2,0,1,128,0.1000061,0.1000061,0.1000061,0.1000061,0,0,0,1,2
429.154,0.001009,-0.03710938,0.0234375,-0.015625,-1.554688,-1.171875,10.54688,0.04296875,0.00390625,-0.015625,0.3144531,0.015625,0,-0.05212402,-0.002807617,-0.3712158,0,0,-0.3737793,0,3.962,0,0,0,0,nan,2,0.01,1,128,0.1000061,0.1000061,0.1000061,0.1000061,0,0,0,1,2
429.164,0.00102,-0.00390625,-0.171875,-0.001953125,1.75,-0.0390625,5.710938,0.015625,-0.09765625,0.001953125,0.3144531,0.015625,0,-0.05200195,-0.003051758,-0.3712158,0,0,-0.3737793,0,3.962,0,0,0,0,nan,2,0.019,1,128,0.1000061,0.1000061,0.1000061,0.1000061,0,0,0,1,2
429.174,0.001011,-0.08398438,0.08007812,0.009765625,-1.1875,-5.195312,7.164062,-0.0234375,0.01171875,0.001953125,0.3144531,0.015625,0,-0.05163574,-0.003417969,-0.3712158,0,0,-0.3737793,0,3.962,0,0,0,0,nan,2,0.029,1,128,0.1000061,0.1000061,0.1000061,0.1000061,0,0,0,1,2
429.184,0.00101,0.0703125,-0.09960938,-0.0234375,-1.023438,-0.75,12.72656,0.03710938,-0.06640625,-0.01757812,0.3144531,0.015625,0,-0.0513916,-0.00378418,-0.3713379,0,0,-0.3737793,0,3.962,0,0,0,0,nan,2,0.039,1,128,0.1000061,0.1000061,0.1000061,0.1000061,0,0,0,1,2
429.194,0.001018,-0.0546875,0.06640625,0.0546875,-1.195312,-6.539062,11.57031,0.009765625,0.01757812,0.02734375,0.3144531,0.015625,0,-0.05102539,-0.00390625,-0.3712158,0,0,-0.3737793,0,3.962,0,0,0,0,nan,2,0.049,1,128,0.1000061,0.1000061,0.1000061,0.1000061,0,0,0,1,2
429.204,0.001012,0.04101562,0.02539062,0.04882812,4.78125,2.390625,5.617188,-0.00390625,-0.009765625,0.0390625,0.3144531,0.015625,0,-0.05126953,-0.00378418,-0.3708496,0,0,-0.3737793,0,3.962,0,0,0,0,nan,2,0.06,1,128,0.1000061,0.1000061,0.1000061,0.1000061,0,0,0,1,2
429.214,0.00101,-0.08007812,0.046875,0.0625,-2.6875,-1.34375,12.02344,-0.03125,0.04101562,0.06054688,0.3144531,0.015625,0,-0.05126953,-0.003662109,-0.3703613,0,0,-0.3737793,0,3.962,0,0,0,0,nan,2,0.07,1,128,0.1000061,0.1000061,0.1000061,0.1000061,0,0,0,1,2
429.224,0.000989,0.03125,0.02148438,0.06054688,-2.085938,1.3125,16.47656,0.01757812,-0.01367188,0.06640625,0.3144531,0.015625,0,-0.05151367,-0.003540039,-0.369751,0,0,-0.3737793,0,3.962,0,0,0,0,nan,2,0.08,1,128,0.1000061,0.1000061,0.1000061,0.1000061,0,0,0,1,2
429.234,0.001011,-0.1289062,0.01367188,0.05859375,-0.5859375,0.1640625,7.859375,-0.02929688,0.01953125,0.0546875,0.3144531,0.015625,0,-0.05126953,-0.003417969,-0.3691406,0,0,-0.3737793,0,3.962,0,0,0,0,nan,2,0.09,1,128,0.1000061,0.1000061,0.1000061,0.1000061,0,0,0,1,2
429.244,0.00101,0.05273438,-0.04296875,0.005859375,2.296875,3.023438,4.015625,0.01367188,-0.015625,0.03320312,0.3144531,0.015625,0,-0.05126953,-0.003173828,-0.3686523,0,0,-0.3737793,0,3.962,0,0,0,0,nan,2,0.1,1,128,0.1000061,0.1000061,0.1000061,0.1000061,0,0,0,1,2
429.254,0.001011,-0.08203125,0.04882812,0.015625,-0.84375,7.023438,14.33594,-0.04296875,0.01757812,0.02539062,0.3144531,0.015625,0,-0.0513916,-0.002929688,-0.3682861,0,0,-0.3737793,0,3.962,0,0,0,0,nan,2,0.11,1,128,0.1000061,0.1000061,0.1000061,0.1000061,0,0,0,1,2
429.265,0.00101,0.01171875,-0.0390625,-0.005859375,-0.703125,-1.210938,14.65625,-0.005859375,-0.0078125,0.01171875,0.3144531,0.015625,0,-0.05151367,-0.002929688,-0.3681641,0,0,-0.3737793,0,3.962,0,0,0,0,nan,2,0.12,1,128,0.1000061,0.1000061,0.1000061,0.1000061,0,0,0,1,2
429.275,0.001011,-0.005859375,-0.04101562,0.0078125,-3.210938,-6.382812,2.546875,-0.001953125,-0.015625,0,0.3144531,0.015625,0,-0.05151367,-0.002929688,-0.3681641,0,0,-0.3737793,0,3.962,0,0,0,0,nan,2,0.13,1,128,0.1000061,0.1000061,0.1000061,0.1000061,0,0,0,1,2
429.284,0.00101,0.05078125,0.04882812,0.03320312,-1.21875,-12.55469,3.007812,0.0390625,-0.01367188,0.02539062,0.3144531,0.015625,0,-0.0513916,-0.003051758,-0.368042,0,0,-0.3737793,0,3.962,0,0,0,0,nan,2,0.139,1,128,0.1000061,0.1000061,0.1000061,0.1000061,0,0,0,1,2
429.294,0.00101,0.0078125,-0.0234375,0.05273438,-2.710938,5.289062,10.23438,0.009765625,-0.00390625,0.0390625,0.3144531,0.015625,0,-0.05126953,-0.003173828,-0.3676758,0,0,-0.3737793,0,3.962,0,0,0,0,nan,2,0.149,1,128,0.1000061,0.1000061,0.1000061,0.1000061,0,0,0,1,2
429.304,0.000989,-0.01171875,-0.046875,0.01367188,4.539062,-1.21875,10.05469,-0.00390625,-0.01367188,0.02734375,0.3144531,0.015625,0,-0.05126953,-0.003173828,-0.3673096,0,0,-0.3737793,0,3.962,0,0,0,0,nan,2,0.16,1,128,0.1000061,0.1000061,0.1000061,0.1000061,0,0,0,1,2
429.314,0.001009,-0.00390625,0.0234375,0.01171875,1.21875,5.859375,12.05469,-0.01757812,0.00390625,0.02929688,0.3144531,0.015625,0,-0.05163574,-0.003051758,-0.3669434,0,0,-0.3737793,0,3.962,0,0,0,0,nan,2,0.003,1,128,0.1000061,0.1000061,0.1000061,0.1000061,0,0,0,1,2
429.324,0.00101,-0.04882812,0.01171875,-0.009765625,3.125,8.71875,14.47656,-0.01171875,-0.015625,0.01171875,0.3144531,0.015625,0,-0.05175781,-0.002929688,-0.3666992,0,0,-0.3737793,0,3.962,0,0,0,0,nan,2,0.013,1,128,0.1000061,0.1000061,0.1000061,0.1000061,0,0,0,1,2
429.334,0.00101,-0.0390625,0.02148438,0.06054688,1.15625,0.203125,6.695312,-0.0078125,-0.0078125,0.03710938,0.3144531,0.015625,0,-0.05175781,-0.003051758,-0.3665771,0,0,-0.3737793,0,3.962,0,0,0,0,nan,2,0.023,1,128,0.1000061,0.1000061,0.1000061,0.1000061,0,0,0,1,2
429.344,0.00101,-0.02734375,0.005859375,-0.03320312,1.929688,-2.203125,10.42188,-0.005859375,-0.0078125,-0.01367188,0.3144531,0.015625,0,-0.05175781,-0.003173828,-0.3664551,0,0,-0.3737793,0,3.962,0,0,0,0,nan,2,0.033,1,128,0.1000061,0.1000061,0.1000061,0.1000061,0,0,0,1,2
429.354,0.00101,-0.015625,0.00390625,-0.05273438,1.15625,-5.0625,11.75,0.0078125,0.0078125,-0.0390625,0.3144531,0.015625,0,-0.05175781,-0.003051758,-0.3666992,0,0,-0.3737793,0,3.962,0,0,0,0,nan,2,0.043,1,128,0.1000061,0.1000061,0.1000061,0.1000061,0,0,0,1,2
429.365,0.00101,-0.07421875,-0.03320312,-0.08984375,2.570312,-7.132812,7.414062,-0.01953125,-0.009765625,-0.0546875,0.3144531,0.015625,0,-0.05200195,-0.003173828,-0.3670654,0,0,-0.3737793,0,3.962,0,0,0,0,nan,2,0.054,1,128,0.1000061,0.1000061,0.1000061,0.1000061,0,0,0,1,2
429.375,0.00101,-0.04296875,-0.015625,-0.1113281,1.085938,-4.242188,3.945312,-0.001953125,-0.01757812,-0.09960938,0.3144531,0.015625,0,-0.05212402,-0.003295898,-0.3679199,0,0,-0.3737793,0,3.962,0,0,0,0,nan,2,0.064,1,128,0.1000061,0.1000061,0.1000061,0.1000061,0,0,0,1,2
429.384,0.000991,0.009765625,0.0078125,-0.0859375,-0.53125,3.953125,11.19531,-0.015625,0.01953125,-0.1015625,0.3144531,0.015625,0,-0.05224609,-0.003295898,-0.3688965,0,0,-0.3737793,0,3.962,0,0,0,0,nan,2,0.073,1,128,0.1000061,0.1000061,0.1000061,0.1000061,0,0,0,1,2
429.394,0.000994,0.04492188,-0.06835938,-0.0703125,-4.1875,-3.90625,13.99219,0.03320312,-0.0390625,-0.08398438,0.3144531,0.015625,0,-0.05200195,-0.003540039,-0.369873,0,0,-0.3737793,0,3.962,0,0,0,0,nan,2,0.083,1,128,0.1000061,0.1000061,0.1000061,0.1000061,0,0,0,1,2
429.404,0.001007,0.005859375,-0.01171875,-0.04296875,1.554688,-3.90625,9.984375,-0.001953125,-0.0078125,-0.06445312,0.3144531,0.015625,0,-0.05212402,-0.003662109,-0.3707275,0,0,-0.3737793,0,3.962,0,0,0,0,nan,2,0.093,1,128,0.1000061,0.1000061,0.1000061,0.1000061,0,0,0,1,2
429.414,0.001009,-0.02929688,0.001953125,-0.0390625,-1.460938,-4.796875,9.429688,-0.0234375,-0.005859375,-0.03710938,0.3144531,0.015625,0,-0.05224609,-0.003662109,-0.3710938,0,0,-0.3737793,0,3.962,0,0,0,0,nan,2,0.103,1,128,0.1000061,0.1000061,0.1000061,0.1000061,0,0,0,1,2
429.424,0.001005,0.04101562,-0.03515625,-0.0390625,3.039062,8.828125,12.0625,0.001953125,-0.015625,-0.02734375,0.3144531,0.015625,0,-0.05236816,-0.00378418,-0.37146,0,0,-0.3737793,0,3.962,0,0,0,0,nan,2,0.113,1,128,0.1000061,0.1000061,0.1000061,0.1000061,0,0,0,1,2
429.434,0.001005,-0.01757812,0.01757812,-0.02148438,-3.539062,1.523438,10.85938,-0.01953125,-0.01367188,-0.0390625,0.3144531,0.015625,0,-0.05224609,-0.00378418,-0.3719482,0,0,-0.3737793,0,3.962,0,0,0,0,nan,2,0.123,1,128,0.1000061,0.1000061,0.1000061,0.1000061,0,0,0,1,2
429.444,0.001005,-0.00390625,0.005859375,-0.01171875,0.1953125,-0.875,14.76562,-0.0390625,0.005859375,-0.0234375,0.3144531,0.015625,0,-0.05249023,-0.003662109,-0.3721924,0,0,-0.3737793,0,3.962,0,0,0,0,nan,2,0.133,1,128,0.1000061,0.1000061,0.1000061,0.1000061,0,0,0,1,2
429.454,0.001005,-0.0234375,0.02539062,0.00390625,0.3671875,-5.125,3.851562,-0.01757812,0.009765625,0.0078125,0.3144531,0.015625,0,-0.05224609,-0.003662109,-0.3721924,0,0,-0.3737793,0,3.962,0,0,0,0,nan,2,0.143,1,128,0.1000061,0.1000061,0.1000061,0.1000061,0,0,0,1,2
429.464,0.001005,0.005859375,-0.046875,0,0.546875,-2.226562,10.625,-0.00390625,-0.01367188,-0.009765625,0.3144531,0.015625,0,-0.05236816,-0.003662109,-0.3723145,0,0,-0.3737793,0,4.023,0,0,0,0,nan,2,0.154,1,128,0.1000061,0.1000061,0.1000061,0.1000061,0,0,0,1,2
429.475,0.001006,0.02734375,-0.00390625,-0.005859375,-1.921875,6.21875,12.71094,-0.02539062,0.02929688,-0.0078125,0.3144531,0.015625,0,-0.05249023,-0.003295898,-0.3724365,0,0,-0.3737793,0,4.023,0,0,0,0,nan,2,0.164,1,128,0.1000061,0.1000061,0.1000061,0.1000061,0,0,0,1,2
429.484,0.001015,-0.001953125,-0.001953125,0.04101562,1.289062,4.726562,11.64062,0.0078125,-0.001953125,0.015625,0.3144531,0.015625,0,-0.05249023,-0.003173828,-0.3724365,0,0,-0.3737793,0,4.023,0,0,0,0,nan,2,0.173,1,128,0.1000061,0.1000061,0.1000061,0.1000061,0,0,0,1,2
429.494,0.001018,0.01953125,-0.00390625,0.03710938,-3.640625,-1.335938,14.92969,0.01757812,-0.0078125,0.04296875,0.3144531,0.015625,0,-0.05224609,-0.003295898,-0.3720703,0,0,-0.3737793,0,4.023,0,0,0,0,nan,2,0.183,1,128,0.1000061,0.1000061,0.1000061,0.1000061,0,0,0,1,2
429.504,0.001011,0.01367188,-0.02929688,0.04882812,0.71875,-3.078125,7.8125,-0.001953125,-0.01757812,0.0390625,0.3144531,0.015625,0,-0.05224609,-0.003295898,-0.3717041,0,0,-0.3737793,0,4.023,0,0,0,0,nan,2,0.193,1,128,0.1000061,0.1000061,0.1000061,0.1000061,0,0,0,1,2
429.514,0.001032,0.001953125,0.0078125,0.04296875,2.609375,1.429688,5.453125,0,-0.0078125,0.04882812,0.3144531,0.015625,0,-0.05212402,-0.003295898,-0.3712158,0,0,-0.3737793,0,4.023,0,0,0,0,nan,2,0.203,1,128,0.1000061,0.1000061,0.1000061,0.1000061,0,0,0,1,2
429.524,0.000991,0.005859375,0.001953125,0.02929688,2.273438,-3.601562,10.03125,-0.001953125,0.00390625,0.03515625,0.3144531,0.015625,0,-0.05224609,-0.003295898,-0.3707275,0,0,-0.3737793,0,4.023,0,0,0,0,nan,2,0,1,128,0.1000061,0.1000061,0.1000061,0.1000061,0,0,0,1,2
429.534,0.001014,0.005859375,-0.001953125,0.0078125,3.257812,3.046875,7.1875,0.001953125,-0.005859375,0.02539062,0.3144531,0.015625,0,-0.05236816,-0.003173828,-0.3703613,0,0,-0.3737793,0,4.023,0,0,0,0,nan,2,0.01,1,128,0.1000061,0.1000061,0.1000061,0.1000061,0,0,0,1,2
429.544,0.00098,0.01757812,0.01757812,0.0234375,-2.328125,2.78125,10.04688,0.01757812,0.01367188,0.001953125,0.3144531,0.015625,0,-0.05236816,-0.003051758,-0.3703613,0,0,-0.3737793,0,4.023,0,0,0,0,nan,2,0.02,1,128,0.1000061,0.1000061,0.1000061,0.1000061,0,0,0,1,2
429.554,0.001015,0,-0.01367188,0.04101562,-2.140625,-7.796875,5.320312,0.01757812,-0.009765625,0.0390625,0.3144531,0.015625,0,-0.05236816,-0.003051758,-0.3701172,0,0,-0.3737793,0,4.023,0,0,0,0,nan,2,0.03,1,128,0.1000061,0.1000061,0.1000061,0.1000061,0,0,0,1,2
429.565,0.001022,-0.03125,-0.01171875,0.02734375,0.71875,1.226562,8.835938,0,-0.0078125,0.02539062,0.3144531,0.015625,0,-0.05212402,-0.003051758,-0.369751,0,0,-0.3737793,0,4.023,0,0,0,0,nan,2,0.04,1,128,0.1000061,0.1000061,0.1000061,0.1000061,0,0,0,1,2
429.574,0.001009,-0.08398438,0.03320312,0.03710938,-0.328125,-0.4375,10.23438,-0.01757812,0,0.03710938,0.3144531,0.015625,0,-0.05224609,-0.002929688,-0.3695068,0,0,-0.3737793,0,4.023,0,0,0,0,nan,2,0.049,1,128,0.1000061,0.1000061,0.1000061,0.1000061,0,0,0,1,2
429.584,0.00101,-0.01757812,-0.005859375,-0.01953125,-1.585938,1.9375,14.6875,0.00390625,0.01367188,-0.001953125,0.3144531,0.015625,0,-0.05212402,-0.002929688,-0.3692627,0,0,-0.3737793,0,4.023,0,0,0,0,nan,2,0.06,1,128,0.1000061,0.1000061,0.1000061,0.1000061,0,0,0,1,2
429.594,0.001011,-0.03125,-0.01171875,0.009765625,0.1015625,-3.585938,5,-0.01171875,0.001953125,0.001953125,0.3144531,0.015625,0,-0.05200195,-0.002929688,-0.3693848,0,0,-0.3737793,0,4.023,0,0,0,0,nan,2,0.07,1,128,0.1000061,0.1000061,0.1000061,0.1000061,0,0,0,1,2
429.604,0.00101,-0.01953125,0.02734375,-0.02929688,0.078125,7.15625,8.59375,0.005859375,0,-0.01171875,0.3144531,0.015625,0,-0.05187988,-0.002929688,-0.3693848,0,0,-0.3737793,0,4.023,0,0,0,0,nan,2,0.08,1,128,0.1000061,0.1000061,0.1000061,0.1000061,0,0,0,1,2
429.614,0.000992,0.009765625,0.01367188,-0.00390625,0.9375,-0.2421875,9.078125,-0.0078125,0.015625,-0.009765625,0.3144531,0.015625,0,-0.05200195,-0.002685547,-0.3695068,0,0,-0.3737793,0,4.023,0,0,0,0,nan,2,0.09,1,128,0.1000061,0.1000061,0.1000061,0.1000061,0,0,0,1,2
429.624,0.00101,-0.015625,-0.01171875,0.001953125,-3.609375,3.867188,15.60938,-0.02148438,0.001953125,0.001953125,0.3144531,0.015625,0,-0.05224609,-0.002685547,-0.3695068,0,0,-0.3737793,0,4.023,0,0,0,0,nan,2,0.1,1,128,0.1000061,0.1000061,0.1000061,0.1000061,0,0,0,1,2
429.634,0.001011,-0.001953125,0.046875,-0.015625,-0.9765625,-5.867188,7,0.001953125,0.01757812,-0.01367188,0.3144531,0.015625,0,-0.05236816,-0.002685547,-0.3696289,0,0,-0.3737793,0,4.023,0,0,0,0,nan,2,0.11,1,128,0.1000061,0.1000061,0.1000061,0.1000061,0,0,0,1,2
429.644,0.001002,-0.001953125,-0.01757812,0.009765625,-1.679688,2.632812,11.00781,-0.001953125,-0.015625,0.00390625,0.3144531,0.015625,0,-0.05224609,-0.002807617,-0.3696289,0,0,-0.3737793,0,4.023,0,0,0,0,nan,2,0.12,1,128,0.1000061,0.1000061,0.1000061,0.1000061,0,0,0,1,2
429.655,0.001018,-0.01171875,0.00390625,-0.0234375,-0.171875,-6.65625,14.38281,0,-0.001953125,-0.01171875,0.3144531,0.015625,0,-0.05236816,-0.002807617,-0.3696289,0,0,-0.3737793,0,4.023,0,0,0,0,nan,2,0.13,1,128,0.1000061,0.1000061,0.1000061,0.1000061,0,0,0,1,2
429.665,0.001029,0.02734375,-0.04296875,0.01171875,0.3046875,-1.90625,12.38281,-0.00390625,-0.005859375,-0.00390625,0.3144531,0.015625,0,-0.05236816,-0.002807617,-0.369751,0,0,-0.3737793,0,4.023,0,0,0,0,nan,2,0.14,1,128,0.1000061,0.1000061,0.1000061,0.1000061,0,0,0,1,2
429.674,0.000982,-0.015625,0,0.001953125,0.2265625,4.210938,10.60156,-0.009765625,-0.001953125,0.01171875,0.3144531,0.015625,0,-0.05236816,-0.002929688,-0.3696289,0,0,-0.3737793,0,4.023,0,0,0,0,nan,2,0.149,1,128,0.1000061,0.1000061,0.1000061,0.1000061,0,0,0,1,2
429.684,0.001054,0.0078125,-0.046875,0.005859375,-1.445312,-0.4140625,12.17188,-0.0078125,-0.00390625,-0.001953125,0.3144531,0.015625,0,-0.05212402,-0.002929688,-0.3696289,0,0,-0.3737793,0,4.023,0,0,0,0,nan,2,0.16,1,128,0.1000061,0.1000061,0.1000061,0.1000061,0,0,0,1,2
429.694,0.00101,-0.01171875,0.0234375,0.03710938,-0.671875,0.7890625,8.335938,0.001953125,-0.001953125,0.03125,0.3144531,0.015625,0,-0.05200195,-0.002807617,-0.3695068,0,0,-0.3737793,0,4.023,0,0,0,0,nan,2,0.17,1,128,0.1000061,0.1000061,0.1000061,0.1000061,0,0,0,1,2
429.704,0.00101,0.001953125,-0.01367188,0.01367188,-2.976562,1.1875,15.84375,0.009765625,0.0078125,0.0234375,0.3144531,0.015625,0,-0.05187988,-0.002807617,-0.3691406,0,0,-0.3737793,0,4.023,0,0,0,0,nan,2,0.18,1,128,0.1000061,0.1000061,0.1000061,0.1000061,0,0,0,1,2
429.714,0.001009,-0.02539062,0.0078125,0.0078125,-0.921875,-4.195312,6.820312,-0.0234375,-0.00390625,0.01367188,0.3144531,0.015625,0,-0.05187988,-0.002807617,-0.3690186,0,0,-0.3737793,0,4.023,0,0,0,0,nan,2,0.19,1,128,0.1000061,0.1000061,0.1000061,0.1000061,0,0,0,1,2
429.724,0.00101,-0.04296875,0.001953125,-0.001953125,-0.4296875,-4.335938,4.726562,-0.02539062,-0.0078125,0.0078125,0.3144531,0.015625,0,-0.05200195,-0.002929688,-0.3688965,0,0,-0.3737793,0,4.023,0,0,0,0,nan,2,0.2,1,128,0.1000061,0.1000061,0.1000061,0.1000061,0,0,0,1,2
429.734,0.001043,-0.03710938,0.01757812,-0.03320312,-0.578125,6.609375,7.070312,-0.0234375,0.00390625,-0.02148438,0.3144531,0.015625,0,-0.05200195,-0.002929688,-0.3688965,0,0,-0.3737793,0,4.023,0,0,0,0,nan,2,0.21,1,128,0.1000061,0.1000061,0.1000061,0.1000061,0,0,0,1,2
429.744,0.001038,-0.0234375,-0.01757812,0.01757812,0.1171875,-1.59375,4.664062,-0.01757812,-0.01757812,0.00390625,0.3144531,0.015625,0,-0.05236816,-0.003051758,-0.3691406,0,0,-0.3737793,0,4.023,0,0,0,0,nan,2,0.22,1,128,0.1000061,0.1000061,0.1000061,0.1000061,0,0,0,1,2
429.754,0.001011,0.02539062,0.046875,-0.02734375,0.25,6.65625,7.5,0.015625,0.01171875,-0.009765625,0.3144531,0.015625,0,-0.05224609,-0.003173828,-0.3690186,0,0,-0.3737793,0,4.023,0,0,0,0,nan,2,0.23,1,128,0.1000061,0.1000061,0.1000061,0.1000061,0,0,0,1,2
429.764,0.00101,0.015625,-0.02148438,0.01953125,-0.5390625,-1.304688,7.335938,0.005859375,0.00390625,0,0.3144531,0.015625,0,-0.05187988,-0.003051758,-0.3691406,0,0,-0.3737793,0,4.023,0,0,0,0,nan,2,0.24,1,128,0.1000061,0.1000061,0.1000061,0.1000061,0,0,0,1,2
429.774,0.001022,-0.00390625,-0.02539062,0.015625,2.882812,-5.140625,5.695312,0,-0.01171875,0.01953125,0.3144531,0.015625,0,-0.05175781,-0.003051758,-0.3690186,0,0,-0.3737793,0,4.023,0,0,0,0,nan,2,0.006,1,128,0.1000061,0.1000061,0.1000061,0.1000061,0,0,0,1,2
429.784,0.001028,0.03515625,-0.01757812,0.0078125,1.117188,4.726562,11.38281,0.01953125,-0.00390625,0.0078125,0.3144531,0.015625,0,-0.05163574,-0.003173828,-0.3688965,0,0,-0.3737793,0,4.023,0,0,0,0,nan,2,0.016,1,128,0.1000061,0.1000061,0.1000061,0.1000061,0,0,0,1,2
429.794,0.001006,-0.03320312,0.015625,0.0234375,2.78125,-3.046875,6.882812,-0.01171875,0.001953125,0.01367188,0.3144531,0.015625,0,-0.0513916,-0.003051758,-0.3688965,0,0,-0.3737793,0,4.023,0,0,0,0,nan,2,0.026,1,128,0.1000061,0.1000061,0.1000061,0.1000061,0,0,0,1,2
429.804,0.001005,-0.01171875,0.01953125,-0.009765625,1.34375,5.265625,11.82031,0.01171875,0.001953125,0.009765625,0.3144531,0.015625,0,-0.0513916,-0.003173828,-0.3686523,0,0,-0.3737793,0,4.023,0,0,0,0,nan,2,0.036,1,128,0.1000061,0.1000061,0.1000061,0.1000061,0,0,0,1,2
429.814,0.00101,0.0078125,-0.01953125,-0.015625,1.4375,-4.4375,8.015625,0.0078125,-0.001953125,-0.01953125,0.3144531,0.015625,0,-0.05126953,-0.003173828,-0.3687744,0,0,-0.3737793,0,4.023,0,0,0,0,nan,2,0.046,1,128,0.1000061,0.1000061,0.1000061,0.1000061,0,0,0,1,2
429.824,0.001005,0.04101562,-0.0078125,-0.02539062,0.5078125,-5.15625,11.04688,0.009765625,-0.00390625,-0.009765625,0.3144531,0.015625,0,-0.05114746,-0.003173828,-0.3688965,0,0,-0.3737793,0,4.023,0,0,0,0,nan,2,0.057,1,128,0.1000061,0.1000061,0.1000061,0.1000061,0,0,0,1,2
429.834,0.001006,0.0234375,-0.009765625,0,0.0625,4.007812,10.84375,0.01171875,-0.01171875,-0.0234375,0.3144531,0.015625,0,-0.05102539,-0.003173828,-0.3691406,0,0,-0.3737793,0,4.023,0,0,0,0,nan,2,0.067,1,128,0.1000061,0.1000061,0.1000061,0.1000061,0,0,0,1,2
429.844,0.001005,0.01367188,-0.009765625,0.0234375,1.671875,-4.375,7.867188,0.0078125,-0.00390625,0.01367188,0.3144531,0.015625,0,-0.05114746,-0.003051758,-0.3691406,0,0,-0.3737793,0,4.023,0,0,0,0,nan,2,0.077,1,128,0.1000061,0.1000061,0.1000061,0.1000061,0,0,0,1,2
429.854,0.001006,0.0234375,0.00390625,0.01757812,1.34375,6.085938,10.67188,-0.0078125,0.0078125,0.009765625,0.3144531,0.015625,0,-0.05114746,-0.003051758,-0.3691406,0,0,-0.3737793,0,4.023,0,0,0,0,nan,2,0.087,1,128,0.1000061,0.1000061,0.1000061,0.1000061,0,0,0,1,2
429.864,0.001005,0.03320312,0.03125,0.015625,3.164062,-2.523438,6.9375,0.0078125,-0.001953125,0.015625,0.3144531,0.015625,0,-0.05114746,-0.003173828,-0.3690186,0,0,-0.3737793,0,4.023,0,0,0,0,nan,2,0.097,1,128,0.1000061,0.1000061,0.1000061,0.1000061,0,0,0,1,2
429.875,0.001006,0.0078125,-0.01171875,0.009765625,1.335938,6.054688,11.27344,-0.009765625,-0.01171875,0.015625,0.3144531,0.015625,0,-0.05114746,-0.003173828,-0.3687744,0,0,-0.3737793,0,4.023,0,0,0,0,nan,2,0.107,1,128,0.1000061,0.1000061,0.1000061,0.1000061,0,0,0,1,2
429.884,0.001015,-0.02734375,-0.0078125,0,-0.1953125,1.109375,10.21875,-0.00390625,-0.009765625,-0.001953125,0.3144531,0.015625,0,-0.05102539,-0.003173828,-0.3687744,0,0,-0.3737793,0,4.023,0,0,0,0,nan,2,0.116,1,128,0.1000061,0.1000061,0.1000061,0.1000061,0,0,0,1,2
429.894,0.001014,0.0078125,-0.00390625,-0.01171875,1.070312,-1.257812,2.617188,-0.005859375,0,-0.005859375,0.3144531,0.015625,0,-0.05102539,-0.003173828,-0.3687744,0,0,-0.3737793,0,4.023,0,0,0,0,nan,2,0.126,1,128,0.1000061,0.1000061,0.1000061,0.1000061,0,0,0,1,2
429.904,0.001022,0.03320312,0.001953125,-0.015625,-0.984375,-1.195312,9.171875,0.009765625,0,-0.02148438,0.3144531,0.015625,0,-0.05102539,-0.003173828,-0.3688965,0,0,-0.3737793,0,4.023,0,0,0,0,nan,2,0.136,1,128,0.1000061,0.1000061,0.1000061,0.1000061,0,0,0,1,2
429.914,0.001012,0.02148438,0.015625,0.01953125,-0.96875,0.09375,7.382812,0.005859375,-0.00390625,0.005859375,0.3144531,0.015625,0,-0.05102539,-0.003173828,-0.3690186,0,0,-0.3737793,0,4.023,0,0,0,0,nan,2,0.146,1,128,0.1000061,0.1000061,0.1000061,0.1000061,0,0,0,1,2
429.924,0.001013,-0.0234375,-0.015625,0.009765625,0.6171875,-4.398438,8.734375,-0.001953125,0.001953125,0.0078125,0.3144531,0.015625,0,-0.05102539,-0.003295898,-0.3690186,0,0,-0.3737793,0,4.023,0,0,0,0,nan,2,0.157,1,128,0.1000061,0.1000061,0.1000061,0.1000061,0,0,0,1,2
429.934,0.001014,-0.01171875,0.00390625,0.0390625,-1.695312,-1.617188,13.14844,-0.001953125,0.00390625,0.02929688,0.3144531,0.015625,0,-0.05114746,-0.003173828,-0.3687744,0,0,-0.3737793,0,4.023,0,0,0,0,nan,2,0.167,1,128,0.1000061,0.1000061,0.1000061,0.1000061,0,0,0,1,2
429.944,0.001015,-0.04101562,0.01171875,0.005859375,0.421875,-1.148438,3.90625,-0.01171875,0,0.02148438,0.3144531,0.015625,0,-0.05114746,-0.003173828,-0.3684082,0,0,-0.3737793,0,4.023,0,0,0,0,nan,2,0.177,1,128,0.1000061,0.1000061,0.1000061,0.1000061,0,0,0,1,2
429.954,0.001014,-0.02929688,-0.005859375,0.01367188,0.2421875,-2.546875,8.539062,-0.0078125,-0.001953125,0.00390625,0.3144531,0.015625,0,-0.05114746,-0.003173828,-0.3684082,0,0,-0.3737793,0,4.023,0,0,0,0,nan,2,0.187,1,128,0.1000061,0.1000061,0.1000061,0.1000061,0,0,0,1,2
429.964,0.001015,-0.009765625,-0.0078125,0.01953125,0.453125,2.859375,6,-0.009765625,-0.00390625,0.0234375,0.3144531,0.015625,0,-0.05114746,-0.003173828,-0.3681641,0,0,-0.3737793,0,4.023,0,0,0,0,nan,2,0.197,1,128,0.1000061,0.1000061,0.1000061,0.1000061,0,0,0,1,2
429.975,0.001015,-0.009765625,-0.01757812,0.04101562,-0.8203125,-3.65625,7.070312,-0.005859375,-0.01171875,0.02148438,0.3144531,0.015625,0,-0.05114746,-0.003295898,-0.368042,0,0,-0.3737793,0,4.023,0,0,0,0,nan,2,0.207,1,128,0.1000061,0.1000061,0.1000061,0.1000061,0,0,0,1,2
429.984,0.000976,0.02148438,0.00390625,0.03515625,1.1875,-3.734375,1.828125,0,0.00390625,0.0390625,0.3144531,0.015625,0,-0.05126953,-0.003173828,-0.3676758,0,0,-0.3737793,0,4.023,0,0,0,0,nan,2,0.216,1,128,0.1000061,0.1000061,0.1000061,0.1000061,0,0,0,1,2
429.994,0.001023,0.01953125,-0.005859375,0.01757812,0.28125,3.765625,10.375,0.009765625,0.001953125,0.02539062,0.3144531,0.015625,0,-0.05114746,-0.003173828,-0.3674316,0,0,-0.3737793,0,4.023,0,0,0,0,nan,2,0.006,1,128,0.1000061,0.1000061,0.1000061,0.1000061,0,0,0,1,2
430.004,0.001006,-0.01171875,-0.0078125,0.01757812,1.90625,-0.546875,4.578125,-0.0078125,0.001953125,0.015625,0.3144531,0.015625,0,-0.05114746,-0.003173828,-0.3671875,0,0,-0.3737793,0,4.023,0,0,0,0,nan,2,0.016,1,128,0.1000061,0.1000061,0.1000061,0.1000061,0,0,0,1,2
430.014,0.001014,0.03515625,-0.00390625,-0.01757812,-0.421875,0.8671875,16.19531,0.00390625,-0.001953125,0,0.3144531,0.015625,0,-0.0513916,-0.003173828,-0.3670654,0,0,-0.3737793,0,4.023,0,0,0,0,nan,2,0.026,1,128,0.1000061,0.1000061,0.1000061,0.1000061,0,0,0,1,2
430.024,0.00101,0.00390625,-0.01953125,-0.005859375,-3.40625,1.125,13.58594,0.00390625,-0.00390625,-0.01757812,0.3144531,0.015625,0,-0.05114746,-0.003173828,-0.3673096,0,0,-0.3737793,0,4.023,0,0,0,0,nan,2,0.036,1,128,0.1000061,0.1000061,0.1000061,0.1000061,0,0,0,1,2
430.034,0.00101,0.005859375,-0.01953125,-0.046875,-0.0078125,-2.671875,3.914062,-0.001953125,-0.01367188,-0.02734375,0.3144531,0.015625,0,-0.05114746,-0.003295898,-0.3674316,0,0,-0.3737793,0,4.023,0,0,0,0,nan,2,0.046,1,128,0.1000061,0.1000061,0.1000061,0.1000061,0,0,0,1,2
430.044,0.001009,0.01171875,0.02148438,-0.02148438,-1.359375,0.3125,9.171875,-0.01171875,0.0078125,-0.02734375,0.3144531,0.015625,0,-0.05114746,-0.003295898,-0.3677979,0,0,-0.3737793,0,4.023,0,0,0,0,nan,2,0.057,1,128,0.1000061,0.1000061,0.1000061,0.1000061,0,0,0,1,2
430.054,0.00101,-0.02734375,-0.00390625,-0.0234375,0.734375,2.1875,4.726562,-0.005859375,0.001953125,-0.02539062,0.3144531,0.015625,0,-0.0513916,-0.003173828,-0.368042,0,0,-0.3737793,0,4.023,0,0,0,0,nan,2,0.067,1,128,0.1000061,0.1000061,0.1000061,0.1000061,0,0,0,1,2
430.064,0.001017,0.00390625,-0.005859375,0.03515625,-0.5078125,-2.695312,6.921875,0.005859375,-0.009765625,0.01367188,0.3144531,0.015625,0,-0.0513916,-0.003295898,-0.368042,0,0,-0.3737793,0,4.023,0,0,0,0,nan,2,0.077,1,128,0.1000061,0.1000061,0.1000061,0.1000061,0,0,0,1,2
430.075,0.00101,-0.03125,-0.005859375,0.0078125,-1.265625,4.65625,10.55469,0,-0.001953125,0.01757812,0.3144531,0.015625,0,-0.05126953,-0.003295898,-0.3679199,0,0,-0.3737793,0,4.023,0,0,0,0,nan,2,0.087,1,128,0.1000061,0.1000061,0.1000061,0.1000061,0,0,0,1,2
430.085,0.00101,0.02929688,0,0.001953125,-1.734375,-4.484375,9.171875,-0.001953125,-0.005859375,0.005859375,0.3144531,0.015625,0,-0.0513916,-0.003295898,-0.3677979,0,0,-0.3737793,0,4.023,0,0,0,0,nan,2,0.097,1,128,0.1000061,0.1000061,0.1000061,0.1000061,0,0,0,1,2
430.094,0.000996,0.03515625,-0.03320312,0.005859375,2.46875,0.421875,5.773438,0.009765625,-0.01367188,0.00390625,0.3144531,0.015625,0,-0.05114746,-0.003417969,-0.3677979,0,0,-0.3737793,0,4.023,0,0,0,0,nan,2,0.106,1,128,0.1000061,0.1000061,0.1000061,0.1000061,0,0,0,1,2
430.104,0.001003,0.0234375,0.005859375,-0.02148438,1.179688,-0.7421875,14.71094,0.01367188,-0.00390625,-0.01171875,0.3144531,0.015625,0,-0.05126953,-0.003417969,-0.3677979,0,0,-0.3737793,0,4.023,0,0,0,0,nan,2,0.116,1,128,0.1000061,0.1000061,0.1000061,0.1000061,0,0,0,1,2
430.114,0.00101,-0.05078125,0.005859375,0.001953125,-0.09375,0.859375,11.78125,-0.01757812,0.0078125,-0.005859375,0.3144531,0.015625,0,-0.0513916,-0.003417969,-0.3679199,0,0,-0.3737793,0,4.017,0,0,0,0,nan,2,0.126,1,128,0.1000061,0.1000061,0.1000061,0.1000061,0,0,0,1,2
430.124,0.001008,0.001953125,-0.005859375,-0.05273438,-0.1171875,-7.046875,13.82812,-0.0078125,0.0078125,-0.03320312,0.3144531,0.015625,0,-0.0513916,-0.003295898,-0.368042,0,0,-0.3737793,0,4.017,0,0,0,0,nan,2,0.136,1,128,0.1000061,0.1000061,0.1000061,0.1000061,0,0,0,1,2
430.134,0.00101,0.02929688,0.03320312,-0.02148438,-0.890625,-0.984375,8.882812,-0.005859375,0.0078125,-0.02734375,0.3144531,0.015625,0,-0.05114746,-0.003295898,-0.3684082,0,0,-0.3737793,0,4.017,0,0,0,0,nan,2,0.146,1,128,0.1000061,0.1000061,0.1000061,0.1000061,0,0,0,1,2
430.144,0.001045,-0.0234375,-0.01757812,-0.03515625,0.78125,4.171875,4.734375,0.001953125,-0.001953125,-0.03515625,0.3144531,0.015625,0,-0.05126953,-0.003295898,-0.3686523,0,0,-0.3737793,0,4.017,0,0,0,0,nan,2,0.157,1,128,0.1000061,0.1000061,0.1000061,0.1000061,0,0,0,1,2
430.154,0.00101,0.001953125,-0.00390625,0.01953125,0.0625,-1.890625,6.414062,-0.005859375,-0.001953125,-0.001953125,0.3144531,0.015625,0,-0.05114746,-0.003173828,-0.3688965,0,0,-0.3737793,0,4.017,0,0,0,0,nan,2,0.167,1,128,0.1000061,0.1000061,0.1000061,0.1000061,0,0,0,1,2
430.164,0.001009,-0.00390625,-0.01171875,0.00390625,-0.90625,6.28125,8.460938,-0.00390625,0.001953125,0.009765625,0.3144531,0.015625,0,-0.05090332,-0.003173828,-0.3687744,0,0,-0.3737793,0,4.017,0,0,0,0,nan,2,0.177,1,128,0.1000061,0.1000061,0.1000061,0.1000061,0,0,0,1,2
430.175,0.000997,0.04296875,-0.005859375,0.015625,0.046875,-2.984375,7.742188,0.01953125,-0.01171875,0.01367188,0.3144531,0.015625,0,-0.05090332,-0.003173828,-0.3686523,0,0,-0.3737793,0,4.017,0,0,0,0,nan,2,0.187,1,128,0.1000061,0.1000061,0.1000061,0.1000061,0,0,0,1,2
430.185,0.001009,-0.005859375,0.005859375,0.0078125,-2.875,4.0625,13.75,0.005859375,0.001953125,0.005859375,0.3144531,0.015625,0,-0.05078125,-0.003295898,-0.3685303,0,0,-0.3737793,0,4.017,0,0,0,0,nan,2,0.197,1,128,0.1000061,0.1000061,0.1000061,0.1000061,0,0,0,1,2
430.194,0.001004,-0.01953125,0.009765625,-0.01367188,2.210938,-1.507812,12.07812,0.00390625,0.00390625,-0.0078125,0.3144531,0.015625,0,-0.05078125,-0.003173828,-0.3685303,0,0,-0.3737793,0,4.017,0,0,0,0,nan,2,0.206,1,128,0.1000061,0.1000061,0.1000061,0.1000061,0,0,0,1,2
430.204,0.000988,-0.04101562,-0.0078125,0,0.4609375,2.320312,12.02344,-0.01757812,0.005859375,-0.0078125,0.3144531,0.015625,0,-0.05078125,-0.003173828,-0.3686523,0,0,-0.3737793,0,4.017,0,0,0,0,nan,2,0.003,1,128,0.1000061,0.1000061,0.1000061,0.1000061,0,0,0,1,2
430.214,0.001034,0.04101562,0.001953125,-0.0390625,0.5390625,-6.203125,11.70312,0.00390625,-0.00390625,-0.02929688,0.3144531,0.015625,0,-0.05078125,-0.003173828,-0.3688965,0,0,-0.3737793,0,4.017,0,0,0,0,nan,2,0.013,1,128,0.1000061,0.1000061,0.1000061,0.1000061,0,0,0,1,2
430.224,0.001046,-0.02734375,0.01367188,0.00390625,-0.4140625,-3.078125,6.039062,0,-0.00390625,-0.0078125,0.3144531,0.015625,0,-0.05053711,-0.003295898,-0.3691406,0,0,-0.3737793,0,4.017,0,0,0,0,nan,2,0.023,1,128,0.1000061,0.1000061,0.1000061,0.1000061,0,0,0,1,2
430.234,0.00101,-0.015625,-0.01367188,-0.0390625,0.3671875,6.351562,7.132812,-0.001953125,0,-0.0390625,0.3144531,0.015625,0,-0.0501709,-0.003417969,-0.3693848,0,0,-0.3737793,0,4.017,0,0,0,0,nan,2,0.033,1,128,0.1000061,0.1000061,0.1000061,0.1000061,0,0,0,1,2
430.244,0.001011,0.01757812,0.01171875,0.0078125,1.898438,-1.492188,2.710938,0.009765625,0.001953125,0.001953125,0.3144531,0.015625,0,-0.0501709,-0.003417969,-0.3695068,0,0,-0.3737793,0,4.017,0,0,0,0,nan,2,0.043,1,128,0.1000061,0.1000061,0.1000061,0.1000061,0,0,0,1,2
430.254,0.00101,-0.01367188,0.01171875,-0.01953125,0.8046875,6.492188,10.28125,-0.005859375,0.01171875,-0.02148438,0.3144531,0.015625,0,-0.05004883,-0.003417969,-0.3696289,0,0,-0.3737793,0,4.017,0,0,0,0,nan,2,0.054,1,128,0.1000061,0.1000061,0.1000061,0.1000061,0,0,0,1,2
430.264,0.001009,0.03125,-0.009765625,0.001953125,1.765625,2.15625,5.390625,0,-0.0078125,-0.00390625,0.3144531,0.015625,0,-0.0501709,-0.003417969,-0.369751,0,0,-0.3737793,0,4.017,0,0,0,0,nan,2,0.064,1,128,0.1000061,0.1000061,0.1000061,0.1000061,0,0,0,1,2
430.275,0.00101,-0.00390625,0.03125,0,0.078125,-0.21875,14.17188,-0.0078125,0.00390625,-0.001953125,0.3144531,0.015625,0,-0.05041504,-0.003295898,-0.369751,0,0,-0.3737793,0,4.017,0,0,0,0,nan,2,0.074,1,128,0.1000061,0.1000061,0.1000061,0.1000061,0,0,0,1,2
430.285,0.001009,0,-0.0234375,0.02539062,0.5078125,3.945312,12.79688,0.0078125,-0.005859375,0.01367188,0.3144531,0.015625,0,-0.0501709,-0.003295898,-0.369751,0,0,-0.3737793,0,4.017,0,0,0,0,nan,2,0.084,1,128,0.1000061,0.1000061,0.1000061,0.1000061,0,0,0,1,2
430.294,0.001005,-0.01367188,-0.01757812,0.01171875,0.515625,5.367188,16.35156,-0.005859375,-0.0078125,0.01953125,0.3144531,0.015625,0,-0.0501709,-0.003295898,-0.3695068,0,0,-0.3737793,0,4.017,0,0,0,0,nan,2,0.093,1,128,0.1000061,0.1000061,0.1000061,0.1000061,0,0,0,1,2
430.304,0.001005,0.01171875,0.01757812,0.02929688,1.304688,-3.320312,9.195312,0.005859375,0.00390625,0.01953125,0.3144531,0.015625,0,-0.05029297,-0.003295898,-0.3693848,0,0,-0.3737793,0,4.017,0,0,0,0,nan,2,0.103,1,128,0.1000061,0.1000061,0.1000061,0.1000061,0,0,0,1,2
430.314,0.001,-0.01171875,-0.005859375,-0.00390625,-0.109375,-3.304688,17.14062,-0.015625,-0.00390625,0.01171875,0.3144531,0.015625,0,-0.05029297,-0.003295898,-0.3691406,0,0,-0.3737793,0,4.017,0,0,0,0,nan,2,0.113,1,128,0.1000061,0.1000061,0.1000061,0.1000061,0,0,0,1,2
430.324,0.001006,0.01757812,-0.015625,0.01757812,-0.421875,2.117188,13.96094,0,-0.00390625,0.0078125,0.3144531,0.015625,0,-0.05004883,-0.003417969,-0.3691406,0,0,-0.3737793,0,4.017,0,0,0,0,nan,2,0.123,1,128,0.1000061,0.1000061,0.1000061,0.1000061,0,0,0,1,2
430.334,0.001005,-0.02539062,0.01367188,0.01757812,3.648438,4.023438,6.414062,-0.0078125,0,0.01953125,0.3144531,0.015625,0,-0.05004883,-0.003417969,-0.3688965,0,0,-0.3737793,0,4.017,0,0,0,0,nan,2,0.133,1,128,0.1000061,0.1000061,0.1000061,0.1000061,0,0,0,1,2
430.344,0.001006,-0.0078125,0.01367188,-0.01953125,2.789062,-2.15625,7.75,-0.001953125,0.0078125,-0.015625,0.3144531,0.015625,0,-0.0501709,-0.003417969,-0.3688965,0,0,-0.3737793,0,4.017,0,0,0,0,nan,2,0.143,1,128,0.1000061,0.1000061,0.1000061,0.1000061,0,0,0,1,2
430.354,0.001005,0.01757812,0.005859375,-0.01171875,1.328125,6.710938,11.9375,0,-0.00390625,-0.01171875,0.3144531,0.015625,0,-0.0501709,-0.003417969,-0.3691406,0,0,-0.3737793,0,4.017,0,0,0,0,nan,2,0.153,1,128,0.1000061,0.1000061,0.1000061,0.1000061,0,0,0,1,2
430.365,0.00101,-0.00390625,-0.009765625,-0.02734375,1.460938,-2.296875,9.054688,0,-0.00390625,-0.02734375,0.3144531,0.015625,0,-0.05004883,-0.003417969,-0.3693848,0,0,-0.3737793,0,4.017,0,0,0,0,nan,2,0.164,1,128,0.1000061,0.1000061,0.1000061,0.1000061,0,0,0,1,2
430.374,0.001005,-0.009765625,0.01367188,-0.015625,0.578125,0.2578125,16.32812,-0.00390625,0.00390625,-0.01171875,0.3144531,0.015625,0,-0.04992676,-0.003540039,-0.3695068,0,0,-0.3737793,0,4.017,0,0,0,0,nan,2,0.174,1,128,0.1000061,0.1000061,0.1000061,0.1000061,0,0,0,1,2
430.384,0.001042,0,0.0078125,-0.005859375,-0.3125,-2.3125,8.945312,0.00390625,0.0078125,-0.01757812,0.3144531,0.015625,0,-0.04980469,-0.003417969,-0.3696289,0,0,-0.3737793,0,4.017,0,0,0,0,nan,2,0.183,1,128,0.1000061,0.1000061,0.1000061,0.1000061,0,0,0,1,2
430.394,0.001033,0.02148438,0.00390625,0.01367188,-2.21875,4.5625,13.52344,0,0,0.01171875,0.3144531,0.015625,0,-0.04980469,-0.003295898,-0.3696289,0,0,-0.3737793,0,4.017,0,0,0,0,nan,2,0.002,1,128,0.1000061,0.1000061,0.1000061,0.1000061,0,0,0,1,2
430.404,0.001027,-0.0078125,0,0.01757812,-0.703125,-4.007812,7.796875,0.0078125,-0.001953125,0.01171875,0.3144531,0.015625,0,-0.04968262,-0.003295898,-0.3695068,0,0,-0.3737793,0,4.017,0,0,0,0,nan,2,0.012,1,128,0.1000061,0.1000061,0.1000061,0.1000061,0,0,0,1,2
430.414,0.00103,0.0078125,0,0.0078125,-2.15625,-0.6328125,15.17969,-0.00390625,0.009765625,0.0078125,0.3144531,0.015625,0,-0.04956055,-0.003295898,-0.3693848,0,0,-0.3737793,0,4.017,0,0,0,0,nan,2,0.022,1,128,0.1000061,0.1000061,0.1000061,0.1000061,0,0,0,1,2
430.424,0.001026,-0.01171875,0,-0.02148438,-1.359375,2.34375,8.679688,0,0.00390625,-0.01367188,0.3144531,0.015625,0,-0.04968262,-0.003295898,-0.3693848,0,0,-0.3737793,0,4.017,0,0,0,0,nan,2,0.032,1,128,0.1000061,0.1000061,0.1000061,0.1000061,0,0,0,1,2
430.434,0.001015,-0.009765625,0,-0.01171875,3.125,3.265625,6.976562,0.001953125,-0.0078125,-0.01171875,0.3144531,0.015625,0,-0.0501709,-0.003295898,-0.3696289,0,0,-0.3737793,0,4.017,0,0,0,0,nan,2,0.042,1,128,0.1000061,0.1000061,0.1000061,0.1000061,0,0,0,1,2
430.444,0.001015,0.01953125,0.001953125,-0.02148438,1.53125,-2.796875,11.1875,0,0.005859375,-0.0234375,0.3144531,0.015625,0,-0.0501709,-0.003295898,-0.369751,0,0,-0.3737793,0,4.017,0,0,0,0,nan,2,0.053,1,128,0.1000061,0.1000061,0.1000061,0.1000061,0,0,0,1,2
430.454,0.001015,-0.01367188,0.0078125,0.0078125,-1.039062,4.554688,15.67188,-0.015625,0.01171875,0.01171875,0.3144531,0.015625,0,-0.05029297,-0.003417969,-0.369873,0,0,-0.3737793,0,4.017,0,0,0,0,nan,2,0.063,1,128,0.1000061,0.1000061,0.1000061,0.1000061,0,0,0,1,2
430.464,0.001015,0.03515625,-0.01171875,-0.0234375,-0.1953125,-4.851562,10.27344,0.00390625,-0.005859375,-0.01953125,0.3144531,0.015625,0,-0.05029297,-0.003295898,-0.369873,0,0,-0.3737793,0,4.017,0,0,0,0,nan,2,0.073,1,128,0.1000061,0.1000061,0.1000061,0.1000061,0,0,0,1,2
430.474,0.001015,0.02929688,-0.03515625,-0.02148438,-1.023438,0.7109375,19,0.0078125,-0.01171875,-0.0078125,0.3144531,0.015625,0,-0.0501709,-0.003295898,-0.3699951,0,0,-0.3737793,0,4.017,0,0,0,0,nan,2,0.083,1,128,0.1000061,0.1000061,0.1000061,0.1000061,0,0,0,1,2
430.485,0.001015,-0.01367188,0.0078125,-0.0234375,0.6328125,-0.2734375,10.08594,-0.0078125,-0.00390625,-0.02734375,0.3144531,0.015625,0,-0.04992676,-0.003417969,-0.3702393,0,0,-0.3737793,0,4.017,0,0,0,0,nan,2,0.093,1,128,0.1000061,0.1000061,0.1000061,0.1000061,0,0,0,1,2
430.494,0.00101,0,0.0078125,-0.01171875,-1.992188,2.984375,13.76562,0.00390625,0.001953125,-0.01367188,0.3144531,0.015625,0,-0.05004883,-0.003417969,-0.3703613,0,0,-0.3737793,0,4.017,0,0,0,0,nan,2,0.102,1,128,0.1000061,0.1000061,0.1000061,0.1000061,0,0,0,1,2
430.504,0.001019,0.01171875,-0.0078125,-0.009765625,-1.78125,-5.15625,9.6875,0.00390625,0,-0.01367188,0.3144531,0.015625,0,-0.05004883,-0.003295898,-0.3704834,0,0,-0.3737793,0,4.017,0,0,0,0,nan,2,0.112,1,128,0.1000061,0.1000061,0.1000061,0.1000061,0,0,0,1,2
430.514,0.001012,-0.01757812,-0.01171875,0.001953125,-1.59375,0.140625,12.33594,-0.009765625,0.001953125,-0.005859375,0.3144531,0.015625,0,-0.04968262,-0.003295898,-0.3706055,0,0,-0.3737793,0,4.017,0,0,0,0,nan,2,0.122,1,128,0.1000061,0.1000061,0.1000061,0.1000061,0,0,0,1,2
430.524,0.001006,0.046875,-0.00390625,-0.00390625,-0.7265625,1.359375,4.945312,0.009765625,0.001953125,0.005859375,0.3144531,0.015625,0,-0.04980469,-0.003295898,-0.3706055,0,0,-0.3737793,0,4.017,0,0,0,0,nan,2,0.132,1,128,0.1000061,0.1000061,0.1000061,0.1000061,0,0,0,1,2
430.534,0.00101,0.01757812,-0.015625,0.01953125,0.5390625,-0.203125,8.734375,0.005859375,-0.009765625,0.00390625,0.3144531,0.015625,0,-0.04992676,-0.003295898,-0.3706055,0,0,-0.3737793,0,4.017,0,0,0,0,nan,2,0.142,1,128,0.1000061,0.1000061,0.1000061,0.1000061,0,0,0,1,2
430.544,0.001009,-0.05664062,0.00390625,-0.0390625,-0.6953125,-4.742188,15.95312,-0.00390625,-0.001953125,-0.01757812,0.3144531,0.015625,0,-0.04980469,-0.003417969,-0.3706055,0,0,-0.3737793,0,4.017,0,0,0,0,nan,2,0.153,1,128,0.1000061,0.1000061,0.1000061,0.1000061,0,0,0,1,2
430.554,0.00101,0.05664062,-0.00390625,-0.001953125,-1.882812,2.71875,16.75,0,0,-0.009765625,0.3144531,0.015625,0,-0.04980469,-0.003540039,-0.3708496,0,0,-0.3737793,0,4.017,0,0,0,0,nan,2,0.163,1,128,0.1000061,0.1000061,0.1000061,0.1000061,0,0,0,1,2
430.564,0.001018,-0.03515625,0.015625,-0.03320312,-0.546875,-6.273438,11.69531,-0.005859375,0.00390625,-0.02929688,0.3144531,0.015625,0,-0.04968262,-0.003540039,-0.3709717,0,0,-0.3737793,0,4.017,0,0,0,0,nan,2,0.173,1,128,0.1000061,0.1000061,0.1000061,0.1000061,0,0,0,1,2
430.575,0.001036,0.005859375,0.01171875,0.01367188,-1.539062,0.6015625,16.14062,0.001953125,0.001953125,0.00390625,0.3144531,0.015625,0,-0.04968262,-0.003417969,-0.3710938,0,0,-0.3737793,0,4.017,0,0,0,0,nan,2,0.183,1,128,0.1000061,0.1000061,0.1000061,0.1000061,0,0,0,1,2
430.585,0.001009,-0.05859375,0.01757812,-0.0078125,0.0625,-1.4375,7.03125,-0.015625,0.009765625,-0.0078125,0.3144531,0.015625,0,-0.04968262,-0.003417969,-0.3710938,0,0,-0.3737793,0,4.017,0,0,0,0,nan,2,0.193,1,128,0.1000061,0.1000061,0.1000061,0.1000061,0,0,0,1,2
430.594,0.000991,0.03515625,-0.0078125,0.00390625,-2.671875,2.570312,13.64844,0.0078125,-0.001953125,0.001953125,0.3144531,0.015625,0,-0.04968262,-0.003295898,-0.3710938,0,0,-0.3737793,0,4.017,0,0,0,0,nan,2,0.202,1,128,0.1000061,0.1000061,0.1000061,0.1000061,0,0,0,1,2
430.604,0.001029,0.001953125,0.01757812,-0.009765625,-1.875,-5.617188,5.945312,-0.0078125,0,-0.00390625,0.3144531,0.015625,0,-0.04968262,-0.003295898,-0.3710938,0,0,-0.3737793,0,4.017,0,0,0,0,nan,2,0.005,1,128,0.1000061,0.1000061,0.1000061,0.1000061,0,0,0,1,2
430.614,0.001016,-0.005859375,-0.009765625,-0.005859375,-1.976562,-0.9453125,10.05469,-0.001953125,0.00390625,-0.01171875,0.3144531,0.015625,0,-0.04968262,-0.003173828,-0.3712158,0,0,-0.3737793,0,4.017,0,0,0,0,nan,2,0.015,1,128,0.1000061,0.1000061,0.1000061,0.1000061,0,0,0,1,2
430.624,0.001011,0.03125,0.02929688,-0.01953125,-0.34375,1.992188,4.289062,0.00390625,0.005859375,-0.00390625,0.3144531,0.015625,0,-0.04968262,-0.003173828,-0.3713379,0,0,-0.3737793,0,4.017,0,0,0,0,nan,2,0.025,1,128,0.1000061,0.1000061,0.1000061,0.1000061,0,0,0,1,2
430.634,0.00101,-0.02929688,0.001953125,0.02539062,-0.1171875,-1.929688,10.21875,-0.005859375,-0.005859375,0.005859375,0.3144531,0.015625,0,-0.04968262,-0.003173828,-0.3713379,0,0,-0.3737793,0,4.017,0,0,0,0,nan,2,0.035,1,128,0.1000061,0.1000061,0.1000061,0.1000061,0,0,0,1,2
430.644,0.00101,-0.02929688,0.015625,-0.03710938,-0.9921875,-7.554688,13.82812,-0.00390625,0.009765625,-0.01757812,0.3144531,0.015625,0,-0.04980469,-0.003173828,-0.3713379,0,0,-0.3737793,0,4.017,0,0,0,0,nan,2,0.045,1,128,0.1000061,0.1000061,0.1000061,0.1000061,0,0,0,1,2
430.654,0.00101,-0.015625,0.015625,0.01171875,-2.304688,2.234375,16.24219,-0.01171875,-0.00390625,0,0.3144531,0.015625,0,-0.04968262,-0.003173828,-0.37146,0,0,-0.3737793,0,4.017,0,0,0,0,nan,2,0.056,1,128,0.1000061,0.1000061,0.1000061,0.1000061,0,0,0,1,2
430.664,0.00101,0.015625,0.001953125,-0.03320312,0.1171875,-5.179688,7.882812,-0.001953125,0.001953125,-0.01953125,0.3144531,0.015625,0,-0.04992676,-0.003173828,-0.371582,0,0,-0.3737793,0,4.017,0,0,0,0,nan,2,0.066,1,128,0.1000061,0.1000061,0.1000061,0.1000061,0,0,0,1,2
430.674,0.00101,-0.001953125,0.001953125,0.001953125,-0.7265625,-0.78125,12.89062,0.00390625,0.00390625,-0.005859375,0.3144531,0.015625,0,-0.0501709,-0.003173828,-0.3717041,0,0,-0.3737793,0,4.017,0,0,0,0,nan,2,0.076,1,128,0.1000061,0.1000061,0.1000061,0.1000061,0,0,0,1,2
430.685,0.00101,0,-0.009765625,-0.02539062,1.195312,0.765625,6.125,-0.009765625,-0.00390625,-0.015625,0.3144531,0.015625,0,-0.0501709,-0.003173828,-0.3718262,0,0,-0.3737793,0,4.017,0,0,0,0,nan,2,0.086,1,128,0.1000061,0.1000061,0.1000061,0.1000061,0,0,0,1,2
430.694,0.000996,0.015625,-0.015625,-0.01171875,-2.703125,2.679688,12.375,0.005859375,-0.00390625,-0.01367188,0.3144531,0.015625,0,-0.05004883,-0.003173828,-0.3719482,0,0,-0.3737793,0,4.017,0,0,0,0,nan,2,0.095,1,128,0.1000061,0.1000061,0.1000061,0.1000061,0,0,0,1,2
430.704,0.000993,0.009765625,-0.0234375,-0.005859375,-1.609375,-4.03125,2.921875,-0.009765625,-0.005859375,-0.001953125,0.3144531,0.015625,0,-0.0501709,-0.003173828,-0.3719482,0,0,-0.3737793,0,4.017,0,0,0,0,nan,2,0.105,1,128,0.1000061,0.1000061,0.1000061,0.1000061,0,0,0,1,2
430.714,0.001014,0.009765625,-0.01367188,0.01757812,-1.609375,-2.617188,8.109375,0.01171875,-0.00390625,0.0078125,0.3144531,0.015625,0,-0.04980469,-0.003051758,-0.3719482,0,0,-0.3737793,0,4.017,0,0,0,0,nan,2,0.115,1,128,0.1000061,0.1000061,0.1000061,0.1000061,0,0,0,1,2
430.724,0.001013,0.0625,0.0234375,0,-0.9140625,4.078125,8.351562,0.005859375,0,0.009765625,0.3144531,0.015625,0,-0.04980469,-0.003051758,-0.3718262,0,0,-0.3737793,0,4.017,0,0,0,0,nan,2,0.125,1,128,0.1000061,0.1000061,0.1000061,0.1000061,0,0,0,1,2
430.734,0.00101,-0.01757812,0,0.00390625,-1.046875,0.703125,13.60156,-0.005859375,-0.001953125,0.001953125,0.3144531,0.015625,0,-0.04943848,-0.003173828,-0.3718262,0,0,-0.3737793,0,4.017,0,0,0,0,nan,2,0.135,1,128,0.1000061,0.1000061,0.1000061,0.1000061,0,0,0,1,2
430.744,0.00101,-0.02734375,-0.00390625,-0.0234375,-0.765625,-7.484375,10.125,-0.001953125,-0.005859375,-0.01171875,0.3144531,0.015625,0,-0.04943848,-0.003173828,-0.3718262,0,0,-0.3737793,0,4.017,0,0,0,0,nan,2,0.145,1,128,0.1000061,0.1000061,0.1000061,0.1000061,0,0,0,1,2
430.754,0.00101,-0.00390625,0.0078125,0,-2.023438,2.867188,13.50781,-0.001953125,0.0078125,-0.009765625,0.3144531,0.015625,0,-0.04919434,-0.003295898,-0.3719482,0,0,-0.3737793,0,4.017,0,0,0,0,nan,2,0.156,1,128,0.1000061,0.1000061,0.1000061,0.1000061,0,0,0,1,2
430.764,0.00101,-0.01171875,0.0546875,-0.0390625,1.28125,-2.140625,4.554688,0.00390625,0.005859375,-0.01757812,0.3144531,0.015625,0,-0.04907227,-0.003295898,-0.3719482,0,0,-0.3737793,0,4.017,0,0,0,0,nan,2,0.166,1,128,0.1000061,0.1000061,0.1000061,0.1000061,0,0,0,1,2
430.774,0.00101,-0.00390625,0.02148438,-0.00390625,2.054688,-1.429688,10.625,-0.009765625,0.009765625,-0.01757812,0.3144531,0.015625,0,-0.04919434,-0.003295898,-0.3721924,0,0,-0.3737793,0,4.017,0,0,0,0,nan,2,0.176,1,128,0.1000061,0.1000061,0.1000061,0.1000061,0,0,0,1,2
430.785,0.001009,-0.04101562,-0.00390625,-0.02734375,2.210938,6.59375,10.49219,-0.01171875,-0.005859375,-0.01367188,0.3144531,0.015625,0,-0.04919434,-0.003417969,-0.3723145,0,0,-0.3737793,0,4.017,0,0,0,0,nan,2,0.186,1,128,0.1000061,0.1000061,0.1000061,0.1000061,0,0,0,1,2
430.794,0.001005,0.005859375,-0.0390625,-0.00390625,-1.390625,0.3984375,10.25,-0.0078125,-0.001953125,-0.015625,0.3144531,0.015625,0,-0.04907227,-0.003295898,-0.3724365,0,0,-0.3737793,0,4.017,0,0,0,0,nan,2,0.195,1,128,0.1000061,0.1000061,0.1000061,0.1000061,0,0,0,1,2
430.804,0.001006,-0.04492188,0.02929688,-0.009765625,0.7265625,0.5703125,5.515625,-0.0078125,0.001953125,-0.00390625,0.3144531,0.015625,0,-0.04907227,-0.003295898,-0.3725586,0,0,-0.3737793,0,4.017,0,0,0,0,nan,2,0.205,1,128,0.1000061,0.1000061,0.1000061,0.1000061,0,0,0,1,2
430.814,0.001,0.01171875,0.04882812,-0.02148438,0.765625,-3.921875,8.359375,0.01953125,0.005859375,-0.01757812,0.3144531,0.015625,0,-0.04919434,-0.003295898,-0.3726807,0,0,-0.3737793,0,4.017,0,0,0,0,nan,2,0.215,1,128,0.1000061,0.1000061,0.1000061,0.1000061,0,0,0,1,2
430.824,0.001002,0.00390625,0.0390625,-0.01757812,-1.039062,4.054688,13.8125,0,-0.005859375,-0.009765625,0.3144531,0.015625,0,-0.04919434,-0.003295898,-0.3728027,0,0,-0.3737793,0,4.017,0,0,0,0,nan,2,0.225,1,128,0.1000061,0.1000061,0.1000061,0.1000061,0,0,0,1,2
430.834,0.001015,-0.0390625,0.02734375,0,-0.765625,5.046875,13.40625,-0.009765625,0.009765625,-0.01171875,0.3144531,0.015625,0,-0.04919434,-0.003295898,-0.3729248,0,0,-0.3737793,0,4.017,0,0,0,0,nan,2,0.235,1,128,0.1000061,0.1000061,0.1000061,0.1000061,0,0,0,1,2
430.844,0.001014,-0.01367188,0.015625,-0.03125,1.632812,-2.546875,4.703125,-0.0078125,0.009765625,-0.02148438,0.3144531,0.015625,0,-0.04919434,-0.003295898,-0.3730469,0,0,-0.3737793,0,4.017,0,0,0,0,nan,2,0.245,1,128,0.1000061,0.1000061,0.1000061,0.1000061,0,0,0,1,2
430.854,0.001046,0.005859375,-0.03515625,-0.009765625,0.9921875,0.7734375,8.671875,-0.005859375,-0.009765625,-0.02929688,0.3144531,0.015625,0,-0.04907227,-0.003295898,-0.3734131,0,0,-0.3737793,0,4.017,0,0,0,0,nan,2,0.256,1,128,0.1000061,0.1000061,0.1000061,0.1000061,0,0,0,1,2
430.864,0.001023,0.03125,0,-0.02929688,1.703125,-6.109375,7.1875,0.01757812,-0.00390625,-0.01953125,0.3144531,0.015625,0,-0.04919434,-0.003417969,-0.3735352,0,0,-0.3737793,0,4.017,0,0,0,0,nan,2,0.006,1,128,0.1000061,0.1000061,0.1000061,0.1000061,0,0,0,1,2
430.874,0.001026,0.01171875,0.015625,0.0234375,0.171875,1.875,10.46094,0,0,0.001953125,0.3144531,0.015625,0,-0.04919434,-0.003295898,-0.3736572,0,0,-0.3737793,0,4.017,0,0,0,0,nan,2,0.016,1,128,0.1000061,0.1000061,0.1000061,0.1000061,0,0,0,1,2
430.885,0.001015,0.01953125,0,-0.00390625,-1.585938,5.3125,12.60938,0,-0.005859375,0.001953125,0.3144531,0.015625,0,-0.04919434,-0.003417969,-0.3736572,0,0,-0.3737793,0,4.017,0,0,0,0,nan,2,0.027,1,128,0.1000061,0.1000061,0.1000061,0.1000061,0,0,0,1,2
430.894,0.00101,0.005859375,0.03710938,-0.0078125,2.664062,-2.140625,10.5625,0.001953125,0,-0.001953125,0.3144531,0.015625,0,-0.04919434,-0.003417969,-0.3736572,0,0,-0.3737793,0,4.017,0,0,0,0,nan,2,0.036,1,128,0.1000061,0.1000061,0.1000061,0.1000061,0,0,0,1,2
430.904,0.001009,0.005859375,-0.03125,0.001953125,0.65625,4.46875,12.39844,-0.009765625,-0.005859375,-0.00390625,0.3144531,0.015625,0,-0.04919434,-0.003417969,-0.3736572,0,0,-0.3737793,0,4.017,0,0,0,0,nan,2,0.046,1,128,0.1000061,0.1000061,0.1000061,0.1000061,0,0,0,1,2
430.914,0.001012,0.015625,0,-0.01367188,0.6640625,-4.851562,9.734375,0.005859375,0.00390625,-0.01367188,0.3144531,0.015625,0,-0.04919434,-0.003417969,-0.3737793,0,0,-0.3737793,0,4.017,0,0,0,0,nan,2,0.057,1,128,0.1000061,0.1000061,0.1000061,0.1000061,0,0,0,1,2
430.924,0.001024,0.015625,-0.01171875,0.01757812,-0.8515625,-0.140625,16.57812,-0.0078125,0,0.005859375,0.3144531,0.015625,0,-0.04907227,-0.003417969,-0.3737793,0,0,-0.3737793,0,4.017,0,0,0,0,nan,2,0.067,1,128,0.1000061,0.1000061,0.1000061,0.1000061,0,0,0,1,2
430.934,0.000991,0.04101562,0.001953125,-0.01953125,-0.9375,5.179688,9.992188,0.00390625,0.005859375,-0.01757812,0.3144531,0.015625,0,-0.04882812,-0.003540039,-0.3739014,0,0,-0.3739014,0,4.017,0,0,0,0,nan,2,0.077,0,128,0,0,0,0,0,0,0,1,2
430.944,0.00101,-0.04882812,-0.0234375,-0.01171875,0.734375,4.320312,8.046875,0,-0.01171875,-0.001953125,0.3144531,0.015625,0,-0.04858398,-0.003417969,-0.3740234,0,0,-0.3740234,0,4.017,0,0,0,0,nan,2,0.087,0,128,0,0,0,0,0,0,0,1,2
430.954,0.001009,-0.005859375,-0.01367188,-0.04101562,0.28125,-1.960938,10.9375,-0.0078125,-0.005859375,-0.04492188,0.3144531,0.015625,0,-0.04833984,-0.003417969,-0.3742676,0,0,-0.3742676,0,4.017,0,0,0,0,nan,2,0.097,0,128,0,0,0,0,0,0,0,1,2
430.964,0.000985,0.00390625,0.005859375,-0.02539062,1.226562,2.476562,4.210938,0.01171875,-0.001953125,-0.01953125,0.3144531,0.015625,0,-0.04821777,-0.003540039,-0.3745117,0,0,-0.3745117,0,4.017,0,0,0,0,nan,2,0.107,0,128,0,0,0,0,0,0,0,1,2
430.975,0.001012,0.02148438,-0.01367188,0,-0.21875,3.476562,13.59375,-0.0078125,0.001953125,-0.02929688,0.3144531,0.015625,0,-0.0480957,-0.003295898,-0.3748779,0,0,-0.3748779,0,4.017,0,0,0,0,nan,2,0.117,0,128,0,0,0,0,0,0,0,1,2
430.985,0.00102,-0.03515625,-0.0234375,-0.015625,-0.3984375,-3.414062,10.21875,-0.00390625,-0.00390625,-0.0078125,0.3144531,0.015625,0,-0.04785156,-0.003173828,-0.375,0,0,-0.375,0,4.017,0,0,0,0,nan,2,0.127,0,128,0,0,0,0,0,0,0,1,2
430.994,0.000996,0.02734375,0.015625,-0.01757812,0.09375,-2.546875,7.890625,-0.001953125,0.005859375,-0.01367188,0.3144531,0.015625,0,-0.04785156,-0.003051758,-0.3751221,0,0,-0.3751221,0,4.017,0,0,0,0,nan,2,0.136,0,128,0,0,0,0,0,0,0,1,2
431.004,0.00099,-0.0234375,-0.009765625,0.015625,-1.34375,-0.828125,10.57031,-0.001953125,0.00390625,0.005859375,0.3144531,0.015625,0,-0.04748535,-0.003051758,-0.3752441,0,0,-0.3752441,0,4.017,0,0,0,0,nan,2,0.146,0,128,0,0,0,0,0,0,0,1,2
431.014,0.001007,0.03515625,-0.02148438,0.03515625,-0.4609375,1.226562,11.10156,0.001953125,-0.01171875,0.02539062,0.3144531,0.015625,0,-0.046875,-0.002685547,-0.375,0,0,-0.375,0,4.017,0,0,0,0,nan,2,0.157,0,128,0,0,0,0,0,0,0,1,2
431.024,0.001045,-0.03515625,-0.05859375,0.0078125,1.84375,0.6875,10.51562,0.001953125,-0.02539062,0.015625,0.3144531,0.015625,0,-0.04626465,-0.002563477,-0.3747559,0,0,-0.3747559,0,4.017,0,0,0,0,nan,2,0.167,0,128,0,0,0,0,0,0,0,1,2
431.034,0.00101,0.0234375,-0.02734375,0.02734375,0.4609375,1.40625,10.82812,0.0078125,-0.001953125,0.009765625,0.3144531,0.015625,0,-0.04614258,-0.002563477,-0.3747559,0,0,-0.3747559,0,4.017,0,0,0,0,nan,2,0.177,0,128,0,0,0,0,0,0,0,1,2
431.044,0.001004,0.046875,-0.02734375,-0.03515625,-0.7890625,-1.054688,9.6875,0.01367188,-0.001953125,-0.0078125,0.3144531,0.015625,0,-0.04577637,-0.002563477,-0.3746338,0,0,-0.3746338,0,4.017,0,0,0,0,nan,2,0.187,0,128,0,0,0,0,0,0,0,1,2
431.054,0.001015,0.02929688,0.01757812,0.009765625,0.3203125,-0.6796875,9.539062,0.0078125,0.015625,-0.0078125,0.3144531,0.015625,0,-0.04516602,-0.002441406,-0.3747559,0,0,-0.3747559,0,4.017,0,0,0,0,nan,2,0.197,0,128,0,0,0,0,0,0,0,1,2
431.064,0.001004,-0.06640625,-0.02148438,-0.06445312,-0.453125,-0.6484375,10.76562,-0.01367188,-0.005859375,-0.04492188,0.3144531,0.015625,0,-0.04492188,-0.002441406,-0.375,0,0,-0.375,0,4.017,0,0,0,0,nan,2,0.207,0,128,0,0,0,0,0,0,0,1,2
431.074,0.000996,0.0234375,-0.015625,-0.04296875,0.8515625,1.921875,6.9375,0.00390625,0.015625,-0.03710938,0.3144531,0.015625,0,-0.0447998,-0.002441406,-0.3754883,0,0,-0.3754883,0,4.017,0,0,0,0,nan,2,0.217,0,128,0,0,0,0,0,0,0,1,2
431.084,0.00103,0.00390625,-0.015625,-0.05664062,0.7265625,2.46875,9.515625,0.00390625,-0.005859375,-0.05859375,0.3144531,0.015625,0,-0.04467773,-0.002563477,-0.3759766,0,0,-0.3759766,0,4.017,0,0,0,0,nan,2,0.226,0,128,0,0,0,0,0,0,0,1,2
431.094,0.001013,-0.0390625,-0.04101562,-0.02929688,0.8359375,2.875,6.9375,-0.001953125,-0.01367188,-0.01367188,0.3144531,0.015625,0,-0.04443359,-0.002685547,-0.3762207,0,0,-0.3762207,0,4.017,0,0,0,0,nan,2,0.002,0,128,0,0,0,0,0,0,0,1,2
431.104,0.001015,-0.005859375,-0.03125,-0.00390625,2.429688,3.570312,7.296875,0.009765625,-0.001953125,-0.015625,0.3144531,0.015625,0,-0.04455566,-0.002807617,-0.3763428,0,0,-0.3763428,0,4.017,0,0,0,0,nan,2,0.012,0,128,0,0,0,0,0,0,0,1,2
431.114,0.001006,0.04296875,0.005859375,-0.046875,0.2265625,2.757812,9.679688,-0.005859375,0.001953125,-0.02539062,0.3144531,0.015625,0,-0.04418945,-0.002929688,-0.3764648,0,0,-0.3764648,0,4.017,0,0,0,0,nan,2,0.022,0,128,0,0,0,0,0,0,0,1,2
431.124,0.001014,-0.0234375,0.01757812,0.015625,-1.640625,-3.3125,10.28125,-0.0078125,0.001953125,0,0.3144531,0.015625,0,-0.04382324,-0.002685547,-0.376709,0,0,-0.376709,0,4.017,0,0,0,0,nan,2,0.032,0,128,0,0,0,0,0,0,0,1,2
431.134,0.001012,-0.02539062,0.05078125,0.00390625,-0.671875,-0.21875,13.36719,-0.001953125,0.0078125,0.001953125,0.3144531,0.015625,0,-0.04394531,-0.002563477,-0.3765869,0,0,-0.3765869,0,4.017,0,0,0,0,nan,2,0.042,0,128,0,0,0,0,0,0,0,1,2
431.144,0.001006,0.01757812,-0.02148438,0.001953125,0.84375,3.195312,10.14844,0.00390625,0,0.0078125,0.3144531,0.015625,0,-0.0435791,-0.002441406,-0.3765869,0,0,-0.3765869,0,4.017,0,0,0,0,nan,2,0.052,0,128,0,0,0,0,0,0,0,1,2
431.154,0.001015,-0.0390625,0.02734375,0.01367188,-1.734375,-3.96875,10.60156,-0.001953125,0.001953125,-0.005859375,0.3144531,0.015625,0,-0.04333496,-0.002563477,-0.3765869,0,0,-0.3765869,0,4.017,0,0,0,0,nan,2,0.063,0,128,0,0,0,0,0,0,0,1,2
431.164,0.001012,-0.01367188,0.005859375,-0.01953125,-1.054688,1.570312,9.5,-0.00390625,0,-0.005859375,0.3144531,0.015625,0,-0.04345703,-0.002441406,-0.3765869,0,0,-0.3765869,0,4.017,0,0,0,0,nan,2,0.073,0,128,0,0,0,0,0,0,0,1,2
431.175,0.001028,0.04296875,-0.02539062,0.01367188,1.210938,5.90625,11.79688,0.0078125,0,0.0234375,0.3144531,0.015625,0,-0.04321289,-0.002563477,-0.3764648,0,0,-0.3764648,0,4.017,0,0,0,0,nan,2,0.083,0,128,0,0,0,0,0,0,0,1,2
431.185,0.001025,0.06640625,-0.009765625,-0.04492188,2.5,2.3125,9.851562,0.0078125,0.009765625,-0.01953125,0.3144531,0.015625,0,-0.04309082,-0.002807617,-0.3764648,0,0,-0.3764648,0,4.017,0,0,0,0,nan,2,0.093,0,128,0,0,0,0,0,0,0,1,2
431.195,0.001014,0.01757812,-0.01757812,-0.0234375,2.304688,-0.2265625,8.96875,-0.001953125,0.001953125,-0.009765625,0.3144531,0.015625,0,-0.04284668,-0.003051758,-0.3765869,0,0,-0.3765869,0,4.017,0,0,0,0,nan,2,0.103,0,128,0,0,0,0,0,0,0,1,2
431.204,0.00099,-0.02929688,0.009765625,0.0703125,-2.265625,-2.984375,8.023438,0,-0.009765625,0.03125,0.3144531,0.015625,0,-0.04309082,-0.002929688,-0.3765869,0,0,-0.3765869,0,4.017,0,0,0,0,nan,2,0.112,0,128,0,0,0,0,0,0,0,1,2
431.214,0.001023,-0.07226562,0.001953125,-0.0234375,-2.179688,-2.382812,9.359375,-0.0078125,-0.001953125,-0.00390625,0.3144531,0.015625,0,-0.04333496,-0.002929688,-0.3763428,0,0,-0.3763428,0,4.017,0,0,0,0,nan,2,0.122,0,128,0,0,0,0,0,0,0,1,2
431.224,0.000998,0.03125,-0.00390625,-0.015625,0.234375,-0.1875,9.351562,0.00390625,0.00390625,-0.01171875,0.3144531,0.015625,0,-0.04296875,-0.002807617,-0.3764648,0,0,-0.3764648,0,4.017,0,0,0,0,nan,2,0.132,0,128,0,0,0,0,0,0,0,1,2
431.234,0.00102,0.03710938,-0.01953125,0.009765625,2.226562,1.0625,10.14844,0.005859375,0,0.009765625,0.3144531,0.015625,0,-0.0423584,-0.002685547,-0.3764648,0,0,-0.3764648,0,4.017,0,0,0,0,nan,2,0.142,0,128,0,0,0,0,0,0,0,1,2
431.244,0.001009,-0.06054688,-0.005859375,-0.005859375,-1.257812,-2.625,10.11719,-0.01953125,-0.0078125,-0.001953125,0.3144531,0.015625,0,-0.0423584,-0.002197266,-0.3763428,0,0,-0.3763428,0,4.017,0,0,0,0,nan,2,0.152,0,128,0,0,0,0,0,0,0,1,2
431.254,0.001009,0.03125,-0.05273438,0,1.234375,-1.148438,9.898438,0.00390625,-0.0078125,-0.001953125,0.3144531,0.015625,0,-0.04187012,-0.002075195,-0.3763428,0,0,-0.3763428,0,4.017,0,0,0,0,nan,2,0.163,0,128,0,0,0,0,0,0,0,1,2
431.264,0.001011,-0.009765625,-0.05078125,0,1.15625,-0.609375,9.804688,-0.005859375,-0.01367188,-0.001953125,0.3144531,0.015625,0,-0.04174805,-0.002319336,-0.3763428,0,0,-0.3763428,0,4.017,0,0,0,0,nan,2,0.173,0,128,0,0,0,0,0,0,0,1,2
431.275,0.001027,-0.0859375,-0.01367188,0.0078125,-0.390625,-2.265625,9.34375,-0.0078125,-0.0078125,0,0.3144531,0.015625,0,-0.04138184,-0.002075195,-0.3763428,0,0,-0.3763428,0,4.017,0,0,0,0,nan,2,0.006,0,128,0,0,0,0,0,0,0,1,2
431.284,0.001031,-0.0234375,0.03710938,-0.01171875,-1.851562,0.9453125,9.4375,0,0.001953125,-0.0078125,0.3144531,0.015625,0,-0.04125977,-0.002075195,-0.3763428,0,0,-0.3763428,0,4.017,0,0,0,0,nan,2,0.015,0,128,0,0,0,0,0,0,0,1,2
431.295,0.000998,0.02929688,0.03515625,0.02539062,-1.195312,0.7109375,10.02344,-0.001953125,0.0078125,0.00390625,0.3144531,0.015625,0,-0.04101562,-0.001953125,-0.3763428,0,0,-0.3763428,0,4.017,0,0,0,0,nan,2,0.026,0,128,0,0,0,0,0,0,0,1,2
431.304,0.001008,-0.1015625,-0.001953125,0.015625,1.070312,-2.03125,9.070312,-0.01757812,-0.00390625,0.001953125,0.3144531,0.015625,0,-0.04077148,-0.002075195,-0.3763428,0,0,-0.3763428,0,4.017,0,0,0,0,nan,2,0.035,0,128,0,0,0,0,0,0,0,1,2
431.314,0.0009869999,-0.0390625,0.009765625,0.005859375,-0.71875,0.875,9.203125,0.001953125,0,-0.00390625,0.3144531,0.015625,0,-0.04077148,-0.002075195,-0.3763428,0,0,-0.3763428,0,4.017,0,0,0,0,nan,2,0.045,0,128,0,0,0,0,0,0,0,1,2
431.324,0.000989,0.015625,0,-0.0078125,1.570312,-0.0546875,9.421875,-0.00390625,-0.0078125,0,0.3144531,0.015625,0,-0.04064941,-0.002197266,-0.3763428,0,0,-0.3763428,0,4.017,0,0,0,0,nan,2,0.056,0,128,0,0,0,0,0,0,0,1,2
431.334,0.001008,-0.09765625,-0.03710938,-0.01171875,1.101562,-0.421875,9.375,-0.02539062,-0.01367188,-0.00390625,0.3144531,0.015625,0,-0.04040527,-0.002197266,-0.3763428,0,0,-0.3763428,0,4.017,0,0,0,0,nan,2,0.066,0,128,0,0,0,0,0,0,0,1,2
431.344,0.000996,0.078125,-0.0078125,0.01757812,0.5703125,-0.2734375,9.757812,0.001953125,0.001953125,0.001953125,0.3144531,0.015625,0,-0.04003906,-0.002319336,-0.3764648,0,0,-0.3764648,0,4.017,0,0,0,0,nan,2,0.076,0,128,0,0,0,0,0,0,0,1,2
431.354,0.000996,-0.009765625,0.009765625,-0.02539062,-0.1953125,0.546875,9.90625,0.001953125,0.00390625,-0.00390625,0.3144531,0.015625,0,-0.03967285,-0.002441406,-0.3764648,0,0,-0.3764648,0,4.017,0,0,0,0,nan,2,0.086,0,128,0,0,0,0,0,0,0,1,2
431.364,0.000996,-0.005859375,-0.0078125,0.00390625,-0.046875,-0.7109375,10.32031,-0.001953125,-0.00390625,0,0.3144531,0.015625,0,-0.03930664,-0.002197266,-0.3764648,0,0,-0.3764648,0,4.017,0,0,0,0,nan,2,0.096,0,128,0,0,0,0,0,0,0,1,2
431.374,0.000892,0.009765625,0.001953125,0.005859375,0.5625,-0.7265625,10.66406,0,0,-0.005859375,0.3144531,0.015625,0,-0.0390625,-0.002197266,-0.3764648,0,0,-0.3764648,0,4.017,0,0,0,0,nan,2,0.106,0,128,0,0,0,0,0,0,0,1,2
431.385,0.000996,0.05273438,-0.03320312,0.0234375,-0.6328125,-0.75,10.21875,0.001953125,-0.0078125,0.001953125,0.3144531,0.015625,0,-0.03881836,-0.002197266,-0.3764648,0,0,-0.3764648,0,4.017,0,0,0,0,nan,2,0.116,0,128,0,0,0,0,0,0,0,1,2
431.395,0.0009860001,0.06835938,-0.01757812,0.01953125,-0.1875,-1.132812,10.08594,0.01757812,-0.005859375,0.005859375,0.3144531,0.015625,0,-0.03857422,-0.001953125,-0.3764648,0,0,-0.3764648,0,4.017,0,0,0,0,nan,2,0.126,0,128,0,0,0,0,0,0,0,1,2
431.404,0.00102,0.03125,0,-0.00390625,0.8359375,-0.65625,10.14062,0,0.0078125,0.00390625,0.3144531,0.015625,0,-0.03833008,-0.001708984,-0.3764648,0,0,-0.3764648,0,4.017,0,0,0,0,nan,2,0.135,0,128,0,0,0,0,0,0,0,1,2
431.414,0.000995,-0.001953125,0.01171875,-0.005859375,0.46875,-0.296875,10.17188,-0.005859375,0,0,0.3144531,0.015625,0,-0.03796387,-0.001708984,-0.3764648,0,0,-0.3764648,0,4.068,0,0,0,0,nan,2,0.145,0,128,0,0,0,0,0,0,0,1,2
431.424,0.001008,-0.01367188,-0.005859375,-0.005859375,0.1796875,-0.375,10.05469,0,-0.001953125,-0.005859375,0.3144531,0.015625,0,-0.03759766,-0.001708984,-0.3764648,0,0,-0.3764648,0,4.068,0,0,0,0,nan,2,0.156,0,128,0,0,0,0,0,0,0,1,2
431.434,0.001008,-0.009765625,0.009765625,-0.0078125,0.2578125,0.2265625,9.75,-0.001953125,0.00390625,-0.001953125,0.3144531,0.015625,0,-0.03735352,-0.001708984,-0.3764648,0,0,-0.3764648,0,4.068,0,0,0,0,nan,2,0.166,0,128,0,0,0,0,0,0,0,1,2
431.444,0.001008,-0.02148438,0.00390625,-0.01953125,-0.140625,-0.0390625,9.28125,-0.001953125,0.001953125,0.00390625,0.3144531,0.015625,0,-0.0369873,-0.001586914,-0.3764648,0,0,-0.3764648,0,4.068,0,0,0,0,nan,2,0.176,0,128,0,0,0,0,0,0,0,1,2
431.454,0.001004,0.01171875,0,0.0078125,0.0078125,-0.703125,10.34375,0.00390625,-0.001953125,0.005859375,0.3144531,0.015625,0,-0.03649902,-0.001586914,-0.3764648,0,0,-0.3764648,0,4.068,0,0,0,0,nan,2,0.186,0,128,0,0,0,0,0,0,0,1,2
431.464,0.001007,-0.005859375,0,0.0234375,-0.203125,0.328125,10.16406,-0.005859375,0,0.005859375,0.3144531,0.015625,0,-0.03637695,-0.001586914,-0.3764648,0,0,-0.3764648,0,4.068,0,0,0,0,nan,2,0.196,0,128,0,0,0,0,0,0,0,1,2
431.474,0.001004,-0.001953125,0.00390625,-0.009765625,0.109375,-0.3359375,9.375,0,0.001953125,-0.00390625,0.3144531,0.015625,0,-0.03613281,-0.001586914,-0.3764648,0,0,-0.3764648,0,4.068,0,0,0,0,nan,2,0.206,0,128,0,0,0,0,0,0,0,1,2
431.485,0.001009,-0.001953125,0.0078125,0.005859375,0.2734375,-0.453125,10.44531,0,0.00390625,-0.00390625,0.3144531,0.015625,0,-0.0357666,-0.001464844,-0.3764648,0,0,-0.3764648,0,4.068,0,0,0,0,nan,2,0.216,0,128,0,0,0,0,0,0,0,1,2
431.495,0.001004,0.009765625,-0.005859375,0.01757812,-0.421875,-0.4296875,9.710938,0.001953125,-0.00390625,0.0078125,0.3144531,0.015625,0,-0.03564453,-0.001464844,-0.3764648,0,0,-0.3764648,0,4.068,0,0,0,0,nan,2,0.226,0,128,0,0,0,0,0,0,0,1,2
431.504,0.001013,-0.02539062,-0.005859375,-0.01757812,-0.2265625,-0.3046875,9.421875,-0.00390625,0.001953125,-0.001953125,0.3144531,0.015625,0,-0.03540039,-0.001342773,-0.3764648,0,0,-0.3764648,0,4.068,0,0,0,0,nan,2,0.235,0,128,0,0,0,0,0,0,0,1,2
431.514,0.000982,-0.0078125,0.00390625,0.01171875,-0.015625,0.1875,9.96875,-0.0078125,-0.00390625,0.001953125,0.3144531,0.015625,0,-0.03515625,-0.001220703,-0.3764648,0,0,-0.3764648,0,4.068,0,0,0,0,nan,2,0.245,0,128,0,0,0,0,0,0,0,1,2
431.524,0.001043,0.005859375,0.001953125,-0.0078125,0.09375,-0.453125,9.523438,0.00390625,0.001953125,0,0.3144531,0.015625,0,-0.03491211,-0.001220703,-0.3764648,0,0,-0.3764648,0,4.068,0,0,0,0,nan,2,0.003,0,128,0,0,0,0,0,0,0,1,2
431.534,0.001021,-0.001953125,0.001953125,-0.01171875,-0.03125,-0.2109375,9.882812,0.001953125,0,-0.001953125,0.3144531,0.015625,0,-0.03466797,-0.001098633,-0.3765869,0,0,-0.3765869,0,4.068,0,0,0,0,nan,2,0.013,0,128,0,0,0,0,0,0,0,1,2
431.544,0.001344,-0.0078125,-0.00390625,0.00390625,-0.203125,-0.5390625,9.828125,-0.001953125,-0.001953125,0.005859375,0.3144531,0.015625,0,-0.03430176,-0.001220703,-0.3765869,0,0,-0.3765869,0,4.068,0,0,0,0,nan,2,0.023,0,128,0,0,0,0,0,0,0,1,2
431.554,0.000815,-0.001953125,-0.005859375,-0.005859375,-0.2734375,-0.4921875,9.929688,0.00390625,-0.001953125,0,0.3144531,0.015625,0,-0.03405762,-0.001220703,-0.3764648,0,0,-0.3764648,0,4.068,0,0,0,0,nan,2,0.033,0,128,0,0,0,0,0,0,0,1,2
431.564,0.001176,-0.0078125,-0.00390625,-0.00390625,-0.1796875,-0.46875,9.804688,0,-0.001953125,-0.001953125,0.3144531,0.015625,0,-0.03393555,-0.001342773,-0.3765869,0,0,-0.3765869,0,4.068,0,0,0,0,nan,2,0.043,0,128,0,0,0,0,0,0,0,1,2
431.574,0.001286,-0.005859375,-0.00390625,-0.01171875,0.0078125,-0.421875,9.726562,-0.001953125,-0.001953125,-0.005859375,0.3144531,0.015625,0,-0.03381348,-0.001220703,-0.3765869,0,0,-0.3765869,0,4.068,0,0,0,0,nan,2,0.053,0,128,0,0,0,0,0,0,0,1,2
431.584,0.001327,0,0,-0.005859375,-0.0390625,-0.296875,9.796875,0,0,0.00390625,0.3144531,0.015625,0,-0.03356934,-0.001098633,-0.3765869,0,0,-0.3765869,0,4.068,0,0,0,0,nan,2,0.063,0,128,0,0,0,0,0,0,0,1,2
431.594,0.001203,0.005859375,-0.00390625,0.01367188,0.03125,-0.625,9.65625,0.001953125,-0.001953125,0.00390625,0.3144531,0.015625,0,-0.0333252,-0.001098633,-0.3765869,0,0,-0.3765869,0,4.068,0,0,0,0,nan,2,0.072,0,128,0,0,0,0,0,0,0,1,2
431.649,0.055437,0,0.001953125,0.00390625,0.0390625,-0.015625,9.84375,0,0.001953125,0.00390625,0.3144531,0.015625,0,-0.03283691,-0.001098633,-0.3763428,0,0,-0.3763428,0,4.068,0,0,0,0,nan,2,0.128,0,128,0,0,0,0,0,0,0,1,2
431.654,0.0009869999,0.005859375,0,-0.00390625,0.1171875,-0.28125,9.734375,0.00390625,0,0.001953125,0.3144531,0.015625,0,-0.0324707,-0.001098633,-0.3763428,0,0,-0.3763428,0,4.068,0,0,0,0,nan,2,0.132,0,128,0,0,0,0,0,0,0,1,2
431.664,0.001011,-0.0078125,-0.005859375,-0.00390625,-0.0859375,-0.1875,9.835938,-0.00390625,-0.00390625,-0.001953125,0.3144531,0.015625,0,-0.0324707,-0.001098633,-0.3763428,0,0,-0.3763428,0,4.068,0,0,0,0,nan,2,0.143,0,128,0,0,0,0,0,0,0,1,2
431.674,0.001055,0.00390625,-0.00390625,0.001953125,0.1171875,-0.3125,9.820312,0.001953125,0,0,0.3144531,0.015625,0,-0.03210449,-0.001098633,-0.3763428,0,0,-0.3763428,0,4.068,0,0,0,0,nan,2,0.153,0,128,0,0,0,0,0,0,0,1,2
431.684,0.000976,-0.005859375,0.00390625,-0.0078125,-0.109375,-0.203125,9.851562,-0.00390625,-0.001953125,-0.001953125,0.3144531,0.015625,0,-0.03210449,-0.001098633,-0.3763428,0,0,-0.3763428,0,4.068,0,0,0,0,nan,2,0.163,0,128,0,0,0,0,0,0,0,1,2
431.694,0.000988,0,-0.001953125,0.00390625,0.109375,-0.21875,9.914062,0,0.001953125,0,0.3144531,0.015625,0,-0.03186035,-0.0009765625,-0.3763428,0,0,-0.3763428,0,4.068,0,0,0,0,nan,2,0.173,0,128,0,0,0,0,0,0,0,1,2
431.705,0.001007,-0.001953125,0.001953125,0,-0.0546875,-0.2421875,9.929688,-0.001953125,-0.001953125,0,0.3144531,0.015625,0,-0.03186035,-0.0009765625,-0.3763428,0,0,-0.3763428,0,4.068,0,0,0,0,nan,2,0.184,0,128,0,0,0,0,0,0,0,1,2
431.715,0.001012,0.005859375,0.001953125,0,0.0625,-0.2734375,9.859375,0.001953125,0,0,0.3144531,0.015625,0,-0.03161621,-0.0009765625,-0.3763428,0,0,-0.3763428,0,4.068,0,0,0,0,nan,2,0.194,0,128,0,0,0,0,0,0,0,1,2
431.724,0.001004,-0.001953125,-0.001953125,0.001953125,-0.046875,-0.296875,9.84375,0,0,0,0.3144531,0.015625,0,-0.03149414,-0.0008544922,-0.3763428,0,0,-0.3763428,0,4.068,0,0,0,0,nan,2,0.203,0,128,0,0,0,0,0,0,0,1,2
431.734,0.001009,0,-0.001953125,0,0.046875,-0.2578125,9.851562,0,0,0,0.3144531,0.015625,0,-0.03137207,-0.0008544922,-0.3763428,0,0,-0.3763428,0,4.068,0,0,0,0,nan,2,0.213,0,128,0,0,0,0,0,0,0,1,2
431.744,0.001014,-0.001953125,0.001953125,0,-0.09375,-0.3125,9.851562,0,0,-0.001953125,0.3144531,0.015625,0,-0.03125,-0.0008544922,-0.3763428,0,0,-0.3763428,0,4.068,0,0,0,0,nan,2,0.223,0,128,0,0,0,0,0,0,0,1,2
431.754,0.001007,0,0.001953125,0.001953125,0.03125,-0.28125,9.851562,-0.001953125,0,0,0.3144531,0.015625,0,-0.03112793,-0.0007324219,-0.3763428,0,0,-0.3763428,0,4.068,0,0,0,0,nan,2,0.233,0,128,0,0,0,0,0,0,0,1,2
431.764,0.001002,-0.001953125,0.001953125,0,-0.0390625,-0.2734375,9.8125,0,0,-0.001953125,0.3144531,0.015625,0,-0.03112793,-0.0007324219,-0.3763428,0,0,-0.3763428,0,4.068,0,0,0,0,nan,2,0.001,0,128,0,0,0,0,0,0,0,1,2
431.774,0.001009,-0.001953125,0,0.001953125,-0.0078125,-0.234375,9.820312,0,0,0,0.3144531,0.015625,0,-0.03100586,-0.0006103516,-0.3763428,0,0,-0.3763428,0,4.068,0,0,0,0,nan,2,0.011,0,128,0,0,0,0,0,0,0,1,2
431.784,0.001023,-0.001953125,0.001953125,0.001953125,0.015625,-0.2890625,9.828125,-0.001953125,0,0,0.3144531,0.015625,0,-0.03088379,-0.0006103516,-0.3764648,0,0,-0.3764648,0,4.068,0,0,0,0,nan,2,0.021,0,128,0,0,0,0,0,0,0,1,2
431.794,0.00101,0,0,-0.00390625,0,-0.2421875,9.820312,0,0,0,0.3144531,0.015625,0,-0.03076172,-0.0006103516,-0.3764648,0,0,-0.3764648,0,4.068,0,0,0,0,nan,2,0.031,0,128,0,0,0,0,0,0,0,1,2
431.804,0.001014,0,0.001953125,0,-0.0078125,-0.28125,9.875,0,-0.001953125,-0.001953125,0.3144531,0.015625,0,-0.03063965,-0.0006103516,-0.3764648,0,0,-0.3764648,0,4.068,0,0,0,0,nan,2,0.041,0,128,0,0,0,0,0,0,0,1,2
431.815,0.001009,-0.001953125,-0.001953125,-0.001953125,-0.015625,-0.28125,9.859375,0,0,0,0.3144531,0.015625,0,-0.03063965,-0.0006103516,-0.3764648,0,0,-0.3764648,0,4.068,0,0,0,0,nan,2,0.051,0,128,0,0,0,0,0,0,0,1,2
431.824,0.001011,0,-0.00390625,0.001953125,0.015625,-0.2734375,9.835938,0,-0.001953125,0,0.3144531,0.015625,0,-0.03051758,-0.0006103516,-0.3764648,0,0,-0.3764648,0,4.068,0,0,0,0,nan,2,0.061,0,128,0,0,0,0,0,0,0,1,2
431.834,0.001011,0.001953125,0.001953125,0,-0.0390625,-0.265625,9.8125,0,0,0,0.3144531,0.015625,0,-0.03051758,-0.0006103516,-0.3764648,0,0,-0.3764648,0,4.068,0,0,0,0,nan,2,0.071,0,128,0,0,0,0,0,0,0,1,2
431.844,0.001011,-0.001953125,0,0,-0.015625,-0.296875,9.828125,-0.001953125,0,0,0.3144531,0.015625,0,-0.03051758,-0.0004882812,-0.3764648,0,0,-0.3764648,0,4.068,0,0,0,0,nan,2,0.081,0,128,0,0,0,0,0,0,0,1,2
431.854,0.001018,-0.00390625,0.001953125,0,0.0078125,-0.2578125,9.78125,0,0,0,0.3144531,0.015625,0,-0.03039551,-0.0004882812,-0.3764648,0,0,-0.3764648,0,4.068,0,0,0,0,nan,2,0.091,0,128,0,0,0,0,0,0,0,1,2
431.864,0.001009,0,-0.001953125,0,0.015625,-0.25,9.828125,0,0,-0.001953125,0.3144531,0.015625,0,-0.03027344,-0.0003662109,-0.3764648,0,0,-0.3764648,0,4.068,0,0,0,0,nan,2,0.101,0,128,0,0,0,0,0,0,0,1,2
431.874,0.00101,-0.001953125,0,0,-0.015625,-0.265625,9.835938,-0.001953125,-0.001953125,0,0.3144531,0.015625,0,-0.03027344,-0.0003662109,-0.3764648,0,0,-0.3764648,0,4.068,0,0,0,0,nan,2,0.111,0,128,0,0,0,0,0,0,0,1,2
431.884,0.00101,0,0.001953125,0.001953125,0.0078125,-0.2734375,9.851562,0,0,0,0.3144531,0.015625,0,-0.03015137,-0.0003662109,-0.3764648,0,0,-0.3764648,0,4.068,0,0,0,0,nan,2,0.121,0,128,0,0,0,0,0,0,0,1,2
431.894,0.001011,0,0,0.001953125,-0.015625,-0.3046875,9.828125,0,0,0.001953125,0.3144531,0.015625,0,-0.03015137,-0.0003662109,-0.3764648,0,0,-0.3764648,0,4.068,0,0,0,0,nan,2,0.131,0,128,0,0,0,0,0,0,0,1,2
431.904,0.001011,-0.001953125,0.00390625,0,0.03125,-0.2890625,9.835938,-0.001953125,0.001953125,0,0.3144531,0.015625,0,-0.0300293,-0.0002441406,-0.3764648,0,0,-0.3764648,0,4.068,0,0,0,0,nan,2,0.141,0,128,0,0,0,0,0,0,0,1,2
431.915,0.000996,0,-0.001953125,-0.00390625,-0.0078125,-0.3203125,9.875,0,0,-0.001953125,0.3144531,0.015625,0,-0.0300293,-0.0002441406,-0.3764648,0,0,-0.3764648,0,4.068,0,0,0,0,nan,2,0.151,0,128,0,0,0,0,0,0,0,1,2
431.924,0.001021,0.001953125,0.001953125,0.001953125,-0.0546875,-0.2578125,9.820312,0,0,0,0.3144531,0.015625,0,-0.0300293,-0.0002441406,-0.3764648,0,0,-0.3764648,0,4.068,0,0,0,0,nan,2,0.161,0,128,0,0,0,0,0,0,0,1,2
