t,dt_s,gyro_x,gyro_y,gyro_z,acc_x,acc_y,acc_z,rates.x,rates.y,rates.z,ratesTarget.x,ratesTarget.y,ratesTarget.z,attitude.x,attitude.y,attitude.z,attitudeTarget.x,attitudeTarget.y,attitudeTarget.z,thrustTarget,battery_v,rc_roll,rc_pitch,rc_yaw,rc_throttle,rc_mode,flight_mode,rc_age_s,armed,fault_mask,motor_rl,motor_rr,motor_fr,motor_fl,rate_i_x,rate_i_y,rate_i_z,mix_scale,control_source,accel_correction_confidence
622.264,0.001047,-0.01953125,-0.00390625,-0.005859375,1.789062,1.75,2.8125,-0.00390625,-0.01171875,0.01171875,0,-0.02148438,0,-0.004272461,0.007080078,-0.333374,0,0,1.994751,0,4.01,0,0,0,0,nan,2,0.133,1,0,0.1000061,0.1000061,0.1000061,0.1000061,0,0,0,1,2,0
622.274,0.001019,0.02539062,-0.015625,0.01171875,-4.8125,3.96875,11.22656,0.009765625,-0.005859375,0.00390625,0,-0.02148438,0,-0.004272461,0.006958008,-0.333374,0,0,1.994751,0,4.01,0,0,0,0,nan,2,0.143,1,0,0.1000061,0.1000061,0.1000061,0.1000061,0,0,0,1,2,0
622.284,0.001014,-0.001953125,0.02929688,-0.02148438,0.2890625,-4.835938,12.74219,0,0.005859375,-0.005859375,0,-0.02148438,0,-0.004150391,0.006958008,-0.333374,0,0,1.994751,0,4.01,0,0,0,0,nan,2,0.153,1,0,0.1000061,0.1000061,0.1000061,0.1000061,0,0,0,1,2,0
622.294,0.00101,-0.005859375,0.01953125,-0.03515625,1.296875,3.242188,10.52344,-0.001953125,0.01171875,-0.03320312,0,-0.02148438,0,-0.004150391,0.006958008,-0.3334961,0,0,1.994751,0,4.01,0,0,0,0,nan,2,0.164,1,0,0.1000061,0.1000061,0.1000061,0.1000061,0,0,0,1,2,0
622.304,0.00101,0.01171875,0,-0.01953125,-0.3828125,-1.710938,7.601562,-0.0078125,-0.001953125,-0.02148438,0,-0.02148438,0,-0.004272461,0.007080078,-0.3338623,0,0,1.994751,0,4.01,0,0,0,0,nan,2,0.174,1,0,0.1000061,0.1000061,0.1000061,0.1000061,0,0,0,1,2,0
622.313,0.00101,0.01757812,-0.0234375,0,-0.6484375,-4.054688,7.890625,0,-0.001953125,-0.009765625,0,-0.02148438,0,-0.004272461,0.007080078,-0.3339844,0,0,1.994751,0,4.01,0,0,0,0,nan,2,0.183,1,0,0.1000061,0.1000061,0.1000061,0.1000061,0,0,0,1,2,0
622.324,0.001042,0.01367188,0.0078125,0.009765625,1.179688,0.7578125,8.164062,0.00390625,-0.00390625,0.005859375,0,-0.02148438,0,-0.004272461,0.007080078,-0.3339844,0,0,1.994751,0,4.01,0,0,0,0,nan,2,0.193,1,0,0.1000061,0.1000061,0.1000061,0.1000061,0,0,0,1,2,0
622.334,0.001022,-0.015625,0.015625,0.03710938,-2.273438,-5.054688,5.921875,0.001953125,0,0.03320312,0,-0.02148438,0,-0.004272461,0.006958008,-0.3337402,0,0,1.994751,0,4.01,0,0,0,0,nan,2,0.203,1,0,0.1000061,0.1000061,0.1000061,0.1000061,0,0,0,1,2,0
622.344,0.000999,0.02734375,-0.02148438,0.009765625,0.2421875,2.335938,15.42969,0.00390625,-0.00390625,0.01757812,0,-0.02148438,0,-0.004150391,0.006958008,-0.3334961,0,0,1.994751,0,4.01,0,0,0,0,nan,2,0.009,1,0,0.1000061,0.1000061,0.1000061,0.1000061,0,0,0,1,2,0
622.354,0.001039,-0.0234375,-0.00390625,-0.005859375,3.515625,0.03125,4.984375,-0.00390625,-0.001953125,-0.001953125,0,-0.02148438,0,-0.004150391,0.006958008,-0.333374,0,0,1.994751,0,4.01,0,0,0,0,nan,2,0.019,1,0,0.1000061,0.1000061,0.1000061,0.1000061,0,0,0,1,2,0
622.364,0.001014,0.01757812,-0.0078125,-0.01757812,-3.203125,6.914062,8.140625,0.005859375,0.001953125,-0.01757812,0,-0.02148438,0,-0.004150391,0.006958008,-0.3334961,0,0,1.994751,0,4.01,0,0,0,0,nan,2,0.029,1,0,0.1000061,0.1000061,0.1000061,0.1000061,0,0,0,1,2,0
622.374,0.000958,0.00390625,0.0390625,-0.04296875,-1.179688,-4.070312,10.34375,0,0.01171875,-0.03320312,0,-0.02148438,0,-0.004150391,0.006958008,-0.3337402,0,0,1.994751,0,4.01,0,0,0,0,nan,2,0.039,1,0,0.1000061,0.1000061,0.1000061,0.1000061,0,0,0,1,2,0
622.384,0.000998,-0.01367188,-0.01367188,0.001953125,0.0625,2.148438,12.89062,-0.005859375,0,-0.0078125,0,-0.02148438,0,-0.004150391,0.007080078,-0.3339844,0,0,1.994751,0,4.01,0,0,0,0,nan,2,0.049,1,0,0.1000061,0.1000061,0.1000061,0.1000061,0,0,0,1,2,0
622.394,0.001064,0.01171875,-0.0234375,-0.005859375,0.265625,-2.632812,11.57812,0.00390625,-0.005859375,-0.00390625,0,-0.02148438,0,-0.004272461,0.007080078,-0.3339844,0,0,1.994751,0,4.01,0,0,0,0,nan,2,0.06,1,0,0.1000061,0.1000061,0.1000061,0.1000061,0,0,0,1,2,0
622.403,0.001028,0.015625,0.02148438,-0.01171875,-0.265625,-2.6875,11.61719,-0.001953125,0.00390625,-0.01171875,0,-0.02148438,0,-0.004272461,0.007080078,-0.3341064,0,0,1.994751,0,4.01,0,0,0,0,nan,2,0.069,1,0,0.1000061,0.1000061,0.1000061,0.1000061,0,0,0,1,2,0
622.413,0.000978,-0.03125,0.001953125,0.0234375,-0.953125,-2.757812,6.929688,-0.005859375,0.00390625,0.009765625,0,-0.02148438,0,-0.004272461,0.006958008,-0.3341064,0,0,1.994751,0,4.01,0,0,0,0,nan,2,0.079,1,0,0.1000061,0.1000061,0.1000061,0.1000061,0,0,0,1,2,0
622.423,0.00101,-0.02148438,-0.009765625,0.01171875,2.695312,1.679688,10.47656,-0.005859375,0,0.01367188,0,-0.02148438,0,-0.004272461,0.006958008,-0.3339844,0,0,1.994751,0,4.01,0,0,0,0,nan,2,0.089,1,0,0.1000061,0.1000061,0.1000061,0.1000061,0,0,0,1,2,0
622.434,0.00101,-0.01367188,-0.00390625,-0.0078125,-2.632812,0.96875,15.6875,-0.009765625,0,-0.0078125,0,-0.02148438,0,-0.004272461,0.006958008,-0.3339844,0,0,1.994751,0,4.01,0,0,0,0,nan,2,0.099,1,0,0.1000061,0.1000061,0.1000061,0.1000061,0,0,0,1,2,0
622.444,0.00101,0.015625,0.02148438,-0.0078125,2.015625,-2.328125,9.140625,0.00390625,0.00390625,-0.015625,0,-0.02148438,0,-0.004394531,0.006958008,-0.3341064,0,0,1.994751,0,4.01,0,0,0,0,nan,2,0.109,1,0,0.1000061,0.1000061,0.1000061,0.1000061,0,0,0,1,2,0.5396826
622.454,0.00101,0.001953125,0.0078125,-0.009765625,1.140625,5.953125,9.507812,0.00390625,-0.001953125,-0.005859375,0,-0.02148438,0,-0.004272461,0.006958008,-0.3342285,0,0,1.994751,0,4.01,0,0,0,0,nan,2,0.119,1,0,0.1000061,0.1000061,0.1000061,0.1000061,0,0,0,1,2,0
622.464,0.001014,0.005859375,-0.001953125,-0.01953125,-0.1953125,-3.492188,5.890625,-0.00390625,0,-0.0078125,0,-0.02148438,0,-0.004394531,0.006958008,-0.3342285,0,0,1.994751,0,4.01,0,0,0,0,nan,2,0.129,1,0,0.1000061,0.1000061,0.1000061,0.1000061,0,0,0,1,2,0
622.474,0.001007,-0.001953125,0.009765625,-0.03710938,-2.90625,2.28125,12.4375,-0.001953125,-0.001953125,-0.02539062,0,-0.02148438,0,-0.004394531,0.006958008,-0.3343506,0,0,1.994751,0,4.01,0,0,0,0,nan,2,0.139,1,0,0.1000061,0.1000061,0.1000061,0.1000061,0,0,0,1,2,0
622.484,0.001009,-0.005859375,-0.01953125,-0.0234375,1.710938,-2.4375,14.96875,0,-0.001953125,-0.02539062,0,-0.02148438,0,-0.004394531,0.006958008,-0.3347168,0,0,1.994751,0,4.01,0,0,0,0,nan,2,0.149,1,0,0.1000061,0.1000061,0.1000061,0.1000061,0,0,0,1,2,0
622.494,0.00101,-0.0078125,0.005859375,0.001953125,-0.21875,-3.695312,6.546875,0.001953125,0,-0.01367188,0,-0.02148438,0,-0.004272461,0.006958008,-0.3349609,0,0,1.994751,0,4.01,0,0,0,0,nan,2,0.16,1,0,0.1000061,0.1000061,0.1000061,0.1000061,0,0,0,1,2,0
622.503,0.001025,-0.00390625,0.01953125,0.005859375,-1.9375,-0.46875,10.84375,-0.005859375,0.009765625,0.00390625,0,-0.02148438,0,-0.004394531,0.006958008,-0.3349609,0,0,1.994751,0,4.01,0,0,0,0,nan,2,0.169,1,0,0.1000061,0.1000061,0.1000061,0.1000061,0,0,0,1,2,0
622.513,0.00101,0.005859375,-0.01171875,-0.0078125,1.25,-3.609375,11.28906,-0.00390625,-0.00390625,0.005859375,0,-0.02148438,0,-0.004394531,0.007080078,-0.3348389,0,0,1.994751,0,4.01,0,0,0,0,nan,2,0.179,1,0,0.1000061,0.1000061,0.1000061,0.1000061,0,0,0,1,2,0
622.523,0.000998,-0.009765625,0.01171875,0.00390625,1.75,1.9375,5.492188,0.00390625,-0.001953125,0,0,-0.02148438,0,-0.004394531,0.006958008,-0.3348389,0,0,1.994751,0,4.01,0,0,0,0,nan,2,0.189,1,0,0.1000061,0.1000061,0.1000061,0.1000061,0,0,0,1,2,0
622.534,0.001008,-0.00390625,-0.009765625,0.03320312,-0.875,-5.382812,9.492188,0,-0.001953125,0.0234375,0,-0.02148438,0,-0.004394531,0.006958008,-0.3347168,0,0,1.994751,0,4.01,0,0,0,0,nan,2,0.006,1,0,0.1000061,0.1000061,0.1000061,0.1000061,0,0,0,1,2,0
622.544,0.001016,0.0078125,0.02148438,0.01367188,0.984375,5.671875,12.34375,0.00390625,0.005859375,0.01757812,0,-0.02148438,0,-0.004394531,0.006958008,-0.3344727,0,0,1.994751,0,4.01,0,0,0,0,nan,2,0.016,1,0,0.1000061,0.1000061,0.1000061,0.1000061,0,0,0,1,2,0
622.554,0.00101,-0.02539062,-0.009765625,-0.02148438,1.195312,-1.992188,4.828125,-0.01171875,0.001953125,-0.0078125,0,-0.02148438,0,-0.004394531,0.006958008,-0.3344727,0,0,1.994751,0,4.01,0,0,0,0,nan,2,0.026,1,0,0.1000061,0.1000061,0.1000061,0.1000061,0,0,0,1,2,0
622.564,0.00101,0.01171875,0.0234375,-0.04492188,-3.265625,2.132812,8.789062,-0.001953125,0.001953125,-0.03320312,0,-0.02148438,0,-0.004516602,0.007080078,-0.3347168,0,0,1.994751,0,4.01,0,0,0,0,nan,2,0.036,1,0,0.1000061,0.1000061,0.1000061,0.1000061,0,0,0,1,2,0.4920635
622.574,0.001013,-0.009765625,-0.01171875,-0.02148438,0.96875,-0.90625,13.00781,-0.009765625,0,-0.02539062,0,-0.02148438,0,-0.004394531,0.007080078,-0.335083,0,0,1.994751,0,4.01,0,0,0,0,nan,2,0.046,1,0,0.1000061,0.1000061,0.1000061,0.1000061,0,0,0,1,2,0
622.584,0.001006,0.005859375,-0.005859375,-0.001953125,-0.5703125,-1.507812,9.65625,0.0078125,-0.0078125,-0.01171875,0,-0.02148438,0,-0.004394531,0.007080078,-0.3352051,0,0,1.994751,0,4.01,0,0,0,0,nan,2,0.057,1,0,0.1000061,0.1000061,0.1000061,0.1000061,0,0,0,1,2,0.952381
622.594,0.001009,-0.01171875,-0.00390625,-0.02734375,1.242188,-1.03125,11.14062,-0.02148438,-0.009765625,-0.01953125,0,-0.02148438,0,-0.004516602,0.006958008,-0.3353271,0,0,1.994751,0,4.01,0,0,0,0,nan,2,0.067,1,0,0.1000061,0.1000061,0.1000061,0.1000061,0,0,0,1,2,0
622.604,0.00101,0.015625,0.00390625,-0.00390625,2.304688,0.8515625,4.445312,0.01171875,0.005859375,-0.01757812,0,-0.02148438,0,-0.004516602,0.006958008,-0.3355713,0,0,1.994751,0,4.01,0,0,0,0,nan,2,0.077,1,0,0.1000061,0.1000061,0.1000061,0.1000061,0,0,0,1,2,0
622.613,0.00101,-0.02929688,0.0078125,0.00390625,2.71875,0.515625,6.304688,-0.01171875,-0.00390625,0.00390625,0,-0.02148438,0,-0.004516602,0.006958008,-0.3355713,0,0,1.994751,0,4.01,0,0,0,0,nan,2,0.086,1,0,0.1000061,0.1000061,0.1000061,0.1000061,0,0,0,1,2,0
622.623,0.001017,0.005859375,-0.00390625,-0.015625,-1.445312,3.335938,11.35156,0.005859375,0.001953125,-0.009765625,0,-0.02148438,0,-0.004638672,0.006835938,-0.3356934,0,0,1.994751,0,4.01,0,0,0,0,nan,2,0.096,1,0,0.1000061,0.1000061,0.1000061,0.1000061,0,0,0,1,2,0
622.634,0.001011,-0.01757812,0.01171875,-0.03125,-2.328125,-5.304688,7.84375,-0.001953125,0.001953125,-0.02539062,0,-0.02148438,0,-0.004638672,0.006958008,-0.3358154,0,0,1.994751,0,4.01,0,0,0,0,nan,2,0.106,1,0,0.1000061,0.1000061,0.1000061,0.1000061,0,0,0,1,2,0.6825397
622.644,0.001004,0.001953125,-0.005859375,-0.05273438,1.21875,1.617188,4.859375,-0.01171875,-0.00390625,-0.04492188,0,-0.02148438,0,-0.004882812,0.006958008,-0.3361816,0,0,1.994751,0,4.01,0,0,0,0,nan,2,0.116,1,0,0.1000061,0.1000061,0.1000061,0.1000061,0,0,0,1,2,0
622.654,0.00101,0.0390625,0.005859375,-0.03710938,-5.09375,0.671875,9.632812,0.01953125,0.00390625,-0.04101562,0,-0.02148438,0,-0.004760742,0.006958008,-0.3366699,0,0,1.994751,0,4.01,0,0,0,0,nan,2,0.126,1,0,0.1000061,0.1000061,0.1000061,0.1000061,0,0,0,1,2,0
622.664,0.00101,0.02539062,0.015625,-0.01757812,1.84375,-4.984375,15.52344,0.02929688,0.01171875,-0.0234375,0,-0.02148438,0,-0.004516602,0.007080078,-0.3370361,0,0,1.994751,0,4.01,0,0,0,0,nan,2,0.136,1,0,0.1000061,0.1000061,0.1000061,0.1000061,0,0,0,1,2,0
622.674,0.001016,0.01367188,0.01367188,-0.0234375,2.296875,0.296875,7.445312,0.01367188,0.009765625,-0.02148438,0,-0.02148438,0,-0.004272461,0.007080078,-0.3371582,0,0,1.994751,0,4.01,0,0,0,0,nan,2,0.146,1,0,0.1000061,0.1000061,0.1000061,0.1000061,0,0,0,1,2,0
622.684,0.001005,-0.01953125,-0.03515625,-0.009765625,-0.2578125,1.46875,8.804688,-0.01171875,-0.0078125,-0.01367188,0,-0.02148438,0,-0.004272461,0.007202148,-0.3374023,0,0,1.994751,0,4.01,0,0,0,0,nan,2,0.157,1,0,0.1000061,0.1000061,0.1000061,0.1000061,0,0,0,1,2,0
622.694,0.001009,-0.01171875,0.01171875,0.00390625,-0.9609375,-1.90625,7.609375,-0.01757812,0,-0.001953125,0,-0.02148438,0,-0.004516602,0.007202148,-0.3374023,0,0,1.994751,0,4.01,0,0,0,0,nan,2,0.167,1,0,0.1000061,0.1000061,0.1000061,0.1000061,0,0,0,1,2,0
622.704,0.00101,0,-0.005859375,0.02734375,0.6015625,2.078125,17.14844,0.009765625,0.009765625,0.015625,0,-0.02148438,0,-0.004516602,0.007202148,-0.3374023,0,0,1.994751,0,4.01,0,0,0,0,nan,2,0.177,1,0,0.1000061,0.1000061,0.1000061,0.1000061,0,0,0,1,2,0
622.713,0.00101,-0.02734375,-0.02734375,0.03710938,1.039062,-0.6015625,15.57812,-0.01171875,-0.01171875,0.03515625,0,-0.02148438,0,-0.004516602,0.007202148,-0.3371582,0,0,1.994751,0,4.01,0,0,0,0,nan,2,0.186,1,0,0.1000061,0.1000061,0.1000061,0.1000061,0,0,0,1,2,0
622.724,0.000984,-0.005859375,-0.005859375,0.06445312,-0.5859375,-2.671875,6.398438,0,-0.00390625,0.05273438,0,-0.02148438,0,-0.004394531,0.007202148,-0.336792,0,0,1.994751,0,4.01,0,0,0,0,nan,2,0.196,1,0,0.1000061,0.1000061,0.1000061,0.1000061,0,0,0,1,2,0
622.734,0.000963,0.03125,-0.0078125,0.06640625,-0.609375,4.96875,11.57031,0.005859375,0,0.0625,0,-0.02148438,0,-0.004516602,0.007202148,-0.3360596,0,0,1.994751,0,4.01,0,0,0,0,nan,2,0.003,1,0,0.1000061,0.1000061,0.1000061,0.1000061,0,0,0,1,2,0
622.744,0.00103,0.001953125,0.005859375,0.046875,-2.25,2.296875,10.14844,-0.001953125,0.001953125,0.06445312,0,-0.02148438,0,-0.004394531,0.007202148,-0.3354492,0,0,1.994751,0,4.01,0,0,0,0,nan,2,0.013,1,0,0.1000061,0.1000061,0.1000061,0.1000061,0,0,0,1,2,0
622.754,0.00101,-0.009765625,-0.02148438,0.02734375,-1.757812,-3.046875,14.14844,-0.00390625,-0.0078125,0.04101562,0,-0.02148438,0,-0.004394531,0.007202148,-0.3348389,0,0,1.994751,0,4.01,0,0,0,0,nan,2,0.023,1,0,0.1000061,0.1000061,0.1000061,0.1000061,0,0,0,1,2,0
622.764,0.001004,-0.03320312,0.0078125,0.01367188,2.585938,-4.359375,6.960938,0.001953125,-0.005859375,0.01757812,0,-0.02148438,0,-0.004394531,0.007202148,-0.3345947,0,0,1.994751,0,4.01,0,0,0,0,nan,2,0.033,1,0,0.1000061,0.1000061,0.1000061,0.1000061,0,0,0,1,2,0
622.774,0.001004,-0.02148438,0.009765625,0,2.679688,3.695312,11.27344,-0.001953125,0.005859375,-0.001953125,0,-0.02148438,0,-0.004394531,0.007202148,-0.3345947,0,0,1.994751,0,4.01,0,0,0,0,nan,2,0.043,1,0,0.1000061,0.1000061,0.1000061,0.1000061,0,0,0,1,2,0
622.784,0.000949,-0.02539062,-0.0078125,-0.01367188,-2.890625,-1.414062,3.6875,-0.005859375,0,-0.015625,0,-0.02148438,0,-0.004394531,0.007202148,-0.3347168,0,0,1.994751,0,4.01,0,0,0,0,nan,2,0.054,1,0,0.1000061,0.1000061,0.1000061,0.1000061,0,0,0,1,2,0
622.794,0.001002,-0.01171875,-0.02148438,-0.01953125,-2.210938,2.085938,16.67969,-0.009765625,-0.005859375,-0.01953125,0,-0.02148438,0,-0.004394531,0.007080078,-0.3349609,0,0,1.994751,0,4.01,0,0,0,0,nan,2,0.064,1,0,0.1000061,0.1000061,0.1000061,0.1000061,0,0,0,1,2,0
622.804,0.001004,0.01757812,-0.00390625,-0.02539062,3.132812,-3.328125,10.1875,0.00390625,0,-0.02148438,0,-0.02148438,0,-0.004394531,0.007080078,-0.3352051,0,0,1.994751,0,4.01,0,0,0,0,nan,2,0.074,1,0,0.1000061,0.1000061,0.1000061,0.1000061,0,0,0,1,2,0
622.814,0.001004,-0.01367188,-0.0234375,-0.02148438,0.90625,5.28125,8.265625,0.001953125,-0.005859375,-0.02148438,0,-0.02148438,0,-0.004272461,0.007080078,-0.3353271,0,0,1.994751,0,4.01,0,0,0,0,nan,2,0.084,1,0,0.1000061,0.1000061,0.1000061,0.1000061,0,0,0,1,2,0.8730159
622.823,0.001015,-0.01171875,-0.009765625,-0.05078125,1.164062,6.359375,10.16406,-0.00390625,0.001953125,-0.04296875,0,-0.02148438,0,-0.004272461,0.007080078,-0.3356934,0,0,1.994751,0,4.01,0,0,0,0,nan,2,0.093,1,0,0.1000061,0.1000061,0.1000061,0.1000061,0,0,0,1,2,0
622.834,0.001008,0.00390625,0.001953125,-0.02148438,-0.15625,-2.84375,4.289062,-0.0078125,0.005859375,-0.03125,0,-0.02148438,0,-0.004394531,0.007202148,-0.3360596,0,0,1.994751,0,4.01,0,0,0,0,nan,2,0.103,1,0,0.1000061,0.1000061,0.1000061,0.1000061,0,0,0,1,2,0
622.844,0.001015,-0.001953125,0.02929688,-0.0078125,1.539062,-0.03125,17.02344,0,0.00390625,-0.02148438,0,-0.02148438,0,-0.004394531,0.007202148,-0.3364258,0,0,1.994751,0,4.01,0,0,0,0,nan,2,0.113,1,0,0.1000061,0.1000061,0.1000061,0.1000061,0,0,0,1,2,0
622.854,0.001015,0.015625,0.00390625,0.0234375,0.2734375,-4.640625,5.523438,0.0078125,0.001953125,0.015625,0,-0.02148438,0,-0.004394531,0.007202148,-0.3364258,0,0,1.994751,0,4.01,0,0,0,0,nan,2,0.123,1,0,0.1000061,0.1000061,0.1000061,0.1000061,0,0,0,1,2,0
622.864,0.001004,-0.009765625,0.009765625,0.01757812,-0.1328125,3.273438,9.5,0.005859375,0.001953125,0.0234375,0,-0.02148438,0,-0.004272461,0.007202148,-0.3360596,0,0,1.994751,0,4.01,0,0,0,0,nan,2,0.133,1,0,0.1000061,0.1000061,0.1000061,0.1000061,0,0,0,1,2,0.4920635
622.874,0.001006,0.02148438,0,-0.03515625,1.953125,1.382812,6.734375,0.00390625,-0.001953125,-0.01757812,0,-0.02148438,0,-0.004272461,0.007202148,-0.3360596,0,0,1.994751,0,4.01,0,0,0,0,nan,2,0.143,1,0,0.1000061,0.1000061,0.1000061,0.1000061,0,0,0,1,2,0
622.884,0.001001,0.01367188,0.0234375,-0.05664062,-2.875,5.054688,11.78125,0,0.009765625,-0.04882812,0,-0.02148438,0,-0.004272461,0.007202148,-0.3364258,0,0,1.994751,0,4.01,0,0,0,0,nan,2,0.154,1,0,0.1000061,0.1000061,0.1000061,0.1000061,0,0,0,1,2,0
622.894,0.001006,-0.005859375,0.01757812,-0.01953125,-1.648438,-6.320312,10.89844,0,0.005859375,-0.0234375,0,-0.02148438,0,-0.004272461,0.007202148,-0.336792,0,0,1.994751,0,4.01,0,0,0,0,nan,2,0.164,1,0,0.1000061,0.1000061,0.1000061,0.1000061,0,0,0,1,2,0
622.904,0.00101,-0.02929688,0.01953125,0.005859375,0.8671875,0.2109375,10.8125,-0.01171875,0.0078125,0.0078125,0,-0.02148438,0,-0.004394531,0.007202148,-0.336792,0,0,1.994751,0,4.01,0,0,0,0,nan,2,0.174,1,0,0.1000061,0.1000061,0.1000061,0.1000061,0,0,0,1,2,0
622.914,0.001004,-0.005859375,0.009765625,-0.005859375,3.375,0.484375,10.23438,-0.005859375,0.001953125,0.00390625,0,-0.02148438,0,-0.004394531,0.007202148,-0.336792,0,0,1.994751,0,4.015,0,0,0,0,nan,2,0.184,1,0,0.1000061,0.1000061,0.1000061,0.1000061,0,0,0,1,2,0
622.924,0.001011,0.005859375,0.00390625,-0.0234375,2.960938,-2.195312,10.14062,0.001953125,0,-0.01171875,0,-0.02148438,0,-0.004394531,0.007202148,-0.336792,0,0,1.994751,0,4.015,0,0,0,0,nan,2,0.193,1,0,0.1000061,0.1000061,0.1000061,0.1000061,0,0,0,1,2,0
622.934,0.001044,0,0.015625,-0.0390625,-0.625,-0.0859375,4.609375,-0.001953125,0,-0.02539062,0,-0.02148438,0,-0.004394531,0.007202148,-0.3369141,0,0,1.994751,0,4.015,0,0,0,0,nan,2,0,1,0,0.1000061,0.1000061,0.1000061,0.1000061,0,0,0,1,2,0
622.944,0.00101,-0.001953125,0.0078125,-0.015625,1.3125,-2.414062,10.71875,-0.00390625,0.001953125,-0.02148438,0,-0.02148438,0,-0.004516602,0.007080078,-0.3371582,0,0,1.994751,0,4.015,0,0,0,0,nan,2,0.01,1,0,0.1000061,0.1000061,0.1000061,0.1000061,0,0,0,1,2,0
622.954,0.001016,-0.01367188,-0.01171875,-0.009765625,-1.492188,4.039062,10.99219,-0.005859375,-0.009765625,-0.009765625,0,-0.02148438,0,-0.004516602,0.007080078,-0.3374023,0,0,1.994751,0,4.015,0,0,0,0,nan,2,0.02,1,0,0.1000061,0.1000061,0.1000061,0.1000061,0,0,0,1,2,0
622.964,0.001003,0.001953125,-0.009765625,-0.02929688,0.3828125,-4.679688,5.320312,-0.001953125,-0.009765625,-0.02148438,0,-0.02148438,0,-0.004516602,0.007080078,-0.3375244,0,0,1.994751,0,4.015,0,0,0,0,nan,2,0.03,1,0,0.1000061,0.1000061,0.1000061,0.1000061,0,0,0,1,2,0
622.974,0.001006,-0.01367188,-0.00390625,0.005859375,0.1484375,5.484375,9.578125,0,0,-0.0078125,0,-0.02148438,0,-0.004516602,0.007202148,-0.3376465,0,0,1.994751,0,4.015,0,0,0,0,nan,2,0.04,1,0,0.1000061,0.1000061,0.1000061,0.1000061,0,0,0,1,2,0
622.984,0.001006,0.009765625,-0.0234375,0.02734375,0.546875,-0.2890625,10.94531,0.00390625,-0.005859375,0.0234375,0,-0.02148438,0,-0.004516602,0.007080078,-0.3376465,0,0,1.994751,0,4.015,0,0,0,0,nan,2,0.05,1,0,0.1000061,0.1000061,0.1000061,0.1000061,0,0,0,1,2,0
622.994,0.001008,-0.005859375,-0.001953125,0.02148438,-3.226562,-4.671875,7.953125,-0.001953125,0.001953125,0.01953125,0,-0.02148438,0,-0.004516602,0.007080078,-0.3374023,0,0,1.994751,0,4.015,0,0,0,0,nan,2,0.061,1,0,0.1000061,0.1000061,0.1000061,0.1000061,0,0,0,1,2,0.6190476
623.004,0.00101,0,-0.005859375,-0.015625,0.7734375,1.882812,18.0625,0.005859375,-0.001953125,-0.005859375,0,-0.02148438,0,-0.004516602,0.007080078,-0.3374023,0,0,1.994751,0,4.015,0,0,0,0,nan,2,0.071,1,0,0.1000061,0.1000061,0.1000061,0.1000061,0,0,0,1,2,0
623.014,0.001003,0.001953125,0.00390625,-0.0234375,3.398438,-3.03125,5.382812,0.00390625,0.001953125,-0.01953125,0,-0.02148438,0,-0.004394531,0.007080078,-0.3375244,0,0,1.994751,0,4.015,0,0,0,0,nan,2,0.081,1,0,0.1000061,0.1000061,0.1000061,0.1000061,0,0,0,1,2,0
623.023,0.00101,-0.00390625,0.0078125,-0.0234375,2.640625,-2.007812,9.390625,-0.00390625,-0.001953125,-0.01953125,0,-0.02148438,0,-0.004394531,0.007080078,-0.3376465,0,0,1.994751,0,4.015,0,0,0,0,nan,2,0.09,1,0,0.1000061,0.1000061,0.1000061,0.1000061,0,0,0,1,2,0.6190476
623.033,0.001003,-0.01367188,-0.015625,-0.009765625,-0.8671875,3.46875,9.835938,-0.009765625,0,-0.01171875,0,-0.02148438,0,-0.004394531,0.007080078,-0.3377686,0,0,1.994751,0,4.015,0,0,0,0,nan,2,0.1,1,0,0.1000061,0.1000061,0.1000061,0.1000061,0,0,0,1,2,0
623.044,0.00101,-0.0234375,-0.001953125,-0.02929688,-0.7890625,3.164062,11.96094,-0.0078125,0.0078125,-0.0234375,0,-0.02148438,0,-0.004516602,0.007202148,-0.3380127,0,0,1.994751,0,4.015,0,0,0,0,nan,2,0.11,1,0,0.1000061,0.1000061,0.1000061,0.1000061,0,0,0,1,2,0
623.054,0.00101,0.005859375,-0.015625,0.01367188,-2.34375,-3.609375,12.96094,-0.001953125,0.005859375,-0.00390625,0,-0.02148438,0,-0.004516602,0.007324219,-0.3381348,0,0,1.994751,0,4.015,0,0,0,0,nan,2,0.12,1,0,0.1000061,0.1000061,0.1000061,0.1000061,0,0,0,1,2,0
623.064,0.001016,-0.00390625,-0.015625,0.009765625,0.1875,-4.65625,8.289062,0,-0.005859375,0.01367188,0,-0.02148438,0,-0.004516602,0.007202148,-0.3381348,0,0,1.994751,0,4.015,0,0,0,0,nan,2,0.13,1,0,0.1000061,0.1000061,0.1000061,0.1000061,0,0,0,1,2,0.2698413
623.074,0.001014,-0.0078125,-0.00390625,-0.00390625,3.914062,1.757812,13.27344,-0.00390625,-0.001953125,0.001953125,0,-0.02148438,0,-0.004516602,0.007202148,-0.3380127,0,0,1.994751,0,4.015,0,0,0,0,nan,2,0.14,1,0,0.1000061,0.1000061,0.1000061,0.1000061,0,0,0,1,2,0
623.084,0.000977,0.01953125,-0.0078125,-0.03515625,-0.6015625,0.671875,1.148438,-0.001953125,-0.005859375,-0.0234375,0,-0.02148438,0,-0.004638672,0.007202148,-0.3381348,0,0,1.994751,0,4.015,0,0,0,0,nan,2,0.15,1,0,0.1000061,0.1000061,0.1000061,0.1000061,0,0,0,1,2,0
623.094,0.001012,0.01171875,0.00390625,-0.03515625,-3.304688,4.140625,12,0.00390625,0.005859375,-0.03515625,0,-0.02148438,0,-0.004516602,0.007202148,-0.338501,0,0,1.994751,0,4.015,0,0,0,0,nan,2,0.161,1,0,0.1000061,0.1000061,0.1000061,0.1000061,0,0,0,1,2,0
623.104,0.00101,-0.001953125,-0.001953125,-0.02734375,1.375,-4.28125,12.72656,0,-0.00390625,-0.02929688,0,-0.02148438,0,-0.004516602,0.007080078,-0.3387451,0,0,1.994751,0,4.015,0,0,0,0,nan,2,0.171,1,0,0.1000061,0.1000061,0.1000061,0.1000061,0,0,0,1,2,0
623.114,0.001008,0.005859375,0.0078125,-0.0234375,-0.5546875,4.382812,10.49219,-0.0078125,0.005859375,-0.01757812,0,-0.02148438,0,-0.004516602,0.007202148,-0.3389893,0,0,1.994751,0,4.015,0,0,0,0,nan,2,0.181,1,0,0.1000061,0.1000061,0.1000061,0.1000061,0,0,0,1,2,0
623.124,0.001029,0.01367188,0.015625,0.015625,-1.507812,5.882812,14.03906,0.001953125,0.009765625,0.005859375,0,-0.02148438,0,-0.004516602,0.007202148,-0.3391113,0,0,1.994751,0,4.015,0,0,0,0,nan,2,0.19,1,0,0.1000061,0.1000061,0.1000061,0.1000061,0,0,0,1,2,0
623.134,0.001,-0.001953125,-0.005859375,0.02734375,-1.148438,-4.4375,7.515625,0.001953125,0,0.01953125,0,-0.02148438,0,-0.004516602,0.007202148,-0.3388672,0,0,1.994751,0,4.015,0,0,0,0,nan,2,0.001,1,0,0.1000061,0.1000061,0.1000061,0.1000061,0,0,0,1,2,0
623.144,0.001016,-0.02148438,0.009765625,0.01171875,-1.21875,2.6875,13.69531,-0.01367188,-0.005859375,0.0234375,0,-0.02148438,0,-0.004516602,0.007202148,-0.338623,0,0,1.994751,0,4.015,0,0,0,0,nan,2,0.011,1,0,0.1000061,0.1000061,0.1000061,0.1000061,0,0,0,1,2,0
623.154,0.000976,0.03710938,-0.01367188,0.01953125,-1.734375,-3.382812,7.359375,0.00390625,0.00390625,0.02148438,0,-0.02148438,0,-0.004638672,0.007202148,-0.3383789,0,0,1.994751,0,4.015,0,0,0,0,nan,2,0.021,1,0,0.1000061,0.1000061,0.1000061,0.1000061,0,0,0,1,2,0
623.164,0.001003,-0.001953125,-0.015625,-0.001953125,0.9765625,2.992188,14.15625,0,-0.00390625,0.00390625,0,-0.02148438,0,-0.004638672,0.007202148,-0.3382568,0,0,1.994751,0,4.015,0,0,0,0,nan,2,0.031,1,0,0.1000061,0.1000061,0.1000061,0.1000061,0,0,0,1,2,0
623.174,0.001009,-0.0078125,0.005859375,-0.02734375,3.132812,0.1953125,5.71875,-0.0078125,0.001953125,-0.01953125,0,-0.02148438,0,-0.004638672,0.007202148,-0.3383789,0,0,1.994751,0,4.015,0,0,0,0,nan,2,0.041,1,0,0.1000061,0.1000061,0.1000061,0.1000061,0,0,0,1,2,0
623.184,0.001007,-0.0078125,0.03125,-0.015625,-3.773438,3.046875,6.398438,0.00390625,0.00390625,-0.01367188,0,-0.02148438,0,-0.004638672,0.007080078,-0.338501,0,0,1.994751,0,4.015,0,0,0,0,nan,2,0.051,1,0,0.1000061,0.1000061,0.1000061,0.1000061,0,0,0,1,2,0
623.194,0.001009,-0.009765625,-0.01757812,0,-1.421875,-3.375,13.78125,0,-0.009765625,-0.01171875,0,-0.02148438,0,-0.004516602,0.007080078,-0.338623,0,0,1.994751,0,4.015,0,0,0,0,nan,2,0.062,1,0,0.1000061,0.1000061,0.1000061,0.1000061,0,0,0,1,2,0
623.204,0.001011,0.01367188,0.01171875,-0.03125,2.257812,-2.390625,9.929688,-0.001953125,0.01367188,-0.03125,0,-0.02148438,0,-0.004638672,0.007080078,-0.3388672,0,0,1.994751,0,4.015,0,0,0,0,nan,2,0.072,1,0,0.1000061,0.1000061,0.1000061,0.1000061,0,0,0,1,2,0
623.214,0.00101,0.009765625,-0.00390625,-0.02929688,0.140625,3.296875,12.67188,-0.00390625,-0.00390625,-0.0234375,0,-0.02148438,0,-0.004638672,0.007080078,-0.3392334,0,0,1.994751,0,4.015,0,0,0,0,nan,2,0.082,1,0,0.1000061,0.1000061,0.1000061,0.1000061,0,0,0,1,2,0
623.223,0.00101,-0.009765625,0.00390625,-0.005859375,0.8984375,0.2421875,14.76562,-0.001953125,0.005859375,-0.01367188,0,-0.02148438,0,-0.004638672,0.007080078,-0.3393555,0,0,1.994751,0,4.015,0,0,0,0,nan,2,0.091,1,0,0.1000061,0.1000061,0.1000061,0.1000061,0,0,0,1,2,0
623.233,0.00101,0.015625,0.0078125,0.001953125,0.5234375,-5.640625,2.78125,0,-0.005859375,-0.005859375,0,-0.02148438,0,-0.004760742,0.007080078,-0.3394775,0,0,1.994751,0,4.015,0,0,0,0,nan,2,0.101,1,0,0.1000061,0.1000061,0.1000061,0.1000061,0,0,0,1,2,0
623.244,0.00101,-0.0078125,0,0.02929688,0.859375,-1.507812,10.08594,-0.005859375,0.001953125,0.0234375,0,-0.02148438,0,-0.004760742,0.007080078,-0.3393555,0,0,1.994751,0,4.015,0,0,0,0,nan,2,0.111,1,0,0.1000061,0.1000061,0.1000061,0.1000061,0,0,0,1,2,0.0952381
623.254,0.00101,0.01171875,0.01367188,-0.001953125,-3.46875,-1.15625,10.74219,-0.001953125,0.001953125,0.01757812,0,-0.02148438,0,-0.004760742,0.007080078,-0.3391113,0,0,1.994751,0,4.015,0,0,0,0,nan,2,0.121,1,0,0.1000061,0.1000061,0.1000061,0.1000061,0,0,0,1,2,0
623.264,0.00101,-0.01757812,-0.02148438,-0.0234375,1.585938,-2.648438,13.22656,-0.0078125,-0.005859375,-0.015625,0,-0.02148438,0,-0.004882812,0.007080078,-0.3391113,0,0,1.994751,0,4.015,0,0,0,0,nan,2,0.131,1,0,0.1000061,0.1000061,0.1000061,0.1000061,0,0,0,1,2,0
623.274,0.00101,0,-0.02929688,-0.0078125,3.351562,0.5390625,4.085938,0.005859375,-0.00390625,-0.02148438,0,-0.02148438,0,-0.004882812,0.007080078,-0.3393555,0,0,1.994751,0,4.015,0,0,0,0,nan,2,0.141,1,0,0.1000061,0.1000061,0.1000061,0.1000061,0,0,0,1,2,0
623.284,0.001016,0.0078125,-0.009765625,0.01367188,-2.351562,4.929688,11.21094,0.0078125,-0.00390625,-0.001953125,0,-0.02148438,0,-0.004760742,0.007080078,-0.3394775,0,0,1.994751,0,4.015,0,0,0,0,nan,2,0.151,1,0,0.1000061,0.1000061,0.1000061,0.1000061,0,0,0,1,2,0
623.294,0.001028,0.02148438,-0.015625,-0.005859375,-0.59375,-5.296875,7.875,0.001953125,-0.001953125,0,0,-0.02148438,0,-0.004760742,0.007080078,-0.3394775,0,0,1.994751,0,4.015,0,0,0,0,nan,2,0.162,1,0,0.1000061,0.1000061,0.1000061,0.1000061,0,0,0,1,2,0.3015873
623.304,0.00101,-0.0078125,0.01367188,-0.03125,-0.2578125,5.070312,16.26562,-0.005859375,0.00390625,-0.0234375,0,-0.02148438,0,-0.004760742,0.007080078,-0.3395996,0,0,1.994751,0,4.015,0,0,0,0,nan,2,0.172,1,0,0.1000061,0.1000061,0.1000061,0.1000061,0,0,0,1,2,0
623.314,0.00101,0.01171875,0.02148438,-0.03710938,0.84375,-3.59375,8.429688,0.00390625,0.009765625,-0.0390625,0,-0.02148438,0,-0.004760742,0.006958008,-0.3399658,0,0,1.994751,0,4.015,0,0,0,0,nan,2,0.182,1,0,0.1000061,0.1000061,0.1000061,0.1000061,0,0,0,1,2,0
623.323,0.000968,0,-0.00390625,-0.01757812,0.8125,-3.023438,8.835938,-0.001953125,-0.0078125,-0.01953125,0,-0.02148438,0,-0.004882812,0.006958008,-0.34021,0,0,1.994751,0,4.015,0,0,0,0,nan,2,0.191,1,0,0.1000061,0.1000061,0.1000061,0.1000061,0,0,0,1,2,0.0952381
623.333,0.00096,-0.0078125,0.00390625,0.005859375,-1.742188,1.273438,7.367188,-0.0078125,0.00390625,0.005859375,0,-0.02148438,0,-0.004882812,0.007080078,-0.34021,0,0,1.994751,0,4.015,0,0,0,0,nan,2,0.003,1,0,0.1000061,0.1000061,0.1000061,0.1000061,0,0,0,1,2,0
623.344,0.00101,-0.001953125,0.0078125,-0.0234375,0.03125,-1.296875,5.828125,-0.001953125,0.005859375,-0.0078125,0,-0.02148438,0,-0.004882812,0.007080078,-0.34021,0,0,1.994751,0,4.015,0,0,0,0,nan,2,0.013,1,0,0.1000061,0.1000061,0.1000061,0.1000061,0,0,0,1,2,0
623.354,0.00101,0.001953125,0.005859375,-0.03710938,-2.570312,0.578125,16.1875,0,-0.001953125,-0.02734375,0,-0.02148438,0,-0.004882812,0.007080078,-0.3404541,0,0,1.994751,0,4.015,0,0,0,0,nan,2,0.023,1,0,0.1000061,0.1000061,0.1000061,0.1000061,0,0,0,1,2,0
623.364,0.00101,0.01757812,0.005859375,-0.00390625,2.25,-4.007812,8.210938,0.009765625,0,-0.0078125,0,-0.02148438,0,-0.004882812,0.006958008,-0.3405762,0,0,1.994751,0,4.015,0,0,0,0,nan,2,0.033,1,0,0.1000061,0.1000061,0.1000061,0.1000061,0,0,0,1,2,0.1746032
623.374,0.001013,0,0.01367188,-0.009765625,1.703125,7.179688,9.734375,-0.00390625,0,0.0078125,0,-0.02148438,0,-0.004882812,0.006958008,-0.3405762,0,0,1.994751,0,4.015,0,0,0,0,nan,2,0.043,1,0,0.1000061,0.1000061,0.1000061,0.1000061,0,0,0,1,2,0
623.384,0.001009,0.00390625,0.00390625,-0.03515625,-1.351562,-1.328125,6.59375,0,0,-0.01757812,0,-0.02148438,0,-0.004882812,0.007080078,-0.3405762,0,0,1.994751,0,4.015,0,0,0,0,nan,2,0.054,1,0,0.1000061,0.1000061,0.1000061,0.1000061,0,0,0,1,2,0
623.394,0.001004,0.005859375,0.01171875,-0.05078125,-2.210938,-0.28125,11.33594,-0.00390625,0,-0.03515625,0,-0.02148438,0,-0.004882812,0.007080078,-0.3408203,0,0,1.994751,0,4.015,0,0,0,0,nan,2,0.064,1,0,0.1000061,0.1000061,0.1000061,0.1000061,0,0,0,1,2,0
623.404,0.00101,0.009765625,-0.01171875,-0.03125,1.523438,-1.390625,16.00781,0.001953125,-0.0078125,-0.03710938,0,-0.02148438,0,-0.004882812,0.006958008,-0.3411865,0,0,1.994751,0,4.015,0,0,0,0,nan,2,0.074,1,0,0.1000061,0.1000061,0.1000061,0.1000061,0,0,0,1,2,0
623.414,0.001004,-0.01171875,0.01367188,0.02929688,-0.40625,-3.078125,5.640625,-0.00390625,0.00390625,0.009765625,0,-0.02148438,0,-0.004882812,0.006958008,-0.3414307,0,0,1.994751,0,4.015,0,0,0,0,nan,2,0.084,1,0,0.1000061,0.1000061,0.1000061,0.1000061,0,0,0,1,2,0
623.423,0.001015,0.001953125,0.0078125,0.04101562,-2.632812,-1.460938,9.046875,0.001953125,-0.00390625,0.04296875,0,-0.02148438,0,-0.004882812,0.006958008,-0.3410645,0,0,1.994751,0,4.015,0,0,0,0,nan,2,0.093,1,0,0.1000061,0.1000061,0.1000061,0.1000061,0,0,0,1,2,0.4126984
623.433,0.001015,0.005859375,-0.00390625,0.01757812,1.09375,-0.734375,12.78125,-0.001953125,0.00390625,0.03125,0,-0.02148438,0,-0.004882812,0.006958008,-0.3406982,0,0,1.994751,0,4.015,0,0,0,0,nan,2,0.103,1,0,0.1000061,0.1000061,0.1000061,0.1000061,0,0,0,1,2,0
623.444,0.001015,-0.005859375,-0.01757812,0.0078125,-3.726562,5.085938,11.71875,0.005859375,0,0.0078125,0,-0.02148438,0,-0.004882812,0.007080078,-0.3405762,0,0,1.994751,0,4.015,0,0,0,0,nan,2,0.113,1,0,0.1000061,0.1000061,0.1000061,0.1000061,0,0,0,1,2,0
623.454,0.001015,0.01757812,-0.02148438,-0.005859375,-1.960938,-4.273438,10.5,0.001953125,-0.005859375,-0.0078125,0,-0.02148438,0,-0.004882812,0.006958008,-0.3405762,0,0,1.994751,0,4.015,0,0,0,0,nan,2,0.123,1,0,0.1000061,0.1000061,0.1000061,0.1000061,0,0,0,1,2,0
623.464,0.001015,0.001953125,-0.00390625,-0.03320312,0.9453125,-0.640625,12.60156,0.00390625,-0.001953125,-0.02929688,0,-0.02148438,0,-0.004882812,0.006958008,-0.3406982,0,0,1.994751,0,4.015,0,0,0,0,nan,2,0.133,1,0,0.1000061,0.1000061,0.1000061,0.1000061,0,0,0,1,2,0
623.474,0.001008,-0.02539062,-0.009765625,-0.04882812,2.671875,0.03125,9.929688,-0.0078125,-0.00390625,-0.046875,0,-0.02148438,0,-0.005004883,0.006958008,-0.3411865,0,0,1.994751,0,4.015,0,0,0,0,nan,2,0.143,1,0,0.1000061,0.1000061,0.1000061,0.1000061,0,0,0,1,2,0.01587302
623.484,0.001004,0.005859375,0.01757812,-0.05859375,-1.75,-0.21875,2.242188,-0.001953125,0.005859375,-0.0546875,0,-0.02148438,0,-0.005004883,0.006958008,-0.3416748,0,0,1.994751,0,4.015,0,0,0,0,nan,2,0.154,1,0,0.1000061,0.1000061,0.1000061,0.1000061,0,0,0,1,2,0
623.494,0.000995,0.009765625,0.009765625,-0.01171875,-0.4453125,2.351562,15.74219,0,0.00390625,-0.02539062,0,-0.02148438,0,-0.005004883,0.006958008,-0.342041,0,0,1.994751,0,4.015,0,0,0,0,nan,2,0.164,1,0,0.1000061,0.1000061,0.1000061,0.1000061,0,0,0,1,2,0
623.504,0.001004,-0.00390625,0.02539062,0.01757812,1.992188,-3.273438,8.507812,0,0.009765625,0.01367188,0,-0.02148438,0,-0.005004883,0.006958008,-0.342041,0,0,1.994751,0,4.015,0,0,0,0,nan,2,0.174,1,0,0.1000061,0.1000061,0.1000061,0.1000061,0,0,0,1,2,0.03174603
623.514,0.001004,0.01367188,-0.01757812,0.001953125,-2.257812,4.25,13.875,-0.001953125,0,0.005859375,0,-0.02148438,0,-0.005004883,0.006958008,-0.3419189,0,0,1.994751,0,4.015,0,0,0,0,nan,2,0.184,1,0,0.1000061,0.1000061,0.1000061,0.1000061,0,0,0,1,2,0
623.523,0.001077,0.01171875,0.005859375,-0.009765625,-2.539062,2.84375,15.60938,-0.00390625,0,-0.0078125,0,-0.02148438,0,-0.005004883,0.006958008,-0.3419189,0,0,1.994751,0,4.015,0,0,0,0,nan,2,0.193,1,0,0.1000061,0.1000061,0.1000061,0.1000061,0,0,0,1,2,0
623.533,0.001008,0.03320312,-0.001953125,0.01171875,-0.515625,-3.820312,6.71875,0.00390625,0,0.005859375,0,-0.02148438,0,-0.005004883,0.006958008,-0.3419189,0,0,1.994751,0,4.015,0,0,0,0,nan,2,0.203,1,0,0.1000061,0.1000061,0.1000061,0.1000061,0,0,0,1,2,0
623.544,0.001087,-0.03515625,0.00390625,0.02539062,-1.257812,0.0625,10.875,0.001953125,-0.005859375,0.015625,0,-0.02148438,0,-0.005004883,0.006958008,-0.3417969,0,0,1.994751,0,4.015,0,0,0,0,nan,2,0.213,1,0,0.1000061,0.1000061,0.1000061,0.1000061,0,0,0,1,2,0
623.554,0.001046,0.0078125,0.0078125,-0.009765625,-3.125,-2.875,7.226562,-0.00390625,0,-0.001953125,0,-0.02148438,0,-0.005004883,0.006958008,-0.3417969,0,0,1.994751,0,4.015,0,0,0,0,nan,2,0.001,1,0,0.1000061,0.1000061,0.1000061,0.1000061,0,0,0,1,2,0
623.564,0.001015,-0.01367188,0.01367188,-0.03125,1.398438,-0.53125,19,-0.00390625,0,-0.01953125,0,-0.02148438,0,-0.005004883,0.006835938,-0.3419189,0,0,1.994751,0,4.01,0,0,0,0,nan,2,0.011,1,0,0.1000061,0.1000061,0.1000061,0.1000061,0,0,0,1,2,0
623.574,0.001003,0.009765625,0.0234375,-0.03710938,3.789062,-1.703125,4.976562,0.001953125,0.005859375,-0.02734375,0,-0.02148438,0,-0.004882812,0.006958008,-0.3421631,0,0,1.994751,0,4.01,0,0,0,0,nan,2,0.021,1,0,0.1000061,0.1000061,0.1000061,0.1000061,0,0,0,1,2,0
623.584,0.001024,0.005859375,0.001953125,-0.04101562,-1.15625,6.367188,7.625,-0.0078125,-0.001953125,-0.02734375,0,-0.02148438,0,-0.004882812,0.006958008,-0.3422852,0,0,1.994751,0,4.01,0,0,0,0,nan,2,0.031,1,0,0.1000061,0.1000061,0.1000061,0.1000061,0,0,0,1,2,0.3492064
623.594,0.001009,0.00390625,-0.009765625,-0.02929688,-1.195312,-1.953125,8.296875,-0.001953125,0.00390625,-0.03125,0,-0.02148438,0,-0.005004883,0.006958008,-0.3426514,0,0,1.994751,0,4.01,0,0,0,0,nan,2,0.041,1,0,0.1000061,0.1000061,0.1000061,0.1000061,0,0,0,1,2,0
623.604,0.001009,-0.0234375,0.03515625,-0.01757812,-0.484375,1.421875,13.28906,-0.009765625,0.0078125,-0.01367188,0,-0.02148438,0,-0.005004883,0.006958008,-0.3428955,0,0,1.994751,0,4.01,0,0,0,0,nan,2,0.052,1,0,0.1000061,0.1000061,0.1000061,0.1000061,0,0,0,1,2,0
623.614,0.00101,-0.01171875,-0.01953125,-0.01757812,0.9453125,-1.25,13.71094,-0.009765625,0,-0.01171875,0,-0.02148438,0,-0.005126953,0.006958008,-0.3430176,0,0,1.994751,0,4.01,0,0,0,0,nan,2,0.062,1,0,0.1000061,0.1000061,0.1000061,0.1000061,0,0,0,1,2,0
623.624,0.00101,0.00390625,-0.02148438,0.01953125,-0.703125,-3.867188,4.742188,0.005859375,-0.005859375,0.00390625,0,-0.02148438,0,-0.005126953,0.006958008,-0.3430176,0,0,1.994751,0,4.01,0,0,0,0,nan,2,0.072,1,0,0.1000061,0.1000061,0.1000061,0.1000061,0,0,0,1,2,0
623.633,0.00101,0.015625,-0.00390625,0.03515625,-2.140625,-0.921875,8.257812,0.0078125,0.001953125,0.02539062,0,-0.02148438,0,-0.005126953,0.006958008,-0.3428955,0,0,1.994751,0,4.01,0,0,0,0,nan,2,0.081,1,0,0.1000061,0.1000061,0.1000061,0.1000061,0,0,0,1,2,0
623.644,0.00101,0.009765625,0.02148438,-0.00390625,2.125,0.75,6.273438,-0.005859375,0.00390625,0.009765625,0,-0.02148438,0,-0.005126953,0.006958008,-0.3426514,0,0,1.994751,0,4.01,0,0,0,0,nan,2,0.091,1,0,0.1000061,0.1000061,0.1000061,0.1000061,0,0,0,1,2,0
623.654,0.00101,0.01367188,0.005859375,-0.01953125,-3.632812,3.828125,13.46875,-0.00390625,-0.001953125,-0.015625,0,-0.02148438,0,-0.005249023,0.006958008,-0.3426514,0,0,1.994751,0,4.01,0,0,0,0,nan,2,0.101,1,0,0.1000061,0.1000061,0.1000061,0.1000061,0,0,0,1,2,0
623.664,0.00101,0.02539062,-0.0078125,-0.0078125,-1.109375,-5.648438,10.52344,0.0078125,0.005859375,-0.015625,0,-0.02148438,0,-0.005249023,0.007080078,-0.3428955,0,0,1.994751,0,4.01,0,0,0,0,nan,2,0.111,1,0,0.1000061,0.1000061,0.1000061,0.1000061,0,0,0,1,2,0
623.674,0.001017,0.01367188,-0.001953125,-0.01367188,2.125,0.46875,10.10938,0.001953125,-0.005859375,-0.001953125,0,-0.02148438,0,-0.005249023,0.007080078,-0.3428955,0,0,1.994751,0,4.01,0,0,0,0,nan,2,0.121,1,0,0.1000061,0.1000061,0.1000061,0.1000061,0,0,0,1,2,0
623.684,0.001009,0.005859375,0.015625,-0.046875,2.25,0.8984375,9.6875,-0.00390625,0.0078125,-0.02539062,0,-0.02148438,0,-0.005249023,0.006958008,-0.3430176,0,0,1.994751,0,4.01,0,0,0,0,nan,2,0.131,1,0,0.1000061,0.1000061,0.1000061,0.1000061,0,0,0,1,2,0.5555556
623.694,0.001008,-0.0078125,0.005859375,-0.06835938,-2.273438,-1.757812,2.71875,-0.005859375,0.001953125,-0.06054688,0,-0.02148438,0,-0.005371094,0.006958008,-0.3435059,0,0,1.994751,0,4.01,0,0,0,0,nan,2,0.141,1,0,0.1000061,0.1000061,0.1000061,0.1000061,0,0,0,1,2,0
623.704,0.00106,-0.001953125,-0.0078125,-0.02539062,-1.28125,2.085938,16.66406,0,0,-0.05078125,0,-0.02148438,0,-0.005371094,0.006958008,-0.3441162,0,0,1.994751,0,4.01,0,0,0,0,nan,2,0.152,1,0,0.1000061,0.1000061,0.1000061,0.1000061,0,0,0,1,2,0
623.714,0.00101,-0.00390625,-0.0078125,-0.001953125,2.234375,-2.421875,10.10156,0.005859375,-0.005859375,-0.015625,0,-0.02148438,0,-0.005371094,0.006958008,-0.3443604,0,0,1.994751,0,4.01,0,0,0,0,nan,2,0.162,1,0,0.1000061,0.1000061,0.1000061,0.1000061,0,0,0,1,2,0
623.724,0.001059,-0.005859375,-0.009765625,-0.001953125,1.6875,-2.382812,9.484375,-0.001953125,0.009765625,-0.005859375,0,-0.02148438,0,-0.005249023,0.006958008,-0.3444824,0,0,1.994751,0,4.01,0,0,0,0,nan,2,0.171,1,0,0.1000061,0.1000061,0.1000061,0.1000061,0,0,0,1,2,0.6984127
623.733,0.00101,0.001953125,-0.005859375,-0.02539062,-2.023438,4.125,14.36719,0,-0.001953125,-0.01953125,0,-0.02148438,0,-0.005249023,0.006958008,-0.3446045,0,0,1.994751,0,4.01,0,0,0,0,nan,2,0.181,1,0,0.1000061,0.1000061,0.1000061,0.1000061,0,0,0,1,2,0
623.744,0.00101,-0.005859375,-0.005859375,-0.0078125,1.164062,2.335938,8.40625,-0.001953125,0.00390625,-0.01757812,0,-0.02148438,0,-0.005249023,0.007080078,-0.3448486,0,0,1.994751,0,4.01,0,0,0,0,nan,2,0.191,1,0,0.1000061,0.1000061,0.1000061,0.1000061,0,0,0,1,2,0
623.754,0.001023,0.01171875,-0.01953125,0.02929688,-1.53125,2.265625,13.28906,-0.001953125,-0.005859375,0.01171875,0,-0.02148438,0,-0.005371094,0.006958008,-0.3448486,0,0,1.994751,0,4.01,0,0,0,0,nan,2,0.006,1,0,0.1000061,0.1000061,0.1000061,0.1000061,0,0,0,1,2,0
623.764,0.00097,-0.009765625,-0.00390625,0.01171875,-1.953125,-4.632812,6.742188,0,-0.001953125,0.0234375,0,-0.02148438,0,-0.005371094,0.006958008,-0.3446045,0,0,1.994751,0,4.01,0,0,0,0,nan,2,0.016,1,0,0.1000061,0.1000061,0.1000061,0.1000061,0,0,0,1,2,0
623.774,0.00101,-0.005859375,0.015625,-0.04101562,1.359375,1.859375,16.60938,0,-0.001953125,-0.015625,0,-0.02148438,0,-0.005371094,0.006958008,-0.3446045,0,0,1.994751,0,4.01,0,0,0,0,nan,2,0.026,1,0,0.1000061,0.1000061,0.1000061,0.1000061,0,0,0,1,2,0
623.784,0.001009,-0.015625,-0.005859375,-0.04296875,3.34375,-0.109375,4.664062,-0.005859375,-0.001953125,-0.03710938,0,-0.02148438,0,-0.005371094,0.006958008,-0.3449707,0,0,1.994751,0,4.01,0,0,0,0,nan,2,0.036,1,0,0.1000061,0.1000061,0.1000061,0.1000061,0,0,0,1,2,0
623.794,0.001011,0.015625,-0.00390625,-0.02734375,-3.34375,5.125,6.453125,0.001953125,0.001953125,-0.03710938,0,-0.02148438,0,-0.005371094,0.006835938,-0.3453369,0,0,1.994751,0,4.01,0,0,0,0,nan,2,0.046,1,0,0.1000061,0.1000061,0.1000061,0.1000061,0,0,0,1,2,0
623.804,0.001003,-0.009765625,0.015625,-0.0234375,-0.75,-2.539062,12.19531,0,0.005859375,-0.02539062,0,-0.02148438,0,-0.005371094,0.006958008,-0.3455811,0,0,1.994751,0,4.01,0,0,0,0,nan,2,0.057,1,0,0.1000061,0.1000061,0.1000061,0.1000061,0,0,0,1,2,0
623.814,0.00101,0.01757812,0.009765625,-0.005859375,0.8671875,-1.648438,10.88281,0.001953125,0.005859375,-0.01171875,0,-0.02148438,0,-0.005371094,0.006958008,-0.3458252,0,0,1.994751,0,4.01,0,0,0,0,nan,2,0.067,1,0,0.1000061,0.1000061,0.1000061,0.1000061,0,0,0,1,2,0
623.824,0.00101,-0.0078125,-0.005859375,-0.005859375,-0.1796875,2.453125,14.86719,-0.009765625,0.00390625,-0.00390625,0,-0.02148438,0,-0.005371094,0.006958008,-0.3458252,0,0,1.994751,0,4.01,0,0,0,0,nan,2,0.077,1,0,0.1000061,0.1000061,0.1000061,0.1000061,0,0,0,1,2,0
623.833,0.00101,0.02148438,-0.03320312,-0.01757812,-0.1875,-0.375,15.03906,0.00390625,-0.0078125,-0.0234375,0,-0.02148438,0,-0.005371094,0.006958008,-0.3459473,0,0,1.994751,0,4.01,0,0,0,0,nan,2,0.086,1,0,0.1000061,0.1000061,0.1000061,0.1000061,0,0,0,1,2,0
623.843,0.00101,0.01953125,-0.00390625,0.01757812,-0.7265625,-5.9375,5.835938,0.0078125,0,0.00390625,0,-0.02148438,0,-0.005371094,0.006958008,-0.3460693,0,0,1.994751,0,4.01,0,0,0,0,nan,2,0.096,1,0,0.1000061,0.1000061,0.1000061,0.1000061,0,0,0,1,2,0
623.854,0.001008,-0.0390625,-0.001953125,0.02539062,1.125,0.78125,8.492188,-0.005859375,-0.001953125,0.02734375,0,-0.02148438,0,-0.005371094,0.006958008,-0.3459473,0,0,1.994751,0,4.01,0,0,0,0,nan,2,0.106,1,0,0.1000061,0.1000061,0.1000061,0.1000061,0,0,0,1,2,0
623.864,0.00101,-0.01171875,0.02734375,-0.0234375,-4.039062,0.390625,9.484375,-0.00390625,0.00390625,-0.0078125,0,-0.02148438,0,-0.005493164,0.006958008,-0.3458252,0,0,1.994751,0,4.01,0,0,0,0,nan,2,0.116,1,0,0.1000061,0.1000061,0.1000061,0.1000061,0,0,0,1,2,0
623.874,0.00101,0.009765625,-0.01171875,-0.02148438,-0.625,-4.234375,15.625,-0.001953125,-0.001953125,-0.01953125,0,-0.02148438,0,-0.005493164,0.006958008,-0.3459473,0,0,1.994751,0,4.01,0,0,0,0,nan,2,0.126,1,0,0.1000061,0.1000061,0.1000061,0.1000061,0,0,0,1,2,0
623.884,0.001015,0.009765625,0.009765625,-0.01171875,2.65625,-2.15625,8.515625,0.005859375,0.0078125,-0.01953125,0,-0.02148438,0,-0.005493164,0.006958008,-0.3461914,0,0,1.994751,0,4.01,0,0,0,0,nan,2,0.136,1,0,0.1000061,0.1000061,0.1000061,0.1000061,0,0,0,1,2,0
623.894,0.001012,-0.009765625,-0.001953125,-0.03515625,1.65625,4.390625,10.55469,-0.001953125,-0.005859375,-0.02148438,0,-0.02148438,0,-0.005493164,0.006958008,-0.3463135,0,0,1.994751,0,4.01,0,0,0,0,nan,2,0.146,1,0,0.1000061,0.1000061,0.1000061,0.1000061,0,0,0,1,2,0
623.904,0.001011,-0.01953125,0.009765625,-0.03320312,-0.9140625,-2.703125,2.015625,-0.0078125,0.009765625,-0.03320312,0,-0.02148438,0,-0.005493164,0.006958008,-0.3466797,0,0,1.994751,0,4.01,0,0,0,0,nan,2,0.157,1,0,0.1000061,0.1000061,0.1000061,0.1000061,0,0,0,1,2,0
623.914,0.00101,0.02148438,0.001953125,-0.03125,-2.375,6.15625,14.13281,0.00390625,0,-0.03515625,0,-0.02148438,0,-0.005493164,0.006958008,-0.3470459,0,0,1.994751,0,4.01,0,0,0,0,nan,2,0.167,1,0,0.1000061,0.1000061,0.1000061,0.1000061,0,0,0,1,2,0
623.923,0.001037,0.01367188,-0.03125,-0.02734375,-1.171875,6.929688,11.48438,0.001953125,-0.01171875,-0.02734375,0,-0.02148438,0,-0.005493164,0.006958008,-0.34729,0,0,1.994751,0,4.01,0,0,0,0,nan,2,0.176,1,0,0.1000061,0.1000061,0.1000061,0.1000061,0,0,0,1,2,0
623.933,0.00101,-0.01953125,-0.005859375,-0.02539062,0.8046875,-0.3359375,11.08594,0,0.005859375,-0.02929688,0,-0.02148438,0,-0.005493164,0.006958008,-0.3475342,0,0,1.994751,0,4.01,0,0,0,0,nan,2,0.186,1,0,0.1000061,0.1000061,0.1000061,0.1000061,0,0,0,1,2,0
623.943,0.001014,0.001953125,0.001953125,-0.04882812,-2.59375,2.601562,12.60156,-0.001953125,-0.001953125,-0.0390625,0,-0.02148438,0,-0.005493164,0.006958008,-0.3479004,0,0,1.994751,0,4.01,0,0,0,0,nan,2,0.196,1,0,0.1000061,0.1000061,0.1000061,0.1000061,0,0,0,1,2,0
623.954,0.000981,0.0078125,0.01757812,-0.04101562,2.359375,1.679688,5.445312,0.005859375,0,-0.04882812,0,-0.02148438,0,-0.005493164,0.006958008,-0.3483887,0,0,1.994751,0,4.01,0,0,0,0,nan,2,0.007,1,0,0.1000061,0.1000061,0.1000061,0.1000061,0,0,0,1,2,0
623.964,0.001039,-0.00390625,0.01953125,0.0234375,-0.53125,4.835938,12.97656,0,0.005859375,0,0,-0.02148438,0,-0.005493164,0.006958008,-0.3486328,0,0,1.994751,0,4.01,0,0,0,0,nan,2,0.017,1,0,0.1000061,0.1000061,0.1000061,0.1000061,0,0,0,1,2,0
623.974,0.00101,-0.0234375,0.01757812,0.02539062,-1.632812,-5.992188,4.890625,-0.009765625,0,0.03125,0,-0.02148438,0,-0.005615234,0.006958008,-0.3483887,0,0,1.994751,0,4.01,0,0,0,0,nan,2,0.027,1,0,0.1000061,0.1000061,0.1000061,0.1000061,0,0,0,1,2,0
623.984,0.001,0.001953125,-0.02539062,0.001953125,-1.3125,4.601562,17.69531,0,-0.005859375,0.0078125,0,-0.02148438,0,-0.005615234,0.006958008,-0.3481445,0,0,1.994751,0,4.01,0,0,0,0,nan,2,0.037,1,0,0.1000061,0.1000061,0.1000061,0.1000061,0,0,0,1,2,0
623.994,0.001014,0.001953125,-0.01171875,-0.02539062,2.789062,-2.648438,9.734375,0,0,-0.0234375,0,-0.02148438,0,-0.005615234,0.006835938,-0.3482666,0,0,1.994751,0,4.01,0,0,0,0,nan,2,0.047,1,0,0.1000061,0.1000061,0.1000061,0.1000061,0,0,0,1,2,0
624.004,0.001008,0.00390625,-0.01367188,-0.02734375,-0.2734375,2.257812,6.460938,-0.001953125,-0.005859375,-0.02539062,0,-0.02148438,0,-0.005615234,0.006835938,-0.3485107,0,0,1.994751,0,4.01,0,0,0,0,nan,2,0.058,1,0,0.1000061,0.1000061,0.1000061,0.1000061,0,0,0,1,2,0
624.014,0.00101,0.001953125,-0.0078125,-0.015625,0.6171875,-2.1875,9.328125,-0.001953125,0.009765625,-0.01953125,0,-0.02148438,0,-0.005615234,0.006835938,-0.3487549,0,0,1.994751,0,4.01,0,0,0,0,nan,2,0.068,1,0,0.1000061,0.1000061,0.1000061,0.1000061,0,0,0,1,2,0.5714286
624.024,0.00101,-0.009765625,0.01367188,-0.02929688,0.28125,0.03125,8.5,-0.00390625,0.001953125,-0.02148438,0,-0.02148438,0,-0.005737305,0.006835938,-0.348999,0,0,1.994751,0,4.01,0,0,0,0,nan,2,0.078,1,0,0.1000061,0.1000061,0.1000061,0.1000061,0,0,0,1,2,0
624.034,0.001045,-0.009765625,0.001953125,-0.02539062,0.625,2.53125,8.570312,-0.005859375,0.005859375,-0.02929688,0,-0.02148438,0,-0.005737305,0.006958008,-0.3492432,0,0,1.994751,0,4.01,0,0,0,0,nan,2,0.087,1,0,0.1000061,0.1000061,0.1000061,0.1000061,0,0,0,1,2,0
624.043,0.001016,0.005859375,0.00390625,0.01367188,-0.3671875,1.757812,12.64062,0,0.00390625,-0.00390625,0,-0.02148438,0,-0.005737305,0.006958008,-0.3494873,0,0,1.994751,0,4.01,0,0,0,0,nan,2,0.097,1,0,0.1000061,0.1000061,0.1000061,0.1000061,0,0,0,1,2,0
624.054,0.001003,-0.01757812,-0.005859375,0.015625,1.921875,2.164062,14.125,-0.005859375,0.005859375,0.01171875,0,-0.02148438,0,-0.005737305,0.006958008,-0.3493652,0,0,1.994751,0,4.01,0,0,0,0,nan,2,0.107,1,0,0.1000061,0.1000061,0.1000061,0.1000061,0,0,0,1,2,0
624.064,0.001015,-0.015625,-0.0078125,-0.00390625,3.320312,0.453125,5.054688,0,-0.00390625,-0.00390625,0,-0.02148438,0,-0.005737305,0.006835938,-0.3493652,0,0,1.994751,0,4.01,0,0,0,0,nan,2,0.117,1,0,0.1000061,0.1000061,0.1000061,0.1000061,0,0,0,1,2,0
624.074,0.001004,0.01367188,-0.001953125,-0.01953125,-4.015625,4.953125,7.039062,0.001953125,0.001953125,-0.01953125,0,-0.02148438,0,-0.005737305,0.006835938,-0.3494873,0,0,1.994751,0,4.01,0,0,0,0,nan,2,0.127,1,0,0.1000061,0.1000061,0.1000061,0.1000061,0,0,0,1,2,0.2380952
624.084,0.001002,-0.03710938,0.01757812,-0.03515625,-1.546875,-2.40625,10.47656,-0.009765625,0.005859375,-0.03125,0,-0.02148438,0,-0.005737305,0.006835938,-0.3497314,0,0,1.994751,0,4.01,0,0,0,0,nan,2,0.137,1,0,0.1000061,0.1000061,0.1000061,0.1000061,0,0,0,1,2,0
624.094,0.001007,-0.005859375,-0.01367188,-0.02148438,0.6953125,-2.71875,11.64844,-0.009765625,0.001953125,-0.02734375,0,-0.02148438,0,-0.005737305,0.006958008,-0.3500977,0,0,1.994751,0,4.01,0,0,0,0,nan,2,0.147,1,0,0.1000061,0.1000061,0.1000061,0.1000061,0,0,0,1,2,0
624.104,0.001005,0.001953125,-0.005859375,-0.01367188,1.210938,1.523438,15.83594,0.001953125,0,-0.01757812,0,-0.02148438,0,-0.005859375,0.006958008,-0.3502197,0,0,1.994751,0,4.01,0,0,0,0,nan,2,0.158,1,0,0.1000061,0.1000061,0.1000061,0.1000061,0,0,0,1,2,0
624.113,0.001015,0.001953125,-0.005859375,0.0078125,0.3984375,-1.304688,14.04688,0,-0.005859375,-0.01171875,0,-0.02148438,0,-0.005859375,0.006958008,-0.3504639,0,0,1.994751,0,4.01,0,0,0,0,nan,2,0.167,1,0,0.1000061,0.1000061,0.1000061,0.1000061,0,0,0,1,2,0
624.124,0.001004,-0.0234375,0.009765625,0.0546875,1.820312,3.117188,12,-0.005859375,-0.001953125,0.03710938,0,-0.02148438,0,-0.005859375,0.006835938,-0.3503418,0,0,1.994751,0,4.01,0,0,0,0,nan,2,0.178,1,0,0.1000061,0.1000061,0.1000061,0.1000061,0,0,0,1,2,0
624.133,0.001015,-0.01367188,-0.0234375,0.0703125,1.75,-0.25,12.84375,-0.001953125,-0.01367188,0.06640625,0,-0.02148438,0,-0.005859375,0.006958008,-0.3498535,0,0,1.994751,0,4.01,0,0,0,0,nan,2,0.187,1,0,0.1000061,0.1000061,0.1000061,0.1000061,0,0,0,1,2,0
624.143,0.001015,0.0078125,0.01171875,0.01367188,3.773438,-1.101562,3.914062,0,0.0078125,0.03320312,0,-0.02148438,0,-0.005859375,0.006958008,-0.3492432,0,0,1.994751,0,4.01,0,0,0,0,nan,2,0.197,1,0,0.1000061,0.1000061,0.1000061,0.1000061,0,0,0,1,2,0
624.154,0.001015,-0.01171875,0.01367188,-0.02539062,-2.40625,-4.84375,9.828125,-0.005859375,0.00390625,-0.01171875,0,-0.02148438,0,-0.005981445,0.006835938,-0.3492432,0,0,1.994751,0,4.01,0,0,0,0,nan,2,0.207,1,0,0.1000061,0.1000061,0.1000061,0.1000061,0,0,0,1,2,0
624.164,0.001012,0.01757812,-0.02539062,-0.04492188,0.1171875,0.1171875,13.61719,0.005859375,-0.01171875,-0.03710938,0,-0.02148438,0,-0.005981445,0.006835938,-0.3494873,0,0,1.994751,0,4.01,0,0,0,0,nan,2,0.217,1,0,0.1000061,0.1000061,0.1000061,0.1000061,0,0,0,1,2,0
624.174,0.000971,0.005859375,-0.015625,-0.0390625,3.734375,-1.234375,10.08594,-0.005859375,-0.015625,-0.04296875,0,-0.02148438,0,-0.005981445,0.006713867,-0.3498535,0,0,1.994751,0,4.01,0,0,0,0,nan,2,0.006,1,0,0.1000061,0.1000061,0.1000061,0.1000061,0,0,0,1,2,0
624.184,0.001023,0,0.01171875,-0.01953125,-1.140625,1.734375,2.015625,-0.0078125,0.0078125,-0.03125,0,-0.02148438,0,-0.006103516,0.006713867,-0.3502197,0,0,1.994751,0,4.01,0,0,0,0,nan,2,0.016,1,0,0.1000061,0.1000061,0.1000061,0.1000061,0,0,0,1,2,0
624.194,0.000966,0.015625,0.005859375,-0.02539062,-2.609375,0.78125,13.15625,0.009765625,0.0078125,-0.02148438,0,-0.02148438,0,-0.006103516,0.006835938,-0.3504639,0,0,1.994751,0,4.01,0,0,0,0,nan,2,0.026,1,0,0.1000061,0.1000061,0.1000061,0.1000061,0,0,0,1,2,0
624.204,0.001009,0.00390625,0.0390625,-0.04296875,1.273438,-4.765625,9.4375,-0.001953125,0.015625,-0.03710938,0,-0.02148438,0,-0.005981445,0.006835938,-0.350708,0,0,1.994751,0,4.01,0,0,0,0,nan,2,0.036,1,0,0.1000061,0.1000061,0.1000061,0.1000061,0,0,0,1,2,0
624.214,0.001011,0.005859375,0.02539062,-0.04296875,1.382812,5.492188,15.38281,-0.001953125,0.01953125,-0.04101562,0,-0.02148438,0,-0.006103516,0.006835938,-0.3510742,0,0,1.994751,0,4.014,0,0,0,0,nan,2,0.046,1,0,0.1000061,0.1000061,0.1000061,0.1000061,0,0,0,1,2,0
624.224,0.00101,-0.01171875,0.01367188,-0.04296875,0.1484375,-2.976562,3.710938,-0.00390625,-0.009765625,-0.0390625,0,-0.02148438,0,-0.006103516,0.006835938,-0.3515625,0,0,1.994751,0,4.014,0,0,0,0,nan,2,0.057,1,0,0.1000061,0.1000061,0.1000061,0.1000061,0,0,0,1,2,0
624.233,0.00101,0.005859375,0.01953125,-0.00390625,0.765625,-2.351562,6.054688,-0.001953125,0.0078125,-0.015625,0,-0.02148438,0,-0.006225586,0.006835938,-0.3518066,0,0,1.994751,0,4.014,0,0,0,0,nan,2,0.066,1,0,0.1000061,0.1000061,0.1000061,0.1000061,0,0,0,1,2,0
624.243,0.00101,0.009765625,-0.005859375,0.06054688,-1.414062,4.539062,9.109375,0.009765625,-0.0078125,0.04101562,0,-0.02148438,0,-0.006103516,0.006835938,-0.3515625,0,0,1.994751,0,4.014,0,0,0,0,nan,2,0.076,1,0,0.1000061,0.1000061,0.1000061,0.1000061,0,0,0,1,2,0.03174603
624.254,0.00101,0,0.04101562,0.0078125,-0.4453125,0.40625,9.773438,-0.0078125,0.0078125,0.02929688,0,-0.02148438,0,-0.006103516,0.006713867,-0.3511963,0,0,1.994751,0,4.014,0,0,0,0,nan,2,0.086,1,0,0.1000061,0.1000061,0.1000061,0.1000061,0,0,0,1,2,0.8253968
624.264,0.00101,0.005859375,-0.01757812,-0.02929688,-2.132812,-0.9375,13.94531,0,-0.0078125,-0.01367188,0,-0.02148438,0,-0.006103516,0.006835938,-0.3510742,0,0,1.994751,0,4.014,0,0,0,0,nan,2,0.096,1,0,0.1000061,0.1000061,0.1000061,0.1000061,0,0,0,1,2,0
624.274,0.00101,0.02148438,-0.02929688,-0.0234375,0.28125,-5.460938,5.460938,0.00390625,-0.0078125,-0.02734375,0,-0.02148438,0,-0.006103516,0.006835938,-0.3513184,0,0,1.994751,0,4.014,0,0,0,0,nan,2,0.106,1,0,0.1000061,0.1000061,0.1000061,0.1000061,0,0,0,1,2,0
624.284,0.001015,-0.01171875,-0.005859375,0.01953125,3.40625,4.203125,13.36719,-0.001953125,0,0.005859375,0,-0.02148438,0,-0.006103516,0.006713867,-0.3514404,0,0,1.994751,0,4.014,0,0,0,0,nan,2,0.116,1,0,0.1000061,0.1000061,0.1000061,0.1000061,0,0,0,1,2,0
624.294,0.001021,0.00390625,0.02734375,-0.01171875,1.546875,1.515625,4.257812,-0.00390625,0.01367188,-0.001953125,0,-0.02148438,0,-0.006225586,0.006835938,-0.3514404,0,0,1.994751,0,4.014,0,0,0,0,nan,2,0.126,1,0,0.1000061,0.1000061,0.1000061,0.1000061,0,0,0,1,2,0
624.304,0.001014,0.001953125,-0.02148438,-0.02539062,-5.171875,2.96875,9.460938,0,-0.01171875,-0.01953125,0,-0.02148438,0,-0.006225586,0.006835938,-0.3515625,0,0,1.994751,0,4.014,0,0,0,0,nan,2,0.136,1,0,0.1000061,0.1000061,0.1000061,0.1000061,0,0,0,1,2,0
624.314,0.00101,-0.001953125,-0.001953125,-0.01953125,-1.265625,-4.96875,12.99219,0.001953125,-0.00390625,-0.01757812,0,-0.02148438,0,-0.006103516,0.006713867,-0.3516846,0,0,1.994751,0,4.014,0,0,0,0,nan,2,0.146,1,0,0.1000061,0.1000061,0.1000061,0.1000061,0,0,0,1,2,0
624.324,0.001016,-0.0078125,0.0390625,-0.04296875,2.078125,-1.414062,10.8125,-0.005859375,0.02148438,-0.03515625,0,-0.02148438,0,-0.006225586,0.006713867,-0.3519287,0,0,1.994751,0,4.014,0,0,0,0,nan,2,0.157,1,0,0.1000061,0.1000061,0.1000061,0.1000061,0,0,0,1,2,0
624.333,0.00101,0.00390625,-0.02148438,-0.03125,-0.6953125,-0.03125,13.35938,-0.00390625,-0.01171875,-0.03125,0,-0.02148438,0,-0.006225586,0.006835938,-0.3522949,0,0,1.994751,0,4.014,0,0,0,0,nan,2,0.166,1,0,0.1000061,0.1000061,0.1000061,0.1000061,0,0,0,1,2,0
624.343,0.00101,-0.02148438,-0.001953125,-0.04101562,2.1875,-1.71875,14.375,-0.01171875,0,-0.04101562,0,-0.02148438,0,-0.006225586,0.006713867,-0.3526611,0,0,1.994751,0,4.014,0,0,0,0,nan,2,0.176,1,0,0.1000061,0.1000061,0.1000061,0.1000061,0,0,0,1,2,0
624.354,0.00101,0.0234375,0.001953125,0,-1.304688,4.90625,10.80469,0.015625,0.00390625,-0.01757812,0,-0.02148438,0,-0.006225586,0.006713867,-0.3530273,0,0,1.994751,0,4.014,0,0,0,0,nan,2,0.186,1,0,0.1000061,0.1000061,0.1000061,0.1000061,0,0,0,1,2,0
624.364,0.00101,-0.0078125,-0.0078125,0.02734375,1.484375,-1.851562,10.03906,0,-0.01171875,0.02734375,0,-0.02148438,0,-0.006103516,0.006713867,-0.3529053,0,0,1.994751,0,4.014,0,0,0,0,nan,2,0.196,1,0,0.1000061,0.1000061,0.1000061,0.1000061,0,0,0,1,2,0
624.374,0.000969,0.0234375,0.009765625,-0.01953125,-1.914062,3.609375,13.26562,0.009765625,0.009765625,-0.0078125,0,-0.02148438,0,-0.006103516,0.006713867,-0.3527832,0,0,1.994751,0,4.014,0,0,0,0,nan,2,0.206,1,0,0.1000061,0.1000061,0.1000061,0.1000061,0,0,0,1,2,0
624.384,0.000975,0.00390625,-0.001953125,-0.04101562,-2.007812,-4.273438,10.96094,-0.0078125,0.0078125,-0.03515625,0,-0.02148438,0,-0.006225586,0.006713867,-0.3530273,0,0,1.994751,0,4.014,0,0,0,0,nan,2,0.005,1,0,0.1000061,0.1000061,0.1000061,0.1000061,0,0,0,1,2,0
624.394,0.001007,0.01171875,0.00390625,-0.009765625,1.507812,-3.734375,7.132812,0.00390625,0.00390625,-0.0234375,0,-0.02148438,0,-0.006103516,0.006835938,-0.3532715,0,0,1.994751,0,4.014,0,0,0,0,nan,2,0.015,1,0,0.1000061,0.1000061,0.1000061,0.1000061,0,0,0,1,2,0
624.404,0.001004,-0.00390625,0,0,3.640625,3.046875,12.60938,-0.005859375,0.00390625,0,0,-0.02148438,0,-0.006225586,0.006713867,-0.3533936,0,0,1.994751,0,4.014,0,0,0,0,nan,2,0.025,1,0,0.1000061,0.1000061,0.1000061,0.1000061,0,0,0,1,2,0
624.414,0.000993,-0.01171875,0.03125,-0.02539062,-0.4296875,0.59375,2.4375,0,0.001953125,-0.015625,0,-0.02148438,0,-0.006103516,0.006713867,-0.3535156,0,0,1.994751,0,4.014,0,0,0,0,nan,2,0.035,1,0,0.1000061,0.1000061,0.1000061,0.1000061,0,0,0,1,2,0
624.424,0.001012,0,-0.03320312,-0.03320312,-4.78125,3.101562,13.34375,-0.00390625,-0.01757812,-0.03125,0,-0.02148438,0,-0.006103516,0.006713867,-0.3537598,0,0,1.994751,0,4.014,0,0,0,0,nan,2,0.045,1,0,0.1000061,0.1000061,0.1000061,0.1000061,0,0,0,1,2,0
624.433,0.001024,0.02734375,0.01171875,-0.03320312,-3.539062,3.992188,11.27344,0.01171875,0.0078125,-0.03515625,0,-0.02148438,0,-0.006103516,0.006713867,-0.354126,0,0,1.994751,0,4.014,0,0,0,0,nan,2,0.055,1,0,0.1000061,0.1000061,0.1000061,0.1000061,0,0,0,1,2,0
624.444,0.001074,0.02148438,-0.01757812,-0.03710938,-0.296875,-3.601562,9.15625,0,0.005859375,-0.03515625,0,-0.02148438,0,-0.006103516,0.006835938,-0.3543701,0,0,1.994751,0,4.014,0,0,0,0,nan,2,0.065,1,0,0.1000061,0.1000061,0.1000061,0.1000061,0,0,0,1,2,0.7619048
624.454,0.000989,0.02929688,-0.009765625,-0.01757812,0.6640625,-1.140625,8.554688,0.005859375,0.001953125,-0.01953125,0,-0.02148438,0,-0.006103516,0.006835938,-0.3546143,0,0,1.994751,0,4.014,0,0,0,0,nan,2,0.075,1,0,0.1000061,0.1000061,0.1000061,0.1000061,0,0,0,1,2,0
624.464,0.000958,0.01171875,-0.03710938,-0.0390625,-0.0546875,-2.273438,2.789062,-0.00390625,-0.01171875,-0.02929688,0,-0.02148438,0,-0.006225586,0.006835938,-0.3548584,0,0,1.994751,0,4.014,0,0,0,0,nan,2,0.085,1,0,0.1000061,0.1000061,0.1000061,0.1000061,0,0,0,1,2,0
624.474,0.00101,0.0078125,-0.02148438,0.01367188,0.421875,3.484375,14.29688,0.01171875,-0.00390625,-0.009765625,0,-0.02148438,0,-0.006103516,0.006713867,-0.3551025,0,0,1.994751,0,4.014,0,0,0,0,nan,2,0.095,1,0,0.1000061,0.1000061,0.1000061,0.1000061,0,0,0,1,2,0
624.484,0.001014,-0.001953125,-0.00390625,0.05078125,1.132812,-1.265625,8.445312,0.001953125,0.009765625,0.03515625,0,-0.02148438,0,-0.006103516,0.006835938,-0.3549805,0,0,1.994751,0,4.014,0,0,0,0,nan,2,0.105,1,0,0.1000061,0.1000061,0.1000061,0.1000061,0,0,0,1,2,0
624.494,0.001034,0.01953125,-0.005859375,0.01953125,-4.09375,2.070312,13.69531,-0.005859375,0.00390625,0.03125,0,-0.02148438,0,-0.006225586,0.006835938,-0.3544922,0,0,1.994751,0,4.014,0,0,0,0,nan,2,0.115,1,0,0.1000061,0.1000061,0.1000061,0.1000061,0,0,0,1,2,0
624.504,0.001009,0.00390625,0.0078125,-0.009765625,0.859375,-4.539062,10.14062,-0.005859375,0.015625,0.001953125,0,-0.02148438,0,-0.006225586,0.006835938,-0.3543701,0,0,1.994751,0,4.014,0,0,0,0,nan,2,0.125,1,0,0.1000061,0.1000061,0.1000061,0.1000061,0,0,0,1,2,0
624.514,0.00101,0.001953125,-0.00390625,-0.01953125,3.117188,0.8046875,7.570312,-0.005859375,-0.00390625,-0.01171875,0,-0.02148438,0,-0.006225586,0.006835938,-0.3544922,0,0,1.994751,0,4.014,0,0,0,0,nan,2,0.135,1,0,0.1000061,0.1000061,0.1000061,0.1000061,0,0,0,1,2,0
624.523,0.001067,-0.01171875,0.01757812,-0.01757812,2.046875,0.25,11.0625,-0.001953125,0.00390625,-0.01757812,0,-0.02148438,0,-0.006225586,0.006713867,-0.3546143,0,0,1.994751,0,4.014,0,0,0,0,nan,2,0.144,1,0,0.1000061,0.1000061,0.1000061,0.1000061,0,0,0,1,2,0
624.533,0.001011,-0.009765625,-0.02148438,-0.0546875,2.828125,0.8203125,8.6875,0.001953125,-0.0078125,-0.04492188,0,-0.02148438,0,-0.006225586,0.006835938,-0.3548584,0,0,1.994751,0,4.014,0,0,0,0,nan,2,0.155,1,0,0.1000061,0.1000061,0.1000061,0.1000061,0,0,0,1,2,0
624.543,0.001017,0.009765625,0.0234375,-0.06054688,-2.53125,-0.5234375,3.265625,-0.00390625,0.0078125,-0.05859375,0,-0.02148438,0,-0.006225586,0.006713867,-0.3554688,0,0,1.994751,0,4.014,0,0,0,0,nan,2,0.165,1,0,0.1000061,0.1000061,0.1000061,0.1000061,0,0,0,1,2,0
624.554,0.001011,-0.005859375,-0.01953125,-0.03710938,2.960938,-2.679688,10.98438,0.0078125,-0.015625,-0.04492188,0,-0.02148438,0,-0.006225586,0.006713867,-0.355957,0,0,1.994751,0,4.014,0,0,0,0,nan,2,0.175,1,0,0.1000061,0.1000061,0.1000061,0.1000061,0,0,0,1,2,0
624.564,0.00101,0.005859375,0.01953125,-0.03125,0.0078125,4.46875,8.320312,0.001953125,0.015625,-0.03320312,0,-0.02148438,0,-0.006225586,0.006713867,-0.3563232,0,0,1.994751,0,4.014,0,0,0,0,nan,2,0.185,1,0,0.1000061,0.1000061,0.1000061,0.1000061,0,0,0,1,2,0.2698413
624.574,0.000978,-0.01953125,0.01757812,-0.005859375,-0.078125,-1.445312,7.234375,0,0.01171875,-0.015625,0,-0.02148438,0,-0.006103516,0.006835938,-0.3565674,0,0,1.994751,0,4.014,0,0,0,0,nan,2,0.195,1,0,0.1000061,0.1000061,0.1000061,0.1000061,0,0,0,1,2,0
624.584,0.001023,-0.00390625,-0.015625,-0.005859375,0.4921875,-0.890625,7.632812,0,0,-0.01171875,0,-0.02148438,0,-0.006103516,0.006958008,-0.3566895,0,0,1.994751,0,4.014,0,0,0,0,nan,2,0.004,1,0,0.1000061,0.1000061,0.1000061,0.1000061,0,0,0,1,2,0
624.594,0.001012,0.015625,0,0.01171875,-0.234375,4.8125,15.86719,0.0078125,0.01953125,-0.001953125,0,-0.02148438,0,-0.006225586,0.007080078,-0.3568115,0,0,1.994751,0,4.014,0,0,0,0,nan,2,0.014,1,0,0.1000061,0.1000061,0.1000061,0.1000061,0,0,0,1,2,0
624.604,0.001009,0.015625,0.0234375,0.04296875,-0.8125,-2.617188,8.3125,0,0.01367188,0.02929688,0,-0.02148438,0,-0.006103516,0.007080078,-0.3566895,0,0,1.994751,0,4.014,0,0,0,0,nan,2,0.024,1,0,0.1000061,0.1000061,0.1000061,0.1000061,0,0,0,1,2,0
624.614,0.001009,0.01953125,-0.01367188,0.046875,-2.46875,2.085938,12.69531,0.01757812,-0.001953125,0.046875,0,-0.02148438,0,-0.005981445,0.007202148,-0.3562012,0,0,1.994751,0,4.014,0,0,0,0,nan,2,0.034,1,0,0.1000061,0.1000061,0.1000061,0.1000061,0,0,0,1,2,0
624.624,0.00101,-0.01757812,0.01953125,0.005859375,2.703125,-3.164062,9.914062,0.001953125,-0.001953125,0.0234375,0,-0.02148438,0,-0.005981445,0.007202148,-0.355835,0,0,1.994751,0,4.014,0,0,0,0,nan,2,0.044,1,0,0.1000061,0.1000061,0.1000061,0.1000061,0,0,0,1,2,0
624.634,0.00101,0.02734375,0.0078125,-0.015625,2.5625,2.09375,5.15625,0.01171875,0.01171875,-0.0078125,0,-0.02148438,0,-0.005981445,0.007324219,-0.355835,0,0,1.994751,0,4.014,0,0,0,0,nan,2,0.055,1,0,0.1000061,0.1000061,0.1000061,0.1000061,0,0,0,1,2,0
624.643,0.00101,-0.015625,0.0234375,-0.015625,2.9375,1.664062,8.820312,0.0078125,0.0078125,-0.01171875,0,-0.02148438,0,-0.005737305,0.007324219,-0.355957,0,0,1.994751,0,4.014,0,0,0,0,nan,2,0.064,1,0,0.1000061,0.1000061,0.1000061,0.1000061,0,0,0,1,2,0.2380952
624.654,0.001017,0.0078125,0.00390625,-0.015625,-1.351562,-4.6875,6.5625,0.0078125,0.01757812,-0.02148438,0,-0.02148438,0,-0.005737305,0.007568359,-0.3560791,0,0,1.994751,0,4.014,0,0,0,0,nan,2,0.074,1,0,0.1000061,0.1000061,0.1000061,0.1000061,0,0,0,1,2,0
624.664,0.00101,0.01171875,0.02929688,-0.03320312,-0.921875,4.546875,17.27344,0,0.01367188,-0.02148438,0,-0.02148438,0,-0.005737305,0.007568359,-0.3563232,0,0,1.994751,0,4.014,0,0,0,0,nan,2,0.084,1,0,0.1000061,0.1000061,0.1000061,0.1000061,0,0,0,1,2,0
624.674,0.00101,0.005859375,-0.01171875,-0.02929688,1.390625,-3.101562,10.67188,0.01171875,-0.01367188,-0.02734375,0,-0.02148438,0,-0.005615234,0.007568359,-0.3565674,0,0,1.994751,0,4.014,0,0,0,0,nan,2,0.094,1,0,0.1000061,0.1000061,0.1000061,0.1000061,0,0,0,1,2,0
624.684,0.00101,0.009765625,-0.009765625,-0.0078125,-0.453125,-2.71875,5.5,0.00390625,0,-0.01367188,0,-0.02148438,0,-0.005615234,0.007446289,-0.3568115,0,0,1.994751,0,4.014,0,0,0,0,nan,2,0.104,1,0,0.1000061,0.1000061,0.1000061,0.1000061,0,0,0,1,2,0
624.694,0.001006,-0.02734375,-0.001953125,-0.02148438,1.28125,0.3671875,10.60156,-0.01171875,-0.009765625,-0.01757812,0,-0.02148438,0,-0.005493164,0.007324219,-0.3569336,0,0,1.994751,0,4.014,0,0,0,0,nan,2,0.114,1,0,0.1000061,0.1000061,0.1000061,0.1000061,0,0,0,1,2,0
624.704,0.00101,-0.01757812,0.01171875,-0.05273438,1.585938,1.625,5.78125,-0.01171875,0,-0.046875,0,-0.02148438,0,-0.005737305,0.007324219,-0.3572998,0,0,1.994751,0,4.014,0,0,0,0,nan,2,0.124,1,0,0.1000061,0.1000061,0.1000061,0.1000061,0,0,0,1,2,0
624.714,0.001003,0,0.03515625,-0.03515625,-2.210938,4.09375,12.67188,-0.00390625,0.01367188,-0.046875,0,-0.02148438,0,-0.005737305,0.007446289,-0.3577881,0,0,1.994751,0,4.014,0,0,0,0,nan,2,0.134,1,0,0.1000061,0.1000061,0.1000061,0.1000061,0,0,0,1,2,0
624.724,0.001004,0.02539062,-0.03125,0.02539062,-2.015625,-6.726562,10.27344,0.009765625,-0.005859375,0.005859375,0,-0.02148438,0,-0.005737305,0.007446289,-0.3580322,0,0,1.994751,0,4.014,0,0,0,0,nan,2,0.144,1,0,0.1000061,0.1000061,0.1000061,0.1000061,0,0,0,1,2,0
624.733,0.001015,-0.01171875,0.00390625,0.046875,-1.96875,-5.65625,7.875,0.001953125,-0.009765625,0.0390625,0,-0.02148438,0,-0.005615234,0.007324219,-0.3577881,0,0,1.994751,0,4.014,0,0,0,0,nan,2,0.154,1,0,0.1000061,0.1000061,0.1000061,0.1000061,0,0,0,1,2,0.6190476
624.743,0.001015,0.01171875,0.00390625,-0.005859375,-1.507812,1.9375,13.99219,-0.001953125,0.01171875,0.01171875,0,-0.02148438,0,-0.005737305,0.007446289,-0.3574219,0,0,1.994751,0,4.014,0,0,0,0,nan,2,0.164,1,0,0.1000061,0.1000061,0.1000061,0.1000061,0,0,0,1,2,0
624.754,0.001015,-0.009765625,0.00390625,-0.02734375,-0.0703125,-1.8125,0.8125,-0.001953125,-0.005859375,-0.02148438,0,-0.02148438,0,-0.005737305,0.007446289,-0.3575439,0,0,1.994751,0,4.014,0,0,0,0,nan,2,0.174,1,0,0.1000061,0.1000061,0.1000061,0.1000061,0,0,0,1,2,0
624.764,0.001015,0.0234375,0.001953125,-0.03320312,-2.953125,4.414062,11.71875,0.005859375,0.001953125,-0.03125,0,-0.02148438,0,-0.005737305,0.007324219,-0.3577881,0,0,1.994751,0,4.014,0,0,0,0,nan,2,0.184,1,0,0.1000061,0.1000061,0.1000061,0.1000061,0,0,0,1,2,0
624.774,0.001012,-0.01953125,0.01171875,-0.0078125,0.4453125,-1.164062,12.67188,-0.001953125,0,-0.01953125,0,-0.02148438,0,-0.005615234,0.007446289,-0.3580322,0,0,1.994751,0,4.014,0,0,0,0,nan,2,0.194,1,0,0.1000061,0.1000061,0.1000061,0.1000061,0,0,0,1,2,0
624.784,0.00096,-0.009765625,-0.005859375,-0.01367188,-0.4765625,-0.078125,10.17188,-0.001953125,0.005859375,-0.01367188,0,-0.02148438,0,-0.005737305,0.007446289,-0.3582764,0,0,1.994751,0,4.014,0,0,0,0,nan,2,0.204,1,0,0.1000061,0.1000061,0.1000061,0.1000061,0,0,0,1,2,0.1746032
624.794,0.000988,-0.01757812,0.005859375,-0.06640625,-0.375,-2.648438,11.86719,-0.00390625,-0.001953125,-0.04492188,0,-0.02148438,0,-0.005615234,0.007446289,-0.3585205,0,0,1.994751,0,4.014,0,0,0,0,nan,2,0.001,1,0,0.1000061,0.1000061,0.1000061,0.1000061,0,0,0,1,2,0
624.804,0.001056,0.015625,-0.01367188,-0.02148438,2.476562,-1.273438,4.304688,0,0,-0.04101562,0,-0.02148438,0,-0.005737305,0.007446289,-0.3590088,0,0,1.994751,0,4.014,0,0,0,0,nan,2,0.011,1,0,0.1000061,0.1000061,0.1000061,0.1000061,0,0,0,1,2,0
624.814,0.001002,-0.015625,-0.001953125,0.03125,0.015625,8.257812,11.17188,-0.00390625,-0.0078125,0.0078125,0,-0.02148438,0,-0.005737305,0.007446289,-0.3592529,0,0,1.994751,0,4.014,0,0,0,0,nan,2,0.021,1,0,0.1000061,0.1000061,0.1000061,0.1000061,0,0,0,1,2,0
624.824,0.000997,-0.005859375,-0.01757812,0.009765625,-2.609375,-3.125,8.515625,0,-0.005859375,0.01953125,0,-0.02148438,0,-0.005737305,0.007446289,-0.3590088,0,0,1.994751,0,4.014,0,0,0,0,nan,2,0.031,1,0,0.1000061,0.1000061,0.1000061,0.1000061,0,0,0,1,2,0.2063492
624.834,0.001004,0.01953125,-0.01171875,-0.04101562,-1.398438,-3.328125,11.39062,0.00390625,0,-0.01757812,0,-0.02148438,0,-0.005737305,0.007446289,-0.3590088,0,0,1.994751,0,4.014,0,0,0,0,nan,2,0.041,1,0,0.1000061,0.1000061,0.1000061,0.1000061,0,0,0,1,2,0
624.843,0.001015,0.015625,0.01953125,-0.06835938,-3.078125,-1.296875,11.13281,0.001953125,0.00390625,-0.05664062,0,-0.02148438,0,-0.005737305,0.007324219,-0.359375,0,0,1.994751,0,4.014,0,0,0,0,nan,2,0.05,1,0,0.1000061,0.1000061,0.1000061,0.1000061,0,0,0,1,2,0
624.854,0.001015,-0.01171875,-0.009765625,-0.04492188,1.851562,-1.46875,1.9375,-0.001953125,-0.005859375,-0.05859375,0,-0.02148438,0,-0.005737305,0.007324219,-0.3599854,0,0,1.994751,0,4.014,0,0,0,0,nan,2,0.061,1,0,0.1000061,0.1000061,0.1000061,0.1000061,0,0,0,1,2,0
624.864,0.001015,0.005859375,0.01953125,-0.02148438,-2.820312,4.578125,7.578125,0,-0.001953125,-0.02929688,0,-0.02148438,0,-0.005615234,0.007324219,-0.3604736,0,0,1.994751,0,4.012,0,0,0,0,nan,2,0.071,1,0,0.1000061,0.1000061,0.1000061,0.1000061,0,0,0,1,2,0
624.874,0.001016,-0.01953125,0.02148438,-0.01757812,0.2109375,-1.640625,13.64844,-0.00390625,0,-0.01757812,0,-0.02148438,0,-0.005615234,0.007324219,-0.3605957,0,0,1.994751,0,4.012,0,0,0,0,nan,2,0.081,1,0,0.1000061,0.1000061,0.1000061,0.1000061,0,0,0,1,2,0
624.884,0.001016,-0.01171875,-0.01757812,-0.01953125,0.984375,-1.6875,9.617188,-0.00390625,-0.001953125,-0.02148438,0,-0.02148438,0,-0.005615234,0.007324219,-0.3608398,0,0,1.994751,0,4.012,0,0,0,0,nan,2,0.091,1,0,0.1000061,0.1000061,0.1000061,0.1000061,0,0,0,1,2,0.952381
624.894,0.001017,0,-0.005859375,-0.03320312,-1.765625,2.257812,14.23438,-0.001953125,0.001953125,-0.03125,0,-0.02148438,0,-0.005737305,0.007324219,-0.3612061,0,0,1.994751,0,4.012,0,0,0,0,nan,2,0.101,1,0,0.1000061,0.1000061,0.1000061,0.1000061,0,0,0,1,2,0
624.904,0.001003,0.005859375,-0.005859375,0.00390625,1.257812,-4.203125,5.460938,0,0.001953125,-0.0078125,0,-0.02148438,0,-0.005737305,0.007324219,-0.3613281,0,0,1.994751,0,4.012,0,0,0,0,nan,2,0.111,1,0,0.1000061,0.1000061,0.1000061,0.1000061,0,0,0,1,2,0
624.914,0.001011,-0.015625,0.015625,0.0390625,2.046875,5.335938,9.101562,0,-0.001953125,0.02734375,0,-0.02148438,0,-0.005737305,0.007324219,-0.3612061,0,0,1.994751,0,4.012,0,0,0,0,nan,2,0.121,1,0,0.1000061,0.1000061,0.1000061,0.1000061,0,0,0,1,2,0
624.924,0.001003,-0.00390625,0.01367188,0,-1.09375,0.96875,11.3125,0,0,0.01953125,0,-0.02148438,0,-0.005737305,0.007324219,-0.3609619,0,0,1.994751,0,4.012,0,0,0,0,nan,2,0.131,1,0,0.1000061,0.1000061,0.1000061,0.1000061,0,0,0,1,2,0
624.934,0.00101,-0.02148438,0.02148438,-0.04101562,-1.640625,-5.835938,5.46875,-0.005859375,0,-0.02734375,0,-0.02148438,0,-0.005859375,0.007324219,-0.3609619,0,0,1.994751,0,4.012,0,0,0,0,nan,2,0.141,1,0,0.1000061,0.1000061,0.1000061,0.1000061,0,0,0,1,2,0
624.943,0.00101,-0.01171875,0.03125,-0.05664062,-2.203125,-4.023438,4.078125,-0.0078125,0.00390625,-0.04492188,0,-0.02148438,0,-0.005859375,0.007324219,-0.3613281,0,0,1.994751,0,4.012,0,0,0,0,nan,2,0.15,1,0,0.1000061,0.1000061,0.1000061,0.1000061,0,0,0,1,2,0
624.954,0.00101,0.001953125,-0.01171875,-0.03125,2.40625,-3.023438,9.484375,-0.00390625,0.001953125,-0.0390625,0,-0.02148438,0,-0.005859375,0.007324219,-0.3618164,0,0,1.994751,0,4.012,0,0,0,0,nan,2,0.161,1,0,0.1000061,0.1000061,0.1000061,0.1000061,0,0,0,1,2,0.03174603
624.964,0.00101,0.01953125,-0.009765625,-0.02734375,0.171875,-2.398438,2.8125,0.005859375,0,-0.02929688,0,-0.02148438,0,-0.005737305,0.007324219,-0.3621826,0,0,1.994751,0,4.012,0,0,0,0,nan,2,0.171,1,0,0.1000061,0.1000061,0.1000061,0.1000061,0,0,0,1,2,0
624.974,0.001046,-0.001953125,0.001953125,-0.04101562,-0.890625,4.703125,10.89844,-0.001953125,0.00390625,-0.03710938,0,-0.02148438,0,-0.005737305,0.007324219,-0.3625488,0,0,1.994751,0,4.012,0,0,0,0,nan,2,0.181,1,0,0.1000061,0.1000061,0.1000061,0.1000061,0,0,0,1,2,0
624.984,0.001009,0,-0.009765625,-0.03125,0.59375,0.1484375,9.929688,-0.001953125,0.00390625,-0.03710938,0,-0.02148438,0,-0.005737305,0.007324219,-0.362915,0,0,1.994751,0,4.012,0,0,0,0,nan,2,0.191,1,0,0.1000061,0.1000061,0.1000061,0.1000061,0,0,0,1,2,0.6190476
624.994,0.001003,0.005859375,-0.001953125,-0.01953125,-1.265625,-0.2421875,11.10156,0.00390625,0.001953125,-0.02929688,0,-0.02148438,0,-0.005737305,0.007324219,-0.3631592,0,0,1.994751,0,4.012,0,0,0,0,nan,2,0.201,1,0,0.1000061,0.1000061,0.1000061,0.1000061,0,0,0,1,2,0
625.004,0.001053,-0.005859375,-0.01367188,-0.009765625,-0.8359375,-2.476562,13.72656,-0.00390625,-0.0078125,-0.01953125,0,-0.02148438,0,-0.005859375,0.007324219,-0.3634033,0,0,1.994751,0,4.012,0,0,0,0,nan,2,0.007,1,0,0.1000061,0.1000061,0.1000061,0.1000061,0,0,0,1,2,0
625.014,0.001052,-0.02148438,0.005859375,0.0234375,1.578125,-1.351562,4.65625,-0.001953125,-0.005859375,0.01171875,0,-0.02148438,0,-0.005859375,0.007324219,-0.3635254,0,0,1.994751,0,4.012,0,0,0,0,nan,2,0.017,1,0,0.1000061,0.1000061,0.1000061,0.1000061,0,0,0,1,2,0
625.024,0.00101,-0.01367188,0.0078125,0.06640625,1.15625,5.765625,9.726562,-0.001953125,-0.001953125,0.04882812,0,-0.02148438,0,-0.005859375,0.007324219,-0.3631592,0,0,1.994751,0,4.012,0,0,0,0,nan,2,0.027,1,0,0.1000061,0.1000061,0.1000061,0.1000061,0,0,0,1,2,0
625.034,0.00101,0.001953125,0.015625,0.046875,-0.125,-1.546875,11.77344,-0.00390625,0.005859375,0.0546875,0,-0.02148438,0,-0.005859375,0.007324219,-0.3625488,0,0,1.994751,0,4.012,0,0,0,0,nan,2,0.037,1,0,0.1000061,0.1000061,0.1000061,0.1000061,0,0,0,1,2,0
625.043,0.00101,-0.015625,0.00390625,0.009765625,1.53125,-0.703125,8.507812,-0.005859375,0,0.02148438,0,-0.02148438,0,-0.005737305,0.007324219,-0.3623047,0,0,1.994751,0,4.012,0,0,0,0,nan,2,0.046,1,0,0.1000061,0.1000061,0.1000061,0.1000061,0,0,0,1,2,0
625.054,0.00101,-0.02148438,0.02929688,-0.02148438,-1.726562,-1.953125,4.296875,-0.005859375,0.005859375,-0.01367188,0,-0.02148438,0,-0.005859375,0.007324219,-0.3623047,0,0,1.994751,0,4.012,0,0,0,0,nan,2,0.057,1,0,0.1000061,0.1000061,0.1000061,0.1000061,0,0,0,1,2,0
625.064,0.00101,-0.005859375,-0.009765625,0.009765625,2.523438,-4.75,9.921875,0.00390625,-0.0078125,-0.001953125,0,-0.02148438,0,-0.005859375,0.007324219,-0.3624268,0,0,1.994751,0,4.012,0,0,0,0,nan,2,0.067,1,0,0.1000061,0.1000061,0.1000061,0.1000061,0,0,0,1,2,0
625.074,0.00101,0.015625,-0.015625,0.001953125,0.859375,-0.9375,2.679688,0.005859375,0,0.0078125,0,-0.02148438,0,-0.005859375,0.007324219,-0.3623047,0,0,1.994751,0,4.012,0,0,0,0,nan,2,0.077,1,0,0.1000061,0.1000061,0.1000061,0.1000061,0,0,0,1,2,0
625.084,0.00101,-0.02148438,0.009765625,-0.02539062,-0.9453125,6.070312,11.38281,-0.009765625,-0.001953125,-0.015625,0,-0.02148438,0,-0.005737305,0.007202148,-0.3623047,0,0,1.994751,0,4.012,0,0,0,0,nan,2,0.087,1,0,0.1000061,0.1000061,0.1000061,0.1000061,0,0,0,1,2,0
625.094,0.001001,0.001953125,-0.03320312,-0.01757812,-1.054688,-1.664062,9.023438,0,-0.0078125,-0.02539062,0,-0.02148438,0,-0.005859375,0.007324219,-0.3626709,0,0,1.994751,0,4.012,0,0,0,0,nan,2,0.097,1,0,0.1000061,0.1000061,0.1000061,0.1000061,0,0,0,1,2,0
625.104,0.001009,-0.04101562,0.03125,0.02148438,0.3515625,-2.414062,11.42188,-0.01367188,0.009765625,0.005859375,0,-0.02148438,0,-0.005859375,0.007324219,-0.3626709,0,0,1.994751,0,4.012,0,0,0,0,nan,2,0.107,1,0,0.1000061,0.1000061,0.1000061,0.1000061,0,0,0,1,2,0
625.114,0.001016,0.01367188,0,0.04492188,-1.34375,1.398438,14.82812,0.009765625,0,0.02734375,0,-0.02148438,0,-0.005859375,0.007446289,-0.3625488,0,0,1.994751,0,4.012,0,0,0,0,nan,2,0.117,1,0,0.1000061,0.1000061,0.1000061,0.1000061,0,0,0,1,2,0
625.124,0.00101,-0.01171875,0.0078125,0.01171875,0,-3.234375,4.976562,-0.001953125,-0.001953125,0.03320312,0,-0.02148438,0,-0.005859375,0.007324219,-0.3621826,0,0,1.994751,0,4.012,0,0,0,0,nan,2,0.127,1,0,0.1000061,0.1000061,0.1000061,0.1000061,0,0,0,1,2,0
625.134,0.00101,-0.01757812,0.0234375,0,1.023438,1.289062,8.1875,-0.01171875,0.005859375,0.001953125,0,-0.02148438,0,-0.005859375,0.007324219,-0.3620605,0,0,1.994751,0,4.012,0,0,0,0,nan,2,0.137,1,0,0.1000061,0.1000061,0.1000061,0.1000061,0,0,0,1,2,0
625.143,0.00101,-0.0078125,0,-0.00390625,0.2734375,1.585938,8.1875,-0.01367188,0.01171875,-0.005859375,0,-0.02148438,0,-0.005981445,0.007446289,-0.3620605,0,0,1.994751,0,4.012,0,0,0,0,nan,2,0.146,1,0,0.1000061,0.1000061,0.1000061,0.1000061,0,0,0,1,2,0
625.153,0.00101,-0.02148438,0.005859375,0.01171875,3.640625,1.328125,12.59375,-0.01367188,0.0078125,0.001953125,0,-0.02148438,0,-0.006103516,0.007568359,-0.3620605,0,0,1.994751,0,4.012,0,0,0,0,nan,2,0.157,1,0,0.1000061,0.1000061,0.1000061,0.1000061,0,0,0,1,2,0
625.164,0.00101,-0.01171875,-0.02148438,0.001953125,-3.351562,1.65625,12.60156,-0.009765625,-0.00390625,0.00390625,0,-0.02148438,0,-0.006225586,0.007568359,-0.3620605,0,0,1.994751,0,4.012,0,0,0,0,nan,2,0.167,1,0,0.1000061,0.1000061,0.1000061,0.1000061,0,0,0,1,2,0
625.174,0.001051,-0.00390625,-0.009765625,0.00390625,2.875,-3.359375,14.23438,-0.00390625,-0.005859375,0.00390625,0,-0.02148438,0,-0.006347656,0.007568359,-0.3619385,0,0,1.994751,0,4.012,0,0,0,0,nan,2,0.177,1,0,0.1000061,0.1000061,0.1000061,0.1000061,0,0,0,1,2,0
625.184,0.00101,-0.02148438,0.005859375,0.01171875,3.242188,0.296875,3.109375,-0.0078125,-0.00390625,0.005859375,0,-0.02148438,0,-0.006469727,0.007446289,-0.3619385,0,0,1.994751,0,4.012,0,0,0,0,nan,2,0.187,1,0,0.1000061,0.1000061,0.1000061,0.1000061,0,0,0,1,2,0
625.194,0.001009,-0.015625,0.0078125,-0.00390625,-2.859375,5.882812,8.367188,-0.009765625,0.0078125,0.00390625,0,-0.02148438,0,-0.006469727,0.007446289,-0.3619385,0,0,1.994751,0,4.012,0,0,0,0,nan,2,0.197,1,0,0.1000061,0.1000061,0.1000061,0.1000061,0,0,0,1,2,0
625.204,0.000982,0.01171875,0.0078125,-0.02539062,-2.390625,-3.09375,12.19531,0.001953125,0.00390625,-0.01757812,0,-0.02148438,0,-0.006591797,0.007568359,-0.3619385,0,0,1.994751,0,4.012,0,0,0,0,nan,2,0.008,1,0,0.1000061,0.1000061,0.1000061,0.1000061,0,0,0,1,2,0
625.214,0.001042,-0.01953125,0.009765625,-0.015625,1.070312,-2.617188,10.47656,-0.005859375,0.001953125,-0.02148438,0,-0.02148438,0,-0.006591797,0.007568359,-0.3621826,0,0,1.994751,0,4.012,0,0,0,0,nan,2,0.018,1,0,0.1000061,0.1000061,0.1000061,0.1000061,0,0,0,1,2,0
625.224,0.001016,-0.00390625,-0.0234375,-0.03710938,0.84375,3.75,13.89062,-0.001953125,-0.01171875,-0.03125,0,-0.02148438,0,-0.006591797,0.007568359,-0.3624268,0,0,1.994751,0,4.012,0,0,0,0,nan,2,0.028,1,0,0.1000061,0.1000061,0.1000061,0.1000061,0,0,0,1,2,0
625.233,0.001021,0.001953125,-0.01757812,-0.02734375,0.6484375,3.484375,16.97656,0,-0.005859375,-0.03125,0,-0.02148438,0,-0.006713867,0.007568359,-0.362793,0,0,1.994751,0,4.012,0,0,0,0,nan,2,0.037,1,0,0.1000061,0.1000061,0.1000061,0.1000061,0,0,0,1,2,0
625.243,0.00101,0.01953125,-0.015625,-0.009765625,-0.21875,-4.765625,6.375,0.00390625,-0.00390625,-0.01367188,0,-0.02148438,0,-0.006713867,0.007568359,-0.3630371,0,0,1.994751,0,4.012,0,0,0,0,nan,2,0.047,1,0,0.1000061,0.1000061,0.1000061,0.1000061,0,0,0,1,2,0
625.253,0.00101,0.00390625,0,-0.0078125,-0.015625,-0.375,5.140625,0.001953125,0,-0.005859375,0,-0.02148438,0,-0.006713867,0.007568359,-0.3630371,0,0,1.994751,0,4.012,0,0,0,0,nan,2,0.058,1,0,0.1000061,0.1000061,0.1000061,0.1000061,0,0,0,1,2,0
625.264,0.001007,0.009765625,0.015625,-0.03320312,-0.3046875,-4.007812,9.476562,0.005859375,0.001953125,-0.0234375,0,-0.02148438,0,-0.006591797,0.007568359,-0.3632812,0,0,-0.3632812,0,4.012,0,0,0,0,nan,2,0.068,0,0,0,0,0,0,0,0,0,1,2,1
625.274,0.001011,-0.01171875,0.001953125,-0.04882812,-0.4140625,4.226562,10.92188,-0.0078125,0.00390625,-0.04101562,0,-0.02148438,0,-0.006713867,0.007568359,-0.3635254,0,0,-0.3635254,0,4.012,0,0,0,0,nan,2,0.078,0,0,0,0,0,0,0,0,0,1,2,0
625.284,0.001014,-0.0078125,0.015625,-0.02148438,-0.8125,-2.054688,5.78125,-0.0078125,0.009765625,-0.03515625,0,-0.02148438,0,-0.006713867,0.007568359,-0.3640137,0,0,-0.3640137,0,4.012,0,0,0,0,nan,2,0.088,0,0,0,0,0,0,0,0,0,1,2,0
625.294,0.001005,0.005859375,0.01367188,0.03320312,2.476562,-1.679688,4.585938,0.001953125,0.0078125,0.0078125,0,-0.02148438,0,-0.006713867,0.007568359,-0.3641357,0,0,-0.3641357,0,4.012,0,0,0,0,nan,2,0.098,0,0,0,0,0,0,0,0,0,1,2,0
625.304,0.00102,0.001953125,0.015625,0.04101562,1.085938,-0.234375,8.046875,-0.001953125,0.00390625,0.0390625,0,-0.02148438,0,-0.006713867,0.00769043,-0.3638916,0,0,-0.3638916,0,4.012,0,0,0,0,nan,2,0.108,0,0,0,0,0,0,0,0,0,1,2,0
625.314,0.001013,0.005859375,0.01757812,0.001953125,0.9921875,-0.2578125,7.164062,0.005859375,-0.00390625,0.0234375,0,-0.02148438,0,-0.006713867,0.00769043,-0.3635254,0,0,-0.3635254,0,4.012,0,0,0,0,nan,2,0.118,0,0,0,0,0,0,0,0,0,1,2,0
625.324,0.00101,-0.00390625,-0.00390625,-0.0546875,0.9296875,2.679688,10.60156,-0.01171875,0.005859375,-0.03125,0,-0.02148438,0,-0.006835938,0.00769043,-0.3635254,0,0,-0.3635254,0,4.012,0,0,0,0,nan,2,0.128,0,0,0,0,0,0,0,0,0,1,2,0
625.333,0.000968,-0.005859375,0.015625,-0.05273438,0.3125,0.3671875,10.73438,-0.001953125,0.001953125,-0.05273438,0,-0.02148438,0,-0.006835938,0.007568359,-0.3640137,0,0,-0.3640137,0,4.012,0,0,0,0,nan,2,0.137,0,0,0,0,0,0,0,0,0,1,2,1
625.343,0.001001,0.02734375,0.01171875,0.01171875,-0.875,0.921875,9.9375,0.01171875,0.009765625,-0.015625,0,-0.02148438,0,-0.006713867,0.007568359,-0.3643799,0,0,-0.3643799,0,4.012,0,0,0,0,nan,2,0.147,0,0,0,0,0,0,0,0,0,1,2,1
625.354,0.001011,-0.01171875,0.04492188,0.04101562,1.679688,-0.8125,9.1875,-0.0078125,0.0234375,0.03515625,0,-0.02148438,0,-0.006591797,0.00769043,-0.3641357,0,0,-0.3641357,0,4.012,0,0,0,0,nan,2,0.158,0,0,0,0,0,0,0,0,0,1,2,1
625.364,0.001016,-0.02539062,-0.02734375,0.015625,0.984375,-0.71875,10.82031,0,-0.0078125,0.0234375,0,-0.02148438,0,-0.006469727,0.00769043,-0.3638916,0,0,-0.3638916,0,4.012,0,0,0,0,nan,2,0.168,0,0,0,0,0,0,0,0,0,1,2,0
625.374,0.00101,-0.01171875,0.09179688,-0.005859375,-0.0234375,0.1171875,10.75781,-0.0078125,0.02539062,0.00390625,0,-0.02148438,0,-0.006469727,0.00769043,-0.3637695,0,0,-0.3637695,0,4.012,0,0,0,0,nan,2,0.178,0,0,0,0,0,0,0,0,0,1,2,1
625.384,0.001011,-0.005859375,0,-0.03710938,0.4921875,-0.3515625,7.726562,0,-0.015625,-0.02734375,0,-0.02148438,0,-0.006469727,0.007568359,-0.3638916,0,0,-0.3638916,0,4.012,0,0,0,0,nan,2,0.188,0,0,0,0,0,0,0,0,0,1,2,0
625.394,0.001009,0.01953125,-0.01367188,-0.0625,-0.25,1,5.421875,0.0078125,-0.001953125,-0.05273438,0,-0.02148438,0,-0.006591797,0.007568359,-0.3642578,0,0,-0.3642578,0,4.012,0,0,0,0,nan,2,0.198,0,0,0,0,0,0,0,0,0,1,2,0
625.404,0.000997,0.0234375,0.02148438,0.001953125,0.890625,-0.1015625,12.26562,0.01171875,0.005859375,-0.02539062,0,-0.02148438,0,-0.006469727,0.00769043,-0.3647461,0,0,-0.3647461,0,4.012,0,0,0,0,nan,2,0.208,0,0,0,0,0,0,0,0,0,1,2,0
625.414,0.000996,-0.02148438,-0.05078125,0.04101562,-0.1796875,-0.734375,8.359375,-0.001953125,-0.0078125,0.02734375,0,-0.02148438,0,-0.006591797,0.00769043,-0.3647461,0,0,-0.3647461,0,4.012,0,0,0,0,nan,2,0.218,0,0,0,0,0,0,0,0,0,1,2,0
625.424,0.001004,0,0.04882812,0.0390625,0.4921875,0.3671875,12.41406,-0.009765625,-0.001953125,0.04296875,0,-0.02148438,0,-0.006591797,0.007568359,-0.3642578,0,0,-0.3642578,0,4.012,0,0,0,0,nan,2,0.228,0,0,0,0,0,0,0,0,0,1,2,0
625.433,0.000984,0.005859375,0.05273438,-0.015625,1.71875,-0.1640625,9.257812,-0.001953125,0.0078125,0.001953125,0,-0.02148438,0,-0.006591797,0.007568359,-0.3641357,0,0,-0.3641357,0,4.012,0,0,0,0,nan,2,0.237,0,0,0,0,0,0,0,0,0,1,2,1
625.443,0.001027,-0.009765625,0.0390625,-0.03125,0.3359375,-2.320312,15.53125,-0.001953125,0.009765625,-0.03125,0,-0.02148438,0,-0.006591797,0.007568359,-0.3642578,0,0,-0.3642578,0,4.012,0,0,0,0,nan,2,0.002,0,0,0,0,0,0,0,0,0,1,2,0
625.453,0.00102,-0.001953125,0.03320312,-0.01367188,0.2421875,-2.742188,11.13281,-0.0078125,0.0078125,-0.02539062,0,-0.02148438,0,-0.006591797,0.00769043,-0.364624,0,0,-0.364624,0,4.012,0,0,0,0,nan,2,0.012,0,0,0,0,0,0,0,0,0,1,2,0
625.463,0.001015,-0.02929688,-0.001953125,0.01367188,-2.195312,0.640625,11.48438,-0.001953125,0.001953125,0.009765625,0,-0.02148438,0,-0.006713867,0.00769043,-0.3647461,0,0,-0.3647461,0,4.012,0,0,0,0,nan,2,0.022,0,0,0,0,0,0,0,0,0,1,2,0
625.474,0.001015,0,0.04101562,0.02734375,-0.6796875,-0.6328125,13.50781,0.001953125,0.01171875,0.02929688,0,-0.02148438,0,-0.006713867,0.0078125,-0.364502,0,0,-0.364502,0,4.012,0,0,0,0,nan,2,0.032,0,0,0,0,0,0,0,0,0,1,2,0
625.484,0.001015,0.03125,0.0625,0.01953125,-0.203125,3.078125,12.48438,0.005859375,0.001953125,0.01757812,0,-0.02148438,0,-0.006591797,0.00769043,-0.3642578,0,0,-0.3642578,0,4.012,0,0,0,0,nan,2,0.042,0,0,0,0,0,0,0,0,0,1,2,0
625.494,0.001004,0.005859375,-0.04492188,-0.02734375,0.671875,1.054688,5.539062,-0.001953125,-0.009765625,-0.009765625,0,-0.02148438,0,-0.006591797,0.00769043,-0.3641357,0,0,-0.3641357,0,4.012,0,0,0,0,nan,2,0.053,0,0,0,0,0,0,0,0,0,1,2,0
625.504,0.000981,-0.01757812,0.00390625,-0.005859375,-1.179688,-3.273438,7.960938,0.001953125,0.00390625,-0.01757812,0,-0.02148438,0,-0.006591797,0.00769043,-0.3643799,0,0,-0.3643799,0,4.012,0,0,0,0,nan,2,0.063,0,0,0,0,0,0,0,0,0,1,2,0
625.514,0.001006,0.02539062,-0.03515625,-0.005859375,1.476562,5.171875,11.96094,0.001953125,-0.01171875,-0.00390625,0,-0.02148438,0,-0.006469727,0.007568359,-0.364502,0,0,-0.364502,0,4.073,0,0,0,0,nan,2,0.073,0,0,0,0,0,0,0,0,0,1,2,0
625.524,0.00101,-0.01171875,0.04296875,0.02539062,0.546875,-3.867188,12.85938,-0.00390625,-0.001953125,0.009765625,0,-0.02148438,0,-0.006469727,0.007446289,-0.3643799,0,0,-0.3643799,0,4.073,0,0,0,0,nan,2,0.083,0,0,0,0,0,0,0,0,0,1,2,0
625.534,0.001006,-0.03710938,0.01367188,-0.03125,-1.90625,0.5234375,7.03125,-0.01171875,0.005859375,-0.009765625,0,-0.02148438,0,-0.006591797,0.007446289,-0.3643799,0,0,-0.3643799,0,4.073,0,0,0,0,nan,2,0.093,0,0,0,0,0,0,0,0,0,1,2,0
625.544,0.00101,-0.01367188,-0.03320312,-0.03515625,-0.6171875,2.625,5.898438,-0.005859375,0.001953125,-0.015625,0,-0.02148438,0,-0.006591797,0.007446289,-0.364624,0,0,-0.364624,0,4.073,0,0,0,0,nan,2,0.103,0,0,0,0,0,0,0,0,0,1,2,0
625.553,0.001006,0,-0.01171875,-0.00390625,-0.3046875,2.835938,7.046875,-0.00390625,-0.001953125,-0.001953125,0,-0.02148438,0,-0.006591797,0.007446289,-0.364624,0,0,-0.364624,0,4.073,0,0,0,0,nan,2,0.112,0,0,0,0,0,0,0,0,0,1,2,0
625.563,0.00101,-0.01757812,-0.03710938,-0.01953125,2.671875,-0.4296875,11.1875,0,-0.01367188,-0.0078125,0,-0.02148438,0,-0.006469727,0.007324219,-0.364624,0,0,-0.364624,0,4.073,0,0,0,0,nan,2,0.122,0,0,0,0,0,0,0,0,0,1,2,0
625.574,0.00101,0.00390625,-0.06640625,-0.015625,4.109375,-0.484375,10.47656,-0.001953125,-0.009765625,-0.01757812,0,-0.02148438,0,-0.006469727,0.007324219,-0.3648682,0,0,-0.3648682,0,4.073,0,0,0,0,nan,2,0.132,0,0,0,0,0,0,0,0,0,1,2,0
625.584,0.001014,-0.02539062,-0.04296875,0.00390625,0.1953125,-2.03125,8.265625,-0.005859375,0,0.00390625,0,-0.02148438,0,-0.006469727,0.007446289,-0.3648682,0,0,-0.3648682,0,4.073,0,0,0,0,nan,2,0.142,0,0,0,0,0,0,0,0,0,1,2,0
625.594,0.001012,0.0390625,-0.015625,0.02734375,-1.648438,1.226562,8.5625,0.009765625,0,0.01171875,0,-0.02148438,0,-0.006469727,0.007446289,-0.3647461,0,0,-0.3647461,0,4.073,0,0,0,0,nan,2,0.153,0,0,0,0,0,0,0,0,0,1,2,0
625.604,0.00101,-0.01757812,0.06640625,-0.03125,-3.773438,-1.515625,10.32812,-0.009765625,0.009765625,-0.015625,0,-0.02148438,0,-0.006469727,0.007446289,-0.3648682,0,0,-0.3648682,0,4.073,0,0,0,0,nan,2,0.163,0,0,0,0,0,0,0,0,0,1,2,0
625.614,0.001007,0.0234375,-0.009765625,-0.03320312,3.898438,3.164062,10.92188,0.005859375,-0.001953125,-0.02734375,0,-0.02148438,0,-0.006591797,0.007568359,-0.3649902,0,0,-0.3649902,0,4.073,0,0,0,0,nan,2,0.173,0,0,0,0,0,0,0,0,0,1,2,0
625.624,0.001009,0.00390625,-0.04492188,0.02148438,-0.1953125,-1.21875,9.171875,0,-0.005859375,-0.0078125,0,-0.02148438,0,-0.006469727,0.007568359,-0.3652344,0,0,-0.3652344,0,4.073,0,0,0,0,nan,2,0.183,0,0,0,0,0,0,0,0,0,1,2,1
625.634,0.001019,0.001953125,0.02148438,-0.001953125,-0.84375,2.117188,10.51562,0.005859375,-0.00390625,0.009765625,0,-0.02148438,0,-0.006469727,0.007568359,-0.3652344,0,0,-0.3652344,0,4.073,0,0,0,0,nan,2,0.193,0,0,0,0,0,0,0,0,0,1,2,1
625.643,0.001006,-0.078125,0.0390625,0.009765625,-1.289062,0.78125,9.023438,-0.001953125,0.0078125,0.009765625,0,-0.02148438,0,-0.006469727,0.007568359,-0.3651123,0,0,-0.3651123,0,4.073,0,0,0,0,nan,2,0.002,0,0,0,0,0,0,0,0,0,1,2,1
625.653,0.00101,0,-0.02148438,0.02148438,0.90625,-1.140625,9.8125,-0.0078125,0.001953125,0.009765625,0,-0.02148438,0,-0.006347656,0.007568359,-0.3649902,0,0,-0.3649902,0,4.073,0,0,0,0,nan,2,0.012,0,0,0,0,0,0,0,0,0,1,2,1
625.663,0.001006,-0.02539062,0.03515625,-0.001953125,-1.164062,1.476562,9.921875,0.01171875,-0.00390625,0.001953125,0,-0.02148438,0,-0.006225586,0.007446289,-0.3649902,0,0,-0.3649902,0,4.073,0,0,0,0,nan,2,0.022,0,0,0,0,0,0,0,0,0,1,2,1
625.674,0.00101,-0.1074219,0.03125,0.01757812,-1.78125,0.375,9.710938,-0.009765625,0.005859375,0.00390625,0,-0.02148438,0,-0.006225586,0.007446289,-0.3649902,0,0,-0.3649902,0,4.073,0,0,0,0,nan,2,0.032,0,0,0,0,0,0,0,0,0,1,2,1
625.684,0.00101,-0.06640625,0.00390625,0.01757812,-0.890625,-0.375,9.539062,-0.01757812,0.001953125,0,0,-0.02148438,0,-0.006103516,0.007324219,-0.3649902,0,0,-0.3649902,0,4.073,0,0,0,0,nan,2,0.042,0,0,0,0,0,0,0,0,0,1,2,1
625.694,0.001006,-0.01953125,0,0.0234375,-0.234375,-0.0234375,9.96875,-0.01171875,0.001953125,0,0,-0.02148438,0,-0.006103516,0.007324219,-0.3649902,0,0,-0.3649902,0,4.073,0,0,0,0,nan,2,0.053,0,0,0,0,0,0,0,0,0,1,2,1
625.704,0.001009,0,-0.04492188,0.0390625,0.0234375,-0.109375,10.5,-0.00390625,-0.009765625,0.00390625,0,-0.02148438,0,-0.006103516,0.007202148,-0.3649902,0,0,-0.3649902,0,4.073,0,0,0,0,nan,2,0.063,0,0,0,0,0,0,0,0,0,1,2,1
625.714,0.001012,-0.009765625,-0.04492188,0.01367188,-0.3828125,-0.1796875,10.07812,-0.005859375,0,0,0,-0.02148438,0,-0.006103516,0.007202148,-0.3649902,0,0,-0.3649902,0,4.073,0,0,0,0,nan,2,0.073,0,0,0,0,0,0,0,0,0,1,2,1
625.724,0.001009,-0.009765625,-0.015625,-0.0078125,0.2109375,0.6015625,9.460938,0,-0.001953125,-0.0078125,0,-0.02148438,0,-0.005981445,0.007080078,-0.3649902,0,0,-0.3649902,0,4.073,0,0,0,0,nan,2,0.083,0,0,0,0,0,0,0,0,0,1,2,1
625.734,0.00101,-0.01757812,0.001953125,-0.03515625,0.453125,1.671875,9.210938,0,0.001953125,-0.001953125,0,-0.02148438,0,-0.005981445,0.007080078,-0.3649902,0,0,-0.3649902,0,4.073,0,0,0,0,nan,2,0.093,0,0,0,0,0,0,0,0,0,1,2,1
625.743,0.00101,0.0078125,0.005859375,0.02148438,-0.3984375,-1.726562,10.28906,-0.00390625,0,0.005859375,0,-0.02148438,0,-0.005859375,0.007080078,-0.3649902,0,0,-0.3649902,0,4.073,0,0,0,0,nan,2,0.102,0,0,0,0,0,0,0,0,0,1,2,1
625.753,0.000963,-0.01953125,-0.02734375,0,0.40625,0.4453125,9.664062,-0.0078125,-0.00390625,-0.0078125,0,-0.02148438,0,-0.005859375,0.007080078,-0.3649902,0,0,-0.3649902,0,4.073,0,0,0,0,nan,2,0.112,0,0,0,0,0,0,0,0,0,1,2,1
625.764,0.00101,-0.01171875,-0.03125,-0.005859375,0.2265625,1.234375,9.492188,0.00390625,-0.0078125,-0.001953125,0,-0.02148438,0,-0.005859375,0.006958008,-0.3649902,0,0,-0.3649902,0,4.073,0,0,0,0,nan,2,0.122,0,0,0,0,0,0,0,0,0,1,2,1
625.774,0.00101,0.005859375,-0.01171875,0.00390625,0.2265625,-1.445312,9.6875,0,0,0.005859375,0,-0.02148438,0,-0.005737305,0.006958008,-0.3649902,0,0,-0.3649902,0,4.073,0,0,0,0,nan,2,0.132,0,0,0,0,0,0,0,0,0,1,2,1
625.784,0.00101,-0.01171875,-0.009765625,-0.01953125,0.015625,0.7890625,10.20312,0,0.001953125,-0.009765625,0,-0.02148438,0,-0.005737305,0.006958008,-0.3649902,0,0,-0.3649902,0,4.073,0,0,0,0,nan,2,0.142,0,0,0,0,0,0,0,0,0,1,2,1
625.794,0.00101,0.0078125,0.0078125,0.03710938,-0.5859375,-0.84375,9.992188,-0.005859375,0.001953125,0.01171875,0,-0.02148438,0,-0.005737305,0.006835938,-0.3649902,0,0,-0.3649902,0,4.073,0,0,0,0,nan,2,0.152,0,0,0,0,0,0,0,0,0,1,2,1
625.804,0.001011,0.005859375,0.009765625,-0.04492188,0.1015625,0.234375,9.5,0.001953125,0,-0.0078125,0,-0.02148438,0,-0.005737305,0.006835938,-0.3648682,0,0,-0.3648682,0,4.073,0,0,0,0,nan,2,0.163,0,0,0,0,0,0,0,0,0,1,2,1
625.814,0.00101,-0.01171875,0.0234375,0.0078125,0.1328125,0.234375,10.25781,-0.005859375,0.0078125,-0.0078125,0,-0.02148438,0,-0.005615234,0.006835938,-0.3649902,0,0,-0.3649902,0,4.073,0,0,0,0,nan,2,0.173,0,0,0,0,0,0,0,0,0,1,2,1
625.824,0.000996,0.01171875,-0.00390625,0.04296875,-0.171875,-0.015625,10.11719,0.00390625,0,0.01171875,0,-0.02148438,0,-0.005615234,0.006835938,-0.3648682,0,0,-0.3648682,0,4.073,0,0,0,0,nan,2,0.183,0,0,0,0,0,0,0,0,0,1,2,1
625.834,0.00101,0.009765625,-0.009765625,-0.0234375,-0.1875,-0.1796875,9.3125,0,-0.00390625,0.001953125,0,-0.02148438,0,-0.005493164,0.006835938,-0.3648682,0,0,-0.3648682,0,4.073,0,0,0,0,nan,2,0.193,0,0,0,0,0,0,0,0,0,1,2,1
625.844,0.001011,0,-0.01367188,-0.03320312,-0.1796875,-0.3828125,10.04688,0.001953125,-0.00390625,-0.005859375,0,-0.02148438,0,-0.005493164,0.006713867,-0.3648682,0,0,-0.3648682,0,4.073,0,0,0,0,nan,2,0.203,0,0,0,0,0,0,0,0,0,1,2,1
625.853,0.000971,0.001953125,-0.00390625,-0.0234375,-0.2109375,0.03125,10.13281,0.001953125,0,-0.01171875,0,-0.02148438,0,-0.005493164,0.006713867,-0.3649902,0,0,-0.3649902,0,4.073,0,0,0,0,nan,2,0.007,0,0,0,0,0,0,0,0,0,1,2,1
625.864,0.001058,0,-0.001953125,0.03125,-0.046875,-0.2421875,9.8125,0,-0.001953125,0.0078125,0,-0.02148438,0,-0.005493164,0.006713867,-0.3649902,0,0,-0.3649902,0,4.073,0,0,0,0,nan,2,0.017,0,0,0,0,0,0,0,0,0,1,2,1
625.874,0.00101,0.005859375,-0.001953125,-0.0078125,-0.0859375,-0.078125,9.671875,0,0,0.00390625,0,-0.02148438,0,-0.005371094,0.006713867,-0.3648682,0,0,-0.3648682,0,4.073,0,0,0,0,nan,2,0.027,0,0,0,0,0,0,0,0,0,1,2,1
625.884,0.00101,-0.001953125,-0.005859375,-0.015625,-0.1796875,-0.1640625,9.671875,-0.001953125,-0.001953125,0.001953125,0,-0.02148438,0,-0.005371094,0.006591797,-0.3649902,0,0,-0.3649902,0,4.073,0,0,0,0,nan,2,0.037,0,0,0,0,0,0,0,0,0,1,2,1
625.894,0.00101,-0.001953125,-0.005859375,-0.005859375,-0.4765625,-0.0078125,9.859375,0,-0.00390625,-0.00390625,0,-0.02148438,0,-0.005371094,0.006591797,-0.3649902,0,0,-0.3649902,0,4.073,0,0,0,0,nan,2,0.047,0,0,0,0,0,0,0,0,0,1,2,1
625.904,0.001007,-0.001953125,0.00390625,0.009765625,0.234375,-0.390625,9.921875,0,0.005859375,-0.00390625,0,-0.02148438,0,-0.005371094,0.006591797,-0.3649902,0,0,-0.3649902,0,4.073,0,0,0,0,nan,2,0.058,0,0,0,0,0,0,0,0,0,1,2,1
625.914,0.001006,-0.00390625,0.01367188,0.02148438,-0.015625,-0.03125,9.90625,0,0.00390625,0.009765625,0,-0.02148438,0,-0.005249023,0.006591797,-0.3649902,0,0,-0.3649902,0,4.073,0,0,0,0,nan,2,0.068,0,0,0,0,0,0,0,0,0,1,2,1
625.924,0.001011,0.001953125,-0.001953125,-0.00390625,-0.2265625,0.2265625,9.6875,-0.001953125,-0.001953125,0,0,-0.02148438,0,-0.005249023,0.006469727,-0.3648682,0,0,-0.3648682,0,4.073,0,0,0,0,nan,2,0.078,0,0,0,0,0,0,0,0,0,1,2,1
625.934,0.00101,-0.0078125,0,-0.015625,0.1328125,0.046875,10.125,-0.00390625,0.001953125,-0.00390625,0,-0.02148438,0,-0.005249023,0.006469727,-0.3648682,0,0,-0.3648682,0,4.073,0,0,0,0,nan,2,0.088,0,0,0,0,0,0,0,0,0,1,2,1
625.944,0.00101,0.005859375,0.005859375,0.00390625,0.109375,-0.09375,9.789062,0.001953125,0.00390625,-0.001953125,0,-0.02148438,0,-0.005249023,0.006469727,-0.3649902,0,0,-0.3649902,0,4.073,0,0,0,0,nan,2,0.098,0,0,0,0,0,0,0,0,0,1,2,1
625.953,0.001005,-0.01171875,-0.001953125,0.005859375,-0.0625,-0.2265625,9.8125,-0.001953125,-0.001953125,-0.001953125,0,-0.02148438,0,-0.005249023,0.006469727,-0.3648682,0,0,-0.3648682,0,4.073,0,0,0,0,nan,2,0.107,0,0,0,0,0,0,0,0,0,1,2,1
625.963,0.00101,0.00390625,0.00390625,0.005859375,0.1015625,0.125,9.96875,0,0.00390625,0.00390625,0,-0.02148438,0,-0.005126953,0.006347656,-0.3648682,0,0,-0.3648682,0,4.073,0,0,0,0,nan,2,0.117,0,0,0,0,0,0,0,0,0,1,2,1
625.974,0.00101,-0.0078125,-0.009765625,-0.01953125,0.046875,-0.1015625,9.859375,-0.001953125,-0.00390625,-0.005859375,0,-0.02148438,0,-0.005126953,0.006347656,-0.3648682,0,0,-0.3648682,0,4.073,0,0,0,0,nan,2,0.127,0,0,0,0,0,0,0,0,0,1,2,1
625.984,0.00101,0.00390625,0.0078125,0.00390625,0.078125,0.1328125,9.789062,-0.001953125,0.00390625,-0.001953125,0,-0.02148438,0,-0.005126953,0.006347656,-0.3649902,0,0,-0.3649902,0,4.073,0,0,0,0,nan,2,0.137,0,0,0,0,0,0,0,0,0,1,2,1
625.994,0.00101,-0.005859375,-0.0078125,0.00390625,0.078125,-0.1875,9.8125,0,0,0.00390625,0,-0.02148438,0,-0.005004883,0.006225586,-0.3648682,0,0,-0.3648682,0,4.073,0,0,0,0,nan,2,0.147,0,0,0,0,0,0,0,0,0,1,2,1
626.004,0.001008,-0.00390625,0.005859375,-0.001953125,-0.125,0.0703125,9.773438,-0.00390625,-0.001953125,-0.005859375,0,-0.02148438,0,-0.005004883,0.006225586,-0.3649902,0,0,-0.3649902,0,4.073,0,0,0,0,nan,2,0.158,0,0,0,0,0,0,0,0,0,1,2,1
626.014,0.001005,0,-0.00390625,0.009765625,0.015625,-0.09375,9.820312,0.001953125,0,0.00390625,0,-0.02148438,0,-0.005004883,0.006225586,-0.3649902,0,0,-0.3649902,0,4.073,0,0,0,0,nan,2,0.168,0,0,0,0,0,0,0,0,0,1,2,1
626.024,0.001001,-0.001953125,0.005859375,-0.0078125,-0.140625,0.109375,9.742188,-0.001953125,-0.001953125,0.001953125,0,-0.02148438,0,-0.005004883,0.006225586,-0.3648682,0,0,-0.3648682,0,4.073,0,0,0,0,nan,2,0.178,0,0,0,0,0,0,0,0,0,1,2,1
626.034,0.001002,0.001953125,-0.001953125,-0.005859375,0.15625,0.015625,9.90625,0.001953125,0.001953125,-0.005859375,0,-0.02148438,0,-0.004882812,0.006225586,-0.3649902,0,0,-0.3649902,0,4.073,0,0,0,0,nan,2,0.188,0,0,0,0,0,0,0,0,0,1,2,1
626.044,0.001002,-0.00390625,0,0.009765625,-0.125,0.0703125,9.773438,-0.00390625,-0.001953125,0.005859375,0,-0.02148438,0,-0.004882812,0.006103516,-0.3649902,0,0,-0.3649902,0,4.073,0,0,0,0,nan,2,0.198,0,0,0,0,0,0,0,0,0,1,2,1
626.053,0.001016,0,0.001953125,0,0.1328125,0.0234375,9.789062,0,0.00390625,0,0,-0.02148438,0,-0.004882812,0.006103516,-0.3648682,0,0,-0.3648682,0,4.073,0,0,0,0,nan,2,0.207,0,0,0,0,0,0,0,0,0,1,2,1
626.064,0.00106,-0.00390625,0,-0.001953125,-0.0625,0.046875,9.828125,-0.001953125,-0.001953125,-0.001953125,0,-0.02148438,0,-0.004760742,0.006103516,-0.3649902,0,0,-0.3649902,0,4.073,0,0,0,0,nan,2,0.217,0,0,0,0,0,0,0,0,0,1,2,1
626.074,0.00102,0,0.005859375,0,0.09375,0.0078125,9.828125,0,0.00390625,0.001953125,0,-0.02148438,0,-0.004760742,0.006103516,-0.3648682,0,0,-0.3648682,0,4.073,0,0,0,0,nan,2,0.227,0,0,0,0,0,0,0,0,0,1,2,1
626.084,0.00102,0,-0.005859375,0,-0.0546875,0.078125,9.8125,0,-0.001953125,0,0,-0.02148438,0,-0.004760742,0.005981445,-0.3648682,0,0,-0.3648682,0,4.073,0,0,0,0,nan,2,0.237,0,0,0,0,0,0,0,0,0,1,2,1
626.094,0.001003,0,0.005859375,0.00390625,0.046875,0.0546875,9.804688,-0.001953125,0.00390625,0.001953125,0,-0.02148438,0,-0.004760742,0.005981445,-0.3648682,0,0,-0.3648682,0,4.073,0,0,0,0,nan,2,0.008,0,0,0,0,0,0,0,0,0,1,2,1
626.104,0.001033,0.001953125,-0.00390625,0.001953125,0.0078125,0.0390625,9.796875,-0.001953125,0,0.001953125,0,-0.02148438,0,-0.004638672,0.005981445,-0.3648682,0,0,-0.3648682,0,4.073,0,0,0,0,nan,2,0.018,0,0,0,0,0,0,0,0,0,1,2,1
626.114,0.001003,0,-0.001953125,-0.00390625,0.015625,0.03125,9.820312,-0.001953125,0,-0.001953125,0,-0.02148438,0,-0.004638672,0.005981445,-0.3648682,0,0,-0.3648682,0,4.073,0,0,0,0,nan,2,0.028,0,0,0,0,0,0,0,0,0,1,2,1
626.124,0.001002,0,-0.001953125,0.001953125,0.0234375,0.0234375,9.851562,0,0,0,0,-0.02148438,0,-0.004638672,0.005859375,-0.3649902,0,0,-0.3649902,0,4.073,0,0,0,0,nan,2,0.038,0,0,0,0,0,0,0,0,0,1,2,1
626.134,0.000994,0.001953125,0.005859375,0.00390625,-0.0546875,0.0234375,9.789062,0.001953125,0.001953125,0,0,-0.02148438,0,-0.004516602,0.005859375,-0.3648682,0,0,-0.3648682,0,4.073,0,0,0,0,nan,2,0.048,0,0,0,0,0,0,0,0,0,1,2,1
626.144,0.001003,0.001953125,-0.001953125,0,0.0546875,0.0390625,9.875,0,0.001953125,0,0,-0.02148438,0,-0.004516602,0.005859375,-0.3648682,0,0,-0.3648682,0,4.073,0,0,0,0,nan,2,0.059,0,0,0,0,0,0,0,0,0,1,2,1
626.153,0.001016,0,-0.001953125,0.001953125,-0.0390625,0.0234375,9.835938,0,-0.001953125,0.001953125,0,-0.02148438,0,-0.004516602,0.005859375,-0.3648682,0,0,-0.3648682,0,4.073,0,0,0,0,nan,2,0.068,0,0,0,0,0,0,0,0,0,1,2,1
626.163,0.001015,0,-0.001953125,-0.001953125,0.03125,0.03125,9.757812,0,0,0,0,-0.02148438,0,-0.004516602,0.005859375,-0.3648682,0,0,-0.3648682,0,4.076,0,0,0,0,nan,2,0.078,0,0,0,0,0,0,0,0,0,1,2,1
626.174,0.00101,0,0,0.001953125,-0.0546875,0.046875,9.867188,-0.001953125,0,-0.001953125,0,-0.02148438,0,-0.004394531,0.005859375,-0.3649902,0,0,-0.3649902,0,4.076,0,0,0,0,nan,2,0.088,0,0,0,0,0,0,0,0,0,1,2,1
626.184,0.00101,0,0.001953125,0,0.078125,0.015625,9.757812,-0.001953125,0.001953125,0,0,-0.02148438,0,-0.004394531,0.005737305,-0.3649902,0,0,-0.3649902,0,4.076,0,0,0,0,nan,2,0.098,0,0,0,0,0,0,0,0,0,1,2,1
626.194,0.00101,0,0.00390625,0,0.0078125,0.0390625,9.828125,0,0.001953125,0,0,-0.02148438,0,-0.004394531,0.005737305,-0.3649902,0,0,-0.3649902,0,4.076,0,0,0,0,nan,2,0.108,0,0,0,0,0,0,0,0,0,1,2,1
626.204,0.001013,0.001953125,0.001953125,-0.001953125,0.015625,-0.0078125,9.84375,-0.001953125,0.001953125,0,0,-0.02148438,0,-0.004394531,0.005737305,-0.3648682,0,0,-0.3648682,0,4.076,0,0,0,0,nan,2,0.118,0,0,0,0,0,0,0,0,0,1,2,1
626.214,0.001009,0,-0.001953125,-0.00390625,-0.015625,0.078125,9.8125,0,0,-0.001953125,0,-0.02148438,0,-0.004272461,0.005737305,-0.3648682,0,0,-0.3648682,0,4.076,0,0,0,0,nan,2,0.128,0,0,0,0,0,0,0,0,0,1,2,1
626.224,0.00101,-0.001953125,0.00390625,0.001953125,0,0.0625,9.789062,-0.001953125,0,0,0,-0.02148438,0,-0.004272461,0.005737305,-0.3648682,0,0,-0.3648682,0,4.076,0,0,0,0,nan,2,0.138,0,0,0,0,0,0,0,0,0,1,2,1
626.234,0.00101,0.001953125,0.001953125,0.001953125,0.015625,0.03125,9.84375,0,0,0.001953125,0,-0.02148438,0,-0.004272461,0.005737305,-0.3648682,0,0,-0.3648682,0,4.076,0,0,0,0,nan,2,0.148,0,0,0,0,0,0,0,0,0,1,2,1
626.244,0.00101,-0.00390625,0.00390625,0,-0.0078125,0.0234375,9.820312,-0.001953125,0.001953125,0,0,-0.02148438,0,-0.004150391,0.005615234,-0.3648682,0,0,-0.3648682,0,4.076,0,0,0,0,nan,2,0.159,0,0,0,0,0,0,0,0,0,1,2,1
626.253,0.00101,-0.001953125,0,0.001953125,0.0078125,0.0625,9.796875,-0.001953125,0,0,0,-0.02148438,0,-0.004150391,0.005615234,-0.3648682,0,0,-0.3648682,0,4.076,0,0,0,0,nan,2,0.168,0,0,0,0,0,0,0,0,0,1,2,1
