time_us,gyro_x_rad_s,gyro_y_rad_s,gyro_z_rad_s,acc_x_m_s2,acc_y_m_s2,acc_z_m_s2
46019672,0.003080,-0.003537,-0.001755,0.02,-0.22,9.87
46020432,0.000949,-0.001407,-0.001755,0.04,-0.24,9.93
46021377,-0.000116,0.000724,-0.002820,0.03,-0.25,9.91
46022380,-0.001181,0.002854,-0.001755,0.03,-0.26,9.84
46023396,-0.001181,0.001789,-0.000690,0.02,-0.25,9.82
46024400,-0.000116,0.001789,-0.000690,-0.01,-0.26,9.88
46025410,0.000949,0.001789,-0.000690,0.01,-0.23,9.89
46026420,0.002015,0.001789,-0.000690,-0.01,-0.23,9.90
46027435,-0.000116,0.001789,-0.001755,-0.02,-0.27,9.91
46028475,-0.002246,0.002854,-0.002820,0.00,-0.25,9.88
46029450,-0.002246,0.001789,-0.001755,0.01,-0.24,9.88
46030460,-0.000116,0.001789,-0.000690,0.03,-0.25,9.85
46031470,-0.000116,0.001789,-0.001755,0.01,-0.23,9.79
46032487,-0.000116,0.000724,-0.000690,0.03,-0.25,9.78
46033499,-0.001181,-0.001407,-0.001755,0.04,-0.27,9.82
46034500,-0.002246,-0.001407,-0.001755,0.00,-0.24,9.85
46035510,-0.001181,-0.002472,-0.001755,0.01,-0.23,9.86
46036520,-0.002246,-0.002472,-0.001755,0.02,-0.23,9.85
46037537,-0.003312,-0.002472,-0.001755,0.01,-0.21,9.84
46038540,-0.001181,-0.000342,-0.000690,0.02,-0.23,9.88
46039545,0.000949,0.001789,0.003572,-0.01,-0.25,9.88
46040555,-0.000116,0.001789,0.003572,-0.04,-0.25,9.86
46041565,-0.002246,0.001789,0.000376,-0.01,-0.23,9.86
46042591,-0.002246,0.002854,-0.003885,0.01,-0.23,9.84
46043586,-0.002246,0.002854,-0.003885,0.04,-0.24,9.86
46044606,-0.002246,0.002854,0.000376,0.02,-0.25,9.88
46045613,-0.002246,0.001789,0.003572,0.00,-0.25,9.85
46046621,-0.001181,-0.000342,0.003572,0.03,-0.25,9.86
46047644,-0.001181,-0.000342,0.000376,0.01,-0.25,9.85
46048642,0.000949,0.000724,-0.000690,-0.01,-0.23,9.82
46049659,0.000949,0.000724,-0.000690,0.00,-0.23,9.85
46050663,0.000949,-0.000342,0.000376,0.00,-0.27,9.85
46051682,0.003080,-0.001407,0.000376,0.00,-0.30,9.81
46052705,0.004145,-0.001407,-0.000690,0.00,-0.28,9.78
46053696,0.004145,-0.000342,-0.001755,0.03,-0.28,9.83
46054709,0.002015,0.001789,-0.002820,0.02,-0.29,9.86
46055712,0.002015,0.000724,-0.001755,0.00,-0.25,9.85
46056732,0.000949,-0.002472,-0.001755,0.01,-0.25,9.85
46057744,0.002015,-0.001407,-0.000690,0.04,-0.25,9.88
46058747,0.004145,0.001789,-0.000690,0.04,-0.26,9.85
46059756,0.003080,0.001789,-0.001755,-0.01,-0.28,9.81
46060765,-0.000116,0.000724,-0.000690,-0.03,-0.25,9.87
46061772,-0.001181,0.000724,0.000376,-0.01,-0.25,9.86
46062794,-0.002246,0.002854,0.000376,0.00,-0.28,9.85
46063788,-0.002246,0.003920,-0.000690,0.00,-0.26,9.86
46064797,-0.001181,0.003920,-0.000690,0.01,-0.25,9.84
46065808,-0.000116,0.000724,0.000376,0.00,-0.26,9.86
46066820,0.000949,-0.000342,0.001441,-0.03,-0.28,9.87
46067835,-0.000116,-0.000342,0.001441,-0.02,-0.27,9.83
46068838,-0.002246,0.000724,0.001441,-0.02,-0.25,9.84
46069845,-0.001181,0.000724,0.001441,-0.04,-0.29,9.84
46070855,0.000949,0.001789,0.000376,-0.03,-0.28,9.88
46071865,0.000949,0.001789,-0.000690,0.00,-0.25,9.89
46072891,0.002015,0.000724,0.000376,0.01,-0.25,9.86
46073885,0.002015,-0.001407,-0.000690,-0.01,-0.24,9.83
46074895,-0.000116,-0.000342,-0.002820,-0.02,-0.24,9.81
46075905,-0.000116,0.001789,-0.001755,0.00,-0.21,9.80
46076915,-0.001181,0.002854,0.000376,0.01,-0.23,9.80
46077934,-0.001181,0.000724,-0.000690,0.01,-0.24,9.80
46078935,-0.002246,-0.000342,-0.001755,0.01,-0.23,9.79
46079945,-0.001181,-0.000342,-0.002820,0.01,-0.22,9.79
46080955,0.000949,-0.001407,0.000376,0.01,-0.24,9.84
46081965,0.000949,-0.000342,0.001441,-0.02,-0.28,9.87
46082989,-0.001181,0.001789,0.001441,-0.02,-0.28,9.84
46083985,-0.001181,0.001789,0.000376,0.01,-0.26,9.81
46084995,0.003080,0.001789,-0.001755,0.00,-0.25,9.82
46086005,0.005211,0.002854,-0.002820,-0.02,-0.26,9.80
46087015,0.003080,0.000724,-0.001755,0.00,-0.22,9.83
46088031,0.003080,0.000724,-0.000690,0.00,-0.25,9.82
46089035,0.000949,0.001789,-0.000690,0.02,-0.25,9.83
46090045,0.000949,0.002854,-0.001755,0.00,-0.24,9.85
46091055,0.002015,0.002854,0.000376,-0.02,-0.27,9.84
46092065,0.003080,0.002854,0.000376,0.03,-0.30,9.85
46093091,0.002015,0.001789,0.000376,0.05,-0.27,9.84
46094085,-0.000116,-0.000342,0.000376,0.02,-0.23,9.82
46095095,-0.001181,-0.001407,0.000376,-0.01,-0.24,9.82
46096105,0.002015,-0.001407,0.000376,-0.01,-0.27,9.82
46097115,0.002015,0.000724,0.001441,0.02,-0.26,9.82
46098134,0.000949,0.002854,0.001441,0.02,-0.26,9.82
46099135,-0.000116,0.004985,0.001441,0.03,-0.25,9.80
46100145,-0.000116,0.002854,0.001441,0.04,-0.24,9.82
46101155,0.000949,-0.000342,0.001441,0.01,-0.25,9.85
46102165,-0.000116,-0.003537,0.001441,0.00,-0.27,9.80
46103189,0.000949,-0.002472,0.001441,0.02,-0.27,9.81
46104185,0.003080,-0.000342,0.001441,0.00,-0.26,9.82
46105195,0.000949,0.000724,-0.001755,0.00,-0.24,9.82
46106205,0.000949,0.001789,-0.001755,-0.01,-0.22,9.87
46107215,0.000949,0.000724,0.001441,-0.01,-0.22,9.87
46108231,0.000949,0.000724,0.002506,0.01,-0.25,9.82
46109235,-0.002246,0.000724,0.001441,0.02,-0.26,9.82
46110245,-0.003312,0.001789,0.000376,0.01,-0.27,9.84
46111255,-0.002246,0.002854,0.000376,-0.01,-0.27,9.81
46112265,0.000949,0.001789,0.002506,-0.01,-0.26,9.80
46113291,0.002015,0.001789,0.003572,-0.02,-0.26,9.79
46114285,0.003080,0.001789,0.001441,0.00,-0.28,9.80
46115295,0.003080,0.000724,-0.001755,0.01,-0.26,9.78
46116305,0.003080,0.000724,-0.003885,-0.01,-0.23,9.77
46117345,0.001981,-0.000386,-0.004923,0.01,-0.24,9.77
46118334,-0.000150,-0.000386,-0.001727,0.05,-0.24,9.80
46119335,-0.000150,-0.000386,-0.000662,0.03,-0.27,9.83
46120345,0.000915,-0.002516,0.000404,-0.02,-0.29,9.85
46121355,0.001981,-0.003581,0.000404,0.01,-0.26,9.85
46122365,0.001981,-0.004647,0.000404,0.03,-0.26,9.82
46123389,-0.001215,-0.002516,0.001469,0.03,-0.28,9.79
46124392,-0.001215,-0.001451,0.001469,0.02,-0.29,9.76
46125395,-0.000150,-0.002516,0.000404,0.01,-0.32,9.82
46126405,-0.001215,-0.002516,-0.000662,0.00,-0.31,9.85
46127415,-0.005476,-0.001451,-0.000662,0.01,-0.27,9.80
46128431,-0.008672,-0.000386,-0.000662,0.03,-0.27,9.84
46129435,-0.006542,-0.000386,-0.000662,0.04,-0.26,9.88
46130445,-0.003346,-0.000386,-0.000662,0.02,-0.23,9.84
46131455,-0.001215,-0.000386,-0.000662,-0.02,-0.24,9.82
46132465,-0.000150,0.000680,-0.002792,-0.02,-0.24,9.82
46133491,-0.001215,-0.001451,-0.003858,0.01,-0.22,9.85
46134485,-0.000150,-0.001451,-0.001727,-0.01,-0.22,9.86
46135495,0.001981,0.000680,-0.001727,-0.02,-0.24,9.82
46136505,0.001981,0.001745,0.000404,0.00,-0.27,9.79
46137515,0.000915,0.000680,0.000404,0.01,-0.28,9.83
46138534,-0.001215,0.000680,-0.000662,0.01,-0.25,9.87
46139535,-0.001215,-0.000386,0.000404,0.01,-0.23,9.84
46140545,-0.001215,0.001745,-0.000662,0.00,-0.24,9.82
46141555,-0.001215,0.002810,-0.000662,-0.01,-0.26,9.85
46142565,-0.001215,-0.001451,-0.002792,0.01,-0.28,9.86
46143590,-0.000150,-0.002516,-0.001727,0.00,-0.27,9.83
46144595,0.000915,-0.001451,-0.001727,0.02,-0.26,9.82
46145599,0.001981,0.000680,-0.001727,0.05,-0.26,9.79
46146615,0.000915,-0.000386,-0.001727,0.03,-0.25,9.76
46147623,-0.000150,-0.001451,-0.002792,0.00,-0.24,9.78
46148642,-0.000150,-0.002516,-0.000662,-0.03,-0.27,9.82
46149641,0.000915,-0.003581,0.001469,-0.02,-0.29,9.84
46150659,0.001981,-0.001451,0.001469,0.02,-0.28,9.84
46151664,0.001981,-0.000386,-0.000662,0.02,-0.25,9.81
46152687,0.000915,-0.000386,-0.000662,0.03,-0.25,9.77
46153699,-0.000150,-0.000386,0.001469,0.02,-0.27,9.74
46154693,-0.000150,-0.000386,0.001469,0.03,-0.27,9.75
46155710,-0.000150,-0.001451,-0.000662,0.04,-0.26,9.80
46156710,0.000915,-0.000386,-0.000662,0.01,-0.23,9.83
46157729,0.001981,0.001745,-0.001727,-0.01,-0.24,9.82
46158745,0.001981,0.001745,-0.002792,-0.02,-0.28,9.84
46159750,0.000915,0.000680,-0.004923,0.02,-0.27,9.86
46160759,0.000915,-0.001451,-0.004923,0.01,-0.23,9.87
46161765,-0.001215,-0.000386,-0.002792,-0.02,-0.23,9.85
46162778,-0.000150,0.002810,-0.000662,0.02,-0.23,9.84
46163788,0.001981,0.003876,-0.000662,0.04,-0.21,9.82
46164790,0.000915,0.001745,0.000404,0.01,-0.24,9.82
46165796,-0.000150,-0.000386,0.000404,0.02,-0.28,9.80
46166808,0.001981,-0.001451,-0.000662,0.01,-0.28,9.79
46167820,0.001981,-0.001451,-0.001727,0.01,-0.27,9.81
46168835,0.001981,-0.001451,-0.002792,0.03,-0.25,9.78
46169838,-0.000150,-0.000386,-0.003858,0.00,-0.24,9.80
46170845,0.000915,-0.000386,-0.003858,-0.02,-0.25,9.87
46171855,0.004111,0.001745,-0.001727,-0.03,-0.24,9.88
46172875,0.001981,0.002810,-0.000662,-0.01,-0.23,9.81
46173884,-0.000150,0.002810,0.000404,0.01,-0.27,9.81
46174885,-0.000150,0.001745,0.000404,0.02,-0.26,9.82
46175895,-0.000150,0.001745,0.000404,0.01,-0.25,9.84
46176905,0.000915,-0.000386,-0.000662,-0.01,-0.27,9.83
46177915,0.000915,-0.001451,-0.002792,0.02,-0.25,9.81
46178934,-0.000150,-0.002516,-0.001727,0.02,-0.26,9.82
46179935,-0.000150,-0.002516,0.001469,0.01,-0.27,9.80
46180945,-0.000150,-0.001451,0.002534,0.01,-0.22,9.81
46181955,0.000915,-0.000386,0.000404,0.00,-0.23,9.86
46182971,0.003046,-0.000386,-0.001727,-0.01,-0.27,9.86
46183984,0.004111,-0.002516,-0.002792,-0.02,-0.26,9.85
46184985,0.004111,-0.001451,-0.003858,-0.02,-0.23,9.86
46185995,0.001981,-0.000386,-0.001727,-0.02,-0.23,9.82
46187005,0.000915,-0.000386,0.000404,0.02,-0.24,9.82
46188015,-0.000150,-0.003581,0.000404,-0.02,-0.24,9.85
46189031,-0.001215,-0.002516,-0.000662,-0.02,-0.22,9.85
46190035,-0.002281,-0.000386,-0.001727,-0.01,-0.24,9.81
46191045,-0.001215,0.001745,0.000404,-0.02,-0.23,9.78
46192055,0.000915,0.000680,0.002534,-0.01,-0.24,9.82
46193075,0.001981,0.000680,0.001469,0.00,-0.26,9.83
46194084,0.000915,0.000680,-0.000662,0.00,-0.26,9.82
46195085,-0.000150,0.000680,-0.001727,0.01,-0.23,9.83
46196095,-0.002281,0.001745,0.000404,0.02,-0.23,9.81
46197105,-0.002281,0.002810,0.000404,0.04,-0.23,9.81
46198115,-0.000150,0.001745,-0.000662,0.03,-0.23,9.81
46199134,0.000915,0.000680,-0.000662,0.02,-0.28,9.81
46200135,-0.000150,-0.000386,0.000404,0.03,-0.30,9.83
46201145,-0.002281,-0.001451,0.001469,0.03,-0.27,9.86
46202155,-0.002281,0.000680,0.000404,0.02,-0.27,9.83
46203171,-0.001215,0.003876,-0.002792,0.02,-0.29,9.78
46204184,-0.000150,0.002810,-0.003858,0.01,-0.25,9.82
46205185,-0.000150,0.001745,-0.002792,0.00,-0.26,9.84
46206195,-0.001215,0.000680,-0.000662,0.00,-0.25,9.85
46207205,-0.001215,-0.000386,0.000404,0.01,-0.24,9.82
46208215,0.000915,-0.000386,0.001469,-0.01,-0.25,9.82
46209231,0.001981,0.000680,0.002534,0.01,-0.23,9.91
46210235,0.000915,-0.000386,0.002534,0.01,-0.24,9.90
46211245,0.000915,-0.003581,0.001469,0.01,-0.25,9.82
46212255,0.001981,-0.002516,0.000404,0.04,-0.24,9.81
46213275,0.003046,-0.000386,0.000404,0.04,-0.26,9.82
46214284,0.000915,-0.000386,-0.000662,0.03,-0.25,9.81
46215285,-0.001215,-0.001451,-0.001727,0.03,-0.26,9.77
46216295,-0.003346,-0.002516,0.000404,0.05,-0.29,9.78
46217305,-0.002281,-0.003581,0.000404,0.04,-0.26,9.83
46218315,0.000915,-0.004647,0.001469,0.03,-0.19,9.79
46219334,0.001981,-0.002516,0.000404,0.00,-0.17,9.78
46220335,0.000915,0.000680,-0.000662,0.01,-0.24,9.83
46221345,0.000915,0.000680,-0.000662,0.04,-0.28,9.84
46222355,-0.001215,-0.001451,-0.001727,0.02,-0.28,9.83
46223371,-0.000150,-0.001451,-0.001727,-0.02,-0.28,9.82
46224384,0.003046,0.000680,-0.000662,-0.02,-0.28,9.82
46225385,0.004111,0.002810,0.000404,0.03,-0.26,9.78
46226395,0.000915,-0.001451,0.001469,0.04,-0.26,9.80
46227405,-0.000150,-0.004647,0.000404,0.02,-0.26,9.85
46228415,-0.000150,-0.002516,0.000404,0.01,-0.26,9.83
46229431,-0.000150,0.000680,0.000404,0.00,-0.25,9.81
46230435,-0.000150,0.002810,0.001469,0.00,-0.24,9.82
46231445,-0.002281,0.002810,0.000404,0.01,-0.22,9.81
46232455,-0.002281,0.000680,0.001469,0.01,-0.23,9.82
46233517,-0.001215,0.000680,0.003599,-0.01,-0.26,9.87
46234484,0.000915,0.003876,0.004665,-0.01,-0.24,9.86
46235485,0.001981,0.002810,0.001469,-0.01,-0.24,9.84
46236495,0.003046,0.000680,0.000404,0.01,-0.24,9.91
46237505,0.001981,0.001745,-0.000662,0.03,-0.23,9.92
46238515,0.000915,0.001745,0.000404,0.00,-0.25,9.82
46239525,-0.000150,-0.000386,0.000404,0.02,-0.24,9.75
46240544,-0.001215,-0.001451,-0.000662,0.02,-0.25,9.76
46241545,0.000915,0.000680,-0.001727,0.01,-0.27,9.79
46242555,-0.000150,0.003876,-0.001727,0.01,-0.26,9.81
46243573,-0.001215,0.002810,-0.000662,0.04,-0.27,9.85
46244579,-0.001215,0.001745,0.000404,0.04,-0.27,9.85
46245598,-0.000150,0.000680,0.001469,0.02,-0.26,9.86
46246624,0.001961,-0.000364,-0.000609,0.04,-0.25,9.87
46247613,0.004091,-0.001430,-0.002740,0.01,-0.27,9.86
46248621,0.003026,-0.003560,-0.004870,0.01,-0.28,9.86
46249636,0.000895,-0.000364,-0.004870,0.02,-0.26,9.86
46250651,0.000895,0.002832,-0.002740,-0.01,-0.26,9.87
46251659,0.000895,0.001766,-0.000609,-0.02,-0.25,9.86
46252680,0.001961,-0.001430,0.000456,-0.02,-0.22,9.83
46253684,0.001961,-0.003560,0.001521,-0.01,-0.22,9.81
46254689,0.003026,-0.002495,0.001521,0.00,-0.24,9.79
46255708,0.001961,-0.000364,0.001521,-0.02,-0.26,9.80
46256707,-0.001235,-0.000364,0.002587,0.01,-0.26,9.81
46257716,-0.001235,-0.000364,0.003652,0.04,-0.24,9.83
46258749,-0.001235,-0.000364,0.002587,0.04,-0.26,9.86
46259742,-0.001235,-0.000364,0.000456,0.03,-0.27,9.85
46260758,-0.002301,0.000701,-0.000609,0.02,-0.25,9.82
46261759,-0.000170,0.001766,-0.000609,0.03,-0.23,9.81
46262769,0.000895,0.001766,-0.000609,0.03,-0.23,9.82
46263772,0.001961,0.000701,0.000456,0.03,-0.24,9.83
46264786,0.000895,-0.000364,0.001521,0.03,-0.24,9.78
46265794,-0.001235,-0.000364,0.001521,0.00,-0.27,9.82
46266796,-0.000170,-0.000364,-0.000609,-0.02,-0.27,9.87
46267808,-0.000170,0.000701,-0.001674,-0.01,-0.23,9.81
46268820,-0.000170,0.000701,-0.001674,0.03,-0.24,9.85
46269829,-0.000170,0.000701,0.000456,0.03,-0.24,9.86
46270843,0.000895,0.000701,0.002587,0.02,-0.24,9.82
46271845,0.001961,0.001766,0.001521,0.01,-0.27,9.79
46272864,0.001961,0.001766,-0.001674,-0.02,-0.24,9.78
46273865,0.000895,-0.000364,-0.002740,-0.03,-0.23,9.82
46274875,0.000895,-0.000364,-0.002740,-0.02,-0.25,9.86
46275894,0.000895,-0.000364,-0.002740,-0.02,-0.27,9.83
46276895,-0.001235,-0.000364,-0.000609,-0.01,-0.31,9.79
46277905,-0.001235,0.000701,-0.000609,0.00,-0.27,9.84
46278915,-0.000170,0.000701,0.001521,-0.01,-0.22,9.87
46279925,-0.000170,0.000701,0.002587,-0.01,-0.21,9.82
46280944,-0.000170,0.000701,-0.000609,0.00,-0.26,9.80
46281945,-0.000170,0.000701,-0.002740,0.00,-0.29,9.84
46282962,0.000895,0.001766,-0.003805,-0.01,-0.28,9.83
46283965,0.000895,0.002832,-0.001674,0.00,-0.23,9.82
46284975,0.000895,0.003897,0.000456,0.01,-0.23,9.85
46285994,0.000895,0.001766,0.002587,0.02,-0.27,9.88
46286995,0.000895,-0.000364,0.002587,0.03,-0.26,9.82
46288005,0.003026,0.000701,0.000456,0.03,-0.28,9.79
46289015,0.001961,0.001766,-0.003805,0.00,-0.23,9.88
46290025,-0.000170,0.000701,-0.001674,-0.02,-0.20,9.82
46291041,-0.001235,0.000701,0.000456,0.01,-0.25,9.84
46292045,-0.001235,-0.001430,0.000456,0.04,-0.29,9.86
46293064,-0.000170,-0.001430,-0.000609,0.03,-0.27,9.82
46294065,-0.000170,-0.000364,-0.000609,-0.02,-0.27,9.82
46295075,-0.001235,-0.001430,0.000456,-0.04,-0.28,9.80
46296094,-0.000170,-0.001430,0.000456,-0.01,-0.26,9.78
46297095,0.003026,-0.001430,-0.001674,-0.01,-0.25,9.82
46298105,0.003026,-0.000364,-0.002740,-0.01,-0.25,9.83
46299115,0.003026,-0.000364,-0.001674,0.00,-0.25,9.84
46300125,0.003026,0.000701,0.000456,0.00,-0.24,9.88
46301144,0.001961,0.000701,0.003652,0.01,-0.23,9.89
46302145,0.001961,0.000701,0.003652,0.01,-0.25,9.87
46303162,0.004091,-0.002495,0.002587,-0.01,-0.25,9.86
46304165,0.003026,-0.002495,0.002587,-0.02,-0.28,9.83
46305175,-0.000170,-0.002495,0.001521,-0.01,-0.29,9.82
46306194,-0.001235,-0.001430,0.001521,0.02,-0.28,9.80
46307195,0.000895,0.000701,0.001521,0.04,-0.30,9.80
46308205,-0.000170,0.000701,0.001521,0.03,-0.27,9.83
46309215,-0.000170,-0.001430,0.000456,-0.01,-0.23,9.89
46310225,0.000895,-0.001430,-0.000609,0.01,-0.25,9.87
46311241,0.001961,0.001766,-0.001674,0.02,-0.25,9.83
46312245,-0.000170,0.000701,-0.002740,0.02,-0.27,9.84
46313264,-0.002301,-0.000364,-0.001674,0.02,-0.27,9.86
46314265,-0.001235,-0.000364,0.002587,0.00,-0.25,9.89
46315275,0.001961,0.000701,0.003652,-0.05,-0.25,9.88
46316294,0.003026,0.000701,0.002587,-0.01,-0.26,9.87
46317295,0.000895,0.000701,-0.000609,0.06,-0.25,9.84
46318305,-0.002301,0.001766,-0.002740,0.04,-0.21,9.82
46319315,-0.002301,0.001766,-0.001674,0.01,-0.23,9.81
46320325,-0.002301,0.002832,0.000456,0.00,-0.26,9.81
46321344,-0.003366,0.002832,0.001521,0.00,-0.25,9.84
46322345,-0.003366,0.001766,0.000456,-0.01,-0.25,9.85
46323362,-0.002301,-0.000364,0.000456,-0.01,-0.24,9.83
46324365,-0.002301,-0.001430,0.001521,0.02,-0.25,9.81
46325375,-0.000170,-0.000364,0.002587,0.03,-0.24,9.82
46326394,0.000895,0.000701,0.002587,0.02,-0.24,9.83
46327395,-0.000170,-0.000364,0.002587,0.00,-0.25,9.83
46328405,-0.000170,-0.000364,0.000456,0.02,-0.24,9.83
46329431,0.001961,-0.000364,-0.001674,0.04,-0.27,9.82
46330425,0.001961,-0.000364,-0.000609,0.02,-0.27,9.86
46331441,0.001961,-0.000364,0.001521,0.03,-0.25,9.88
46332445,0.000895,-0.000364,0.001521,0.02,-0.23,9.81
46333464,-0.000170,-0.000364,-0.000609,-0.01,-0.22,9.78
46334465,-0.001235,-0.001430,-0.001674,-0.01,-0.26,9.81
46335475,-0.000170,-0.000364,-0.001674,0.03,-0.25,9.82
46336498,-0.000170,0.002832,-0.000609,0.05,-0.24,9.82
46337495,0.000895,0.003897,0.000456,0.01,-0.28,9.82
46338505,0.003026,0.001766,0.000456,-0.02,-0.27,9.85
46339515,0.003026,-0.001430,0.001521,-0.03,-0.28,9.86
46340525,0.000895,-0.001430,0.002587,-0.02,-0.25,9.88
46341544,-0.000170,-0.002495,0.002587,0.00,-0.25,9.89
46342545,-0.001235,-0.000364,0.002587,0.00,-0.27,9.88
46343562,-0.002301,0.001766,0.002587,-0.02,-0.25,9.86
46344566,-0.000170,0.002832,0.002587,0.01,-0.22,9.84
46345578,0.000895,0.002832,0.001521,0.03,-0.21,9.81
46346598,0.001961,0.000701,0.000456,-0.01,-0.22,9.82
46347599,0.000895,-0.001430,-0.001674,-0.03,-0.24,9.87
46348614,-0.000170,-0.002495,-0.001674,0.00,-0.23,9.87
46349623,-0.001235,-0.001430,-0.000609,0.07,-0.23,9.86
46350634,-0.002301,-0.000364,-0.001674,0.02,-0.26,9.83
46351650,-0.002301,-0.002495,-0.000609,-0.01,-0.23,9.81
46352663,-0.001235,-0.002495,-0.000609,0.02,-0.23,9.83
46353664,0.000895,0.000701,-0.000609,-0.02,-0.23,9.82
46354684,0.000895,0.001766,-0.002740,-0.02,-0.24,9.85
46355689,0.000895,0.001766,-0.002740,0.01,-0.24,9.87
46356709,0.000895,0.000701,-0.000609,0.00,-0.22,9.83
46357710,0.000895,-0.000364,-0.000609,0.04,-0.24,9.82
46358711,0.001961,0.001766,-0.001674,0.03,-0.24,9.79
46359737,0.001961,0.003897,-0.000609,0.01,-0.24,9.80
46360737,-0.001235,0.001766,0.000456,0.01,-0.26,9.85
46361755,-0.001235,-0.001430,0.001521,0.02,-0.28,9.85
46362764,-0.002301,-0.000364,0.001521,0.00,-0.28,9.87
46363765,-0.000170,0.001766,0.000456,0.00,-0.27,9.87
46364778,0.001961,0.001766,0.000456,0.03,-0.28,9.86
46365779,0.000895,0.002832,0.000456,0.02,-0.25,9.82
46366794,-0.000170,0.001766,0.000456,0.00,-0.22,9.83
46367796,-0.000170,0.001766,-0.000609,0.02,-0.22,9.91
46368808,-0.001235,0.000701,-0.000609,0.05,-0.23,9.85
46369820,-0.003366,-0.000364,0.000456,0.02,-0.24,9.82
46370841,-0.003366,-0.000364,0.002587,0.00,-0.25,9.83
46371843,-0.000170,0.000701,0.002587,0.02,-0.26,9.86
46372856,0.001961,0.000701,0.001521,0.03,-0.26,9.86
46373855,-0.000170,-0.001430,0.001521,0.03,-0.25,9.82
46374865,-0.001235,-0.001430,0.001521,-0.01,-0.24,9.82
46375899,-0.002332,-0.001454,0.002565,-0.01,-0.25,9.84
46376894,-0.002332,0.000677,0.003630,0.02,-0.27,9.86
46377895,-0.000202,-0.000389,0.002565,0.02,-0.29,9.81
46378905,0.001929,-0.000389,0.002565,0.01,-0.27,9.82
46379927,0.001929,0.000677,0.001500,0.02,-0.24,9.88
46380925,0.000864,0.000677,-0.000631,0.04,-0.24,9.85
46381944,0.002994,0.000677,-0.000631,0.02,-0.27,9.82
46382955,0.002994,-0.001454,-0.000631,-0.02,-0.28,9.83
46383955,0.002994,-0.002519,-0.001696,0.00,-0.26,9.86
46384965,0.000864,-0.001454,0.000434,0.04,-0.27,9.86
46385975,0.002994,-0.001454,0.000434,0.04,-0.25,9.81
46386994,0.002994,-0.001454,-0.000631,-0.01,-0.22,9.81
46387995,0.001929,-0.001454,-0.000631,-0.02,-0.25,9.81
46389005,0.001929,0.000677,0.000434,-0.01,-0.27,9.83
46390027,0.001929,-0.000389,0.001500,0.00,-0.25,9.86
46391025,-0.001267,-0.003584,0.001500,-0.02,-0.24,9.82
46392041,-0.001267,-0.002519,0.002565,0.04,-0.26,9.81
46393056,0.000864,-0.000389,0.000434,0.05,-0.25,9.82
46394055,0.001929,0.002807,-0.001696,0.02,-0.23,9.82
46395065,0.002994,0.004938,-0.001696,0.00,-0.24,9.80
46396075,0.002994,0.003873,0.000434,0.01,-0.26,9.83
46397094,0.001929,0.001742,0.001500,0.03,-0.25,9.84
46398095,-0.001267,-0.000389,0.001500,0.02,-0.26,9.85
46399105,-0.003397,-0.002519,0.001500,-0.01,-0.25,9.82
46400127,-0.002332,-0.002519,0.001500,-0.01,-0.25,9.82
46401125,-0.000202,-0.001454,0.000434,0.00,-0.28,9.84
46402144,-0.001267,0.000677,-0.000631,0.00,-0.24,9.82
46403155,-0.000202,0.000677,-0.001696,0.00,-0.25,9.82
46404155,-0.000202,0.000677,-0.001696,0.01,-0.25,9.89
46405165,0.000864,-0.000389,-0.000631,0.00,-0.25,9.85
46406175,0.000864,-0.001454,-0.001696,0.00,-0.25,9.81
46407194,0.000864,-0.000389,-0.002762,-0.02,-0.23,9.80
46408195,-0.000202,-0.000389,-0.000631,-0.03,-0.22,9.80
46409205,0.001929,0.000677,0.002565,0.00,-0.22,9.85
46410227,0.002994,-0.000389,0.003630,0.00,-0.21,9.84
46411225,0.002994,-0.000389,0.003630,0.02,-0.22,9.84
46412241,0.001929,-0.001454,0.004695,-0.01,-0.23,9.82
46413256,-0.000202,-0.001454,0.003630,-0.02,-0.24,9.84
46414255,-0.000202,-0.000389,0.001500,0.00,-0.26,9.82
46415265,-0.001267,0.000677,0.000434,0.01,-0.27,9.81
46416275,-0.001267,-0.000389,-0.000631,0.01,-0.27,9.83
46417294,-0.000202,0.000677,-0.001696,-0.01,-0.27,9.80
46418295,0.000864,0.000677,-0.003827,-0.01,-0.27,9.81
46419305,-0.001267,0.000677,-0.003827,0.02,-0.25,9.83
46420327,-0.002332,-0.000389,-0.001696,0.03,-0.25,9.81
46421325,-0.002332,-0.000389,0.000434,0.00,-0.23,9.79
46422370,0.000864,0.000677,0.001500,-0.01,-0.22,9.85
46423384,0.002994,-0.000389,0.000434,0.01,-0.26,9.90
46424355,0.000864,-0.000389,-0.001696,0.02,-0.27,9.85
46425365,-0.000202,-0.001454,-0.000631,0.01,-0.23,9.79
46426375,0.000864,-0.002519,0.000434,-0.02,-0.23,9.76
46427394,0.000864,-0.001454,0.000434,-0.02,-0.26,9.77
46428395,-0.000202,0.001742,-0.000631,0.00,-0.27,9.86
46429405,0.000864,0.004938,-0.000631,0.03,-0.27,9.90
46430427,0.001929,0.003873,-0.000631,0.04,-0.25,9.86
46431425,0.000864,0.001742,-0.000631,0.03,-0.24,9.83
46432441,0.000864,0.003873,-0.000631,0.00,-0.26,9.82
46433456,0.001929,0.004938,0.000434,-0.01,-0.30,9.82
46434455,0.001929,-0.000389,0.000434,0.02,-0.30,9.82
46435465,0.001929,-0.005715,0.001500,0.05,-0.27,9.84
46436475,0.001929,-0.005715,0.001500,0.03,-0.24,9.85
46437494,0.001929,-0.001454,0.000434,-0.01,-0.23,9.81
46438537,0.000864,0.001742,-0.000631,-0.03,-0.25,9.79
46439505,0.000864,0.001742,-0.000631,-0.01,-0.26,9.78
46440527,0.001929,0.002807,-0.000631,0.02,-0.26,9.79
46441525,0.001929,0.002807,0.000434,0.02,-0.25,9.78
46442544,0.001929,-0.000389,-0.000631,0.02,-0.25,9.81
46443555,-0.000202,-0.002519,0.000434,0.01,-0.23,9.84
46444555,-0.000202,-0.002519,0.001500,0.01,-0.25,9.81
46445565,-0.000202,-0.001454,0.002565,0.00,-0.28,9.80
46446577,-0.000202,0.000677,0.000434,0.02,-0.24,9.84
46447596,-0.000202,0.002807,0.000434,0.02,-0.21,9.82
46448598,0.000864,0.002807,0.000434,0.01,-0.23,9.82
46449613,0.001929,0.002807,0.001500,0.01,-0.28,9.86
46450638,0.001929,0.000677,0.001500,0.00,-0.26,9.84
46451639,0.001929,-0.001454,0.001500,-0.01,-0.22,9.81
46452661,0.000864,-0.002519,-0.001696,0.02,-0.24,9.82
46453653,0.000864,-0.003584,-0.004892,0.04,-0.28,9.82
46454669,0.000864,-0.003584,-0.004892,-0.01,-0.26,9.82
46455675,0.001929,0.000677,-0.001696,0.02,-0.21,9.85
46456694,0.001929,0.001742,0.000434,0.05,-0.26,9.83
46457704,0.001929,0.000677,0.000434,0.03,-0.28,9.82
46458712,0.001929,-0.000389,-0.000631,0.02,-0.24,9.83
46459728,0.002994,-0.000389,0.000434,0.04,-0.24,9.84
46460745,0.004059,0.000677,0.000434,0.03,-0.28,9.88
46461734,-0.000202,0.002807,-0.000631,0.01,-0.29,9.90
46463044,-0.001267,0.004938,0.000434,-0.01,-0.26,9.90
46464735,-0.004463,-0.002519,-0.002762,0.06,-0.32,9.92
46465747,-0.009789,-0.018498,-0.013414,0.08,-0.33,9.86
46466750,-0.006593,-0.019564,-0.015545,-0.02,-0.11,9.73
46467769,-0.003397,-0.009976,-0.015545,-0.07,-0.17,9.79
46468766,-0.001267,-0.006780,-0.020871,-0.08,-0.35,9.86
46469781,0.004059,-0.007845,-0.028328,-0.18,-0.16,9.90
46470808,0.006190,-0.007845,-0.031524,-0.13,-0.64,9.73
46471801,0.007255,-0.000389,-0.030459,0.00,-0.72,9.76
46472831,0.005125,0.007068,-0.027263,0.35,-0.04,9.87
46473818,-0.006593,0.015591,-0.017675,0.51,0.47,9.81
46474827,-0.009789,0.013460,-0.000631,-0.04,0.46,10.01
46475837,0.004059,-0.004650,0.018544,-0.67,-0.62,10.21
46476847,0.026430,-0.023825,0.020675,-0.34,-1.07,9.82
46477865,0.021104,-0.012107,0.004695,0.86,0.00,9.42
46478867,-0.020442,0.025178,-0.001696,0.45,0.89,9.68
46479877,-0.031095,0.035831,0.018544,-1.18,-1.24,10.17
46480904,0.021104,-0.014237,0.021740,-0.31,-1.20,9.87
46481897,0.043475,-0.045130,-0.002762,1.36,2.16,9.15
46482927,-0.036421,0.013460,0.001500,-0.09,-0.71,9.90
46483918,-0.042813,0.032635,0.016414,-1.36,-3.33,10.12
46484927,0.070107,-0.032347,-0.000631,0.80,3.15,9.64
46485937,0.015778,-0.016368,0.002565,0.81,-0.38,10.45
46486947,-0.100338,0.029439,0.008957,-1.45,-4.09,8.95
46487965,0.034953,-0.022759,-0.011284,0.63,4.19,9.09
46488967,0.062650,-0.007845,-0.001696,1.08,-2.47,12.52
46489994,-0.056662,0.014525,-0.011284,-1.06,-0.96,8.64
46490987,0.021104,-0.018498,-0.005957,0.19,1.82,8.96
46491997,0.020039,-0.015302,0.002565,0.20,-2.22,11.31
46493027,-0.008724,0.033700,0.010022,-0.73,-1.70,11.85
46494018,-0.034291,-0.006780,-0.013414,0.74,0.45,9.29
46495027,0.041344,-0.032347,-0.001696,-0.26,-0.24,9.29
46496037,-0.018311,0.006003,-0.012349,0.02,0.09,10.66
46497047,-0.022573,-0.000389,0.001500,0.39,-0.98,8.76
46498065,-0.006593,0.029439,-0.008088,-0.85,-0.01,11.19
46499067,0.023235,-0.035543,0.008957,0.56,0.58,8.96
46500094,-0.009789,0.008134,0.006826,-0.19,-1.89,8.54
46501087,0.013647,0.031570,0.008957,-0.41,1.34,10.09
46502097,-0.005528,0.031570,-0.000631,0.59,-2.62,9.60
46503127,0.004059,0.018787,-0.002762,-0.26,0.98,11.46
46504118,-0.027899,0.000677,-0.008088,0.36,-2.10,10.80
46505127,-0.021507,0.006003,-0.018741,0.50,-0.05,8.79
46506137,-0.023638,-0.005715,-0.018741,-1.03,0.87,11.09
46507147,-0.010854,0.018787,-0.029394,0.21,-2.76,7.30
46508165,-0.010854,0.015591,-0.026198,-1.05,3.40,10.76
46509167,0.000864,0.008134,-0.029394,0.44,-2.47,10.30
46510194,0.000864,0.015591,-0.026198,0.90,0.23,7.06
46511187,-0.015116,0.015591,-0.021937,-0.66,2.54,12.52
46512197,-0.020442,0.029439,-0.025132,0.38,-4.28,7.82
46513227,-0.004463,0.019852,-0.025132,0.16,2.20,9.65
46514218,-0.008724,0.000677,-0.020871,0.07,1.55,13.55
46515227,-0.009789,-0.006780,-0.018741,0.66,-4.12,6.82
46516237,0.005125,-0.002519,-0.014480,-0.39,2.40,9.62
46517247,0.002994,0.006003,-0.011284,-0.11,1.71,13.05
46518265,-0.006593,0.003873,-0.010218,0.45,-4.39,7.30
46519267,-0.006593,-0.011041,-0.004892,0.08,0.79,8.47
46520294,0.001929,-0.007845,-0.000631,-0.70,3.48,12.57
46521287,0.010451,0.009199,-0.001696,-0.19,-4.18,8.90
46522297,-0.019377,-0.005715,0.000434,0.84,-2.14,7.11
46523327,-0.007659,-0.009976,0.004695,-1.12,4.60,12.38
46524318,0.022169,0.011330,0.004695,-0.43,-0.64,12.06
46525327,0.016843,0.012395,0.005761,1.27,-4.53,7.36
46526337,0.007255,0.002807,0.007891,0.14,0.88,9.59
46527347,0.013647,-0.014237,0.004695,-0.69,4.38,12.11
46528365,0.016843,-0.015302,-0.001696,0.19,-3.84,8.98
46529367,0.023235,-0.015302,-0.008088,1.18,-4.80,7.49
46530377,0.006190,-0.011041,-0.005957,0.23,3.42,11.12
46531387,-0.016181,0.006003,0.000434,-1.29,4.34,12.90
46532397,-0.012985,0.003873,-0.001696,-0.18,-3.54,8.58
46533427,-0.016181,-0.017433,-0.007023,1.13,-4.59,5.92
46534418,-0.012985,-0.014237,-0.005957,0.14,2.48,9.75
46535427,-0.011920,0.014525,0.011087,-0.91,5.25,13.19
46536437,-0.005528,0.034766,0.027066,-0.37,-1.91,12.00
46537447,0.000864,0.035831,0.030262,0.83,-6.26,8.01
46538465,-0.005528,0.009199,0.015348,0.86,0.20,6.61
46539467,0.005125,0.001742,0.005761,-1.14,4.91,12.09
46540494,-0.005528,-0.013172,0.005761,-1.66,4.34,13.50
46541487,-0.007659,-0.032347,0.005761,-0.03,-5.06,9.21
46542497,0.002994,-0.027021,0.004695,0.88,-5.32,7.20
46543526,-0.009789,-0.030216,0.007891,1.57,0.92,6.42
46544518,0.000864,-0.004650,0.019609,-1.43,5.08,12.46
46545527,-0.004463,-0.002519,0.020675,-2.03,5.09,13.54
46546537,0.014712,-0.009976,0.020675,0.20,-5.15,9.58
46547547,0.038148,0.012395,0.027066,0.79,-6.64,7.76
46548565,0.015778,0.008134,0.034523,1.71,-0.12,5.63
46549567,0.017908,0.014525,0.037719,-0.05,2.84,10.70
46550580,0.018973,-0.001454,0.031327,-1.43,5.99,14.85
46551596,0.011516,-0.014237,0.032393,-0.75,0.89,12.77
46552602,0.016843,-0.001454,0.036654,0.29,-6.59,8.56
46553638,0.015778,-0.016368,0.034523,1.23,-4.79,5.17
46554624,0.015778,-0.013172,0.032393,1.03,-1.17,5.51
46555632,0.015778,0.000677,0.031327,0.58,2.50,10.24
46556654,-0.004463,-0.000389,0.027066,-0.34,5.47,14.91
46557657,-0.000202,-0.004650,0.021740,-1.43,2.51,14.25
46558685,0.026430,-0.000389,0.014283,0.03,-3.22,9.38
46559680,0.007255,-0.011041,0.015348,0.69,-6.11,5.74
46560693,0.006190,-0.007845,0.014283,-0.10,-3.43,6.04
46561699,-0.009789,-0.011041,0.006826,1.85,0.08,6.75
46562704,-0.027899,-0.006780,0.000434,1.31,1.67,10.82
46563733,-0.022573,0.008134,0.002565,-0.57,4.58,14.99
46564729,-0.016181,0.020917,0.007891,-1.14,4.23,14.65
46565732,-0.028964,0.026244,0.006826,-0.98,-0.84,10.67
46566748,-0.037486,0.003873,-0.002762,-0.82,-4.82,7.02
46567751,-0.001267,-0.002519,-0.024067,0.16,-4.72,7.19
46568769,0.005125,-0.006780,-0.027263,1.15,-1.65,6.18
46569767,0.018973,0.012395,-0.025132,0.08,-0.06,6.97
46570781,-0.017246,0.013460,-0.021937,1.86,1.04,8.67
46571791,-0.048139,-0.001454,-0.021937,0.28,3.02,14.34
46572801,0.031757,-0.030216,-0.034720,-1.32,3.72,15.80
46573829,0.064780,-0.033412,-0.029394,-0.97,1.66,13.07
46574818,0.012582,0.051810,-0.011284,-1.40,-0.93,10.02
46575827,-0.100338,0.063528,0.002565,-0.96,-3.18,5.71
46576837,-0.102469,0.067789,0.000434,-0.56,-4.84,8.95
46577847,-0.115252,0.042223,0.000434,0.96,-2.10,6.46
46578865,-0.059857,0.051810,-0.004892,0.09,-2.94,6.73
46579867,-0.040682,0.072051,-0.017675,1.75,-0.15,7.42
46580877,-0.012985,0.036896,-0.033655,0.45,2.57,10.87
46581887,0.000864,-0.000389,-0.045373,-0.32,0.88,13.29
46582909,-0.001267,-0.041934,-0.044307,0.32,3.59,12.93
46583916,0.046671,0.008134,-0.042177,-1.90,2.23,12.93
46584917,0.006190,0.004938,-0.044307,-0.94,0.36,11.59
46585927,-0.007659,0.021982,-0.043242,-1.48,-0.79,11.84
46586937,-0.025768,-0.016368,-0.048569,-0.89,-2.65,7.32
46587947,0.038148,-0.006780,-0.050699,0.46,-4.04,6.63
46588965,0.041344,0.008134,-0.052830,0.19,-1.77,6.27
46589967,0.015778,0.004938,-0.047503,0.40,-3.70,7.75
46590977,-0.056662,0.001742,-0.043242,1.49,-1.84,7.25
46591987,-0.024703,-0.012107,-0.038981,0.71,0.08,9.33
46593010,0.040279,0.021982,-0.035785,1.40,-0.29,9.83
46594016,-0.005528,-0.003584,-0.040046,0.09,0.74,13.54
46595017,-0.026834,-0.038739,-0.045373,0.75,1.98,13.14
46596027,0.034953,-0.012107,-0.041112,-1.45,2.74,11.60
46597037,0.047736,-0.002519,-0.040046,-1.15,1.70,11.52
46598047,-0.003397,-0.011041,-0.034720,-1.08,1.06,11.69
46599065,-0.064118,-0.029151,-0.029394,-1.27,-1.17,8.95
46600067,-0.007659,-0.000389,-0.024067,-0.22,-1.77,8.11
46601077,0.026430,0.024113,-0.029394,-0.75,-0.67,7.05
46602087,0.015778,0.015591,-0.029394,-0.13,-3.45,8.12
46603109,-0.049205,-0.005715,-0.025132,0.13,-1.66,7.41
46604116,-0.007659,-0.011041,-0.019806,0.39,-2.58,8.10
46605117,0.040279,0.007068,-0.023002,1.20,-0.97,7.67
46606127,0.040279,-0.002519,-0.025132,0.65,-0.48,10.04
46607137,-0.025768,-0.012107,-0.024067,1.32,-1.77,8.93
46608147,-0.014050,-0.012107,-0.024067,0.81,1.37,9.48
46609165,0.022169,0.002807,-0.023002,0.92,-0.15,9.99
46610167,0.027496,0.001742,-0.021937,0.87,2.13,12.07
46611177,-0.024703,-0.007845,-0.023002,0.01,1.06,12.93
46612187,-0.019377,-0.012107,-0.024067,0.22,1.15,12.81
46613210,-0.001267,-0.003584,-0.021937,-0.94,2.60,12.13
46614216,0.016843,-0.018498,-0.023002,-0.55,1.30,12.04
46615217,-0.010854,-0.008911,-0.014480,-0.72,1.58,11.39
46616227,-0.025768,0.013460,-0.016610,-1.39,0.38,10.53
46617237,0.012582,0.010264,-0.014480,-0.82,0.39,9.59
46618247,0.009386,-0.003584,-0.012349,-1.21,-0.18,8.66
46619265,-0.011920,-0.012107,-0.012349,-0.27,-2.17,8.49
46620267,-0.004463,-0.008911,-0.021937,-0.76,-0.80,7.79
46621277,0.025365,0.001742,-0.020871,-0.23,-2.97,7.98
46622287,-0.008724,-0.002519,-0.017675,0.03,-1.22,7.74
46623309,-0.017246,-0.014237,-0.019806,0.18,-2.88,8.49
46624316,0.000864,-0.020629,-0.028328,0.52,-1.57,7.94
46625317,0.034953,-0.001454,-0.019806,0.09,-1.35,9.39
46626327,0.001929,0.016656,-0.009153,0.98,-1.69,8.29
46627337,-0.028964,0.024113,-0.008088,0.55,-0.44,9.68
46628347,-0.048139,0.013460,-0.017675,1.04,-1.43,8.71
46629365,0.005125,-0.006780,-0.027263,0.70,0.45,9.55
46630367,0.028561,-0.032347,-0.029394,1.10,-0.81,9.66
46631377,0.042410,-0.029151,-0.025132,0.94,0.75,10.43
46632387,0.010451,-0.002519,-0.015545,0.57,0.26,11.12
46633410,0.004059,0.019852,-0.012349,0.58,1.07,11.48
46634416,-0.030029,0.023048,-0.009153,0.02,1.28,12.06
46635417,-0.039617,0.029439,-0.011284,0.07,1.13,12.47
46636445,-0.044943,0.024113,-0.009153,-0.48,1.92,12.09
46637437,-0.022573,0.011330,-0.016610,-0.49,1.09,12.39
46638447,-0.005528,-0.013172,-0.020871,-0.64,1.80,11.21
46639465,0.017908,-0.027021,-0.031524,-1.04,0.96,11.39
46640467,0.021104,-0.034477,-0.032589,-0.87,1.03,9.96
46641477,0.034953,-0.033412,-0.030459,-1.22,0.46,9.71
46642487,0.027496,-0.021694,-0.016610,-0.68,-0.49,9.04
46643509,0.012582,-0.001454,-0.009153,-1.07,-0.05,8.40
46644516,0.006190,0.024113,0.000434,-0.50,-2.07,8.48
46645517,-0.004463,0.017721,-0.007023,-0.50,-0.79,7.96
46646527,0.000864,-0.005715,-0.016610,-0.05,-3.08,8.14
46647537,-0.000202,-0.015302,-0.020871,0.09,-1.41,7.55
46648547,-0.003397,0.013460,-0.011284,0.03,-2.55,8.73
46649565,-0.026834,0.003873,-0.013414,0.89,-1.90,7.88
46650567,0.004059,-0.007845,-0.011284,0.31,-1.43,9.34
46651580,0.000864,0.003873,-0.013414,1.27,-1.61,8.39
46652595,0.018973,0.007068,-0.017675,0.75,0.16,10.15
46653617,-0.009789,-0.013172,-0.018741,1.34,-1.40,9.07
46654623,-0.009789,-0.018498,-0.017675,1.09,0.84,9.59
46655625,0.018973,0.000677,-0.012349,0.74,0.12,10.51
46656638,0.027496,0.021982,-0.012349,0.74,1.57,11.84
46657650,0.006190,0.008134,-0.011284,-0.15,1.40,12.65
46658659,-0.005528,0.003873,-0.012349,0.05,1.16,13.07
46659676,0.000864,-0.004650,-0.019806,-0.84,2.63,12.20
46660681,0.027496,-0.012107,-0.025132,-0.85,1.25,12.33
46661688,-0.002332,-0.007845,-0.019806,-0.78,1.58,10.77
46662695,-0.009789,-0.003584,-0.021937,-1.40,0.59,10.40
46663719,0.000864,0.003873,-0.011284,-0.75,-0.11,9.21
46664731,-0.017246,0.012395,-0.009153,-1.20,0.03,8.58
46665724,-0.017246,0.004938,-0.011284,-0.30,-2.42,8.02
46666743,0.006190,-0.004650,-0.017675,-0.61,-0.74,7.76
46667743,0.012582,0.008134,-0.008088,-0.20,-3.04,8.08
46668752,-0.027899,0.007068,-0.005957,0.07,-1.28,7.99
46669769,-0.021507,-0.011041,-0.012349,0.12,-2.59,8.84
46670767,0.008321,-0.029151,-0.024067,0.64,-1.59,8.21
46671781,0.041344,-0.007845,-0.014480,0.10,-1.16,9.58
46672791,0.001929,0.016656,-0.002762,1.00,-1.75,8.33
46673814,-0.026834,0.027309,-0.001696,0.54,-0.34,9.58
46674819,-0.042813,0.008134,-0.009153,1.17,-1.50,8.60
46675817,0.007255,-0.008911,-0.015545,0.82,0.43,9.61
46676827,0.018973,-0.021694,-0.016610,1.00,-0.72,9.63
46677837,0.030692,-0.006780,-0.008088,0.89,0.75,10.39
46678847,0.001929,0.017721,0.005761,0.42,0.46,11.13
46679865,-0.003397,0.030505,0.004695,0.53,1.03,11.80
46680867,-0.034291,0.013460,-0.004892,-0.02,1.46,12.26
46681877,-0.019377,-0.002519,-0.017675,-0.01,1.09,12.70
46682899,-0.010854,-0.020629,-0.023002,-0.55,2.02,11.93
46683898,0.014712,-0.024890,-0.027263,-0.65,1.13,12.28
46684915,0.018973,-0.023825,-0.017675,-0.71,1.64,10.86
46685917,0.037083,-0.012107,-0.012349,-1.06,0.86,11.00
46686927,0.034953,0.006003,-0.001696,-0.84,0.77,9.65
46687937,0.027496,0.018787,0.000434,-1.21,0.46,9.37
46688947,-0.003397,0.028374,0.005761,-0.74,-0.82,8.84
46689965,-0.032160,0.020917,-0.001696,-1.00,-0.05,8.33
46690967,-0.043878,0.009199,-0.009153,-0.43,-2.18,8.28
46691977,-0.033225,-0.014237,-0.024067,-0.47,-0.76,7.94
46693000,-0.004463,-0.017433,-0.024067,-0.07,-2.81,8.61
46693998,0.009386,-0.017433,-0.020871,0.20,-1.28,8.13
46695015,0.008321,0.033700,0.004695,0.60,-1.70,8.11
46696017,-0.014050,0.041157,0.002565,0.29,-1.59,9.64
46697027,-0.036421,0.011330,-0.011284,1.20,-1.88,8.32
46698037,0.007255,-0.013172,-0.013414,0.65,-0.32,9.45
46699047,0.001929,-0.011041,-0.007023,1.38,-1.58,8.66
46700065,0.002994,0.006003,-0.009153,0.99,0.75,10.49
46701067,-0.019377,-0.005715,-0.013414,1.08,-0.34,10.62
46702077,-0.007659,-0.001454,-0.011284,0.90,1.18,10.81
46703099,0.002994,0.004938,-0.010218,0.04,1.23,11.68
46704098,0.017908,0.020917,-0.005957,0.06,1.96,12.78
46705115,0.011516,0.013460,-0.003827,-0.75,2.30,12.44
46706117,0.015778,-0.006780,-0.009153,-0.54,1.05,12.71
46707127,0.015778,-0.012107,-0.016610,-1.14,2.44,11.19
46708137,0.028561,-0.014237,-0.020871,-1.49,1.11,10.59
46709147,0.002994,-0.014237,-0.017675,-0.88,0.27,9.89
46710165,-0.009789,-0.023825,-0.019806,-1.37,0.10,8.83
46711167,-0.008724,-0.006780,-0.009153,-0.38,-2.31,7.98
46712177,-0.022573,0.000677,-0.011284,-0.65,-0.60,7.79
46713200,-0.010854,0.003873,-0.002762,-0.03,-3.48,7.89
46714198,-0.035356,0.017721,-0.001696,0.24,-1.40,7.65
46715215,-0.006593,0.017721,-0.007023,0.13,-2.86,8.46
46716217,0.023235,-0.004650,-0.013414,0.81,-1.84,7.76
46717227,0.030692,-0.003584,-0.009153,0.33,-1.32,9.82
46718237,-0.003397,-0.004650,-0.016610,1.21,-1.97,8.46
46719247,0.012582,-0.004650,-0.015545,0.68,0.12,9.76
46720265,-0.005528,0.007068,-0.004892,1.31,-1.53,8.81
46721267,-0.014050,0.021982,-0.002762,1.10,0.71,10.01
46722277,-0.026834,0.003873,-0.010218,0.94,-0.35,10.51
46723299,0.011516,-0.011041,-0.013414,0.90,0.98,10.88
46724298,0.005125,0.000677,-0.003827,0.08,1.07,11.66
46725315,-0.009789,0.012395,-0.007023,0.19,1.26,12.32
46726317,-0.031095,-0.008911,-0.017675,-0.45,2.05,12.25
46727327,0.006190,-0.030216,-0.024067,-0.42,1.08,12.58
46728337,0.027496,-0.018498,-0.010218,-0.85,2.26,11.48
46729347,0.022169,0.012395,-0.002762,-1.18,1.09,11.46
46730365,-0.024703,0.026244,0.001500,-0.90,1.08,10.26
46731367,-0.039617,0.011330,-0.009153,-1.33,0.65,9.83
46732377,-0.009789,-0.013172,-0.015545,-0.79,-0.58,8.92
46733400,0.023235,-0.028086,-0.020871,-1.12,0.10,8.50
46734398,0.031757,-0.005715,-0.003827,-0.38,-2.28,8.25
46735415,0.010451,0.018787,0.003630,-0.45,-0.83,7.99
46736417,-0.017246,0.026244,0.002565,0.00,-2.99,8.33
46737427,-0.039617,0.004938,-0.011284,0.23,-1.41,8.06
46738437,-0.012985,-0.015302,-0.018741,0.24,-2.62,9.19
46739447,0.008321,-0.030216,-0.027263,0.71,-1.79,8.43
46740465,0.046671,-0.014237,-0.015545,0.42,-1.60,9.85
46741467,0.044540,0.006003,-0.005957,1.20,-1.85,8.50
46742477,0.040279,0.030505,0.002565,0.83,-0.75,9.88
46743499,-0.010854,0.032635,0.002565,1.33,-1.58,8.52
46744498,-0.023638,0.024113,-0.005957,0.96,0.01,9.09
46745536,-0.052400,0.009199,-0.014480,1.27,-1.07,9.03
46746517,-0.028964,0.002807,-0.023002,1.08,0.59,9.69
46747527,-0.021507,-0.009976,-0.029394,0.77,0.01,10.68
46748537,0.011516,-0.017433,-0.034720,0.74,0.87,11.04
46749547,0.016843,-0.025955,-0.035785,0.27,0.97,11.98
46750565,0.042410,-0.025955,-0.035785,0.21,1.17,11.94
46751567,0.041344,-0.011041,-0.027263,-0.35,1.70,11.99
46752580,0.040279,0.006003,-0.026198,-0.49,1.36,12.17
46753607,0.014712,0.017721,-0.019806,-0.88,1.79,11.22
46754604,-0.015116,0.017721,-0.019806,-0.92,1.15,11.33
46755621,-0.033225,0.013460,-0.018741,-1.09,1.43,10.45
46756622,-0.025768,-0.007845,-0.030459,-1.30,0.85,9.95
46757632,0.011516,-0.022759,-0.034720,-1.02,0.00,9.85
46758654,0.015778,-0.017433,-0.034720,-1.34,0.08,8.68
46759659,0.006190,0.001742,-0.025132,-0.55,-2.03,8.51
46760685,-0.008724,-0.007845,-0.028328,-0.57,-0.99,7.72
46761676,0.014712,-0.012107,-0.016610,0.02,-3.44,7.63
46762693,-0.008724,0.007068,-0.011284,0.18,-1.67,7.56
46763706,0.001929,0.009199,-0.011284,0.30,-2.89,8.66
46764726,-0.020442,0.009199,-0.015545,0.98,-1.92,7.59
46765721,0.005125,0.003873,-0.015545,0.31,-0.75,10.16
46766724,-0.001267,-0.001454,-0.014480,1.24,-1.54,8.67
46767732,0.022169,-0.014237,-0.016610,0.82,0.40,10.21
46768748,0.017908,-0.007845,-0.018741,1.27,-0.57,9.85
46769751,0.007255,0.001742,-0.012349,0.96,1.39,10.00
46770769,0.002994,0.015591,-0.009153,-0.05,0.47,11.83
46771767,0.002994,0.008134,-0.012349,0.33,2.05,12.34
46772781,-0.006593,0.007068,-0.010218,-0.50,2.06,12.91
46773804,-0.020442,-0.008911,-0.015545,-0.39,0.80,11.86
46774802,0.005125,0.003873,-0.018741,-1.25,2.48,11.12
46775817,0.007255,0.019852,-0.025132,-1.43,0.93,10.80
46776817,0.006190,0.021982,-0.020871,-1.08,0.63,10.64
46777827,-0.025768,0.007068,-0.019806,-1.49,0.19,9.19
46778837,-0.015116,-0.004650,-0.018741,-0.32,-1.78,8.89
46779847,-0.026834,0.000677,-0.019806,-0.80,-0.84,7.59
46780865,0.009386,0.012395,-0.019806,0.15,-3.66,7.33
46781867,0.020039,0.023048,-0.020871,0.34,-1.36,7.78
46782889,0.023235,0.017721,-0.024067,0.36,-3.34,8.38
46783888,0.009386,-0.008911,-0.028328,0.85,-2.09,7.75
46784897,0.012582,-0.014237,-0.026198,0.57,-1.50,9.69
46785915,0.004059,-0.005715,-0.027263,1.45,-1.76,8.32
46786917,0.021104,0.009199,-0.023002,0.83,0.12,9.63
46787927,-0.009789,0.017721,-0.023002,1.41,-1.35,9.26
46788937,0.000864,0.001742,-0.024067,1.10,0.99,9.98
46789947,-0.020442,-0.005715,-0.016610,0.82,0.04,10.94
46790965,-0.017246,-0.009976,-0.018741,0.81,1.34,11.07
46791967,-0.003397,-0.014237,-0.023002,-0.01,1.39,12.32
46792990,0.007255,0.002807,-0.021937,-0.07,1.43,12.60
46793988,-0.001267,0.002807,-0.023002,-0.85,2.40,12.27
46794997,0.011516,-0.004650,-0.026198,-0.78,1.24,12.00
46796015,-0.006593,0.010264,-0.023002,-1.47,0.87,10.44
46797017,0.001929,0.004938,-0.019806,-1.06,0.38,10.00
46798027,-0.012985,0.008134,-0.019806,-1.40,0.22,9.11
46799037,-0.007659,0.001742,-0.026198,-0.54,-1.90,8.73
46800047,0.006190,-0.006780,-0.032589,-0.75,-0.68,8.03
46801065,0.012582,0.002807,-0.023002,-0.09,-3.34,7.77
46802067,-0.004463,0.000677,-0.026198,0.06,-1.47,7.67
46803089,0.012582,-0.008911,-0.027263,0.33,-3.07,8.24
46804088,-0.002332,0.004938,-0.027263,0.69,-1.81,8.02
46805097,-0.009789,0.013460,-0.028328,0.26,-1.46,9.77
46806115,-0.019377,-0.004650,-0.032589,1.14,-1.75,8.39
46807117,0.009386,-0.008911,-0.025132,0.72,-0.15,9.51
46808127,-0.002332,0.007068,-0.020871,1.31,-1.36,8.92
46809137,0.005125,0.000677,-0.027263,0.94,0.81,10.09
46810147,-0.002332,-0.017433,-0.029394,0.89,-0.29,10.76
46811165,-0.001267,-0.004650,-0.021937,0.83,1.12,10.44
46812167,-0.017246,0.008134,-0.017675,0.24,0.92,11.70
46813190,0.011516,0.004938,-0.018741,0.15,1.48,12.01
46814188,0.012582,0.012395,-0.010218,-0.59,2.05,12.21
46815197,-0.009789,0.024113,-0.012349,-0.53,1.31,12.43
46816215,-0.019377,0.006003,-0.019806,-0.95,2.16,11.32
46817217,0.008321,-0.018498,-0.024067,-1.24,1.00,11.19
46818227,0.018973,-0.009976,-0.012349,-1.10,1.29,10.34
46819237,0.000864,0.000677,-0.015545,-1.40,0.55,9.68
46820247,0.000864,-0.007845,-0.021937,-0.80,-0.79,9.39
46821265,0.000864,-0.011041,-0.026198,-1.14,-0.11,8.42
46822267,-0.003397,0.008134,-0.015545,-0.27,-2.72,7.99
46823289,-0.019377,0.009199,-0.016610,-0.22,-1.14,7.73
46824288,0.007255,0.000677,-0.015545,0.21,-3.36,7.99
46825297,0.006190,0.007068,-0.014480,0.33,-1.56,7.94
46826315,-0.000202,0.018787,-0.014480,0.28,-2.35,9.25
46827317,-0.022573,-0.004650,-0.024067,1.02,-1.85,8.16
46828327,0.011516,-0.025955,-0.024067,0.50,-1.04,9.84
46829337,0.013647,-0.003584,-0.018741,1.17,-1.59,8.57
46830347,0.005125,0.025178,-0.017675,0.87,0.16,10.03
46831365,-0.022573,0.008134,-0.026198,1.24,-1.11,9.47
46832367,0.000864,-0.015302,-0.023002,0.95,0.91,9.28
46833390,0.000864,0.001742,-0.010218,0.69,-0.04,10.56
46834388,-0.001267,0.021982,-0.010218,0.63,1.35,11.11
46835397,-0.012985,0.006003,-0.020871,-0.02,1.32,12.49
46836415,0.012582,-0.019564,-0.026198,-0.05,1.30,12.34
46837417,0.010451,-0.013172,-0.015545,-0.70,2.17,11.97
46838427,-0.005528,-0.001454,-0.017675,-0.64,1.18,11.97
46839437,-0.005528,-0.006780,-0.025132,-0.94,1.99,10.95
46840447,0.014712,-0.005715,-0.028328,-1.35,0.97,10.78
46841465,0.010451,0.015591,-0.012349,-1.03,0.76,10.21
46842467,-0.019377,0.013460,-0.010218,-1.29,0.40,9.32
46843489,-0.014050,-0.006780,-0.016610,-0.56,-1.37,8.87
46844488,0.000864,-0.011041,-0.023002,-0.91,-0.34,8.19
46845497,0.011516,0.012395,-0.013414,-0.14,-2.98,7.94
46846515,-0.011920,0.014525,-0.015545,-0.02,-1.27,7.94
46847517,0.002994,-0.006780,-0.020871,0.31,-3.16,8.40
46848527,0.008321,-0.018498,-0.026198,0.54,-1.74,8.01
46849537,0.010451,0.006003,-0.018741,0.38,-2.17,9.32
46850547,-0.019377,0.016656,-0.019806,1.12,-1.81,8.33
46851565,0.004059,0.007068,-0.016610,0.61,-0.78,10.04
46852567,0.004059,0.000677,-0.012349,1.19,-1.57,8.65
46853597,0.001929,0.009199,-0.009153,0.85,0.41,9.34
46854596,-0.018311,0.007068,-0.012349,1.24,-0.98,9.53
46855602,0.016843,-0.007845,-0.016610,0.93,1.05,10.18
46856623,0.021104,-0.005715,-0.011284,0.42,0.39,11.60
46857624,0.006190,0.007068,-0.012349,0.41,1.31,11.21
46858638,-0.017246,0.001742,-0.021937,-0.17,1.48,11.96
46859653,0.008321,-0.008911,-0.026198,-0.12,1.20,12.20
46860659,0.014712,0.009199,-0.012349,-0.89,2.14,11.71
46861675,-0.003397,0.027309,-0.010218,-1.07,1.28,11.90
46862681,-0.016181,0.009199,-0.016610,-1.01,1.72,10.94
46863696,-0.005528,-0.018498,-0.021937,-1.37,0.73,10.52
46864700,0.005125,-0.007845,-0.008088,-1.06,0.37,9.61
46865703,0.001929,0.004938,-0.012349,-1.37,0.25,9.02
46866724,0.014712,-0.001454,-0.018741,-0.61,-1.88,8.89
46867724,0.009386,-0.004650,-0.020871,-0.77,-0.63,8.34
46868737,-0.002332,0.007068,-0.012349,0.05,-3.17,7.93
46869743,-0.017246,0.001742,-0.017675,0.22,-1.50,7.77
46870752,0.015778,-0.000389,-0.013414,0.41,-3.12,8.40
46871769,0.008321,0.017721,-0.009153,0.71,-1.74,8.18
46872767,-0.005528,0.025178,-0.011284,0.36,-1.68,9.82
46873794,-0.021507,-0.006780,-0.020871,1.21,-1.86,8.38
46874792,0.012582,-0.022759,-0.018741,0.85,-0.27,9.70
46875801,0.001929,-0.006780,-0.014480,1.40,-1.43,8.79
46876817,0.005125,0.002807,-0.016610,0.92,0.73,9.74
46877817,0.001929,-0.003584,-0.018741,0.99,-0.38,10.33
46878827,0.008321,0.006003,-0.014480,0.80,1.22,10.51
46879837,-0.019377,0.008134,-0.011284,0.25,0.89,11.73
46880847,-0.001267,-0.007845,-0.016610,0.16,1.36,11.57
46881865,0.012582,0.000677,-0.010218,-0.58,2.00,11.94
46882879,-0.001267,0.018787,-0.011284,-0.55,1.53,12.44
46883878,-0.019377,0.002807,-0.019806,-1.02,2.10,11.56
46884887,-0.003397,-0.022759,-0.025132,-1.15,0.95,11.32
46885897,0.011516,-0.011041,-0.012349,-1.08,1.51,10.18
46886915,0.008321,0.006003,-0.012349,-1.46,0.66,9.78
46887917,0.018973,0.003873,-0.011284,-0.83,-0.74,9.55
46888927,0.001929,0.004938,-0.009153,-1.18,-0.16,8.66
46889937,-0.009789,0.009199,-0.005957,-0.18,-2.77,8.01
46890947,-0.008724,-0.006780,-0.014480,-0.16,-1.10,7.73
46891965,0.023235,-0.005715,-0.007023,0.25,-3.47,7.96
46892980,0.001929,0.007068,-0.005957,0.47,-1.65,7.95
46893978,0.001929,-0.000389,-0.014480,0.37,-2.40,9.27
46894987,-0.000202,-0.012107,-0.018741,1.05,-1.97,8.39
46895997,0.002994,0.002807,-0.011284,0.66,-0.90,10.01
46897015,0.000864,-0.003584,-0.009153,0.82,0.24,9.55
46898017,-0.002332,0.010264,-0.002762,1.27,-1.00,9.40
46899027,-0.002332,0.011330,-0.009153,0.92,1.10,9.88
46900037,-0.007659,-0.007845,-0.016610,0.42,0.30,11.26
46901047,0.000864,-0.004650,-0.016610,0.45,1.38,11.37
46902065,-0.016181,0.001742,-0.015545,-0.23,1.68,12.45
46903079,0.005125,-0.014237,-0.018741,-0.35,1.50,12.38
46904078,0.013647,-0.006780,-0.008088,-1.00,2.40,11.78
46905087,-0.005528,0.007068,-0.005957,-1.00,1.21,11.76
46906097,0.000864,0.004938,-0.008088,-1.12,1.86,10.66
46907115,0.004059,0.007068,-0.009153,-1.51,0.90,10.15
46908117,-0.004463,0.013460,-0.004892,-1.05,0.02,9.71
46909127,-0.006593,-0.005715,-0.010218,-1.33,0.12,8.75
46910137,0.014712,-0.008911,-0.000631,-0.29,-2.28,8.29
46911147,-0.001267,-0.002519,-0.002762,-0.44,-0.88,7.94
46912165,0.010451,-0.006780,-0.007023,0.12,-3.50,7.86
46913180,0.002994,-0.003584,-0.008088,0.33,-1.59,7.92
46914178,-0.003397,0.012395,-0.007023,0.47,-2.86,8.85
46915187,-0.012985,0.006003,-0.011284,0.98,-1.96,8.20
46916197,0.009386,0.004938,-0.001696,0.50,-1.26,9.80
46917215,-0.012985,0.011330,-0.000631,1.30,-1.83,8.42
46918217,0.005125,-0.002519,-0.003827,0.89,0.12,9.75
46919227,-0.000202,-0.006780,-0.005957,1.38,-1.36,9.21
46920237,-0.004463,-0.000389,-0.010218,0.95,0.89,9.71
46921247,-0.005528,-0.008911,-0.018741,0.65,0.06,10.96
46922265,0.009386,0.000677,-0.017675,0.59,1.40,11.13
46923279,-0.012985,0.008134,-0.014480,-0.13,1.55,12.38
46924278,0.000864,-0.002519,-0.013414,-0.17,1.41,12.41
46925287,0.000864,0.007068,-0.000631,-0.91,2.36,11.91
46926297,-0.005528,0.006003,-0.003827,-0.89,1.23,11.95
46927350,0.006190,-0.002519,-0.004892,-1.08,1.98,10.95
46928323,-0.000202,0.002807,-0.009153,-1.54,0.90,10.49
46929327,0.001929,-0.001454,-0.015545,-1.05,0.21,9.92
46930337,0.008321,-0.011041,-0.016610,-1.28,0.26,8.86
46931347,0.007255,-0.000389,-0.007023,-0.31,-2.25,8.29
46932365,-0.001267,-0.000389,-0.010218,-0.55,-0.79,7.90
46933381,0.013647,0.004938,-0.000631,0.05,-3.51,7.83
46934378,-0.012985,0.008134,-0.001696,0.28,-1.57,7.79
46935387,0.001929,-0.002519,-0.002762,0.48,-2.87,8.73
46936397,-0.004463,-0.002519,-0.004892,1.02,-1.88,8.10
46937415,0.002994,-0.000389,-0.011284,0.43,-1.25,9.91
46938417,0.002994,-0.012107,-0.016610,1.29,-1.74,8.35
46939427,0.011516,-0.002519,-0.012349,0.87,0.29,9.74
46940437,-0.004463,-0.001454,-0.010218,1.36,-1.29,9.17
46941447,0.015778,-0.003584,-0.003827,0.97,1.05,9.77
46942465,-0.004463,0.009199,0.000434,0.50,0.14,11.19
46943479,0.000864,0.000677,-0.005957,0.46,1.56,11.37
46944478,-0.002332,0.001742,-0.000631,-0.19,1.59,12.43
46945487,-0.010854,-0.001454,-0.005957,-0.22,1.29,12.32
46946497,0.002994,-0.009976,-0.011284,-1.09,2.50,11.80
46947515,0.004059,0.002807,-0.014480,-1.16,1.34,11.88
46948517,0.002994,-0.000389,-0.015545,-1.11,1.80,10.97
46949527,-0.001267,-0.008911,-0.010218,-1.47,0.61,10.18
46950558,-0.003397,0.003873,-0.002762,-1.02,-0.21,9.64
46951547,-0.000202,0.008134,-0.009153,-1.33,0.08,8.51
46952565,0.010451,0.019852,-0.001696,-0.29,-2.63,8.50
46953582,-0.009789,0.008134,-0.008088,-0.32,-1.11,7.89
46954582,0.005125,-0.006780,-0.003827,0.29,-3.83,7.51
46955596,-0.010854,-0.004650,-0.008088,0.43,-1.63,7.70
46956603,0.001929,-0.000389,-0.012349,0.43,-2.62,8.94
46957621,-0.010854,0.006003,-0.013414,1.19,-1.99,8.13
46958620,-0.006593,0.011330,-0.012349,0.65,-0.97,10.07
46959636,-0.005528,0.004938,-0.014480,1.32,-1.74,8.55
46960651,0.009386,0.008134,-0.012349,0.95,0.66,9.76
46961659,0.004059,0.003873,-0.013414,1.34,-0.94,9.87
46962676,0.016843,-0.000389,-0.012349,0.98,1.32,9.92
46963693,-0.001267,0.000677,-0.010218,0.25,0.53,11.69
46964691,0.013647,-0.011041,-0.011284,0.27,1.59,11.60
46965693,0.001929,-0.003584,-0.005957,-0.40,2.02,12.34
46966706,-0.000202,-0.008911,-0.010218,-0.39,1.34,12.44
46967727,-0.003397,0.002807,-0.000631,-1.15,2.44,11.58
46968727,-0.015116,0.010264,-0.003827,-1.39,1.17,11.40
46969736,-0.006593,0.008134,0.001500,-1.11,1.45,10.71
46970747,-0.022573,0.008134,-0.003827,-1.44,0.52,9.59
46971752,-0.005528,0.000677,-0.009153,-0.72,-1.12,9.09
46972769,-0.000202,0.006003,-0.012349,-1.16,-0.22,8.37
46973780,0.010451,0.004938,-0.018741,-0.14,-3.16,7.93
46974782,0.004059,-0.004650,-0.020871,0.03,-1.41,7.73
46975791,0.008321,0.001742,-0.014480,0.50,-3.74,7.63
46976801,0.005125,0.006003,-0.013414,0.66,-1.85,7.82
46977817,0.015778,0.009199,-0.005957,0.31,-1.97,9.50
46978817,-0.006593,0.006003,-0.008088,1.32,-1.91,8.16
46979827,0.006190,-0.008911,-0.007023,0.86,-0.21,10.02
46980837,-0.005528,-0.004650,-0.004892,1.38,-1.55,8.90
46981847,0.007255,-0.012107,-0.004892,0.88,0.97,9.77
46982876,-0.006593,-0.004650,-0.004892,0.91,-0.31,10.72
46983868,-0.011920,-0.000389,-0.005957,0.80,1.56,10.43
46984877,-0.012985,0.006003,-0.003827,-0.05,1.13,12.11
46985887,-0.018311,0.013460,-0.005957,-0.22,1.64,12.21
46986897,-0.009789,0.007068,-0.007023,-0.93,2.38,12.06
46987915,-0.015116,0.008134,-0.008088,-0.72,1.19,12.25
46988917,0.007255,-0.001454,-0.011284,-1.11,2.20,11.11
46989927,0.013647,-0.000389,-0.012349,-1.61,0.90,10.50
46990937,0.021104,-0.005715,-0.015545,-1.13,0.40,10.38
46991947,0.010451,-0.009976,-0.016610,-1.34,0.18,8.90
46992977,0.016843,-0.002519,-0.013414,-0.25,-2.40,8.12
46993968,0.018973,0.007068,-0.012349,-0.59,-0.92,7.88
46994977,0.020039,0.010264,-0.007023,0.01,-3.64,7.85
46995987,-0.006593,-0.004650,-0.010218,0.35,-1.75,7.82
46996997,-0.000202,-0.015302,-0.009153,0.69,-3.14,8.26
46998015,0.002994,-0.004650,-0.011284,1.20,-1.95,7.86
46999017,-0.008724,-0.004650,-0.009153,1.30,-1.74,8.49
47000027,-0.005528,-0.022759,-0.009153,0.97,0.69,9.54
47001037,-0.014050,-0.011041,-0.008088,1.39,-1.02,9.73
47002047,0.006190,-0.002519,-0.007023,0.92,1.47,10.23
47003076,-0.012985,0.017721,0.003630,0.16,0.61,12.11
47004068,-0.011920,0.008134,-0.002762,0.18,1.67,11.80
47005077,-0.017246,0.004938,-0.000631,-0.46,2.10,12.26
47006087,-0.006593,-0.013172,-0.008088,-0.40,1.36,12.49
47007097,-0.007659,-0.005715,-0.002762,-1.19,2.45,11.48
47008115,-0.012985,-0.000389,-0.009153,-1.53,1.07,11.27
47009117,-0.012985,0.011330,-0.000631,-1.16,1.20,10.73
47010127,-0.025768,0.000677,-0.005957,-1.43,0.45,9.31
47011137,-0.021507,-0.000389,0.002565,-0.50,-1.68,8.87
47012147,-0.030029,0.003873,-0.003827,-0.93,-0.71,8.06
47013177,-0.010854,0.012395,0.001500,0.03,-3.75,7.31
47014168,-0.015116,0.008134,-0.007023,0.21,-1.54,7.68
47015177,-0.007659,-0.004650,-0.004892,0.49,-3.24,8.24
47016187,-0.028964,-0.013172,-0.009153,1.00,-2.09,7.81
47017197,-0.016181,-0.008911,-0.001696,0.50,-1.54,9.72
47018215,-0.017246,0.012395,-0.001696,1.45,-1.75,8.41
47019217,-0.003397,0.018787,0.000434,0.93,0.38,10.51
47020244,-0.031095,0.010264,0.001500,1.39,-1.14,9.80
47021237,-0.027899,-0.016368,-0.001696,0.97,1.26,9.09
47022247,-0.023638,-0.007845,-0.003827,0.45,0.25,10.90
47023278,-0.000202,0.002807,-0.009153,0.29,2.07,11.86
47024268,-0.012985,0.014525,-0.001696,-0.48,1.93,13.01
47025277,-0.023638,-0.007845,-0.005957,-0.40,1.13,12.82
47026287,-0.028964,-0.005715,-0.001696,-1.28,2.59,11.44
47027297,-0.015116,-0.006780,-0.010218,-1.32,1.22,11.15
47028315,-0.010854,0.008134,-0.000631,-1.09,1.41,10.82
47029317,-0.015116,0.006003,-0.005957,-1.54,0.41,9.51
47030344,-0.015116,0.000677,-0.000631,-0.68,-1.59,9.20
47031337,-0.018311,-0.014237,-0.009153,-1.04,-0.61,7.95
47032347,-0.008724,-0.015302,-0.005957,0.08,-3.66,7.12
47033378,-0.012985,-0.000389,-0.011284,0.24,-1.60,7.59
47034368,-0.001267,0.010264,-0.010218,0.49,-3.55,8.04
47035377,-0.010854,0.007068,-0.010218,0.92,-2.05,7.77
47036387,0.001929,-0.013172,-0.009153,0.46,-1.50,9.77
47037397,-0.004463,-0.017433,-0.008088,1.47,-1.77,8.18
47038415,0.012582,-0.011041,-0.014480,0.98,0.53,9.67
47039417,0.018973,0.001742,-0.017675,1.39,-1.29,9.60
47040444,0.034953,0.006003,-0.016610,0.89,1.49,10.59
47041437,0.017908,-0.012107,-0.014480,0.40,0.53,12.15
47042447,0.006190,-0.016368,-0.011284,0.49,1.51,11.09
47043478,0.028561,-0.006780,-0.008088,-0.53,2.04,11.82
47044468,0.040279,0.021982,-0.004892,-0.63,1.78,12.50
47045477,0.034953,0.013460,-0.008088,-1.25,2.36,11.85
47046487,-0.005528,-0.008911,-0.009153,-1.38,0.79,11.39
47047497,0.006190,-0.018498,-0.008088,-1.04,1.31,10.41
47048515,0.002994,-0.003584,-0.010218,-1.41,0.42,9.07
47049517,0.009386,0.017721,-0.002762,-0.53,-1.86,9.17
47050544,-0.020442,0.016656,-0.005957,-0.94,-0.80,8.16
47051537,-0.024703,0.008134,0.000434,0.13,-3.82,7.20
47052547,-0.035356,-0.006780,-0.007023,0.39,-1.58,7.39
47053582,-0.019377,-0.009976,-0.002762,0.64,-3.34,7.85
