time_us,gyro_x_rad_s,gyro_y_rad_s,gyro_z_rad_s,acc_x_m_s2,acc_y_m_s2,acc_z_m_s2
547268365,0.004453,-0.003102,0.002277,0.04,-0.28,9.84
547269077,0.002144,-0.002864,0.000135,0.03,-0.33,9.85
547269594,-0.001051,-0.001797,-0.000929,0.04,-0.31,9.80
547270509,-0.004245,0.000333,-0.001994,0.06,-0.28,9.74
547271523,-0.006369,0.003526,-0.000928,0.05,-0.28,9.79
547272525,-0.004235,0.003522,0.000138,0.02,-0.23,9.85
547273544,-0.003166,0.000326,0.003330,0.04,-0.27,9.85
547274544,-0.002099,-0.000739,0.003327,0.04,-0.30,9.85
547275567,-0.001032,-0.000738,-0.000934,0.03,-0.29,9.83
547276565,-0.001031,0.000327,-0.003061,0.03,-0.29,9.80
547277581,0.000034,0.001391,-0.003058,0.04,-0.26,9.82
547278585,0.000034,-0.000739,-0.001991,0.01,-0.29,9.84
547279601,-0.002095,-0.000738,-0.000924,0.02,-0.32,9.82
547280605,-0.002092,-0.000737,0.002269,0.05,-0.29,9.82
547281621,-0.003155,0.000328,0.003331,0.06,-0.26,9.84
547282625,-0.002087,0.001391,0.000135,0.06,-0.30,9.85
547283639,-0.001021,0.000326,-0.000929,0.05,-0.33,9.79
547284645,0.000044,-0.002867,-0.001993,0.03,-0.29,9.75
547285667,0.001109,-0.003928,-0.000926,0.00,-0.28,9.81
547286665,0.000043,-0.000732,0.000139,0.04,-0.27,9.86
547287681,0.000043,0.002462,0.001203,0.06,-0.28,9.89
547288685,0.000043,0.002459,0.001202,0.03,-0.29,9.90
547289703,-0.002085,0.001392,0.000136,0.03,-0.27,9.86
547290705,-0.003147,0.000327,0.000136,0.06,-0.25,9.81
547291721,0.000048,0.000326,0.000136,0.06,-0.26,9.77
547292725,0.003241,0.000326,0.001200,0.04,-0.29,9.76
547293741,0.002173,0.001390,0.001199,0.04,-0.29,9.80
547294745,-0.001021,0.001389,0.002262,0.04,-0.29,9.79
547295767,-0.004213,0.000323,0.001195,0.04,-0.33,9.75
547296765,-0.003144,-0.000742,-0.000934,0.05,-0.30,9.75
547297781,-0.002077,-0.000741,-0.001998,0.00,-0.26,9.79
547298785,-0.001011,-0.001804,0.000133,0.00,-0.27,9.79
547299801,-0.001010,-0.001802,0.001197,0.04,-0.29,9.83
547300805,0.000055,-0.000736,0.001196,0.07,-0.30,9.88
547301821,0.000055,0.002457,-0.000934,0.03,-0.30,9.84
547302825,-0.001009,0.003519,-0.003061,0.01,-0.29,9.75
547303841,-0.001008,0.001387,-0.001994,0.06,-0.29,9.77
547304845,-0.002071,0.000321,0.001201,0.05,-0.31,9.78
547305867,-0.001005,0.000321,0.001199,0.05,-0.28,9.75
547306865,0.001125,0.001385,0.001198,0.07,-0.28,9.78
547307881,0.003252,0.000319,0.000133,0.04,-0.28,9.83
547308885,0.003249,0.000319,0.000133,0.03,-0.26,9.80
547309903,0.001117,0.000318,0.001197,0.03,-0.29,9.74
547310902,0.000052,0.000318,0.002260,0.03,-0.30,9.76
547311921,-0.001013,-0.000746,0.002257,0.00,-0.30,9.79
547312925,-0.001012,-0.000746,0.001191,0.01,-0.30,9.79
547313941,0.000054,-0.000745,-0.002003,0.05,-0.27,9.79
547314945,0.000054,-0.000744,-0.004129,0.07,-0.28,9.82
547315967,0.001118,-0.001808,-0.004125,0.07,-0.30,9.85
547316962,0.002181,-0.001806,-0.003057,0.04,-0.31,9.84
547317981,0.002179,-0.000740,-0.000925,0.01,-0.32,9.80
547318985,0.002176,-0.000739,0.000140,0.00,-0.33,9.81
547320001,0.004303,-0.000738,0.000140,0.02,-0.32,9.85
547321005,0.005362,-0.000738,0.000140,0.03,-0.32,9.77
547322021,0.005357,-0.000737,0.001204,0.05,-0.31,9.75
547323025,0.003223,0.000328,0.001202,0.04,-0.28,9.84
547324041,-0.001037,0.001392,-0.000927,0.02,-0.31,9.86
547325045,-0.003164,0.001391,-0.003055,0.03,-0.34,9.83
547326067,-0.002097,0.002453,-0.003052,0.03,-0.30,9.84
547327065,0.000034,0.002451,-0.000920,0.02,-0.29,9.81
547328081,0.001098,0.000320,0.000145,0.02,-0.30,9.79
547329085,0.001097,0.000320,-0.000919,0.00,-0.27,9.80
547330103,-0.001033,-0.000745,-0.000918,0.03,-0.28,9.81
547331127,-0.002096,-0.002872,0.000147,0.04,-0.30,9.82
547332140,-0.002094,-0.002869,0.001211,0.05,-0.31,9.78
547333139,-0.002092,-0.000738,0.000145,0.05,-0.30,9.79
547334141,-0.001025,-0.000737,0.000145,0.04,-0.28,9.86
547335145,-0.001024,-0.001801,0.001209,0.05,-0.28,9.88
547336165,-0.003152,-0.002863,0.001208,0.05,-0.28,9.85
547337163,-0.004213,-0.000732,0.002271,0.02,-0.27,9.82
547338189,-0.001016,0.000333,0.000140,0.01,-0.28,9.79
547339184,0.000049,0.001397,0.000140,0.04,-0.31,9.81
547340202,0.001114,0.002460,0.002269,0.06,-0.31,9.78
547341204,0.002177,0.003521,0.002266,0.04,-0.30,9.82
547342222,0.000046,0.002454,0.001200,0.01,-0.32,9.83
547343224,-0.002082,0.000323,-0.001994,0.03,-0.31,9.75
547344242,-0.001016,-0.001806,-0.003056,0.05,-0.30,9.79
547345244,0.000049,-0.001804,-0.001989,0.08,-0.32,9.83
547346267,-0.001015,0.001390,0.000141,0.07,-0.31,9.80
547347264,-0.002078,0.004581,0.002270,0.03,-0.30,9.77
547348282,-0.002076,0.003513,0.002267,0.02,-0.27,9.76
547349308,-0.001010,0.001381,0.001201,0.04,-0.24,9.76
547350317,0.000055,-0.000749,-0.000929,0.04,-0.26,9.79
547351337,0.001120,0.000316,-0.001992,0.04,-0.29,9.86
547352343,0.002183,0.002444,-0.004118,0.06,-0.31,9.88
547353340,0.002180,0.002441,-0.003050,0.06,-0.30,9.90
547354346,0.001114,0.000311,-0.001983,0.07,-0.30,9.87
547355348,-0.001016,-0.001818,-0.001981,0.07,-0.29,9.81
547356370,0.000050,-0.002881,-0.001979,0.06,-0.30,9.81
547357369,0.001114,-0.001813,-0.001977,0.04,-0.28,9.84
547358384,0.001113,0.000317,-0.003039,-0.02,-0.31,9.86
547359419,0.000047,0.000316,-0.003036,-0.02,-0.32,9.85
547360439,0.000047,0.000316,-0.000904,0.01,-0.27,9.89
547361437,0.000047,-0.000748,0.000161,0.04,-0.25,9.86
547362470,0.001111,-0.001812,0.001225,0.02,-0.27,9.74
547363457,0.001110,-0.000746,0.001224,0.05,-0.28,9.78
547364467,0.002173,0.000319,0.001222,0.05,-0.28,9.81
547365482,0.002171,-0.000745,0.002285,0.05,-0.28,9.82
547366496,0.002169,-0.002873,0.001219,0.06,-0.30,9.78
547367499,0.000038,-0.002870,-0.001975,0.07,-0.30,9.80
547368480,-0.002090,-0.000739,-0.001973,0.05,-0.29,9.79
547369492,-0.001024,0.001390,0.000157,0.04,-0.29,9.77
547370496,0.001106,0.001389,0.001221,0.07,-0.28,9.83
547371515,0.001105,-0.000741,0.000156,0.07,-0.26,9.81
547372518,0.000039,-0.002868,-0.001973,0.08,-0.31,9.83
547373535,0.001103,-0.002866,-0.000906,0.07,-0.33,9.83
547374567,0.000038,-0.003927,0.000159,0.04,-0.27,9.80
547375586,0.000038,-0.003923,0.001223,0.04,-0.27,9.82
547376555,0.001102,-0.001790,-0.000907,0.06,-0.31,9.85
547377600,0.000037,-0.000724,-0.003035,0.06,-0.30,9.81
547378610,0.000037,0.001405,-0.001967,0.06,-0.28,9.79
547379592,0.000037,0.003532,-0.000901,0.07,-0.31,9.79
547380594,-0.002092,0.002464,-0.000900,0.06,-0.32,9.82
547381612,-0.003154,0.001397,0.000165,0.07,-0.31,9.82
547382614,-0.003151,0.000332,0.000165,0.05,-0.32,9.82
547383632,-0.001019,0.000331,-0.000900,0.03,-0.31,9.82
547384634,0.001110,-0.001797,-0.000899,0.04,-0.31,9.82
547385657,0.002173,-0.001796,-0.001962,0.04,-0.28,9.82
547386654,0.003235,-0.001794,-0.001960,0.04,-0.29,9.79
547387672,0.003232,0.000336,0.000170,0.04,-0.31,9.78
547388674,0.001101,0.000336,0.000170,0.04,-0.31,9.78
547389692,-0.002093,-0.001793,-0.001958,0.04,-0.29,9.78
547390696,-0.004219,-0.003919,-0.001956,0.02,-0.29,9.81
547391712,-0.002087,-0.001787,-0.001954,0.03,-0.31,9.86
547392714,0.001108,0.001408,-0.001952,0.05,-0.29,9.83
547393732,0.001107,0.002470,-0.000886,0.06,-0.29,9.78
547394734,0.001106,0.001404,0.001243,0.09,-0.28,9.83
547395757,-0.001024,0.000338,0.000178,0.07,-0.27,9.88
547396754,-0.003151,0.000338,0.000177,0.02,-0.29,9.81
547397772,-0.002084,0.000337,0.001241,0.03,-0.29,9.73
547398772,-0.001018,0.000337,0.002304,0.09,-0.30,9.75
547399792,-0.001016,0.001401,0.002302,0.08,-0.29,9.78
547400794,0.000049,0.003528,0.002300,0.04,-0.28,9.76
547401812,0.000049,0.004588,0.002297,0.03,-0.28,9.82
547402814,0.000049,0.001391,0.002295,0.04,-0.30,9.83
547403832,0.002177,0.001390,0.002293,0.04,-0.29,9.76
547404834,0.002175,0.002453,0.003355,0.04,-0.31,9.77
547405857,-0.001020,0.003514,0.002287,0.04,-0.32,9.80
547406854,-0.001019,0.002447,-0.000908,0.06,-0.29,9.83
547407872,-0.001018,-0.000749,-0.003035,0.06,-0.30,9.84
547408874,-0.002081,-0.002876,-0.001968,0.05,-0.29,9.84
547409892,-0.003143,-0.001809,-0.000902,0.04,-0.30,9.83
547410896,-0.001012,0.001385,-0.001965,0.04,-0.33,9.82
547411912,0.000054,0.002448,0.000165,0.04,-0.34,9.81
547412914,0.000054,0.001381,0.002293,0.05,-0.30,9.78
547413932,-0.001011,0.000316,0.003355,0.04,-0.30,9.80
547414934,0.000054,0.001380,0.002288,0.02,-0.32,9.85
547415957,0.000054,0.002443,0.002285,0.02,-0.32,9.87
547416954,0.000054,0.001376,0.002283,0.03,-0.33,9.84
547417972,0.000054,-0.000754,0.001217,0.07,-0.33,9.78
547418974,0.000054,-0.001817,0.000151,0.10,-0.32,9.80
547419992,0.000054,-0.000751,-0.001977,0.09,-0.32,9.83
547420994,0.000054,0.001378,-0.003040,0.03,-0.29,9.78
547422012,0.000054,0.002441,-0.000908,0.02,-0.26,9.78
547423014,-0.001010,0.002438,0.000157,0.03,-0.28,9.83
547424032,0.000055,0.001372,0.000157,0.01,-0.30,9.81
547425034,0.001119,-0.001822,-0.001972,0.00,-0.30,9.82
547426057,0.003247,-0.002885,0.000159,-0.01,-0.30,9.80
547427054,0.002179,-0.001818,0.003351,0.00,-0.28,9.77
547428072,0.002177,0.001377,0.003348,0.02,-0.28,9.77
547429074,0.002175,-0.000753,0.001216,0.02,-0.31,9.74
547430092,0.000044,-0.005009,0.000151,0.03,-0.31,9.82
547431096,-0.002084,-0.002876,-0.003042,0.03,-0.34,9.87
547432112,-0.002082,0.001384,-0.003039,0.04,-0.34,9.85
547433114,0.000048,0.003511,-0.001972,0.06,-0.31,9.86
547434132,0.000048,0.002443,-0.001970,0.03,-0.30,9.87
547435134,0.001112,0.002441,-0.000904,0.02,-0.30,9.85
547436157,0.003240,0.002438,-0.000903,0.02,-0.31,9.83
547437154,0.003236,0.001372,-0.001966,0.04,-0.30,9.80
547438172,0.003233,0.000306,-0.000900,0.03,-0.28,9.77
547439174,0.001101,0.001370,-0.000899,0.02,-0.29,9.77
547440192,-0.003157,0.001369,-0.000898,0.04,-0.30,9.79
547441194,-0.004218,-0.000761,-0.000897,0.05,-0.31,9.82
547442212,-0.002085,-0.001825,-0.001960,0.04,-0.31,9.81
547443214,-0.001019,-0.002887,-0.001958,0.04,-0.31,9.79
547444232,0.001111,-0.000756,-0.001956,0.06,-0.30,9.80
547445234,0.001110,0.000309,-0.000890,0.04,-0.29,9.81
547446257,0.001109,0.000309,0.001239,0.02,-0.30,9.82
547447254,0.001107,0.000309,0.001238,0.04,-0.33,9.82
547448272,0.001106,0.000308,-0.001956,0.04,-0.32,9.82
547449275,0.001105,-0.000756,-0.003018,0.03,-0.32,9.82
547450296,0.002168,0.000309,-0.000887,0.04,-0.34,9.77
547451297,0.004295,0.001373,0.001242,0.04,-0.35,9.76
547452315,0.003226,0.001371,0.000177,0.04,-0.34,9.74
547453317,0.001094,0.000306,-0.000887,0.03,-0.31,9.75
547454337,0.001093,-0.000759,-0.001951,0.02,-0.30,9.81
547455339,0.002156,-0.000758,-0.001949,0.04,-0.29,9.82
547456411,0.002154,0.001371,-0.000883,0.05,-0.29,9.80
547457362,0.000024,0.002434,-0.001946,0.05,-0.29,9.78
547458391,0.000024,0.001367,0.000185,0.06,-0.28,9.83
547459382,0.001088,0.000302,0.000184,0.06,-0.28,9.84
547460397,0.002151,0.000301,0.000184,0.04,-0.31,9.81
547461401,0.001084,0.000301,0.000184,0.04,-0.33,9.81
547462435,0.003212,0.001365,0.001248,0.04,-0.30,9.80
547463419,0.004273,0.000299,0.000183,0.01,-0.33,9.80
547464440,0.002140,-0.000765,-0.000882,0.04,-0.30,9.82
547465443,0.001074,-0.000764,-0.000881,0.08,-0.28,9.80
547466469,0.001073,0.000301,0.001248,0.04,-0.27,9.81
547467461,0.001071,0.001365,0.000183,0.05,-0.27,9.86
547468521,0.001070,-0.001829,-0.000881,0.04,-0.27,9.85
547469479,-0.001059,-0.003956,0.000184,0.01,-0.29,9.86
547470492,-0.002122,-0.003952,0.001248,0.01,-0.30,9.82
547471496,-0.001056,-0.002884,0.000182,0.04,-0.29,9.79
547472515,0.000009,-0.003945,-0.000882,0.07,-0.30,9.82
547473516,0.001073,-0.003941,-0.000881,0.06,-0.32,9.82
547474535,0.001072,-0.002873,-0.000880,0.01,-0.30,9.79
547475550,0.002136,-0.001806,0.001249,0.02,-0.27,9.81
547476544,0.001069,-0.002868,0.002312,0.04,-0.29,9.78
547477561,0.001068,-0.003930,0.001245,0.01,-0.30,9.82
547478565,0.000003,-0.002861,0.001244,0.01,-0.32,9.83
547479581,0.000003,-0.002859,0.000179,0.00,-0.30,9.76
547480585,-0.001061,-0.002856,-0.001950,0.04,-0.28,9.82
547481601,0.001068,-0.002853,-0.003012,0.07,-0.31,9.82
547482605,0.003195,-0.001786,-0.000881,0.06,-0.30,9.78
547483621,0.003192,-0.002848,0.002313,0.06,-0.28,9.81
547484622,0.002125,-0.001781,0.003375,0.06,-0.28,9.86
547485645,0.002123,-0.000715,0.003371,0.04,-0.30,9.85
547486642,0.002120,0.000350,0.001239,0.03,-0.31,9.81
547487661,0.001054,0.000350,-0.000890,0.01,-0.30,9.79
547488665,0.001053,-0.000715,-0.003018,0.03,-0.30,9.81
547489681,0.001052,-0.000714,-0.001950,0.05,-0.30,9.84
547490685,0.001051,0.001415,-0.000884,0.07,-0.33,9.86
547491703,-0.000014,0.002478,0.000181,0.06,-0.32,9.86
547492705,-0.001079,0.002475,-0.000884,0.06,-0.30,9.87
547493721,-0.000013,0.001408,-0.000883,0.06,-0.30,9.89
547494725,0.001051,0.000343,-0.001946,0.06,-0.30,9.81
547495747,0.002114,0.000343,-0.001944,0.04,-0.31,9.75
547496745,0.001048,-0.000722,-0.000878,0.01,-0.33,9.77
547497761,-0.001082,-0.000721,-0.000877,0.05,-0.32,9.80
547498765,-0.003209,-0.000721,-0.001940,0.07,-0.32,9.85
547499781,-0.002142,-0.001784,-0.003003,0.07,-0.34,9.83
547500785,-0.000011,-0.000718,-0.000871,0.08,-0.32,9.82
547501801,-0.000011,0.000347,0.000194,0.07,-0.28,9.83
547502805,0.001053,0.001411,-0.000870,0.08,-0.28,9.82
547503821,0.002116,0.001409,-0.001934,0.07,-0.28,9.84
547504825,0.002114,0.001408,-0.001932,0.05,-0.29,9.82
547505847,0.001048,0.000342,-0.002994,0.05,-0.32,9.81
547506845,0.002111,0.000342,-0.001927,0.04,-0.33,9.81
547507861,0.001045,0.003534,-0.000861,0.01,-0.31,9.80
547508865,0.003172,0.003531,-0.000860,0.03,-0.32,9.80
547509881,0.003169,0.001399,0.001269,0.02,-0.28,9.81
547510885,0.001037,-0.000731,0.001268,0.03,-0.25,9.82
547511903,0.001036,-0.001795,-0.000862,0.05,-0.29,9.78
547512905,0.002099,0.000336,-0.001925,0.05,-0.30,9.78
547513919,0.002097,0.002464,-0.000859,0.05,-0.28,9.78
547514922,0.002095,0.001397,0.000206,0.05,-0.28,9.77
547515947,0.002093,-0.000733,0.001270,0.04,-0.30,9.80
547516942,-0.001102,-0.001796,0.000205,0.04,-0.31,9.80
547517961,-0.003229,-0.001795,-0.002988,0.04,-0.30,9.77
547518965,-0.002162,0.000336,-0.002985,0.01,-0.27,9.77
547519981,-0.001095,0.000335,-0.001918,0.02,-0.24,9.83
547520985,-0.003222,-0.000729,0.000213,0.00,-0.26,9.87
547522001,-0.003219,0.000336,0.001277,0.05,-0.30,9.88
547523005,-0.002152,0.000335,0.000211,0.09,-0.31,9.88
547524021,-0.002150,0.000335,0.000211,0.06,-0.32,9.84
547525025,-0.002147,0.001399,0.000211,0.07,-0.30,9.78
547526047,-0.002145,0.000333,0.000210,0.05,-0.28,9.81
547527045,-0.001079,-0.001795,-0.000854,0.04,-0.30,9.86
547528061,0.001051,-0.000729,-0.002981,0.04,-0.31,9.85
547529065,-0.000015,0.001400,-0.002978,0.05,-0.30,9.84
547530081,-0.001079,0.001398,-0.001911,0.04,-0.31,9.77
547531085,-0.001078,0.002461,-0.000845,0.02,-0.28,9.75
547532103,-0.001077,0.002459,-0.000844,0.02,-0.29,9.81
547533105,-0.001076,0.003520,-0.001908,0.02,-0.30,9.83
547534121,-0.002139,0.002453,0.000223,-0.01,-0.30,9.85
547535125,-0.003201,0.000322,-0.000842,0.01,-0.30,9.82
547536147,-0.004262,-0.000743,-0.000841,0.03,-0.30,9.80
547537145,-0.002129,-0.000742,-0.001904,0.03,-0.32,9.81
547538161,0.000002,-0.001806,-0.000838,0.04,-0.34,9.80
547539165,0.000002,-0.001804,0.000227,0.06,-0.32,9.78
547540181,0.000002,0.000327,0.001291,0.08,-0.28,9.79
547541185,0.001066,0.001390,0.000225,0.05,-0.27,9.79
547542201,0.002129,0.001389,-0.000839,0.03,-0.31,9.80
547543205,0.001063,0.000323,-0.000838,0.02,-0.31,9.82
547544221,-0.001067,0.000323,0.000227,0.05,-0.28,9.84
547545222,-0.002130,0.001387,0.000227,0.09,-0.28,9.80
547546247,-0.001064,0.001386,-0.000838,0.05,-0.31,9.73
547547245,-0.001063,-0.000744,0.000227,0.04,-0.31,9.77
547548261,-0.002126,-0.000744,0.000227,0.05,-0.30,9.77
547549265,-0.001059,0.000321,0.001291,0.04,-0.30,9.75
547550296,0.002134,0.001385,0.002354,0.03,-0.29,9.78
547551285,0.002132,0.002448,0.002352,0.04,-0.30,9.80
547552305,0.001066,0.002446,0.000221,0.04,-0.32,9.82
547553308,-0.001064,-0.000749,-0.000844,0.03,-0.32,9.84
547554325,0.000002,-0.000749,0.000221,0.03,-0.30,9.86
547555329,0.003194,0.001380,0.003414,0.05,-0.31,9.81
547556353,0.003191,0.001379,0.003410,0.05,-0.32,9.79
547557350,-0.000005,0.000314,-0.000850,0.04,-0.29,9.81
547558371,-0.001069,-0.001815,-0.001913,0.05,-0.27,9.77
547559372,-0.000004,-0.000749,-0.000847,0.05,-0.28,9.72
547560395,0.001060,0.001380,0.000218,0.04,-0.29,9.76
547561389,0.002124,0.001379,-0.000846,0.04,-0.26,9.78
547562408,-0.000007,0.000313,0.000219,0.06,-0.30,9.82
547563410,-0.002135,-0.001816,0.001283,0.04,-0.31,9.83
547564438,-0.004262,-0.000750,0.002345,0.04,-0.28,9.82
547565434,-0.004257,0.000315,-0.000850,0.05,-0.25,9.81
547566455,-0.002125,0.000315,-0.004041,0.04,-0.29,9.82
547567457,0.000006,0.000315,-0.002973,0.05,-0.34,9.81
547568467,0.000006,0.001379,-0.000842,0.07,-0.33,9.77
547569470,-0.002123,0.000313,0.001288,0.06,-0.29,9.81
547570536,-0.003185,-0.000752,0.003415,0.04,-0.28,9.87
547571489,-0.003181,0.000313,0.004475,0.03,-0.29,9.81
547572504,-0.001050,0.001377,0.002342,0.03,-0.29,9.78
547573506,0.000016,0.000312,0.001276,0.02,-0.30,9.79
547574523,0.000016,0.000311,0.001275,0.02,-0.31,9.75
547575541,-0.001049,0.002439,0.002338,0.02,-0.33,9.81
547576537,-0.001048,0.003501,0.001271,0.05,-0.33,9.86
547577551,0.000018,0.002433,0.000205,0.08,-0.29,9.83
547578554,0.000018,0.000303,-0.000859,0.07,-0.29,9.81
547579572,-0.001047,-0.001826,-0.000858,0.04,-0.30,9.81
547580584,-0.002110,-0.001824,-0.000857,0.03,-0.30,9.82
547581624,-0.003172,-0.000758,-0.001921,0.03,-0.28,9.85
547582632,-0.002104,0.000307,-0.002983,0.01,-0.27,9.84
547583612,-0.002102,0.002435,-0.002980,0.02,-0.26,9.78
547584635,-0.003164,0.002432,-0.000848,0.05,-0.26,9.88
547585637,-0.001033,0.001366,0.000217,0.08,-0.27,9.89
547586634,0.002161,0.001364,-0.000848,0.06,-0.26,9.80
547587652,0.003223,0.003492,-0.002975,0.05,-0.27,9.76
547588654,0.001091,0.003488,-0.002972,0.04,-0.29,9.77
547589672,0.000026,0.001356,0.000223,0.04,-0.28,9.80
547590684,0.001090,0.001355,0.001287,0.06,-0.30,9.80
547591692,0.002153,0.002417,0.002350,0.05,-0.28,9.82
547592696,0.001087,0.001351,0.001284,0.03,-0.25,9.86
547593712,-0.001043,-0.000779,-0.002974,0.01,-0.25,9.87
547594733,-0.002106,-0.002907,-0.002971,0.04,-0.28,9.81
547595755,-0.003168,-0.002904,-0.000840,0.06,-0.28,9.78
547596774,-0.002100,-0.000772,0.004482,0.05,-0.25,9.80
547597776,0.000030,0.000293,0.004477,0.06,-0.28,9.79
547598769,0.002159,0.002421,0.001280,0.05,-0.32,9.72
547599772,0.003221,0.003483,0.000215,0.06,-0.34,9.72
547600787,0.002153,0.001351,0.001279,0.06,-0.31,9.76
547601795,0.001087,-0.001843,0.003406,0.06,-0.29,9.77
547602807,0.002150,-0.002906,0.005531,0.06,-0.31,9.80
547603814,0.002148,-0.002903,0.004461,0.04,-0.30,9.81
547604820,0.002146,0.000293,0.001264,0.05,-0.28,9.82
547605855,0.002144,0.002421,0.000198,0.05,-0.30,9.85
547606856,0.001077,0.001354,0.000198,0.04,-0.29,9.81
547607889,0.000012,-0.000775,-0.000866,0.07,-0.27,9.79
547608879,-0.001052,-0.000775,-0.001930,0.07,-0.28,9.78
547609913,-0.002116,0.002419,-0.000863,0.03,-0.30,9.80
547610917,-0.002113,0.002416,-0.001927,0.01,-0.29,9.84
547611891,-0.002111,0.002414,-0.000861,0.05,-0.28,9.78
547612896,0.000019,0.003476,0.002333,0.07,-0.33,9.76
547613911,0.001084,0.002408,0.003395,0.05,-0.34,9.79
547614915,0.000018,-0.000787,0.003391,0.04,-0.32,9.78
547615937,0.000018,-0.000786,0.000195,0.04,-0.31,9.78
547616935,-0.001046,0.000279,-0.000869,0.05,-0.32,9.82
547617951,0.000019,0.000279,-0.001932,0.03,-0.33,9.83
547618977,0.001083,0.001343,-0.002995,-0.01,-0.29,9.85
547619971,0.001082,0.001341,-0.002992,0.01,-0.29,9.82
547620984,0.000017,0.000276,-0.000860,0.02,-0.29,9.78
547621991,0.000017,-0.000789,0.002333,0.04,-0.30,9.81
547622995,-0.001047,0.000276,0.003395,0.04,-0.31,9.77
547624011,-0.001046,0.001340,0.001263,0.01,-0.30,9.78
547625048,0.000019,0.000274,0.000198,0.02,-0.31,9.85
547626080,-0.001045,-0.000790,0.000198,0.05,-0.32,9.85
547627075,-0.001044,-0.000789,-0.000867,0.04,-0.31,9.81
547628051,0.001085,0.001340,-0.000866,0.04,-0.29,9.78
547629055,-0.001044,0.003467,-0.001929,0.07,-0.28,9.80
547630071,-0.005300,0.002400,-0.002991,0.10,-0.29,9.81
547631084,-0.006359,0.000269,-0.001924,0.10,-0.29,9.79
547632091,-0.003160,-0.001860,-0.000858,0.07,-0.29,9.78
547633096,0.001100,-0.001858,0.001271,0.04,-0.31,9.82
547634111,0.001099,0.000272,0.002334,0.04,-0.30,9.84
547635115,-0.002094,0.002400,0.002332,0.05,-0.29,9.79
547636162,-0.001028,0.002398,0.001265,0.06,-0.30,9.78
547637135,0.000037,0.001331,0.000200,0.05,-0.29,9.78
547638151,0.000037,0.001330,-0.000865,0.05,-0.29,9.80
547639155,-0.001027,0.000264,-0.000864,0.06,-0.30,9.81
547640171,-0.002090,-0.000800,-0.000863,0.05,-0.28,9.81
547641184,-0.003152,-0.000799,-0.000862,0.03,-0.29,9.88
547642191,-0.001021,-0.001863,-0.000861,0.03,-0.29,9.87
547643192,0.000044,-0.001861,0.001268,0.03,-0.28,9.81
547644209,0.000044,-0.001859,0.002331,0.02,-0.27,9.78
547645215,-0.002084,-0.000793,0.002329,0.01,-0.31,9.78
547646237,-0.002082,0.000272,0.002326,0.03,-0.31,9.81
547647235,0.000049,0.000272,0.000196,0.07,-0.29,9.84
547648249,0.003241,-0.000793,-0.000869,0.06,-0.31,9.84
547649252,0.003238,-0.001856,-0.000868,0.06,-0.30,9.81
547650269,0.000042,-0.002918,0.000197,0.05,-0.31,9.81
547651284,-0.003151,-0.001851,0.000197,0.06,-0.30,9.85
547652296,-0.002083,-0.001849,-0.000867,0.03,-0.29,9.84
547653297,-0.001017,-0.003976,-0.000867,0.02,-0.28,9.85
547654313,-0.001016,-0.002908,-0.000866,0.06,-0.27,9.85
547655323,0.000049,-0.001840,0.001264,0.06,-0.31,9.82
547656338,0.001113,-0.001839,0.002326,0.05,-0.29,9.85
547657339,0.000048,-0.001837,0.002324,0.05,-0.30,9.82
547658355,0.001112,-0.001835,0.002322,0.07,-0.33,9.80
547659359,0.000047,0.000295,0.001255,0.08,-0.33,9.83
547660377,-0.002082,0.001359,0.001254,0.06,-0.30,9.84
547661388,-0.001015,0.001358,-0.000876,0.05,-0.30,9.82
547662397,0.001114,-0.001836,-0.001939,0.04,-0.31,9.76
547663401,-0.001015,-0.000770,-0.000873,0.07,-0.31,9.80
547664418,-0.001014,0.001359,0.000192,0.04,-0.32,9.84
547665420,0.001115,0.002422,0.001256,0.05,-0.33,9.86
547666487,0.002178,0.002420,0.001255,0.06,-0.30,9.83
547667451,0.001112,0.002417,0.002318,0.06,-0.28,9.79
547668464,-0.002082,0.000286,0.001251,0.06,-0.28,9.80
547669461,-0.001016,-0.000778,0.000186,0.05,-0.29,9.80
547670477,0.000049,-0.000778,-0.000879,0.03,-0.30,9.81
547671488,-0.001015,-0.000777,-0.001942,0.03,-0.29,9.82
547672489,-0.002078,-0.001840,-0.004068,0.03,-0.30,9.80
547673536,-0.002076,-0.000774,-0.004064,0.04,-0.32,9.82
547674515,-0.002074,0.002419,-0.001932,0.06,-0.34,9.83
547675531,0.000057,0.003481,-0.001930,0.06,-0.33,9.85
547676527,0.001121,0.002413,-0.002992,0.07,-0.32,9.83
547677593,0.001120,0.000282,-0.002989,0.04,-0.31,9.81
547678520,-0.004207,-0.002913,-0.002989,0.04,-0.33,9.87
547679528,-0.027643,-0.016762,-0.009381,0.16,-0.38,9.86
547680538,-0.023382,-0.022088,-0.012577,0.13,-0.38,9.74
547681556,-0.007402,-0.009305,-0.016838,0.02,-0.40,9.71
547682555,0.007511,0.002413,-0.022164,0.10,-0.22,9.81
547683565,0.000055,0.006674,-0.027491,0.06,-0.14,9.76
547684576,-0.019121,0.006674,-0.031752,-0.08,-0.03,9.80
547685585,-0.012729,0.001348,-0.031752,-0.09,-0.14,9.84
547686607,-0.008468,-0.006109,-0.026425,-0.08,-0.34,9.85
547687608,0.017099,-0.007175,-0.010446,0.07,-0.41,9.84
547688615,0.034144,-0.000783,0.005533,0.34,-0.40,9.79
547689626,0.030948,0.007739,0.012990,0.27,-0.08,9.97
547690646,0.017099,0.006674,0.010860,-0.28,-0.16,9.93
547691648,0.007511,-0.007175,0.007664,-0.38,-0.58,9.74
547692658,0.006446,-0.017827,0.014055,0.45,-0.40,9.61
547693668,-0.006337,-0.007175,0.020447,0.49,0.39,9.73
547694679,-0.013794,0.020523,0.011925,-0.35,-0.92,9.95
547695698,-0.003141,0.010935,0.006598,-0.42,-0.69,10.01
547696700,0.014968,-0.024219,0.012990,0.65,0.61,9.32
547697708,-0.016990,0.001348,0.014055,-0.04,-1.03,9.65
547698718,-0.026577,0.043959,0.014055,-0.68,-0.83,10.32
547699729,-0.014859,-0.007175,0.011925,0.90,0.56,9.95
547700743,0.007511,-0.030611,0.010860,-0.41,-0.79,10.63
547701745,0.001120,0.014131,0.018317,-0.30,-0.22,9.52
547702755,-0.020186,0.006674,0.016186,0.83,-0.09,9.13
547703765,0.011773,-0.007175,0.012990,-0.42,-1.27,9.84
547704776,-0.001011,-0.006109,0.011925,0.63,0.64,8.86
547705796,-0.002076,0.036502,0.008729,-0.31,-0.67,10.39
547706798,-0.034034,0.002413,0.008729,0.12,-0.32,9.68
547707805,-0.016990,-0.028480,0.001272,0.20,0.16,9.46
547708815,-0.003141,-0.008240,0.000207,0.03,-0.26,10.79
547709826,0.005381,-0.011436,-0.011511,-0.04,-0.03,9.51
547710835,0.002185,0.012001,-0.009381,-0.37,-0.09,10.59
547711845,-0.006337,-0.006109,-0.015772,0.68,-0.14,9.36
547712855,0.005381,-0.001848,-0.008315,-0.31,-0.42,9.70
547713865,0.041600,0.001348,-0.009381,0.18,-0.09,9.56
547714876,0.025621,-0.013566,-0.002989,-0.05,-0.68,8.97
547715896,0.021360,-0.024219,-0.005120,0.33,-0.11,9.57
547716898,-0.015925,-0.023154,-0.005120,0.00,-0.73,9.54
547717905,0.000055,0.002413,-0.000858,-0.36,-0.25,11.21
547718915,-0.011664,-0.005044,-0.000858,-0.15,0.00,9.91
547719926,-0.018055,-0.012501,0.000207,-0.52,-0.66,9.93
547720935,-0.002076,0.001348,-0.002989,0.69,-0.35,9.83
547721945,0.009642,0.009870,-0.001924,0.09,-0.40,9.41
547722955,0.014968,0.015196,0.001272,-0.61,-0.36,9.78
547723965,0.002185,0.013066,-0.000858,0.45,-0.18,9.42
547724976,-0.024447,-0.005044,-0.002989,-0.10,-0.65,9.44
547725996,-0.003141,-0.009305,0.001272,-0.24,-0.17,10.15
547726998,0.006446,0.003478,0.003403,0.63,0.12,10.06
547728005,-0.020186,0.004544,0.004468,-0.08,-0.69,9.94
547729015,-0.013794,-0.006109,0.010860,-0.27,-0.16,10.14
547730026,0.019230,0.000282,0.016186,0.70,0.07,9.70
547731035,0.017099,0.006674,0.017251,0.01,-0.28,9.36
547732045,-0.003141,0.006674,0.015121,-0.45,-0.62,9.34
547733055,-0.012729,0.003478,0.014055,0.71,0.06,9.90
547734065,0.001120,-0.006109,0.012990,0.22,-0.09,9.65
547735076,0.007511,-0.007175,0.009794,-0.63,-0.82,9.92
547736096,-0.011664,-0.005044,0.006598,0.10,-0.15,10.35
547737098,-0.011664,0.000282,0.005533,0.62,0.01,9.91
547738105,-0.002076,0.013066,0.005533,-0.06,-0.40,9.60
547739115,0.002185,0.015196,0.002337,-0.62,-0.89,9.78
547740126,0.006446,0.001348,-0.004054,-0.04,-0.06,10.09
547741135,0.013903,-0.003979,-0.008315,0.69,0.12,9.59
547742145,-0.025512,-0.001848,-0.010446,0.21,-0.52,9.38
547743155,-0.024447,-0.013566,-0.010446,-0.62,-0.63,9.90
547744165,-0.002076,-0.028480,-0.010446,-0.24,-0.36,9.92
547745176,-0.005272,-0.039133,-0.012577,0.56,0.21,9.92
547746196,-0.011664,-0.027415,-0.009381,0.61,-0.31,10.13
547747204,0.002185,-0.007175,-0.002989,-0.24,-0.48,9.80
547748205,0.013903,0.004544,0.002337,-0.56,-0.66,9.40
547749215,0.018164,0.005609,0.002337,-0.17,-0.11,9.91
547750226,0.016034,0.001348,0.003403,0.63,0.32,9.96
547751235,0.002185,-0.000783,0.003403,0.68,-0.52,9.82
547752245,-0.002076,-0.006109,0.003403,-0.32,-0.51,9.58
547753255,0.002185,-0.006109,0.003403,-0.60,-0.65,9.29
547754265,0.003250,-0.005044,0.004468,-0.29,-0.25,9.88
547755277,-0.004207,-0.006109,0.007664,0.26,0.13,10.31
547756301,-0.004207,-0.003979,0.008729,0.75,-0.35,10.38
547757302,0.001120,-0.000783,0.005533,0.39,-0.30,10.14
547758309,-0.002076,0.007739,0.005533,-0.39,-0.41,9.38
547759322,-0.004207,0.013066,0.007664,-0.55,-0.81,9.12
547760334,-0.002076,0.010935,0.007664,-0.24,-0.43,9.50
547761341,-0.006337,0.007739,0.005533,0.22,0.09,9.82
547762354,-0.012729,0.002413,0.001272,0.66,-0.03,10.21
547763365,0.007511,0.000282,0.003403,0.14,-0.22,10.07
547764377,-0.009533,0.001348,0.002337,-0.44,-0.58,9.28
547765386,-0.022316,-0.002913,-0.001924,-0.55,-0.68,9.38
547766401,-0.016990,-0.007175,-0.001924,-0.35,-0.39,9.48
547767405,-0.007402,-0.005044,-0.002989,-0.09,-0.02,9.75
547768410,-0.007402,-0.007175,-0.008315,0.47,0.16,10.14
547769421,-0.008468,-0.008240,-0.008315,0.78,0.04,10.51
547770433,-0.005272,-0.008240,-0.007250,0.43,-0.07,10.62
547771443,-0.009533,-0.001848,-0.004054,0.07,-0.45,9.73
547772449,0.002185,-0.002913,-0.001924,-0.12,-0.68,9.07
547773459,-0.002076,0.002413,-0.004054,-0.52,-0.76,9.22
547774468,-0.007402,0.004544,-0.001924,-0.61,-0.72,9.38
547775503,0.003250,-0.000783,0.004468,-0.23,-0.27,9.55
547776500,0.018164,-0.006109,0.008729,0.02,0.17,9.97
547777501,0.018164,-0.008240,0.008729,0.32,0.16,10.18
547778507,0.008577,-0.007175,0.008729,0.66,-0.13,10.50
547779515,0.006446,-0.008240,0.008729,0.66,-0.18,10.77
547780526,0.008577,-0.005044,0.006598,0.34,-0.25,10.32
547781535,0.004316,0.000282,0.002337,0.01,-0.57,9.46
547782545,-0.005272,0.002413,0.000207,-0.23,-0.74,9.04
547783555,-0.001011,0.002413,0.002337,-0.43,-0.67,9.14
547784565,-0.002076,0.002413,0.001272,-0.45,-0.54,9.28
547785576,0.003250,0.004544,0.002337,-0.37,-0.40,9.43
547786596,0.013903,0.004544,0.003403,-0.26,-0.12,9.65
547787598,0.000055,0.001348,0.002337,-0.05,0.12,10.01
547788605,-0.016990,-0.000783,0.001272,0.23,0.15,10.18
547789615,-0.010598,0.000282,0.002337,0.50,-0.03,10.35
547790626,0.011773,0.005609,0.006598,0.62,-0.13,10.63
547791635,0.028817,0.013066,0.007664,0.60,-0.14,10.76
547792645,0.036274,0.017327,0.006598,0.41,-0.22,10.52
547793655,0.034144,0.015196,0.005533,0.22,-0.36,9.86
547794665,0.026687,0.008805,0.004468,0.10,-0.59,9.17
547795687,0.013903,0.004544,0.001272,-0.05,-0.64,8.96
547796688,-0.005272,0.001348,-0.002989,-0.22,-0.57,9.10
547797695,-0.014859,-0.001848,-0.005120,-0.32,-0.54,9.30
547798705,-0.003141,-0.000783,-0.001924,-0.33,-0.51,9.45
547799715,0.008577,0.002413,0.000207,-0.35,-0.43,9.60
547800726,0.005381,0.001348,-0.000858,-0.31,-0.27,9.67
547801735,0.004316,0.001348,-0.001924,-0.15,-0.21,9.68
547802745,-0.005272,0.001348,-0.001924,-0.07,-0.13,9.85
547803755,-0.004207,0.001348,0.000207,0.00,-0.10,9.93
547804765,-0.007402,0.001348,0.000207,0.12,-0.08,9.99
547805787,-0.004207,-0.001848,-0.000858,0.27,-0.15,10.13
547806788,-0.003141,-0.001848,0.000207,0.39,-0.23,10.29
547807795,-0.002076,-0.000783,0.000207,0.41,-0.18,10.47
547808805,-0.003141,0.000282,0.000207,0.42,-0.17,10.55
547809815,-0.004207,0.003478,0.000207,0.39,-0.16,10.47
547810826,-0.008468,0.004544,0.001272,0.37,-0.21,10.35
547811835,0.000055,0.001348,0.003403,0.26,-0.26,10.06
547812845,0.006446,-0.007175,0.004468,0.16,-0.29,9.80
547813855,-0.003141,-0.011436,0.003403,0.11,-0.36,9.51
547814865,-0.008468,-0.009305,0.002337,0.11,-0.46,9.26
547815887,-0.007402,-0.001848,0.001272,-0.01,-0.48,9.23
547816888,0.004316,0.008805,0.000207,-0.16,-0.45,9.25
547817895,0.007511,0.015196,0.002337,-0.16,-0.43,9.33
547818905,0.005381,0.015196,0.003403,-0.13,-0.43,9.43
547819915,0.004316,0.009870,0.001272,-0.20,-0.40,9.47
547820926,0.000055,0.006674,-0.000858,-0.20,-0.38,9.61
547821935,-0.008468,0.003478,-0.002989,-0.18,-0.38,9.59
547822945,-0.007402,0.001348,-0.004054,-0.19,-0.39,9.64
547823955,0.005381,-0.002913,-0.005120,-0.27,-0.31,9.65
547824965,0.010707,-0.005044,-0.004054,-0.16,-0.33,9.71
547825987,0.000055,-0.009305,-0.002989,-0.12,-0.29,9.74
547826988,-0.009533,-0.008240,-0.001924,-0.13,-0.32,9.65
547827995,-0.010598,-0.003979,-0.001924,-0.08,-0.20,9.84
547829005,0.001120,0.004544,0.002337,-0.07,-0.20,9.89
547830015,0.013903,0.005609,0.003403,-0.06,-0.21,9.90
547831041,0.005381,0.005609,0.002337,0.00,-0.27,9.82
547832053,-0.002076,0.006674,-0.001924,0.04,-0.21,9.94
547833045,-0.003141,0.006674,-0.000858,0.10,-0.21,9.86
547834067,-0.002076,0.000282,-0.000858,0.16,-0.33,9.86
547835065,-0.003141,-0.002913,0.000207,0.07,-0.26,10.05
547836087,0.002185,0.000282,0.001272,0.26,-0.29,9.97
547837088,-0.008468,-0.000783,0.003403,0.20,-0.37,10.11
547838095,-0.006337,0.001348,0.001272,0.23,-0.27,10.24
547839105,-0.006337,-0.003979,-0.000858,0.25,-0.26,10.00
547840115,-0.002076,-0.005044,-0.000858,0.05,-0.41,10.07
547841126,0.001120,0.003478,0.000207,0.39,-0.03,10.13
547842135,-0.014859,-0.000783,0.002337,0.25,-0.43,10.17
547843145,-0.008468,0.003478,0.004468,0.10,-0.32,10.20
547844155,-0.003141,0.002413,0.002337,0.40,-0.06,10.13
547845183,-0.001011,-0.002913,0.002337,0.06,-0.55,10.08
547846206,0.021360,0.003478,0.003403,0.28,0.05,9.92
547847208,0.006446,0.004544,0.001272,0.25,-0.33,10.06
547848195,0.010707,0.007739,0.001272,-0.07,-0.50,9.95
547849218,0.006446,0.006674,-0.001924,0.41,0.13,9.95
547850230,-0.009533,-0.005044,-0.000858,-0.01,-0.60,9.85
547851232,-0.004207,-0.001848,-0.001924,0.05,-0.12,9.66
547852238,-0.008468,0.003478,-0.001924,0.28,-0.14,10.04
547853250,-0.007402,0.002413,0.000207,-0.14,-0.67,9.78
547854264,0.001120,-0.001848,-0.001924,0.21,0.05,9.61
547855270,-0.010598,-0.015697,-0.001924,-0.06,-0.55,9.51
547856316,-0.001011,-0.013566,-0.001924,-0.10,-0.38,9.50
547857305,0.002185,-0.007175,-0.001924,0.20,-0.02,9.91
547858304,-0.011664,-0.007175,0.000207,-0.14,-0.70,9.64
547859323,-0.008468,-0.005044,0.000207,0.21,-0.13,9.51
547860329,-0.018055,-0.008240,-0.000858,0.02,-0.51,9.19
547861330,-0.001011,-0.000783,0.002337,-0.17,-0.53,9.53
547862348,-0.013794,0.003478,0.000207,-0.25,-0.67,9.52
547863352,-0.008468,0.005609,0.002337,0.05,-0.24,9.84
547864364,-0.012729,-0.001848,0.002337,0.04,-0.39,9.33
547865373,0.001120,0.001348,0.003403,-0.25,-0.55,9.52
547866398,0.012838,0.008805,0.003403,0.16,-0.07,9.81
547867402,-0.002076,0.005609,0.000207,-0.13,-0.59,9.51
547868409,0.004316,0.002413,0.001272,-0.11,-0.27,9.84
547869412,0.000055,-0.003979,0.000207,0.13,-0.16,9.59
547870419,-0.002076,0.000282,0.001272,-0.25,-0.56,9.45
547871459,0.011773,0.009870,0.002337,0.01,-0.11,9.94
547872443,-0.008468,0.003478,0.002337,0.06,-0.44,9.67
547873449,-0.014859,0.001348,0.001272,-0.16,-0.43,9.62
547874459,-0.012729,-0.000783,-0.001924,0.04,-0.04,9.84
547875468,-0.021251,-0.007175,-0.002989,-0.14,-0.50,9.70
547876491,0.003250,-0.005044,-0.000858,-0.11,-0.27,9.73
547877492,0.008577,-0.003979,-0.002989,0.07,-0.16,9.78
547878502,0.001120,-0.001848,-0.004054,-0.26,-0.48,9.65
547879523,0.010707,0.001348,-0.002989,-0.12,-0.23,9.76
547880527,0.002185,0.000282,-0.004054,-0.01,-0.31,9.76
547881538,0.000055,0.004544,-0.000858,-0.14,-0.41,9.79
547882548,0.004316,0.001348,-0.000858,-0.12,-0.20,9.87
547883560,-0.009533,0.000282,-0.002989,-0.05,-0.43,9.71
547884555,-0.006337,0.000282,-0.004054,-0.03,-0.31,9.72
547885573,-0.001011,-0.000783,-0.004054,-0.06,-0.31,9.79
547886605,-0.006337,0.001348,-0.002989,-0.06,-0.35,9.84
547887591,0.001120,0.003478,0.000207,-0.02,-0.23,9.82
547888595,0.005381,-0.003979,0.000207,0.04,-0.36,9.84
547889613,-0.002076,-0.000783,0.000207,-0.05,-0.27,9.91
547890615,0.009642,0.007739,0.002337,0.12,-0.24,9.78
547891626,0.007511,-0.000783,0.001272,-0.03,-0.34,9.83
547892635,-0.001011,0.001348,0.002337,-0.06,-0.26,9.92
547893645,-0.004207,0.004544,0.002337,0.07,-0.17,9.74
547894655,-0.004207,-0.003979,0.000207,-0.03,-0.40,9.78
547895665,-0.006337,-0.002913,0.000207,0.04,-0.19,9.84
547896702,0.000055,0.005609,0.004468,0.10,-0.25,9.85
547897688,0.005381,-0.000783,0.002337,0.01,-0.36,9.89
547898695,-0.006337,-0.003979,0.000207,0.04,-0.23,9.83
547899716,-0.012729,-0.000783,0.000207,0.13,-0.30,9.79
547900726,-0.006337,-0.000783,-0.000858,0.08,-0.27,9.85
547901744,-0.005272,0.001348,0.000207,0.08,-0.21,9.94
547902740,-0.005272,0.005609,0.004468,0.11,-0.29,9.88
547903751,0.000055,0.000282,0.002337,0.13,-0.30,9.85
547904759,-0.006337,0.000282,0.000207,0.11,-0.26,9.91
547905795,-0.002076,0.007739,0.002337,0.12,-0.28,9.89
547906787,0.003250,0.003478,0.001272,0.10,-0.27,9.90
547907790,-0.003141,0.000282,-0.000858,0.12,-0.30,9.95
547908800,0.001120,0.005609,0.001272,0.15,-0.26,9.96
547909813,0.006446,0.002413,-0.000858,0.16,-0.23,9.99
547910826,-0.008468,0.002413,-0.001924,0.14,-0.26,9.99
547911842,-0.005272,0.004544,0.000207,0.16,-0.25,10.01
547912848,0.008577,0.000282,0.001272,0.16,-0.21,10.05
547913856,0.002185,0.004544,0.001272,0.14,-0.24,10.04
547914868,0.004316,0.008805,0.003403,0.12,-0.26,9.96
547915902,0.013903,0.002413,0.002337,0.14,-0.23,10.03
547916879,0.002185,0.000282,0.000207,0.13,-0.22,10.14
547917899,-0.002076,0.002413,0.002337,0.12,-0.25,10.10
547918898,0.007511,0.001348,0.003403,0.13,-0.23,10.02
547919908,0.008577,0.000282,0.000207,0.17,-0.21,10.04
547920918,0.000055,0.002413,-0.000858,0.18,-0.26,9.99
547921941,0.001120,-0.000783,-0.000858,0.16,-0.29,9.98
547922952,-0.001011,-0.006109,-0.001924,0.13,-0.25,9.98
547923950,-0.011664,-0.002913,-0.001924,0.10,-0.23,10.05
547924967,-0.012729,0.001348,0.003403,0.12,-0.27,9.97
547925986,-0.011664,-0.005044,0.001272,0.14,-0.26,9.84
547926990,-0.014859,-0.005044,0.001272,0.14,-0.22,9.91
547927997,-0.009533,0.004544,0.003403,0.10,-0.24,9.94
547929006,0.000055,0.003478,0.003403,0.10,-0.29,9.86
547930011,-0.003141,-0.002913,0.000207,0.12,-0.32,9.79
547931025,0.000055,0.000282,0.001272,0.11,-0.28,9.79
547932045,0.007511,0.004544,0.001272,0.10,-0.26,9.78
547933035,0.003250,0.003478,-0.002989,0.08,-0.32,9.71
547934054,0.001120,0.006674,-0.002989,0.10,-0.31,9.67
547935055,0.013903,0.001348,-0.000858,0.06,-0.32,9.70
547936076,0.014968,-0.000783,-0.000858,0.05,-0.30,9.77
547937079,0.003250,0.004544,0.001272,0.07,-0.29,9.70
547938085,0.002185,0.001348,0.000207,0.09,-0.35,9.57
547939113,0.002185,-0.006109,-0.002989,0.04,-0.36,9.59
547940115,0.002185,0.002413,-0.001924,-0.02,-0.28,9.67
547941115,0.003250,0.003478,-0.000858,0.04,-0.33,9.65
547942126,0.002185,-0.009305,-0.001924,0.02,-0.45,9.50
547943135,-0.003141,-0.009305,-0.001924,0.03,-0.28,9.59
547944145,-0.002076,-0.000783,-0.000858,-0.02,-0.34,9.53
547945162,0.003250,-0.001848,-0.001924,-0.05,-0.40,9.55
547946192,-0.008468,-0.001848,0.000207,0.05,-0.34,9.63
547947198,-0.008468,-0.001848,0.003403,0.03,-0.42,9.59
547948185,0.002185,-0.005044,0.002337,-0.09,-0.36,9.60
547949195,-0.009533,-0.000783,0.001272,-0.02,-0.30,9.68
547950205,-0.020186,0.004544,0.000207,0.02,-0.40,9.61
547951215,-0.006337,-0.000783,0.000207,-0.03,-0.38,9.59
547952226,-0.001011,0.001348,0.002337,-0.06,-0.28,9.66
547953235,-0.002076,0.010935,0.005533,-0.01,-0.29,9.67
547954245,0.004316,0.007739,0.005533,-0.08,-0.34,9.61
547955255,0.005381,0.000282,0.001272,-0.10,-0.35,9.66
547956276,-0.001011,0.003478,0.002337,-0.08,-0.28,9.74
547957304,0.003250,0.006674,0.006598,-0.05,-0.30,9.81
547958290,0.011773,-0.000783,0.005533,-0.01,-0.31,9.67
547959305,0.004316,-0.003979,0.001272,-0.03,-0.28,9.61
547960309,-0.004207,0.002413,0.000207,-0.08,-0.28,9.73
547961323,0.006446,0.004544,0.002337,-0.03,-0.35,9.79
547962332,0.008577,-0.002913,0.001272,0.04,-0.36,9.72
547963342,-0.009533,0.007739,0.003403,-0.09,-0.28,9.79
547964351,-0.007402,0.002413,0.001272,-0.09,-0.32,9.82
547965364,-0.011664,-0.009305,-0.005120,-0.08,-0.35,9.70
547966386,-0.019121,-0.005044,-0.005120,0.00,-0.34,9.76
547967386,-0.005272,0.000282,-0.000858,-0.11,-0.28,9.76
547968393,0.007511,-0.001848,0.000207,-0.04,-0.32,9.77
547969399,-0.004207,-0.007175,-0.004054,-0.03,-0.29,9.76
547970410,-0.011664,-0.003979,-0.001924,-0.03,-0.27,9.79
547971419,0.000055,-0.006109,-0.004054,0.01,-0.28,9.90
547972433,0.001120,-0.005044,-0.006185,-0.14,-0.35,9.79
547973442,-0.010598,0.002413,-0.007250,0.10,-0.29,9.86
547974457,-0.019121,0.005609,-0.002989,-0.05,-0.33,9.78
547975459,-0.002076,0.002413,-0.000858,-0.09,-0.28,9.81
547976476,0.003250,-0.001848,0.001272,0.09,-0.21,9.70
547977479,0.002185,0.001348,0.002337,-0.02,-0.43,9.76
547978490,0.000055,0.007739,0.003403,-0.06,-0.26,9.92
547979499,-0.004207,0.014131,0.003403,-0.05,-0.29,9.97
547980521,0.001120,0.010935,0.005533,-0.03,-0.33,9.77
547981515,0.005381,0.000282,0.003403,0.04,-0.30,9.68
547982526,-0.006337,0.002413,0.003403,0.02,-0.30,9.84
547983535,0.001120,0.008805,0.005533,0.03,-0.28,9.91
547984545,0.006446,0.005609,0.004468,0.02,-0.28,9.88
547985555,0.006446,0.001348,0.004468,0.03,-0.32,9.68
547986576,0.017099,-0.003979,0.004468,0.04,-0.26,9.74
547987579,0.010707,-0.005044,0.000207,0.05,-0.31,9.85
547988585,-0.007402,0.002413,-0.000858,0.05,-0.30,9.90
547989595,-0.011664,0.000282,-0.000858,0.08,-0.26,9.83
547990605,-0.008468,-0.006109,-0.002989,0.07,-0.28,9.82
547991615,-0.006337,-0.001848,-0.001924,0.11,-0.28,9.81
547992626,-0.004207,-0.000783,-0.001924,0.12,-0.22,9.88
547993635,-0.010598,-0.002913,-0.002989,0.05,-0.23,9.88
547994645,-0.014859,-0.000783,-0.002989,0.15,-0.34,9.79
547995655,-0.012729,-0.002913,-0.001924,0.07,-0.28,9.98
547996676,-0.011664,0.000282,-0.000858,0.14,-0.18,10.02
547997679,-0.015925,-0.000783,0.000207,0.18,-0.27,9.90
547998685,-0.004207,-0.006109,0.000207,0.12,-0.39,10.01
547999695,0.012838,0.001348,0.001272,0.20,-0.19,10.06
548000705,0.016034,0.003478,0.000207,0.11,-0.24,10.10
548001715,0.007511,0.003478,0.000207,0.10,-0.29,10.09
548002726,0.007511,0.002413,0.000207,0.25,-0.21,10.04
548003735,0.006446,0.002413,0.003403,0.23,-0.26,10.07
548004745,0.006446,0.005609,0.007664,0.15,-0.27,10.09
548005766,0.007511,0.003478,0.005533,0.18,-0.24,10.09
548006768,-0.001011,0.006674,0.004468,0.24,-0.24,9.98
548007776,-0.001011,0.002413,0.002337,0.14,-0.28,9.94
548008785,-0.007402,-0.002913,0.000207,0.10,-0.31,10.05
548009795,-0.003141,0.001348,0.003403,0.18,-0.22,10.05
548010805,0.004316,-0.000783,0.003403,0.21,-0.20,9.99
548011815,-0.002076,-0.001848,0.000207,0.17,-0.26,9.93
548012826,0.005381,-0.002913,-0.000858,0.12,-0.22,10.00
548013835,0.006446,-0.003979,-0.000858,0.11,-0.20,9.93
548014845,0.000055,0.001348,-0.000858,0.10,-0.25,9.85
548015866,-0.003141,0.001348,-0.001924,0.10,-0.30,9.82
548016868,-0.009533,0.001348,-0.006185,0.13,-0.27,9.85
548017876,-0.010598,0.003478,-0.004054,0.07,-0.30,9.78
548018885,-0.001011,-0.000783,0.000207,0.05,-0.37,9.74
548019895,0.003250,-0.001848,0.002337,0.07,-0.35,9.66
548020905,0.014968,0.001348,0.001272,0.13,-0.33,9.65
548021915,0.017099,0.000282,0.000207,0.06,-0.38,9.67
548022926,0.004316,0.003478,0.000207,0.03,-0.35,9.65
548023935,-0.002076,0.004544,0.000207,0.03,-0.34,9.60
548024945,0.002185,0.007739,0.000207,-0.02,-0.38,9.55
548025966,0.007511,0.009870,0.002337,-0.01,-0.39,9.65
548026968,0.002185,0.002413,0.001272,0.02,-0.39,9.61
548027976,-0.004207,-0.006109,0.000207,-0.01,-0.42,9.48
548028985,-0.003141,-0.009305,-0.000858,0.01,-0.40,9.54
548029995,-0.001011,-0.003979,0.001272,0.01,-0.37,9.58
548031005,0.001120,-0.002913,0.004468,-0.07,-0.37,9.46
548032015,0.000055,-0.008240,0.002337,-0.06,-0.30,9.55
548033026,-0.004207,-0.005044,0.001272,-0.03,-0.39,9.51
548034035,-0.003141,-0.006109,-0.000858,-0.13,-0.38,9.60
548035045,-0.006337,-0.002913,-0.001924,-0.07,-0.29,9.63
548036066,-0.004207,-0.003979,-0.002989,-0.07,-0.37,9.56
548037068,-0.008468,-0.003979,-0.004054,-0.06,-0.32,9.71
548038076,-0.002076,-0.001848,-0.002989,-0.02,-0.32,9.64
548039085,0.004316,0.000282,-0.000858,-0.13,-0.34,9.65
548040095,0.006446,0.003478,0.001272,-0.05,-0.27,9.78
548041105,0.008577,-0.000783,0.003403,-0.17,-0.42,9.62
548042115,0.007511,0.001348,0.001272,-0.10,-0.32,9.73
548043126,0.004316,0.005609,0.001272,-0.06,-0.26,9.77
548044135,0.007511,0.003478,0.001272,-0.17,-0.39,9.82
548045145,0.002185,0.003478,0.001272,-0.07,-0.23,9.79
548046166,0.009642,0.002413,0.001272,-0.04,-0.26,9.81
548047168,0.009642,-0.002913,0.001272,-0.07,-0.31,9.81
548048187,0.000055,0.000282,0.002337,-0.05,-0.28,9.80
548049201,0.007511,0.000282,0.004468,-0.04,-0.33,9.78
548050202,0.007511,-0.003979,0.001272,0.01,-0.29,9.76
548051205,-0.005272,-0.001848,0.000207,0.00,-0.27,9.80
548052215,-0.005272,-0.000783,0.001272,-0.06,-0.26,9.83
548053226,-0.005272,0.001348,-0.000858,-0.03,-0.25,9.82
548054235,-0.009533,0.002413,-0.000858,0.00,-0.31,9.77
548055245,-0.002076,-0.006109,-0.001924,0.00,-0.35,9.81
548056266,-0.001011,-0.010370,-0.005120,-0.02,-0.23,9.84
548057268,-0.006337,-0.000783,-0.002989,-0.02,-0.27,9.82
548058277,0.001120,0.002413,0.000207,0.01,-0.31,9.86
548059289,0.001120,-0.000783,0.001272,0.04,-0.27,9.91
548060302,-0.006337,-0.000783,0.001272,0.01,-0.27,9.86
548061307,0.003250,-0.001848,0.003403,0.03,-0.38,9.80
548062322,0.007511,-0.008240,0.000207,0.04,-0.33,9.87
548063339,-0.005272,0.000282,0.000207,0.03,-0.30,9.77
548064343,0.004316,-0.001848,0.002337,0.00,-0.35,9.75
548065362,0.005381,-0.002913,0.001272,0.02,-0.29,9.84
548066382,-0.007402,0.004544,0.002337,0.12,-0.27,9.85
548067378,-0.005272,0.007739,0.004468,0.11,-0.36,9.80
548068383,-0.001011,0.002413,0.002337,0.08,-0.31,9.74
548069392,0.002185,-0.000783,0.001272,0.10,-0.23,9.84
548070402,0.002185,0.004544,0.004468,0.09,-0.24,9.93
548071409,0.002185,0.002413,0.003403,0.16,-0.29,9.84
548072427,-0.007402,-0.001848,0.001272,0.16,-0.31,9.81
548073452,-0.007402,0.000282,0.000207,0.15,-0.23,9.92
548074462,0.000055,0.000282,-0.001924,0.13,-0.26,9.99
548075464,0.004316,-0.006109,-0.002989,0.11,-0.34,10.00
548076495,0.005381,-0.006109,0.001272,0.18,-0.23,10.00
548077479,0.002185,-0.003979,0.003403,0.19,-0.25,9.98
548078498,-0.006337,0.000282,0.004468,0.14,-0.25,10.08
548079512,-0.003141,-0.000783,0.002337,0.21,-0.24,10.10
548080499,-0.006337,-0.005044,0.000207,0.16,-0.23,10.00
548081508,-0.005272,-0.001848,-0.002989,0.18,-0.22,10.04
548082519,-0.001011,-0.001848,-0.002989,0.12,-0.25,10.05
548083543,-0.004207,-0.002913,-0.005120,0.16,-0.24,10.11
548084535,-0.005272,0.000282,-0.001924,0.18,-0.23,10.03
548085545,0.010707,0.000282,0.001272,0.14,-0.31,10.05
548086566,0.010707,0.002413,0.002337,0.18,-0.24,10.02
548087585,0.006446,0.004544,0.002337,0.13,-0.23,9.98
548088576,0.007511,0.002413,0.001272,0.16,-0.22,9.95
548089585,0.001120,0.005609,0.001272,0.16,-0.21,9.99
548090595,0.002185,0.008805,0.002337,0.15,-0.26,10.06
548091611,0.010707,0.003478,0.002337,0.15,-0.26,10.00
548092626,0.008577,0.000282,0.001272,0.12,-0.24,9.96
548093645,0.002185,0.003478,0.002337,0.12,-0.23,9.92
548094635,0.004316,0.002413,0.002337,0.10,-0.28,9.91
548095645,-0.003141,-0.003979,-0.001924,0.11,-0.30,9.81
548096666,-0.009533,-0.005044,-0.004054,0.11,-0.28,9.79
548097668,-0.002076,-0.003979,-0.001924,0.12,-0.27,9.82
548098676,0.000055,-0.008240,-0.000858,0.11,-0.30,9.78
548099685,-0.004207,-0.005044,-0.000858,0.11,-0.33,9.75
548100695,-0.007402,-0.001848,0.001272,0.08,-0.32,9.75
548101705,-0.005272,0.000282,0.000207,0.13,-0.31,9.65
548102715,-0.005272,-0.001848,-0.000858,0.09,-0.41,9.60
548103726,-0.002076,-0.005044,-0.000858,0.03,-0.38,9.59
548104735,0.001120,-0.003979,0.001272,0.11,-0.29,9.59
548105756,0.006446,-0.005044,0.000207,0.04,-0.44,9.50
548106758,0.005381,-0.006109,-0.001924,0.03,-0.38,9.52
548107765,0.006446,-0.001848,-0.002989,0.02,-0.30,9.53
548108776,0.003250,-0.002913,-0.004054,-0.06,-0.42,9.50
548109785,0.000055,-0.000783,-0.000858,0.01,-0.37,9.61
548110795,0.004316,0.001348,-0.000858,0.02,-0.31,9.68
548111805,-0.002076,0.002413,-0.001924,-0.08,-0.42,9.58
548112815,0.003250,0.002413,-0.001924,-0.08,-0.38,9.63
548113826,0.005381,0.000282,-0.001924,0.01,-0.32,9.58
548114835,0.003250,0.000282,0.000207,-0.08,-0.36,9.54
548115856,0.001120,0.002413,0.001272,-0.12,-0.34,9.63
548116858,-0.004207,-0.000783,0.000207,-0.12,-0.37,9.59
548117865,-0.002076,-0.005044,0.000207,-0.12,-0.36,9.66
548118876,-0.004207,-0.006109,0.000207,-0.10,-0.37,9.60
548119885,-0.005272,-0.002913,0.003403,-0.13,-0.39,9.65
548120895,-0.006337,-0.005044,0.002337,-0.09,-0.28,9.73
548121905,-0.013794,-0.001848,0.001272,-0.09,-0.38,9.74
548122915,-0.009533,-0.003979,-0.004054,-0.12,-0.39,9.64
548123926,-0.008468,-0.001848,-0.006185,-0.02,-0.31,9.66
548124935,-0.002076,-0.003979,-0.005120,-0.07,-0.30,9.73
548125956,-0.004207,-0.001848,-0.002989,-0.10,-0.34,9.71
548126958,0.002185,0.002413,-0.001924,0.02,-0.32,9.84
548127965,0.003250,0.000282,-0.000858,-0.10,-0.35,9.84
548128976,0.003250,0.003478,0.001272,-0.11,-0.19,9.91
548129985,0.002185,0.004544,0.003403,0.02,-0.26,9.77
548130995,0.003250,0.003478,0.001272,-0.08,-0.31,9.83
548132005,0.012838,0.004544,0.002337,-0.05,-0.22,9.77
548133015,0.016034,-0.002913,0.001272,0.10,-0.37,9.74
548134026,0.002185,-0.002913,0.001272,-0.08,-0.36,9.82
548135035,0.010707,-0.002913,0.000207,-0.01,-0.25,9.84
548136056,0.002185,-0.002913,-0.000858,0.00,-0.37,9.78
548137058,0.007511,0.000282,0.001272,-0.02,-0.34,9.96
548138065,0.016034,-0.001848,0.001272,0.08,-0.22,9.89
548139076,0.000055,-0.001848,0.001272,-0.03,-0.35,9.78
548140085,-0.004207,-0.003979,0.002337,-0.01,-0.30,9.79
548141095,-0.004207,-0.006109,0.001272,0.09,-0.22,9.85
548142105,-0.015925,-0.001848,-0.000858,0.07,-0.33,9.84
548143115,-0.011664,-0.005044,-0.002989,0.03,-0.30,9.84
548144126,-0.011664,-0.005044,-0.004054,0.06,-0.30,9.88
548145135,-0.012729,-0.000783,-0.005120,0.13,-0.27,9.86
548146156,-0.001011,-0.002913,-0.002989,0.10,-0.25,9.90
548147158,-0.006337,-0.000783,-0.002989,0.09,-0.32,9.85
548148165,-0.010598,0.002413,-0.000858,0.09,-0.29,9.86
548149176,0.000055,-0.001848,-0.005120,0.14,-0.26,9.89
548150185,-0.007402,-0.000783,-0.005120,0.14,-0.29,9.95
548151195,-0.005272,0.003478,-0.002989,0.19,-0.28,9.89
548152205,0.003250,0.002413,-0.000858,0.10,-0.26,9.92
548153215,0.007511,0.001348,-0.002989,0.11,-0.24,9.95
548154226,-0.005272,0.003478,-0.000858,0.13,-0.17,9.98
548155235,0.001120,-0.000783,0.001272,0.11,-0.29,9.97
548156256,0.014968,-0.003979,0.001272,0.22,-0.17,9.93
548157258,0.014968,0.000282,0.003403,0.14,-0.26,10.01
548158265,0.006446,0.002413,0.006598,0.12,-0.26,10.07
548159277,0.000055,-0.002913,0.004468,0.22,-0.17,10.06
548160289,-0.003141,-0.002913,0.004468,0.15,-0.29,10.03
548161302,0.006446,-0.005044,0.004468,0.16,-0.22,10.08
548162308,0.005381,-0.002913,0.003403,0.22,-0.19,10.14
548163321,0.005381,-0.002913,0.002337,0.22,-0.32,10.08
548164331,-0.002076,-0.003979,-0.000858,0.15,-0.24,10.05
548165341,0.001120,-0.008240,-0.000858,0.16,-0.27,10.01
548166364,-0.003141,-0.005044,-0.000858,0.17,-0.21,9.99
548167368,0.000055,-0.002913,0.000207,0.14,-0.30,9.88
548168374,0.002185,0.001348,-0.000858,0.15,-0.29,9.93
548169385,-0.002076,0.004544,-0.000858,0.19,-0.24,9.86
548170393,0.003250,0.003478,-0.002989,0.16,-0.29,9.82
548171400,-0.004207,0.003478,-0.004054,0.09,-0.28,9.76
548172409,0.000055,0.003478,-0.002989,0.14,-0.25,9.73
548173419,0.010707,-0.000783,-0.002989,0.09,-0.33,9.70
548174433,0.009642,0.003478,-0.000858,0.04,-0.33,9.67
548175443,0.007511,0.005609,0.001272,0.06,-0.35,9.63
548176460,0.008577,0.000282,0.002337,0.04,-0.38,9.63
548177462,0.002185,-0.001848,0.002337,0.03,-0.33,9.66
548178482,0.006446,-0.001848,0.002337,0.04,-0.38,9.59
548179477,0.013903,-0.002913,0.002337,0.00,-0.39,9.60
548180490,0.001120,0.002413,0.001272,0.01,-0.36,9.54
548181499,-0.006337,0.004544,0.000207,-0.02,-0.46,9.59
548182507,-0.010598,0.001348,-0.002989,-0.02,-0.44,9.64
548183515,-0.014859,-0.001848,-0.005120,0.01,-0.41,9.55
548184526,-0.006337,-0.006109,-0.001924,-0.07,-0.43,9.53
548185544,-0.002076,-0.008240,-0.000858,-0.01,-0.32,9.67
548186556,-0.004207,-0.008240,0.000207,-0.04,-0.37,9.53
548187558,0.002185,-0.008240,0.000207,-0.06,-0.34,9.57
548188565,-0.007402,-0.001848,0.001272,-0.03,-0.24,9.71
548189576,-0.006337,0.000282,0.002337,-0.06,-0.36,9.64
548190585,0.000055,-0.001848,0.000207,-0.06,-0.33,9.58
548191595,-0.003141,0.002413,0.000207,-0.06,-0.27,9.70
548192605,0.001120,0.005609,0.001272,-0.02,-0.36,9.69
548193615,0.006446,0.000282,-0.001924,-0.03,-0.35,9.68
548194626,0.002185,-0.000783,-0.002989,-0.04,-0.29,9.71
548195635,0.007511,0.000282,-0.001924,-0.05,-0.28,9.69
548196656,0.013903,0.002413,-0.001924,-0.06,-0.29,9.75
548197658,0.004316,0.005609,-0.000858,-0.06,-0.34,9.73
548198665,-0.005272,0.005609,0.001272,-0.02,-0.34,9.78
548199676,0.004316,-0.000783,-0.000858,-0.01,-0.30,9.81
548200696,0.004316,-0.001848,-0.004054,-0.04,-0.35,9.80
548201698,-0.001011,0.002413,-0.002989,-0.04,-0.29,9.77
548202708,-0.005272,0.004544,-0.000858,-0.07,-0.32,9.83
548203718,-0.005272,0.001348,0.002337,-0.13,-0.38,9.80
548204729,-0.002076,-0.000783,0.002337,-0.07,-0.35,9.73
548205748,0.000055,-0.006109,0.000207,-0.11,-0.27,9.73
548206750,-0.005272,-0.002913,0.000207,-0.08,-0.31,9.75
548207758,-0.001011,0.000282,-0.000858,-0.05,-0.30,9.87
548208768,-0.005272,-0.001848,-0.004054,-0.09,-0.28,9.86
548209779,-0.009533,0.000282,-0.004054,-0.03,-0.23,9.95
548210793,0.001120,0.003478,-0.004054,-0.04,-0.35,9.89
548211795,0.000055,0.004544,-0.004054,-0.07,-0.30,9.88
548212805,-0.005272,0.002413,-0.000858,-0.02,-0.24,9.73
548213815,-0.001011,-0.005044,-0.000858,-0.05,-0.27,9.77
548214826,-0.009533,-0.003979,-0.000858,-0.03,-0.26,9.81
548215846,-0.003141,-0.001848,0.000207,0.05,-0.27,9.80
548216848,0.006446,-0.003979,0.000207,-0.02,-0.31,9.78
548217855,0.005381,-0.000783,0.000207,0.00,-0.24,9.85
548218865,0.001120,0.004544,0.001272,0.05,-0.28,9.77
548219876,0.011773,0.001348,0.000207,0.02,-0.32,9.79
548220896,0.008577,0.000282,0.001272,0.05,-0.28,9.78
548221898,0.002185,0.004544,0.002337,0.05,-0.31,9.85
548222908,0.001120,0.003478,0.000207,0.10,-0.29,9.81
548223918,0.002185,0.001348,-0.000858,0.10,-0.29,9.84
548224929,-0.003141,0.000282,0.000207,0.04,-0.27,9.88
548225948,-0.005272,-0.002913,-0.000858,0.16,-0.33,9.79
548226950,-0.011664,-0.001848,0.002337,0.07,-0.28,9.96
548227958,-0.006337,-0.003979,0.001272,0.18,-0.31,9.97
548228968,-0.005272,-0.003979,0.002337,0.21,-0.28,9.98
548229979,0.002185,-0.003979,0.000207,0.15,-0.29,10.00
548230993,0.000055,-0.000783,-0.000858,0.21,-0.18,10.00
548231995,0.002185,-0.005044,-0.001924,0.18,-0.24,10.02
548233005,0.005381,-0.003979,-0.000858,0.20,-0.19,10.06
548234015,0.011773,-0.000783,-0.001924,0.29,-0.17,10.03
548235026,0.003250,0.001348,0.000207,0.17,-0.24,10.08
548236046,0.009642,0.003478,0.001272,0.22,-0.19,10.16
548237048,0.005381,0.006674,0.003403,0.26,-0.22,10.18
548238055,-0.002076,0.012001,0.004468,0.15,-0.32,10.09
548239065,0.005381,0.012001,0.004468,0.15,-0.17,10.05
548240076,0.001120,0.007739,0.000207,0.21,-0.24,10.06
548241096,0.004316,0.004544,0.000207,0.18,-0.26,9.97
548242098,0.010707,0.001348,0.000207,0.16,-0.13,10.04
548243108,0.001120,0.000282,0.001272,0.13,-0.26,10.03
548244118,0.002185,-0.001848,0.000207,0.14,-0.20,10.01
548245129,-0.006337,-0.000783,-0.001924,0.13,-0.23,9.95
548246148,-0.008468,0.004544,0.001272,0.11,-0.29,9.90
548247150,0.006446,0.001348,0.003403,0.13,-0.22,9.82
548248158,0.003250,0.000282,0.001272,0.12,-0.29,9.77
548249168,-0.005272,-0.001848,0.001272,0.08,-0.31,9.75
548250179,0.002185,-0.002913,-0.001924,0.10,-0.26,9.80
548251193,-0.005272,-0.002913,-0.005120,0.08,-0.37,9.73
548252195,-0.014859,0.003478,-0.004054,0.05,-0.28,9.72
548253205,-0.007402,0.002413,0.001272,0.02,-0.27,9.79
548254215,0.000055,0.002413,0.002337,0.02,-0.33,9.75
548255226,-0.009533,0.001348,0.001272,0.09,-0.26,9.71
548256246,-0.018055,0.000282,0.002337,0.10,-0.29,9.66
548257248,-0.008468,-0.002913,0.004468,0.07,-0.33,9.69
548258255,0.005381,-0.001848,0.005533,0.07,-0.28,9.62
548259265,0.004316,0.003478,0.006598,0.07,-0.34,9.63
548260277,0.001120,0.004544,0.004468,0.04,-0.36,9.58
548261304,0.003250,0.001348,0.002337,0.02,-0.35,9.64
548262302,0.005381,0.004544,0.002337,-0.02,-0.40,9.59
548263311,0.006446,0.005609,0.002337,-0.04,-0.39,9.53
548264324,-0.001011,0.007739,0.001272,-0.03,-0.35,9.57
548265333,-0.011664,0.004544,-0.000858,-0.04,-0.36,9.55
548266354,-0.013794,0.002413,-0.000858,-0.07,-0.38,9.54
548267369,-0.008468,0.001348,-0.000858,-0.09,-0.37,9.59
548268379,-0.006337,0.002413,-0.004054,-0.12,-0.39,9.63
548269381,-0.001011,0.000282,-0.008315,-0.11,-0.38,9.72
548270388,-0.004207,-0.005044,-0.008315,-0.05,-0.36,9.71
548271403,-0.004207,-0.008240,-0.005120,-0.12,-0.35,9.64
548272400,-0.002076,-0.009305,-0.004054,-0.10,-0.33,9.65
548273409,-0.008468,-0.001848,-0.000858,-0.06,-0.35,9.68
548274419,0.007511,0.003478,0.001272,-0.09,-0.31,9.74
548275433,0.005381,0.006674,0.002337,-0.09,-0.29,9.81
548276453,-0.002076,0.004544,0.002337,-0.08,-0.28,9.77
548277452,0.007511,0.003478,0.003403,-0.04,-0.32,9.78
548278459,0.008577,0.006674,0.004468,-0.03,-0.28,9.78
548279468,0.007511,0.006674,0.004468,-0.08,-0.32,9.80
548280477,0.017099,0.002413,0.004468,-0.10,-0.25,9.84
548281520,0.008577,0.002413,0.005533,-0.03,-0.27,9.75
548282526,0.000055,0.002413,0.002337,-0.06,-0.28,9.77
548283523,-0.002076,0.004544,0.000207,-0.07,-0.32,9.77
548284517,-0.001011,0.005609,0.001272,-0.09,-0.36,9.82
548285529,0.006446,0.002413,0.002337,-0.10,-0.32,9.77
548286551,0.005381,-0.000783,-0.000858,-0.03,-0.26,9.81
548287569,0.006446,-0.002913,0.000207,-0.04,-0.33,9.76
548288558,0.008577,-0.005044,-0.002989,0.00,-0.28,9.82
548289577,-0.004207,-0.000783,-0.000858,-0.02,-0.34,9.82
548290595,0.006446,0.002413,0.001272,-0.03,-0.31,9.88
548291612,0.001120,0.002413,0.000207,-0.02,-0.26,9.77
548292613,-0.012729,0.003478,-0.002989,-0.04,-0.32,9.80
548293606,-0.009533,0.002413,-0.001924,0.05,-0.28,9.87
548294619,-0.002076,-0.000783,-0.000858,0.08,-0.27,9.90
548295629,-0.007402,-0.001848,0.002337,0.05,-0.28,9.82
548296650,-0.001011,-0.003979,0.000207,0.09,-0.21,9.84
548297663,0.001120,-0.000783,-0.000858,0.14,-0.20,9.86
548298672,0.003250,-0.000783,-0.002989,0.16,-0.28,9.83
548299677,-0.004207,0.001348,-0.001924,0.02,-0.23,9.91
548300684,0.001120,0.000282,-0.000858,0.13,-0.31,9.82
