time_us,gyro_x_rad_s,gyro_y_rad_s,gyro_z_rad_s,acc_x_m_s2,acc_y_m_s2,acc_z_m_s2
287009280,0.000900,-0.000403,0.000336,0.02,-0.27,9.84
287010017,0.000900,0.000662,0.000336,-0.02,-0.24,9.90
287010872,0.000900,0.000662,0.000336,-0.02,-0.24,9.90
287011879,-0.001231,0.000662,0.003531,0.03,-0.25,9.85
287012889,-0.001231,0.001727,0.002466,0.03,-0.26,9.86
287013891,-0.000166,0.000662,0.000336,-0.01,-0.25,9.86
287014900,0.001965,-0.001468,-0.003926,0.02,-0.24,9.86
287015912,0.000900,-0.004664,-0.003926,0.04,-0.26,9.83
287016924,-0.002296,-0.003599,-0.000730,0.01,-0.26,9.83
287017938,-0.003361,-0.000403,0.001401,-0.01,-0.27,9.79
287018951,0.000900,0.000662,0.002466,-0.02,-0.25,9.81
287019956,0.001965,0.000662,0.001401,-0.01,-0.22,9.83
287020959,-0.000166,-0.001468,0.001401,0.00,-0.26,9.83
287021969,-0.001231,-0.003599,0.001401,-0.03,-0.27,9.84
287022983,0.000900,-0.002534,0.001401,0.00,-0.27,9.80
287023989,0.001965,0.000662,0.001401,0.02,-0.29,9.83
287024999,-0.000166,0.000662,-0.001795,-0.01,-0.26,9.82
287026009,-0.002296,0.000662,-0.002860,-0.01,-0.21,9.88
287027019,-0.003361,0.000662,-0.002860,0.01,-0.22,9.86
287028033,-0.001231,-0.001468,-0.004991,0.03,-0.25,9.78
287029048,-0.000166,-0.002534,-0.004991,0.03,-0.24,9.81
287030052,-0.000166,-0.001468,-0.001795,0.05,-0.22,9.81
287031057,-0.000166,-0.001468,0.001401,0.02,-0.21,9.79
287032067,0.001965,-0.001468,0.002466,0.01,-0.21,9.79
287033082,0.001965,-0.000403,0.002466,0.05,-0.24,9.80
287034087,0.000900,-0.001468,0.000336,0.04,-0.22,9.76
287035097,0.000900,-0.001468,-0.001795,-0.01,-0.22,9.79
287036107,0.000900,0.000662,-0.002860,-0.02,-0.26,9.81
287037117,-0.001231,0.001727,-0.000730,0.02,-0.26,9.81
287038132,-0.002296,0.001727,0.000336,0.06,-0.26,9.85
287039147,-0.001231,-0.000403,0.001401,0.05,-0.26,9.84
287040151,-0.001231,-0.000403,0.001401,-0.01,-0.26,9.83
287041156,-0.002296,0.001727,0.000336,0.00,-0.25,9.82
287042166,-0.002296,0.001727,0.000336,0.02,-0.25,9.81
287043181,-0.002296,0.001727,0.000336,-0.01,-0.24,9.83
287044186,-0.001231,0.001727,-0.000730,0.00,-0.25,9.83
287045196,-0.000166,0.001727,-0.000730,-0.01,-0.28,9.80
287046206,-0.000166,0.002793,0.000336,-0.01,-0.27,9.77
287047216,-0.002296,0.002793,-0.000730,0.01,-0.27,9.79
287048231,-0.001231,0.001727,-0.000730,0.02,-0.27,9.87
287049248,-0.000166,-0.000403,-0.000730,0.02,-0.25,9.91
287050252,-0.000166,-0.001468,-0.000730,0.00,-0.24,9.82
287051257,-0.000166,-0.000403,-0.000730,-0.01,-0.24,9.75
287052267,-0.001231,-0.000403,-0.000730,-0.01,-0.27,9.83
287053311,-0.000148,-0.001439,-0.000739,-0.01,-0.29,9.83
287054287,0.003048,-0.002504,0.000326,-0.02,-0.25,9.80
287055297,0.005179,-0.003570,0.000326,-0.02,-0.20,9.84
287056307,0.001983,-0.004635,-0.001804,-0.01,-0.22,9.85
287057317,-0.000148,-0.002504,-0.002870,-0.01,-0.23,9.83
287058340,-0.000148,-0.001439,-0.001804,-0.01,-0.23,9.78
287059341,-0.001213,-0.001439,-0.000739,-0.02,-0.22,9.78
287060346,-0.001213,-0.001439,-0.001804,-0.02,-0.22,9.81
287061356,-0.003344,-0.000374,-0.002870,-0.03,-0.24,9.88
287062366,-0.003344,0.000692,-0.001804,-0.05,-0.22,9.94
287063381,-0.001213,-0.000374,0.000326,-0.03,-0.21,9.83
287064386,0.000918,-0.001439,0.001392,-0.01,-0.27,9.77
287065396,0.001983,-0.002504,0.001392,-0.03,-0.28,9.83
287066406,0.001983,-0.001439,0.000326,-0.03,-0.22,9.88
287067416,-0.000148,0.001757,0.000326,-0.02,-0.21,9.86
287068444,-0.003344,0.001757,0.003522,-0.03,-0.23,9.83
287069442,-0.002278,0.000692,0.004587,0.00,-0.23,9.81
287070447,0.000918,-0.001439,0.002457,0.02,-0.22,9.79
287071457,0.001983,-0.003570,0.000326,0.02,-0.21,9.82
287072467,0.003048,-0.003570,0.001392,0.03,-0.23,9.85
287073482,-0.000148,-0.001439,0.000326,0.01,-0.23,9.85
287074487,-0.002278,-0.000374,0.000326,0.00,-0.24,9.82
287075497,-0.001213,0.001757,0.001392,0.00,-0.25,9.83
287076507,0.000918,0.001757,0.001392,0.01,-0.23,9.86
287077517,0.001983,-0.000374,0.001392,0.00,-0.24,9.85
287078540,0.001983,0.001757,0.001392,0.00,-0.24,9.82
287079541,0.000918,0.001757,0.000326,0.00,-0.25,9.83
287080546,-0.000148,0.001757,0.000326,-0.01,-0.25,9.83
287081556,-0.000148,0.001757,0.000326,0.02,-0.25,9.86
287082566,-0.000148,0.002822,0.000326,-0.01,-0.25,9.87
287083581,0.000918,0.003887,0.000326,-0.03,-0.23,9.84
287084586,-0.000148,0.003887,0.001392,0.00,-0.21,9.83
287085596,-0.000148,0.002822,0.001392,0.01,-0.21,9.79
287086606,-0.000148,0.000692,-0.000739,0.01,-0.21,9.79
287087616,-0.001213,-0.000374,-0.002870,0.00,-0.24,9.78
287088644,-0.000148,0.001757,-0.002870,0.01,-0.27,9.78
287089653,-0.000148,0.001757,0.000326,0.01,-0.24,9.86
287090647,-0.001213,0.000692,0.001392,0.01,-0.23,9.86
287091657,-0.001213,-0.000374,0.001392,0.03,-0.25,9.83
287092667,-0.000148,0.000692,-0.000739,0.00,-0.25,9.86
287093687,-0.001213,-0.000374,-0.002870,-0.05,-0.23,9.89
287094688,-0.001213,-0.000374,-0.003935,-0.06,-0.25,9.88
287095703,-0.001213,-0.000374,-0.001804,-0.05,-0.26,9.86
287096714,0.000918,-0.002504,-0.000739,-0.04,-0.26,9.82
287097724,0.001983,-0.003570,0.000326,0.00,-0.24,9.78
287098755,-0.001213,-0.003570,0.000326,0.03,-0.24,9.83
287099751,-0.002278,-0.003570,0.000326,0.03,-0.25,9.84
287100757,-0.001213,-0.002504,-0.000739,0.01,-0.24,9.80
287101799,-0.001213,-0.001439,-0.000739,0.00,-0.22,9.77
287102785,-0.002278,0.000692,-0.000739,-0.01,-0.22,9.77
287103802,-0.003344,0.001757,0.000326,0.00,-0.23,9.84
287104801,-0.001213,0.001757,0.000326,0.02,-0.24,9.91
287105806,0.001983,0.001757,-0.000739,0.02,-0.24,9.91
287106819,0.000918,-0.000374,-0.001804,0.03,-0.22,9.89
287107825,-0.000148,-0.000374,-0.000739,0.03,-0.23,9.88
287108855,-0.001213,0.000692,-0.000739,0.04,-0.24,9.83
287109856,0.000918,-0.000374,0.000326,0.02,-0.23,9.83
287110860,0.004113,-0.000374,-0.000739,-0.01,-0.26,9.87
287111869,0.004113,-0.002504,-0.001804,0.01,-0.27,9.81
287112874,0.003048,-0.003570,-0.000739,0.02,-0.23,9.79
287113887,0.001983,0.001757,-0.000739,-0.01,-0.22,9.81
287114889,0.000918,0.001757,-0.000739,-0.02,-0.26,9.80
287115898,0.001983,-0.000374,-0.000739,-0.02,-0.29,9.83
287116910,0.003048,-0.000374,-0.000739,0.01,-0.26,9.82
287117922,0.000918,0.000692,-0.000739,0.00,-0.25,9.78
287118944,-0.000148,0.000692,0.000326,-0.04,-0.27,9.77
287119943,-0.000148,0.001757,0.000326,-0.02,-0.24,9.83
287120949,-0.001213,0.003887,-0.000739,0.00,-0.23,9.86
287121956,-0.001213,0.001757,-0.000739,0.00,-0.24,9.87
287122966,-0.000148,-0.001439,0.000326,0.00,-0.23,9.81
287123981,0.000918,-0.002504,-0.000739,0.01,-0.22,9.79
287124986,0.000918,0.000692,-0.003935,-0.03,-0.24,9.81
287125996,0.000918,0.002822,-0.005000,-0.04,-0.23,9.80
287127006,-0.000148,0.000692,-0.002870,-0.01,-0.25,9.82
287128016,-0.001213,-0.002504,-0.000739,0.02,-0.27,9.88
287129044,-0.001213,-0.003570,-0.001804,0.04,-0.26,9.84
287130042,0.000918,-0.002504,-0.005000,0.05,-0.25,9.83
287131047,0.003048,-0.000374,-0.003935,0.02,-0.22,9.86
287132057,0.003048,0.002822,0.000326,-0.03,-0.20,9.86
287133067,0.000918,0.006018,0.001392,-0.03,-0.20,9.85
287134082,-0.000148,0.002822,0.000326,0.00,-0.22,9.81
287135087,0.000918,-0.001439,0.000326,-0.02,-0.23,9.82
287136097,0.001983,-0.000374,-0.000739,-0.02,-0.22,9.81
287137107,0.000918,0.003887,-0.000739,-0.01,-0.23,9.80
287138117,0.000918,0.004953,0.000326,0.00,-0.26,9.82
287139140,-0.000148,0.000692,0.000326,0.02,-0.25,9.83
287140141,-0.000148,-0.001439,0.000326,0.01,-0.22,9.83
287141146,0.000918,-0.000374,0.000326,0.02,-0.26,9.89
287142156,0.000918,0.002822,0.001392,0.01,-0.27,9.87
287143166,-0.001213,0.002822,0.001392,0.00,-0.25,9.84
287144181,-0.001213,0.000692,0.000326,0.01,-0.25,9.86
287145186,-0.000148,0.000692,-0.001804,0.00,-0.25,9.85
287146196,-0.000148,0.001757,-0.000739,-0.03,-0.26,9.88
287147206,0.000918,0.001757,0.000326,-0.03,-0.24,9.84
287148216,0.000918,0.000692,0.000326,-0.03,-0.21,9.82
287149244,0.001983,0.000692,-0.002870,-0.01,-0.23,9.84
287150242,0.004113,0.003887,-0.003935,0.01,-0.23,9.80
287151247,0.005179,0.003887,-0.001804,0.00,-0.24,9.79
287152257,0.003048,0.001757,-0.000739,0.01,-0.26,9.82
287153267,-0.000148,-0.000374,-0.000739,0.00,-0.22,9.78
287154282,-0.003344,-0.000374,0.000326,0.00,-0.21,9.77
287155287,-0.003344,0.000692,0.000326,-0.01,-0.23,9.81
287156297,-0.002278,0.000692,0.000326,0.02,-0.24,9.82
287157307,-0.001213,-0.001439,0.000326,0.06,-0.23,9.82
287158327,-0.000148,-0.000374,0.001392,0.02,-0.24,9.85
287159336,-0.000148,0.001757,0.001392,-0.02,-0.25,9.86
287160336,0.000918,0.000692,0.000326,-0.02,-0.24,9.81
287161346,-0.000148,-0.002504,0.000326,0.01,-0.20,9.82
287162356,-0.001213,-0.002504,-0.000739,0.02,-0.19,9.78
287163366,-0.000148,-0.001439,-0.000739,0.02,-0.23,9.81
287164381,0.001983,0.000692,0.001392,0.00,-0.23,9.82
287165386,0.001983,0.001757,0.003522,-0.02,-0.24,9.80
287166396,0.001983,0.001757,0.003522,-0.01,-0.26,9.86
287167406,-0.000148,0.000692,0.001392,0.00,-0.26,9.82
287168428,-0.003344,0.000692,0.000326,0.01,-0.26,9.80
287169437,-0.003344,-0.000374,-0.001804,0.03,-0.27,9.81
287170437,-0.001213,-0.000374,-0.000739,0.02,-0.26,9.84
287171447,0.001983,-0.000374,0.001392,0.00,-0.22,9.84
287172457,0.001983,-0.000374,0.003522,-0.01,-0.22,9.78
287173467,-0.000148,0.001757,0.002457,0.00,-0.23,9.78
287174482,-0.000148,-0.000374,0.001392,0.01,-0.23,9.82
287175487,0.000918,-0.001439,0.000326,-0.03,-0.23,9.84
287176497,-0.000148,-0.000374,0.001392,-0.04,-0.24,9.85
287177507,-0.001213,-0.001439,0.001392,-0.02,-0.23,9.82
287178527,-0.000148,-0.001439,0.002457,-0.02,-0.24,9.81
287179536,0.000918,-0.001439,0.001392,-0.02,-0.26,9.81
287180536,0.000918,-0.002504,0.001392,-0.02,-0.25,9.84
287181546,0.001983,-0.003570,0.001392,-0.01,-0.27,9.88
287182580,0.003017,-0.003576,0.001402,-0.02,-0.27,9.87
287183566,0.003017,-0.002510,0.000337,-0.01,-0.28,9.82
287184581,0.000886,-0.001445,-0.002859,-0.03,-0.26,9.81
287185586,-0.000179,-0.000380,-0.002859,-0.02,-0.22,9.78
287186596,-0.000179,0.000685,-0.000728,0.01,-0.19,9.85
287187606,0.000886,0.000685,0.000337,0.00,-0.24,9.87
287188628,0.000886,-0.000380,0.001402,0.00,-0.28,9.83
287189637,0.001952,-0.000380,0.000337,0.01,-0.24,9.87
287190637,0.000886,0.000685,0.000337,0.00,-0.22,9.89
287191647,-0.001244,0.001751,-0.000728,0.00,-0.26,9.89
287192657,0.000886,0.002816,-0.000728,0.01,-0.26,9.86
287193667,0.003017,0.001751,0.000337,-0.02,-0.26,9.80
287194688,0.000886,-0.000380,0.001402,-0.03,-0.28,9.78
287195688,-0.000179,-0.001445,0.001402,0.00,-0.27,9.73
287196705,-0.001244,-0.000380,0.002468,0.00,-0.23,9.77
287197718,-0.000179,-0.000380,0.001402,0.01,-0.24,9.84
287198771,0.003017,-0.000380,0.000337,0.02,-0.25,9.84
287199749,0.003017,0.003881,0.000337,0.03,-0.21,9.83
287200743,0.003017,0.004947,0.000337,0.05,-0.24,9.84
287201756,-0.000179,0.003881,0.000337,0.02,-0.25,9.84
287202768,-0.001244,0.000685,0.000337,-0.04,-0.21,9.82
287203790,-0.001244,-0.002510,0.002468,-0.04,-0.22,9.85
287204792,-0.001244,-0.003576,0.003533,0.00,-0.26,9.86
287205799,-0.000179,-0.001445,0.002468,-0.01,-0.25,9.81
287206806,0.000886,0.001751,-0.000728,-0.03,-0.23,9.81
287207819,0.000886,0.001751,-0.001794,-0.03,-0.22,9.84
287208839,0.000886,0.000685,0.001402,-0.01,-0.22,9.85
287209849,-0.001244,0.001751,0.002468,-0.01,-0.27,9.84
287210853,-0.001244,0.000685,0.001402,0.00,-0.27,9.82
287211856,-0.001244,-0.001445,0.001402,0.02,-0.24,9.83
287212865,-0.002310,-0.002510,-0.000728,0.01,-0.25,9.84
287213874,-0.001244,-0.002510,-0.001794,0.00,-0.27,9.81
287214886,0.000886,-0.001445,0.000337,-0.01,-0.26,9.84
287215888,0.001952,-0.002510,0.002468,-0.02,-0.24,9.81
287216898,-0.000179,-0.000380,0.002468,-0.02,-0.25,9.84
287217910,0.000886,0.001751,0.003533,0.01,-0.26,9.88
287218931,-0.000179,0.001751,0.000337,0.00,-0.28,9.87
287219939,-0.002310,0.002816,-0.001794,0.00,-0.28,9.85
287220938,-0.001244,0.002816,-0.000728,0.01,-0.22,9.83
287221949,0.003017,0.000685,-0.000728,-0.02,-0.21,9.83
287222956,0.003017,-0.000380,-0.001794,-0.01,-0.26,9.82
287223966,0.001952,-0.000380,-0.000728,-0.02,-0.28,9.85
287224981,-0.000179,0.001751,-0.000728,-0.01,-0.27,9.85
287225986,0.000886,0.001751,-0.001794,0.00,-0.24,9.83
287226996,0.000886,-0.002510,-0.001794,-0.01,-0.25,9.81
287228006,-0.002310,-0.005706,0.000337,0.00,-0.25,9.79
287229028,-0.003375,-0.003576,0.002468,0.02,-0.24,9.80
287230037,-0.001244,-0.001445,0.004598,0.02,-0.25,9.82
287231037,0.000886,-0.001445,0.004598,0.01,-0.23,9.88
287232047,0.001952,-0.002510,0.002468,-0.01,-0.25,9.87
287233057,0.000886,-0.000380,-0.000728,0.00,-0.25,9.86
287234067,-0.000179,0.003881,-0.002859,0.01,-0.25,9.86
287235082,0.000886,0.006012,-0.002859,0.01,-0.28,9.79
287236087,-0.000179,0.002816,-0.002859,0.05,-0.28,9.80
287237097,-0.001244,-0.001445,-0.001794,0.02,-0.26,9.89
287238107,-0.001244,-0.003576,-0.001794,0.01,-0.24,9.89
287239127,-0.000179,-0.004641,-0.001794,0.02,-0.23,9.87
287240136,0.000886,-0.003576,-0.001794,-0.02,-0.25,9.84
287241136,0.000886,-0.002510,0.000337,-0.03,-0.26,9.81
287242146,0.001952,0.001751,0.003533,0.00,-0.25,9.79
287243156,0.000886,0.001751,0.002468,0.00,-0.25,9.82
287244166,0.001952,-0.000380,-0.000728,0.00,-0.28,9.87
287245181,0.004082,-0.000380,-0.001794,0.01,-0.25,9.82
287246186,0.005147,-0.001445,-0.002859,0.00,-0.22,9.80
287247196,0.004082,-0.002510,-0.001794,-0.01,-0.22,9.83
287248206,0.003017,-0.004641,-0.000728,0.00,-0.22,9.78
287249228,0.000886,-0.003576,0.000337,-0.02,-0.23,9.76
287250237,0.000886,-0.001445,0.001402,-0.01,-0.22,9.83
287251237,0.001952,0.000685,-0.000728,0.00,-0.21,9.83
287252247,0.000886,-0.000380,0.001402,0.02,-0.24,9.79
287253257,-0.001244,-0.001445,0.001402,0.02,-0.25,9.80
287254267,-0.001244,-0.002510,0.000337,-0.02,-0.22,9.82
287255282,-0.001244,-0.000380,-0.000728,-0.03,-0.24,9.88
287256287,-0.001244,0.000685,-0.002859,0.00,-0.27,9.89
287257297,-0.001244,-0.001445,-0.003924,0.03,-0.25,9.86
287258316,-0.000179,-0.002510,-0.002859,0.02,-0.24,9.85
287259321,-0.000179,-0.000380,-0.002859,0.01,-0.24,9.85
287260331,0.000886,0.000685,-0.001794,0.02,-0.25,9.84
287261336,0.001952,-0.000380,0.001402,-0.02,-0.23,9.85
287262346,0.003017,-0.000380,0.003533,-0.01,-0.20,9.86
287263356,0.004082,0.002816,0.001402,0.01,-0.20,9.83
287264366,0.005147,0.002816,-0.000728,0.01,-0.21,9.81
287265381,0.001952,0.001751,-0.001794,0.01,-0.21,9.82
287266386,0.000886,-0.000380,-0.000728,0.00,-0.23,9.83
287267396,-0.000179,-0.001445,0.000337,-0.02,-0.26,9.83
287268419,-0.002310,-0.002510,-0.000728,-0.02,-0.26,9.81
287269422,-0.002310,-0.002510,0.000337,-0.03,-0.26,9.82
287270432,-0.001244,-0.002510,0.000337,-0.01,-0.26,9.82
287271437,-0.000179,-0.001445,0.001402,-0.01,-0.23,9.79
287272447,0.001952,0.000685,0.002468,-0.02,-0.25,9.83
287273457,0.004082,0.002816,-0.000728,-0.01,-0.27,9.84
287274467,0.004082,0.002816,-0.002859,-0.02,-0.26,9.84
287275482,0.003017,-0.000380,-0.002859,-0.02,-0.26,9.78
287276487,0.000886,-0.002510,-0.000728,0.01,-0.27,9.78
287277497,-0.001244,-0.002510,0.000337,0.02,-0.24,9.80
287278516,-0.001244,-0.000380,0.001402,0.01,-0.23,9.80
287279521,-0.001244,0.001751,-0.000728,0.03,-0.24,9.82
287280531,-0.001244,0.003881,-0.001794,0.02,-0.23,9.83
287281536,-0.001244,0.004947,-0.000728,-0.02,-0.21,9.80
287282546,-0.000179,0.002816,0.001402,0.00,-0.22,9.82
287283556,-0.000179,0.000685,0.003533,0.00,-0.21,9.87
287284566,-0.000179,-0.000380,0.002468,-0.01,-0.21,9.89
287285581,0.000886,-0.001445,-0.000728,-0.02,-0.21,9.85
287286586,-0.000179,-0.003576,-0.001794,-0.02,-0.20,9.81
287287596,-0.000179,-0.004641,-0.001794,-0.01,-0.23,9.82
287288619,0.000886,-0.001445,0.001402,0.00,-0.22,9.79
287289622,0.001952,-0.001445,0.001402,0.02,-0.21,9.80
287290632,0.000886,-0.000380,0.001402,-0.01,-0.25,9.84
287291637,-0.002310,0.000685,0.000337,-0.01,-0.26,9.83
287292647,-0.003375,0.000685,-0.000728,-0.01,-0.26,9.83
287293657,-0.002310,-0.001445,0.001402,-0.03,-0.27,9.87
287294667,-0.003375,-0.001445,0.002468,-0.03,-0.25,9.86
287295716,-0.002310,-0.002510,0.001402,0.01,-0.26,9.83
287296722,0.000886,-0.001445,0.000337,0.02,-0.26,9.84
287297707,0.003017,0.000685,-0.000728,-0.02,-0.26,9.83
287298729,0.001952,0.002816,-0.000728,0.01,-0.26,9.80
287299730,-0.000179,0.001751,0.001402,0.01,-0.27,9.80
287300758,-0.001244,0.000685,0.003533,-0.03,-0.28,9.83
287301776,-0.000179,-0.000380,0.001402,-0.02,-0.25,9.83
287302759,-0.001244,-0.001445,-0.001794,-0.02,-0.25,9.84
287303773,-0.001244,-0.002510,-0.004989,-0.01,-0.21,9.83
287304782,-0.000179,-0.003576,-0.002859,-0.02,-0.22,9.82
287305791,0.000886,-0.001445,0.001402,-0.02,-0.24,9.82
287306801,0.000886,0.000685,0.002468,0.02,-0.23,9.84
287307807,0.001952,0.000685,0.001402,0.02,-0.21,9.86
287308836,0.004082,-0.000380,0.001402,0.00,-0.24,9.85
287309834,0.004082,-0.001445,0.000337,0.02,-0.28,9.86
287310850,0.001952,-0.000380,-0.000728,0.03,-0.23,9.82
287311876,0.000829,0.001783,-0.001802,0.02,-0.21,9.80
287312860,-0.000237,0.002849,-0.000737,0.00,-0.23,9.80
287313870,-0.000237,0.001783,-0.001802,0.01,-0.24,9.76
287314875,-0.001302,0.000718,-0.000737,-0.02,-0.23,9.75
287315889,-0.001302,0.000718,-0.001802,-0.06,-0.24,9.77
287316890,-0.000237,0.000718,-0.002867,-0.03,-0.27,9.79
287317899,-0.001302,0.001783,0.001394,0.00,-0.23,9.79
287318920,-0.001302,0.001783,0.002459,0.01,-0.23,9.78
287319927,-0.000237,0.000718,0.002459,0.00,-0.24,9.77
287320936,-0.000237,-0.000347,0.002459,-0.02,-0.24,9.77
287321940,-0.000237,0.000718,0.002459,-0.02,-0.27,9.78
287322950,-0.001302,0.003914,0.001394,-0.05,-0.29,9.80
287323957,-0.001302,0.003914,0.000329,-0.02,-0.29,9.85
287324967,-0.000237,-0.000347,-0.000737,0.02,-0.26,9.87
287325982,-0.000237,-0.002478,-0.001802,0.00,-0.24,9.83
287326987,-0.000237,-0.001412,-0.001802,0.01,-0.24,9.83
287327997,0.000829,-0.000347,-0.000737,0.03,-0.23,9.80
287329020,-0.001302,0.000718,0.001394,0.01,-0.25,9.77
287330023,-0.002367,0.000718,0.003524,0.00,-0.25,9.77
287331033,-0.002367,-0.000347,0.002459,-0.02,-0.26,9.78
287332039,-0.001302,-0.001412,-0.000737,-0.01,-0.26,9.86
287333049,-0.000237,-0.002478,-0.001802,0.00,-0.25,9.86
287334059,-0.001302,-0.002478,-0.001802,-0.02,-0.24,9.85
287335069,-0.001302,-0.001412,-0.000737,0.00,-0.24,9.83
287336083,-0.001302,0.001783,-0.001802,0.00,-0.24,9.81
287337089,-0.000237,0.002849,-0.003933,0.00,-0.24,9.84
287338099,0.000829,0.001783,-0.003933,0.01,-0.26,9.86
287339117,0.000829,0.000718,-0.003933,0.00,-0.24,9.83
287340122,0.001894,-0.000347,-0.002867,-0.01,-0.23,9.81
287341132,0.001894,-0.001412,-0.000737,0.00,-0.22,9.82
287342137,0.000829,-0.002478,0.001394,0.00,-0.22,9.80
287343147,0.001894,-0.002478,0.003524,0.02,-0.24,9.81
287344157,0.002959,-0.001412,0.003524,0.04,-0.24,9.82
287345167,0.004025,-0.000347,0.001394,0.01,-0.24,9.80
287346182,0.002959,0.000718,0.000329,-0.01,-0.25,9.80
287347187,0.000829,0.000718,-0.000737,0.00,-0.27,9.81
287348197,-0.000237,0.000718,-0.001802,0.02,-0.26,9.82
287349220,-0.000237,-0.001412,-0.002867,0.03,-0.25,9.82
287350223,0.000829,-0.002478,0.000329,0.04,-0.23,9.82
287351233,0.000829,-0.001412,0.002459,0.01,-0.23,9.86
287352239,0.000829,-0.000347,0.003524,0.00,-0.24,9.86
287353249,-0.000237,-0.000347,0.002459,0.00,-0.22,9.81
287354259,-0.001302,-0.000347,-0.000737,0.00,-0.25,9.78
287355269,-0.000237,0.000718,-0.001802,0.00,-0.29,9.81
287356283,0.000829,0.000718,-0.000737,-0.02,-0.30,9.84
287357289,0.000829,0.000718,0.001394,-0.02,-0.28,9.83
287358308,-0.001302,0.001783,0.002459,-0.02,-0.26,9.82
287359312,-0.001302,0.002849,0.001394,-0.01,-0.25,9.80
287360317,0.001894,0.003914,0.000329,0.00,-0.26,9.77
287361332,0.002959,0.002849,-0.001802,0.03,-0.29,9.77
287362337,0.001894,-0.000347,-0.002867,0.01,-0.25,9.77
287363347,-0.000237,-0.001412,0.000329,0.01,-0.25,9.81
287364357,-0.001302,-0.001412,0.002459,-0.01,-0.26,9.80
287365367,-0.002367,-0.000347,0.001394,-0.02,-0.23,9.77
287366382,-0.001302,-0.000347,-0.000737,-0.01,-0.23,9.81
287367387,0.000829,-0.000347,-0.001802,-0.02,-0.26,9.81
287368409,-0.000237,-0.001412,-0.001802,-0.01,-0.24,9.78
287369413,-0.002367,-0.000347,0.000329,0.01,-0.22,9.81
287370419,-0.003432,-0.000347,0.000329,-0.01,-0.23,9.85
287371433,-0.002367,0.000718,-0.001802,-0.03,-0.23,9.81
287372439,-0.000237,0.000718,-0.003933,-0.03,-0.25,9.77
287373449,0.000829,0.000718,-0.002867,-0.03,-0.25,9.84
287374459,0.000829,-0.001412,-0.000737,-0.03,-0.23,9.86
287375469,-0.000237,-0.000347,0.000329,0.02,-0.24,9.82
287376483,-0.003432,0.001783,0.000329,0.04,-0.27,9.83
287377489,-0.002367,0.001783,-0.000737,0.00,-0.28,9.83
287378508,0.000829,0.001783,-0.000737,0.00,-0.27,9.77
287379512,0.001894,0.001783,0.000329,0.00,-0.24,9.80
287380517,-0.000237,0.002849,0.000329,0.00,-0.21,9.82
287381532,-0.002367,0.000718,0.002459,0.00,-0.20,9.82
287382537,-0.002367,0.000718,0.004590,-0.02,-0.22,9.82
287383547,-0.000237,0.001783,0.003524,-0.04,-0.23,9.80
287384557,0.000829,0.000718,0.001394,-0.02,-0.24,9.80
287385567,-0.000237,0.001783,0.001394,-0.01,-0.25,9.82
287386582,-0.000237,0.001783,0.002459,0.00,-0.25,9.83
287387587,0.000829,0.002849,0.004590,0.04,-0.24,9.82
287388609,0.001894,0.001783,0.003524,0.03,-0.26,9.84
287389613,0.001894,-0.001412,-0.000737,0.00,-0.25,9.85
287390619,0.000829,-0.004608,-0.002867,-0.01,-0.24,9.82
287391633,-0.002367,-0.004608,-0.002867,-0.01,-0.23,9.84
287392639,-0.003432,-0.000347,-0.000737,-0.02,-0.21,9.82
287393649,-0.000237,0.000718,-0.000737,-0.02,-0.22,9.80
287394659,0.001894,-0.001412,-0.001802,0.02,-0.24,9.81
287395669,0.000829,-0.002478,-0.000737,0.01,-0.25,9.84
287396713,-0.002367,-0.001412,0.001394,0.01,-0.26,9.88
287397689,-0.004498,-0.001412,0.000329,-0.01,-0.26,9.84
287398712,-0.002367,-0.001412,0.000329,0.00,-0.22,9.82
287399718,-0.000237,-0.001412,-0.000737,0.01,-0.24,9.85
287400725,-0.000237,-0.001412,-0.002867,-0.02,-0.30,9.81
287401744,0.001894,-0.002478,-0.003933,-0.03,-0.29,9.74
287402747,0.002959,-0.001412,-0.002867,-0.02,-0.25,9.77
287403777,0.001894,0.000718,-0.000737,0.01,-0.25,9.80
287404768,0.000829,0.001783,0.000329,-0.02,-0.25,9.78
287405780,0.000829,0.000718,0.001394,-0.05,-0.23,9.80
287406790,0.000829,-0.000347,0.000329,-0.03,-0.23,9.84
287407803,-0.000237,-0.001412,-0.000737,0.00,-0.24,9.83
287408823,0.000829,-0.001412,0.000329,0.01,-0.23,9.78
287409825,0.000829,-0.000347,0.000329,0.00,-0.24,9.84
287410838,0.000829,-0.001412,-0.000737,0.01,-0.25,9.85
287411846,-0.000237,-0.001412,-0.001802,0.03,-0.24,9.83
287412849,-0.001302,-0.001412,-0.001802,0.00,-0.23,9.81
287413860,-0.001302,-0.000347,-0.000737,-0.03,-0.23,9.81
287414865,0.000829,0.000718,-0.000737,-0.01,-0.24,9.81
287415878,-0.000237,0.000718,0.000329,0.01,-0.22,9.74
287416888,0.001894,-0.000347,0.000329,0.03,-0.21,9.76
287417890,0.004025,0.000718,-0.001802,0.02,-0.24,9.83
287418908,0.001894,0.000718,-0.003933,-0.01,-0.25,9.82
287419915,-0.003432,-0.000347,-0.002867,0.01,-0.23,9.88
287420922,-0.003432,-0.000347,-0.001802,-0.01,-0.22,9.82
287421936,-0.000237,-0.000347,-0.000737,-0.03,-0.23,9.84
287422940,0.001894,0.000718,0.000329,0.03,-0.23,9.84
287423950,0.002959,0.000718,-0.000737,0.04,-0.27,9.82
287424957,0.000829,-0.000347,-0.001802,-0.01,-0.26,9.80
287425967,-0.001302,-0.001412,-0.000737,-0.01,-0.25,9.79
287426982,-0.001302,-0.000347,0.000329,-0.01,-0.26,9.79
287427987,-0.000237,-0.001412,0.001394,-0.02,-0.25,9.82
287429009,-0.000237,-0.002478,0.001394,-0.02,-0.24,9.85
287430013,0.000829,-0.002478,0.000329,-0.02,-0.24,9.79
287431019,0.001894,-0.001412,0.001394,-0.01,-0.25,9.79
287432033,0.001894,-0.000347,0.001394,0.02,-0.25,9.84
287433039,-0.000237,0.001783,-0.000737,0.01,-0.25,9.80
287434049,-0.000237,0.002849,-0.001802,-0.01,-0.27,9.79
287435059,0.001894,0.002849,-0.001802,0.02,-0.25,9.79
287436069,0.001894,0.001783,-0.001802,0.03,-0.25,9.81
287437083,0.000829,0.000718,-0.000737,0.01,-0.26,9.77
287438089,-0.001302,-0.000347,0.000329,0.02,-0.23,9.75
287439108,-0.000237,-0.001412,0.000329,0.02,-0.22,9.80
287440112,0.001894,0.000718,0.000329,0.01,-0.22,9.85
287441141,0.000829,0.001778,-0.001776,0.02,-0.23,9.86
287442132,-0.000236,0.000713,-0.001776,0.01,-0.27,9.79
287443137,-0.001301,-0.000352,-0.000711,0.01,-0.27,9.76
287444147,-0.001301,0.000713,0.000354,0.01,-0.23,9.75
287445157,-0.001301,0.001778,0.001419,-0.01,-0.27,9.77
287446167,0.000829,0.000713,0.002485,0.00,-0.28,9.80
287447500,0.000829,0.000713,0.002485,0.02,-0.25,9.79
287448187,-0.000236,0.000713,0.002485,0.12,-0.38,9.82
287449171,-0.006628,-0.006744,-0.024147,0.05,-0.29,9.91
287450179,-0.046043,-0.005679,-0.033735,-0.07,-0.08,9.79
287451188,-0.043913,-0.002483,-0.011364,0.04,-0.19,9.74
287452202,-0.027933,0.002843,0.012072,0.01,-0.15,9.94
287453208,-0.021542,0.004974,0.023790,-0.11,-0.15,9.83
287454219,-0.021542,0.006039,0.029117,0.04,-0.03,9.88
287455228,-0.008758,0.003909,0.032313,0.26,0.07,9.94
287456239,0.012547,-0.001418,0.030182,0.33,-0.42,9.75
287457270,0.013612,-0.003548,0.020594,0.16,-0.89,9.65
287458259,0.004025,-0.000352,0.000354,-0.26,-0.73,9.71
287459292,0.008286,-0.007809,-0.016690,-0.61,-0.04,9.74
287460281,0.004025,-0.021658,-0.015625,-0.10,0.24,9.71
287461289,-0.003432,-0.019527,-0.002842,0.68,-0.52,9.85
287462304,0.009351,0.001778,-0.000711,0.18,-0.80,10.17
287463309,0.007221,0.010300,-0.012429,-0.89,0.28,10.05
287464320,-0.027933,-0.008875,-0.016690,-0.15,0.38,9.33
287465329,-0.025803,-0.015266,-0.002842,0.92,-1.64,9.10
287466340,0.021069,0.009235,-0.004972,-0.09,0.40,10.73
287467371,-0.004497,0.004974,-0.012429,-0.66,1.72,10.23
287468360,-0.066284,-0.034441,0.000354,0.45,-2.94,8.41
287469391,0.005090,-0.005679,-0.004972,0.34,0.27,11.03
287470381,0.060485,0.014562,-0.012429,-0.44,2.62,10.50
287471389,-0.066284,-0.024854,-0.002842,0.12,-3.85,7.75
287472404,-0.050304,0.017757,-0.014560,0.25,1.07,11.40
287473409,0.028526,0.035867,-0.008168,-0.37,1.18,9.80
287474420,-0.048174,-0.020593,0.000354,0.24,-2.59,8.92
287475429,-0.002367,-0.008875,-0.006038,0.28,1.53,10.84
287476440,0.012547,-0.000352,0.002485,-0.21,-1.21,8.49
287477471,-0.026868,0.010300,-0.001776,-0.31,-0.03,11.71
287478484,-0.019411,-0.025919,0.007811,0.22,-0.24,8.56
287479470,-0.074806,-0.024854,0.007811,0.27,-0.22,10.15
287480480,-0.010889,-0.006744,0.017399,-0.58,-0.72,9.94
287481489,-0.008758,-0.032311,0.014203,0.54,0.63,9.66
287482504,-0.001301,-0.015266,0.009942,-0.31,-0.78,10.09
287483509,-0.013020,-0.008875,0.000354,-0.08,-0.58,9.32
287484520,0.001894,0.010300,-0.009233,0.22,0.99,10.18
287485529,-0.021542,-0.009940,-0.016690,-0.49,-1.76,9.18
287486540,-0.027933,-0.007809,-0.013495,0.55,1.20,10.26
287487571,-0.004497,0.010300,-0.007103,-0.58,-1.28,9.66
287488582,0.010417,-0.003548,-0.003907,0.77,0.76,10.57
287489570,0.000829,-0.018462,-0.003907,0.10,-0.07,8.86
287490580,-0.016215,-0.003548,-0.003907,-0.45,-1.09,10.58
287491589,-0.005563,0.013496,-0.003907,0.43,0.69,8.73
287492604,-0.004497,0.001778,-0.002842,-1.08,-1.23,10.44
287493609,-0.006628,-0.006744,0.002485,0.67,0.44,10.86
287494620,-0.008758,0.002843,0.008876,0.70,0.30,8.93
287495629,0.013612,-0.001418,0.008876,-0.79,-1.31,11.74
287496640,0.006156,-0.003548,0.006746,0.15,0.15,7.65
287497676,-0.003432,0.000713,0.004615,0.11,0.09,8.91
287498693,0.000829,0.002843,0.006746,-0.80,-1.45,12.13
287499677,-0.000236,0.001778,0.008876,0.36,0.34,7.81
287500684,0.016808,0.007105,0.004615,0.33,0.48,10.23
287501698,0.043440,0.022018,-0.001776,-0.95,-1.59,12.61
287502710,0.041310,0.029475,-0.004972,0.40,-0.03,8.21
287503720,-0.002367,0.013496,-0.003907,0.65,0.96,8.42
287504726,-0.021542,0.001778,-0.004972,-0.90,-1.23,11.88
287505753,-0.027933,0.004974,-0.002842,-0.13,-1.20,9.25
287506753,-0.016215,0.001778,-0.000711,1.04,0.97,6.95
287507783,-0.022607,-0.001418,-0.002842,-0.12,0.35,11.30
287508794,-0.044978,0.008170,-0.003907,-0.92,-1.84,12.30
287509783,-0.053500,0.015627,-0.003907,0.57,-0.14,8.29
287510793,-0.046043,0.003909,-0.001776,1.07,1.29,8.55
287511800,0.001894,0.004974,0.001419,-0.30,-0.04,11.85
287512810,0.014678,0.016692,0.002485,-1.07,-1.64,10.90
287513819,-0.011954,0.020953,0.000354,0.53,-0.67,7.37
287514830,-0.018346,0.029475,-0.003907,1.23,1.53,7.93
287515840,0.001894,0.015627,-0.000711,-0.42,0.62,12.05
287516847,0.035983,-0.007809,0.005681,-1.24,-1.57,12.22
287517876,0.057289,-0.014201,0.009942,-0.07,-1.51,8.50
287518887,0.033853,-0.008875,0.008876,1.15,0.60,7.32
287519870,0.010417,-0.000352,-0.000711,0.36,1.46,10.04
287520884,-0.000236,-0.003548,-0.004972,-0.89,0.38,12.69
287521893,-0.024738,-0.005679,0.000354,0.11,-1.67,7.61
287522907,0.002960,0.015627,0.005681,0.55,0.76,7.99
287523911,0.013612,0.012431,0.015268,0.30,1.88,10.72
287524922,0.015743,-0.002483,0.017399,-0.19,0.58,13.11
287525929,0.007221,-0.009940,0.013137,-1.01,-2.61,10.54
287526960,-0.013020,0.001778,0.011007,-0.61,-2.45,7.76
287527951,-0.001301,0.020953,0.008876,0.61,-0.37,7.39
287528982,0.008286,0.015627,0.003550,0.84,1.34,8.97
287529970,-0.009824,-0.006744,0.004615,0.47,1.86,11.50
287530980,-0.006628,-0.009940,0.007811,-0.18,0.18,12.27
287531989,0.012547,0.004974,0.008876,-0.91,-2.13,10.81
287533004,0.018939,0.009235,0.007811,-0.53,-2.29,9.11
287534009,0.014678,0.002843,0.005681,0.42,-1.26,8.19
287535020,0.011482,-0.002483,0.003550,0.83,0.17,7.95
287536029,0.011482,-0.011005,-0.000711,1.03,2.25,8.89
287537060,-0.011954,0.004974,-0.004972,0.74,1.58,11.13
287538051,-0.024738,0.023084,-0.012429,-0.63,-0.12,11.98
287539084,-0.015150,0.003909,-0.011364,-1.41,-1.46,11.24
287540070,-0.005563,-0.031246,-0.011364,-0.26,-2.32,10.31
287541080,-0.002367,-0.044029,-0.017756,0.32,-1.48,8.40
287542089,-0.007693,-0.007809,-0.017756,-0.29,-1.17,7.99
287543104,-0.004497,0.012431,-0.019886,0.62,1.41,8.94
287544109,0.012547,-0.014201,-0.013495,0.97,2.09,8.90
287545120,0.010417,-0.016332,-0.015625,-0.31,1.56,10.28
287546129,-0.037521,-0.002483,-0.010299,-0.28,0.99,11.30
287547160,-0.019411,0.011366,-0.004972,-0.46,-0.79,11.21
287548151,0.037049,0.029475,-0.007103,-0.96,-2.10,10.24
287549182,0.111618,0.024149,-0.011364,-0.55,-2.75,9.75
287550170,0.130793,0.002843,-0.015625,0.09,-1.08,10.64
287551180,0.122271,-0.017397,-0.013495,0.64,-0.54,8.94
287552189,0.090313,-0.004614,0.004615,0.17,-0.91,7.35
287553204,0.034918,0.022018,0.017399,0.35,1.44,8.70
287554209,0.011482,0.001778,0.016333,0.90,1.95,8.98
287555220,-0.007693,-0.018462,0.007811,0.02,1.40,10.14
287556229,-0.008758,-0.009940,0.008876,0.17,1.20,11.04
287557260,-0.009824,0.022018,0.012072,-0.14,-0.18,10.95
287558251,-0.000236,0.028410,0.013137,-0.90,-1.20,10.80
287559284,0.015743,0.009235,0.008876,-0.34,-1.79,10.52
287560270,-0.011954,0.004974,0.007811,-0.30,-1.49,10.97
287561280,-0.026868,0.002843,0.008876,-0.08,-1.89,9.80
287562289,-0.015150,0.004974,0.009942,-0.16,-1.50,10.10
287563304,0.017874,-0.004614,0.008876,0.17,-0.97,9.36
287564309,0.050897,-0.024854,0.009942,0.24,-0.78,7.46
287565320,0.034918,-0.018462,0.007811,0.21,0.49,7.39
287566329,0.005090,0.003909,0.006746,0.86,0.88,7.94
287567360,-0.033260,0.027345,0.001419,0.09,0.72,9.63
287568351,-0.031129,0.017757,-0.010299,-0.03,1.79,11.19
287569382,0.023200,-0.018462,-0.017756,0.62,1.13,11.03
287570370,0.041310,-0.021658,-0.016690,-0.14,0.72,11.04
287571380,0.008286,-0.008875,-0.014560,-0.14,0.38,10.06
287572389,-0.004497,0.009235,-0.014560,0.08,-0.05,10.08
287573404,-0.003432,0.019888,-0.008168,-0.76,-0.97,9.79
287574409,0.009351,-0.001418,-0.008168,-0.32,-1.42,10.34
287575420,0.015743,-0.016332,-0.010299,-0.09,-0.62,11.61
287576429,-0.003432,-0.009940,-0.013495,-0.42,-1.87,10.12
287577460,-0.025803,0.012431,-0.009233,-0.14,-1.52,10.13
287578475,-0.026868,0.019888,-0.006038,-0.30,-0.69,11.08
287579461,0.001894,-0.005679,0.000354,-0.18,-1.74,9.23
287580469,0.013612,-0.014201,0.001419,-0.28,-1.09,9.43
287581480,0.015743,-0.005679,0.000354,0.19,-0.52,9.65
287582489,0.021069,-0.006744,0.001419,0.43,-0.69,7.74
287583504,-0.023672,0.011366,-0.000711,-0.19,0.26,8.27
287584509,-0.026868,0.030541,0.004615,0.52,0.15,8.08
287585520,-0.006628,0.028410,0.013137,-0.11,-0.20,8.92
287586529,0.007221,0.001778,0.013137,-0.14,1.10,10.34
287587560,0.029592,-0.029115,0.009942,0.90,0.89,9.42
287588574,0.018939,-0.018462,0.002485,0.07,0.37,9.64
287589561,0.000829,0.001778,0.000354,-0.12,1.10,10.07
287590569,0.014678,-0.009940,0.000354,0.56,0.39,9.57
287591580,-0.004497,-0.016332,-0.002842,-0.13,0.85,9.91
287592589,-0.031129,-0.003548,-0.002842,0.03,0.18,9.35
287593604,-0.041782,0.014562,-0.006038,0.44,0.30,10.30
287594609,-0.041782,0.033737,-0.009233,-0.65,0.09,11.44
287595620,0.001894,0.010300,-0.013495,0.22,-0.55,11.56
287596629,0.008286,-0.030180,-0.016690,0.39,0.95,11.51
287597660,-0.031129,-0.035507,-0.015625,-0.76,-1.38,9.47
287598677,-0.006628,-0.024854,-0.014560,0.12,-1.06,9.98
287599661,0.027461,-0.016332,-0.019886,-0.03,0.76,10.52
287600677,-0.003432,0.001778,-0.013495,-0.55,-1.48,8.60
287601685,-0.020476,0.027345,-0.008168,0.09,-0.88,9.07
287602698,-0.036456,0.039063,-0.008168,-0.39,-0.12,12.38
287603708,-0.010889,0.003909,-0.007103,-0.13,-1.59,12.32
287604719,0.037049,-0.033376,-0.008168,0.40,-0.21,10.81
287605727,0.007221,-0.014201,-0.004972,-0.35,-0.74,10.45
287606736,-0.007693,0.012431,0.003550,-0.01,-2.41,8.91
287607750,0.018939,0.003909,0.001419,0.20,0.23,8.88
287608782,-0.009824,0.003909,0.001419,-0.13,-0.34,9.03
287609772,-0.041782,0.026280,0.003550,0.27,-2.10,7.57
287610785,-0.024738,0.032671,0.005681,-0.37,-0.08,10.34
287611795,0.009351,0.004974,0.006746,-0.08,-0.81,11.44
287612799,0.032788,-0.033376,0.008876,0.75,-0.63,9.81
287613810,0.011482,-0.025919,0.007811,-0.36,-0.04,10.26
287614817,-0.006628,-0.004614,0.011007,0.04,-1.56,8.55
287615830,0.031722,-0.014201,0.006746,0.21,0.18,8.08
287616837,0.008286,-0.012071,0.002485,-0.44,0.43,8.55
287617846,-0.024738,0.000713,0.003550,0.53,-0.88,7.59
287618878,-0.027933,0.024149,0.002485,-0.26,-0.02,9.08
287619865,-0.013020,0.013496,-0.001776,-0.29,0.36,10.53
287620869,0.000829,-0.012071,-0.002842,0.30,-0.38,10.04
287621884,-0.006628,-0.012071,-0.008168,-0.19,0.55,10.46
287622893,0.005090,0.001778,-0.009233,0.10,0.12,8.81
287623907,-0.005563,0.006039,-0.004972,0.01,0.76,8.77
287624911,-0.019411,0.013496,-0.000711,-0.12,-0.34,8.45
287625922,-0.033260,0.016692,0.002485,-0.06,0.29,9.29
287626929,-0.023672,0.002843,0.003550,0.38,0.60,10.27
287627940,-0.021542,-0.001418,0.006746,-0.03,-0.15,10.96
287628972,-0.020476,-0.002483,0.004615,-0.49,0.30,11.31
287629961,-0.004497,-0.028050,0.003550,0.31,-0.19,9.82
287630969,0.008286,-0.033376,-0.001776,0.18,-0.34,8.34
287631980,-0.011954,0.010300,-0.003907,-0.17,0.37,8.72
287632989,0.000829,0.016692,-0.008168,0.31,-0.44,9.54
287634004,-0.004497,-0.004614,-0.012429,-0.18,0.90,10.00
287635009,-0.016215,-0.006744,-0.012429,-0.35,-0.07,10.31
287636020,0.020004,-0.007809,-0.013495,0.70,-0.15,11.41
287637029,0.027461,-0.011005,-0.016690,0.04,1.34,11.41
287638040,-0.015150,0.002843,-0.015625,-0.69,-1.06,9.69
287639072,0.002960,-0.001418,-0.016690,0.54,-0.22,10.45
287640061,0.016808,-0.021658,-0.018821,0.07,1.57,9.71
287641069,-0.013020,-0.015266,-0.016690,-0.47,-1.10,8.06
287642080,-0.002367,0.008170,-0.016690,0.57,0.10,10.77
287643089,0.005090,0.016692,-0.015625,-0.13,1.14,10.54
287644104,-0.021542,0.013496,-0.008168,-0.39,-1.07,9.51
287645109,-0.006628,0.014562,-0.002842,0.54,0.37,11.31
287646120,-0.021542,0.013496,-0.000711,0.02,0.57,11.27
287647129,-0.016215,0.000713,0.005681,-0.33,-1.31,10.67
287648140,0.015743,-0.024854,0.012072,0.54,-0.10,11.57
287649172,0.055158,-0.036572,0.018464,0.38,0.14,9.47
287650161,0.031722,0.002843,0.028051,-0.35,-1.30,7.82
287651169,0.027461,0.040128,0.031247,0.23,-0.57,9.26
287652180,0.000829,0.055042,0.028051,0.14,-0.23,10.61
287653189,-0.013020,0.025214,0.026986,-0.38,-1.12,11.47
287654204,0.005090,-0.032311,0.022725,0.32,-1.08,12.34
287655209,0.051963,-0.068530,0.013137,0.55,-0.44,10.52
287656220,0.027461,-0.025919,0.011007,-0.53,-1.09,9.79
287657229,0.016808,0.014562,0.006746,-0.14,-1.86,9.74
287658240,0.016808,0.009235,-0.001776,0.38,-0.43,8.24
287659272,-0.022607,-0.000352,-0.008168,-0.76,-0.77,8.95
287660261,-0.026868,0.002843,-0.011364,-0.01,-2.01,9.53
287661269,-0.009824,-0.005679,-0.023082,0.48,0.12,10.25
287662280,-0.037521,0.001778,-0.028408,-0.89,-0.64,10.99
287663289,-0.036456,0.015627,-0.029474,-0.26,-2.23,10.28
287664304,0.015743,-0.008875,-0.032670,0.19,0.50,9.44
287665309,-0.009824,-0.016332,-0.030539,-1.01,-0.57,9.35
287666320,0.000829,-0.000352,-0.024147,0.07,-1.99,8.43
287667329,0.016808,0.014562,-0.020952,0.57,0.91,8.55
287668340,-0.016215,0.012431,-0.017756,-1.13,-0.51,8.74
287669372,-0.034325,0.012431,-0.009233,-0.02,-1.54,9.18
287670361,0.017874,-0.017397,-0.008168,0.66,1.08,9.71
287671369,0.004025,-0.028050,-0.000711,-1.11,-0.57,9.52
287672380,-0.007693,-0.008875,0.006746,0.15,-1.03,9.84
287673389,0.039179,-0.012071,0.004615,0.89,1.22,9.56
287674404,0.018939,-0.012071,0.003550,-0.97,-0.42,8.67
287675409,-0.003432,0.009235,0.009942,0.48,-0.50,8.18
287676420,0.020004,0.017757,0.013137,0.65,0.86,9.37
287677429,-0.000236,0.009235,0.012072,-0.56,0.40,9.18
287678440,-0.016215,0.011366,0.015268,0.59,-0.09,8.67
287679472,-0.021542,0.017757,0.009942,0.61,1.37,10.51
287680461,-0.034325,0.015627,0.008876,-0.31,0.31,10.38
287681469,-0.011954,0.004974,0.012072,-0.12,0.18,11.05
287682480,0.040245,-0.031246,0.012072,0.56,0.96,10.57
287683489,0.037049,-0.031246,0.012072,-0.09,-0.15,8.07
287684504,-0.000236,0.025214,0.015268,0.23,0.67,7.92
287685509,0.009351,0.067826,0.012072,0.69,0.26,9.14
287686520,0.008286,0.064630,0.006746,-0.23,0.56,10.59
287687529,0.008286,0.015627,0.006746,-0.13,0.35,11.09
287688561,0.028526,-0.036572,0.007811,0.73,0.02,11.68
287689554,0.018939,-0.050421,0.002485,0.17,0.62,10.76
287690560,-0.002367,-0.019527,0.000354,-0.58,-0.47,10.18
287691569,-0.000236,-0.015266,-0.007103,0.54,-0.37,10.77
287692580,0.016808,-0.026984,-0.016690,0.16,0.88,9.02
287693589,-0.014085,-0.006744,-0.016690,-0.62,-1.14,7.84
287694602,-0.000236,0.002843,-0.017756,0.62,-0.37,10.61
287695609,0.014678,0.003909,-0.020952,-0.12,1.06,10.70
287696620,-0.024738,0.022018,-0.019886,-1.02,-1.42,10.18
287697629,-0.000236,0.025214,-0.017756,0.42,-0.35,12.37
287698661,0.009351,0.008170,-0.016690,0.11,0.93,11.58
287699654,-0.019411,0.000713,-0.011364,-0.92,-1.67,9.62
287700660,-0.001301,0.001778,-0.006038,0.22,-0.80,10.72
287701676,0.008286,-0.006744,-0.006038,0.08,0.58,9.42
287702685,-0.027933,0.000713,-0.001776,-0.79,-1.34,8.59
287703698,-0.025803,0.008170,0.003550,0.20,-1.07,10.49
287704708,0.007221,0.001778,0.004615,0.12,-0.03,10.58
287705717,-0.007693,-0.002483,0.009942,-0.44,-1.29,9.85
287706729,0.007221,0.003909,0.006746,0.20,-0.85,10.06
287707736,0.034918,0.015627,0.005681,0.03,0.07,10.83
287708773,0.033853,0.018823,0.013137,-0.48,-1.33,10.64
287709764,0.063681,-0.008875,0.017399,0.18,-1.21,10.69
287710772,0.064746,-0.033376,0.019529,0.58,0.06,9.34
287711783,-0.008758,-0.017397,0.019529,-0.23,-0.85,8.69
287712801,-0.031129,0.026280,0.022725,0.00,-1.72,8.35
287713797,-0.034325,0.048651,0.018464,0.38,-0.06,9.63
287714809,-0.046043,0.025214,0.014203,-0.45,-0.52,10.39
287715819,-0.041782,-0.006744,0.016333,0.16,-1.66,9.52
287716830,-0.017281,-0.025919,0.013137,0.58,0.08,10.15
287717838,-0.015150,-0.021658,0.008876,-0.65,-0.47,9.79
287718869,-0.030064,-0.014201,0.007811,-0.03,-1.33,9.02
287719857,-0.014085,-0.021658,0.000354,0.39,0.23,8.59
287720864,-0.013020,-0.012071,-0.003907,-0.81,-0.48,8.04
287721869,-0.018346,-0.005679,-0.003907,0.15,-0.75,8.48
287722884,0.020004,-0.003548,-0.009233,0.42,0.55,9.35
287723895,0.022135,0.015627,-0.008168,-1.00,-0.15,9.29
287724906,0.046636,-0.003548,-0.012429,0.57,0.55,9.94
287725911,0.041310,-0.000352,-0.016690,-0.75,0.17,9.26
287726922,0.017874,0.014562,-0.013495,0.03,0.39,9.55
287727929,0.022135,0.019888,-0.009233,0.55,0.30,9.10
287728961,-0.006628,0.022018,-0.010299,-0.61,0.21,8.62
287729954,-0.025803,0.027345,-0.009233,-0.16,0.43,9.89
287730960,0.001894,0.012431,-0.010299,0.73,0.33,10.29
287731969,-0.017281,-0.003548,-0.012429,-0.28,0.70,9.91
287732980,-0.049239,0.011366,-0.007103,-0.39,-0.13,10.22
287733989,-0.016215,0.004974,-0.004972,0.86,0.11,11.02
287735002,-0.000236,-0.019527,-0.002842,0.03,1.18,10.18
287736009,-0.022607,-0.007809,0.003550,-0.49,-0.74,8.72
287737020,0.001894,-0.001418,0.003550,0.80,0.10,10.43
287738029,0.016808,-0.016332,0.002485,-0.03,1.47,10.18
287739061,-0.008758,-0.013136,0.007811,-0.62,-0.71,9.24
287740054,0.002960,-0.006744,0.005681,0.78,0.30,11.20
287741060,0.004025,-0.014201,0.005681,0.14,1.11,11.09
287742069,-0.019411,-0.021658,0.008876,-0.71,-1.26,9.82
287743080,0.020004,-0.030180,0.007811,0.67,0.01,11.50
287744089,0.048767,-0.023789,0.002485,0.33,0.98,10.77
287745102,-0.003432,0.001778,0.005681,-0.67,-1.54,8.91
287746109,0.001894,0.009235,0.004615,0.43,-0.62,10.95
287747120,0.024265,0.008170,-0.000711,0.26,0.33,9.80
287748129,-0.015150,0.027345,-0.004972,-0.80,-1.54,9.34
287749161,0.006156,0.035867,-0.006038,0.26,-1.03,11.62
287750154,0.030657,0.017757,-0.007103,0.35,0.19,10.67
287751160,-0.014085,0.019888,-0.003907,-0.70,-1.23,10.37
287752169,0.002960,0.022018,-0.002842,0.29,-1.63,10.86
287753180,0.015743,0.004974,-0.006038,0.40,-0.01,9.77
287754189,-0.015150,-0.001418,-0.004972,-0.79,-1.09,9.50
287755202,0.002960,0.019888,0.001419,0.00,-1.93,9.75
287756209,0.011482,0.017757,-0.000711,0.40,0.10,9.40
287757220,-0.022607,0.001778,-0.001776,-0.87,-1.18,9.56
287758229,-0.006628,0.000713,0.000354,-0.02,-2.07,9.85
287759261,0.025331,-0.015266,-0.002842,0.55,0.64,9.49
287760254,-0.010889,-0.016332,-0.001776,-0.97,-0.85,9.57
287761260,-0.035390,0.003909,-0.000711,0.18,-2.02,8.75
287762269,-0.014085,0.002843,-0.010299,0.62,0.87,9.25
287763280,-0.020476,-0.005679,-0.010299,-0.88,-0.46,9.27
287764289,-0.028999,0.004974,-0.000711,0.26,-1.24,8.67
287765302,-0.018346,-0.000352,0.000354,0.43,1.00,9.33
287766309,-0.047109,-0.004614,0.002485,-1.11,-0.70,9.00
287767320,-0.043913,-0.006744,0.009942,0.20,-0.69,9.63
287768329,0.016808,-0.025919,0.007811,0.85,1.06,9.52
287769361,0.020004,-0.019527,0.008876,-0.84,-0.43,8.56
287770354,-0.015150,0.007105,0.015268,0.25,-0.28,9.07
287771360,0.024265,-0.005679,0.011007,0.80,0.70,9.60
287772369,0.032788,-0.019527,0.012072,-0.65,0.00,8.65
287773380,-0.000236,-0.005679,0.014203,0.23,0.44,9.58
287774389,0.023200,-0.006744,0.008876,0.86,0.65,10.03
287775402,0.007221,-0.005679,0.005681,-0.57,0.28,9.65
287776409,-0.018346,0.006039,0.004615,-0.27,0.25,10.39
287777420,0.029592,-0.003548,-0.001776,0.90,0.51,10.55
287778429,0.026396,-0.007809,-0.009233,-0.21,0.83,9.79
287779461,-0.018346,0.010300,-0.008168,-0.23,-0.23,8.61
287780454,0.001894,0.026280,-0.008168,0.67,0.48,10.40
287781460,-0.008758,0.029475,-0.011364,-0.40,1.28,10.49
287782469,-0.018346,0.017757,-0.012429,-0.11,-0.39,9.40
287783480,0.007221,0.023084,-0.013495,0.56,0.96,11.07
287784489,-0.018346,0.030541,-0.007103,-0.10,0.83,10.92
287785502,-0.009824,0.020953,-0.001776,-0.30,-0.99,10.73
287786509,0.054093,-0.016332,0.004615,0.45,0.44,11.67
287787520,0.045571,-0.045094,0.006746,0.23,0.34,9.42
287788550,-0.013020,-0.009940,0.007811,-0.51,-0.86,8.47
287789541,-0.011954,0.040128,0.013137,0.38,-0.15,10.42
287790552,-0.011954,0.049716,0.014203,0.09,0.07,10.69
287791560,-0.005563,0.015627,0.015268,-0.58,-1.27,10.11
287792569,0.032788,-0.020593,0.017399,0.37,-0.98,11.57
287793580,0.031722,-0.025919,0.011007,0.36,-0.10,11.25
287794589,-0.009824,0.004974,0.006746,-0.57,-1.42,10.45
287795644,-0.024738,0.024149,0.002485,0.13,-1.73,11.10
287796619,-0.018346,-0.002483,-0.006038,0.22,-0.42,9.02
287797620,-0.035390,-0.014201,-0.006038,-0.64,-1.04,8.96
287798651,-0.037521,-0.002483,-0.001776,0.29,-1.84,9.17
287799641,-0.032195,0.003909,-0.006038,0.13,-0.20,10.33
287800652,-0.034325,-0.001418,-0.003907,-0.59,-1.08,10.34
287801660,-0.025803,-0.009940,-0.004972,0.17,-1.11,9.85
287802677,-0.021542,-0.020593,-0.011364,-0.08,0.13,10.25
287803686,-0.005563,-0.018462,-0.002842,-0.94,-1.65,9.66
287804695,0.015743,-0.007809,0.003550,-0.24,-1.09,10.54
287805706,0.053028,-0.037637,-0.001776,0.40,0.29,8.73
287806723,0.033853,-0.032311,-0.002842,-0.41,-0.54,7.93
287807728,-0.002367,0.013496,0.004615,-0.03,-1.10,7.57
287808759,0.009351,0.035867,0.005681,0.16,0.34,9.00
287809750,-0.008758,0.024149,0.005681,-0.79,-0.43,10.15
287810765,-0.015150,-0.014201,0.005681,0.26,-0.91,10.01
287811772,0.031722,-0.036572,0.001419,0.69,0.53,10.17
287812794,0.020004,-0.017397,-0.000711,-0.76,-0.51,9.21
287813797,-0.004497,0.004974,0.000354,0.17,-0.49,9.50
287814801,0.023200,-0.000352,-0.001776,0.86,0.45,8.35
287815810,0.008286,0.001778,-0.002842,-0.61,-0.34,7.37
287816819,-0.019411,0.018823,-0.002842,0.38,-0.08,7.94
287817828,0.007221,0.025214,-0.003907,0.50,0.45,9.97
287818860,-0.004497,0.032671,-0.003907,-0.61,0.74,10.68
287819849,0.000829,0.020953,-0.003907,0.42,0.05,10.06
287820857,0.021069,0.006039,-0.004972,0.50,1.01,10.76
287821864,0.004025,-0.008875,-0.001776,-0.15,0.99,10.15
287822869,0.020004,-0.012071,-0.002842,-0.20,0.18,10.29
287823886,0.058354,-0.019527,-0.002842,0.25,0.97,10.33
287824893,0.017874,-0.033376,-0.002842,-0.17,0.55,8.29
287825906,-0.026868,0.042259,0.001419,0.57,0.26,10.10
287826911,-0.024738,0.050781,0.000354,-0.10,0.86,11.13
287827922,-0.019411,0.019888,0.001419,-0.37,-0.25,11.02
287828950,0.010417,-0.017397,0.004615,0.67,-0.24,11.93
287829941,0.012547,-0.022723,0.002485,0.36,0.75,11.07
287830952,-0.009824,0.008170,0.004615,-0.50,-1.21,9.49
287831960,-0.016215,0.017757,0.008876,0.52,-0.70,10.63
287832969,-0.006628,-0.007809,0.006746,0.28,0.59,9.07
287833980,-0.023672,-0.012071,0.006746,-0.57,-1.21,8.60
287834989,-0.023672,-0.006744,0.005681,0.44,-0.76,11.21
287836002,-0.020476,-0.006744,-0.000711,0.01,0.09,10.75
287837009,-0.032195,-0.002483,0.004615,-0.71,-1.44,10.19
287838020,-0.018346,-0.006744,0.005681,0.12,-0.81,11.60
287839050,0.002960,-0.031246,-0.000711,-0.02,0.24,11.22
287840041,-0.005563,-0.040833,0.000354,-0.68,-1.36,10.15
287841052,-0.002367,-0.033376,-0.000711,0.01,-1.35,10.54
287842060,0.027461,-0.030180,-0.011364,0.26,0.05,8.85
287843069,-0.008758,-0.005679,-0.013495,-0.85,-1.23,8.63
287844080,-0.031129,0.014562,-0.012429,-0.23,-1.96,9.94
287845089,0.012547,0.003909,-0.016690,0.46,0.12,9.85
287846102,-0.015150,0.006039,-0.010299,-0.81,-0.85,10.47
287847109,-0.030064,0.010300,-0.007103,0.02,-2.26,10.28
287848120,0.030657,-0.006744,-0.010299,0.69,0.27,9.66
287849150,0.006156,0.000713,-0.009233,-0.78,-0.66,9.66
287850141,-0.015150,0.013496,-0.003907,0.34,-2.16,8.28
287851152,0.016808,0.007105,-0.002842,0.73,0.59,8.56
287852160,0.002960,-0.002483,0.000354,-0.59,-0.23,9.03
287853169,0.020004,0.007105,0.001419,0.44,-1.20,8.49
287854180,0.041310,0.028410,0.001419,0.36,0.92,9.89
287855189,0.000829,0.023084,0.006746,-0.90,-0.63,9.61
287856202,0.020004,-0.006744,0.011007,0.31,-0.61,9.63
287857209,0.065811,-0.017397,0.011007,0.75,1.24,9.88
287858220,0.029592,0.003909,0.005681,-0.71,-0.24,8.57
287859250,-0.000236,0.025214,0.002485,0.04,0.01,9.03
287860241,0.023200,0.018823,0.002485,0.61,0.67,8.95
287861252,-0.005563,0.006039,0.001419,-0.62,0.08,8.13
287862260,-0.033260,0.026280,0.002485,0.01,0.44,9.74
287863269,0.001894,0.023084,-0.000711,0.72,0.43,10.28
287864280,-0.008758,0.011366,-0.004972,-0.51,0.49,9.98
287865289,-0.021542,0.019888,-0.002842,-0.19,0.25,10.46
287866302,0.014678,0.004974,-0.003907,0.84,0.32,10.57
287867309,0.010417,-0.018462,-0.004972,-0.20,0.88,9.58
287868320,-0.007693,-0.002483,-0.002842,-0.22,-0.29,8.62
287869350,0.010417,0.011366,-0.006038,0.71,0.29,10.27
287870341,0.000829,-0.004614,-0.009233,-0.24,1.27,10.04
287871352,-0.015150,-0.009940,-0.000711,-0.34,-0.29,9.32
287872360,-0.006628,0.001778,0.000354,0.73,0.45,11.29
287873369,-0.020476,0.002843,-0.002842,-0.02,0.98,11.24
287874380,-0.027933,-0.007809,0.000354,-0.53,-0.86,10.22
287875389,-0.002367,-0.025919,0.003550,0.61,0.13,11.36
287876402,0.012547,-0.033376,0.000354,0.21,0.83,10.23
287877409,-0.024738,-0.009940,0.004615,-0.73,-1.36,8.87
287878420,-0.035390,-0.002483,0.004615,0.42,-0.54,10.93
287879450,-0.002367,-0.013136,-0.000711,0.26,0.49,9.77
287880441,-0.019411,0.003909,0.004615,-0.87,-1.46,9.40
287881452,-0.021542,0.010300,0.005681,0.31,-1.08,11.80
287882460,0.010417,-0.014201,0.000354,0.30,0.14,10.97
287883469,-0.017281,-0.004614,0.004615,-0.81,-1.35,10.35
287884480,-0.009824,-0.000352,0.005681,0.24,-1.47,11.13
287885489,0.040245,-0.026984,0.001419,0.27,-0.04,9.80
287886502,0.009351,-0.026984,0.005681,-0.75,-1.17,9.40
287887509,0.005090,-0.004614,0.001419,0.13,-1.79,9.98
287888541,0.030657,-0.004614,-0.006038,0.35,0.04,9.71
287889530,-0.014085,-0.006744,-0.006038,-0.74,-1.10,9.78
287890540,0.002960,-0.000352,-0.008168,-0.04,-2.02,9.86
287891552,0.048767,-0.004614,-0.014560,0.32,0.36,9.78
287892560,-0.013020,-0.001418,-0.014560,-0.87,-1.02,9.87
287893569,-0.017281,0.000713,-0.013495,0.13,-2.08,9.48
287894580,0.026396,0.004974,-0.015625,0.66,0.58,8.86
287895589,-0.004497,0.015627,-0.013495,-0.89,-0.64,8.93
287896602,-0.013020,0.027345,-0.010299,0.34,-1.63,7.98
287897609,0.005090,0.030541,-0.008168,0.42,0.56,9.25
287898641,-0.008758,0.020953,-0.004972,-0.61,-0.01,9.64
287899630,0.015743,0.013496,0.000354,0.40,-0.44,8.90
287900640,0.011482,0.017757,0.006746,0.37,1.08,10.01
287901652,-0.019411,0.011366,0.016333,-0.66,-0.80,9.10
287902660,0.017874,0.001778,0.015268,-0.16,-0.10,10.21
287903677,0.061550,-0.038703,0.015268,0.57,0.89,9.37
287904684,0.024265,-0.056812,0.013137,-0.29,-0.44,7.44
287905698,-0.028999,-0.002483,0.016333,0.44,0.76,8.01
287906709,-0.038586,0.042259,0.016333,0.51,0.43,9.18
287907718,-0.037521,0.035867,0.013137,-0.65,0.11,10.19
287908774,-0.020476,-0.001418,0.014203,0.23,0.66,10.59
287909736,0.009351,-0.037637,0.009942,0.88,0.45,10.79
287910752,0.007221,-0.038703,0.003550,-0.15,0.41,10.18
287911763,-0.022607,-0.004614,0.002485,-0.25,0.19,10.17
287912772,-0.024738,-0.001418,-0.004972,0.59,-0.07,9.96
287913782,-0.018346,-0.020593,-0.009233,-0.07,0.76,8.90
287914789,-0.040717,-0.015266,-0.007103,-0.15,-0.18,8.26
287915806,-0.022607,-0.011005,-0.011364,0.57,0.18,10.40
287916806,-0.017281,0.000713,-0.016690,-0.46,1.16,11.23
287917819,-0.032195,-0.000352,-0.011364,-0.26,-0.62,10.57
287918852,-0.006628,-0.011005,-0.013495,0.41,0.40,11.46
287919841,0.018939,-0.012071,-0.011364,-0.14,0.71,10.74
287920847,0.016808,-0.002483,-0.007103,-0.33,-0.99,10.43
287921857,0.037049,-0.012071,-0.008168,0.18,0.16,11.31
287922864,0.037049,-0.025919,-0.008168,-0.04,0.24,8.85
287923880,-0.019411,0.004974,-0.000711,-0.62,-1.00,8.00
287924884,-0.008758,0.042259,0.002485,0.19,-0.23,10.32
287925893,0.006156,0.059303,0.002485,-0.03,0.09,11.34
287926906,-0.008758,0.032671,0.003550,-0.49,-1.19,10.95
287927911,0.034918,-0.005679,0.007811,0.24,-0.19,11.16
287928944,0.005090,0.018823,0.004615,-0.41,-1.19,10.21
287929930,0.011482,0.024149,0.005681,0.10,-1.79,10.43
287930940,0.017874,0.009235,0.006746,0.26,-0.69,8.20
287931952,-0.007693,0.006039,0.007811,-0.63,-1.00,8.64
287932960,-0.001301,0.013496,0.008876,0.18,-1.95,9.31
287933969,0.000829,0.013496,0.004615,0.40,-0.16,10.40
287934980,-0.010889,0.000713,0.002485,-0.48,-0.68,10.93
287935989,-0.002367,-0.006744,0.003550,0.05,-1.61,9.68
287937002,-0.006628,-0.015266,-0.002842,0.09,0.25,10.28
287938009,-0.010889,-0.033376,-0.003907,-0.71,-0.99,9.88
287939041,-0.003432,-0.033376,-0.002842,-0.07,-1.41,9.38
287940030,0.017874,-0.038703,-0.009233,0.38,0.46,8.63
287941040,0.004025,-0.028050,-0.011364,-0.53,-0.46,8.08
287942052,-0.036456,0.002843,-0.003907,0.03,-1.12,8.01
287943060,-0.036456,0.022018,-0.006038,0.22,0.51,9.50
287944069,-0.040717,0.020953,-0.004972,-0.73,-0.24,10.04
287945080,-0.036456,-0.007809,-0.000711,0.27,-0.80,9.62
287946089,0.010417,-0.028050,-0.000711,0.61,0.50,9.99
287947102,0.016808,-0.009940,0.002485,-0.64,-0.22,9.15
287948109,-0.003432,0.004974,0.005681,0.23,-0.07,9.36
287949141,0.027461,-0.006744,0.005681,0.67,0.39,8.47
287950130,0.023200,0.000713,0.008876,-0.64,-0.13,7.81
287951140,-0.000236,0.012431,0.009942,0.10,0.16,9.28
287952152,0.028526,0.004974,0.004615,0.78,0.35,9.99
287953160,0.016808,0.003909,0.001419,-0.41,0.42,9.82
287954169,-0.006628,0.014562,0.001419,-0.11,0.13,10.47
287955180,0.031722,0.001778,-0.002842,0.68,0.34,10.86
287956189,0.025331,-0.017397,-0.013495,-0.26,0.98,9.95
287957202,-0.006628,-0.004614,-0.016690,-0.14,-0.06,8.89
287958209,0.006156,0.015627,-0.018821,0.60,0.32,9.84
287959241,-0.017281,0.013496,-0.023082,-0.36,1.34,9.72
287960230,-0.038586,0.011366,-0.020952,-0.31,-0.03,9.24
287961240,-0.013020,0.027345,-0.014560,0.64,0.58,11.07
287962252,-0.020476,0.028410,-0.007103,-0.09,1.18,11.13
287963260,-0.024738,0.008170,0.000354,-0.55,-0.70,10.30
287964269,0.011482,-0.020593,0.003550,0.61,0.13,11.51
287965280,0.026396,-0.035507,0.003550,0.28,1.04,10.44
287966289,-0.009824,-0.017397,0.012072,-0.51,-1.19,8.81
287967302,-0.016215,-0.009940,0.012072,0.58,-0.43,10.69
287968309,0.022135,-0.022723,0.003550,0.21,0.61,9.62
287969341,0.006156,-0.014201,0.008876,-0.80,-1.45,9.15
287970330,-0.004497,-0.008875,0.011007,0.45,-0.76,11.64
287971340,0.011482,-0.022723,0.008876,0.36,0.37,11.17
287972352,-0.021542,-0.008875,0.009942,-0.74,-1.58,10.45
287973360,-0.004497,-0.011005,0.004615,0.34,-1.33,11.60
287974369,0.034918,-0.028050,-0.004972,0.30,0.12,10.17
287975380,-0.018346,-0.011005,-0.003907,-0.65,-1.20,9.19
287976389,-0.031129,0.016692,-0.007103,0.27,-1.52,9.33
287977402,-0.021542,0.036932,-0.011364,0.10,-0.07,10.16
287978409,-0.034325,0.027345,-0.011364,-0.50,-1.34,9.65
287979441,0.004025,0.011366,-0.011364,0.22,-0.90,9.65
287980430,0.001894,0.015627,-0.007103,-0.03,0.05,10.31
287981440,-0.020476,0.015627,-0.000711,-0.82,-1.81,9.91
287982452,0.029592,-0.004614,0.000354,-0.16,-1.02,11.10
287983460,0.059420,-0.045094,0.003550,0.50,0.11,9.26
287984469,0.009351,-0.042964,0.001419,-0.29,-0.66,8.42
287985480,-0.019411,0.015627,0.001419,-0.06,-1.26,7.51
287986489,-0.016215,0.052912,0.003550,0.19,0.08,8.67
287987502,-0.011954,0.033737,0.007811,-0.68,-0.42,9.90
287988530,0.008286,-0.011005,0.014203,0.19,-1.17,9.54
287989521,0.028526,-0.037637,0.011007,0.61,0.25,10.04
287990529,0.017874,-0.031246,0.005681,-0.75,-0.63,9.54
287991540,-0.011954,-0.006744,0.006746,0.09,-0.74,9.89
287992552,-0.011954,-0.013136,0.001419,0.76,0.41,8.65
287993560,-0.033260,-0.016332,-0.003907,-0.71,-0.47,7.65
287994569,-0.060957,-0.000352,-0.000711,0.29,-0.39,7.77
287995580,-0.032195,0.001778,-0.002842,0.45,0.40,9.40
287996589,-0.023672,0.012431,-0.002842,-0.65,0.61,9.91
287997602,-0.037521,0.011366,-0.000711,0.44,0.24,9.60
287998630,-0.004497,0.001778,-0.004972,0.37,0.81,10.63
287999621,0.018939,-0.001418,-0.000711,-0.43,0.75,10.42
288000629,0.034918,-0.005679,0.003550,-0.09,0.49,10.61
288001640,0.062615,-0.016332,0.003550,0.28,0.76,10.26
288002652,0.039179,-0.011005,0.003550,-0.27,0.51,8.56
288003660,0.006156,0.016692,0.004615,-0.08,0.57,8.43
288004677,0.032788,0.041194,0.004615,0.52,0.20,9.85
288005684,0.031722,0.045455,0.000354,-0.12,0.91,10.51
288006698,0.007221,0.024149,-0.002842,-0.26,0.06,10.69
288007706,0.025331,0.003909,-0.001776,0.64,-0.26,11.76
288008743,0.024265,0.003909,-0.004972,0.28,0.85,11.12
288009727,-0.004497,0.020953,-0.004972,-0.42,-0.83,9.81
288010736,-0.002367,0.015627,-0.001776,0.66,-0.67,10.60
288011755,-0.010889,-0.000352,-0.002842,0.33,0.82,9.30
288012761,-0.037521,0.008170,0.002485,-0.47,-1.06,8.62
288013772,-0.035390,0.017757,0.002485,0.56,-0.60,10.91
288014781,-0.030064,0.007105,-0.003907,-0.01,0.44,10.61
288015789,-0.028999,-0.006744,-0.000711,-0.65,-1.24,10.02
288016801,-0.017281,-0.013136,0.002485,0.23,-0.40,11.73
288017810,-0.015150,-0.023789,-0.000711,0.00,0.29,11.50
288018839,-0.011954,-0.032311,-0.000711,-0.49,-1.43,10.18
288019855,0.007221,-0.035507,0.000354,0.09,-0.82,10.71
288020841,0.037049,-0.034441,-0.001776,0.07,0.12,9.26
288021849,0.007221,-0.009940,0.000354,-0.71,-1.23,8.73
288022856,-0.010889,0.010300,-0.001776,-0.16,-1.45,10.17
288023866,0.020004,0.012431,-0.007103,0.27,-0.09,9.96
288024869,-0.009824,0.019888,-0.004972,-0.66,-0.89,10.42
288025884,-0.011954,0.009235,-0.002842,-0.03,-1.99,10.56
288026893,0.031722,-0.002483,-0.006038,0.52,-0.11,10.02
288027906,0.004025,0.014562,-0.007103,-0.66,-0.76,10.05
288028932,0.004025,0.020953,-0.006038,0.10,-2.26,9.25
288029924,-0.006628,0.009235,-0.001776,-0.71,-0.75,8.79
288030929,0.007221,0.018823,0.000354,0.17,-1.98,8.58
288031940,0.026396,0.017757,-0.000711,0.66,0.61,9.32
288032952,-0.004497,0.006039,-0.001776,-0.85,-0.50,9.59
288033960,-0.005563,0.009235,0.002485,0.14,-1.25,9.42
288034969,0.016808,0.009235,0.002485,0.51,0.99,9.76
288035980,-0.001301,-0.000352,0.000354,-1.02,-0.44,9.09
288036989,-0.009824,-0.005679,0.004615,0.06,-0.69,9.14
288038002,0.017874,-0.021658,-0.001776,0.78,1.16,8.99
288039030,-0.000236,-0.026984,-0.007103,-0.73,-0.04,8.22
288040021,-0.047109,0.004974,-0.002842,0.23,-0.05,8.45
288041029,-0.039652,0.016692,-0.007103,0.40,0.78,9.86
288042040,-0.032195,0.008170,-0.011364,-0.69,0.52,9.72
