time_us,gyro_x_rad_s,gyro_y_rad_s,gyro_z_rad_s,acc_x_m_s2,acc_y_m_s2,acc_z_m_s2
78367997,0.000934,-0.002325,-0.004791,0.02,-0.25,9.84
78368928,0.000934,-0.002325,-0.002661,0.00,-0.27,9.80
78370654,-0.000132,-0.000195,-0.000530,-0.02,-0.27,9.82
78371690,-0.000132,0.001936,0.002666,0.02,-0.23,9.86
78372712,0.000934,0.000871,0.001600,0.04,-0.24,9.80
78373716,0.000934,0.001936,-0.000530,0.00,-0.28,9.85
78374710,-0.000132,0.001936,-0.000530,-0.04,-0.25,9.90
78375720,-0.001197,0.001936,0.000535,-0.02,-0.22,9.85
78376733,-0.002262,0.001936,0.001600,-0.01,-0.23,9.84
78377750,-0.002262,0.000871,0.000535,-0.01,-0.25,9.81
78378751,-0.002262,-0.000195,-0.000530,0.00,-0.23,9.79
78379763,-0.002262,0.000871,-0.002661,-0.02,-0.23,9.82
78380770,-0.000132,0.001936,-0.002661,0.01,-0.23,9.80
78381777,0.003064,-0.000195,-0.001596,0.01,-0.23,9.79
78382800,0.005195,-0.000195,-0.000530,0.00,-0.27,9.81
78383801,0.003064,-0.000195,-0.000530,0.01,-0.28,9.83
78384800,-0.000132,-0.001260,0.000535,0.02,-0.28,9.80
78385814,-0.003327,-0.001260,0.002666,0.02,-0.28,9.80
78386859,-0.004393,-0.000195,0.000535,0.01,-0.32,9.78
78387849,-0.002262,0.000871,-0.001596,-0.02,-0.28,9.81
78388838,0.000934,0.000871,-0.000530,-0.01,-0.21,9.89
78389845,0.003064,0.000871,0.001600,0.02,-0.25,9.87
78390855,0.001999,0.000871,0.002666,0.01,-0.29,9.85
78391865,0.001999,0.001936,0.002666,0.00,-0.28,9.84
78392898,0.001999,-0.000195,0.002666,0.03,-0.24,9.83
78393894,-0.003327,0.003001,0.002666,0.02,-0.24,9.78
78394895,-0.000132,0.004067,0.001600,-0.01,-0.23,9.79
78395905,0.003064,0.001936,0.000535,0.02,-0.24,9.85
78396915,0.003064,-0.001260,0.000535,0.02,-0.25,9.80
78397925,0.001999,-0.003390,-0.001596,-0.01,-0.25,9.78
78398944,-0.000132,-0.003390,-0.002661,0.01,-0.23,9.80
78399945,-0.001197,-0.001260,-0.001596,0.03,-0.24,9.78
78400955,-0.000132,-0.000195,-0.000530,0.03,-0.26,9.77
78401965,-0.000132,0.000871,0.000535,0.01,-0.27,9.82
78402987,0.000934,-0.000195,0.000535,0.00,-0.26,9.85
78403991,-0.001197,-0.000195,-0.000530,0.00,-0.24,9.79
78404995,-0.002262,-0.000195,-0.001596,0.00,-0.26,9.81
78406005,-0.003327,-0.000195,-0.001596,0.01,-0.29,9.90
78407015,-0.003327,-0.000195,-0.002661,0.00,-0.28,9.90
78408025,-0.001197,0.000871,-0.002661,-0.01,-0.23,9.80
78409044,-0.000132,0.003001,-0.001596,0.00,-0.21,9.77
78410045,-0.000132,0.000871,0.000535,0.01,-0.22,9.79
78411055,-0.001197,-0.001260,0.001600,-0.03,-0.26,9.78
78412065,-0.001197,-0.002325,0.000535,-0.05,-0.23,9.78
78413084,-0.002262,-0.001260,-0.000530,-0.03,-0.22,9.78
78414094,-0.002262,-0.000195,-0.001596,0.00,-0.25,9.80
78415095,-0.001197,-0.000195,-0.001596,0.00,-0.26,9.86
78416105,-0.000132,0.000871,-0.001596,0.01,-0.25,9.89
78417115,-0.001197,0.001936,-0.000530,0.04,-0.24,9.87
78418125,-0.001197,-0.001260,-0.000530,0.04,-0.24,9.88
78419144,0.000934,-0.002325,-0.000530,0.04,-0.22,9.86
78420145,0.001999,-0.000195,0.000535,0.01,-0.25,9.83
78421155,0.003064,0.003001,0.001600,0.02,-0.30,9.86
78422165,0.000934,0.001936,-0.000530,0.04,-0.29,9.84
78423187,-0.000132,-0.001260,0.000535,0.02,-0.28,9.79
78424191,0.000934,-0.002325,0.001600,-0.01,-0.25,9.78
78425195,0.003064,-0.004456,0.003731,0.00,-0.24,9.78
78426205,0.000934,-0.003390,0.001600,0.02,-0.25,9.82
78427215,-0.001197,-0.002325,-0.000530,0.01,-0.23,9.83
78428225,-0.002262,-0.002325,-0.000530,0.01,-0.24,9.80
78429244,-0.000132,-0.001260,0.001600,0.03,-0.27,9.80
78430245,0.003064,-0.001260,0.002666,0.02,-0.28,9.81
78431255,0.003064,-0.002325,0.002666,0.01,-0.27,9.82
78432265,0.000934,-0.003390,0.001600,-0.01,-0.24,9.87
78433284,-0.000132,-0.002325,-0.000530,0.00,-0.26,9.85
78434294,0.000934,-0.001260,-0.000530,0.04,-0.28,9.82
78435295,-0.000132,-0.001260,-0.001596,0.00,-0.25,9.83
78436305,-0.002262,-0.001260,-0.001596,-0.04,-0.22,9.84
78437315,-0.000132,-0.000195,0.000535,-0.03,-0.26,9.85
78438325,0.001999,-0.000195,-0.000530,-0.01,-0.27,9.86
78439344,0.000934,-0.001260,-0.002661,-0.02,-0.26,9.87
78440345,-0.000132,-0.000195,-0.002661,-0.04,-0.26,9.88
78441355,-0.000132,-0.001260,0.000535,-0.01,-0.23,9.85
78442365,-0.000132,-0.001260,0.001600,0.01,-0.22,9.84
78443387,-0.000132,-0.001260,0.000535,-0.02,-0.23,9.85
78444391,0.000934,-0.000195,0.000535,-0.01,-0.23,9.87
78445395,0.001999,0.000871,0.000535,-0.02,-0.25,9.90
78446405,0.000934,0.000871,-0.000530,-0.04,-0.24,9.90
78447415,-0.001197,0.000871,-0.000530,0.02,-0.22,9.86
78448425,-0.003327,-0.001260,0.000535,0.02,-0.25,9.81
78449444,-0.003327,-0.002325,-0.000530,0.01,-0.28,9.81
78450445,-0.002262,0.000871,-0.002661,0.02,-0.27,9.82
78451455,-0.002262,0.001936,0.000535,0.02,-0.25,9.78
78452494,-0.001172,0.000925,0.002656,0.00,-0.26,9.78
78453482,-0.001172,-0.001205,0.000526,-0.01,-0.27,9.78
78454494,0.000959,-0.002271,0.000526,-0.01,-0.23,9.79
78455495,0.002024,-0.001205,0.000526,-0.01,-0.23,9.85
78456505,0.002024,-0.000140,-0.000540,0.01,-0.27,9.87
78457515,0.000959,-0.002271,0.000526,0.03,-0.26,9.88
78458525,-0.000107,-0.001205,-0.000540,0.03,-0.26,9.82
78459544,-0.000107,0.001990,-0.000540,0.02,-0.28,9.78
78460545,-0.001172,0.001990,-0.001605,0.02,-0.28,9.80
78461555,-0.002237,-0.000140,-0.001605,-0.01,-0.28,9.83
78462566,-0.003303,-0.002271,-0.001605,-0.01,-0.28,9.78
78463587,-0.001172,-0.003336,-0.001605,0.02,-0.28,9.76
78464594,-0.000107,-0.001205,-0.001605,0.01,-0.26,9.80
78465599,-0.002237,0.000925,-0.003735,0.00,-0.24,9.76
78466613,-0.003303,0.000925,-0.003735,0.00,-0.24,9.79
78467621,-0.002237,0.000925,-0.002670,0.00,-0.22,9.87
78468636,0.000959,-0.000140,-0.001605,0.01,-0.23,9.83
78469654,-0.000107,-0.001205,-0.000540,0.00,-0.24,9.78
78470659,-0.001172,-0.002271,-0.001605,0.02,-0.24,9.81
78471663,-0.000107,-0.002271,-0.002670,0.02,-0.27,9.83
78472689,0.000959,-0.000140,-0.002670,0.01,-0.24,9.87
78473690,0.000959,0.001990,-0.000540,0.00,-0.26,9.87
78474707,-0.000107,0.001990,0.000526,0.00,-0.29,9.80
78475708,-0.001172,-0.000140,-0.001605,0.00,-0.26,9.82
78476712,0.000959,-0.004401,-0.000540,-0.01,-0.26,9.86
78477730,0.002024,-0.003336,-0.000540,0.01,-0.27,9.87
78478735,-0.000107,-0.000140,-0.000540,0.01,-0.23,9.86
78479758,-0.002237,-0.001205,0.000526,0.02,-0.21,9.83
78480759,-0.002237,-0.003336,0.000526,0.01,-0.23,9.80
78481764,-0.000107,-0.004401,0.000526,0.01,-0.21,9.79
78482821,0.000959,-0.002271,0.000526,0.03,-0.20,9.81
78483783,-0.001172,0.001990,0.000526,0.02,-0.25,9.79
78484791,-0.001172,0.003056,0.001591,0.01,-0.26,9.77
78485796,-0.000107,0.003056,0.001591,0.02,-0.25,9.78
78486808,-0.000107,0.003056,-0.000540,0.02,-0.24,9.82
78487820,-0.000107,0.003056,-0.001605,0.02,-0.24,9.83
78488829,0.000959,0.000925,0.000526,0.03,-0.24,9.86
78489862,0.002024,-0.001205,0.002656,-0.01,-0.24,9.91
78490845,0.000959,-0.001205,0.001591,-0.04,-0.27,9.85
78491855,0.000959,0.000925,-0.000540,-0.03,-0.28,9.84
78492874,0.002024,-0.000140,-0.000540,-0.02,-0.28,9.85
78493875,0.002024,-0.001205,-0.002670,-0.03,-0.25,9.79
78494894,0.002024,-0.001205,-0.001605,0.02,-0.30,9.81
78495895,0.002024,-0.002271,-0.001605,0.01,-0.27,9.86
78496905,0.003089,-0.003336,-0.004801,0.00,-0.23,9.81
78497915,0.003089,-0.001205,-0.005866,0.02,-0.21,9.77
78498925,0.003089,0.000925,-0.003735,0.03,-0.22,9.80
78499944,0.004154,-0.000140,-0.000540,0.02,-0.24,9.79
78500945,0.003089,-0.000140,0.002656,0.03,-0.25,9.80
78501955,0.000959,-0.000140,0.003722,0.03,-0.24,9.82
78502975,0.002024,-0.001205,0.000526,-0.01,-0.21,9.82
78503975,0.002024,-0.003336,-0.002670,-0.04,-0.24,9.82
78504991,-0.000107,-0.003336,-0.002670,-0.03,-0.25,9.79
78505995,-0.000107,-0.001205,-0.001605,-0.01,-0.24,9.82
78507005,0.002024,0.000925,-0.001605,0.00,-0.25,9.81
78508015,0.003089,-0.000140,-0.001605,-0.02,-0.26,9.81
78509025,0.002024,-0.002271,0.000526,-0.02,-0.25,9.83
78510044,0.002024,-0.002271,0.001591,0.01,-0.26,9.84
78511045,0.002024,-0.003336,0.003722,0.05,-0.28,9.85
78512055,0.000959,-0.003336,0.003722,0.05,-0.26,9.81
78513074,-0.001172,-0.003336,0.000526,0.02,-0.26,9.83
78514075,-0.001172,-0.003336,-0.001605,0.00,-0.27,9.84
78515094,-0.001172,-0.002271,-0.002670,0.03,-0.27,9.82
78516095,-0.002237,-0.000140,-0.001605,0.00,-0.26,9.80
78517105,-0.003303,0.003056,-0.000540,-0.02,-0.25,9.84
78518115,-0.003303,0.003056,0.000526,0.02,-0.27,9.86
78519125,-0.002237,0.000925,0.000526,-0.02,-0.28,9.79
78520144,0.000959,-0.001205,-0.001605,-0.03,-0.26,9.77
78521145,0.000959,-0.000140,-0.000540,0.01,-0.27,9.80
78522155,0.000959,0.000925,0.000526,0.01,-0.25,9.78
78523175,-0.000107,-0.001205,0.000526,0.02,-0.22,9.78
78524175,-0.002237,-0.002271,0.000526,0.03,-0.26,9.85
78525191,-0.004368,-0.000140,-0.000540,0.03,-0.30,9.86
78526195,-0.003303,0.001990,-0.001605,0.04,-0.26,9.87
78527205,-0.001172,0.003056,-0.000540,0.02,-0.24,9.86
78528215,0.000959,0.004121,-0.000540,0.00,-0.24,9.82
78529225,0.000959,0.001990,-0.000540,0.00,-0.26,9.83
78530244,0.002024,0.000925,-0.000540,-0.03,-0.25,9.84
78531245,0.003089,0.001990,-0.000540,-0.04,-0.26,9.82
78532255,0.002024,0.001990,-0.000540,0.00,-0.26,9.82
78533274,0.000959,0.000925,0.000526,0.03,-0.23,9.80
78534275,-0.000107,0.001990,0.000526,0.00,-0.26,9.82
78535294,-0.000107,0.000925,-0.000540,-0.02,-0.30,9.84
78536295,-0.000107,-0.001205,-0.000540,0.01,-0.30,9.79
78537305,-0.000107,-0.004401,0.000526,0.00,-0.28,9.80
78538315,-0.000107,-0.004401,0.000526,0.00,-0.27,9.80
78539325,-0.000107,-0.001205,-0.000540,0.02,-0.26,9.82
78540344,-0.002237,0.000925,0.000526,0.04,-0.27,9.82
78541345,-0.003303,0.001990,0.001591,0.04,-0.25,9.82
78542355,-0.002237,-0.000140,-0.000540,0.03,-0.23,9.80
78543375,-0.000107,-0.000140,-0.001605,0.04,-0.24,9.78
78544375,0.002024,0.000925,-0.001605,0.03,-0.25,9.83
78545391,0.002024,0.001990,-0.001605,0.02,-0.24,9.82
78546395,0.000959,-0.000140,-0.001605,0.02,-0.21,9.82
78547405,-0.000107,-0.001205,-0.002670,0.02,-0.21,9.85
78548415,-0.001172,-0.001205,-0.001605,0.02,-0.21,9.82
78549425,-0.001172,-0.000140,-0.001605,0.02,-0.25,9.79
78550444,-0.000107,-0.002271,-0.001605,0.04,-0.28,9.80
78551445,-0.001172,-0.003336,-0.000540,0.03,-0.26,9.78
78552455,-0.001172,-0.001205,0.000526,0.00,-0.25,9.80
78553474,-0.000107,-0.000140,-0.002670,-0.01,-0.25,9.81
78554475,-0.000107,0.000925,-0.003735,-0.02,-0.26,9.81
78555494,-0.000107,-0.002271,-0.003735,-0.01,-0.28,9.79
78556495,0.000959,-0.003336,-0.001605,-0.01,-0.27,9.78
78557505,-0.000107,-0.000140,0.000526,-0.02,-0.25,9.81
78558515,-0.001172,0.000925,-0.000540,-0.02,-0.22,9.83
78559525,-0.001172,-0.000140,-0.000540,-0.01,-0.22,9.80
78560544,-0.000107,-0.002271,-0.000540,0.00,-0.24,9.80
78561545,-0.000107,-0.003336,-0.000540,0.02,-0.24,9.79
78562555,-0.001172,-0.000140,0.001591,0.03,-0.23,9.82
78563577,-0.002237,0.001990,0.003722,0.03,-0.23,9.84
78564578,-0.002237,0.001990,0.001591,0.02,-0.23,9.81
78565595,-0.002237,-0.000140,-0.000540,0.01,-0.24,9.79
78566599,-0.000107,-0.003336,-0.001605,0.03,-0.24,9.78
78567614,0.000959,-0.004401,-0.001605,0.03,-0.22,9.82
78568625,-0.002237,-0.001205,-0.002670,0.02,-0.24,9.82
78569634,-0.002237,-0.000140,-0.003735,0.02,-0.27,9.79
78570653,-0.001172,-0.002271,-0.001605,-0.02,-0.27,9.81
78571659,-0.001172,-0.003336,0.000526,-0.03,-0.27,9.82
78572681,-0.000107,-0.000140,0.001591,0.01,-0.28,9.78
78573685,0.000959,0.000925,0.001591,0.03,-0.26,9.77
78574689,0.000959,-0.000140,0.000526,0.02,-0.25,9.78
78575710,-0.000107,-0.000140,-0.002670,0.03,-0.23,9.85
78576709,-0.001172,0.000925,-0.002670,0.02,-0.27,9.90
78577711,-0.001172,0.001990,-0.000540,0.00,-0.29,9.82
78578729,-0.001172,0.003056,0.001591,-0.01,-0.26,9.81
78579737,-0.002237,0.004121,0.000526,0.01,-0.26,9.81
78580755,-0.001172,0.000925,0.000526,0.02,-0.27,9.77
78581784,-0.000097,-0.003281,0.002726,0.01,-0.28,9.80
78582774,-0.000097,-0.004346,0.002726,0.04,-0.25,9.82
78583773,-0.000097,-0.002216,-0.000470,0.02,-0.22,9.79
78584780,-0.000097,-0.000085,-0.001535,-0.01,-0.23,9.80
78585798,-0.000097,0.002045,-0.000470,0.02,-0.26,9.88
78586796,-0.000097,0.003111,0.000596,0.02,-0.25,9.89
78587818,-0.000097,0.002045,0.000596,0.01,-0.25,9.86
78588820,-0.000097,0.000980,-0.002600,0.00,-0.25,9.87
78589829,0.002034,-0.002216,-0.004731,-0.02,-0.27,9.85
78590846,0.002034,-0.001150,-0.001535,0.02,-0.31,9.84
78591877,0.002034,0.002045,-0.000470,0.02,-0.30,9.83
78592862,0.002034,0.002045,0.000596,-0.03,-0.26,9.79
78593865,0.002034,0.003111,-0.000470,-0.02,-0.23,9.82
78594875,0.000968,0.002045,-0.002600,0.00,-0.24,9.84
78595894,0.002034,0.000980,-0.001535,0.00,-0.24,9.86
78596895,0.002034,0.002045,-0.000470,0.00,-0.23,9.83
78597905,0.000968,-0.000085,-0.001535,0.01,-0.25,9.82
78598915,0.000968,-0.001150,-0.000470,0.02,-0.25,9.81
78599925,0.002034,-0.001150,0.000596,0.03,-0.27,9.84
78600944,0.002034,-0.001150,-0.000470,0.00,-0.27,9.86
78601945,-0.000097,-0.001150,-0.001535,-0.05,-0.27,9.86
78602966,-0.002227,-0.000085,-0.000470,-0.02,-0.26,9.85
78603965,-0.002227,0.000980,0.001661,0.03,-0.23,9.83
78604975,-0.002227,0.000980,0.000596,0.04,-0.22,9.78
78605991,-0.002227,-0.000085,-0.000470,0.00,-0.25,9.79
78606995,-0.001162,-0.000085,-0.000470,0.00,-0.25,9.80
78608005,-0.000097,-0.002216,-0.000470,0.03,-0.21,9.80
78609015,-0.000097,-0.003281,-0.002600,-0.02,-0.23,9.83
78610025,-0.001162,-0.004346,-0.000470,-0.01,-0.24,9.82
78611044,-0.003293,-0.003281,0.001661,0.00,-0.24,9.81
78612045,-0.003293,-0.002216,0.000596,-0.04,-0.23,9.82
78613062,-0.001162,0.002045,0.000596,-0.03,-0.26,9.82
78614065,0.000968,0.004176,0.001661,0.01,-0.28,9.77
78615075,0.003099,0.005241,0.003792,0.03,-0.27,9.80
78616094,0.003099,0.005241,0.003792,0.03,-0.25,9.81
78617095,0.000968,0.003111,0.002726,0.02,-0.26,9.77
78618105,-0.001162,0.000980,0.000596,-0.02,-0.27,9.76
78619115,-0.000097,-0.000085,-0.000470,-0.05,-0.27,9.82
78620125,0.002034,-0.000085,-0.000470,-0.03,-0.27,9.87
78621144,0.000968,0.000980,0.000596,-0.04,-0.26,9.83
78622145,-0.002227,0.000980,0.000596,-0.06,-0.26,9.80
78623166,-0.003293,-0.002216,-0.000470,-0.01,-0.26,9.83
78624165,-0.002227,-0.003281,0.000596,0.04,-0.23,9.87
78625175,0.000968,-0.001150,0.002726,0.02,-0.19,9.83
78626191,0.003099,-0.000085,0.002726,0.03,-0.22,9.82
78627195,0.005230,0.000980,-0.000470,0.02,-0.26,9.79
78628205,0.006295,0.000980,-0.001535,0.01,-0.24,9.77
78629215,0.004164,0.002045,0.000596,0.03,-0.20,9.79
78630225,-0.000097,0.002045,0.000596,0.02,-0.23,9.82
78631244,-0.001162,0.000980,-0.000470,-0.02,-0.26,9.82
78632245,0.000968,0.000980,0.001661,-0.02,-0.25,9.78
78633262,0.002034,0.002045,0.002726,0.00,-0.23,9.80
78634265,0.003099,-0.000085,0.002726,0.01,-0.25,9.80
78635275,0.002034,-0.001150,0.001661,0.02,-0.26,9.81
78636319,-0.000097,0.000980,0.001661,0.03,-0.29,9.84
78637321,-0.000097,0.003111,0.002726,0.02,-0.28,9.80
78638308,-0.001162,0.004176,0.002726,0.00,-0.24,9.83
78639315,-0.003293,0.004176,0.003792,0.03,-0.24,9.83
78640325,-0.003293,0.002045,0.004857,0.01,-0.24,9.77
78641344,-0.004358,0.000980,0.004857,0.01,-0.22,9.82
78642345,-0.002227,0.002045,0.004857,0.02,-0.21,9.87
78643366,-0.001162,0.000980,0.003792,0.01,-0.23,9.84
78644365,0.002034,-0.002216,0.001661,0.01,-0.25,9.85
78645375,0.003099,-0.004346,-0.000470,0.03,-0.27,9.83
78646391,0.002034,-0.003281,-0.001535,0.03,-0.28,9.85
78647395,0.002034,-0.002216,-0.001535,0.01,-0.27,9.86
78648405,0.000968,-0.001150,-0.000470,0.03,-0.26,9.79
78649415,-0.001162,-0.001150,0.000596,0.03,-0.24,9.79
78650425,-0.001162,-0.001150,0.000596,0.03,-0.24,9.80
78651444,-0.000097,0.000980,0.000596,0.05,-0.25,9.80
78652445,0.000968,0.002045,0.001661,0.03,-0.23,9.85
78653462,0.000968,0.000980,0.000596,0.01,-0.24,9.86
78654465,-0.000097,0.000980,0.000596,0.02,-0.26,9.85
78655475,0.000968,-0.000085,0.001661,0.00,-0.24,9.83
78656494,0.003099,-0.000085,-0.001535,-0.02,-0.26,9.82
78657495,0.004164,0.000980,-0.002600,0.02,-0.27,9.80
78658505,0.003099,0.002045,-0.001535,0.06,-0.25,9.76
78659515,0.002034,0.000980,-0.002600,0.03,-0.24,9.77
78660525,0.000968,0.000980,-0.003665,0.04,-0.23,9.80
78661544,-0.000097,-0.000085,-0.003665,0.04,-0.23,9.86
78662545,-0.001162,-0.002216,-0.002600,0.01,-0.23,9.85
78663566,-0.001162,-0.001150,-0.002600,0.03,-0.24,9.79
78664565,-0.001162,-0.000085,-0.001535,0.06,-0.25,9.85
78665578,-0.001162,-0.001150,-0.000470,0.02,-0.26,9.88
78666594,-0.001162,-0.001150,-0.000470,-0.01,-0.26,9.83
78667599,-0.001162,-0.000085,0.001661,-0.01,-0.29,9.84
78668612,0.000968,0.000980,0.001661,0.00,-0.29,9.86
78669621,0.002034,0.000980,0.000596,0.02,-0.24,9.90
78670636,0.000968,0.000980,-0.000470,-0.01,-0.24,9.86
78671654,0.000968,-0.001150,-0.000470,0.00,-0.27,9.82
78672662,0.000968,-0.001150,0.000596,0.02,-0.26,9.83
78673667,0.002034,-0.000085,0.001661,0.03,-0.25,9.84
78674682,0.003099,0.000980,-0.001535,0.01,-0.27,9.84
78675690,0.000968,-0.000085,-0.002600,-0.02,-0.23,9.82
78676705,0.002034,-0.001150,-0.000470,-0.04,-0.21,9.82
78677709,0.000968,-0.000085,-0.000470,-0.04,-0.23,9.83
78678712,0.000968,0.000980,-0.001535,-0.03,-0.23,9.91
78679732,0.000968,-0.000085,-0.000470,-0.01,-0.23,9.97
78680735,0.000968,-0.002216,0.000596,0.03,-0.23,9.96
78681758,0.000968,-0.003281,-0.000470,0.00,-0.24,9.88
78682768,-0.000097,-0.005412,-0.001535,-0.02,-0.28,9.85
78683765,-0.001162,-0.004346,-0.000470,0.00,-0.27,9.85
78684772,0.000968,-0.001150,0.001661,0.02,-0.21,9.81
78685779,0.003099,-0.000085,0.002726,0.02,-0.21,9.81
78686791,0.000968,-0.000085,0.001661,-0.01,-0.24,9.79
78687828,-0.000097,0.000980,0.000596,-0.01,-0.23,9.76
78688808,0.000968,0.002045,0.002726,0.02,-0.26,9.79
78689820,0.002034,0.003111,0.003792,0.02,-0.27,9.77
78690829,0.002034,0.002045,0.002726,0.00,-0.26,9.76
78691846,-0.000097,0.000980,-0.001535,0.02,-0.28,9.81
78692854,-0.000097,-0.000085,-0.002600,0.03,-0.28,9.85
78693861,0.000968,0.000980,0.000596,0.02,-0.25,9.80
78694906,0.002034,0.000980,0.001661,0.00,-0.23,9.78
78695931,0.000968,-0.000085,-0.002600,0.00,-0.25,9.82
78696894,0.000968,-0.000085,-0.002600,0.00,-0.25,9.82
78697895,0.004164,0.000980,-0.001535,0.00,-0.26,9.84
78698905,0.004164,0.003111,-0.001535,0.02,-0.26,9.83
78699915,0.002034,0.004176,-0.002600,-0.01,-0.28,9.85
78700925,0.000968,0.003111,-0.002600,-0.02,-0.27,9.82
78701935,0.002034,0.000980,-0.001535,0.00,-0.26,9.80
78702962,0.003099,0.003111,-0.001535,-0.01,-0.26,9.84
78703955,0.003099,0.005241,-0.000470,0.01,-0.25,9.80
78704965,0.004164,0.004176,0.000596,0.04,-0.27,9.78
78705975,0.003099,0.002045,-0.000470,0.02,-0.27,9.86
78706985,0.002034,0.000980,-0.000470,-0.02,-0.24,9.86
78708001,0.000968,-0.002216,0.000596,-0.01,-0.25,9.83
78709005,0.003099,-0.002216,0.000596,0.02,-0.28,9.85
78710015,0.004164,-0.000085,-0.000470,0.02,-0.26,9.86
78711049,0.004066,0.000939,0.000582,-0.02,-0.23,9.80
78712035,0.003000,0.000939,0.000582,0.00,-0.23,9.77
78713059,0.001935,0.000939,0.000582,0.02,-0.24,9.79
78714055,-0.002326,0.000939,-0.000483,0.01,-0.22,9.80
78715065,-0.003391,-0.000126,-0.001548,0.01,-0.24,9.84
78716075,-0.002326,-0.000126,-0.002614,0.04,-0.28,9.84
78717085,-0.001261,-0.001191,-0.000483,0.04,-0.25,9.84
78718104,-0.000195,-0.002257,-0.001548,-0.01,-0.24,9.85
78719105,-0.001261,-0.002257,-0.001548,-0.02,-0.25,9.82
78720115,-0.001261,-0.002257,-0.000483,-0.02,-0.25,9.80
78721125,-0.001261,-0.003322,0.000582,0.00,-0.25,9.82
78722135,-0.002326,-0.002257,0.000582,-0.02,-0.24,9.83
78723161,-0.002326,-0.001191,0.001647,0.00,-0.23,9.82
78724155,-0.002326,-0.001191,0.001647,0.04,-0.26,9.78
78725165,-0.002326,-0.000126,0.001647,0.02,-0.23,9.78
78726175,-0.001261,0.002005,0.001647,0.00,-0.21,9.79
78727185,0.003000,0.002005,0.001647,0.02,-0.23,9.75
78728201,0.004066,0.002005,0.001647,-0.01,-0.27,9.78
78729205,0.003000,0.000939,0.000582,-0.02,-0.24,9.79
78730215,0.000870,-0.000126,-0.001548,0.02,-0.23,9.76
78731225,0.000870,-0.002257,-0.001548,0.00,-0.27,9.76
78732235,0.001935,-0.001191,-0.000483,-0.01,-0.28,9.81
78733259,0.001935,-0.000126,-0.001548,-0.02,-0.27,9.83
78734255,0.001935,-0.001191,-0.000483,-0.04,-0.24,9.84
78735265,0.003000,-0.002257,-0.000483,0.02,-0.26,9.81
78736275,0.003000,-0.000126,-0.001548,0.02,-0.25,9.79
78737285,0.000870,-0.000126,-0.001548,-0.02,-0.24,9.83
78738304,0.000870,-0.002257,-0.000483,0.01,-0.25,9.86
78739305,-0.001261,-0.002257,0.000582,0.02,-0.26,9.88
78740315,-0.000195,-0.003322,0.001647,-0.02,-0.26,9.86
78741325,0.000870,-0.002257,0.000582,-0.06,-0.27,9.84
78742335,0.000870,0.002005,-0.002614,-0.03,-0.28,9.85
78743361,0.000870,0.005200,-0.003679,-0.01,-0.30,9.85
78744355,0.000870,0.005200,-0.001548,-0.01,-0.29,9.84
78745365,-0.000195,0.003070,0.002713,0.00,-0.25,9.84
78746375,-0.000195,0.003070,0.002713,-0.01,-0.26,9.80
78747385,-0.000195,0.003070,0.001647,-0.03,-0.25,9.80
78748401,0.000870,0.003070,0.000582,-0.02,-0.23,9.83
78749405,0.000870,0.000939,-0.000483,0.01,-0.24,9.82
78750415,0.000870,-0.002257,0.000582,0.00,-0.23,9.83
78751425,0.001935,-0.002257,0.000582,-0.04,-0.24,9.80
78752435,0.000870,-0.001191,0.000582,-0.05,-0.26,9.82
78753459,0.000870,0.000939,0.000582,-0.03,-0.26,9.88
78754455,0.000870,0.000939,0.000582,-0.01,-0.26,9.89
78755465,-0.001261,0.000939,0.000582,0.03,-0.25,9.85
78756475,-0.001261,0.000939,0.000582,0.05,-0.26,9.84
78757485,-0.000195,0.000939,0.000582,0.03,-0.26,9.89
78758504,-0.000195,0.000939,-0.000483,0.03,-0.25,9.86
78759505,-0.002326,-0.001191,-0.000483,0.03,-0.25,9.76
78760515,-0.001261,-0.002257,-0.000483,0.01,-0.25,9.76
78761525,0.000870,-0.001191,-0.000483,0.02,-0.26,9.81
78762535,-0.001261,0.000939,-0.000483,0.03,-0.26,9.83
78763561,-0.001261,-0.000126,-0.000483,0.01,-0.24,9.82
78764555,-0.001261,-0.002257,0.000582,-0.01,-0.25,9.81
78765565,-0.000195,-0.004387,0.000582,-0.02,-0.25,9.82
78766578,-0.000195,-0.003322,0.000582,-0.01,-0.26,9.81
78767586,0.003000,-0.002257,0.000582,0.00,-0.27,9.79
78768609,0.004066,-0.003322,0.001647,0.03,-0.26,9.82
78769615,0.004066,-0.002257,0.001647,0.03,-0.26,9.83
78770623,0.004066,0.000939,0.001647,0.04,-0.26,9.78
78771634,0.003000,-0.001191,0.000582,0.00,-0.26,9.79
78772650,0.001935,-0.004387,-0.000483,-0.02,-0.26,9.82
78773663,0.000870,-0.003322,-0.000483,0.00,-0.29,9.85
78774664,-0.000195,-0.001191,-0.000483,0.01,-0.29,9.86
78775684,-0.001261,0.000939,0.000582,0.03,-0.26,9.84
78776689,-0.000195,-0.001191,0.000582,0.02,-0.25,9.77
78777693,0.000870,-0.003322,0.000582,0.02,-0.25,9.77
78778712,-0.000195,-0.004387,0.000582,0.01,-0.23,9.87
78779710,-0.001261,-0.002257,0.001647,0.00,-0.23,9.88
78780729,-0.002326,-0.000126,0.002713,0.03,-0.26,9.81
78781737,-0.001261,-0.000126,0.002713,0.01,-0.27,9.77
78782756,-0.002326,-0.000126,-0.000483,0.00,-0.27,9.81
78783767,-0.002326,-0.000126,0.000582,0.01,-0.25,9.83
78784765,-0.002326,-0.001191,0.000582,-0.01,-0.24,9.82
78785773,-0.002326,-0.000126,0.002713,-0.01,-0.25,9.82
78786779,-0.002326,0.000939,0.003778,0.02,-0.25,9.87
78787790,-0.000195,0.000939,0.002713,0.00,-0.27,9.88
78788805,0.000870,0.000939,0.001647,0.00,-0.26,9.86
78789808,0.001935,-0.000126,0.000582,0.00,-0.23,9.86
78790820,0.003000,-0.000126,0.000582,0.00,-0.24,9.80
78791829,0.003000,-0.000126,-0.000483,0.00,-0.23,9.77
78792844,0.003000,0.000939,-0.001548,0.01,-0.24,9.80
78793854,0.001935,0.004135,-0.000483,0.02,-0.26,9.82
78794855,0.001935,0.003070,0.001647,-0.01,-0.24,9.83
78795865,0.003000,0.000939,0.000582,0.01,-0.23,9.82
78796902,0.000870,0.000939,-0.000483,0.03,-0.23,9.85
78797885,-0.001261,0.000939,-0.000483,0.05,-0.24,9.89
78798904,-0.001261,-0.002257,0.001647,0.03,-0.26,9.82
78799905,-0.000195,-0.003322,-0.000483,0.02,-0.28,9.79
78800915,0.001935,-0.003322,-0.000483,0.01,-0.30,9.79
78801925,0.001935,-0.003322,-0.000483,0.02,-0.29,9.82
78802945,0.001935,-0.002257,0.002713,0.04,-0.28,9.86
78803954,0.000870,-0.000126,0.003778,0.02,-0.26,9.82
78805121,0.000870,0.002005,0.002713,0.00,-0.29,9.79
78805943,0.000870,0.000939,0.002713,-0.03,-0.29,9.87
78806946,0.015784,-0.017171,0.004843,0.04,-0.22,9.86
78807956,0.014719,-0.018236,0.009104,0.06,-0.17,9.78
78808974,0.016849,-0.010779,0.016561,-0.02,-0.16,9.69
78809976,0.010457,-0.004387,0.021888,0.14,-0.16,9.80
78810986,-0.003391,0.003070,0.024018,0.17,-0.32,9.88
78811996,-0.010848,0.005200,0.026149,0.13,-0.37,9.84
78813023,-0.007652,0.005200,0.029345,-0.14,-0.59,9.90
78814026,0.001935,-0.001191,0.032540,-0.35,-0.49,9.90
78815027,0.008327,-0.003322,0.026149,-0.28,-0.03,9.87
78816037,-0.004456,-0.001191,0.005908,0.19,-0.17,9.47
78817047,-0.002326,0.005200,-0.013267,0.62,-0.34,9.84
78818057,0.012588,0.008396,-0.014332,-0.08,-0.54,10.22
78819075,0.005131,0.006266,-0.006875,-0.67,-0.04,9.78
78820077,-0.009783,-0.005452,-0.010071,0.24,0.09,9.50
78821087,-0.004456,-0.006518,-0.018593,0.86,-1.07,9.62
78822097,0.025371,0.011592,-0.009005,-0.35,0.19,10.41
78823120,0.007262,-0.002257,-0.000483,-0.51,0.67,9.89
78824126,-0.043872,-0.023562,-0.011136,0.76,-1.98,9.13
78825127,0.005131,0.009461,-0.005810,0.13,0.57,10.51
78826137,0.038155,0.010527,-0.001548,-0.76,1.47,10.08
78827147,-0.054525,-0.033150,-0.010071,0.43,-3.15,8.44
78828157,-0.026827,0.007331,0.002713,-0.26,1.01,10.33
78829175,0.037089,0.007331,0.001647,-0.82,0.93,9.86
78830177,-0.042807,-0.039541,-0.002614,1.12,-2.15,9.47
78831187,0.020045,-0.006518,0.002713,-0.10,1.23,10.71
78832197,0.013653,0.006266,-0.002614,-0.19,-0.53,8.64
78833219,-0.022566,0.026506,0.006974,-0.41,-1.29,11.36
78834226,0.004066,-0.005452,-0.001548,0.45,0.82,8.69
78835227,-0.053459,0.009461,0.006974,-0.25,-1.07,10.04
78836237,0.021110,0.014788,0.002713,-0.16,-0.19,10.64
78837247,-0.011913,-0.016105,0.013365,0.39,0.19,8.88
78838257,0.011523,-0.000126,0.009104,-0.48,-0.96,10.58
78839275,-0.017240,0.000939,0.010170,0.28,-0.32,9.26
78840277,0.009392,0.010527,-0.000483,-0.30,0.12,9.96
78841287,-0.049198,-0.010779,-0.001548,0.30,-0.72,9.89
78842297,-0.017240,-0.011844,-0.007940,-0.40,-0.15,8.94
78843320,-0.002326,0.011592,-0.002614,0.42,0.11,11.05
78844326,0.001935,0.010527,-0.009005,-0.05,-0.73,9.39
78845327,-0.009783,0.020114,-0.012201,0.34,1.03,10.61
78846337,-0.010848,0.026506,-0.015397,0.34,-0.74,10.33
78847347,0.011523,0.014788,-0.017528,-1.07,-0.52,7.45
78848357,0.023241,0.002005,-0.016462,0.87,0.60,11.66
78849375,0.032828,-0.005452,-0.012201,0.00,-1.01,8.68
78850377,0.043481,-0.007583,-0.006875,-0.60,-0.10,9.42
78851387,0.015784,-0.005452,-0.005810,1.01,0.42,11.49
78852397,-0.000195,-0.002257,-0.004744,-0.32,-1.16,8.87
78853419,0.010457,0.002005,-0.003679,-0.79,-0.24,9.02
78854426,-0.002326,0.010527,-0.000483,0.97,0.38,11.57
78855427,-0.015109,0.007331,0.000582,0.31,-0.72,9.01
78856437,0.009392,-0.004387,0.002713,-1.43,-0.95,8.29
78857447,0.030698,-0.039541,0.003778,0.52,0.38,11.68
78858457,0.011523,-0.050194,0.001647,1.12,0.07,10.69
78859475,0.007262,-0.032084,0.000582,-1.15,-1.03,8.52
78860477,-0.015109,0.000939,-0.004744,-0.60,-0.30,10.31
78861487,-0.034284,0.011592,-0.009005,1.21,0.30,11.03
78862497,-0.021501,-0.005452,-0.011136,0.57,0.04,8.89
78863520,-0.005522,-0.003322,-0.006875,-1.33,-1.00,8.17
78864526,0.018980,-0.013975,-0.001548,-0.54,-0.57,10.33
78865527,0.024306,-0.025693,-0.004744,1.35,0.50,11.11
78866537,0.025371,-0.013975,-0.007940,0.79,0.48,9.80
78867547,0.042416,-0.009714,-0.004744,-1.03,-0.64,8.81
78868557,0.047742,-0.020366,-0.004744,-1.01,-1.00,9.33
78869580,0.034959,-0.020366,-0.000483,0.78,-0.09,10.74
78870582,0.027502,-0.022497,0.005908,1.30,0.53,10.81
78871596,0.005131,-0.026758,0.009104,0.21,0.40,9.48
78872603,0.004066,-0.037411,0.008039,-1.24,-1.12,8.36
78873633,0.014719,-0.024627,0.000582,-0.96,-1.19,9.30
78874636,-0.007652,0.006266,-0.003679,0.54,-0.44,10.63
78875635,-0.021501,0.013723,-0.003679,1.29,0.52,10.87
78876651,-0.024697,0.008396,-0.001548,0.64,0.83,10.00
78877659,-0.006587,0.005200,0.000582,-0.89,-0.56,8.82
78878676,0.012588,-0.006518,-0.001548,-1.48,-1.51,8.76
78879684,-0.007652,0.004135,-0.004744,-0.67,-1.25,9.81
78880690,0.003000,0.021180,-0.004744,0.52,-0.34,10.52
78881693,0.031763,0.016918,-0.001548,1.26,0.59,10.91
78882706,0.042416,0.008396,0.000582,0.80,0.79,10.22
78883743,0.024306,0.014788,0.001647,-0.32,0.07,9.19
78884738,-0.009783,0.024375,-0.001548,-1.20,-0.91,8.82
78885736,-0.008718,0.006266,-0.001548,-1.14,-1.30,9.14
78886746,-0.017240,-0.000126,0.000582,-0.24,-1.06,9.80
78887755,-0.025762,0.015853,-0.000483,0.78,-0.52,10.56
78888765,-0.010848,0.031832,-0.000483,1.38,0.71,10.99
78889775,0.004066,0.037159,-0.000483,1.16,1.24,10.53
78890781,0.000870,0.038224,0.000582,0.47,0.69,9.58
78891791,-0.002326,0.023310,0.000582,-0.47,0.07,9.15
78892801,-0.004456,0.003070,-0.001548,-1.12,-0.63,9.06
78893836,0.016849,-0.023562,0.003778,-1.01,-1.43,9.05
78894826,-0.039611,-0.006518,0.000582,-0.47,-1.59,9.62
78895827,-0.049198,0.038224,-0.003679,0.23,-0.96,10.27
78896837,0.040285,0.028637,0.002713,0.82,0.07,10.83
78897847,0.121247,-0.021432,0.010170,1.12,1.02,10.83
78898877,0.139356,-0.053390,0.013365,1.04,1.14,10.33
78899875,0.097810,-0.025693,0.008039,0.53,0.85,9.66
78900877,-0.055590,0.056334,-0.003679,-0.78,-0.29,9.35
78901887,-0.026827,0.008396,0.004843,-1.04,-0.90,9.11
78902910,-0.007652,-0.001191,0.002713,-1.05,-1.55,9.07
78903922,-0.002326,0.005200,-0.003679,-0.85,-1.73,9.24
78904925,-0.002326,0.010527,-0.006875,-0.58,-1.39,9.64
78905927,0.005131,-0.000126,-0.010071,-0.01,-0.91,10.19
78906937,0.012588,0.004135,-0.010071,0.61,-0.39,10.64
78907947,0.006196,0.012657,-0.007940,0.77,0.40,10.82
78908957,-0.017240,0.005200,-0.005810,0.81,0.85,10.53
78909975,-0.033219,0.003070,-0.007940,0.83,0.72,9.90
78910977,-0.024697,0.020114,-0.009005,0.63,0.63,9.66
78911987,-0.005522,0.011592,-0.006875,0.43,0.76,9.67
78913013,0.001935,-0.016105,-0.002614,0.08,0.17,9.46
78914022,0.003000,-0.012909,-0.001548,-0.20,-0.13,9.71
78915025,0.007262,-0.004387,-0.000483,-0.43,0.13,9.91
78916027,-0.004456,-0.008648,-0.003679,-0.53,-0.73,9.49
78917037,-0.002326,-0.005452,-0.003679,-0.39,-1.09,9.38
78918047,0.008327,0.004135,-0.002614,-0.72,-0.99,9.30
78919057,0.014719,-0.006518,-0.000483,-0.70,-1.08,9.49
78920075,-0.011913,0.003070,-0.001548,-0.18,-1.22,9.50
78921077,0.005131,0.012657,0.003778,-0.26,-0.92,9.49
78922087,0.022176,-0.011844,0.006974,-0.35,-0.58,9.99
78923112,-0.017240,-0.012909,0.003778,0.21,-0.99,10.08
78924122,-0.032154,0.016918,0.000582,0.27,-0.34,10.33
78925125,-0.014044,0.023310,-0.001548,0.03,-0.03,10.17
78926127,0.015784,0.011592,-0.002614,0.43,-0.40,10.12
78927137,0.050938,-0.000126,0.001647,0.53,0.24,10.50
78928147,0.060526,-0.023562,0.003778,0.23,0.42,10.20
78929157,0.050938,-0.038476,0.005908,0.37,0.04,9.78
78930175,0.049873,-0.028889,0.009104,0.47,0.35,9.87
78931177,0.031763,-0.003322,0.006974,0.24,0.42,9.89
78932187,-0.011913,0.028637,0.000582,0.28,-0.04,9.66
78933213,-0.048133,0.052073,-0.000483,0.35,0.26,9.58
78934222,-0.050264,0.035028,0.002713,0.11,0.34,9.64
78935225,-0.016175,-0.013975,0.002713,0.09,0.03,9.79
78936227,0.024306,-0.021432,-0.003679,0.10,0.12,9.74
78937237,0.025371,0.014788,-0.010071,0.06,0.18,9.89
78938247,0.003000,0.013723,-0.011136,0.10,0.20,9.88
78939257,0.015784,-0.002257,-0.009005,0.11,-0.13,9.69
78940275,0.014719,0.010527,-0.005810,-0.02,0.06,10.10
78941277,-0.002326,0.011592,-0.004744,-0.17,0.18,9.96
78942287,-0.004456,0.014788,-0.009005,0.14,-0.33,9.76
78943312,-0.014044,0.014788,-0.007940,-0.04,-0.15,10.16
78944322,0.008327,0.005200,-0.003679,-0.46,-0.23,9.78
78945325,-0.002326,-0.011844,-0.002614,0.19,-0.30,9.77
78946327,0.015784,-0.023562,0.000582,0.01,-0.20,10.08
78947337,-0.000195,-0.013975,0.005908,-0.62,-0.55,9.67
78948347,0.004066,0.002005,0.000582,0.35,-0.21,9.94
78949357,0.003000,0.008396,-0.001548,0.09,-0.24,9.81
78950375,0.001935,0.012657,-0.002614,-0.84,-0.68,9.31
78951377,0.029632,-0.005452,-0.003679,0.38,-0.24,10.06
78952387,0.024306,-0.007583,-0.002614,0.21,-0.38,9.93
78953413,0.012588,-0.003322,-0.002614,-0.93,-0.61,9.24
78954422,0.006196,-0.012909,-0.005810,0.26,-0.34,10.05
78955425,-0.002326,-0.011844,-0.010071,0.28,-0.49,9.81
78956427,0.007262,-0.011844,-0.009005,-0.94,-0.57,9.11
78957437,0.007262,-0.021432,-0.009005,0.14,-0.43,10.01
78958447,-0.008718,-0.006518,-0.007940,0.31,-0.64,9.98
78959457,-0.000195,0.000939,-0.004744,-1.03,-0.62,9.34
78960475,0.030698,-0.019301,-0.005810,0.04,-0.44,9.94
78961477,0.016849,-0.010779,-0.006875,0.51,-0.63,9.91
78962487,-0.027893,0.027571,-0.005810,-0.93,-0.48,9.28
78963512,-0.005522,0.030767,-0.007940,-0.09,-0.53,9.87
78964522,0.044546,-0.004387,-0.005810,0.64,-0.60,10.06
78965525,0.000870,-0.002257,-0.003679,-0.75,-0.28,9.38
78966527,-0.070504,0.042485,-0.006875,-0.13,-0.53,9.67
78967537,-0.034284,0.039289,-0.004744,0.72,-0.47,10.16
78968547,0.033894,-0.006518,0.001647,-0.68,-0.07,9.63
78969557,0.063721,-0.042737,0.004843,-0.20,-0.57,9.72
78970581,0.030698,-0.036346,0.009104,0.80,-0.32,10.16
78971581,-0.052394,0.017984,0.009104,-0.60,0.05,9.58
78972598,-0.084353,0.071248,0.001647,-0.20,-0.63,9.46
78973620,-0.015109,0.051007,0.001647,0.87,-0.18,10.21
78974633,0.049873,-0.008648,0.006974,-0.55,0.10,9.84
78975634,0.077570,-0.045933,0.005908,-0.25,-0.80,9.46
78976634,0.103137,-0.074696,0.005908,0.91,-0.13,10.22
78977656,0.048808,-0.068304,0.005908,-0.54,0.13,9.87
78978660,-0.024697,-0.023562,0.003778,-0.36,-0.94,9.33
78979675,-0.048133,-0.003322,0.003778,0.86,-0.07,10.20
78980692,-0.088614,0.017984,0.001647,-0.54,0.13,9.91
78981693,-0.102462,0.054203,-0.002614,-0.37,-1.01,9.20
78982693,-0.065177,0.054203,-0.001548,0.84,-0.03,10.18
78983725,-0.058786,0.049942,-0.000483,-0.52,0.12,9.98
78984732,-0.051329,0.065921,-0.003679,-0.40,-0.98,9.30
78985738,-0.019370,0.056334,-0.004744,0.71,-0.08,10.24
78986736,-0.020436,0.043550,-0.003679,-0.58,0.07,9.95
78987749,-0.030023,0.052073,-0.003679,-0.39,-0.93,9.21
78988757,-0.009783,0.049942,-0.000483,0.67,-0.11,10.17
78989761,-0.011913,0.043550,0.001647,-0.48,0.13,10.00
78990775,-0.027893,0.052073,0.000582,-0.26,-0.78,9.32
78991781,-0.025762,0.049942,0.000582,0.63,-0.13,10.13
78992791,-0.031089,0.043550,0.002713,-0.41,0.16,9.95
78993817,-0.051329,0.054203,0.000582,-0.12,-0.56,9.44
78994847,-0.050264,0.056334,0.000582,0.73,-0.12,10.22
78995825,-0.057721,0.049942,0.001647,-0.35,0.17,10.04
78996827,-0.068373,0.042485,-0.001548,-0.09,-0.34,9.63
78997837,-0.046002,0.023310,-0.003679,0.83,-0.05,10.16
78998847,-0.032154,0.005200,-0.003679,-0.31,0.23,9.88
78999857,-0.009783,-0.016105,-0.004744,-0.12,-0.34,9.60
79000875,0.038155,-0.046998,-0.003679,0.80,-0.12,10.09
79001877,0.023241,-0.044868,-0.009005,-0.12,-0.41,9.60
79002902,0.045612,-0.044868,-0.010071,0.81,-0.15,10.10
79003912,0.031763,-0.035280,-0.003679,-0.50,0.27,9.94
79004907,-0.014044,0.008396,-0.003679,-0.19,-0.58,9.61
79005925,-0.027893,0.028637,-0.005810,0.77,-0.21,10.00
79006927,-0.055590,0.043550,-0.007940,-0.53,0.19,9.82
79007937,-0.055590,0.063791,-0.009005,-0.19,-0.73,9.46
79008947,-0.002326,0.024375,-0.006875,0.65,-0.24,9.88
79009957,0.010457,-0.025693,-0.003679,-0.52,0.12,9.82
79010975,0.013653,-0.031019,-0.005810,-0.22,-0.88,9.39
79011977,0.047742,-0.037411,-0.004744,0.29,-0.23,9.74
79013003,0.044546,-0.044868,-0.003679,-0.30,0.18,9.88
79014012,0.006196,-0.004387,0.000582,-0.12,-0.91,9.75
79015007,-0.038545,0.043550,0.008039,0.21,0.12,10.85
79016025,-0.061982,0.054203,0.008039,-0.05,-0.15,10.13
79017027,-0.049198,0.028637,0.005908,-0.14,-0.44,9.30
79018037,-0.001261,-0.006518,0.003778,0.49,0.67,9.66
79019047,0.039220,-0.022497,0.005908,0.24,-0.35,9.24
79020057,0.038155,-0.019301,0.009104,-0.17,-0.02,10.03
79021075,0.009392,-0.005452,0.008039,0.48,0.41,10.44
79022077,-0.030023,0.014788,0.009104,0.27,-0.24,10.03
79023102,-0.052394,0.026506,0.010170,0.01,0.27,10.20
79024112,-0.017240,0.013723,0.009104,0.57,0.10,10.11
79025107,0.036024,-0.010779,0.008039,0.22,-0.16,9.85
79026125,0.046677,-0.022497,0.005908,-0.04,0.27,9.92
79027127,0.012588,-0.007583,0.001647,0.47,0.08,9.78
79028137,-0.024697,0.021180,0.002713,0.17,-0.13,9.55
79029147,-0.033219,0.040355,0.003778,-0.21,-0.13,9.75
79030157,0.001935,0.027571,0.001647,0.36,0.08,10.41
79031175,0.042416,-0.001191,0.001647,0.08,-0.13,10.30
79032177,0.046677,-0.026758,-0.000483,-0.50,-0.51,9.83
79033203,0.029632,-0.028889,-0.007940,0.38,-0.02,10.02
79034212,0.021110,-0.008648,-0.007940,0.23,-0.11,9.74
79035207,-0.014044,0.026506,-0.006875,-0.75,-0.48,9.36
79036225,-0.050264,0.053138,-0.011136,0.34,-0.12,9.97
79037227,-0.040676,0.053138,-0.013267,0.32,-0.18,9.83
79038237,-0.018305,0.048877,-0.012201,-0.82,-0.46,9.27
79039247,0.029632,0.016918,-0.011136,0.45,-0.17,10.16
79040257,0.075440,-0.044868,-0.007940,0.33,0.02,10.08
79041275,0.044546,-0.060847,-0.010071,-0.86,-0.57,9.23
79042277,0.013653,-0.023562,-0.014332,0.55,-0.40,10.09
79043302,0.032828,-0.019301,-0.011136,0.45,0.27,9.94
79044298,-0.005522,0.007331,-0.007940,-0.81,-0.78,9.06
79045307,-0.040676,0.074444,-0.007940,0.49,-0.51,10.15
79046325,-0.037480,0.075509,-0.003679,0.48,0.53,10.26
79047327,-0.071569,0.060595,-0.000483,-0.67,-0.92,9.15
79048337,-0.060916,0.069117,0.003778,0.27,-0.91,9.86
79049347,0.004066,0.025441,0.013365,0.34,0.60,10.28
79050357,0.023241,-0.018236,0.015496,-0.29,-0.45,9.48
79051375,0.020045,-0.008648,0.016561,0.14,-0.72,9.78
79052377,0.028567,-0.013975,0.020822,0.13,0.15,10.75
79053399,0.056265,-0.052325,0.021888,-0.16,-0.57,9.95
79054398,0.061591,-0.084283,0.024018,-0.07,-0.02,9.38
79055407,0.052003,-0.072565,0.021888,0.28,0.15,9.40
79056425,0.049873,-0.027823,0.020822,0.09,-0.55,9.42
79057427,0.038155,-0.017171,0.022953,-0.28,0.20,10.21
79058437,0.022176,-0.035280,0.022953,0.03,-0.11,9.80
79059447,-0.006587,-0.013975,0.018692,0.25,-0.23,9.75
79060457,-0.010848,0.021180,0.017627,-0.05,0.39,10.33
79061475,-0.018305,0.027571,0.016561,-0.28,-0.38,9.41
79062477,-0.037480,0.033963,0.009104,0.41,-0.20,9.64
79063500,-0.034284,0.047812,0.006974,0.14,0.46,10.09
79064498,-0.036415,0.046746,0.003778,-0.57,-0.42,8.92
79065507,-0.037480,0.035028,-0.004744,0.59,-0.52,9.45
79066525,-0.022566,0.030767,-0.007940,0.28,0.33,10.14
79067527,-0.038545,0.053138,-0.012201,-0.75,-0.44,9.52
79068537,-0.035350,0.052073,-0.017528,0.45,-0.78,10.10
79069547,-0.005522,0.006266,-0.020724,0.26,0.28,10.26
79070557,-0.018305,0.007331,-0.023919,-0.75,-0.76,9.03
79071580,-0.014044,0.028637,-0.022854,0.15,-1.24,9.68
79072582,0.030698,-0.015040,-0.014332,0.11,0.33,9.78
79073602,0.039220,-0.046998,-0.010071,-0.52,-0.71,9.15
79074605,0.024306,-0.013975,-0.011136,0.00,-1.01,9.82
79075620,0.007262,0.003070,-0.007940,0.01,-0.11,10.65
79076636,0.012588,-0.012909,-0.004744,-0.25,-0.97,10.15
79077635,0.029632,-0.037411,0.002713,-0.05,-0.06,9.69
79078651,0.054134,-0.060847,0.008039,0.16,0.00,9.45
79079659,0.072244,-0.066173,0.012300,0.09,-0.83,9.19
79080675,0.048808,-0.046998,0.015496,-0.14,0.29,10.03
79081684,0.028567,-0.048064,0.017627,0.03,-0.13,9.77
79082690,0.046677,-0.057651,0.018692,0.29,-0.49,9.86
79083707,0.058395,-0.049129,0.015496,0.09,0.45,10.75
79084707,0.038155,-0.040607,0.011235,-0.11,-0.18,9.73
79085717,0.034959,-0.045933,0.008039,0.44,-0.32,9.79
79086736,0.054134,-0.044868,0.011235,0.17,0.44,10.42
79087740,0.029632,-0.036346,0.006974,-0.43,-0.31,8.90
79088745,0.028567,-0.057651,-0.000483,0.56,-0.51,9.23
79089752,0.066917,-0.085348,-0.000483,0.31,0.42,10.19
79090761,0.049873,-0.070435,-0.002614,-0.66,-0.40,9.40
79091775,0.044546,-0.057651,-0.005810,0.34,-0.89,10.01
79092781,0.071178,-0.082153,-0.009005,0.30,0.37,10.42
79093803,0.049873,-0.072565,-0.012201,-0.56,-0.52,9.31
79094802,0.032828,-0.037411,-0.019658,0.04,-1.16,9.74
79095809,0.048808,-0.055521,-0.019658,0.12,0.23,9.99
79096825,0.050938,-0.073630,-0.018593,-0.40,-0.55,9.49
79097827,0.031763,-0.044868,-0.016462,-0.05,-0.65,9.66
79098837,0.025371,-0.026758,-0.014332,0.13,-0.02,10.37
79099847,0.036024,-0.027823,-0.010071,-0.33,-0.67,10.29
79100857,0.040285,-0.040607,-0.009005,-0.34,-0.04,9.79
79101875,0.070113,-0.060847,-0.010071,0.27,-0.16,9.54
79102890,0.098876,-0.065108,-0.003679,0.01,-0.32,9.51
79103921,0.091419,-0.072565,0.001647,0.28,-0.54,9.87
79104897,0.098876,-0.085349,0.008039,0.12,0.02,10.03
79105907,0.065852,-0.076826,0.008039,-0.32,-0.12,9.66
79106925,0.047742,-0.070435,0.006974,0.45,-0.71,9.97
79107927,0.055199,-0.073630,0.013365,0.19,0.38,10.51
79108937,0.052003,-0.064043,0.015496,-0.34,-0.27,9.64
79109947,0.062656,-0.057651,0.011235,0.50,-0.71,9.63
79110957,0.061591,-0.060847,0.009104,0.29,0.55,10.19
79111975,0.031763,-0.051260,0.004843,-0.35,-0.42,8.93
79112989,0.054134,-0.045933,0.002713,0.55,-0.60,9.75
79113988,0.064787,-0.048064,0.003778,0.26,0.56,10.85
79114997,0.016849,-0.037411,-0.000483,-0.60,-0.56,9.22
79116007,0.028567,-0.042737,-0.002614,0.46,-0.62,9.71
79117025,0.057330,-0.055521,-0.001548,0.33,0.67,10.75
79118027,0.017914,-0.034215,-0.001548,-0.68,-0.51,9.16
79119037,0.009392,-0.020366,0.000582,0.32,-0.77,9.59
79120047,0.039220,-0.042737,0.004843,0.33,0.62,10.46
79121057,0.009392,-0.029954,0.003778,-0.71,-0.55,9.08
79122075,-0.002326,-0.009714,0.001647,-0.02,-1.10,9.51
79123090,0.022176,-0.029954,0.003778,0.14,0.38,9.99
79124088,0.012588,-0.026758,0.006974,-0.51,-0.55,9.45
79125097,-0.014044,0.011592,0.008039,-0.05,-0.79,9.97
79126107,-0.036415,0.044616,0.009104,0.01,-0.09,10.44
79127125,-0.039611,0.053138,0.008039,-0.39,-0.78,10.10
79128127,-0.012979,0.024375,0.012300,-0.16,-0.07,9.74
79129137,-0.003391,-0.015040,0.011235,0.23,-0.17,9.34
79130147,-0.042807,-0.000126,0.005908,-0.04,-0.65,9.35
79131157,-0.072634,0.037159,0.003778,-0.38,-0.02,9.89
79132175,-0.065177,0.039289,0.000582,0.12,-0.56,9.79
79133189,-0.050264,0.023310,0.002713,0.00,-0.52,9.80
79134188,-0.038545,0.027571,0.002713,-0.16,0.09,10.05
79135197,-0.033219,0.032898,0.002713,0.10,-0.44,9.80
79136207,-0.035350,0.028637,0.003778,0.04,-0.35,9.93
79137259,-0.050264,0.043550,0.002713,0.04,0.00,10.22
79138228,-0.053459,0.049942,0.002713,-0.08,-0.32,9.62
79139256,-0.050264,0.027571,0.001647,0.23,-0.36,9.44
79140247,-0.043872,0.024375,0.000582,0.18,0.05,9.80
79141257,-0.042807,0.042485,-0.001548,-0.18,-0.06,9.73
79142275,-0.042807,0.043550,-0.003679,0.29,-0.48,9.94
79143291,-0.041741,0.035028,-0.003679,0.17,0.18,10.38
79144288,-0.047068,0.036094,-0.004744,-0.24,0.04,9.51
79145297,-0.038545,0.037159,-0.009005,0.38,-0.48,9.68
79146307,-0.033219,0.032898,-0.011136,0.21,0.40,10.38
79147325,-0.044937,0.031832,-0.013267,-0.39,-0.11,9.25
79148327,-0.034284,0.026506,-0.016462,0.40,-0.52,9.48
79149337,-0.036415,0.025441,-0.016462,0.23,0.52,10.42
79150347,-0.072634,0.049942,-0.018593,-0.50,-0.33,9.25
79151357,-0.076896,0.059530,-0.020724,0.43,-0.71,9.61
79152375,-0.053459,0.040355,-0.018593,0.28,0.53,10.55
79153389,-0.068373,0.055269,-0.020724,-0.60,-0.54,9.19
79154388,-0.068373,0.074444,-0.023919,0.42,-0.79,9.75
79155397,-0.052394,0.045681,-0.019658,0.34,0.59,10.67
79156407,-0.073700,0.031832,-0.014332,-0.64,-0.85,9.14
79157425,-0.073700,0.039289,-0.011136,0.20,-1.09,9.56
79158427,-0.061982,0.022245,-0.007940,0.31,0.64,10.39
79159437,-0.083287,0.032898,-0.005810,-0.52,-0.79,9.21
79160447,-0.083287,0.070182,-0.005810,-0.01,-1.06,9.56
79161457,-0.056655,0.059530,-0.001548,0.14,0.21,10.17
79162475,-0.058786,0.043550,0.000582,-0.42,-0.83,9.71
79163490,-0.060916,0.041420,0.005908,-0.14,-0.49,9.88
79164488,-0.046002,0.031832,0.010170,0.11,-0.18,10.18
79165497,-0.043872,0.030767,0.013365,-0.26,-0.58,10.03
79166507,-0.036415,0.013723,0.012300,-0.32,0.00,9.71
79167525,-0.001261,-0.017171,0.011235,0.30,-0.50,9.57
79168527,0.021110,-0.035280,0.015496,-0.04,-0.21,9.78
79169537,0.017914,-0.039541,0.016561,-0.45,-0.04,9.55
79170547,0.034959,-0.043803,0.014431,0.27,-0.78,9.74
79171557,0.061591,-0.056586,0.015496,0.00,0.29,10.49
79172578,0.042416,-0.046998,0.015496,-0.43,-0.11,9.65
79173597,0.022176,-0.013975,0.010170,0.33,-0.83,9.56
79174596,0.014719,0.007331,0.008039,0.19,0.62,10.56
79175602,-0.022566,0.041420,0.004843,-0.40,-0.35,9.22
79176620,-0.046002,0.064856,-0.001548,0.33,-0.82,9.32
79177638,-0.038545,0.046746,-0.003679,0.21,0.68,10.53
79178638,-0.043872,0.038224,-0.010071,-0.44,-0.58,8.84
79179650,0.007262,0.024375,-0.016462,0.37,-0.80,9.31
79180659,0.063721,-0.029954,-0.016462,0.30,0.82,10.95
79181674,0.041351,-0.051260,-0.019658,-0.51,-0.76,9.20
79182689,0.029632,-0.029954,-0.023919,0.17,-1.08,9.25
79183698,0.032828,-0.025693,-0.020724,0.37,0.77,10.43
79184696,-0.008718,0.006266,-0.016462,-0.45,-0.88,9.05
79185703,-0.032154,0.057399,-0.011136,0.02,-1.11,9.30
79186711,-0.025762,0.047812,-0.005810,0.22,0.25,10.00
79187738,-0.024697,0.020114,-0.004744,-0.36,-0.88,9.47
79188734,-0.009783,0.003070,-0.001548,-0.01,-0.43,9.94
79189745,0.031763,-0.012909,0.000582,0.00,-0.26,10.14
79190752,0.057330,-0.028889,0.008039,-0.28,-0.69,9.95
79191761,0.041351,-0.039541,0.013365,-0.14,0.01,9.76
79192775,-0.007652,-0.017171,0.012300,0.09,-0.66,9.40
79193793,-0.040676,0.032898,0.015496,-0.11,-0.26,9.79
79194792,-0.040676,0.056334,0.014431,-0.27,-0.05,9.59
79195801,0.006196,0.014788,0.016561,0.14,-0.91,9.50
79196809,0.049873,-0.042737,0.020822,0.00,0.25,10.58
79197825,0.049873,-0.056586,0.019757,-0.25,-0.20,9.82
79198827,0.062656,-0.046998,0.017627,0.19,-0.98,9.39
79199841,0.062656,-0.041672,0.019757,0.13,0.48,10.72
79200847,-0.002326,0.006266,0.015496,-0.31,-0.40,9.62
79201857,-0.047068,0.065921,0.009104,0.16,-0.78,9.18
79202887,-0.046002,0.066987,0.006974,0.18,0.56,10.67
79203878,-0.046002,0.046746,0.003778,-0.40,-0.56,9.31
79204887,0.009392,-0.009714,-0.004744,0.20,0.59,11.01
79205907,0.013653,-0.024627,-0.006875,-0.45,-0.74,9.57
79206907,0.072244,-0.056586,-0.010071,0.15,-0.63,9.26
79207925,0.102072,-0.090675,-0.011136,0.27,0.66,11.02
79208927,0.041351,-0.064043,-0.017528,-0.47,-0.70,9.31
79209937,0.014719,-0.016105,-0.020724,0.18,-0.63,8.92
79210947,0.026437,-0.013975,-0.017528,0.27,0.55,10.86
79211957,-0.012979,0.017984,-0.019658,-0.58,-0.86,9.26
79212986,-0.028958,0.061660,-0.019658,0.04,-0.83,9.05
79213978,-0.037480,0.043550,-0.016462,0.30,0.41,10.52
79214987,-0.066243,0.045681,-0.015397,-0.43,-0.94,9.56
79215997,-0.048133,0.064856,-0.007940,0.00,-0.82,9.94
79217007,-0.025762,0.042485,0.001647,0.02,0.08,10.32
79218025,-0.024697,0.027571,0.005908,-0.39,-1.03,9.61
79219027,-0.018305,0.020114,0.010170,0.09,-0.36,10.17
79220037,0.000870,-0.004387,0.010170,-0.04,-0.21,9.83
79221047,0.015784,-0.027823,0.014431,-0.33,-0.86,9.51
79222057,0.036024,-0.057651,0.017627,-0.05,0.10,9.83
79223087,0.070113,-0.087479,0.014431,0.16,-0.49,9.30
79224078,0.069048,-0.086414,0.012300,-0.11,-0.42,9.73
79225087,0.049873,-0.074696,0.008039,-0.20,0.07,9.97
79226097,0.056265,-0.072565,0.002713,0.15,-0.56,9.58
79227107,0.052003,-0.065108,0.001647,-0.01,0.19,10.58
79228125,0.008327,-0.029954,-0.001548,-0.25,-0.27,9.90
79229127,0.007262,-0.002257,-0.002614,0.21,-0.51,8.89
79230137,0.026437,-0.008648,0.000582,0.14,0.46,10.36
79231147,-0.007652,0.013723,-0.004744,-0.27,-0.48,9.63
79232157,-0.025762,0.045681,-0.012201,0.28,-0.39,8.90
79233186,-0.030023,0.043550,-0.014332,0.20,0.49,10.52
79234178,-0.056655,0.056334,-0.015397,-0.33,-0.65,9.45
79235187,-0.060916,0.075509,-0.018593,0.30,-0.36,9.16
79236197,-0.056655,0.069117,-0.021789,0.24,0.52,11.02
79237207,-0.081157,0.089358,-0.023919,-0.41,-0.99,9.59
79238225,-0.060916,0.094684,-0.024985,0.26,-0.40,9.13
79239227,-0.051329,0.059530,-0.026050,0.22,0.56,10.74
79240237,-0.090744,0.066987,-0.030311,-0.49,-1.11,9.41
79241247,-0.069439,0.070182,-0.028181,0.24,-0.35,9.13
79242257,-0.050264,0.033963,-0.022854,0.24,0.36,10.68
79243287,-0.073700,0.046746,-0.021789,-0.48,-1.16,9.49
79244278,-0.037480,0.048877,-0.018593,0.22,-0.24,9.43
79245287,-0.019370,0.009461,-0.011136,0.16,0.24,10.65
79246297,-0.047068,0.014788,-0.007940,-0.52,-1.20,9.46
79247307,-0.019370,0.016918,-0.000483,0.08,-0.48,9.77
79248325,-0.001261,-0.009714,0.006974,-0.02,0.02,10.16
79249327,-0.020436,-0.002257,0.009104,-0.44,-0.96,9.39
79250337,-0.022566,0.019049,0.013365,0.15,-0.35,10.28
79251347,-0.011913,0.016918,0.016561,-0.09,-0.14,10.02
79252357,-0.011913,0.009461,0.019757,-0.41,-0.79,9.70
79253386,-0.005522,-0.018236,0.022953,0.09,-0.02,10.04
79254378,0.004066,-0.037411,0.022953,0.08,-0.36,9.35
79255387,-0.012979,-0.015040,0.025084,-0.23,-0.49,9.66
79256397,-0.027893,0.003070,0.022953,-0.08,0.18,10.09
79257407,-0.009783,-0.007583,0.020822,0.14,-0.57,9.81
79258425,-0.014044,-0.006518,0.019757,-0.13,-0.15,10.07
79259427,-0.031089,0.012657,0.016561,-0.05,-0.02,9.94
79260437,-0.021501,0.012657,0.018692,0.15,-0.50,9.78
79261447,-0.018305,0.007331,0.018692,-0.10,0.14,9.95
79262457,-0.036415,0.021180,0.015496,-0.05,-0.28,9.86
79263487,-0.051329,0.032898,0.013365,0.11,-0.37,9.74
79264478,-0.053459,0.031832,0.006974,0.05,0.01,9.43
79265487,-0.050264,0.045681,0.001647,0.09,-0.30,9.77
79266497,-0.053459,0.060595,-0.001548,0.08,0.05,10.14
79267507,-0.070504,0.071248,-0.006875,0.05,-0.17,9.74
79268525,-0.076896,0.078705,-0.009005,0.04,-0.24,9.94
79269527,-0.068373,0.075509,-0.012201,0.01,0.10,9.85
79270537,-0.053459,0.071248,-0.014332,0.11,-0.19,9.50
79271547,-0.042807,0.073378,-0.014332,0.10,0.03,10.21
79272557,-0.056655,0.077639,-0.017528,-0.02,-0.19,9.91
79273587,-0.068373,0.082966,-0.022854,0.27,-0.27,9.38
79274582,-0.041741,0.072313,-0.022854,0.17,0.28,10.29
79275596,-0.054525,0.068052,-0.022854,-0.18,-0.34,9.91
79276602,-0.053459,0.063791,-0.021789,0.29,-0.38,9.24
79277619,-0.018305,0.043550,-0.017528,0.18,0.29,10.43
79278640,-0.027893,0.038224,-0.018593,-0.26,-0.43,9.73
79279632,-0.044937,0.047812,-0.019658,0.33,-0.34,9.08
79280654,-0.021501,0.030767,-0.013267,0.22,0.24,10.64
79281657,-0.019370,0.022245,-0.007940,-0.33,-0.77,9.86
79282668,0.009392,0.012657,-0.009005,0.31,-0.36,9.15
79283700,0.033894,-0.016105,-0.006875,0.18,0.37,10.54
79284694,0.008327,-0.007583,-0.010071,-0.46,-0.99,9.52
79285699,0.029632,0.003070,-0.009005,0.18,-0.62,9.17
79286704,0.052003,-0.042737,-0.004744,0.18,0.25,10.25
79287720,0.032828,-0.058716,-0.000483,-0.44,-1.09,9.51
79288733,0.044546,-0.049129,0.003778,0.00,-0.64,10.00
79289732,0.060526,-0.073630,0.010170,-0.09,0.06,10.20
79290748,0.042416,-0.077892,0.014431,-0.42,-1.01,9.61
79291751,0.026437,-0.048064,0.017627,0.07,-0.29,10.36
79292761,0.032828,-0.035280,0.018692,-0.19,-0.10,9.88
79293786,0.028567,-0.036346,0.016561,-0.46,-0.76,9.46
79294782,0.023241,-0.049129,0.012300,0.00,0.12,9.82
79295791,0.021110,-0.053390,0.009104,0.06,-0.26,9.21
79296801,-0.011913,-0.022497,0.010170,-0.20,-0.40,9.68
79297809,-0.046002,0.013723,0.004843,-0.17,0.12,10.04
79298825,-0.056655,0.033963,-0.001548,0.15,-0.38,9.69
79299827,-0.072634,0.055269,-0.004744,-0.04,0.11,10.47
79300837,-0.091810,0.073378,-0.007940,-0.13,-0.18,9.98
79301857,-0.089679,0.073378,-0.014332,0.39,-0.37,9.07
79302870,-0.066243,0.064856,-0.016462,0.19,0.49,10.51
79303876,-0.077961,0.084031,-0.020724,-0.19,-0.34,9.83
79304877,-0.073700,0.091488,-0.027115,0.37,-0.30,8.83
79305887,0.011523,0.009461,-0.024985,-0.16,-0.52,9.58
79306897,0.039220,-0.000126,-0.030311,0.47,-0.24,9.34
79307907,0.047742,-0.028889,-0.027115,0.34,0.43,11.03
79308945,0.007262,-0.021432,-0.027115,-0.25,-0.84,9.67
79309927,0.049873,-0.021432,-0.022854,0.45,-0.33,9.21
79310937,0.077570,-0.059782,-0.018593,0.35,0.60,10.78
79311947,0.041351,-0.051260,-0.018593,-0.41,-1.00,9.33
79312969,0.062656,-0.038476,-0.013267,0.29,-0.33,9.12
79313976,0.056264,-0.053390,-0.005810,0.25,0.59,10.78
79314977,0.024306,-0.042737,-0.003679,-0.47,-1.10,9.25
79315987,0.048808,-0.035280,0.000582,0.26,-0.27,9.29
79316997,0.038155,-0.037411,0.005908,0.19,0.53,11.08
79318007,-0.019370,-0.002257,0.009104,-0.57,-1.18,9.42
79319025,-0.008718,0.017984,0.013365,0.22,-0.29,9.25
79320027,-0.008718,0.013723,0.015496,0.23,0.52,10.99
79321037,-0.057721,0.042485,0.013365,-0.49,-1.16,9.22
79322047,-0.059851,0.059530,0.013365,0.23,-0.29,9.12
79323070,-0.039611,0.024375,0.017627,0.17,0.52,10.89
79324076,-0.059851,0.032898,0.015496,-0.53,-1.15,9.21
79325077,-0.034284,0.048877,0.013365,0.20,-0.37,9.29
79326087,0.000870,-0.007583,0.014431,0.20,0.45,11.03
79327097,-0.008718,-0.021432,0.010170,-0.46,-1.06,9.36
79328107,0.037089,-0.007583,0.006974,0.28,-0.27,9.33
79329125,0.049873,-0.038476,0.004843,0.22,0.49,10.95
79330127,0.029632,-0.048064,0.000582,-0.50,-0.95,9.19
79331137,0.089288,-0.053390,0.002713,0.25,-0.23,9.13
79332147,0.092484,-0.056586,0.001647,0.24,0.54,10.85
79333169,0.022176,-0.023562,-0.003679,-0.48,-0.88,9.29
79334176,-0.004456,-0.000126,-0.005810,0.25,-0.33,9.31
79335177,-0.027893,0.007331,-0.007940,0.26,0.57,10.99
79336187,-0.071569,0.041420,-0.013267,-0.44,-0.80,9.39
79337197,-0.069439,0.065921,-0.013267,0.24,-0.32,9.25
79338207,-0.044937,0.030767,-0.011136,0.20,0.56,10.81
79339225,-0.034284,0.005200,-0.012201,-0.39,-0.81,9.17
79340227,0.011523,0.000939,-0.011136,0.40,-0.33,9.27
79341237,0.039220,-0.025693,-0.011136,0.34,0.62,11.03
79342247,0.024306,-0.024627,-0.015397,-0.36,-0.76,9.66
79343270,0.060526,-0.025693,-0.016462,0.27,-0.25,9.35
79344276,0.065852,-0.051260,-0.015397,0.15,0.59,10.58
79345277,0.023241,-0.045933,-0.019658,-0.34,-0.85,8.83
79346287,0.020045,-0.018236,-0.015397,0.52,-0.38,9.08
79347297,0.003000,0.003070,-0.009005,0.41,0.55,10.95
79348307,-0.054525,0.043550,-0.006875,-0.39,-0.81,10.02
79349325,-0.067308,0.065921,-0.003679,0.24,-0.30,9.58
79350327,-0.054525,0.042485,-0.002614,0.22,0.63,10.78
79351337,-0.066243,0.032898,-0.005810,-0.37,-0.76,8.93
79352347,-0.038545,0.036094,-0.002614,0.37,-0.45,8.59
79353369,-0.002326,0.009461,0.003778,0.18,0.56,10.74
79354376,-0.007652,-0.003322,0.003778,-0.50,-0.77,9.21
79355377,0.028567,-0.015040,0.004843,0.29,-0.61,9.57
79356387,0.058395,-0.062978,0.008039,0.32,0.68,10.98
79357397,0.038155,-0.059782,0.008039,-0.42,-0.85,9.80
79358407,0.063721,-0.031019,0.010170,0.15,-0.45,9.31
79359425,0.057330,-0.036346,0.011235,0.15,0.74,10.90
79360427,0.021110,-0.037411,0.008039,-0.52,-0.95,8.67
79361437,0.033894,-0.031019,0.008039,0.29,-0.48,8.69
79362447,0.031763,-0.029954,0.006974,0.27,0.74,10.93
79363470,-0.023632,0.009461,0.002713,-0.54,-0.93,9.38
79364476,-0.011913,0.035028,0.004843,0.22,-0.55,9.78
79365477,-0.010848,0.022245,0.004843,0.21,0.78,11.38
79366487,-0.067308,0.045681,0.000582,-0.51,-1.00,9.32
79367497,-0.061982,0.074444,-0.001548,0.26,-0.46,9.05
79368507,-0.037480,0.051007,0.000582,0.21,0.86,10.85
79369525,-0.051329,0.054203,-0.002614,-0.54,-0.98,8.81
79370527,-0.016175,0.064856,-0.002614,0.26,-0.54,9.07
79371537,0.022176,0.007331,-0.000483,0.29,0.75,10.91
79372547,0.016849,-0.022497,-0.002614,-0.44,-1.02,9.23
79373569,0.057330,-0.021432,-0.001548,0.31,-0.45,9.47
79374583,0.081831,-0.061912,0.001647,0.32,0.85,11.34
79375580,0.057330,-0.073630,0.001647,-0.48,-1.09,9.32
79376595,0.095680,-0.062978,0.001647,0.29,-0.39,9.18
79377602,0.093549,-0.061912,0.001647,0.28,0.91,10.95
79378620,0.013653,-0.029954,-0.004744,-0.52,-0.95,8.82
79379638,-0.027893,0.015853,-0.005810,0.33,-0.51,9.07
79380638,-0.034284,0.026506,-0.002614,0.29,0.78,11.12
79381650,-0.063047,0.055269,0.000582,-0.59,-0.95,9.35
79382659,-0.050264,0.069117,0.002713,0.25,-0.57,9.55
79383689,-0.026827,0.023310,0.003778,0.25,0.83,11.17
79384690,-0.051329,0.014788,-0.003679,-0.51,-0.91,9.01
79385688,-0.026827,0.036094,-0.004744,0.34,-0.54,9.07
79386695,0.014719,-0.004387,-0.000483,0.24,0.73,10.90
79387712,0.004066,-0.024627,-0.000483,-0.57,-1.04,9.09
79388719,0.040285,-0.020366,-0.000483,0.31,-0.52,9.44
79389734,0.057330,-0.056586,-0.001548,0.28,0.86,10.97
79390743,0.026437,-0.060847,-0.004744,-0.55,-1.06,9.13
79391743,0.047742,-0.034215,-0.005810,0.33,-0.50,9.51
79392752,0.046677,-0.039541,-0.006875,0.25,0.93,11.21
79393773,-0.004456,-0.034215,-0.007940,-0.59,-1.06,9.01
79394777,-0.009783,-0.016105,-0.006875,0.32,-0.55,9.25
79395781,-0.022566,-0.008648,-0.004744,0.20,0.88,10.87
79396791,-0.077961,0.024375,-0.006875,-0.59,-0.95,8.98
79397801,-0.087548,0.060595,-0.009005,0.34,-0.47,9.49
79398809,-0.076896,0.059530,-0.007940,0.20,0.83,11.05
79399825,-0.097136,0.071248,-0.009005,-0.56,-0.99,9.10
79400827,-0.073700,0.086162,-0.006875,0.36,-0.49,9.42
79401837,-0.048133,0.064856,-0.005810,0.21,0.78,10.87
