time_us,gyro_x_rad_s,gyro_y_rad_s,gyro_z_rad_s,acc_x_m_s2,acc_y_m_s2,acc_z_m_s2
2157965214,-0.006138,0.000588,-0.000686,0.01,-0.20,9.86
2157965943,-0.002943,0.000588,0.001444,0.03,-0.21,9.85
2157966934,0.000253,0.002718,0.000379,0.04,-0.24,9.82
2157967943,0.001319,0.001653,0.000379,0.00,-0.25,9.83
2157968959,0.000253,-0.000478,0.000379,0.00,-0.24,9.83
2157969964,-0.000812,0.000588,0.001444,0.00,-0.25,9.81
2157970974,0.000253,0.003783,0.002509,-0.03,-0.24,9.82
2157971983,0.000253,0.004849,0.002509,-0.01,-0.21,9.82
2157973008,-0.001877,0.002718,0.002509,0.02,-0.24,9.80
2157974007,-0.002943,0.000588,0.002509,-0.02,-0.27,9.77
2157975015,0.000253,-0.001543,0.001444,-0.04,-0.25,9.78
2157976023,0.002384,-0.000478,-0.001752,-0.02,-0.23,9.84
2157977034,0.003449,-0.000478,-0.003882,0.02,-0.21,9.86
2157978043,0.003449,-0.000478,-0.001752,0.00,-0.23,9.87
2157979059,0.002384,0.000588,-0.000686,0.00,-0.28,9.85
2157980064,0.001319,0.000588,-0.002817,0.01,-0.29,9.77
2157981074,0.002384,-0.001543,-0.002817,0.02,-0.26,9.75
2157982083,0.003449,-0.001543,-0.000686,0.05,-0.23,9.77
2157983108,0.003449,-0.001543,0.001444,0.04,-0.23,9.78
2157984107,0.002384,-0.001543,0.000379,0.00,-0.23,9.79
2157985147,0.001319,0.000588,-0.000686,0.01,-0.24,9.82
2157986116,0.001319,0.001653,-0.002817,0.04,-0.24,9.81
2157987127,0.000253,0.000588,-0.001752,0.03,-0.22,9.79
2157988136,-0.000812,0.000588,0.000379,0.01,-0.23,9.78
2157989152,0.000253,0.000588,0.001444,0.03,-0.24,9.79
2157990157,0.001319,0.001653,0.000379,0.02,-0.24,9.85
2157991167,0.003449,0.002718,0.001444,0.00,-0.23,9.86
2157992176,0.003449,0.001653,0.002509,0.01,-0.22,9.82
2157993201,0.000253,0.001653,0.002509,0.00,-0.23,9.78
2157994200,-0.001877,0.001653,0.000379,0.00,-0.23,9.82
2157995208,-0.001877,0.002718,-0.001752,0.00,-0.24,9.83
2157996216,0.000253,0.002718,-0.000686,0.01,-0.24,9.81
2157997227,0.002384,0.001653,0.001444,0.00,-0.23,9.79
2157998236,0.001319,0.000588,0.001444,-0.01,-0.23,9.74
2157999252,0.001319,0.001653,-0.000686,-0.02,-0.20,9.77
2158000257,0.001319,0.002718,-0.001752,-0.02,-0.21,9.81
2158001267,0.001319,0.002718,-0.001752,0.00,-0.24,9.80
2158002276,0.001319,0.000588,-0.001752,0.02,-0.24,9.79
2158003301,0.000253,0.000588,-0.000686,0.02,-0.22,9.78
2158004300,-0.000812,0.002718,0.000379,0.02,-0.21,9.77
2158005308,-0.000812,0.003783,0.000379,0.01,-0.24,9.75
2158006316,-0.001877,0.001653,0.000379,-0.01,-0.27,9.77
2158007327,-0.000812,0.001653,-0.001752,0.01,-0.27,9.79
2158008336,0.001319,0.002718,-0.003882,0.02,-0.23,9.84
2158009352,0.001319,0.002718,-0.002817,-0.01,-0.24,9.82
2158010357,0.002384,0.001653,0.000379,0.01,-0.27,9.81
2158011367,0.003449,-0.001543,0.004640,0.04,-0.26,9.88
2158012376,0.002384,-0.003674,0.005705,0.01,-0.25,9.89
2158013401,0.001319,-0.003674,0.002509,0.00,-0.23,9.80
2158014400,0.001319,-0.002608,0.000379,0.05,-0.23,9.76
2158015408,0.001319,-0.000478,0.000379,0.05,-0.27,9.78
2158016416,-0.001877,-0.001543,-0.000686,0.01,-0.29,9.79
2158017427,-0.002943,-0.000478,0.000379,0.01,-0.24,9.81
2158018436,-0.004008,0.000588,0.000379,0.01,-0.23,9.81
2158019452,-0.002943,0.001653,0.000379,-0.02,-0.22,9.82
2158020457,-0.000812,0.002718,0.000379,0.00,-0.22,9.82
2158021467,0.000253,0.001653,0.001444,0.02,-0.24,9.82
2158022476,0.000253,0.003783,0.002509,0.01,-0.27,9.81
2158023532,0.001316,0.002660,0.001400,0.04,-0.27,9.80
2158024500,0.002381,-0.000535,0.000335,0.04,-0.25,9.80
2158025508,0.002381,-0.001601,0.000335,0.03,-0.25,9.82
2158026516,0.000251,0.000530,0.000335,-0.01,-0.23,9.82
2158027527,-0.002945,0.000530,-0.000730,0.01,-0.20,9.86
2158028536,-0.004010,0.001595,-0.000730,0.01,-0.22,9.83
2158029552,-0.002945,0.001595,-0.000730,-0.01,-0.25,9.78
2158030557,-0.001880,0.001595,0.000335,0.02,-0.26,9.83
2158031567,0.000251,0.002660,-0.000730,0.02,-0.24,9.82
2158032578,0.001316,0.002660,-0.000730,0.02,-0.21,9.81
2158033607,0.001316,-0.000535,-0.000730,0.02,-0.19,9.82
2158034608,0.001316,-0.001601,0.000335,0.00,-0.22,9.84
2158035614,0.001316,-0.000535,0.000335,0.00,-0.24,9.85
2158036627,0.000251,0.000530,0.002466,-0.01,-0.23,9.82
2158037632,-0.001880,0.001595,0.003531,0.00,-0.22,9.84
2158038648,-0.000814,0.001595,0.000335,-0.01,-0.22,9.81
2158039663,0.002381,0.001595,-0.001795,-0.03,-0.24,9.79
2158040670,0.004512,0.003726,0.000335,0.00,-0.26,9.85
2158041676,0.004512,0.002660,0.000335,0.01,-0.26,9.86
2158042687,0.002381,0.000530,0.001400,0.00,-0.27,9.86
2158043714,0.001316,-0.002666,0.000335,-0.01,-0.25,9.88
2158044715,0.003447,-0.004797,0.001400,-0.01,-0.22,9.89
2158045719,0.004512,-0.003731,0.001400,0.00,-0.22,9.83
2158046728,0.002381,-0.000535,-0.000730,-0.02,-0.20,9.79
2158047734,0.000251,-0.000535,-0.002861,-0.02,-0.21,9.84
2158048747,-0.000814,-0.000535,-0.002861,-0.01,-0.23,9.84
2158049758,-0.001880,-0.001601,-0.000730,-0.03,-0.23,9.85
2158050765,-0.004010,-0.001601,0.000335,-0.03,-0.23,9.81
2158051771,-0.002945,-0.002666,-0.000730,-0.01,-0.25,9.77
2158052778,-0.000814,-0.001601,-0.000730,-0.03,-0.24,9.79
2158053801,0.000251,-0.000535,0.000335,-0.01,-0.21,9.81
2158054810,0.002381,-0.000535,0.000335,0.03,-0.23,9.87
2158055813,0.002381,-0.000535,0.002466,0.01,-0.24,9.85
2158056820,0.001316,0.000530,0.002466,-0.02,-0.23,9.75
2158057829,-0.000814,-0.000535,0.000335,-0.01,-0.23,9.76
2158058839,-0.000814,-0.000535,-0.001795,-0.02,-0.25,9.80
2158059852,-0.000814,0.002660,-0.000730,-0.03,-0.23,9.84
2158060857,-0.000814,0.003726,0.000335,0.00,-0.18,9.84
2158061867,0.000251,0.002660,0.000335,0.02,-0.23,9.83
2158062892,-0.000814,-0.001601,-0.003926,0.00,-0.20,9.81
2158063886,-0.000814,-0.002666,-0.003926,-0.02,-0.24,9.83
2158064902,0.000251,0.000530,-0.000730,-0.03,-0.21,9.83
2158065907,0.000251,0.002660,-0.000730,0.00,-0.20,9.82
2158066917,-0.000814,0.002660,-0.000730,0.01,-0.25,9.83
2158067926,-0.000814,0.002660,0.000335,0.03,-0.24,9.80
2158068937,0.001316,0.001595,0.000335,0.03,-0.21,9.84
2158069950,0.002381,-0.000535,0.000335,0.01,-0.19,9.83
2158070958,0.000251,-0.000535,0.001400,-0.03,-0.19,9.81
2158071966,-0.000814,0.000530,0.001400,-0.04,-0.21,9.84
2158072992,0.000251,0.002660,0.001400,0.00,-0.19,9.83
2158073986,0.001316,0.004791,0.000335,-0.01,-0.19,9.76
2158075002,0.001316,0.003726,-0.001795,0.00,-0.23,9.75
2158076007,0.002381,0.003726,-0.001795,-0.01,-0.23,9.79
2158077017,0.002381,0.002660,-0.001795,-0.04,-0.25,9.80
2158078026,0.001316,0.000530,-0.000730,-0.02,-0.28,9.83
2158079037,-0.000814,-0.000535,0.001400,-0.01,-0.24,9.87
2158080050,-0.004010,-0.001601,0.002466,0.01,-0.21,9.86
2158081084,-0.005076,-0.001601,0.000335,0.04,-0.21,9.82
2158082066,-0.005076,-0.000535,-0.001795,0.01,-0.23,9.83
2158083092,-0.004010,0.000530,-0.001795,-0.01,-0.23,9.86
2158084086,-0.002945,-0.000535,-0.000730,0.00,-0.24,9.90
2158085102,-0.001880,-0.000535,-0.000730,0.01,-0.23,9.90
2158086107,-0.000814,0.000530,-0.000730,0.00,-0.22,9.84
2158087117,-0.001880,0.001595,0.000335,0.00,-0.23,9.80
2158088126,-0.004010,0.001595,-0.000730,0.00,-0.23,9.81
2158089137,-0.001880,0.001595,-0.001795,0.01,-0.24,9.82
2158090150,-0.000814,0.001595,-0.001795,-0.01,-0.23,9.82
2158091158,-0.000814,-0.000535,0.000335,-0.02,-0.23,9.80
2158092166,0.002381,-0.002666,0.002466,0.00,-0.25,9.81
2158093192,0.004512,-0.002666,0.001400,0.00,-0.25,9.82
2158094186,0.003447,-0.002666,-0.000730,0.00,-0.28,9.84
2158095202,-0.000814,-0.001601,-0.000730,-0.04,-0.27,9.82
2158096207,-0.000814,-0.001601,-0.000730,-0.03,-0.22,9.81
2158097217,0.000251,-0.001601,0.000335,-0.01,-0.21,9.85
2158098226,0.003447,0.001595,0.000335,-0.01,-0.21,9.84
2158099237,0.006643,0.002660,0.000335,-0.03,-0.20,9.82
2158100250,0.007708,0.001595,0.002466,-0.07,-0.22,9.83
2158101258,0.004512,-0.001601,0.003531,-0.06,-0.23,9.81
2158102266,0.000251,-0.003731,0.002466,0.00,-0.22,9.83
2158103292,0.000251,-0.001601,0.000335,0.00,-0.23,9.83
2158104286,0.001316,-0.000535,-0.001795,0.02,-0.22,9.82
2158105302,0.001316,0.000530,-0.000730,0.03,-0.21,9.81
2158106307,0.000251,0.002660,-0.000730,0.00,-0.23,9.81
2158107317,0.001316,0.002660,0.000335,-0.02,-0.23,9.83
2158108326,0.003447,0.002660,0.001400,0.00,-0.23,9.81
2158109337,0.002381,0.002660,0.002466,-0.01,-0.27,9.81
2158110350,0.002381,-0.000535,0.003531,-0.02,-0.25,9.83
2158111358,0.002381,-0.001601,0.002466,0.02,-0.23,9.80
2158112366,0.002381,0.000530,0.002466,0.02,-0.23,9.80
2158113392,0.000251,0.001595,0.002466,0.01,-0.23,9.84
2158114386,-0.001880,0.000530,0.001400,-0.01,-0.24,9.82
2158115402,-0.000814,0.001595,0.001400,-0.02,-0.23,9.79
2158116407,-0.000814,0.003726,0.000335,-0.01,-0.24,9.79
2158117417,0.001316,0.003726,-0.001795,-0.02,-0.28,9.84
2158118426,0.002381,0.002660,-0.000730,-0.03,-0.27,9.82
2158119437,0.001316,0.001595,-0.000730,0.00,-0.23,9.82
2158120450,0.000251,0.001595,0.000335,0.01,-0.25,9.83
2158121458,-0.001880,0.000530,0.001400,0.01,-0.26,9.76
2158122466,-0.002945,0.000530,0.001400,0.01,-0.23,9.82
2158123492,-0.001880,-0.001601,0.001400,-0.01,-0.24,9.85
2158124486,-0.001880,-0.001601,0.001400,-0.02,-0.27,9.86
2158125502,-0.001880,-0.000535,0.001400,-0.02,-0.24,9.83
2158126507,-0.000814,-0.002666,-0.000730,0.00,-0.23,9.72
2158127517,-0.000814,-0.001601,-0.000730,0.03,-0.27,9.75
2158128526,-0.001880,-0.000535,0.001400,0.03,-0.24,9.85
2158129537,-0.001880,-0.000535,0.001400,0.03,-0.24,9.88
2158130550,-0.000814,-0.000535,0.002466,0.02,-0.25,9.89
2158131558,-0.000814,0.000530,0.002466,0.01,-0.25,9.87
2158132566,-0.000814,0.000530,0.000335,0.01,-0.24,9.79
2158133598,0.000251,0.001595,0.001400,0.00,-0.24,9.78
2158134590,0.001316,0.003726,0.002466,-0.03,-0.24,9.80
2158135608,0.001316,0.004791,0.001400,0.00,-0.23,9.82
2158136614,0.000251,0.002660,0.000335,0.01,-0.24,9.84
2158137625,0.000251,0.000530,-0.000730,0.00,-0.24,9.78
2158138630,0.000251,-0.000535,-0.001795,0.01,-0.23,9.74
2158139645,0.000251,0.000530,-0.000730,0.00,-0.22,9.84
2158140658,-0.000814,0.000530,-0.000730,0.00,-0.22,9.85
2158141665,-0.002945,-0.000535,-0.000730,0.01,-0.22,9.79
2158142674,-0.000814,-0.001601,0.000335,0.02,-0.23,9.82
2158143713,0.000251,-0.001601,0.000335,0.00,-0.25,9.84
2158144696,0.000251,0.000530,-0.000730,0.02,-0.23,9.85
2158145713,0.000251,0.000530,-0.001795,0.03,-0.23,9.81
2158146722,0.001316,-0.001601,-0.001795,0.01,-0.23,9.76
2158147728,0.001316,-0.000535,-0.000730,0.04,-0.23,9.81
2158148734,0.001316,-0.000535,0.000335,0.04,-0.25,9.80
2158149746,0.000251,0.000530,0.000335,0.00,-0.25,9.78
2158150759,0.001316,0.000530,0.001400,0.02,-0.24,9.80
2158151763,0.002381,0.001595,0.001400,0.03,-0.23,9.78
2158152798,0.001286,0.003679,0.001376,-0.01,-0.23,9.79
2158153794,0.001286,0.001548,0.000311,-0.01,-0.21,9.85
2158154796,-0.001910,-0.000582,-0.001820,-0.02,-0.21,9.88
2158155804,-0.001910,0.000483,-0.001820,-0.02,-0.22,9.84
2158156811,-0.002975,0.000483,-0.000754,0.01,-0.21,9.86
2158157821,-0.002975,-0.001647,-0.001820,0.03,-0.20,9.85
2158158828,-0.000845,-0.002713,-0.002885,0.02,-0.19,9.78
2158159841,0.000221,-0.002713,-0.000754,-0.03,-0.21,9.76
2158160850,0.001286,-0.002713,0.000311,0.03,-0.26,9.79
2158161858,0.000221,-0.001647,0.002441,0.05,-0.27,9.77
2158162881,-0.000845,-0.001647,0.003507,0.00,-0.23,9.80
2158163876,-0.001910,-0.003778,0.001376,-0.04,-0.24,9.86
2158164887,0.001286,-0.004843,0.000311,0.03,-0.23,9.80
2158165900,0.001286,-0.002713,0.001376,0.02,-0.23,9.87
2158166908,0.001286,-0.000582,0.002441,-0.01,-0.22,9.83
2158167916,0.002351,-0.001647,0.003507,0.02,-0.23,9.80
2158168927,0.002351,-0.002713,0.002441,0.04,-0.26,9.81
2158169936,0.001286,-0.001647,0.000311,0.04,-0.26,9.82
2158170952,-0.001910,-0.001647,-0.000754,0.03,-0.24,9.83
2158171957,-0.001910,-0.000582,-0.000754,-0.01,-0.22,9.81
2158172981,-0.000845,0.000483,0.001376,-0.01,-0.23,9.82
2158173976,-0.001910,-0.000582,0.001376,0.03,-0.26,9.82
2158174987,-0.000845,-0.000582,0.002441,0.02,-0.26,9.81
2158176000,0.001286,0.000483,0.002441,-0.01,-0.25,9.82
2158177008,0.001286,0.000483,0.000311,-0.01,-0.21,9.86
2158178016,0.000221,-0.000582,-0.000754,0.00,-0.23,9.83
2158179027,0.001286,-0.001647,-0.001820,0.01,-0.26,9.82
2158180036,0.001286,-0.000582,-0.001820,0.01,-0.24,9.80
2158181052,0.000221,-0.001647,-0.000754,0.01,-0.24,9.85
2158182077,-0.000845,-0.003778,0.001376,0.00,-0.25,9.90
2158183080,-0.001910,-0.002713,0.003507,0.01,-0.23,9.86
2158184078,-0.000845,-0.000582,0.003507,0.03,-0.23,9.85
2158185087,0.001286,0.001548,0.001376,0.03,-0.25,9.84
2158186100,0.002351,0.003679,-0.000754,-0.01,-0.25,9.85
2158187108,0.002351,0.003679,-0.001820,-0.02,-0.23,9.86
2158188116,0.000221,0.001548,-0.000754,0.01,-0.23,9.82
2158189127,0.000221,-0.001647,0.001376,-0.02,-0.24,9.76
2158190146,0.002351,-0.001647,-0.000754,-0.03,-0.26,9.79
2158191152,0.004482,0.001548,-0.001820,0.01,-0.24,9.84
2158192176,0.003417,0.003679,-0.000754,0.01,-0.22,9.81
2158193180,0.002351,0.002614,0.000311,0.01,-0.22,9.78
2158194178,0.001286,0.000483,0.000311,0.02,-0.22,9.81
2158195187,0.000221,-0.001647,0.001376,0.02,-0.24,9.81
2158196200,-0.000845,-0.000582,0.002441,-0.01,-0.24,9.80
2158197208,-0.001910,-0.000582,0.002441,0.00,-0.22,9.81
2158198216,-0.002975,-0.001647,0.001376,0.06,-0.25,9.79
2158199227,-0.001910,-0.002713,0.000311,0.03,-0.25,9.79
2158200236,-0.002975,-0.001647,0.002441,0.02,-0.24,9.81
2158201252,-0.002975,0.000483,0.005637,0.02,-0.22,9.81
2158202276,0.000221,0.001548,0.004572,-0.01,-0.25,9.79
2158203280,0.001286,0.001548,0.001376,0.00,-0.28,9.74
2158204278,0.001286,0.001548,-0.000754,0.03,-0.23,9.72
2158205287,0.000221,-0.000582,-0.000754,0.03,-0.22,9.78
2158206300,-0.002975,-0.001647,0.001376,-0.01,-0.24,9.83
2158207308,-0.004040,-0.001647,0.002441,-0.02,-0.25,9.86
2158208316,-0.002975,0.000483,0.003507,-0.01,-0.22,9.85
2158209327,0.000221,0.000483,0.003507,-0.04,-0.22,9.82
2158210336,0.002351,-0.000582,0.002441,-0.03,-0.24,9.82
2158211352,0.001286,-0.000582,0.003507,0.02,-0.23,9.82
2158212376,0.001286,0.000483,0.003507,0.01,-0.25,9.81
2158213380,0.001286,-0.001647,0.003507,-0.01,-0.27,9.79
2158214378,0.000221,-0.002713,0.001376,-0.02,-0.25,9.81
2158215387,0.000221,-0.001647,-0.000754,-0.01,-0.22,9.84
2158216400,0.001286,0.000483,-0.001820,0.04,-0.21,9.87
2158217408,0.002351,-0.000582,-0.001820,0.01,-0.21,9.91
2158218416,0.002351,-0.001647,-0.000754,0.00,-0.23,9.87
2158219427,0.002351,-0.000582,-0.000754,0.01,-0.24,9.82
2158220436,0.002351,0.000483,0.000311,0.00,-0.23,9.82
2158221452,0.000221,0.001548,0.003507,0.02,-0.23,9.82
2158222476,-0.001910,0.001548,0.005637,0.00,-0.22,9.86
2158223480,-0.000845,-0.000582,0.003507,0.01,-0.24,9.90
2158224478,0.001286,-0.002713,0.001376,0.01,-0.25,9.85
2158225487,0.000221,-0.002713,0.002441,0.00,-0.25,9.86
2158226500,-0.000845,-0.002713,0.001376,-0.01,-0.23,9.85
2158227508,0.000221,-0.003778,-0.000754,0.02,-0.23,9.82
2158228516,0.001286,-0.002713,0.000311,0.04,-0.22,9.82
2158229527,0.000221,-0.002713,-0.000754,0.00,-0.23,9.77
2158230536,0.000221,0.000483,0.000311,-0.04,-0.24,9.77
2158231552,0.002351,0.001548,0.002441,-0.02,-0.26,9.80
2158232578,0.002351,0.003679,0.002441,0.03,-0.24,9.84
2158233582,0.000221,0.004744,-0.000754,0.04,-0.20,9.86
2158234581,-0.002975,0.001548,-0.001820,0.04,-0.22,9.83
2158235594,-0.001910,-0.001647,-0.000754,0.01,-0.23,9.83
2158236608,-0.001910,-0.002713,0.001376,-0.02,-0.26,9.80
2158237614,-0.001910,0.001548,0.001376,-0.02,-0.27,9.82
2158238627,0.000221,0.004744,0.001376,0.00,-0.27,9.82
2158239632,0.000221,0.002614,0.001376,-0.02,-0.27,9.80
2158240648,0.000221,-0.000582,0.003507,-0.03,-0.26,9.83
2158241663,-0.000845,-0.002713,0.003507,-0.02,-0.24,9.87
2158242687,-0.000845,-0.002713,0.001376,-0.02,-0.22,9.85
2158243691,-0.001910,-0.000582,-0.002885,0.00,-0.23,9.81
2158244689,-0.004040,0.000483,-0.005016,0.01,-0.26,9.80
2158245695,-0.002975,0.000483,-0.001820,-0.01,-0.24,9.81
2158246718,-0.000845,-0.000582,0.000311,-0.03,-0.23,9.81
2158247719,0.000221,-0.000582,0.000311,-0.02,-0.22,9.82
2158248728,0.001286,-0.000582,-0.001820,0.00,-0.20,9.84
2158249734,0.001286,-0.002713,-0.003950,-0.02,-0.20,9.82
2158250747,0.001286,-0.002713,-0.002885,-0.03,-0.19,9.84
2158251758,0.002351,-0.002713,-0.001820,-0.02,-0.18,9.86
2158252794,0.001286,-0.002713,-0.001820,0.00,-0.20,9.81
2158253770,0.001286,-0.003778,-0.000754,-0.02,-0.23,9.81
2158254783,0.002351,-0.003778,0.000311,-0.01,-0.25,9.85
2158255786,0.005547,-0.001647,0.000311,0.01,-0.26,9.82
2158256836,0.003417,-0.000582,-0.000754,0.03,-0.25,9.79
2158257811,0.000221,-0.001647,-0.001820,0.02,-0.25,9.82
2158258821,-0.000845,-0.002713,-0.001820,-0.02,-0.23,9.82
2158259828,0.000221,0.000483,0.000311,0.00,-0.22,9.82
2158260841,0.001286,0.002614,0.001376,0.04,-0.25,9.85
2158261850,0.002351,0.000483,0.001376,0.03,-0.25,9.89
2158262882,0.001286,-0.001647,0.001376,0.01,-0.24,9.85
2158263866,0.002351,-0.002713,-0.000754,-0.01,-0.21,9.87
2158264877,0.001286,-0.002713,-0.000754,0.01,-0.23,9.88
2158265886,-0.000845,-0.003778,-0.001820,-0.01,-0.26,9.82
2158266902,0.000221,0.000483,-0.000754,0.00,-0.26,9.81
2158267907,0.002351,0.000483,0.000311,-0.01,-0.26,9.83
2158268917,0.001286,-0.000582,0.003507,0.01,-0.27,9.85
2158269926,0.000221,0.001548,0.005637,0.01,-0.25,9.86
2158270937,0.001286,0.002614,0.006703,-0.03,-0.22,9.84
2158271969,0.001286,0.000483,0.004572,-0.01,-0.22,9.79
2158272971,-0.001910,-0.000582,0.001376,0.02,-0.23,9.77
2158273968,-0.004040,0.001548,-0.001820,0.00,-0.23,9.82
2158274977,-0.004040,0.002614,-0.002885,0.00,-0.21,9.80
2158275986,-0.002975,0.002614,-0.002885,0.03,-0.22,9.77
2158277002,0.000221,0.002614,-0.000754,0.04,-0.24,9.80
2158278007,0.001286,0.002614,0.001376,0.04,-0.23,9.81
2158279017,-0.000845,0.000483,0.002441,0.02,-0.22,9.82
2158280026,-0.002975,-0.000582,0.003507,-0.03,-0.23,9.82
2158281037,-0.002975,-0.001647,0.001376,-0.03,-0.24,9.78
2158282098,-0.002985,-0.000520,0.000231,0.01,-0.23,9.80
2158283071,-0.001919,0.001610,-0.000834,0.02,-0.22,9.83
2158284068,0.000211,0.001610,-0.001899,0.00,-0.22,9.78
2158285077,0.001276,-0.001585,-0.001899,-0.01,-0.22,9.82
2158286086,0.002342,-0.001585,-0.000834,-0.01,-0.23,9.81
2158287102,0.001276,-0.000520,0.000231,0.00,-0.25,9.79
2158288107,-0.000854,-0.000520,0.000231,0.02,-0.24,9.82
2158289117,-0.002985,0.000545,-0.000834,0.00,-0.23,9.81
2158290126,-0.001919,0.000545,-0.001899,-0.02,-0.26,9.83
2158291137,-0.001919,-0.000520,-0.001899,-0.01,-0.28,9.85
2158292215,-0.001919,0.000545,-0.001899,0.01,-0.23,9.84
2158293171,-0.000854,0.001610,-0.001899,0.04,-0.24,9.81
2158294168,0.000211,0.000545,-0.001899,0.04,-0.26,9.79
2158295177,-0.001919,-0.000520,-0.002964,0.02,-0.24,9.81
2158296186,-0.001919,-0.000520,-0.001899,0.01,-0.22,9.86
2158297202,-0.001919,-0.001585,-0.000834,0.01,-0.24,9.90
2158298207,-0.000854,-0.003716,0.000231,0.01,-0.24,9.87
2158299217,-0.001919,-0.001585,0.000231,0.01,-0.22,9.83
2158300226,-0.000854,-0.001585,0.000231,0.04,-0.21,9.79
2158301237,-0.000854,-0.001585,0.001297,0.03,-0.23,9.81
2158302269,-0.000854,0.000545,0.002362,-0.01,-0.28,9.82
2158303271,-0.000854,0.002676,0.001297,0.00,-0.27,9.82
2158304268,0.000211,0.003741,0.001297,0.01,-0.26,9.85
2158305277,0.000211,0.002676,0.003427,0.01,-0.24,9.86
2158306286,-0.001919,0.002676,0.002362,-0.01,-0.23,9.85
2158307302,-0.002985,0.001610,0.001297,-0.02,-0.25,9.83
2158308307,0.000211,-0.001585,0.000231,-0.04,-0.24,9.85
2158309317,0.003407,-0.002651,-0.000834,-0.03,-0.27,9.82
2158310326,0.003407,-0.003716,-0.001899,-0.01,-0.29,9.78
2158311337,0.002342,-0.001585,-0.001899,-0.02,-0.27,9.82
2158312369,0.000211,-0.000520,0.001297,-0.02,-0.24,9.83
2158313371,-0.001919,0.000545,0.003427,0.00,-0.27,9.79
2158314368,0.000211,0.001610,0.001297,0.00,-0.28,9.81
2158315377,0.002342,0.001610,-0.000834,0.00,-0.25,9.81
2158316386,0.003407,0.000545,-0.000834,0.02,-0.25,9.81
2158317402,0.002342,-0.001585,-0.000834,0.03,-0.24,9.85
2158318407,0.001276,-0.003716,-0.001899,0.04,-0.24,9.86
2158319417,0.001276,-0.001585,-0.001899,0.02,-0.25,9.86
2158320426,0.002342,-0.000520,-0.001899,0.00,-0.23,9.80
2158321437,0.001276,-0.001585,0.000231,0.01,-0.22,9.79
2158322469,0.000211,-0.000520,0.001297,-0.02,-0.23,9.85
2158323471,0.001276,0.001610,0.001297,-0.04,-0.24,9.82
2158324468,0.001276,0.001610,0.001297,0.01,-0.24,9.84
2158325477,0.001276,0.000545,0.001297,0.03,-0.22,9.82
2158326486,0.000211,0.000545,0.001297,0.01,-0.21,9.77
2158327502,0.002342,0.004806,0.002362,-0.03,-0.20,9.78
2158328507,0.003407,0.006937,0.002362,-0.04,-0.22,9.81
2158329517,0.001276,0.003741,0.000231,0.00,-0.25,9.83
2158330526,-0.000854,-0.000520,-0.000834,-0.01,-0.25,9.81
2158331537,-0.000854,-0.001585,-0.000834,-0.02,-0.22,9.85
2158332570,0.000211,0.000545,0.001297,0.00,-0.21,9.88
2158333575,-0.001919,0.001610,0.002362,-0.01,-0.24,9.82
2158334568,-0.000854,0.002676,0.001297,0.00,-0.25,9.75
2158335581,0.000211,0.002676,-0.001899,0.00,-0.26,9.79
2158336590,0.000211,-0.000520,-0.004030,-0.01,-0.23,9.82
2158337608,-0.000854,-0.002651,-0.002964,-0.01,-0.21,9.81
2158338614,-0.000854,-0.001585,-0.000834,-0.01,-0.24,9.82
2158339625,0.000211,-0.000520,0.002362,0.00,-0.26,9.84
2158340630,0.001276,0.000545,0.002362,0.01,-0.26,9.86
2158341645,0.000211,0.000545,0.001297,0.02,-0.26,9.82
2158342658,-0.000854,-0.001585,0.000231,0.02,-0.25,9.80
2158343692,-0.001919,-0.002651,0.000231,-0.02,-0.23,9.80
2158344675,-0.001919,-0.003716,0.001297,-0.01,-0.26,9.82
2158345684,0.000211,-0.004781,0.001297,-0.02,-0.25,9.84
2158346697,-0.000854,-0.001585,0.002362,-0.05,-0.23,9.82
2158347713,-0.000854,0.002676,0.001297,-0.01,-0.22,9.78
2158348722,-0.000854,0.003741,0.001297,0.00,-0.22,9.77
2158349728,-0.000854,-0.000520,0.000231,0.00,-0.25,9.78
2158350734,-0.000854,-0.002651,-0.000834,-0.01,-0.26,9.78
2158351746,0.000211,-0.002651,-0.001899,-0.02,-0.23,9.77
2158352759,-0.000854,-0.001585,-0.001899,0.00,-0.22,9.80
2158353777,-0.002985,0.000545,-0.000834,0.01,-0.22,9.80
2158354780,-0.004050,0.001610,0.001297,0.03,-0.21,9.82
2158355779,-0.004050,0.001610,0.001297,0.02,-0.21,9.85
2158356786,-0.002985,0.000545,0.001297,0.03,-0.21,9.85
2158357841,-0.000854,-0.000520,0.000231,0.01,-0.22,9.85
2158358833,0.000211,-0.000520,0.000231,0.01,-0.22,9.81
2158359821,0.000211,0.000545,-0.000834,0.03,-0.23,9.79
2158360828,0.002342,0.000545,-0.001899,0.01,-0.22,9.83
2158361841,0.002342,-0.002651,-0.000834,0.03,-0.23,9.82
2158362862,0.002342,-0.003716,-0.000834,0.01,-0.25,9.76
2158363859,0.002342,-0.001585,-0.000834,0.02,-0.25,9.80
2158364867,0.002342,-0.000520,-0.000834,0.01,-0.23,9.84
2158365876,0.000211,-0.002651,-0.000834,-0.03,-0.24,9.79
2158366887,0.000211,-0.003716,-0.000834,-0.03,-0.23,9.75
2158367900,0.000211,-0.003716,-0.000834,-0.01,-0.23,9.78
2158368908,0.001276,-0.000520,0.000231,0.06,-0.25,9.85
2158369916,-0.000854,-0.000520,0.001297,0.01,-0.24,9.86
2158370927,-0.000854,-0.000520,0.000231,0.02,-0.26,9.82
2158371936,0.000211,0.000545,-0.000834,0.04,-0.23,9.79
2158372963,0.001276,0.000545,0.000231,0.02,-0.20,9.81
2158373959,0.004472,0.001610,0.000231,0.02,-0.23,9.77
2158374967,0.005538,0.001610,0.001297,0.02,-0.23,9.76
2158375976,0.003407,0.000545,0.001297,0.03,-0.22,9.81
2158376987,0.001276,-0.001585,0.000231,0.04,-0.26,9.79
2158378000,-0.002985,0.000545,0.001297,0.02,-0.27,9.75
2158379008,-0.002985,0.002676,0.001297,0.00,-0.23,9.84
2158380016,-0.001919,0.001610,0.001297,-0.02,-0.24,9.89
2158381027,-0.000854,-0.000520,0.003427,-0.03,-0.27,9.87
2158382036,-0.001919,-0.000520,0.004493,0.00,-0.27,9.87
2158383063,-0.001919,0.000545,0.003427,0.01,-0.27,9.82
2158384059,-0.001919,0.000545,0.000231,-0.03,-0.28,9.80
2158385067,-0.000854,0.000545,-0.000834,0.00,-0.28,9.78
2158386076,0.000211,0.000545,-0.000834,0.03,-0.23,9.75
2158387087,-0.000854,-0.000520,0.000231,0.02,-0.22,9.80
2158388108,0.000211,0.000545,0.001297,-0.02,-0.22,9.85
2158389108,0.001276,0.003741,0.001297,-0.02,-0.20,9.82
2158390116,0.001276,0.001610,0.000231,0.01,-0.20,9.81
2158391127,0.001276,-0.001585,-0.000834,0.02,-0.22,9.84
2158392136,-0.000854,-0.001585,-0.001899,0.04,-0.23,9.84
2158393163,-0.001919,0.001610,-0.001899,0.03,-0.21,9.84
2158394159,-0.001919,0.001610,-0.001899,0.01,-0.20,9.79
2158395206,-0.000854,-0.000520,0.000231,0.01,-0.20,9.80
2158396176,-0.000854,-0.001585,0.000231,0.03,-0.24,9.83
2158397187,-0.001919,-0.000520,0.000231,0.03,-0.29,9.82
2158398200,-0.001919,0.001610,-0.000834,0.03,-0.28,9.82
2158399208,0.000211,0.001610,-0.000834,0.03,-0.27,9.79
2158400216,0.001276,0.000545,0.001297,0.02,-0.27,9.81
2158401227,0.002342,-0.001585,0.002362,0.02,-0.23,9.81
2158402236,0.001276,-0.002651,0.001297,0.02,-0.23,9.78
2158403262,0.000211,-0.003716,-0.000834,0.01,-0.25,9.79
2158404412,0.000211,-0.000520,-0.001899,-0.01,-0.25,9.79
2158405258,0.001276,0.001610,-0.002964,-0.09,-0.16,9.78
2158406258,-0.012572,0.010133,-0.020009,-0.04,-0.25,9.75
2158407268,-0.028551,0.014394,-0.023205,0.08,-0.24,9.85
2158408284,-0.024290,0.008002,-0.007226,0.03,-0.09,9.91
2158409288,-0.014703,0.001610,0.010884,0.05,-0.20,9.86
2158410298,0.003407,-0.000520,0.021537,0.13,-0.34,9.85
2158411308,0.018321,-0.000520,0.025798,0.09,-0.34,9.76
2158412318,0.014060,-0.001585,0.028994,-0.09,-0.46,9.91
2158413347,0.000211,-0.003716,0.031125,-0.34,-0.51,9.80
2158414341,-0.016833,-0.000520,0.023668,-0.43,-0.23,9.63
2158415349,-0.016833,-0.000520,0.007688,0.10,0.04,9.55
2158416359,-0.002985,-0.001585,-0.009356,0.37,-0.33,9.60
2158417369,0.009799,0.004806,-0.016813,0.14,-0.53,10.16
2158418385,0.007668,0.002676,-0.008291,-0.21,0.18,10.45
2158419389,-0.004050,-0.013303,-0.006160,-0.13,0.19,9.78
2158420399,-0.012572,-0.012238,-0.018944,0.72,-0.85,9.45
2158421409,0.007668,0.016524,-0.017878,0.00,-0.56,10.07
2158422419,0.008733,0.016524,-0.005095,-0.85,0.99,9.94
2158423448,-0.029617,-0.027152,-0.008291,0.40,-1.18,9.01
2158424441,-0.004050,-0.014369,-0.007226,0.49,-0.85,9.90
2158425449,0.043888,0.016524,0.001297,-0.66,2.33,10.78
2158426459,-0.031747,-0.021826,-0.010421,0.42,-2.08,9.11
2158427469,-0.051988,0.000545,-0.001899,0.47,-0.71,10.10
2158428485,0.049214,0.033569,0.001297,-1.23,2.12,10.27
2158429489,-0.025356,-0.023956,-0.011487,0.33,-2.59,8.63
2158430499,-0.029617,-0.004781,-0.000834,0.25,0.31,10.91
2158431509,0.017256,0.010133,-0.004030,-0.17,0.61,9.12
2158432519,-0.027486,0.009067,0.004493,-0.11,-1.54,10.44
2158433545,0.047083,-0.013303,0.000231,-0.01,0.44,9.83
2158434541,-0.002985,-0.026087,0.006623,-0.01,-0.33,8.14
2158435549,0.040692,0.016524,0.004493,-0.70,-1.35,11.75
2158436559,0.027908,-0.015434,0.002362,0.68,0.81,8.24
2158437572,0.010864,-0.000520,0.002362,-0.38,-1.06,11.14
2158438591,-0.008311,-0.013303,0.000231,0.05,-0.50,8.84
2158439593,-0.004050,0.002676,-0.000834,0.51,0.99,10.88
2158440606,-0.009376,-0.012238,-0.000834,-0.21,-1.44,9.25
2158441619,0.006603,-0.030348,-0.008291,0.35,0.98,9.86
2158442625,0.009799,0.010133,-0.012552,-0.20,-0.29,10.75
2158443653,-0.008311,0.009067,-0.014683,-0.42,-0.52,7.35
2158444660,-0.039204,0.014394,-0.014683,0.65,0.29,11.88
2158445656,-0.011507,0.005872,-0.014683,0.02,-0.44,8.59
2158446674,-0.009376,0.014394,-0.017878,0.16,0.59,11.23
2158447679,-0.000854,0.011198,-0.017878,0.52,-0.29,10.33
2158448692,0.016190,0.000545,-0.014683,-1.00,-0.69,7.62
2158449699,0.025778,-0.002651,-0.009356,0.59,0.66,11.31
2158450706,0.014060,-0.002651,-0.006160,0.45,-0.63,9.89
2158451719,0.014060,-0.001585,-0.004030,-1.19,-1.08,7.93
2158452731,0.037496,-0.006912,0.000231,0.52,0.59,11.68
2158453754,0.033235,0.002676,0.001297,0.45,-0.61,10.12
2158454754,-0.000854,0.011198,0.000231,-1.33,-1.17,8.00
2158455754,-0.004050,-0.004781,0.001297,0.24,0.24,11.25
2158456763,-0.022160,-0.011173,-0.002964,1.03,-0.08,10.76
2158457769,-0.042400,0.015459,-0.008291,-0.95,-1.03,8.02
2158458789,-0.058379,0.030373,-0.011487,-0.80,-0.49,9.69
2158459793,-0.056249,0.036765,-0.011487,1.10,0.45,11.05
2158460803,-0.023225,0.042091,-0.009356,0.62,-0.11,9.53
2158461811,0.006603,0.044222,-0.009356,-1.42,-1.06,8.28
2158462823,0.020451,0.022916,-0.012552,-0.43,-0.25,10.48
2158463848,-0.002985,0.010133,-0.015748,1.36,0.66,10.99
2158464841,-0.040270,0.022916,-0.013617,0.69,0.37,9.53
2158465849,-0.041335,0.025047,-0.009356,-1.23,-0.97,8.63
2158466859,0.011929,-0.004781,-0.005095,-0.71,-0.67,9.89
2158467869,0.066259,-0.032479,-0.004030,1.25,0.46,10.96
2158468885,0.067324,-0.041001,-0.001899,1.20,0.52,10.31
2158469889,0.024713,-0.028217,0.002362,-0.40,-0.14,9.12
2158470899,-0.047726,0.036765,-0.001899,-0.06,-0.51,10.15
2158471909,-0.046661,0.041026,-0.004030,1.23,0.37,10.82
2158472919,-0.016833,0.013329,-0.002964,1.03,0.51,10.38
2158473945,0.023647,-0.005847,-0.001899,-0.53,0.02,9.26
2158474941,0.018321,-0.009042,-0.002964,-1.50,-1.46,8.50
2158475949,-0.009376,-0.004781,-0.004030,-0.66,-1.17,9.63
2158476959,-0.026421,-0.000520,-0.005095,0.54,0.01,10.71
2158477969,-0.005115,0.000545,-0.004030,1.15,0.50,10.81
2158478985,0.016190,-0.011173,-0.002964,0.46,0.64,9.86
2158479989,0.004472,-0.005847,-0.004030,-0.91,-0.50,8.66
2158480999,0.003407,0.022916,-0.004030,-1.56,-1.61,8.56
2158482009,0.018321,0.049548,-0.004030,-0.82,-1.10,9.56
2158483019,0.012995,0.057005,-0.004030,0.39,-0.48,10.63
2158484048,-0.008311,0.045287,-0.004030,1.17,0.21,11.07
2158485041,-0.005115,0.009067,-0.004030,1.15,0.96,10.39
2158486049,0.003407,-0.013303,-0.004030,0.19,0.58,9.24
2158487059,-0.010442,-0.005847,-0.004030,-0.88,-0.41,8.79
2158488069,-0.021094,0.019720,-0.004030,-1.38,-1.42,9.11
2158489085,-0.010442,0.025047,-0.004030,-0.74,-1.35,9.52
2158490089,-0.006181,0.017590,-0.004030,0.29,-0.87,10.19
2158491099,-0.002985,0.020786,-0.001899,1.19,-0.11,10.89
2158492109,-0.010442,0.019720,-0.000834,1.44,1.08,10.79
2158493132,0.015125,-0.009042,0.002362,1.00,1.33,10.23
2158494137,-0.021094,-0.006912,0.004493,0.31,0.68,9.21
2158495139,-0.005115,0.011198,0.006623,-0.47,-0.11,9.24
2158496149,0.069454,-0.027152,0.013015,-1.00,-0.66,9.20
2158497159,0.050279,-0.060176,0.015145,-1.07,-1.28,9.02
2158498169,-0.057314,-0.021826,0.013015,-0.59,-1.49,9.56
2158499184,-0.120166,0.026112,0.011949,0.03,-0.97,10.03
2158500193,-0.075424,-0.002651,0.015145,0.47,-0.27,10.45
2158501199,0.016190,-0.068698,0.016211,0.96,0.54,10.59
2158502209,0.067324,-0.067633,0.013015,1.03,1.10,10.54
2158503234,0.026843,-0.007977,0.009819,0.71,1.13,9.98
2158504237,-0.016833,-0.005847,0.003427,0.19,0.48,9.30
2158505239,0.003407,-0.004781,0.001297,-0.39,-0.06,9.45
2158506249,0.017256,0.011198,0.001297,-0.80,0.04,9.72
2158507259,0.010864,0.009067,-0.001899,-1.05,-0.92,9.23
2158508269,0.007668,0.002676,-0.002964,-0.83,-1.73,8.93
2158509284,0.000211,0.012263,-0.000834,-0.78,-1.46,9.06
2158510289,-0.027486,0.009067,-0.001899,-0.76,-1.23,9.66
2158511299,-0.053053,0.005872,-0.007226,0.05,-1.27,9.87
2158512309,-0.032813,0.020786,-0.007226,0.52,-0.63,10.35
2158513332,-0.005115,0.017590,-0.002964,0.37,0.35,10.79
2158514337,-0.015768,0.004806,-0.005095,0.68,0.12,10.26
2158515339,-0.010442,0.011198,-0.009356,0.95,0.55,10.38
2158516349,0.003407,0.018655,-0.011487,0.73,1.21,10.50
2158517359,-0.011507,0.010133,-0.011487,0.47,0.48,9.66
2158518369,-0.006181,0.011198,-0.008291,0.45,0.01,9.28
2158519384,0.008733,0.011198,-0.000834,0.25,1.12,9.75
2158520389,0.001276,-0.005847,0.001297,-0.14,0.20,9.66
2158521399,-0.006181,-0.010108,0.000231,0.01,-0.60,9.80
2158522409,-0.000854,0.009067,0.002362,-0.41,0.39,10.02
2158523434,0.023647,-0.011173,0.005558,-0.70,-0.63,9.52
2158524437,0.007668,-0.028217,0.004493,0.00,-0.93,9.51
2158525439,-0.024290,0.005872,0.002362,-0.48,-0.77,9.52
2158526449,-0.011507,0.016524,0.004493,-1.01,-1.21,9.29
2158527459,0.026843,-0.013303,0.005558,-0.20,-0.79,9.66
2158528469,0.054540,-0.016499,0.006623,-0.02,-0.94,9.47
2158529484,0.069454,-0.021826,0.010884,-0.49,-1.00,9.37
2158530489,0.047083,-0.064437,0.010884,-0.30,-0.61,9.90
2158531499,0.018321,-0.068698,0.007688,0.16,-1.05,9.64
2158532509,0.044953,-0.035674,0.010884,0.09,-0.37,10.27
2158533532,0.057736,-0.037805,0.008754,-0.25,-0.05,10.22
2158534537,0.027908,-0.029283,-0.001899,0.17,-0.97,9.40
2158535539,0.008733,0.025047,-0.006160,0.34,-0.01,10.44
2158536549,-0.020029,0.050613,-0.006160,-0.06,0.36,10.47
2158537559,-0.033878,0.002676,-0.005095,0.20,-0.62,9.65
2158538572,0.001276,-0.025022,-0.006160,0.39,0.10,10.12
2158539589,0.016190,0.012263,-0.007226,0.07,0.44,10.60
2158540592,-0.005115,0.012263,-0.008291,0.16,-0.13,9.96
2158541606,-0.013638,-0.005847,-0.008291,0.44,0.06,9.34
2158542620,0.001276,0.018655,-0.000834,0.20,0.27,9.91
2158543640,0.011929,0.011198,0.000231,0.13,0.39,10.14
2158544645,0.003407,-0.006912,-0.002964,0.33,-0.17,9.30
2158545657,0.019386,0.004806,-0.001899,0.24,0.02,9.64
2158546656,0.011929,0.006937,-0.002964,0.13,0.50,10.21
2158547670,-0.009376,-0.005847,-0.005095,0.32,-0.43,9.62
2158548678,-0.025356,0.005872,-0.002964,0.35,0.07,9.67
2158549691,-0.015768,0.017590,-0.002964,-0.02,0.49,9.89
2158550697,0.006603,-0.002651,-0.002964,0.15,-0.66,9.63
2158551703,-0.007246,-0.004781,0.000231,0.32,0.17,9.73
2158552721,0.022582,-0.002651,0.004493,-0.14,0.38,9.72
2158553742,0.014060,-0.012238,0.005558,0.04,-0.69,9.84
2158554749,-0.016833,-0.005847,0.002362,0.26,0.33,10.02
2158555747,0.020451,-0.012238,0.002362,-0.11,0.10,9.60
2158556754,0.032170,-0.020760,0.004493,0.04,-0.68,9.92
2158557763,-0.008311,0.000545,0.005558,0.13,0.42,10.18
2158558769,-0.008311,0.005872,0.002362,-0.22,-0.10,9.55
2158559788,0.035365,-0.014369,0.000231,0.03,-0.63,9.90
2158560793,0.016190,-0.002651,0.004493,0.08,0.39,10.19
2158561803,-0.042400,0.021851,0.003427,-0.20,-0.07,9.50
2158562811,-0.026421,0.019720,-0.002964,0.16,-0.70,9.75
2158563838,0.053475,-0.007977,-0.000834,0.07,0.30,10.40
2158564837,0.058802,-0.034609,0.003427,-0.37,-0.15,9.56
2158565839,-0.016833,-0.025022,0.001297,0.20,-0.85,9.60
2158566849,-0.071163,0.034634,0.001297,0.13,0.37,10.34
2158567859,-0.064771,0.065527,0.000231,-0.47,-0.01,9.55
2158568869,-0.012572,0.037830,-0.005095,0.29,-0.78,9.72
2158569884,0.068389,-0.011173,-0.005095,0.23,0.33,10.46
2158570889,0.097152,-0.046327,-0.005095,-0.50,-0.22,9.49
2158571899,0.083303,-0.062306,-0.007226,0.39,-0.78,9.71
2158572909,-0.010442,-0.015434,-0.000834,-0.55,-0.42,9.36
2158573932,-0.033878,0.006937,-0.001899,0.47,-0.79,9.77
2158574937,-0.026421,0.001610,-0.000834,0.21,0.70,10.37
2158575939,-0.057314,0.017590,0.001297,-0.60,-0.57,9.22
2158576949,-0.058379,0.030373,0.003427,0.42,-0.96,9.74
2158577959,-0.037074,0.015459,0.004493,0.19,0.68,10.45
2158578969,-0.051988,0.016524,0.003427,-0.65,-0.76,9.17
2158579984,-0.038139,0.025047,0.004493,0.26,-0.98,9.70
2158580989,-0.009376,0.008002,0.009819,0.17,0.76,10.42
2158581999,-0.017899,-0.005847,0.007688,-0.59,-0.81,9.12
2158583009,-0.000854,-0.009042,0.006623,0.25,-0.97,9.70
2158584034,0.034300,-0.026087,0.011949,0.24,0.74,10.43
2158585037,0.039627,-0.048458,0.010884,-0.47,-0.66,9.19
2158586039,0.050279,-0.056980,0.005558,0.28,-0.87,9.74
2158587049,0.053475,-0.050588,0.005558,0.23,0.71,10.50
2158588059,0.010864,-0.028217,0.004493,-0.48,-0.53,9.25
2158589069,-0.028551,0.008002,0.002362,0.28,-0.83,9.65
2158590084,-0.038139,0.039961,0.004493,0.27,0.68,10.32
2158591089,-0.059445,0.052744,0.006623,-0.44,-0.35,9.19
2158592099,-0.040270,0.028242,0.004493,0.30,-0.86,9.56
2158593122,0.015125,-0.011173,0.002362,0.29,0.69,10.52
2158594121,0.030039,-0.034609,-0.002964,-0.49,-0.30,9.33
2158595135,0.033235,-0.034609,-0.008291,0.24,-1.00,9.43
2158596139,0.026843,-0.017565,-0.004030,0.28,0.73,10.58
2158597149,-0.038139,0.030373,-0.004030,-0.48,-0.42,9.26
2158598159,-0.074359,0.068723,-0.007226,0.22,-1.15,9.29
2158599169,-0.055183,0.048483,-0.006160,0.25,0.73,10.51
2158600184,-0.020029,0.005872,-0.002964,-0.51,-0.65,9.28
2158601189,0.054540,-0.049523,-0.000834,0.01,-1.37,9.32
2158602199,0.100348,-0.098526,0.001297,0.14,0.64,10.41
2158603223,0.056671,-0.078286,-0.004030,-0.54,-0.79,9.25
2158604221,0.010864,-0.006912,-0.008291,-0.09,-1.19,9.53
2158605235,-0.017899,0.033569,-0.005095,0.08,0.35,10.14
2158606239,-0.055183,0.044222,-0.004030,-0.49,-0.96,9.27
2158607249,-0.067967,0.050613,-0.001899,-0.10,-0.62,9.98
2158608259,-0.012572,0.017590,0.004493,-0.08,-0.02,10.09
2158609269,0.038561,-0.034609,0.006623,-0.29,-0.83,9.54
2158610284,0.055606,-0.070829,0.005558,0.10,-0.06,9.80
2158611289,0.049214,-0.061241,-0.000834,0.12,-0.13,9.51
2158612299,0.002342,-0.009042,-0.001899,-0.14,-0.64,9.59
2158613321,-0.045596,0.038895,-0.000834,0.07,0.12,10.19
2158614321,-0.063706,0.060201,0.003427,0.17,-0.04,9.83
2158615335,-0.057314,0.057005,0.004493,-0.07,-0.55,9.74
2158616339,-0.026421,0.034634,0.005558,0.16,0.15,10.21
2158617349,0.011929,-0.013303,0.001297,0.13,-0.09,9.71
2158618359,0.055606,-0.055915,-0.004030,0.07,-0.61,9.61
2158619369,0.073716,-0.068698,-0.001899,0.15,0.24,10.15
2158620384,0.032170,-0.051654,-0.002964,-0.06,-0.14,9.62
2158621389,-0.022160,-0.004781,-0.007226,0.04,-0.91,9.41
2158622399,-0.046661,0.038895,-0.005095,0.05,0.25,10.37
2158623423,-0.071163,0.059136,-0.004030,-0.25,-0.19,9.92
2158624421,-0.063706,0.049548,-0.007226,-0.09,-1.01,9.46
2158625435,-0.014703,0.014394,-0.008291,-0.04,0.17,10.26
2158626439,0.024713,-0.021826,-0.009356,-0.35,-0.40,9.66
2158627449,0.072650,-0.061241,-0.009356,-0.13,-0.94,9.31
2158628459,0.083303,-0.083612,-0.009356,-0.13,0.15,10.32
2158629469,0.027908,-0.053784,-0.014683,-0.45,-0.65,9.73
2158630484,-0.016833,0.002676,-0.017878,-0.10,-0.93,9.25
2158631489,-0.046661,0.038895,-0.013617,-0.07,0.12,10.24
2158632499,-0.082881,0.066593,-0.010421,-0.50,-0.75,9.78
2158633521,-0.069032,0.067658,-0.009356,-0.08,-0.80,9.61
2158634521,-0.025356,0.023981,-0.007226,0.01,0.11,10.36
2158635535,0.014060,-0.025022,-0.008291,-0.38,-0.73,9.65
2158636539,0.070520,-0.064437,-0.010421,0.10,-0.62,9.45
2158637549,0.076911,-0.074024,-0.007226,0.09,0.18,10.27
2158638559,0.012995,-0.034609,-0.009356,-0.35,-0.67,9.67
2158639572,-0.028551,0.016524,-0.010421,0.23,-0.46,9.55
2158640590,-0.051988,0.038895,-0.006160,0.23,0.26,10.37
2158641593,-0.085011,0.055940,-0.004030,-0.28,-0.62,9.80
2158642606,-0.065836,0.049548,-0.001899,0.27,-0.34,9.63
2158643640,-0.022160,0.012263,0.000231,0.18,0.25,10.25
2158644626,0.011929,-0.023956,-0.002964,-0.30,-0.64,9.64
2158645642,0.059867,-0.054849,-0.004030,0.27,-0.28,9.56
2158646658,0.074781,-0.069763,0.000231,0.12,0.22,10.21
2158647657,0.031104,-0.045262,0.000231,-0.42,-0.66,9.65
2158648673,0.004472,-0.009042,-0.002964,0.18,-0.28,9.64
2158649679,-0.023225,0.017590,-0.004030,0.05,0.11,10.25
2158650691,-0.071163,0.052744,-0.006160,-0.44,-0.75,9.60
2158651700,-0.083946,0.080441,-0.006160,0.20,-0.30,9.67
2158652706,-0.063706,0.070854,-0.004030,-0.03,0.01,10.26
2158653730,-0.039204,0.039961,-0.004030,-0.54,-0.86,9.58
2158654734,0.018321,-0.004781,-0.006160,0.11,-0.31,9.64
2158655743,0.058802,-0.042066,-0.005095,-0.08,0.02,10.13
2158656748,0.052410,-0.053784,-0.007226,-0.50,-0.83,9.53
2158657754,0.061997,-0.051654,-0.009356,0.16,-0.31,9.70
2158658763,0.055606,-0.041001,-0.007226,-0.06,-0.03,10.15
2158659769,-0.001919,-0.003716,-0.010421,-0.46,-0.78,9.61
2158660788,-0.037074,0.038895,-0.015748,0.33,-0.17,9.82
2158661793,-0.051988,0.058070,-0.015748,0.05,-0.03,10.11
2158662803,-0.076489,0.066593,-0.015748,-0.44,-0.80,9.55
2158663825,-0.063706,0.059136,-0.011487,0.36,-0.08,9.71
2158664825,-0.025356,0.031438,-0.005095,0.04,0.12,10.05
2158665835,0.006603,0.000545,-0.004030,-0.40,-0.77,9.49
2158666839,0.066259,-0.042066,-0.004030,0.43,-0.02,9.75
2158667849,0.089695,-0.069763,-0.000834,0.06,0.23,10.22
2158668859,0.055606,-0.053784,-0.002964,-0.43,-0.86,9.55
2158669869,0.039627,-0.029283,-0.005095,0.43,-0.05,9.91
2158670884,0.009799,-0.010108,-0.001899,0.03,0.19,10.19
2158671889,-0.045596,0.035699,-0.002964,-0.45,-0.93,9.40
2158672899,-0.061575,0.071919,-0.000834,0.40,-0.07,9.96
2158673921,-0.061575,0.067658,0.005558,-0.03,0.12,10.06
2158674921,-0.027486,0.034634,0.010884,0.34,-0.14,10.08
2158675935,0.022582,-0.005847,0.014080,-0.09,0.08,10.04
2158676939,0.051345,-0.043131,0.011949,-0.50,-0.80,9.17
2158677949,0.079042,-0.062306,0.009819,0.24,-0.06,10.08
2158678959,0.072650,-0.063372,0.010884,-0.17,0.03,9.96
2158679969,0.031104,-0.041001,0.004493,-0.47,-0.84,9.13
2158680984,0.010864,-0.012238,0.000231,0.38,-0.04,10.01
2158681989,-0.013638,0.017590,0.000231,-0.07,0.14,10.03
2158682999,-0.060510,0.051679,-0.002964,-0.46,-0.86,9.21
2158684023,-0.075424,0.078311,-0.006160,0.45,-0.06,9.93
2158685021,-0.055183,0.081507,-0.001899,-0.04,0.23,10.11
2158686035,-0.025356,0.052744,0.001297,-0.44,-0.79,9.24
2158687039,0.028974,0.002676,0.003427,0.54,-0.08,9.91
2158688049,0.063063,-0.033544,0.004493,-0.05,0.24,10.23
2158689059,0.054540,-0.045262,-0.001899,-0.46,-0.85,9.34
2158690069,0.060932,-0.055915,-0.005095,0.60,-0.09,9.96
2158691084,0.041757,-0.047392,-0.002964,-0.08,0.25,10.16
2158692089,-0.005115,-0.000520,-0.005095,-0.49,-0.99,9.20
2158693112,-0.023225,0.045287,-0.006160,0.59,-0.06,10.02
2158694111,-0.044531,0.059136,-0.000834,-0.11,0.30,10.11
2158695119,-0.074359,0.068723,0.003427,-0.48,-1.05,9.07
2158696135,-0.059445,0.057005,0.008754,0.45,-0.18,10.05
2158697139,-0.025356,0.017590,0.011949,-0.17,0.27,10.03
2158698149,0.009799,-0.017565,0.008754,-0.36,-0.91,9.09
2158699159,0.056671,-0.044197,0.008754,0.39,-0.17,10.24
2158700169,0.074781,-0.062306,0.010884,-0.24,0.21,10.00
2158701184,0.065193,-0.062306,0.009819,-0.30,-0.80,9.13
2158702206,0.057736,-0.050588,0.010884,0.42,-0.11,10.24
2158703214,0.026843,-0.028217,0.013015,-0.24,0.20,10.00
2158704211,-0.024290,0.005872,0.009819,-0.33,-0.72,9.23
2158705219,-0.038139,0.042091,0.008754,0.44,-0.10,10.24
2158706235,-0.041335,0.063397,0.011949,-0.17,0.27,10.04
2158707239,-0.059445,0.064462,0.008754,-0.25,-0.61,9.21
2158708249,-0.050922,0.055940,0.006623,0.58,-0.10,10.16
2158709259,-0.037074,0.046352,0.008754,-0.17,0.33,10.07
2158710269,-0.021094,0.025047,0.006623,-0.27,-0.59,9.27
2158711284,0.022582,-0.010108,0.005558,0.68,-0.14,10.12
2158712289,0.046018,-0.031413,0.006623,-0.17,0.40,10.14
2158713312,0.052410,-0.042066,0.003427,-0.30,-0.62,9.28
2158714311,0.084368,-0.067633,0.003427,0.67,-0.20,9.99
2158715319,0.081172,-0.071894,0.003427,-0.25,0.38,10.14
2158716335,0.046018,-0.049523,-0.001899,-0.33,-0.75,9.33
2158717339,0.037496,-0.031413,-0.005095,0.62,-0.32,9.95
2158718349,0.014060,-0.014369,-0.005095,-0.31,0.34,9.98
2158719359,-0.034943,0.032504,-0.007226,-0.35,-0.81,9.11
2158720369,-0.048792,0.061266,-0.006160,0.48,-0.35,9.85
2158721384,-0.059445,0.059136,-0.001899,-0.34,0.28,9.98
2158722389,-0.080750,0.063397,-0.002964,-0.34,-0.77,9.30
2158723414,-0.071163,0.063397,-0.000834,0.35,-0.32,9.99
2158724411,-0.047726,0.044222,0.003427,-0.33,0.21,9.91
2158725419,-0.025356,0.021851,0.005558,-0.21,-0.65,9.38
2158726435,0.003407,0.005872,0.007688,0.42,-0.25,10.04
2158727439,0.027908,-0.017565,0.009819,-0.25,0.24,9.89
2158728449,0.052410,-0.050588,0.010884,-0.05,-0.43,9.47
2158729459,0.072650,-0.067633,0.011949,0.58,-0.20,9.99
2158730469,0.067324,-0.066568,0.007688,-0.21,0.26,9.84
2158731484,0.046018,-0.061241,0.001297,-0.04,-0.34,9.58
2158732489,0.043888,-0.052719,-0.000834,0.68,-0.26,9.97
2158733512,0.025778,-0.036740,-0.000834,-0.19,0.33,9.80
2158734511,-0.022160,-0.006912,-0.007226,-0.05,-0.30,9.62
2158735519,-0.039204,0.022916,-0.008291,0.72,-0.34,10.02
2158736535,-0.042400,0.039961,-0.004030,-0.26,0.39,9.87
2158737539,-0.067967,0.049548,-0.008291,-0.12,-0.29,9.59
2158738549,-0.072228,0.053809,-0.009356,0.67,-0.38,9.93
2158739559,-0.069032,0.058070,-0.005095,-0.37,0.35,9.87
2158740572,-0.060510,0.055940,-0.004030,-0.18,-0.43,9.52
2158741589,-0.021094,0.026112,-0.004030,0.61,-0.44,9.80
2158742592,0.000211,-0.000520,-0.002964,-0.48,0.27,9.76
2158743627,0.022582,-0.020760,-0.001899,-0.30,-0.56,9.44
2158744620,0.064128,-0.054849,0.002362,0.41,-0.49,9.78
2158745628,0.065193,-0.072959,0.003427,-0.57,0.13,9.81
2158746642,0.065193,-0.070829,-0.002964,-0.24,-0.65,9.54
2158747657,0.095021,-0.081481,-0.006160,0.37,-0.55,9.83
2158748656,0.083303,-0.088938,-0.006160,-0.51,0.07,9.79
2158749670,0.053475,-0.070829,-0.011487,-0.12,-0.46,9.57
2158750678,0.051345,-0.049523,-0.010421,0.36,-0.40,9.82
2158751691,0.034300,-0.041001,-0.007226,-0.40,0.07,9.77
2158752697,0.002342,-0.021826,-0.010421,0.02,-0.36,9.68
2158753720,0.002342,-0.000520,-0.008291,0.45,-0.34,9.80
2158754728,-0.004050,0.006937,-0.002964,-0.31,0.11,9.70
2158755729,-0.039204,0.025047,-0.002964,0.15,-0.14,9.82
2158756770,-0.038139,0.041026,-0.004030,0.60,-0.24,9.82
2158757747,-0.036008,0.044222,-0.001899,-0.31,0.14,9.65
2158758754,-0.071163,0.058070,-0.006160,0.21,-0.06,9.85
2158759763,-0.080750,0.074050,-0.010421,0.76,-0.26,9.77
2158760769,-0.070097,0.076180,-0.007226,-0.32,0.18,9.55
2158761788,-0.080750,0.070854,-0.009356,0.10,-0.06,9.86
2158762793,-0.086077,0.066593,-0.010421,0.68,-0.32,9.85
2158763818,-0.076489,0.066593,-0.007226,-0.49,0.16,9.64
2158764813,-0.056249,0.058070,-0.006160,-0.06,-0.27,9.87
2158765823,-0.031747,0.033569,-0.004030,0.57,-0.48,9.79
2158766835,-0.029617,0.025047,-0.001899,-0.60,0.09,9.58
2158767839,-0.016833,0.017590,-0.001899,-0.08,-0.34,9.78
2158768849,0.024713,-0.017565,0.003427,0.49,-0.53,9.71
2158769859,0.031104,-0.033544,0.005558,-0.64,-0.05,9.66
2158770869,0.039627,-0.039936,0.002362,-0.11,-0.47,9.91
2158771884,0.075846,-0.065502,0.003427,0.34,-0.56,9.74
2158772889,0.076911,-0.076155,0.003427,-0.64,-0.03,9.68
2158773912,0.077977,-0.071894,0.002362,-0.10,-0.51,9.83
2158774911,0.104609,-0.079351,0.006623,0.24,-0.50,9.86
2158775919,0.098217,-0.093200,0.008754,-0.49,0.01,9.81
2158776935,0.063063,-0.053784,-0.001899,0.31,-0.32,9.77
2158777939,0.044953,-0.039936,-0.001899,-0.36,0.02,9.72
2158778949,0.017256,-0.022891,-0.004030,0.19,-0.11,10.02
2158779959,0.018321,-0.013303,-0.001899,0.47,-0.16,9.85
2158780969,0.006603,-0.003716,-0.000834,-0.26,0.00,9.68
2158781984,-0.027486,0.017590,-0.002964,0.29,0.08,10.17
2158782989,-0.025356,0.037830,-0.000834,0.53,-0.17,9.87
2158784014,-0.022160,0.045287,0.004493,-0.35,0.05,9.66
2158785011,-0.059445,0.055940,0.002362,0.37,0.18,10.20
2158786019,-0.071163,0.069788,0.001297,0.63,-0.32,9.79
2158787035,-0.060510,0.070854,0.005558,-0.43,0.02,9.54
2158788039,-0.064771,0.062331,0.004493,0.30,0.07,10.14
2158789049,-0.064771,0.054874,0.002362,0.54,-0.40,9.81
2158790059,-0.058379,0.057005,0.003427,-0.65,-0.06,9.43
2158791069,-0.045596,0.050613,0.004493,0.14,-0.15,10.06
2158792084,-0.020029,0.025047,0.006623,0.44,-0.51,9.79
2158793101,-0.020029,0.016524,0.005558,-0.74,-0.17,9.44
2158794101,-0.008311,0.005872,0.002362,0.05,-0.30,10.03
2158795109,0.027908,-0.032479,0.003427,0.29,-0.44,9.76
2158796119,0.031104,-0.047392,0.006623,-0.75,-0.20,9.46
2158797135,0.044953,-0.049523,0.008754,-0.08,-0.56,9.88
2158798139,0.076911,-0.067633,0.011949,0.12,-0.45,9.83
2158799149,0.071585,-0.080416,0.010884,-0.49,-0.13,9.69
2158800159,0.069454,-0.079351,0.009819,-0.07,-0.74,9.81
2158801169,0.085434,-0.085743,0.013015,0.11,-0.11,10.21
2158802184,0.090760,-0.084677,0.008754,-0.13,0.05,9.81
2158803203,0.079042,-0.078286,0.006623,-0.06,-0.63,9.58
2158804201,0.070520,-0.068698,0.006623,0.22,0.24,9.98
2158805209,0.059867,-0.050588,0.005558,0.17,-0.15,9.67
2158806219,0.042822,-0.045262,0.006623,-0.02,-0.36,9.82
2158807265,0.026843,-0.035674,0.002362,0.33,0.24,9.97
2158808239,0.018321,-0.021826,0.003427,0.35,-0.11,9.76
2158809249,0.008733,-0.005847,0.003427,0.09,0.01,9.87
2158810259,-0.005115,-0.001585,0.000231,0.21,-0.06,9.88
2158811269,-0.031747,0.017590,-0.004030,0.43,0.08,10.03
2158812284,-0.041335,0.042091,-0.001899,0.15,0.01,9.80
2158813301,-0.038139,0.042091,0.001297,-0.13,-0.22,9.63
2158814301,-0.061575,0.047418,0.000231,0.42,0.10,10.02
2158815309,-0.066902,0.066593,-0.001899,0.18,-0.26,9.73
2158816319,-0.055183,0.071919,-0.001899,-0.46,-0.22,9.77
2158817335,-0.071163,0.064462,-0.005095,0.25,-0.07,10.10
2158818339,-0.079685,0.064462,-0.007226,0.08,-0.43,9.66
2158819349,-0.070097,0.066593,-0.005095,-0.65,-0.26,9.59
2158820359,-0.064771,0.059136,-0.005095,0.18,-0.17,10.08
2158821369,-0.057314,0.052744,-0.004030,0.11,-0.43,9.77
2158822384,-0.046661,0.047418,-0.001899,-0.71,-0.34,9.44
2158823403,-0.024290,0.027177,-0.001899,0.17,-0.32,9.98
2158824401,-0.007246,0.013329,-0.004030,0.21,-0.40,9.71
2158825409,-0.011507,0.009067,-0.005095,-0.72,-0.31,9.37
2158826419,0.009799,-0.012238,-0.006160,0.25,-0.24,10.07
2158827435,0.038561,-0.039936,-0.004030,0.33,-0.25,9.89
2158828439,0.030039,-0.043131,-0.005095,-0.67,-0.31,9.40
2158829449,0.042822,-0.049523,-0.008291,0.33,-0.24,10.13
2158830459,0.076911,-0.066568,-0.005095,0.42,-0.23,9.94
2158831469,0.061997,-0.065502,-0.004030,-0.61,-0.30,9.36
2158832502,0.052410,-0.063372,-0.010421,0.40,-0.18,10.12
2158833507,0.070520,-0.078286,-0.008291,0.49,-0.03,10.01
2158834499,0.057736,-0.078286,-0.005095,-0.58,-0.24,9.42
2158835509,0.050279,-0.064437,-0.007226,0.38,-0.26,10.15
2158836519,0.074781,-0.070829,-0.002964,0.46,0.05,10.10
2158837535,0.063063,-0.079351,0.002362,-0.49,-0.20,9.42
2158838539,0.038561,-0.061241,0.000231,0.39,-0.28,9.98
2158839549,0.037496,-0.045262,0.003427,0.39,0.10,10.00
2158840559,0.026843,-0.041001,0.003427,-0.53,-0.20,9.38
2158841572,0.008733,-0.018630,-0.002964,0.23,-0.29,9.99
2158842607,0.012995,-0.002651,-0.001899,0.27,0.10,10.16
2158843617,-0.006181,0.006937,0.000231,-0.61,-0.33,9.40
2158844607,-0.040270,0.030373,-0.006160,0.22,-0.30,9.83
2158845619,-0.032813,0.045287,-0.006160,0.30,0.03,10.01
2158846626,-0.043465,0.050613,-0.004030,-0.65,-0.37,9.40
2158847642,-0.077554,0.062331,-0.008291,0.26,-0.26,9.96
2158848658,-0.067967,0.071919,-0.009356,0.37,-0.04,10.04
2158849657,-0.058379,0.076180,-0.009356,-0.65,-0.33,9.33
2158850673,-0.076489,0.077245,-0.012552,0.28,-0.27,9.96
2158851679,-0.070097,0.074050,-0.011487,0.35,-0.20,9.96
2158852713,-0.060510,0.070854,-0.008291,-0.67,-0.28,9.28
2158853723,-0.070097,0.064462,-0.011487,0.33,-0.27,9.99
2158854713,-0.064771,0.059136,-0.011487,0.41,-0.19,10.03
2158855718,-0.057314,0.066593,-0.007226,-0.70,-0.31,9.35
2158856731,-0.046661,0.061266,-0.008291,0.33,-0.34,10.10
2158857743,-0.038139,0.042091,-0.007226,0.46,-0.08,10.06
2158858748,-0.048792,0.048483,-0.005095,-0.72,-0.40,9.19
2158859754,-0.036008,0.042091,-0.001899,0.29,-0.45,9.98
2158860763,-0.012572,0.010133,0.003427,0.39,0.04,10.02
2158861769,-0.021094,0.010133,0.005558,-0.72,-0.37,9.35
2158862862,-0.006181,0.006937,0.005558,0.18,-0.63,10.05
2158863842,0.024713,-0.026087,0.010884,0.33,0.11,10.10
2158864819,0.020451,-0.034609,0.014080,-0.46,-0.28,9.40
2158865811,0.022582,-0.031413,0.017276,0.05,-0.79,9.80
2158866823,0.041757,-0.044197,0.020472,0.19,0.09,10.19
2158867835,0.044953,-0.052719,0.018341,-0.17,-0.19,9.66
2158868839,0.047083,-0.055915,0.018341,-0.03,-0.53,9.80
2158869849,0.069454,-0.061241,0.018341,0.23,0.10,10.10
2158870859,0.086499,-0.064437,0.019406,-0.02,-0.32,9.74
2158871869,0.089695,-0.078286,0.020472,-0.18,-0.23,9.76
2158872901,0.098217,-0.097461,0.015145,0.33,0.13,9.72
2158873907,0.089695,-0.086808,0.009819,0.10,-0.26,9.65
2158874899,0.073716,-0.075090,0.008754,-0.17,-0.07,9.94
2158875909,0.072650,-0.074024,0.009819,0.29,-0.17,9.93
2158876919,0.064128,-0.062306,0.010884,0.07,-0.12,9.86
2158877935,0.049214,-0.049523,0.007688,-0.06,0.02,9.81
2158878939,0.030039,-0.026087,0.001297,0.02,-0.10,9.79
2158879949,0.026843,-0.011173,-0.001899,-0.04,-0.11,9.72
2158880959,0.015125,0.002676,-0.002964,0.00,-0.38,9.79
2158881987,-0.017899,0.028242,-0.006160,0.04,-0.18,9.71
2158883002,-0.033878,0.048483,-0.009356,-0.02,-0.31,9.68
2158883989,-0.036008,0.055940,-0.010421,-0.11,-0.30,9.87
2158884999,-0.053053,0.068723,-0.011487,0.04,-0.33,9.86
2158886009,-0.066902,0.078311,-0.010421,-0.03,-0.38,9.86
2158887019,-0.071163,0.080441,-0.010421,-0.15,-0.21,9.75
2158888035,-0.074359,0.087898,-0.010421,0.07,-0.34,9.70
2158889039,-0.080750,0.093225,-0.010421,-0.04,-0.27,9.80
2158890049,-0.083946,0.093225,-0.008291,-0.19,-0.19,9.70
2158891059,-0.082881,0.083637,-0.006160,0.17,-0.41,9.76
2158892087,-0.067967,0.070854,-0.002964,0.11,-0.10,9.98
2158893101,-0.054118,0.055940,0.000231,-0.18,-0.19,9.69
2158894089,-0.048792,0.044222,0.003427,0.23,-0.43,9.79
2158895099,-0.043465,0.038895,0.004493,0.18,0.06,10.08
2158896109,-0.029617,0.023981,0.003427,-0.22,-0.13,9.51
2158897119,-0.006181,-0.005847,0.003427,0.30,-0.41,9.69
2158898135,0.004472,-0.013303,0.004493,0.19,0.10,10.16
2158899139,0.006603,-0.013303,0.005558,-0.33,-0.11,9.47
2158900161,0.027908,-0.038870,0.004493,0.37,-0.48,9.69
2158901159,0.039627,-0.043131,0.004493,0.21,0.16,10.23
2158902187,0.031104,-0.036740,0.001297,-0.43,-0.13,9.35
2158903202,0.047083,-0.058045,0.000231,0.34,-0.60,9.71
2158904189,0.063063,-0.064437,0.002362,0.17,0.18,10.43
2158905199,0.050279,-0.053784,-0.000834,-0.55,-0.11,9.38
2158906209,0.059867,-0.066568,-0.006160,0.29,-0.71,9.61
2158907219,0.069454,-0.072959,-0.007226,0.20,0.09,10.34
2158908235,0.042822,-0.053784,-0.006160,-0.68,-0.26,9.37
2158909239,0.049214,-0.056980,-0.006160,0.22,-0.75,9.64
2158910280,0.064128,-0.067633,-0.004030,0.22,0.11,10.30
2158911259,0.036431,-0.052719,-0.005095,-0.69,-0.42,9.24
2158912287,0.038561,-0.048458,-0.007226,0.21,-0.83,9.70
2158913301,0.068389,-0.063372,-0.005095,0.22,0.15,10.33
2158914289,0.053475,-0.050588,-0.002964,-0.69,-0.46,9.25
2158915299,0.049214,-0.044197,-0.004030,0.16,-0.85,9.78
2158916309,0.060932,-0.059111,-0.001899,0.28,0.37,10.44
2158917319,0.028974,-0.043131,-0.001899,-0.55,-0.40,9.28
2158918335,0.022582,-0.027152,-0.001899,0.22,-0.89,9.64
2158919339,0.040692,-0.034609,0.001297,0.36,0.48,10.39
2158920349,0.021517,-0.021826,0.000231,-0.47,-0.32,9.32
2158921359,0.017256,-0.015434,0.000231,0.26,-0.76,9.74
2158922387,0.023647,-0.019695,0.005558,0.38,0.50,10.40
2158923402,0.006603,-0.012238,0.006623,-0.39,-0.22,9.41
2158924389,-0.001919,-0.005847,0.006623,0.27,-0.71,9.82
2158925399,-0.006181,0.003741,0.007688,0.34,0.37,10.39
2158926409,-0.021094,0.016524,0.006623,-0.39,-0.22,9.39
2158927419,-0.027486,0.019720,0.004493,0.27,-0.63,9.71
2158928435,-0.030682,0.029308,0.005558,0.38,0.43,10.35
2158929439,-0.042400,0.042091,0.006623,-0.39,-0.13,9.37
2158930449,-0.057314,0.044222,0.005558,0.22,-0.63,9.74
2158931459,-0.058379,0.050613,0.006623,0.25,0.24,10.43
2158932487,-0.055183,0.057005,0.005558,-0.51,-0.16,9.38
2158933501,-0.072228,0.060201,0.000231,0.19,-0.70,9.65
2158934489,-0.076489,0.067658,-0.000834,0.17,0.07,10.38
2158935499,-0.067967,0.071919,-0.000834,-0.59,-0.15,9.36
2158936509,-0.078620,0.074050,-0.005095,0.22,-0.74,9.59
2158937519,-0.071163,0.075115,-0.004030,0.21,0.05,10.31
2158938535,-0.053053,0.063397,0.000231,-0.68,-0.18,9.30
2158939539,-0.058379,0.061266,-0.005095,0.17,-0.73,9.65
2158940549,-0.030682,0.051679,-0.002964,0.23,0.03,10.40
2158941559,-0.006181,0.029308,-0.000834,-0.66,-0.29,9.37
2158942593,-0.004050,0.018655,-0.004030,0.21,-0.79,9.79
2158943613,0.020451,-0.001585,-0.002964,0.29,0.09,10.50
2158944594,0.024713,-0.017565,0.000231,-0.66,-0.30,9.38
2158945604,0.034300,-0.022891,-0.001899,0.21,-0.73,9.81
2158946625,0.066259,-0.044197,-0.002964,0.35,0.23,10.46
2158947624,0.058802,-0.056980,0.000231,-0.58,-0.31,9.30
2158948644,0.059867,-0.061241,0.003427,0.26,-0.68,9.76
2158949653,0.086499,-0.074024,0.007688,0.39,0.32,10.41
2158950657,0.069454,-0.067633,0.008754,-0.53,-0.32,9.31
2158951669,0.061997,-0.062306,0.008754,0.28,-0.67,9.81
2158952698,0.080107,-0.071894,0.013015,0.35,0.36,10.35
2158953713,0.047083,-0.059111,0.014080,-0.55,-0.35,9.21
2158954702,0.031104,-0.042066,0.011949,0.27,-0.69,9.75
2158955705,0.039627,-0.037805,0.013015,0.34,0.37,10.39
2158956718,0.011929,-0.019695,0.013015,-0.53,-0.36,9.27
2158957726,-0.000854,-0.005847,0.009819,0.26,-0.73,9.77
2158958744,-0.000854,0.002676,0.008754,0.33,0.35,10.46
2158959743,-0.016833,0.010133,0.009819,-0.50,-0.24,9.42
2158960754,-0.036008,0.011198,0.008754,0.22,-0.57,9.80
2158961763,-0.048792,0.026112,0.007688,0.19,0.25,10.33
2158962787,-0.061575,0.050613,0.003427,-0.63,-0.28,9.30
2158963807,-0.072228,0.057005,-0.005095,0.23,-0.59,9.78
2158964793,-0.072228,0.057005,-0.008291,0.28,0.23,10.43
2158965803,-0.078620,0.064462,-0.009356,-0.67,-0.25,9.39
2158966811,-0.096729,0.075115,-0.013617,0.17,-0.68,9.74
2158967823,-0.085011,0.080441,-0.014683,0.28,0.06,10.27
2158968835,-0.067967,0.070854,-0.011487,-0.62,-0.24,9.34
2158969839,-0.066902,0.061266,-0.013617,0.29,-0.59,9.83
2158970849,-0.038139,0.048483,-0.012552,0.29,0.02,10.33
2158971859,-0.016833,0.023981,-0.009356,-0.71,-0.34,9.29
2158972887,-0.011507,0.011198,-0.013617,0.26,-0.67,9.73
2158973901,0.025778,-0.007977,-0.013617,0.36,0.09,10.24
2158974889,0.046018,-0.022891,-0.011487,-0.63,-0.29,9.30
2158975899,0.056671,-0.029283,-0.012552,0.25,-0.63,9.88
2158976909,0.075846,-0.047392,-0.005095,0.32,0.11,10.35
2158977919,0.052410,-0.049523,0.002362,-0.65,-0.38,9.35
2158978935,0.011929,-0.032479,0.002362,0.25,-0.60,9.87
2158979939,-0.018964,-0.011173,0.004493,0.34,0.12,10.18
2158980949,-0.082881,0.064462,-0.000834,0.25,-0.57,9.95
2158981977,-0.061575,0.067658,-0.000834,0.33,0.20,10.40
2158982968,-0.028551,0.041026,0.002362,-0.60,-0.35,9.40
2158984001,0.014060,0.008002,0.002362,0.28,-0.46,9.88
2158984989,0.061997,-0.028217,0.006623,0.31,0.12,10.26
2158985999,0.073716,-0.056980,0.008754,-0.60,-0.32,9.31
2158987009,0.069454,-0.071894,0.008754,0.28,-0.42,9.85
2158988019,0.060932,-0.062306,0.011949,0.32,0.06,10.27
2158989035,0.022582,-0.034609,0.014080,-0.61,-0.18,9.37
2158990039,-0.020029,-0.011173,0.007688,0.26,-0.38,9.83
2158991049,-0.030682,0.019720,0.003427,0.34,-0.05,10.21
2158992059,-0.044531,0.048483,0.002362,-0.64,-0.16,9.38
2158993084,-0.071163,0.063397,-0.001899,0.25,-0.34,9.94
2158994085,-0.072228,0.070854,-0.001899,0.36,-0.20,10.21
2158995089,-0.059445,0.064462,0.001297,-0.65,-0.19,9.35
2158996099,-0.050922,0.050613,-0.002964,0.24,-0.32,9.96
2158997109,-0.020029,0.032504,-0.002964,0.34,-0.28,10.13
2158998119,0.009799,0.006937,0.000231,-0.72,-0.27,9.26
