time_us,gyro_x_rad_s,gyro_y_rad_s,gyro_z_rad_s,acc_x_m_s2,acc_y_m_s2,acc_z_m_s2
53744591,0.000459,0.000319,-0.005815,0.00,-0.24,9.78
53745298,-0.000607,-0.000746,-0.003684,0.01,-0.26,9.83
53746304,-0.001672,0.000319,0.000577,0.00,-0.28,9.85
53747314,-0.000607,0.000319,0.001642,0.01,-0.27,9.83
53748331,-0.000607,0.000319,-0.000488,0.01,-0.28,9.83
53749334,0.000459,-0.000746,-0.002619,0.00,-0.30,9.86
53750344,0.002589,-0.000746,-0.003684,-0.01,-0.26,9.82
53751354,0.003654,0.000319,-0.004749,0.00,-0.24,9.82
53752364,0.000459,0.001384,-0.003684,0.02,-0.24,9.83
53753391,-0.001672,0.003515,-0.000488,-0.01,-0.24,9.82
53754390,-0.000607,0.003515,0.001642,0.00,-0.25,9.81
53755396,0.000459,0.001384,0.001642,0.04,-0.24,9.77
53756406,0.000459,0.001384,-0.000488,0.00,-0.24,9.78
53757416,0.000459,0.002450,-0.001553,-0.01,-0.23,9.85
53758435,-0.001672,0.004580,-0.001553,0.01,-0.23,9.83
53759436,-0.002737,0.003515,-0.000488,-0.06,-0.24,9.77
53760446,-0.000607,0.001384,-0.000488,-0.06,-0.23,9.76
53761456,0.001524,0.000319,-0.000488,0.01,-0.23,9.73
53762481,0.003654,0.000319,-0.000488,0.01,-0.23,9.76
53763484,0.001524,-0.000746,-0.001553,0.01,-0.24,9.83
53764484,-0.000607,0.000319,-0.001553,0.00,-0.23,9.86
53765494,-0.000607,0.002450,-0.000488,-0.03,-0.22,9.82
53766504,-0.001672,0.002450,0.000577,-0.02,-0.23,9.78
53767514,-0.001672,0.001384,0.001642,-0.01,-0.23,9.78
53768528,-0.000607,0.001384,0.002708,-0.01,-0.23,9.79
53769534,0.001524,0.000319,0.000577,0.01,-0.23,9.81
53770544,0.001524,0.000319,-0.000488,0.00,-0.25,9.85
53771554,-0.000607,-0.000746,-0.001553,-0.03,-0.25,9.85
53772581,-0.001672,-0.000746,0.000577,-0.02,-0.24,9.82
53773587,-0.001672,0.001384,0.002708,0.02,-0.23,9.81
53774586,-0.000607,0.001384,0.002708,0.00,-0.22,9.82
53775596,0.001524,-0.000746,-0.000488,0.00,-0.21,9.81
53776606,0.000459,-0.000746,-0.001553,0.03,-0.23,9.78
53777616,-0.001672,-0.000746,-0.001553,0.02,-0.25,9.77
53778634,-0.001672,-0.000746,-0.001553,0.01,-0.25,9.79
53779636,-0.000607,0.000319,0.000577,0.01,-0.23,9.82
53780646,0.001524,-0.001811,0.000577,-0.01,-0.22,9.83
53781656,0.001524,-0.002877,-0.000488,-0.02,-0.23,9.79
53782684,0.000459,-0.001811,-0.001553,0.02,-0.24,9.79
53783729,-0.001672,0.000319,0.000577,0.03,-0.26,9.82
53784711,-0.001672,0.001384,0.003773,0.01,-0.27,9.84
53785721,0.001524,0.003515,0.003773,0.01,-0.25,9.83
53786711,0.004720,0.001384,0.001642,0.02,-0.25,9.78
53787720,0.003654,-0.001811,0.001642,0.01,-0.25,9.77
53788738,0.000459,-0.001811,0.001642,0.00,-0.25,9.80
53789745,-0.001672,-0.000746,-0.000488,0.02,-0.24,9.85
53790752,-0.000607,-0.000746,-0.000488,0.03,-0.24,9.85
53791782,0.000459,-0.001811,-0.000488,-0.03,-0.25,9.85
53792821,0.001524,-0.000746,-0.000488,-0.04,-0.25,9.87
53793798,0.000459,0.001384,-0.000488,0.02,-0.24,9.80
53794802,0.000459,0.000319,0.001642,0.02,-0.26,9.74
53795837,0.002613,0.000324,0.002727,0.01,-0.23,9.80
53796819,0.003678,0.000324,-0.000468,0.01,-0.20,9.86
53797824,0.001548,-0.000742,-0.002599,0.02,-0.19,9.84
53798836,-0.001648,0.000324,-0.002599,-0.02,-0.22,9.81
53799855,-0.000583,0.000324,-0.001534,-0.04,-0.26,9.78
53800852,0.000483,-0.000742,-0.000468,-0.02,-0.26,9.76
53801861,0.000483,0.000324,-0.000468,-0.02,-0.26,9.79
53802885,-0.001648,0.000324,-0.001534,-0.04,-0.24,9.80
53803882,-0.001648,0.000324,-0.002599,-0.05,-0.23,9.75
53804896,-0.001648,-0.000742,-0.001534,-0.02,-0.25,9.77
53805897,-0.002713,-0.001807,0.001662,-0.01,-0.27,9.83
53806929,-0.002713,-0.000742,0.002727,0.00,-0.26,9.82
53807917,-0.000583,0.001389,0.000597,0.00,-0.24,9.79
53808926,0.001548,0.002454,-0.001534,-0.01,-0.24,9.82
53809938,-0.001648,0.001389,-0.002599,-0.01,-0.23,9.78
53810944,-0.002713,0.000324,-0.001534,-0.04,-0.23,9.75
53811954,-0.002713,0.000324,-0.001534,-0.02,-0.23,9.80
53812980,-0.001648,0.000324,-0.000468,-0.01,-0.22,9.81
53813980,-0.000583,-0.001807,-0.000468,-0.02,-0.23,9.79
53814994,-0.000583,-0.005003,0.000597,0.00,-0.26,9.79
53815996,0.000483,-0.007133,0.001662,0.00,-0.26,9.75
53817006,0.000483,-0.005003,0.000597,0.02,-0.25,9.78
53818016,0.001548,-0.001807,0.000597,0.03,-0.27,9.82
53819026,0.001548,0.000324,0.001662,0.00,-0.24,9.82
53820043,0.000483,0.001389,0.000597,-0.01,-0.23,9.80
53821046,0.002613,0.000324,-0.000468,0.01,-0.27,9.84
53822056,0.003678,-0.001807,0.000597,0.00,-0.26,9.86
53823081,0.001548,-0.002872,0.000597,-0.02,-0.24,9.82
53824077,-0.001648,-0.002872,0.000597,-0.01,-0.24,9.84
53825091,-0.000583,-0.001807,0.001662,-0.01,-0.23,9.86
53826094,0.000483,-0.000742,0.002727,-0.03,-0.24,9.83
53827104,0.001548,0.002454,0.002727,0.01,-0.23,9.83
53828114,0.000483,0.001389,0.000597,0.01,-0.26,9.82
53829124,0.000483,0.000324,0.000597,-0.02,-0.27,9.81
53830138,0.001548,0.001389,0.000597,-0.01,-0.24,9.82
53831144,0.002613,0.000324,0.000597,0.00,-0.22,9.78
53832154,0.001548,0.001389,0.000597,-0.02,-0.23,9.78
53833181,0.001548,0.001389,0.001662,-0.01,-0.27,9.82
53834180,0.000483,0.000324,0.003793,0.00,-0.29,9.81
53835193,-0.000583,0.000324,0.003793,0.00,-0.30,9.79
53836196,-0.000583,0.001389,0.002727,0.03,-0.29,9.79
53837206,0.000483,0.001389,-0.000468,0.04,-0.25,9.82
53838216,0.001548,0.001389,-0.000468,0.01,-0.21,9.84
53839226,0.001548,-0.000742,0.002727,0.01,-0.22,9.85
53840244,0.001548,0.002454,0.001662,0.02,-0.20,9.77
53841246,0.001548,0.002454,-0.001534,0.05,-0.22,9.82
53842256,0.000483,0.000324,-0.002599,0.02,-0.24,9.86
53843280,0.001548,-0.001807,-0.000468,0.01,-0.22,9.84
53844277,0.000483,-0.000742,0.001662,0.00,-0.22,9.83
53845292,-0.001648,0.002454,0.001662,-0.01,-0.23,9.82
53846294,-0.002713,0.001389,-0.000468,0.00,-0.23,9.77
53847304,-0.000583,-0.001807,-0.001534,-0.02,-0.23,9.79
53848314,0.002613,-0.001807,-0.000468,-0.04,-0.24,9.82
53849324,0.002613,-0.000742,0.001662,-0.03,-0.25,9.82
53850338,0.000483,0.002454,0.001662,0.01,-0.24,9.84
53851344,-0.001648,0.001389,0.000597,0.02,-0.23,9.86
53852354,-0.002713,-0.002872,-0.001534,0.01,-0.24,9.84
53853380,-0.000583,-0.003937,-0.002599,0.02,-0.23,9.78
53854380,0.000483,-0.002872,-0.000468,0.03,-0.22,9.78
53855394,-0.000583,-0.001807,0.001662,0.01,-0.24,9.77
53856396,0.000483,-0.001807,0.000597,0.02,-0.27,9.78
53857406,0.001548,-0.002872,-0.001534,0.03,-0.26,9.81
53858416,0.001548,-0.001807,-0.000468,0.00,-0.26,9.81
53859426,-0.001648,-0.002872,-0.000468,-0.02,-0.25,9.81
53860443,-0.002713,-0.001807,-0.001534,-0.01,-0.22,9.81
53861446,-0.001648,-0.001807,-0.002599,-0.02,-0.22,9.81
53862471,-0.001648,-0.001807,-0.003664,-0.03,-0.23,9.82
53863467,-0.000583,-0.001807,-0.000468,-0.02,-0.24,9.86
53864474,0.000483,0.000324,0.001662,0.00,-0.27,9.83
53865491,-0.000583,0.002454,0.000597,0.02,-0.27,9.83
53866494,-0.000583,0.001389,-0.000468,0.02,-0.27,9.85
53867504,-0.000583,0.000324,-0.000468,-0.01,-0.27,9.77
53868514,-0.000583,-0.000742,0.000597,-0.02,-0.24,9.72
53869524,-0.000583,-0.000742,0.001662,0.00,-0.22,9.78
53870538,0.000483,-0.000742,0.001662,0.02,-0.26,9.81
53871544,0.000483,-0.000742,0.002727,0.03,-0.27,9.79
53872571,0.002613,0.000324,0.000597,0.02,-0.27,9.83
53873570,0.002613,0.000324,-0.000468,0.04,-0.24,9.78
53874576,-0.000583,-0.000742,0.000597,0.03,-0.24,9.77
53875593,-0.003779,0.000324,0.001662,0.00,-0.24,9.84
53876596,-0.001648,0.002454,0.000597,0.01,-0.23,9.83
53877606,-0.000583,0.001389,-0.001534,-0.01,-0.25,9.80
53878616,-0.000583,0.001389,-0.002599,-0.01,-0.25,9.83
53879626,-0.001648,0.000324,-0.001534,0.01,-0.24,9.86
53880644,0.000483,0.000324,-0.000468,0.02,-0.23,9.82
53881646,0.001548,0.001389,-0.000468,0.01,-0.22,9.82
53882672,0.000483,0.000324,-0.001534,-0.02,-0.22,9.81
53883667,-0.000583,-0.002872,-0.002599,-0.04,-0.23,9.78
53884679,-0.000583,-0.003937,-0.001534,0.00,-0.23,9.79
53885703,0.000483,-0.001807,-0.000468,0.03,-0.21,9.82
53886701,-0.000583,0.000324,0.000597,0.03,-0.21,9.80
53887722,-0.000583,0.000324,0.001662,0.01,-0.23,9.81
53888719,-0.001648,0.000324,0.001662,-0.04,-0.22,9.85
53889734,-0.001648,-0.000742,0.002727,-0.04,-0.21,9.82
53890748,0.000483,0.000324,0.003793,0.01,-0.22,9.78
53891753,0.000483,0.002454,0.003793,-0.02,-0.23,9.78
53892780,0.000483,0.001389,0.002727,-0.05,-0.25,9.79
53893783,0.000483,-0.000742,-0.000468,-0.02,-0.27,9.77
53894796,0.000483,-0.000742,-0.001534,0.01,-0.26,9.80
53895806,0.001548,-0.000742,-0.000468,-0.01,-0.25,9.82
53896805,0.002613,-0.000742,0.001662,-0.02,-0.23,9.80
53897819,0.002613,-0.000742,0.001662,-0.02,-0.22,9.81
53898825,0.000483,-0.000742,0.001662,0.00,-0.26,9.82
53899834,-0.000583,-0.001807,0.001662,0.01,-0.25,9.83
53900857,-0.001648,-0.001807,0.000597,-0.01,-0.22,9.83
53901853,-0.002713,-0.001807,-0.001534,-0.02,-0.22,9.78
53902877,-0.003779,-0.002872,-0.001534,-0.03,-0.23,9.79
53903871,-0.003779,-0.000742,0.000597,-0.05,-0.26,9.81
53904878,-0.002713,0.001389,0.001662,-0.04,-0.27,9.77
53905895,-0.001648,0.001389,-0.002599,-0.01,-0.23,9.76
53906897,-0.001648,0.000324,-0.003664,-0.02,-0.21,9.77
53907908,0.000483,0.002454,-0.002599,-0.03,-0.21,9.81
53908917,0.001548,0.003520,-0.001534,-0.01,-0.23,9.85
53909926,0.002613,0.002454,0.000597,-0.01,-0.25,9.85
53910938,0.001548,0.000324,-0.001534,0.00,-0.24,9.82
53911944,0.000483,-0.001807,-0.004730,-0.01,-0.23,9.81
53912971,0.000483,-0.001807,-0.002599,-0.03,-0.22,9.83
53913970,-0.000583,-0.000742,-0.000468,-0.02,-0.22,9.82
53914976,-0.000583,0.000324,-0.001534,-0.01,-0.24,9.83
53915993,-0.000583,-0.000742,-0.001534,-0.02,-0.24,9.85
53916996,-0.000583,-0.001807,-0.001534,-0.02,-0.24,9.82
53918006,-0.000583,0.000324,-0.001534,-0.02,-0.23,9.82
53919016,-0.001648,0.000324,-0.000468,0.02,-0.26,9.82
53920026,-0.000583,0.000324,0.001662,0.02,-0.27,9.82
53921044,-0.000583,-0.000742,0.002727,-0.02,-0.23,9.80
53922046,0.000483,-0.001807,0.001662,0.01,-0.23,9.81
53923070,-0.000583,-0.001807,-0.000468,0.02,-0.26,9.85
53924067,-0.001648,-0.000742,-0.002599,0.01,-0.28,9.85
53925103,-0.002699,-0.000701,-0.001531,0.02,-0.27,9.82
53926092,-0.002699,-0.000701,0.000599,0.01,-0.26,9.82
53927094,-0.001634,0.000364,0.002730,0.01,-0.26,9.87
53928104,-0.000569,-0.000701,0.000599,0.00,-0.27,9.87
53929114,0.001562,-0.000701,-0.000466,0.00,-0.28,9.81
53930124,0.003692,0.000364,-0.000466,-0.04,-0.24,9.79
53931138,0.004758,0.000364,-0.001531,-0.04,-0.21,9.78
53932144,0.003692,-0.001767,-0.002597,0.02,-0.21,9.77
53933170,-0.000569,-0.001767,-0.001531,0.00,-0.23,9.79
53934170,-0.001634,-0.000701,-0.000466,-0.03,-0.24,9.82
53935176,-0.001634,-0.000701,-0.000466,0.01,-0.27,9.80
53936194,-0.000569,-0.001767,-0.001531,0.01,-0.30,9.77
53937196,0.000497,-0.001767,-0.001531,-0.01,-0.26,9.80
53938206,-0.000569,-0.000701,-0.000466,0.03,-0.22,9.84
53939216,-0.000569,-0.000701,0.000599,0.05,-0.22,9.86
53940226,0.000497,0.000364,0.001664,0.03,-0.25,9.84
53941243,0.000497,-0.001767,-0.000466,-0.02,-0.29,9.84
53942246,0.000497,-0.003897,0.000599,-0.03,-0.23,9.78
53943271,-0.000569,-0.002832,0.000599,0.00,-0.21,9.77
53944267,-0.001634,-0.001767,-0.000466,0.02,-0.25,9.83
53945274,-0.001634,0.000364,-0.000466,0.02,-0.29,9.78
53946291,-0.001634,-0.000701,0.003795,0.02,-0.27,9.73
53947294,-0.001634,-0.000701,0.005926,0.02,-0.24,9.75
53948304,-0.002699,0.002494,0.003795,0.02,-0.27,9.80
53949314,-0.003765,0.003560,0.001664,-0.01,-0.25,9.83
53950324,-0.000569,0.001429,0.002730,-0.01,-0.23,9.81
53951338,0.000497,-0.001767,0.001664,-0.01,-0.23,9.82
53952344,0.000497,-0.002832,-0.000466,-0.01,-0.24,9.82
53953371,0.000497,-0.001767,-0.000466,0.02,-0.24,9.80
53954370,0.001562,0.000364,-0.000466,0.02,-0.25,9.84
53955376,0.003692,0.001429,0.000599,0.01,-0.23,9.82
53956393,0.002627,-0.000701,0.001664,0.01,-0.23,9.78
53957396,0.000497,-0.002832,0.001664,0.02,-0.25,9.80
53958406,-0.000569,-0.001767,0.001664,0.01,-0.24,9.77
53959416,-0.000569,0.000364,0.000599,0.01,-0.24,9.77
53960426,-0.000569,0.001429,0.001664,0.00,-0.24,9.82
53961444,-0.000569,0.001429,0.001664,0.01,-0.24,9.81
53962460,-0.001634,0.001429,0.000599,0.02,-0.24,9.82
53963457,-0.003765,0.001429,-0.000466,0.01,-0.24,9.83
53964464,-0.001634,-0.000701,0.001664,0.00,-0.26,9.78
53965474,0.000497,-0.001767,0.001664,-0.01,-0.25,9.78
53966492,0.001562,-0.000701,0.000599,0.01,-0.24,9.83
53967494,0.000497,0.000364,-0.000466,-0.01,-0.24,9.82
53968504,-0.001634,0.000364,-0.000466,-0.02,-0.24,9.82
53969514,-0.001634,0.000364,-0.001531,0.02,-0.25,9.83
53970524,-0.001634,0.000364,-0.001531,0.03,-0.24,9.83
53971538,-0.001634,0.000364,-0.003662,-0.01,-0.24,9.84
53972560,-0.000569,-0.000701,-0.003662,-0.03,-0.23,9.85
53973560,-0.000569,-0.000701,-0.001531,0.01,-0.25,9.78
53974566,-0.000569,0.001429,0.001664,0.02,-0.27,9.77
53975576,0.000497,0.001429,0.002730,-0.02,-0.29,9.83
53976594,0.000497,0.000364,-0.001531,-0.03,-0.28,9.83
53977596,-0.001634,0.000364,-0.003662,0.00,-0.24,9.80
53978606,-0.001634,-0.002832,-0.003662,0.04,-0.26,9.79
53979616,-0.001634,-0.004962,-0.001531,0.03,-0.23,9.80
53980626,-0.000569,-0.000701,0.001664,0.00,-0.21,9.80
53981643,0.002627,0.002494,0.001664,0.01,-0.25,9.79
53982661,0.004758,0.002494,0.002730,0.00,-0.25,9.78
53983657,0.001562,0.001429,0.001664,0.01,-0.26,9.74
53984664,0.000497,0.001429,0.000599,0.00,-0.25,9.77
53985679,0.001562,0.000364,0.000599,-0.04,-0.22,9.83
53986695,0.001562,0.000364,0.000599,-0.01,-0.24,9.79
53987700,0.000497,-0.001767,0.000599,-0.01,-0.24,9.79
53988710,-0.000569,-0.004962,-0.000466,-0.02,-0.23,9.85
53989722,-0.000569,-0.006028,-0.001531,-0.01,-0.24,9.87
53990742,-0.000569,-0.003897,-0.000466,0.00,-0.25,9.88
53991747,0.000497,-0.000701,-0.000466,-0.03,-0.24,9.88
53992773,0.000497,0.001429,0.000599,-0.03,-0.22,9.83
53993772,-0.000569,0.000364,0.000599,0.01,-0.22,9.81
53994775,-0.001634,-0.000701,0.000599,0.01,-0.23,9.80
53995790,-0.002699,-0.001767,0.000599,-0.04,-0.24,9.83
53996820,-0.002699,-0.000701,-0.000466,-0.01,-0.24,9.82
53997804,-0.002699,-0.000701,-0.001531,0.02,-0.24,9.80
53998817,-0.001634,0.000364,-0.001531,-0.02,-0.27,9.81
53999824,0.000497,0.001429,-0.000466,-0.02,-0.27,9.80
54000836,0.001562,0.001429,-0.000466,-0.02,-0.26,9.82
54001855,0.001562,0.002494,-0.000466,-0.03,-0.26,9.86
54002867,0.001562,0.002494,-0.001531,0.00,-0.25,9.86
54003862,0.000497,-0.000701,-0.000466,0.04,-0.24,9.81
54004867,-0.000569,-0.001767,-0.000466,0.03,-0.24,9.80
54005878,-0.001634,-0.000701,-0.000466,-0.01,-0.23,9.78
54006896,-0.000569,0.001429,0.002730,-0.02,-0.20,9.75
54007897,-0.001634,0.000364,0.003795,-0.01,-0.24,9.82
54008908,-0.001634,-0.000701,0.002730,-0.01,-0.27,9.85
54009917,-0.002699,0.001429,0.000599,0.01,-0.26,9.83
54010926,-0.002699,0.004625,0.000599,0.00,-0.25,9.81
54011938,-0.000569,0.003560,-0.000466,-0.03,-0.23,9.80
54012960,0.000497,-0.000701,0.000599,-0.02,-0.22,9.80
54013960,0.000497,-0.002832,0.002730,-0.02,-0.23,9.80
54014966,0.002627,0.000364,0.002730,-0.03,-0.24,9.79
54015976,0.001562,0.000364,0.000599,-0.03,-0.26,9.80
54016994,0.001562,-0.001767,-0.001531,-0.04,-0.28,9.82
54017996,0.001562,-0.000701,-0.003662,-0.04,-0.27,9.79
54019006,0.002627,-0.002832,-0.004727,0.02,-0.25,9.76
54020016,0.002627,-0.002832,-0.003662,-0.01,-0.25,9.79
54021026,0.001562,0.000364,-0.000466,-0.05,-0.27,9.83
54022043,0.001562,0.003560,0.000599,0.00,-0.27,9.87
54023061,-0.000569,0.003560,0.000599,0.03,-0.24,9.84
54024057,-0.002699,0.002494,-0.000466,0.00,-0.24,9.81
54025064,-0.001634,0.001429,-0.001531,0.00,-0.21,9.82
54026074,0.000497,0.000364,-0.001531,0.01,-0.21,9.82
54027091,0.001562,-0.001767,-0.001531,0.00,-0.23,9.86
54028094,0.000497,-0.003897,-0.000466,-0.02,-0.23,9.84
54029104,0.000497,-0.002832,-0.000466,-0.01,-0.27,9.78
54030114,-0.000569,-0.002832,0.000599,0.03,-0.29,9.80
54031124,-0.000569,-0.001767,0.000599,0.04,-0.26,9.82
54032138,-0.000569,-0.001767,-0.000466,0.03,-0.25,9.77
54033161,0.001562,-0.001767,-0.001531,0.01,-0.25,9.78
54034160,-0.000569,-0.000701,0.001664,-0.02,-0.23,9.85
54035166,-0.001634,0.000364,0.003795,-0.01,-0.25,9.83
54036176,-0.000569,0.001429,0.001664,0.02,-0.28,9.81
54037193,0.000497,0.001429,-0.000466,0.00,-0.29,9.82
54038196,0.000497,0.001429,-0.000466,-0.02,-0.27,9.82
54039206,0.000497,0.000364,-0.000466,-0.02,-0.25,9.83
54040216,-0.000569,-0.000701,-0.001531,-0.01,-0.26,9.86
54041226,-0.000569,-0.001767,-0.002597,0.00,-0.26,9.84
54042244,-0.001634,-0.003897,-0.001531,-0.01,-0.23,9.82
54043260,0.000497,-0.001767,-0.000466,0.00,-0.26,9.81
54044257,0.001562,-0.000701,0.000599,-0.02,-0.27,9.85
54045264,-0.000569,0.000364,0.002730,0.00,-0.23,9.85
54046290,-0.002699,0.001429,0.002730,0.02,-0.22,9.84
54047293,-0.001634,0.001429,0.001664,0.02,-0.25,9.81
54048294,-0.000569,0.001429,0.000599,0.03,-0.23,9.80
54049304,-0.000569,0.000364,0.001664,0.02,-0.21,9.82
54050314,-0.000569,-0.001767,0.000599,-0.01,-0.21,9.82
54051324,-0.000569,-0.001767,0.000599,-0.04,-0.24,9.78
54052338,-0.000569,0.000364,0.000599,-0.02,-0.24,9.78
54053360,-0.000569,0.000364,0.000599,0.00,-0.23,9.81
54054390,0.000515,-0.000664,0.000581,-0.01,-0.24,9.78
54055364,0.000515,0.000401,0.000581,0.01,-0.25,9.78
54056391,-0.000550,0.003597,-0.000484,0.01,-0.24,9.82
54057394,-0.000550,0.002532,-0.000484,0.01,-0.25,9.83
54058395,-0.000550,-0.000664,-0.000484,0.00,-0.27,9.82
54059405,0.000515,-0.000664,0.000581,-0.03,-0.25,9.82
54060415,0.000515,-0.001729,0.001646,-0.01,-0.22,9.82
54061425,-0.000550,-0.000664,0.001646,0.02,-0.21,9.82
54062455,0.000515,0.000401,0.000581,0.02,-0.25,9.81
54063446,0.000515,0.000401,-0.000484,0.00,-0.26,9.79
54064453,-0.000550,0.001467,-0.001549,0.00,-0.25,9.80
54065463,-0.001616,-0.000664,0.000581,-0.01,-0.24,9.84
54066490,-0.000550,-0.000664,0.002712,0.00,-0.25,9.87
54067492,0.000515,-0.001729,0.001646,0.00,-0.24,9.86
54068494,0.001580,-0.002795,-0.002615,-0.02,-0.22,9.82
54069504,0.001580,-0.000664,-0.003680,-0.01,-0.20,9.82
54070514,-0.001616,0.000401,-0.000484,0.00,-0.22,9.84
54071524,-0.002681,0.001467,0.000581,-0.01,-0.25,9.82
54072551,-0.002681,0.001467,0.000581,0.01,-0.25,9.78
54073547,-0.002681,0.001467,0.000581,0.01,-0.27,9.75
54074554,-0.000550,-0.000664,0.001646,-0.01,-0.28,9.77
54075564,0.002646,-0.001729,0.000581,-0.02,-0.26,9.83
54076591,0.001580,0.000401,-0.001549,-0.05,-0.22,9.87
54077593,0.000515,0.003597,-0.000484,-0.03,-0.20,9.82
54078595,-0.000550,0.002532,0.000581,0.00,-0.25,9.78
54079605,-0.001616,0.000401,0.001646,0.04,-0.28,9.76
54080615,-0.000550,-0.000664,0.001646,0.03,-0.26,9.75
54081625,0.002646,-0.000664,0.000581,0.00,-0.26,9.74
54082655,0.003711,0.001467,-0.000484,0.01,-0.30,9.78
54083646,0.001580,-0.000664,-0.000484,0.01,-0.31,9.76
54084653,0.000515,-0.003860,-0.000484,0.00,-0.26,9.75
54085663,-0.000550,-0.002795,-0.000484,0.01,-0.26,9.83
54086693,-0.001616,0.002532,0.001646,-0.01,-0.28,9.82
54087701,-0.002681,0.003597,0.003777,-0.04,-0.23,9.77
54088701,-0.001616,-0.000664,0.001646,0.01,-0.21,9.79
54089711,-0.000550,-0.001729,0.000581,0.02,-0.25,9.84
54090722,-0.000550,-0.001729,-0.000484,0.01,-0.25,9.84
54091734,-0.000550,-0.000664,-0.000484,0.02,-0.24,9.83
54092763,0.001580,0.000401,-0.000484,0.01,-0.23,9.82
54093758,0.002646,-0.001729,-0.001549,0.00,-0.25,9.81
54094774,0.000515,-0.002795,-0.000484,-0.02,-0.26,9.81
54095773,-0.000550,-0.001729,-0.001549,0.01,-0.21,9.84
54096801,-0.002681,-0.002795,-0.002615,0.03,-0.22,9.83
54097800,-0.000550,-0.002795,-0.000484,0.00,-0.23,9.83
54098830,0.000515,-0.001729,0.000581,0.01,-0.20,9.85
54099819,0.000515,0.000401,0.000581,0.03,-0.21,9.81
54100823,-0.002681,0.001467,0.000581,0.01,-0.26,9.78
54101833,-0.003746,-0.000664,0.000581,0.02,-0.26,9.82
54102872,-0.002681,-0.000664,0.000581,0.01,-0.21,9.88
54103854,0.000515,0.000401,0.002712,0.01,-0.23,9.84
54104859,0.002646,0.002532,0.003777,0.02,-0.25,9.74
54105883,0.002646,0.003597,0.002712,0.00,-0.23,9.77
54106879,0.001580,0.004662,0.001646,-0.01,-0.23,9.82
54107899,-0.000550,0.003597,0.000581,0.01,-0.26,9.83
54108897,-0.000550,-0.000664,0.001646,0.01,-0.28,9.84
54109908,0.001580,-0.002795,0.000581,0.00,-0.29,9.87
54110917,0.001580,-0.002795,-0.000484,0.01,-0.28,9.88
54111926,0.001580,-0.000664,0.000581,0.00,-0.26,9.81
54112951,0.002646,-0.000664,0.000581,0.00,-0.26,9.79
54113947,0.001580,-0.001729,0.001646,0.02,-0.26,9.76
54114954,-0.000550,-0.000664,0.003777,0.00,-0.26,9.81
54115981,0.000515,0.000401,0.003777,0.00,-0.26,9.84
54116976,0.001580,0.001467,0.002712,-0.01,-0.23,9.81
54117992,0.000515,0.002532,0.002712,-0.01,-0.22,9.85
54118995,-0.000550,0.002532,0.001646,0.00,-0.26,9.82
54120005,-0.000550,0.001467,-0.000484,-0.02,-0.25,9.82
54121015,-0.000550,-0.000664,-0.000484,-0.02,-0.23,9.80
54122025,0.000515,-0.000664,-0.001549,-0.01,-0.21,9.74
54123055,0.001580,-0.001729,-0.002615,-0.04,-0.21,9.76
54124046,0.001580,-0.003860,-0.002615,-0.06,-0.25,9.78
54125053,0.000515,-0.002795,-0.001549,0.00,-0.23,9.81
54126080,-0.000550,0.000401,-0.000484,0.03,-0.23,9.86
54127075,0.000515,0.002532,0.000581,-0.02,-0.24,9.85
54128091,0.001580,0.004662,-0.000484,-0.07,-0.23,9.78
54129094,0.000515,0.001467,-0.000484,-0.02,-0.26,9.76
54130104,-0.001616,-0.000664,0.000581,0.01,-0.26,9.80
54131114,0.000515,-0.001729,0.002712,0.00,-0.23,9.79
54132124,0.003711,-0.001729,0.003777,-0.02,-0.21,9.78
54133151,0.004776,-0.001729,0.001646,-0.03,-0.21,9.82
54134147,0.002646,-0.001729,-0.001549,-0.02,-0.25,9.88
54135154,-0.001616,-0.000664,-0.001549,-0.03,-0.29,9.87
54136181,-0.002681,0.001467,-0.000484,-0.05,-0.26,9.79
54137176,-0.002681,0.001467,-0.000484,-0.02,-0.26,9.79
54138192,-0.000550,-0.001729,-0.002615,-0.02,-0.26,9.82
54139195,-0.000550,-0.003860,-0.000484,-0.03,-0.23,9.84
54140205,0.001580,-0.002795,0.001646,-0.02,-0.23,9.84
54141215,0.003711,-0.000664,0.003777,0.01,-0.25,9.77
54142225,0.003711,0.000401,0.002712,0.02,-0.24,9.75
54143255,0.000515,0.000401,0.001646,0.02,-0.23,9.81
54144246,-0.002681,-0.000664,-0.003680,0.01,-0.22,9.83
54145253,-0.003746,0.000401,-0.003680,-0.04,-0.22,9.82
54146280,-0.002681,0.002532,-0.001549,-0.04,-0.25,9.86
54147275,-0.001616,0.002532,-0.001549,0.00,-0.23,9.85
54148291,0.000515,0.002532,0.000581,0.02,-0.20,9.84
54149294,-0.000550,0.002532,0.002712,0.02,-0.24,9.86
54150304,-0.000550,0.000401,0.002712,0.01,-0.25,9.85
54151314,-0.002681,-0.001729,0.001646,-0.03,-0.27,9.79
54152324,-0.004811,-0.000664,-0.000484,-0.03,-0.28,9.78
54153351,-0.003746,0.001467,-0.001549,0.00,-0.26,9.82
54154489,-0.001616,0.001467,-0.000484,0.00,-0.24,9.81
54155339,0.004776,-0.000664,0.003777,0.00,-0.18,9.82
54156358,0.066562,-0.021970,0.016560,-0.04,-0.18,9.82
54157355,0.086803,-0.029427,0.018691,0.03,-0.26,9.80
54158373,0.051648,-0.018774,0.018691,0.10,-0.21,9.90
54159373,0.021821,-0.008121,0.016560,-0.06,-0.27,9.78
54160383,0.013298,-0.003860,0.015495,-0.14,-0.13,9.80
54161393,0.012233,-0.001729,0.017626,-0.17,-0.13,9.74
54162403,0.014364,0.001467,0.022952,-0.06,0.02,9.78
54163445,0.014364,0.003597,0.030409,0.20,0.14,9.88
54164425,0.017559,0.004662,0.033605,0.41,-0.54,9.78
54165432,0.001580,0.009989,0.024017,0.12,-1.00,9.86
54166459,-0.018660,0.012119,0.001646,-0.46,-0.55,9.87
54167456,-0.037835,0.003597,-0.016463,-0.39,0.32,9.73
54168474,-0.025052,-0.003860,-0.013268,0.29,0.01,9.53
54169475,0.017559,0.004662,-0.001549,0.42,-1.30,9.65
54170485,0.044191,0.021707,-0.009006,-0.35,-0.23,10.39
54171495,0.009037,0.011054,-0.020725,-0.53,0.89,9.92
54172505,-0.034639,-0.012382,-0.011137,0.54,-1.24,8.93
54173543,0.023951,0.009989,-0.007941,0.35,-0.80,10.13
54174525,0.037800,0.025968,-0.016463,-0.76,2.07,10.75
54175531,-0.069794,-0.018774,-0.006876,0.06,-1.66,8.66
54176558,-0.048488,-0.016643,-0.003680,0.53,-1.47,9.95
54177555,0.068693,0.022772,-0.011137,-0.32,3.48,11.34
54178573,-0.012268,-0.025165,0.001646,-0.14,-2.88,7.80
54179573,-0.067663,-0.021970,-0.005811,0.32,-0.62,10.42
54180583,0.028212,0.018511,-0.004745,-0.34,2.23,10.41
54181593,-0.020791,-0.018774,0.008038,-0.02,-2.63,8.64
54182633,-0.002681,-0.005990,0.001646,0.43,1.06,11.20
54183624,0.018625,0.006793,0.014430,-0.03,-0.73,8.27
54184622,-0.026117,0.018511,0.008038,-0.31,-0.20,11.51
54185632,0.025016,-0.015578,0.009103,0.03,-0.29,9.17
54186659,-0.011203,-0.027296,0.002712,0.54,0.00,9.71
54187656,0.010102,0.007858,0.008038,-0.69,-1.05,9.99
54188673,-0.002681,-0.003860,0.004842,0.42,0.55,9.62
54189677,-0.016530,0.004662,0.001646,-0.09,-0.51,10.08
54190691,-0.029313,-0.007056,0.001646,-0.09,-1.18,9.19
54191700,0.013298,0.007858,0.001646,0.24,1.20,10.17
54192738,-0.000550,-0.012382,-0.000484,-0.56,-1.70,9.45
54193734,-0.006942,-0.010252,-0.006876,0.57,1.03,9.86
54194726,-0.010138,0.004662,-0.014333,-0.55,-0.96,9.94
54195748,-0.009073,-0.002795,-0.016463,0.63,0.64,10.34
54196770,-0.008007,-0.003860,-0.005811,0.35,-0.08,9.30
54197763,-0.010138,-0.005990,-0.001549,-0.38,-0.90,11.16
54198784,-0.014399,0.011054,-0.005811,0.25,0.55,8.25
54199779,0.006907,-0.001729,-0.005811,-0.82,-1.21,10.61
54200793,0.011168,-0.012382,-0.004745,0.32,0.30,10.38
54201816,0.009037,-0.000664,-0.000484,0.72,0.23,7.91
54202849,0.017559,0.008923,0.002712,-0.80,-1.31,11.61
54203836,0.018625,0.017446,0.003777,0.12,0.29,8.50
54204829,-0.002681,0.013185,0.004842,0.45,0.24,8.96
54205838,-0.003746,0.009989,0.002712,-0.93,-1.52,12.62
54206847,0.001580,0.006793,-0.000484,0.32,0.16,8.58
54207858,-0.014399,-0.004925,-0.004745,0.54,0.63,9.24
54208870,-0.019725,-0.005990,-0.009006,-1.02,-1.54,12.08
54209876,-0.028248,0.001467,-0.009006,0.18,-0.46,8.61
54210887,-0.030378,0.002532,-0.002615,0.84,0.90,7.57
54211896,-0.003746,0.003597,-0.001549,-0.67,-0.71,11.64
54212928,0.016494,0.003597,-0.001549,-0.53,-1.55,10.40
54213926,0.005841,0.007858,0.000581,0.94,0.59,7.64
54214923,0.020755,0.003597,0.002712,0.44,1.07,10.65
54215933,0.033539,-0.010252,0.002712,-1.03,-1.49,12.53
54216943,0.028212,-0.011317,0.000581,-0.08,-1.20,8.80
54217953,0.016494,0.008923,-0.000484,1.17,1.22,7.26
54218970,-0.011203,0.012119,-0.001549,0.19,0.93,10.82
54219973,-0.035705,-0.003860,-0.000484,-1.18,-1.50,12.04
54220983,-0.052749,-0.011317,0.001646,-0.14,-1.42,8.84
54221993,-0.022921,-0.005990,0.001646,1.26,1.03,7.24
54223026,0.028212,-0.005990,0.004842,0.30,1.18,10.64
54224024,0.060171,-0.000664,0.008038,-1.03,-0.61,12.99
54225022,0.048453,-0.003860,0.010169,-0.75,-2.01,9.66
54226032,0.006907,-0.007056,0.004842,0.89,-0.51,6.95
54227042,0.011168,0.009989,0.001646,0.91,1.53,8.59
54228052,0.033539,0.031294,0.001646,-0.40,1.40,11.84
54229069,0.037800,0.040882,0.005908,-1.14,-1.29,11.87
54230072,0.031408,0.024903,0.011234,-0.53,-2.47,9.57
54231082,0.007972,-0.005990,0.015495,0.52,-0.19,7.92
54232092,-0.015464,-0.011317,0.017626,0.49,0.97,8.38
54233126,-0.013334,-0.002795,0.015495,0.06,1.78,11.13
54234126,-0.005877,0.005728,0.016560,-0.79,-0.81,11.91
54235123,0.001580,0.006793,0.017626,-0.97,-3.16,10.11
54236133,0.017559,0.004662,0.016560,-0.02,-1.31,8.43
54237143,-0.001616,0.002532,0.014430,0.72,0.04,7.78
54238153,-0.019725,0.003597,0.012299,0.93,1.08,9.13
54239170,-0.000550,0.014250,0.011234,0.29,1.84,12.07
54240173,0.027147,0.005728,0.010169,-0.38,-0.14,12.81
54241183,0.010102,-0.009186,0.003777,-0.62,-2.56,10.20
54242193,-0.021856,-0.009186,-0.004745,-0.54,-2.87,7.33
54243226,-0.019725,0.009989,-0.010072,0.08,-1.29,7.94
54244224,0.011168,0.005728,-0.015398,1.10,1.47,9.45
54245222,0.014364,-0.015578,-0.016463,1.15,1.56,9.47
54246232,-0.032509,0.019576,-0.022855,-0.38,0.69,11.88
54247242,-0.021856,0.025968,-0.027116,-0.65,-1.96,10.89
54248252,-0.018660,0.007858,-0.029247,-1.10,-2.18,9.20
54249269,-0.009073,-0.001729,-0.022855,-0.26,-1.63,9.49
54250272,0.002646,-0.012382,-0.020725,0.68,-0.37,8.87
54251282,0.005841,-0.017709,-0.020725,0.16,-0.13,7.68
54252292,-0.030378,-0.011317,-0.017529,0.45,2.28,9.21
54253326,0.020755,-0.000664,-0.013268,0.91,2.29,9.96
54254326,0.063367,0.011054,-0.017529,-0.41,0.82,11.07
54255323,0.039930,0.005728,-0.018594,-0.55,0.13,11.27
54256333,-0.022921,0.007858,-0.013268,-0.45,-1.53,10.85
54257343,-0.085773,0.031294,-0.006876,-0.87,-2.47,9.76
54258353,-0.044227,0.037686,-0.000484,-0.22,-2.05,9.57
54259370,0.017559,0.017446,0.006973,0.20,-0.90,10.26
54260373,0.034604,-0.012382,0.020821,0.39,-1.09,8.75
54261383,0.003711,-0.003860,0.024017,0.33,-0.38,8.20
54262393,0.003711,0.001467,0.019756,0.60,1.51,8.43
54263426,0.000515,-0.005990,0.021887,0.81,1.42,9.37
54264424,0.004776,-0.000664,0.016560,0.18,1.83,10.56
54265422,0.040996,-0.009186,0.011234,0.16,1.33,10.98
54266432,0.017559,-0.005990,0.005908,-0.37,-0.72,10.89
54267442,-0.026117,0.009989,0.002712,-0.69,-0.90,11.06
54268452,-0.044227,0.020642,-0.000484,-0.41,-1.30,10.88
54269469,-0.061271,0.032360,-0.005811,-0.75,-1.99,10.64
54270472,-0.015464,0.016380,-0.006876,-0.40,-2.32,9.87
54271482,0.012233,-0.001729,-0.009006,-0.41,-1.25,10.25
54272492,-0.020791,0.002532,-0.013268,-0.11,-1.27,9.46
54273526,-0.043162,0.006793,-0.013268,0.47,-1.07,7.16
54274526,-0.065532,0.017446,-0.020725,-0.11,0.02,7.78
54275523,-0.016530,0.023837,-0.023920,0.26,0.33,8.27
54276533,0.040996,0.017446,-0.016463,0.84,1.29,9.13
54277543,0.010102,0.012119,-0.009006,0.20,1.35,10.26
54278553,-0.025052,0.003597,-0.010072,0.20,1.69,10.88
54279570,0.010102,-0.021970,-0.001549,0.81,1.58,10.79
54280573,0.002646,-0.026231,0.003777,-0.14,0.65,10.28
54281583,-0.016530,-0.009186,0.004842,-0.08,0.22,9.21
54282616,-0.020791,0.005728,0.003777,0.30,0.44,9.51
54283605,-0.030378,0.025968,0.003777,-0.63,-0.67,9.82
54284662,-0.022921,0.027033,0.005908,-0.14,-1.00,10.88
54285622,-0.023987,0.012119,0.006973,-0.02,-0.35,12.65
54286645,-0.018660,-0.014513,0.008038,-0.31,-1.80,11.01
54287642,-0.002681,-0.017709,0.010169,-0.17,-1.28,10.57
54288652,0.009037,-0.003860,0.008038,-0.41,-0.90,11.32
54289672,0.025016,-0.016643,0.005908,-0.19,-2.26,9.21
54290674,0.026082,-0.032622,0.004842,-0.38,-1.37,8.09
54291693,-0.004811,-0.015578,0.004842,-0.11,-1.11,8.77
54292724,0.001580,0.002532,-0.001549,0.48,-1.54,7.25
54293717,-0.011203,0.021707,-0.010072,-0.54,-0.50,9.11
54294734,-0.022921,0.021707,-0.012202,0.02,-0.78,10.19
54295733,-0.008007,-0.003860,-0.011137,0.59,0.16,9.50
54296744,-0.016530,-0.018774,-0.013268,-0.49,0.27,9.77
54297751,-0.014399,-0.020904,-0.011137,0.35,0.35,9.13
54298768,0.011168,-0.014513,-0.011137,0.68,1.05,8.47
54299780,0.002646,0.000401,-0.014333,-0.40,0.78,8.32
54300780,-0.015464,0.008923,-0.009006,0.28,1.09,8.52
54301792,0.003711,0.011054,-0.002615,0.68,1.17,9.81
54302825,0.010102,0.024903,0.000581,-0.18,1.18,11.42
54303832,0.003711,0.025968,0.006973,0.11,0.83,11.27
54304831,-0.002681,0.016380,0.014430,0.52,0.86,11.73
54305829,0.013298,0.007858,0.017626,-0.11,0.46,10.93
54306861,0.036734,-0.012382,0.018691,0.11,0.10,9.78
54307850,0.004776,-0.023035,0.013364,0.13,0.17,9.61
54308856,-0.032509,-0.008121,0.010169,-0.17,-0.74,8.67
54309870,-0.018660,0.013185,0.009103,-0.03,-0.44,9.33
54310876,0.000515,0.018511,0.008038,-0.32,-0.67,10.90
54311887,0.016494,0.001467,0.012299,0.01,-1.36,11.38
54312918,0.000515,0.000401,0.009103,0.09,-0.41,12.24
54313909,-0.029313,0.000401,0.003777,-0.27,-1.42,11.33
54314924,-0.008007,-0.019839,-0.003680,0.02,-1.79,10.09
54315923,0.026082,-0.023035,-0.010072,-0.12,-0.38,9.54
54316933,0.006907,0.002532,-0.010072,-0.35,-1.31,8.24
54317943,-0.021856,0.017446,-0.007941,-0.18,-1.63,8.11
54318953,-0.017595,0.015315,-0.007941,-0.29,-0.25,10.91
54319970,0.014364,0.002532,-0.007941,-0.10,-0.96,11.26
54320973,0.013298,-0.005990,-0.004745,0.13,-0.79,11.01
54321983,-0.004811,-0.004925,-0.009006,-0.08,-0.42,10.93
54323015,0.014364,-0.004925,-0.009006,-0.20,-1.01,9.37
54324005,0.017559,-0.008121,-0.010072,-0.12,-0.34,8.86
54325023,0.003711,-0.017709,-0.006876,-0.03,-0.56,7.54
54326022,-0.014399,0.002532,-0.000484,-0.10,-0.58,7.94
54327032,-0.004811,0.020642,0.001646,-0.01,-0.32,9.04
54328042,0.010102,0.022772,0.002712,-0.06,-0.63,9.78
54329052,-0.010138,0.017446,0.002712,-0.44,-0.73,10.20
54330069,-0.004811,-0.011317,0.000581,0.10,-0.22,10.39
54331072,0.013298,-0.023035,0.002712,0.59,-0.31,8.90
54332082,0.026082,-0.001729,-0.000484,-0.56,-0.67,8.30
54333115,0.012233,0.005728,-0.001549,-0.12,-0.15,9.01
54334107,0.005841,-0.025165,-0.007941,0.83,0.19,8.12
54335124,-0.028248,-0.013447,-0.010072,-0.51,-0.34,8.22
54336123,-0.038900,0.022772,-0.007941,0.29,-0.06,9.12
54337133,-0.014399,0.025968,-0.007941,0.49,0.35,10.74
54338143,-0.002681,0.018511,-0.011137,-0.60,0.43,11.07
54339153,0.007972,0.006793,-0.010072,0.60,0.54,9.92
54340170,0.017559,-0.007056,-0.012202,0.33,0.68,10.18
54341173,0.018625,-0.016643,-0.012202,-0.49,0.79,9.27
54342183,0.026082,-0.011317,-0.007941,0.30,0.62,8.87
54343215,0.029278,0.003597,-0.001549,0.29,0.58,9.64
54344205,0.016494,0.016380,0.002712,-0.39,0.55,9.50
54345223,0.007972,0.012119,0.010169,0.19,0.25,9.80
54346222,0.006907,0.017446,0.014430,0.51,0.73,11.14
54347232,-0.022921,0.029164,0.016560,0.00,0.32,11.06
54348242,-0.003746,-0.035818,0.005908,0.41,-0.05,10.72
54349252,0.023951,-0.043275,0.001646,0.32,0.25,8.89
54350269,-0.026117,0.023837,0.004842,-0.67,-0.48,8.50
54351272,-0.020791,0.041947,0.004842,0.46,-0.78,9.69
54352282,0.000515,0.013185,0.002712,0.28,0.81,10.69
54353315,-0.013334,-0.000664,0.001646,-0.72,-1.10,10.40
54354307,0.020755,-0.011317,0.000581,0.68,-0.73,11.78
54355324,0.029278,-0.021970,-0.007941,0.38,1.16,11.84
54356323,0.006907,-0.010252,-0.013268,-0.66,-1.31,9.27
54357333,0.015429,-0.012382,-0.015398,0.36,-0.40,9.96
54358343,0.027147,-0.028361,-0.020725,-0.08,0.69,9.24
54359353,-0.010138,-0.025165,-0.024986,-0.48,-1.20,7.69
54360370,-0.011203,0.020642,-0.023920,0.18,0.04,10.20
54361373,-0.003746,0.061122,-0.020725,-0.27,0.41,11.80
54362383,0.004776,0.044078,-0.014333,-0.37,-1.25,11.98
54363415,0.056975,-0.019839,-0.012202,0.42,-0.17,12.75
54364405,0.051648,-0.058189,-0.007941,0.40,0.16,10.08
54365423,-0.025052,-0.012382,0.001646,-0.65,-1.26,8.45
54366422,-0.044227,0.032360,0.008038,-0.25,-1.19,8.95
54367432,-0.002681,0.008923,0.008038,0.26,-0.18,8.41
54368442,-0.025052,-0.004925,0.014430,-0.67,-0.86,9.57
54369452,-0.028248,-0.003860,0.019756,0.10,-2.01,11.03
54370469,0.020755,-0.004925,0.018691,0.52,-0.52,11.05
54371472,0.003711,0.023837,0.020821,-0.86,-0.79,11.63
54372482,0.010102,0.024903,0.018691,0.09,-2.46,10.17
54373515,0.027147,-0.023035,0.012299,0.64,-0.01,8.68
54374507,0.012233,-0.046471,0.005908,-0.92,-0.62,8.23
54375524,0.003711,-0.010252,0.004842,-0.09,-2.29,7.48
54376523,-0.002681,0.012119,0.000581,0.39,0.53,8.33
54377533,-0.054880,0.012119,-0.001549,-1.31,-0.88,9.39
54378543,-0.046357,0.000401,-0.003680,0.03,-1.71,10.61
54379553,0.018625,-0.033688,-0.015398,1.00,1.26,10.45
54380570,-0.017595,-0.025165,-0.018594,-1.17,-0.47,9.60
54381573,-0.053814,0.007858,-0.016463,0.22,-1.28,8.01
54382605,-0.005877,0.003597,-0.019659,0.58,0.85,8.58
54383595,0.013298,-0.012382,-0.019659,-0.53,0.59,8.34
54384602,0.007972,-0.005990,-0.014333,0.60,-0.15,7.42
54385623,-0.023987,0.034490,-0.009006,0.54,1.34,9.70
54386622,-0.052749,0.058992,0.002712,-0.44,-0.12,10.10
54387632,-0.002681,0.039817,0.005908,-0.05,0.52,12.06
54388642,0.062301,-0.030492,0.003777,0.96,1.41,11.25
54389652,0.044191,-0.059254,0.005908,-0.23,-0.65,8.15
54390672,-0.000550,-0.007056,0.015495,0.03,0.90,8.36
54391674,0.018625,0.015315,0.017626,0.67,0.32,8.57
54392708,0.002646,0.004662,0.017626,-0.53,0.17,9.13
54393701,-0.036770,-0.005990,0.016560,-0.04,0.59,9.70
54394709,-0.017595,-0.011317,0.015495,1.00,0.20,11.15
54395732,-0.003746,0.002532,0.013364,-0.17,0.47,12.14
54396728,-0.014399,0.016380,0.011234,-0.74,-0.17,11.65
54397747,0.022886,-0.012382,0.005908,0.70,-0.18,10.72
54398749,0.039930,-0.031557,-0.003680,0.09,0.49,8.84
54399775,0.006907,-0.008121,-0.007941,-0.46,-0.78,6.98
54400785,0.007972,0.017446,-0.011137,0.55,-0.05,9.04
54401780,-0.036770,0.047274,-0.013268,-0.55,0.54,10.60
54402813,-0.039966,0.037686,-0.009006,-0.25,-1.09,10.67
54403800,-0.013334,-0.001729,-0.012202,0.64,0.60,12.40
54404807,-0.018660,-0.021970,-0.013268,-0.21,0.25,11.15
54405837,-0.011203,0.004662,-0.006876,-0.34,-1.04,10.46
54406837,0.003711,0.006793,-0.003680,0.24,0.52,11.34
54407842,0.021821,-0.039014,-0.005811,0.07,-0.01,8.88
54408847,0.009037,-0.045406,-0.004745,-0.27,-0.91,7.59
54409856,0.011168,-0.003860,0.002712,0.15,-0.14,9.67
54410870,0.031408,0.039817,0.009103,-0.10,-0.33,11.28
54411876,0.017559,0.040882,0.013364,-0.28,-1.01,12.07
54412908,0.021821,-0.016643,0.009103,0.31,-1.04,12.71
54413901,0.033539,-0.052863,0.004842,0.40,-0.66,9.93
54414906,-0.002681,-0.001729,0.004842,-0.61,-0.89,9.31
54415924,-0.002681,0.043012,0.004842,-0.24,-1.88,9.31
54416923,0.002646,0.020642,-0.002615,0.25,-0.52,8.21
54417933,-0.029313,-0.003860,-0.004745,-0.70,-0.67,9.45
54418943,-0.023987,0.000401,0.000581,0.11,-2.36,10.07
54419953,0.002646,-0.001729,-0.001549,0.32,-0.24,10.53
54420970,-0.020791,0.013185,-0.001549,-0.96,-0.57,11.55
54421973,-0.025052,0.013185,-0.000484,0.01,-2.34,10.66
54423005,0.030343,-0.042210,-0.012202,0.58,0.26,8.52
54423995,0.012233,-0.060320,-0.019659,-0.90,-0.38,7.94
54425002,-0.015464,-0.014513,-0.016463,0.34,-1.87,6.62
54426023,-0.004811,0.024903,-0.012202,0.22,0.57,8.67
54427022,-0.028248,0.023837,-0.009006,-0.79,-0.28,10.07
54428032,-0.008007,-0.000664,-0.009006,0.69,-0.32,9.35
54429042,0.014364,0.003597,-0.012202,0.33,1.41,10.65
54430052,0.001580,0.037686,-0.009006,-0.66,-1.09,9.50
54431069,0.034604,0.031294,-0.007941,0.12,0.14,9.80
54432072,0.052714,-0.014513,-0.002615,0.44,1.19,9.29
54433105,0.004776,-0.028361,0.002712,-0.32,-0.60,7.11
54434097,-0.021856,0.007858,0.016560,0.41,0.55,7.60
54435103,-0.019725,0.045143,0.026148,0.54,0.82,9.35
54436124,-0.041031,0.052600,0.032540,-0.54,-0.02,10.27
54437123,-0.037835,0.025968,0.035735,-0.01,0.56,11.40
54438133,0.003711,-0.026231,0.032540,0.81,0.29,11.10
54439143,0.023951,-0.043275,0.028278,-0.31,-0.27,9.85
54440153,0.004776,-0.008121,0.028278,-0.34,0.35,10.33
54441170,0.011168,-0.015578,0.018691,0.62,-0.37,9.14
54442173,0.014364,-0.040079,0.008038,-0.36,0.22,8.16
54443205,-0.020791,-0.024100,0.001646,-0.15,-0.25,8.16
54444195,-0.020791,-0.003860,-0.007941,0.77,-0.05,10.55
54445202,-0.033574,0.022772,-0.016463,-0.41,1.12,11.98
54446223,-0.051684,0.027033,-0.020725,-0.15,-0.48,10.95
54447222,-0.002681,0.011054,-0.026051,0.67,0.54,11.74
54448232,0.032473,-0.005990,-0.029247,-0.08,0.93,10.62
54449242,0.051648,-0.016643,-0.023920,0.49,0.45,10.40
54450252,0.009037,-0.009186,-0.020725,0.10,0.79,8.69
54451269,-0.058075,0.029164,-0.012202,-0.68,-0.86,7.89
54452272,-0.033574,0.051535,-0.004745,0.42,0.13,10.79
54453305,-0.017595,0.049404,0.000581,0.14,0.58,12.05
54454297,-0.010138,0.023837,0.005908,-0.42,-1.11,11.30
54455303,0.011168,-0.014513,0.012299,0.49,-0.60,12.03
54456324,0.032473,-0.031557,0.015495,0.26,0.21,10.84
54457323,0.028212,-0.014513,0.020821,-0.66,-1.22,9.37
54458333,0.017559,-0.015578,0.021887,0.15,-1.33,9.98
54459343,0.025016,-0.041145,0.015495,0.32,-0.32,8.10
54460353,-0.016530,-0.018774,0.013364,-0.86,-1.36,8.64
54461370,-0.039966,0.014250,0.013364,-0.08,-1.94,11.14
54462373,-0.011203,0.000401,0.004842,0.30,-0.29,11.17
54463405,-0.047423,0.002532,0.002712,-0.86,-1.00,11.62
54464395,-0.033574,-0.002795,-0.000484,0.04,-2.24,10.97
54465402,0.027147,-0.033688,-0.011137,0.52,0.10,9.34
54466423,-0.001616,-0.024100,-0.015398,-0.90,-0.69,8.87
54467422,-0.013334,0.020642,-0.016463,0.07,-2.27,7.31
54468432,0.002646,0.031294,-0.017529,0.29,0.50,8.59
54469442,-0.020791,0.008923,-0.017529,-0.50,-0.34,9.42
54470452,-0.001616,0.005728,-0.014333,0.48,-0.88,9.31
54471469,-0.017595,0.036621,-0.007941,0.14,0.82,10.89
54472472,-0.036770,0.040882,0.000581,-1.01,-1.42,10.17
54473505,0.025016,-0.001729,0.000581,0.00,-0.62,10.49
54474497,0.089999,-0.057124,0.002712,0.76,0.82,8.75
54475503,0.040996,-0.050732,0.006973,-0.60,-0.78,6.56
54476524,-0.022921,0.012119,0.016560,0.18,-0.38,6.77
54477523,-0.019725,0.037686,0.017626,0.57,0.64,8.54
54478533,-0.021856,0.023837,0.017626,-0.87,-0.31,9.96
54479543,-0.019725,0.000401,0.021887,0.34,0.09,11.07
54480553,0.003711,-0.029427,0.016560,1.22,0.77,11.24
54481570,-0.006942,-0.023035,0.008038,-0.69,-0.33,10.23
54482595,-0.021856,0.001467,0.004842,-0.16,0.14,9.92
54483585,-0.001616,-0.025165,-0.002615,0.78,0.21,8.71
54484592,-0.008007,-0.044341,-0.004745,-0.53,0.12,7.16
54485602,-0.046357,-0.004925,-0.002615,-0.02,0.39,8.29
54486623,-0.016530,0.027033,-0.006876,0.84,0.50,10.59
54487622,-0.020791,0.033425,-0.007941,-0.49,0.74,11.15
54488632,-0.042096,0.028099,-0.006876,-0.66,-0.16,11.68
54489642,0.031408,-0.021970,-0.015398,1.09,0.45,11.89
54490652,0.062301,-0.050732,-0.021790,0.22,1.34,10.69
54491672,0.009037,-0.014513,-0.017529,-0.44,-0.55,7.76
54492698,0.012233,0.014250,-0.014333,0.65,0.35,8.65
54493693,-0.003746,0.017446,-0.016463,-0.51,0.79,9.51
54494697,0.009037,-0.013447,-0.015398,0.07,-0.80,9.44
54495711,0.002646,-0.014513,-0.014333,0.91,1.26,11.32
54496734,-0.086838,0.035556,-0.007941,-0.45,0.10,10.63
54497733,-0.068728,0.068579,-0.004745,-0.29,-1.03,11.09
54498744,0.016494,0.028099,-0.000484,0.44,1.09,12.78
54499753,0.029278,-0.043275,0.005908,0.13,-0.31,10.34
54500763,0.002646,-0.049667,0.019756,-0.14,-1.02,8.39
54501780,-0.015464,-0.002795,0.029344,0.05,-0.08,9.67
54502812,-0.012268,0.024903,0.032540,-0.22,-0.81,10.10
54503797,-0.001616,0.022772,0.036801,-0.51,-1.14,10.84
54504798,0.001580,-0.010252,0.034670,0.02,-1.36,11.98
54505805,0.034604,-0.050732,0.026148,0.30,-1.23,9.69
54506836,0.019690,-0.008121,0.019756,-0.75,-1.07,10.26
54507831,0.009037,0.036621,0.011234,-0.42,-2.14,10.81
54508863,0.037800,0.002532,0.003777,-0.01,-0.92,9.10
54509847,-0.006942,-0.027296,-0.001549,-0.76,-0.73,9.82
54510856,-0.015464,-0.040079,-0.009006,0.27,-2.36,9.39
54511870,0.013298,-0.020904,-0.020725,0.36,-0.22,9.60
54512898,-0.029313,0.028099,-0.026051,-0.98,-0.61,10.48
54513892,-0.034639,0.041947,-0.028181,-0.17,-2.25,9.92
54514897,0.011168,-0.004925,-0.031377,0.29,0.42,9.03
54515906,-0.016530,-0.028361,-0.032443,-0.80,-0.43,9.07
54516924,-0.015464,-0.010252,-0.031377,0.30,-1.73,8.81
54517923,0.007972,0.013185,-0.029247,0.69,1.05,8.52
54518933,-0.031443,0.031294,-0.022855,-1.18,-0.28,8.63
54519943,-0.023987,0.029164,-0.013268,0.30,-1.26,8.63
54520953,0.025016,-0.000664,-0.007941,1.03,1.46,9.42
54521970,0.005841,-0.009186,-0.003680,-0.83,0.07,9.34
54522995,-0.005877,0.023837,0.004842,0.41,-0.27,9.32
54523985,0.014364,0.027033,0.011234,0.92,1.53,9.86
54524992,0.009037,0.004662,0.016560,-1.00,-0.28,9.12
54526002,0.022886,-0.018774,0.024017,0.18,0.12,9.90
54527023,0.048453,-0.041145,0.022952,1.34,1.30,9.70
54528022,0.011168,-0.024100,0.021887,-0.70,-0.43,8.21
54529032,-0.037835,0.027033,0.026148,-0.11,-0.14,8.47
54530042,-0.016530,0.024903,0.018691,0.73,0.57,10.51
54531052,-0.012268,-0.009186,0.011234,-0.51,0.51,10.40
54532069,-0.027182,-0.008121,0.011234,0.32,0.27,9.21
54533095,-0.017595,0.015315,0.004842,0.74,0.64,10.61
54534087,-0.019725,0.024903,0.002712,-0.43,0.59,10.52
54535093,-0.012268,0.005728,0.005908,-0.31,0.07,10.55
54536103,0.022886,-0.035818,0.008038,0.59,0.38,10.88
54537124,0.032473,-0.035818,0.005908,-0.13,0.31,9.30
54538123,0.002646,0.007858,0.006973,-0.40,-0.16,8.65
54539133,0.012233,0.031294,0.005908,0.42,-0.06,10.30
54540143,0.026082,0.032360,0.002712,-0.15,0.35,10.55
54541153,0.012233,-0.002795,0.000581,-0.42,-0.66,10.30
54542170,0.032473,-0.043275,-0.002615,0.67,-0.28,11.97
54543195,0.046322,-0.027296,-0.007941,0.29,0.51,11.07
54544185,0.012233,0.024903,-0.010072,-0.87,-1.28,9.57
54545192,0.022886,0.017446,-0.011137,0.32,-0.88,10.53
54546202,0.035669,-0.017709,-0.015398,0.32,0.56,9.46
54547223,-0.001616,-0.002795,-0.017529,-0.68,-1.13,8.99
54548222,-0.000550,0.024903,-0.015398,0.35,-0.99,11.19
54549232,-0.011203,0.034490,-0.018594,0.13,0.10,10.62
54550242,-0.046357,0.040882,-0.014333,-0.90,-1.41,10.43
54551252,0.021821,-0.016643,-0.011137,0.35,0.57,10.35
54552269,-0.012268,-0.015578,-0.005811,-0.68,-0.72,9.73
54553295,-0.019725,0.013185,-0.003680,0.20,-1.68,9.59
54554287,0.006907,0.011054,-0.010072,0.32,0.29,9.33
54555293,0.000515,-0.007056,-0.003680,-0.66,-0.71,9.30
54556303,0.003711,0.000401,0.006973,0.04,-1.76,9.22
54557324,0.019690,-0.000664,0.006973,0.25,0.43,10.01
54558323,-0.021856,-0.003860,0.012299,-0.86,-1.01,10.45
54559333,-0.015464,-0.012382,0.015495,0.10,-2.07,10.25
54560343,0.044191,-0.044341,0.008038,0.78,0.56,9.26
54561353,0.010102,-0.035818,0.006973,-1.00,-0.81,8.44
54562370,-0.027182,-0.004925,0.010169,0.12,-2.20,7.77
54563395,0.016494,-0.008121,0.004842,0.73,0.50,8.70
54564385,-0.008007,-0.004925,0.006973,-0.88,-0.33,9.22
54565392,-0.033574,0.017446,0.006973,0.35,-1.16,8.89
54566402,-0.002681,0.022772,0.003777,0.53,0.75,10.28
54567423,-0.011203,0.015315,0.003777,-1.12,-0.71,10.04
54568422,-0.001616,-0.009186,0.004842,0.22,-0.32,10.15
54569432,0.042061,-0.031557,0.004842,0.93,1.01,9.43
54570442,0.030343,-0.011317,0.003777,-0.87,-0.60,7.49
54571452,0.020755,0.020642,0.006973,-0.07,0.24,8.88
54572469,0.051648,0.015315,0.008038,0.72,0.67,9.30
54573495,0.011168,0.007858,0.004842,-0.78,-0.05,8.65
54574487,-0.029313,0.025968,0.002712,-0.07,0.51,10.03
54575493,0.015429,0.016380,-0.002615,1.02,0.66,10.93
54576503,0.020755,0.005728,-0.010072,-0.53,0.68,10.93
54577524,-0.006942,0.011054,-0.012202,-0.42,0.27,10.67
54578523,0.014364,-0.009186,-0.018594,1.14,0.41,10.10
54579533,0.006907,-0.026231,-0.024986,0.03,0.99,9.11
54580543,-0.039966,0.009989,-0.018594,-0.27,-0.22,7.83
54581553,-0.031443,0.032360,-0.017529,0.84,0.47,9.96
54582587,-0.029313,0.018511,-0.017529,-0.28,1.13,10.94
54583575,-0.016530,-0.002795,-0.007941,0.04,-0.61,10.09
54584582,0.001580,-0.009186,-0.009006,0.82,1.04,11.76
54585592,-0.020791,-0.005990,-0.006876,-0.13,0.62,10.91
54586602,-0.018660,0.007858,0.003777,-0.35,-1.24,10.19
54587623,0.026082,-0.017709,0.009103,0.46,0.64,11.38
54588622,0.050583,-0.057124,0.010169,0.15,0.24,9.12
54589632,0.010102,-0.029427,0.015495,-0.63,-1.12,7.64
54590642,-0.000550,0.016380,0.020821,0.03,-0.18,9.91
54591652,0.014364,0.032360,0.024017,-0.23,-0.19,11.42
54592694,-0.008007,0.007858,0.025083,-0.57,-1.34,11.65
54593685,0.007972,-0.044341,0.021887,0.35,-1.08,12.55
54594691,0.040996,-0.058189,0.012299,0.26,-0.48,10.76
54595699,0.000515,0.003597,0.005908,-0.72,-1.17,9.90
54596709,0.000515,0.031294,0.001646,-0.03,-1.83,9.92
54597732,0.021821,0.005728,-0.002615,0.15,-0.76,8.35
54598728,-0.000550,-0.000664,-0.005811,-0.73,-1.17,8.73
54599747,0.004776,0.022772,-0.006876,-0.04,-2.05,9.82
54600749,-0.001616,0.043012,-0.012202,0.12,-0.13,10.71
54601763,-0.044227,0.051535,-0.013268,-0.86,-0.87,11.54
54602800,-0.005877,0.018511,-0.012202,0.06,-2.19,11.06
54603786,0.055910,-0.039014,-0.013268,0.60,0.24,9.09
54604799,0.023951,-0.040079,-0.012202,-0.82,-0.45,8.55
54605800,-0.011203,0.007858,-0.009006,0.35,-1.94,6.86
54606807,-0.008007,0.029164,-0.013268,0.16,0.24,8.35
54607831,-0.006942,-0.001729,-0.011137,-0.66,-0.38,9.78
54608829,0.017559,-0.039014,-0.006876,0.82,-0.29,9.02
54609838,-0.010138,-0.032622,-0.012202,0.28,1.31,10.55
54610868,-0.043162,0.013185,-0.007941,-0.55,-0.98,9.44
54611856,-0.022921,0.035556,-0.004745,0.07,0.12,9.90
54612891,0.007972,-0.018774,-0.002615,0.11,0.95,9.74
54613884,0.006907,-0.058189,0.002712,-0.17,-0.35,7.84
54614888,-0.002681,-0.032622,0.013364,0.29,0.13,7.85
54615897,0.006907,0.014250,0.017626,0.46,0.78,9.04
54616906,0.001580,0.039817,0.024017,-0.40,-0.31,9.43
54617924,-0.019725,0.019576,0.024017,-0.39,0.08,11.03
54618923,0.014364,-0.042210,0.021887,0.78,0.13,10.48
54619933,0.042061,-0.045406,0.018691,-0.11,-0.57,8.86
54620943,0.011168,0.023837,0.016560,-0.30,0.70,10.25
54621953,0.025016,0.031294,0.011234,0.58,-0.34,9.28
54622987,0.016494,-0.008121,0.008038,-0.41,0.30,9.21
54623975,-0.015464,-0.031557,0.003777,-0.28,0.06,9.47
54624982,0.016494,-0.031557,-0.004745,0.98,0.03,10.52
54625992,-0.003746,-0.003860,-0.017529,-0.13,1.13,11.12
54627002,-0.052749,0.030229,-0.020725,-0.89,-0.65,10.30
54628023,0.001580,0.011054,-0.022855,0.77,0.06,10.99
54629022,0.015429,-0.041145,-0.024986,0.33,1.72,10.14
54630032,-0.033574,-0.026231,-0.024986,-0.73,-0.99,7.80
54631042,-0.015464,0.027033,-0.024986,0.65,0.24,10.08
54632052,-0.025052,0.048339,-0.026051,0.09,1.75,10.65
54633087,-0.050619,0.033425,-0.017529,-0.83,-1.20,9.10
54634077,-0.015464,0.017446,-0.006876,0.74,0.43,11.67
54635083,0.000515,0.006793,-0.000484,0.47,1.36,11.95
54636093,-0.002681,0.012119,0.005908,-0.71,-1.61,9.96
54637103,0.021821,0.002532,0.010169,0.50,-0.39,11.31
54638124,0.036734,-0.019839,0.009103,0.38,0.81,10.49
54639123,0.007972,-0.013447,0.018691,-0.56,-1.38,8.63
54640133,-0.000550,-0.005990,0.024017,0.48,-1.07,10.04
54641143,-0.000550,0.000401,0.018691,0.09,-0.32,10.48
54642153,-0.018660,0.008923,0.018691,-0.53,-1.67,9.80
54643187,-0.008007,0.012119,0.014430,0.32,-0.94,10.45
54644175,0.007972,-0.000664,0.006973,-0.03,-0.51,10.66
54645182,0.007972,0.004662,0.011234,-0.78,-1.69,10.58
54646192,0.013298,-0.005990,0.014430,-0.09,-1.16,11.29
54647202,0.026082,-0.040079,0.012299,0.35,-0.64,9.18
54648223,-0.015464,-0.014513,0.011234,-0.51,-1.16,8.38
54649222,-0.023987,0.027033,0.010169,-0.32,-1.73,7.92
54650232,0.009037,0.039817,0.009103,-0.04,-0.54,8.94
54651242,-0.006942,0.024903,0.003777,-0.90,-0.99,10.19
54652252,-0.003746,-0.015578,-0.000484,-0.04,-1.69,10.65
54653287,0.029278,0.001467,-0.005811,-1.03,-0.73,9.23
54654277,0.030343,0.017446,-0.009006,-0.12,-1.57,8.64
54655283,0.055910,-0.010252,-0.014333,0.67,0.38,7.74
54656293,0.032473,-0.018774,-0.020725,-0.97,-0.25,7.56
54657303,0.001580,0.013185,-0.019659,0.29,-0.58,8.70
54658324,0.013298,0.027033,-0.019659,0.91,1.27,9.76
54659323,-0.026117,0.030229,-0.020725,-1.12,-0.15,9.84
54660333,-0.036770,0.029164,-0.015398,0.20,-0.12,11.02
54661343,0.025016,-0.010252,-0.014333,1.38,1.51,10.49
54662353,0.017559,-0.035818,-0.015398,-0.62,0.35,8.69
54663387,-0.032509,0.006793,-0.011137,0.29,0.23,7.57
54664375,-0.016530,0.034490,-0.011137,0.63,1.03,9.07
54665382,-0.009073,0.011054,-0.007941,-0.69,0.96,9.87
54666392,0.010102,-0.023035,0.000581,0.51,0.03,9.31
54667402,0.015429,-0.021970,-0.001549,0.69,1.49,10.99
54668423,-0.020791,0.012119,0.005908,-0.15,0.77,10.61
54669422,-0.019725,0.036621,0.015495,-0.07,-0.15,10.76
54670432,0.033539,-0.007056,0.017626,0.44,1.21,11.57
54671442,0.056975,-0.052863,0.018691,-0.05,0.08,9.09
54672452,0.019690,-0.028361,0.020821,-0.12,-0.02,7.98
54673487,0.015429,0.014250,0.022952,0.47,0.20,9.23
54674477,0.021821,0.039817,0.021887,-0.06,0.07,10.65
54675483,0.001580,0.016380,0.017626,-0.39,-0.76,11.07
54676493,0.012233,-0.037949,0.013364,0.53,-0.50,12.19
54677503,0.015429,-0.044341,0.006973,0.48,0.19,11.07
54678524,-0.017595,0.023837,0.002712,-0.65,-1.15,9.63
54679523,0.002646,0.041947,-0.004745,0.14,-1.00,10.46
54680533,0.006907,0.002532,-0.014333,-0.03,0.02,8.89
54681543,-0.015464,-0.012382,-0.017529,-0.82,-1.52,8.25
54682553,0.004776,0.007858,-0.016463,0.33,-0.71,11.21
54683587,-0.006942,0.029164,-0.014333,0.07,0.59,11.63
54684575,-0.052749,0.045143,-0.009006,-1.02,-1.72,11.05
54685582,-0.022921,0.014250,-0.010072,0.15,-1.26,12.18
54686592,0.040996,-0.054993,-0.019659,0.36,0.80,10.48
54687602,0.019690,-0.057124,-0.019659,-0.56,-0.71,9.05
54688623,-0.011203,-0.003860,-0.017529,0.40,-1.31,7.74
54689622,-0.013334,0.037686,-0.019659,-0.36,0.21,9.87
54690632,-0.013334,0.011054,-0.014333,-0.68,-1.30,10.86
54691642,0.030343,-0.045406,-0.010072,0.89,-0.43,9.69
54692676,0.026082,-0.030492,-0.009006,0.20,0.77,10.83
54693686,-0.023987,0.040882,0.000581,-0.46,-1.90,8.73
54694677,-0.009073,0.065383,0.002712,-0.10,-0.18,10.02
54695692,0.027147,0.008923,0.004842,0.10,-0.04,9.82
54696710,0.018625,-0.027296,0.016560,-0.22,-1.75,8.14
54697710,0.020755,-0.016643,0.022952,0.09,-0.55,9.13
54698726,0.032473,0.009989,0.030409,0.45,-0.44,9.03
54699728,0.007972,0.043012,0.032540,-0.33,-0.68,9.16
54700743,0.010102,0.050469,0.033605,-0.01,-0.81,8.98
54701750,0.021821,0.029164,0.035735,0.36,-0.76,9.02
54702795,0.036734,0.005728,0.031474,-0.74,-1.06,9.58
54703784,0.059105,-0.012382,0.021887,-0.04,-0.56,10.66
54704782,0.053779,-0.027296,0.014430,0.80,-0.14,9.08
54705795,0.012233,-0.024100,0.005908,-0.87,-0.87,7.76
54706836,-0.019725,-0.013447,0.000581,0.18,-0.09,7.95
54707817,-0.014399,-0.017709,-0.013268,0.40,0.18,8.94
54708831,-0.033574,-0.002795,-0.022855,-0.74,0.66,9.88
54709830,-0.044227,0.005728,-0.024986,0.28,0.03,9.52
54710838,-0.023987,-0.003860,-0.033508,0.22,1.14,10.95
54711846,-0.009073,-0.012382,-0.033508,-0.20,0.95,10.34
54712882,-0.004811,-0.001729,-0.027116,-0.12,0.47,10.81
54713899,0.018625,-0.018774,-0.024986,0.31,1.26,10.42
54714877,0.019690,-0.026231,-0.022855,-0.16,0.51,8.15
54715888,-0.020791,0.023837,-0.015398,0.05,0.93,7.89
54716909,-0.004811,0.062188,-0.007941,0.68,0.52,9.20
54717904,0.010102,0.062188,-0.001549,-0.07,0.97,10.96
54718918,0.020755,0.015315,0.004842,-0.02,0.37,11.29
54719921,0.052714,-0.020904,0.013364,0.88,0.11,11.94
54720931,0.051648,-0.010252,0.013364,0.43,0.67,11.32
54721941,0.028212,0.012119,0.011234,-0.50,-0.95,9.34
54722984,0.047387,-0.005990,0.013364,0.53,-0.52,9.95
54723978,0.039930,-0.028361,0.011234,0.42,0.80,8.85
54724975,-0.004811,-0.004925,0.013364,-0.38,-1.09,8.04
54725996,-0.021856,0.021707,0.010169,0.51,-0.66,10.62
54726993,-0.032509,0.032360,0.004842,-0.19,0.21,11.67
54728002,-0.030378,0.024903,0.008038,-0.53,-1.32,11.40
54729019,-0.012268,-0.001729,0.002712,0.27,-0.28,11.90
54730022,-0.008007,-0.027296,-0.006876,-0.23,-0.03,10.77
54731032,-0.002681,-0.018774,-0.004745,-0.63,-1.43,9.97
54732042,0.010102,-0.011317,-0.002615,-0.10,-0.54,10.90
54733082,0.025016,-0.029427,-0.002615,0.02,-0.35,8.46
54734078,-0.014399,-0.007056,-0.001549,-0.51,-1.40,7.56
54735073,-0.011203,0.032360,0.000581,-0.17,-0.97,9.24
54736095,0.014364,0.058992,0.002712,-0.20,-0.34,11.52
54737092,-0.000550,0.038751,0.000581,-0.54,-1.10,12.65
54738101,0.022886,-0.028361,0.000581,0.23,-1.44,12.22
54739118,0.062301,-0.058189,-0.000484,0.45,-0.61,9.68
54740121,0.044191,-0.020904,-0.003680,-0.58,-0.81,8.70
54741131,0.028212,0.016380,-0.000484,0.12,-2.00,7.51
54742141,0.006907,0.019576,0.000581,0.40,-0.42,7.65
54743184,-0.015464,0.008923,-0.001549,-0.32,-0.36,8.76
54744178,-0.020791,0.015315,-0.002615,0.37,-1.02,9.07
54745175,-0.047423,0.027033,-0.007941,0.19,0.36,11.09
54746196,-0.057010,0.032360,-0.005811,-0.85,-1.12,10.96
54747193,-0.025052,0.013185,-0.004745,-0.09,-0.79,11.04
54748202,0.033539,-0.045406,-0.006876,0.61,0.55,8.94
54749219,0.034604,-0.054993,-0.004745,-0.53,-0.45,6.87
54750222,0.000515,-0.004925,0.002712,0.06,-0.37,6.49
54751232,0.003711,0.030229,0.003777,0.25,0.52,7.82
54752242,-0.020791,0.029164,0.003777,-0.89,-0.24,9.22
54753282,-0.029313,-0.007056,0.002712,0.24,-0.02,10.78
54754278,0.027147,-0.001729,-0.001549,-0.60,-0.16,10.78
54755273,0.023951,0.014250,-0.003680,-0.24,0.06,10.63
54756295,0.059105,-0.021970,-0.005811,0.87,0.32,8.85
54757292,0.045257,-0.043275,-0.010072,-0.34,0.11,7.00
54758301,-0.001616,-0.005990,-0.005811,0.25,0.21,6.89
54759318,-0.014399,0.033425,-0.004745,0.62,0.53,9.47
54760321,-0.047423,0.051535,-0.006876,-0.57,1.14,11.81
54761331,-0.031443,0.029164,-0.004745,0.24,-0.15,11.82
54762341,-0.004811,-0.014513,-0.009006,0.60,1.03,12.43
54763384,-0.009073,-0.033688,-0.007941,-0.04,1.02,10.57
54764378,0.000515,-0.003860,-0.000484,-0.18,-0.30,9.34
54765375,0.020755,0.002532,0.003777,0.21,0.87,9.80
54766396,0.013298,-0.024100,0.003777,-0.23,0.37,7.87
54767393,-0.023987,-0.010252,0.006973,-0.25,-0.24,7.64
54768402,-0.016530,0.028099,0.009103,0.35,0.37,10.32
54769419,0.010102,0.053665,0.014430,-0.09,0.24,12.52
54770422,0.005841,0.027033,0.014430,-0.23,-0.59,12.30
54771432,0.019690,-0.031557,0.010169,0.32,-0.34,12.32
54772442,0.047387,-0.051798,0.005908,0.36,-0.14,10.20
54773482,0.033539,-0.009186,0.003777,-0.55,-0.98,8.61
54774478,0.039930,0.017446,0.002712,0.11,-0.96,9.32
54775473,0.019690,0.014250,0.000581,0.23,-0.17,8.73
54776495,-0.025052,0.017446,-0.001549,-0.67,-1.37,9.24
54777492,-0.011203,0.018511,-0.002615,0.32,-1.27,11.89
