time_us,gyro_x_rad_s,gyro_y_rad_s,gyro_z_rad_s,acc_x_m_s2,acc_y_m_s2,acc_z_m_s2
226780602,-0.001470,-0.000904,0.000043,0.01,-0.26,9.83
226781332,-0.002535,-0.001970,0.001109,0.03,-0.27,9.88
226782294,-0.002535,-0.001970,0.003239,0.02,-0.26,9.85
226783314,-0.003601,0.000161,0.002174,0.02,-0.24,9.86
226784317,-0.003601,0.001226,0.002174,0.03,-0.28,9.91
226785332,-0.001470,0.001226,0.003239,0.04,-0.28,9.88
226786334,0.000660,0.002291,0.001109,0.04,-0.25,9.79
226787345,0.002791,0.001226,-0.001022,0.02,-0.23,9.76
226788354,0.001726,-0.000904,-0.002087,0.03,-0.26,9.82
226789365,0.003856,-0.001970,-0.002087,0.03,-0.27,9.86
226790380,0.004921,0.001226,-0.002087,0.01,-0.27,9.83
226791385,0.001726,0.003357,-0.003153,0.00,-0.26,9.79
226792394,-0.001470,0.002291,-0.001022,0.01,-0.27,9.81
226793414,-0.002535,0.001226,0.001109,-0.01,-0.28,9.86
226794417,-0.000405,0.000161,0.000043,0.00,-0.28,9.86
226795431,0.001726,0.000161,-0.001022,0.02,-0.31,9.82
226796434,0.000660,-0.000904,0.000043,0.00,-0.28,9.84
226797445,-0.001470,-0.000904,0.001109,0.02,-0.27,9.87
226798454,-0.003601,0.000161,0.001109,0.02,-0.29,9.86
226799465,-0.003601,0.001226,0.001109,0.02,-0.27,9.84
226800481,-0.001470,0.001226,0.000043,0.03,-0.27,9.85
226801478,0.000660,0.001226,0.001109,0.04,-0.26,9.86
226802487,0.001726,0.003357,0.002174,0.03,-0.25,9.87
226803507,0.000660,0.005487,0.002174,0.03,-0.28,9.88
226804510,0.000660,0.005487,0.000043,0.05,-0.31,9.86
226805525,0.000660,0.004422,-0.001022,0.03,-0.31,9.87
226806527,-0.001470,0.002291,-0.002087,0.02,-0.30,9.88
226807538,-0.001470,0.000161,-0.003153,0.02,-0.31,9.86
226808547,-0.000405,-0.000904,-0.003153,0.03,-0.29,9.80
226809558,0.001726,0.000161,-0.001022,0.04,-0.27,9.75
226810583,0.003856,0.001226,0.001109,0.04,-0.28,9.82
226811580,0.003856,0.001226,0.003239,0.03,-0.29,9.86
226812597,0.001726,0.000161,0.001109,0.01,-0.29,9.83
226813615,-0.002535,0.000161,0.000043,0.02,-0.30,9.84
226814619,-0.003601,0.001226,-0.001022,0.04,-0.29,9.86
226815631,-0.002535,0.003357,-0.002087,0.05,-0.28,9.82
226816636,-0.001470,0.003357,-0.003153,0.02,-0.27,9.81
226817648,-0.001470,0.002291,-0.001022,0.03,-0.25,9.86
226818656,0.001726,0.001226,0.001109,0.03,-0.25,9.85
226819667,0.002791,0.000161,0.002174,0.02,-0.28,9.84
226820682,0.000660,-0.000904,0.003239,0.03,-0.28,9.83
226821689,0.000660,-0.001970,0.002174,0.01,-0.27,9.84
226822697,-0.000405,-0.001970,0.000043,0.02,-0.27,9.87
226823728,-0.000405,-0.000904,-0.001022,0.04,-0.28,9.85
226824718,0.001726,0.000161,-0.002087,0.05,-0.29,9.81
226825736,0.001726,-0.000904,-0.001022,0.04,-0.27,9.81
226826736,0.001726,-0.000904,-0.001022,0.04,-0.27,9.88
226827750,0.002791,0.002291,-0.002087,0.06,-0.29,9.91
226828753,0.001726,0.002291,-0.002087,0.05,-0.27,9.86
226829784,0.001726,0.000161,-0.002087,0.06,-0.26,9.81
226830792,0.003856,-0.000904,-0.001022,0.04,-0.25,9.83
226831780,0.003856,0.001226,-0.002087,0.05,-0.28,9.82
226832787,0.000660,0.001226,-0.002087,0.02,-0.24,9.83
226833812,-0.001470,0.001226,-0.002087,0.01,-0.21,9.78
226834815,-0.002535,0.001226,-0.001022,0.03,-0.27,9.78
226835828,-0.001470,-0.000904,-0.001022,0.04,-0.27,9.85
226836829,0.000660,-0.001970,-0.002087,0.04,-0.27,9.89
226837842,-0.000405,-0.000904,-0.003153,0.00,-0.28,9.85
226838847,-0.000405,0.001226,-0.004218,-0.01,-0.28,9.83
226839858,-0.000405,0.000161,-0.003153,0.02,-0.28,9.87
226840874,-0.002535,0.000161,-0.001022,0.02,-0.30,9.84
226841878,-0.002535,0.001226,0.001109,0.02,-0.30,9.82
226842899,-0.001470,0.000161,0.002174,0.02,-0.25,9.84
226843900,-0.001470,-0.001970,0.004304,0.01,-0.25,9.79
226844908,-0.002535,-0.001970,0.004304,0.02,-0.28,9.79
226845924,-0.002535,-0.001970,0.003239,0.04,-0.28,9.80
226846928,-0.003601,-0.000904,0.000043,0.04,-0.28,9.82
226847937,-0.001470,-0.001970,-0.002087,0.02,-0.28,9.85
226848948,0.001726,-0.001970,-0.003153,0.04,-0.27,9.82
226849957,0.002791,0.000161,-0.002087,0.05,-0.24,9.79
226850974,0.001726,0.002291,0.000043,0.01,-0.24,9.81
226851977,0.001726,0.003357,0.002174,-0.01,-0.28,9.89
226852999,0.001726,0.004422,0.001109,-0.01,-0.29,9.87
226854000,0.002791,0.002291,-0.001022,0.01,-0.28,9.82
226855008,0.001726,0.001226,-0.002087,0.03,-0.29,9.80
226856023,0.000660,0.000161,-0.002087,0.01,-0.28,9.81
226857028,0.000660,0.000161,0.000043,0.00,-0.23,9.81
226858037,0.000660,-0.000904,0.000043,0.00,-0.22,9.82
226859077,0.000663,-0.002020,0.000077,0.00,-0.26,9.88
226860057,-0.000402,-0.003085,-0.000988,0.03,-0.28,9.83
226861075,-0.002533,-0.002020,-0.000988,0.06,-0.28,9.81
226862077,-0.000402,-0.000955,-0.000988,0.04,-0.28,9.84
226863099,0.000663,-0.000955,-0.002053,0.01,-0.31,9.82
226864100,0.001728,0.000110,-0.002053,0.02,-0.31,9.82
226865108,0.000663,0.002241,0.000077,0.02,-0.26,9.87
226866124,-0.000402,0.001176,0.000077,-0.02,-0.28,9.89
226867128,-0.000402,-0.002020,-0.000988,-0.01,-0.30,9.86
226868137,-0.000402,-0.004151,-0.000988,0.02,-0.28,9.85
226869148,-0.001468,-0.003085,0.000077,0.02,-0.30,9.82
226870157,-0.001468,0.000110,0.001142,0.04,-0.27,9.79
226871174,-0.001468,0.001176,0.000077,0.05,-0.24,9.83
226872177,-0.003598,0.001176,-0.002053,0.00,-0.25,9.79
226873199,-0.003598,0.001176,-0.003119,-0.01,-0.28,9.75
226874200,-0.001468,0.001176,-0.000988,0.03,-0.28,9.78
226875208,-0.001468,0.002241,0.000077,0.03,-0.26,9.79
226876223,-0.001468,0.002241,-0.000988,0.01,-0.25,9.80
226877228,-0.001468,0.001176,-0.000988,0.03,-0.27,9.83
226878237,0.001728,0.001176,0.000077,0.04,-0.28,9.82
226879248,0.000663,-0.000955,0.001142,0.03,-0.29,9.79
226880257,-0.000402,-0.000955,0.001142,0.06,-0.28,9.76
226881275,0.000663,-0.000955,0.000077,0.07,-0.26,9.80
226882277,-0.000402,0.000110,-0.000988,0.04,-0.29,9.82
226883299,-0.002533,0.000110,-0.000988,0.02,-0.30,9.83
226884300,-0.001468,0.002241,0.000077,0.01,-0.27,9.83
226885308,-0.000402,0.002241,0.001142,0.01,-0.24,9.81
226886324,0.002794,0.000110,0.002208,0.04,-0.25,9.83
226887328,0.003859,-0.000955,0.003273,0.05,-0.27,9.81
226888337,0.002794,0.000110,0.003273,0.04,-0.27,9.84
226889348,0.000663,-0.000955,0.001142,0.03,-0.28,9.88
226890357,-0.000402,-0.002020,0.000077,0.01,-0.29,9.84
226891374,-0.001468,-0.002020,-0.002053,0.04,-0.27,9.82
226892377,-0.000402,-0.002020,-0.003119,0.09,-0.26,9.86
226893399,0.000663,-0.002020,-0.002053,0.04,-0.26,9.86
226894400,-0.000402,-0.000955,0.001142,0.02,-0.28,9.78
226895408,-0.000402,-0.002020,0.001142,0.04,-0.27,9.80
226896423,0.001728,-0.002020,-0.000988,0.04,-0.27,9.87
226897428,0.001728,0.000110,0.000077,0.03,-0.28,9.86
226898437,-0.000402,0.001176,0.000077,0.02,-0.28,9.82
226899448,-0.001468,0.002241,0.000077,0.05,-0.31,9.82
226900457,0.000663,0.002241,0.001142,0.05,-0.29,9.81
226901475,0.001728,0.002241,0.001142,0.04,-0.27,9.83
226902477,0.003859,0.002241,0.001142,0.03,-0.27,9.83
226903499,0.002794,0.002241,0.000077,0.04,-0.30,9.78
226904500,-0.000402,0.001176,-0.000988,0.02,-0.26,9.81
226905508,-0.002533,0.000110,0.000077,0.01,-0.21,9.84
226906524,-0.002533,0.000110,0.000077,0.02,-0.25,9.86
226907528,-0.001468,-0.000955,0.000077,0.01,-0.24,9.86
226908537,-0.001468,-0.003085,0.000077,0.00,-0.26,9.88
226909548,-0.000402,-0.004151,0.000077,0.03,-0.30,9.88
226910557,0.000663,-0.004151,0.000077,0.03,-0.30,9.84
226911580,0.001728,-0.002020,0.000077,0.02,-0.30,9.80
226912581,0.000663,0.000110,0.002208,0.01,-0.29,9.78
226913607,-0.000402,0.001176,0.004338,-0.01,-0.27,9.77
226914605,-0.002533,0.002241,0.003273,0.00,-0.26,9.81
226915615,-0.003598,0.001176,0.002208,0.01,-0.29,9.82
226916631,-0.002533,0.000110,0.002208,0.03,-0.32,9.82
226917633,-0.001468,-0.000955,0.002208,0.05,-0.28,9.82
226918646,-0.000402,-0.002020,0.003273,0.07,-0.25,9.78
226919657,0.001728,-0.000955,0.001142,0.08,-0.27,9.79
226920668,-0.000402,0.000110,-0.002053,0.06,-0.28,9.83
226921683,-0.000402,0.001176,-0.002053,0.03,-0.27,9.85
226922687,0.000663,0.001176,-0.000988,0.02,-0.27,9.82
226923713,0.000663,-0.000955,-0.000988,0.03,-0.26,9.84
226924713,0.000663,-0.002020,-0.000988,0.05,-0.25,9.87
226925722,0.001728,-0.000955,-0.000988,0.04,-0.23,9.83
226926733,0.001728,0.001176,-0.000988,0.00,-0.25,9.82
226927740,0.000663,0.001176,-0.000988,0.02,-0.27,9.84
226928746,-0.000402,-0.000955,-0.000988,0.00,-0.27,9.85
226929755,0.000663,-0.002020,-0.002053,-0.02,-0.27,9.86
226930766,0.000663,0.001176,-0.003119,0.01,-0.30,9.86
226931815,-0.001468,0.003306,0.000077,0.01,-0.27,9.80
226932807,-0.001468,0.002241,0.000077,0.02,-0.28,9.88
226933791,-0.001468,0.001176,0.001142,0.06,-0.28,9.87
226934802,-0.001468,0.001176,0.001142,0.07,-0.26,9.83
226935811,-0.000402,0.002241,0.000077,0.03,-0.25,9.82
226936828,0.000663,0.001176,-0.000988,0.00,-0.28,9.82
226937829,0.000663,0.000110,0.000077,0.03,-0.27,9.82
226938842,-0.000402,0.000110,0.001142,0.02,-0.28,9.85
226939847,-0.001468,0.001176,0.001142,0.01,-0.29,9.84
226940858,-0.000402,0.002241,-0.000988,0.02,-0.29,9.84
226941874,-0.000402,0.002241,-0.002053,0.03,-0.29,9.85
226942887,-0.002533,0.001176,-0.000988,0.03,-0.28,9.82
226943890,-0.002533,0.001176,0.002208,0.02,-0.29,9.84
226944898,-0.000402,0.002241,0.001142,0.02,-0.29,9.85
226945907,0.001728,0.002241,-0.002053,0.00,-0.28,9.83
226946952,0.003859,0.000110,-0.002053,-0.01,-0.28,9.88
226947941,0.003859,-0.002020,0.001142,0.03,-0.25,9.87
226948951,0.002794,-0.002020,0.002208,0.04,-0.27,9.83
226949947,0.000663,0.000110,0.000077,0.02,-0.25,9.83
226950969,-0.001468,0.002241,-0.004184,0.04,-0.26,9.80
226951982,-0.001468,0.002241,-0.003119,0.03,-0.28,9.85
226952989,0.001728,-0.000955,-0.002053,0.00,-0.27,9.84
226953990,0.002794,-0.003085,-0.000988,-0.02,-0.31,9.84
226954998,0.000663,-0.002020,0.000077,-0.01,-0.33,9.90
226956007,-0.003598,-0.002020,0.001142,0.00,-0.29,9.90
226957024,-0.006794,-0.000955,0.002208,-0.03,-0.28,9.90
226958027,-0.004663,-0.000955,0.002208,0.00,-0.30,9.87
226959038,-0.003598,-0.000955,0.000077,0.00,-0.26,9.86
226960047,-0.001468,-0.000955,-0.000988,0.01,-0.23,9.83
226961058,0.000663,0.000110,-0.000988,0.04,-0.24,9.81
226962074,0.001728,0.002241,0.000077,0.01,-0.27,9.84
226963089,0.000663,0.003306,0.000077,0.01,-0.31,9.85
226964090,-0.000402,0.000110,0.000077,0.02,-0.28,9.89
226965098,-0.002533,-0.002020,-0.000988,0.02,-0.23,9.88
226966107,-0.002533,-0.002020,-0.000988,0.04,-0.24,9.87
226967125,-0.002533,0.002241,0.002208,0.04,-0.29,9.91
226968127,-0.000402,0.005437,0.002208,0.02,-0.29,9.91
226969138,0.001728,0.004372,0.002208,0.02,-0.27,9.85
226970147,0.000663,0.003306,0.001142,0.03,-0.30,9.85
226971158,0.000663,0.002241,0.000077,0.03,-0.31,9.83
226972173,0.001728,0.001176,0.000077,0.00,-0.29,9.82
226973189,0.002794,0.000110,-0.000988,0.00,-0.27,9.84
226974190,0.002794,-0.000955,-0.000988,0.02,-0.28,9.86
226975198,0.001728,-0.000955,-0.000988,0.04,-0.30,9.87
226976207,-0.000402,0.000110,-0.000988,0.03,-0.30,9.90
226977224,-0.001468,0.002241,-0.000988,0.03,-0.27,9.89
226978227,-0.001468,0.001176,-0.000988,0.03,-0.25,9.83
226979238,-0.000402,-0.000955,-0.002053,0.04,-0.23,9.79
226980247,0.002794,-0.000955,0.000077,0.04,-0.23,9.79
226981258,0.003859,0.000110,0.002208,0.04,-0.26,9.80
226982274,0.001728,0.001176,0.001142,0.04,-0.28,9.86
226983289,0.000663,0.000110,-0.000988,0.05,-0.29,9.89
226984290,-0.000402,-0.002020,-0.002053,0.04,-0.27,9.87
226985298,0.000663,-0.003085,-0.000988,0.03,-0.25,9.84
226986307,0.001728,-0.002020,0.000077,0.04,-0.27,9.80
226987325,0.000663,-0.000955,0.001142,0.07,-0.30,9.80
226988353,-0.000388,0.001163,0.000084,0.07,-0.31,9.83
226989338,-0.000388,0.003294,-0.002047,0.05,-0.29,9.85
226990347,0.001743,0.002229,-0.000981,0.03,-0.28,9.85
226991358,0.001743,0.000098,0.000084,0.03,-0.29,9.84
226992373,0.001743,-0.000967,0.002214,0.04,-0.29,9.86
226993389,-0.001453,0.000098,0.003280,0.03,-0.28,9.86
226994390,-0.002518,0.002229,0.001149,0.01,-0.30,9.86
226995398,-0.000388,0.002229,-0.000981,0.01,-0.32,9.90
226996407,0.000677,0.001163,-0.000981,0.03,-0.31,9.88
226997424,0.002808,-0.002032,0.000084,0.03,-0.29,9.84
226998427,0.001743,-0.002032,0.000084,0.06,-0.28,9.85
226999438,-0.000388,0.000098,0.002214,0.06,-0.25,9.82
227000447,-0.000388,-0.000967,0.002214,0.02,-0.27,9.79
227001458,-0.000388,-0.002032,0.002214,0.02,-0.29,9.83
227002474,-0.001453,-0.002032,0.002214,0.06,-0.26,9.84
227003489,-0.001453,-0.002032,0.002214,0.06,-0.24,9.82
227004490,-0.001453,-0.002032,0.003280,0.04,-0.26,9.78
227005498,0.000677,-0.002032,0.001149,0.03,-0.26,9.84
227006507,0.000677,-0.002032,0.000084,0.03,-0.29,9.90
227007525,-0.000388,0.000098,0.001149,0.04,-0.31,9.86
227008527,-0.001453,0.001163,0.001149,0.06,-0.28,9.82
227009538,-0.000388,0.000098,-0.000981,0.04,-0.26,9.79
227010547,-0.001453,0.001163,-0.000981,0.00,-0.26,9.78
227011558,0.000677,0.003294,-0.002047,-0.01,-0.29,9.80
227012579,0.000677,0.003294,-0.002047,0.03,-0.28,9.85
227013594,-0.000388,0.002229,-0.002047,0.07,-0.28,9.84
227014597,-0.000388,0.001163,-0.002047,0.04,-0.26,9.82
227015622,-0.000388,-0.000967,-0.002047,0.02,-0.24,9.81
227016614,-0.000388,0.000098,0.000084,0.02,-0.25,9.82
227017630,-0.001453,0.001163,0.001149,0.06,-0.24,9.86
227018632,0.000677,-0.002032,0.002214,0.06,-0.26,9.84
227019648,0.001743,-0.004163,0.002214,0.03,-0.28,9.82
227020656,0.000677,-0.003098,0.000084,0.03,-0.27,9.83
227021674,0.000677,-0.002032,-0.000981,0.04,-0.26,9.83
227022679,0.000677,-0.002032,0.000084,0.05,-0.26,9.79
227023697,0.000677,-0.002032,0.003280,0.02,-0.26,9.77
227024701,-0.000388,-0.003098,0.003280,0.01,-0.28,9.81
227025732,-0.000388,-0.002032,0.000084,0.04,-0.28,9.83
227026719,0.000677,0.000098,-0.003112,0.03,-0.28,9.82
227027753,0.000677,0.000098,-0.004177,0.01,-0.29,9.81
227028739,0.000677,0.000098,-0.002047,0.02,-0.29,9.80
227029746,-0.002518,0.000098,-0.002047,0.02,-0.28,9.83
227030756,-0.002518,0.001163,-0.003112,0.03,-0.29,9.87
227031767,-0.001453,0.001163,-0.003112,0.03,-0.28,9.86
227032777,-0.001453,-0.002032,-0.000981,0.03,-0.30,9.85
227033791,-0.000388,-0.003098,0.002214,0.03,-0.27,9.82
227034832,0.000677,-0.002032,0.002214,0.03,-0.26,9.82
227035818,0.000677,0.000098,0.001149,-0.01,-0.27,9.83
227036811,-0.001453,0.002229,0.001149,0.02,-0.26,9.86
227037828,-0.003584,0.003294,0.001149,0.03,-0.26,9.91
227038829,-0.001453,0.001163,0.001149,0.00,-0.27,9.87
227039842,0.000677,0.000098,0.000084,0.01,-0.26,9.84
227040847,0.000677,0.002229,0.000084,0.01,-0.26,9.85
227041858,0.000677,0.001163,-0.000981,0.00,-0.26,9.83
227042887,0.001743,-0.000967,0.000084,-0.01,-0.28,9.83
227043880,0.002808,0.000098,0.002214,-0.02,-0.30,9.86
227044888,0.001743,-0.000967,0.003280,0.01,-0.29,9.82
227045915,0.001743,-0.003098,0.003280,0.02,-0.25,9.83
227046907,0.001743,-0.004163,0.001149,0.04,-0.24,9.87
227047924,0.000677,0.000098,-0.000981,0.05,-0.29,9.86
227048927,-0.001453,0.002229,-0.003112,0.04,-0.30,9.85
227049938,-0.000388,0.002229,-0.002047,0.02,-0.29,9.86
227050947,-0.000388,0.002229,0.001149,0.02,-0.28,9.85
227051958,-0.000388,0.002229,0.001149,0.04,-0.27,9.82
227052986,-0.000388,0.002229,-0.000981,0.06,-0.25,9.84
227053980,0.000677,0.001163,0.000084,0.03,-0.25,9.82
227054988,-0.000388,-0.000967,0.001149,-0.01,-0.29,9.79
227056015,-0.000388,-0.002032,0.004345,0.00,-0.32,9.86
227057007,0.000677,-0.000967,0.003280,0.03,-0.31,9.86
227058024,0.001743,0.000098,0.002214,0.05,-0.30,9.80
227059027,0.000677,0.003294,0.002214,0.03,-0.27,9.84
227060038,-0.001453,0.003294,0.003280,0.02,-0.24,9.88
227061047,-0.002518,0.002229,0.003280,0.04,-0.27,9.87
227062058,-0.000388,0.001163,-0.000981,0.02,-0.30,9.82
227063087,0.000677,0.002229,-0.000981,0.02,-0.30,9.79
227064080,0.000677,0.003294,0.001149,0.01,-0.28,9.82
227065088,0.001743,0.003294,0.001149,-0.01,-0.27,9.81
227066115,0.001743,0.003294,0.000084,0.00,-0.29,9.79
227067107,0.001743,0.002229,-0.000981,0.02,-0.29,9.84
227068124,0.000677,0.001163,-0.002047,0.02,-0.28,9.87
227069127,-0.000388,0.000098,-0.003112,0.02,-0.27,9.87
227070138,-0.002518,0.000098,-0.002047,0.01,-0.27,9.89
227071147,-0.002518,0.003294,0.000084,0.04,-0.28,9.87
227072158,0.000677,0.004359,0.001149,0.06,-0.28,9.85
227073186,0.001743,0.002229,0.000084,0.04,-0.25,9.81
227074180,0.000677,0.000098,0.000084,0.03,-0.26,9.79
227075188,-0.000388,-0.002032,0.002214,0.05,-0.29,9.84
227076215,-0.000388,-0.002032,0.001149,0.04,-0.27,9.80
227077207,0.000677,0.000098,-0.000981,0.00,-0.28,9.76
227078224,0.001743,0.001163,-0.002047,0.01,-0.28,9.83
227079227,0.000677,0.000098,-0.003112,0.04,-0.27,9.84
227080238,-0.000388,0.000098,-0.002047,0.06,-0.28,9.80
227081247,-0.001453,0.000098,-0.000981,0.03,-0.27,9.81
227082258,-0.000388,-0.000967,0.001149,0.02,-0.24,9.82
227083287,-0.000388,0.001163,0.000084,0.04,-0.26,9.84
227084280,-0.002518,0.003294,0.000084,0.06,-0.30,9.83
227085288,-0.002518,0.002229,0.000084,0.06,-0.26,9.78
227086315,-0.001453,0.002229,0.001149,0.01,-0.28,9.78
227087307,0.000677,0.002229,0.002214,0.01,-0.28,9.85
227088324,0.000677,0.002229,0.000084,0.02,-0.27,9.88
227089327,-0.000388,0.003294,-0.003112,0.01,-0.31,9.85
227090338,-0.000388,0.003294,-0.003112,0.04,-0.32,9.82
227091347,0.000677,0.002229,-0.000981,0.06,-0.30,9.82
227092358,0.002808,0.002229,0.000084,0.03,-0.27,9.83
227093386,0.004939,0.003294,0.000084,0.02,-0.25,9.83
227094380,0.003873,0.004359,-0.000981,0.03,-0.28,9.82
227095388,0.000677,0.004359,-0.000981,0.01,-0.30,9.82
227096415,0.000677,0.002229,-0.000981,0.00,-0.28,9.85
227097407,0.001743,0.000098,-0.003112,0.05,-0.28,9.82
227098424,0.001743,-0.002032,-0.004177,0.07,-0.31,9.78
227099427,-0.000388,-0.000967,-0.002047,0.04,-0.30,9.85
227100438,-0.002518,0.000098,-0.000981,0.02,-0.28,9.86
227101447,-0.001453,0.000098,-0.000981,0.02,-0.27,9.81
227102458,0.000677,0.000098,-0.000981,0.01,-0.25,9.83
227103487,0.000677,-0.000967,-0.000981,0.04,-0.25,9.85
227104480,-0.000388,-0.003098,-0.000981,0.04,-0.28,9.80
227105488,-0.000388,-0.005228,0.001149,0.00,-0.28,9.80
227106515,0.000677,-0.004163,0.001149,0.02,-0.27,9.83
227107507,-0.000388,-0.002032,-0.000981,0.03,-0.28,9.84
227108524,-0.000388,-0.000967,-0.002047,0.02,-0.28,9.83
227109527,-0.000388,0.000098,-0.000981,0.03,-0.28,9.83
227110538,0.000677,0.003294,0.002214,0.04,-0.29,9.82
227111547,-0.000388,0.003294,0.002214,0.02,-0.31,9.77
227112558,0.000677,0.001163,0.000084,-0.01,-0.32,9.80
227113590,0.000677,-0.000967,-0.000981,-0.01,-0.28,9.85
227114582,-0.001453,-0.002032,-0.000981,0.00,-0.26,9.83
227115596,-0.000388,0.000098,-0.000981,-0.02,-0.26,9.82
227116621,-0.000388,0.002229,-0.003112,-0.02,-0.30,9.85
227117644,-0.000395,0.004308,-0.002044,0.00,-0.27,9.86
227118632,0.000670,0.003243,0.000087,0.00,-0.22,9.86
227119630,0.001735,0.002178,0.001152,0.03,-0.25,9.86
227120648,0.002801,0.001113,0.001152,0.03,-0.26,9.86
227121656,0.000670,0.002178,0.001152,0.02,-0.27,9.80
227122668,-0.001461,0.003243,0.001152,0.01,-0.26,9.82
227123692,-0.000395,0.004308,0.000087,-0.02,-0.27,9.87
227124687,0.000670,0.004308,-0.000978,0.00,-0.31,9.86
227125700,-0.000395,0.003243,0.000087,0.05,-0.29,9.82
227126727,-0.002526,0.001113,0.001152,0.05,-0.25,9.80
227127722,-0.002526,-0.001018,0.001152,0.05,-0.26,9.80
227128734,-0.002526,0.000047,0.001152,0.05,-0.30,9.83
227129736,-0.002526,0.001113,-0.000978,0.02,-0.32,9.82
227130759,-0.001461,0.001113,0.000087,0.02,-0.29,9.79
227131758,-0.000395,-0.001018,0.001152,0.02,-0.26,9.82
227132762,0.001735,0.000047,0.003283,-0.02,-0.28,9.85
227133791,0.000670,0.001113,0.001152,-0.02,-0.28,9.85
227134783,0.000670,0.001113,-0.002044,-0.01,-0.31,9.83
227135788,-0.001461,0.000047,-0.002044,0.00,-0.30,9.84
227136880,-0.003591,-0.001018,0.000087,0.03,-0.25,9.84
227137811,-0.003591,0.000047,0.001152,0.04,-0.28,9.86
227138828,-0.002526,0.002178,0.001152,0.02,-0.30,9.86
227139829,-0.002526,0.002178,0.001152,0.01,-0.30,9.84
227140842,-0.002526,0.002178,0.000087,0.02,-0.29,9.79
227141847,-0.002526,0.001113,-0.000978,0.02,-0.27,9.76
227142869,-0.000395,0.001113,0.000087,0.03,-0.29,9.82
227143877,0.001735,0.001113,0.000087,0.05,-0.31,9.85
227144878,0.003866,0.001113,-0.000978,0.03,-0.28,9.83
227145905,0.001735,0.001113,-0.002044,-0.01,-0.27,9.83
227146897,-0.001461,0.000047,-0.002044,0.02,-0.26,9.82
227147908,-0.004656,0.000047,-0.002044,0.04,-0.26,9.85
227148923,-0.003591,0.002178,-0.004174,0.03,-0.30,9.87
227149928,-0.002526,0.005374,-0.002044,0.03,-0.30,9.84
227150937,-0.001461,0.004308,0.000087,0.04,-0.28,9.84
227151948,-0.000395,0.003243,0.002217,0.06,-0.29,9.83
227152970,0.000670,0.001113,0.001152,0.05,-0.28,9.85
227153977,0.000670,0.001113,0.000087,0.03,-0.26,9.75
227154978,-0.001461,0.000047,0.000087,0.01,-0.27,9.74
227156005,-0.001461,0.000047,0.001152,0.01,-0.31,9.84
227156997,-0.001461,-0.001018,0.001152,0.02,-0.32,9.82
227158008,-0.002526,-0.002083,0.000087,0.02,-0.28,9.82
227159023,-0.002526,-0.003149,0.000087,0.02,-0.28,9.84
227160028,-0.002526,-0.003149,0.001152,0.01,-0.29,9.83
227161037,-0.003591,-0.003149,0.001152,0.02,-0.27,9.81
227162048,-0.001461,-0.003149,-0.000978,0.05,-0.23,9.79
227163070,0.000670,-0.003149,-0.003109,0.03,-0.24,9.82
227164077,0.000670,-0.002083,-0.004174,0.01,-0.26,9.86
227165078,-0.000395,-0.002083,-0.002044,0.01,-0.27,9.85
227166105,-0.002526,0.001113,-0.000978,0.04,-0.27,9.84
227167097,-0.004656,0.003243,-0.000978,0.04,-0.26,9.85
227168108,-0.003591,0.000047,-0.002044,0.01,-0.27,9.83
227169123,-0.001461,-0.004214,-0.002044,0.00,-0.28,9.80
227170128,0.000670,-0.003149,-0.002044,0.00,-0.27,9.81
227171137,0.000670,0.001113,-0.002044,0.02,-0.27,9.83
227172148,0.000670,0.003243,-0.000978,0.04,-0.26,9.86
227173171,0.002801,0.001113,0.002217,0.07,-0.26,9.86
227174177,0.000670,0.000047,0.004348,0.08,-0.28,9.88
227175178,-0.001461,-0.002083,0.002217,0.06,-0.28,9.86
227176187,-0.000395,-0.003149,0.000087,0.04,-0.28,9.83
227177198,0.000670,-0.005279,0.000087,0.03,-0.26,9.80
227178207,0.001735,-0.005279,0.000087,0.05,-0.22,9.82
227179224,0.000670,0.000047,0.000087,0.04,-0.23,9.87
227180227,0.000670,0.003243,0.001152,0.01,-0.26,9.88
227181238,0.002801,0.000047,0.001152,0.02,-0.27,9.89
227182247,0.003866,-0.003149,0.001152,0.04,-0.22,9.87
227183270,0.002801,-0.004214,0.001152,0.04,-0.21,9.81
227184277,0.000670,-0.003149,0.002217,0.03,-0.27,9.78
227185278,0.000670,0.000047,0.002217,0.05,-0.32,9.85
227186287,0.001735,0.002178,0.001152,0.02,-0.27,9.85
227187298,0.002801,0.001113,0.000087,0.00,-0.24,9.79
227188307,0.001735,-0.002083,0.000087,0.02,-0.27,9.82
227189324,0.000670,-0.003149,-0.000978,0.05,-0.28,9.86
227190327,0.000670,-0.002083,-0.003109,0.05,-0.25,9.85
227191338,0.001735,-0.001018,-0.003109,0.03,-0.26,9.85
227192347,0.000670,-0.003149,-0.002044,0.04,-0.28,9.82
227193370,0.000670,-0.002083,-0.000978,0.03,-0.26,9.79
227194377,0.001735,-0.001018,-0.000978,0.03,-0.26,9.85
227195378,0.001735,-0.001018,0.000087,0.01,-0.29,9.89
227196387,0.000670,-0.002083,0.001152,0.00,-0.32,9.87
227197398,-0.001461,-0.001018,0.000087,0.03,-0.28,9.83
227198407,-0.001461,0.000047,0.000087,0.02,-0.23,9.85
227199424,-0.001461,0.000047,0.000087,0.05,-0.26,9.86
227200427,-0.000395,-0.001018,0.002217,0.06,-0.27,9.86
227201438,-0.000395,-0.001018,0.002217,0.04,-0.26,9.84
227202447,-0.000395,-0.001018,0.000087,0.03,-0.26,9.83
227203470,-0.003591,0.001113,-0.000978,0.05,-0.26,9.86
227204477,-0.003591,0.002178,0.001152,0.05,-0.27,9.83
227205478,-0.002526,0.003243,0.004348,0.04,-0.26,9.85
227206487,-0.001461,0.003243,0.003283,0.04,-0.24,9.84
227207498,0.000670,0.002178,0.000087,0.04,-0.27,9.78
227208507,-0.000395,0.002178,-0.002044,0.01,-0.31,9.84
227209524,-0.001461,0.001113,-0.002044,0.02,-0.26,9.87
227210527,-0.001461,0.001113,-0.002044,0.04,-0.26,9.83
227211538,0.001735,0.002178,-0.002044,0.02,-0.31,9.82
227212547,0.004931,0.001113,0.000087,0.02,-0.30,9.82
227213571,0.003866,0.000047,0.001152,0.02,-0.28,9.81
227214580,0.001735,-0.001018,0.001152,0.01,-0.26,9.84
227215581,0.000670,0.000047,0.001152,0.04,-0.24,9.88
227216595,-0.000395,0.002178,0.000087,0.06,-0.25,9.86
227217608,-0.000395,-0.001018,-0.002044,0.01,-0.29,9.83
227218746,-0.000395,-0.003149,-0.002044,0.01,-0.28,9.81
227219625,0.000670,-0.002083,0.000087,0.03,-0.28,9.81
227220621,-0.000395,0.002178,0.007544,0.05,-0.14,9.85
227221623,0.017714,0.006439,0.027784,0.07,-0.32,9.72
227222635,0.033694,0.005374,0.028849,0.09,-0.26,9.81
227223666,0.013453,0.002178,0.021392,-0.01,-0.24,9.88
227224658,-0.009983,0.001113,0.020327,-0.03,-0.49,9.92
227225678,-0.012113,0.001113,0.025654,-0.23,-0.26,10.06
227226677,-0.009983,0.001113,0.024588,-0.15,-0.20,9.66
227227689,-0.013179,0.003243,0.013935,0.06,-0.23,9.62
227228696,0.003866,0.001113,0.000087,0.29,0.02,10.00
227229706,0.018780,0.001113,-0.006305,0.54,-0.31,10.16
227230729,0.014519,0.003243,-0.003109,-0.13,-0.92,9.87
227231728,0.010257,-0.005279,0.006478,-0.50,-0.04,9.78
227232754,-0.011048,-0.007410,-0.014827,0.50,-0.87,9.38
227233761,0.004931,0.006439,-0.016958,0.07,-0.58,9.99
227234754,-0.003591,0.005374,-0.005240,-0.85,0.45,10.09
227235766,-0.033419,-0.019128,-0.006305,0.10,-0.26,9.43
227236769,-0.016375,-0.015932,-0.012697,0.73,-1.11,9.92
227237783,0.033694,0.010700,0.001152,-0.53,1.44,10.69
227238793,0.002801,-0.015932,0.002217,-0.22,-0.54,9.28
227239803,-0.036615,-0.032976,0.000087,0.78,-2.49,9.24
227240816,0.037955,0.009635,0.006478,-0.51,2.34,11.02
227241823,-0.006787,-0.018062,-0.009501,0.10,-1.13,9.27
227242829,-0.069639,-0.028715,-0.006305,1.09,-1.60,9.84
227243875,0.041151,0.018157,0.002217,-0.86,1.90,10.53
227244851,-0.001461,-0.001018,0.000087,0.21,-1.51,9.44
227245865,-0.013179,0.004308,0.007544,0.20,-0.13,11.00
227246869,0.011323,-0.013801,-0.002044,0.26,0.55,7.99
227247879,-0.017440,0.004308,0.002217,-0.40,-0.97,10.59
227248889,0.041151,-0.010606,-0.011631,0.24,0.37,9.64
227249899,-0.016375,-0.026585,-0.007370,0.01,-0.49,8.71
227250914,0.035824,-0.010606,-0.013762,-0.51,-0.60,11.13
227251919,0.016649,-0.024454,-0.010566,0.32,0.02,9.45
227252929,0.017714,-0.010606,-0.015892,-0.42,-0.22,10.82
227253954,-0.032354,-0.019128,-0.012697,0.13,-0.93,9.39
227254951,0.040085,0.010700,-0.016958,-0.60,-0.07,9.02
227255965,0.042216,0.008570,-0.014827,0.28,-0.40,10.03
227256974,0.053934,-0.018062,-0.016958,-0.32,-0.80,8.61
227257979,0.012388,0.005374,-0.015892,0.59,0.70,11.20
227258989,-0.006787,0.011765,-0.018023,0.09,-1.06,10.04
227259999,-0.001461,0.007504,-0.021219,-0.73,-0.17,9.09
227261014,0.009192,0.010700,-0.020154,0.72,0.10,11.40
227262019,0.009192,0.017092,-0.018023,-0.60,-1.02,8.39
227263029,-0.006787,0.018157,-0.011631,0.31,0.51,10.43
227264052,-0.004656,0.006439,-0.008435,0.77,-0.16,10.51
227265051,0.014519,-0.006344,-0.006305,-0.97,-1.10,8.20
227266065,0.035824,-0.010606,-0.003109,0.20,0.25,10.49
227267069,0.045412,-0.015932,-0.000978,0.95,-0.01,11.03
227268079,0.030498,-0.007410,-0.000978,-0.77,-0.94,8.35
227269089,-0.000395,0.025614,0.001152,-0.48,-0.43,10.11
227270099,0.010258,0.030940,0.007544,1.20,0.42,11.11
227271114,0.027302,-0.009540,0.008609,0.05,-0.27,8.57
227272119,0.027302,-0.014867,0.006478,-1.34,-1.18,8.30
227273145,-0.016375,0.017092,0.002217,0.63,0.47,11.32
227274141,-0.058986,0.024549,-0.000978,1.27,0.28,10.93
227275149,-0.038745,0.005374,-0.004174,-0.91,-0.72,8.38
227276165,-0.004656,-0.012736,-0.005240,-0.95,-0.43,9.28
227277169,-0.012113,-0.005279,-0.005240,0.90,0.00,10.97
227278179,-0.032354,0.010700,-0.006305,1.11,0.30,10.64
227279189,-0.035550,0.017092,-0.004174,-0.63,-0.40,9.14
227280199,-0.007852,0.007504,-0.008435,-1.16,-0.94,8.81
227281214,0.025171,-0.006344,-0.013762,0.41,-0.30,10.31
227282219,0.026237,0.000047,-0.012697,1.38,0.41,10.85
227283243,0.028367,0.001113,-0.004174,0.24,0.16,9.63
227284241,0.013453,-0.007410,0.001152,-1.35,-0.97,8.72
227285249,-0.025962,-0.010606,-0.000978,-0.90,-1.28,9.30
227286265,-0.014244,-0.023389,-0.002044,0.86,0.00,10.83
227287269,0.005996,-0.027650,-0.004174,1.27,0.39,10.88
227288279,0.002801,-0.007410,-0.009501,0.28,0.51,9.97
227289289,0.016649,0.004308,-0.008435,-1.23,-0.82,8.52
227290299,0.021976,0.010700,-0.006305,-1.33,-1.56,8.73
227291314,0.024106,0.008570,-0.006305,0.04,-0.78,10.11
227292319,-0.003591,0.004308,-0.007370,1.15,0.27,10.87
227293345,-0.009983,0.006439,-0.004174,1.19,0.92,10.96
227294341,0.029433,-0.012736,0.001152,-0.03,0.37,9.62
227295349,0.039020,-0.043629,0.007544,-1.25,-0.99,8.47
227296365,0.021976,-0.061739,0.008609,-1.25,-1.61,8.74
227297369,0.020910,-0.056413,0.007544,-0.44,-1.03,9.81
227298379,0.003866,-0.009540,0.002217,0.74,-0.63,10.87
227299389,-0.005722,0.011765,0.005413,1.50,0.49,11.03
227300399,-0.016375,0.001113,0.008609,1.11,1.22,10.51
227301414,-0.009983,-0.001018,0.009674,0.01,0.39,9.29
227302419,0.018780,0.002178,0.009674,-0.94,-0.74,9.02
227303443,0.050738,-0.011671,0.011805,-1.13,-1.25,8.99
227304441,0.051803,-0.028715,0.011805,-0.61,-1.15,9.41
227305449,0.013453,-0.005279,0.011805,0.35,-1.11,10.18
227306465,-0.021701,0.037332,0.012870,1.18,-0.12,10.85
227307469,0.004931,0.014961,0.015001,1.38,1.24,11.15
227308479,-0.012113,-0.004214,0.011805,0.92,1.36,10.14
227309489,0.031563,-0.008475,0.015001,0.20,0.65,9.60
227310499,0.074174,-0.025519,0.021392,-0.37,0.51,9.60
227311514,0.010257,-0.046825,0.020327,-1.01,-0.37,9.02
227312519,-0.101597,-0.014867,0.010740,-1.15,-1.61,8.77
227313545,-0.135686,0.033071,0.008609,-0.81,-1.67,9.25
227314541,-0.089879,0.003243,0.011805,-0.48,-1.31,9.91
227315549,-0.020636,-0.070261,0.012870,0.45,-0.90,10.27
227316567,0.046477,-0.070261,0.006478,1.01,0.06,10.83
227317573,0.034759,-0.001018,-0.003109,0.79,1.05,11.14
227318587,-0.009983,0.001113,-0.008435,0.67,0.67,9.97
227319594,-0.017440,-0.008475,-0.010566,0.51,0.26,9.41
227320604,0.002801,0.009635,-0.015892,-0.01,0.83,9.74
227321622,0.008127,0.018157,-0.024415,-0.65,0.22,9.42
227322624,-0.021701,0.021353,-0.025480,-0.72,-0.93,9.01
227323652,-0.013179,0.025614,-0.019088,-0.91,-1.08,9.03
227324656,0.007062,0.006439,-0.015892,-1.22,-1.46,9.34
227325657,0.017714,-0.016997,-0.018023,-0.45,-1.77,9.46
227326673,0.037955,-0.019128,-0.013762,-0.02,-1.29,9.78
227327681,0.031563,-0.011671,-0.012697,-0.26,-0.61,10.35
227328688,0.009192,-0.010606,-0.012697,0.57,-0.82,10.40
227329703,0.027302,-0.013801,-0.006305,1.18,0.22,10.82
227330711,0.033694,-0.023389,0.001152,0.60,0.90,10.66
227331722,-0.005722,-0.020193,0.002217,0.70,0.25,9.71
227332726,-0.025962,0.007504,0.003283,0.99,0.61,9.69
227333756,-0.017440,-0.008475,0.002217,0.23,0.31,9.69
227334745,-0.012113,0.000047,0.000087,0.39,0.07,9.79
227335760,0.021976,0.002178,0.009674,-0.15,0.79,10.02
227336766,0.002801,-0.007410,0.012870,-0.49,-0.24,9.66
227337769,-0.002526,-0.009540,0.012870,-0.04,-0.55,9.56
227338783,0.004931,-0.002083,0.016066,-0.54,-0.43,9.58
227339793,-0.029158,0.009635,0.013935,-0.96,-1.22,9.39
227340803,-0.023831,0.001113,0.008609,-0.32,-0.92,9.46
227341816,0.021976,0.000047,0.006478,-0.40,-1.09,9.19
227342823,0.021976,0.001113,0.006478,-0.93,-1.15,9.44
227343843,-0.033419,-0.007410,0.002217,-0.39,-0.75,10.01
227344857,-0.068573,0.018157,-0.003109,0.10,-1.33,9.75
227345849,-0.031288,0.049050,-0.004174,-0.29,-0.52,9.91
227346865,-0.007852,0.035202,-0.008435,-0.18,-0.47,9.81
227347869,-0.003591,0.019222,-0.013762,0.57,-1.11,10.20
227348879,0.018780,0.039463,-0.012697,0.18,-0.03,10.78
227349889,0.009192,0.050116,-0.015892,-0.09,0.00,10.00
227350899,-0.034484,0.044789,-0.020154,0.69,-0.46,9.85
227351914,-0.057920,0.058638,-0.018023,0.45,0.17,10.35
227352919,-0.048333,0.046920,-0.012697,0.05,0.30,10.19
227353945,-0.027027,-0.016997,-0.007370,0.61,-0.02,9.85
227354941,0.016649,-0.061739,-0.002044,0.57,0.36,9.77
227355949,0.033694,-0.029781,-0.006305,0.17,0.39,9.79
227356965,0.001735,0.029875,-0.012697,0.40,0.00,9.75
227357969,-0.022766,0.032006,-0.006305,0.47,0.41,9.76
227358979,-0.001461,-0.009540,0.003283,0.09,0.26,9.70
227359989,0.029433,-0.015932,0.003283,0.22,-0.09,9.90
227360999,0.019845,-0.001018,0.003283,0.36,0.54,10.07
227362014,0.003866,-0.018062,0.004348,-0.07,0.06,9.62
227363019,0.016649,-0.013801,0.001152,0.10,-0.35,9.84
227364043,0.017714,0.000047,0.001152,0.24,0.48,10.34
227365041,-0.001461,-0.005279,0.005413,-0.15,-0.04,9.76
227366049,-0.016375,0.001113,0.001152,0.09,-0.54,9.73
227367065,-0.007852,0.008570,0.001152,0.09,0.40,10.35
227368069,-0.004656,0.013896,0.001152,-0.35,-0.27,9.67
227369079,-0.005722,-0.004214,-0.000978,0.26,-0.66,9.65
227370089,0.002801,0.007504,0.000087,0.09,0.26,10.21
227371099,-0.001461,0.018157,0.000087,-0.62,-0.43,9.48
227372114,-0.024897,0.023483,-0.006305,0.30,-0.53,9.70
227373134,-0.003591,0.009635,-0.004174,0.10,0.01,10.09
227374131,-0.007852,0.008570,-0.003109,-0.73,-0.62,9.46
227375139,0.016649,0.008570,-0.007370,0.38,-0.41,9.86
227376149,0.032628,-0.001018,-0.004174,0.13,-0.08,9.90
227377165,-0.000395,0.006439,-0.002044,-0.87,-0.72,9.25
227378169,0.025171,-0.001018,-0.003109,0.35,-0.32,10.05
227379179,0.036890,-0.011671,-0.002044,0.16,-0.22,9.91
227380189,-0.000395,0.001113,-0.002044,-0.90,-0.74,9.35
227381199,0.020910,-0.001018,-0.006305,0.37,-0.28,10.29
227382214,0.039020,-0.019128,-0.005240,0.29,-0.36,9.85
227383232,-0.006787,-0.006344,-0.005240,-0.88,-0.74,9.20
227384231,0.010257,0.006439,-0.010566,0.26,-0.42,10.17
227385239,0.050738,-0.018062,-0.009501,0.28,-0.51,9.86
227386249,-0.008918,-0.010606,-0.008435,-0.86,-0.63,9.30
227387265,-0.037680,0.021353,-0.012697,0.25,-0.47,10.03
227388269,0.030498,0.001113,-0.010566,0.35,-0.51,9.90
227389279,0.027302,-0.018062,-0.005240,-0.89,-0.61,9.45
227390289,-0.041941,0.010700,-0.009501,0.15,-0.52,9.99
227391299,-0.024897,0.016027,-0.011631,0.42,-0.46,9.98
227392314,0.025171,-0.006344,-0.008435,-0.88,-0.46,9.48
227393334,0.026237,-0.016997,-0.005240,0.12,-0.49,9.85
227394331,-0.021701,-0.005279,-0.000978,0.65,-0.38,10.02
227395339,-0.066443,0.022418,0.002217,-0.75,-0.25,9.62
227396349,-0.027027,0.030940,-0.002044,-0.02,-0.53,9.80
227397365,0.070979,-0.008475,-0.003109,0.67,-0.31,10.11
227398369,0.072044,-0.029781,0.004348,-0.71,-0.14,9.72
227399379,-0.008918,-0.007410,0.008609,-0.08,-0.65,9.62
227400389,-0.072834,0.017092,0.008609,0.79,-0.30,10.03
227401399,-0.086683,0.037332,0.006478,-0.61,-0.03,9.74
227402414,-0.027027,0.041593,-0.000978,-0.14,-0.75,9.53
227403432,0.084827,-0.012736,-0.002044,0.75,-0.33,10.03
227404431,0.117851,-0.060674,0.002217,-0.60,0.02,9.74
227405439,0.078435,-0.052151,0.003283,-0.15,-0.78,9.45
227406449,0.018780,-0.036172,0.004348,0.73,-0.30,10.16
227407465,-0.061116,-0.004214,0.005413,-0.60,-0.05,9.86
227408469,-0.104793,0.043724,0.001152,-0.21,-0.79,9.41
227409479,-0.074965,0.054377,0.001152,0.63,-0.22,10.10
227410489,-0.040876,0.038397,0.000087,-0.58,0.00,9.84
227411499,-0.017440,0.035202,-0.007370,-0.17,-0.78,9.46
227412514,0.042216,0.012831,-0.008435,0.61,-0.23,10.21
227413534,0.076305,-0.026585,-0.004174,-0.56,0.06,9.87
227414531,0.089088,-0.047890,-0.004174,-0.18,-0.70,9.39
227415539,0.110394,-0.061739,-0.003109,0.64,-0.22,10.18
227416549,0.090154,-0.064935,-0.003109,-0.50,0.09,9.92
227417567,0.061391,-0.058543,-0.005240,-0.13,-0.64,9.48
227418573,0.051803,-0.057478,-0.004174,0.75,-0.23,10.24
227419587,0.016649,-0.043629,-0.003109,-0.46,0.07,9.93
227420594,-0.009983,-0.027650,-0.004174,-0.16,-0.75,9.43
227421605,-0.004656,-0.030846,-0.000978,0.83,-0.15,10.18
227422620,-0.033419,-0.014867,0.001152,-0.44,0.19,9.89
227423643,-0.066443,0.009635,-0.000978,-0.18,-0.86,9.35
227424638,-0.056855,0.000047,0.000087,0.88,-0.03,10.25
227425650,-0.073900,0.006439,0.001152,-0.45,0.24,10.01
227426657,-0.097336,0.037332,0.000087,-0.23,-0.97,9.34
227427678,-0.082422,0.032006,0.001152,0.86,-0.01,10.19
227428677,-0.093075,0.022418,0.001152,-0.48,0.19,9.91
227429689,-0.110119,0.039463,-0.002044,-0.26,-0.97,9.28
227430699,-0.094140,0.036267,-0.003109,0.67,-0.13,10.18
227431705,-0.102662,0.027745,-0.000978,-0.53,0.06,9.90
227432722,-0.114380,0.043724,-0.002044,-0.16,-0.88,9.30
227433742,-0.089879,0.046920,0.001152,0.63,-0.13,10.24
227434738,-0.086683,0.038397,0.005413,-0.54,0.00,9.97
227435747,-0.082422,0.037332,0.001152,0.58,-0.14,10.27
227436753,-0.072834,0.030940,-0.000978,-0.53,0.06,9.87
227437770,-0.065377,0.020288,-0.003109,-0.13,-0.59,9.43
227438769,-0.035550,0.003243,-0.000978,0.70,-0.13,10.18
227439783,-0.029158,0.000047,0.000087,-0.40,0.14,9.89
227440794,-0.025962,-0.003149,-0.000978,-0.07,-0.55,9.56
227441803,0.005996,-0.029781,-0.000978,0.77,-0.14,10.19
227442816,0.018780,-0.043629,0.000087,-0.33,0.32,9.99
227443836,0.026237,-0.037238,-0.002044,-0.02,-0.58,9.56
227444831,0.063522,-0.054282,-0.002044,0.75,-0.20,10.11
227445839,0.064587,-0.061739,-0.004174,-0.38,0.35,10.00
227446849,0.046477,-0.034042,-0.006305,-0.04,-0.62,9.57
227447896,0.059260,-0.023389,-0.005240,0.65,-0.22,10.03
227448869,0.043281,-0.018062,-0.003109,-0.39,0.21,9.90
227449879,0.002801,0.019222,-0.005240,-0.01,-0.71,9.59
227450889,-0.012113,0.042659,-0.000978,0.46,-0.35,9.97
227451899,-0.024897,0.040528,0.003283,-0.44,0.12,9.89
227452915,-0.045137,0.049050,0.002217,0.05,-0.60,9.73
227453933,-0.041941,0.052246,0.003283,0.36,-0.33,10.14
227454931,-0.031288,0.043724,0.004348,-0.49,0.00,9.90
227455940,-0.037680,0.040528,0.005413,0.05,-0.51,9.66
227456980,-0.035550,0.037332,0.007544,0.36,-0.27,9.94
227457965,-0.031288,0.035202,0.009674,-0.43,0.03,9.81
227458969,-0.018505,0.018157,0.010740,0.09,-0.45,9.72
227459979,0.007062,-0.009540,0.010740,0.40,-0.38,9.83
227460989,0.005996,-0.011671,0.009674,-0.36,0.03,9.83
227461999,0.016649,-0.019128,0.006478,0.15,-0.40,9.85
227463014,0.040085,-0.037238,0.007544,0.43,-0.45,9.84
227464033,0.031563,-0.041499,0.006478,-0.35,0.10,9.88
227465031,0.021976,-0.035107,0.002217,0.23,-0.30,9.90
227466039,0.049673,-0.045760,0.001152,0.49,-0.37,9.82
227467049,0.049673,-0.055347,0.003283,-0.33,0.12,9.88
227468065,0.046477,-0.052151,0.001152,0.26,-0.36,9.85
227469069,0.064587,-0.053217,0.001152,0.50,-0.28,9.87
227470079,0.051803,-0.055347,0.000087,-0.37,0.14,9.92
227471089,0.033694,-0.040433,-0.005240,0.23,-0.38,9.85
227472099,0.047542,-0.028715,-0.004174,0.40,-0.29,9.84
227473129,0.039020,-0.029781,-0.002044,-0.44,0.05,9.80
227474121,0.008127,-0.006344,-0.006305,0.19,-0.42,9.85
227475129,0.008127,0.012831,-0.005240,0.26,-0.34,9.93
227476139,0.005996,0.014961,-0.000978,-0.56,-0.01,9.86
227477149,-0.016375,0.025614,0.000087,0.17,-0.38,9.88
227478165,-0.023831,0.033071,0.002217,0.28,-0.36,9.88
227479169,-0.027027,0.032006,0.004348,-0.54,-0.04,9.88
227480179,-0.044072,0.042659,0.001152,0.20,-0.43,9.91
227481189,-0.047268,0.045854,0.000087,0.35,-0.40,9.83
227482199,-0.049398,0.045854,0.002217,-0.49,-0.07,9.84
227483229,-0.051529,0.046920,0.002217,0.22,-0.38,9.93
227484221,-0.037680,0.034136,0.002217,0.34,-0.37,9.78
227485229,-0.045137,0.028810,0.000087,-0.43,-0.08,9.80
227486239,-0.037680,0.019222,-0.006305,0.33,-0.28,9.96
227487249,-0.004656,-0.006344,-0.006305,0.39,-0.26,9.80
227488265,-0.009983,-0.015932,-0.005240,-0.44,0.00,9.78
227489269,-0.002526,-0.021258,-0.006305,0.35,-0.23,10.00
227490279,0.034759,-0.038303,-0.006305,0.44,-0.21,9.81
227491289,0.027302,-0.044694,-0.009501,-0.43,0.01,9.72
227492299,0.020910,-0.040433,-0.013762,0.37,-0.22,10.00
227493329,0.045412,-0.041499,-0.012697,0.39,-0.23,9.88
227494321,0.036890,-0.046825,-0.010566,-0.41,-0.03,9.84
227495329,0.021976,-0.034042,-0.011631,0.33,-0.29,10.01
227496339,0.037955,-0.026585,-0.010566,0.26,-0.26,9.81
227497349,0.028367,-0.029781,-0.007370,-0.46,-0.04,9.80
227498365,0.001735,-0.008475,-0.007370,0.31,-0.29,9.97
227499369,0.001735,0.010700,-0.004174,0.22,-0.27,9.82
227500379,-0.001461,0.014961,-0.000978,-0.47,-0.18,9.70
227501389,-0.025962,0.030940,-0.004174,0.29,-0.33,9.89
227502399,-0.033419,0.049050,-0.006305,0.23,-0.23,9.82
227503429,-0.047268,0.061834,-0.007370,-0.48,-0.23,9.72
227504421,-0.063247,0.060768,-0.007370,0.29,-0.29,9.97
227505429,-0.061116,0.055442,-0.004174,0.30,-0.20,9.79
227506439,-0.055790,0.050116,-0.003109,-0.45,-0.24,9.74
227507449,-0.030223,0.032006,-0.003109,0.32,-0.18,10.17
227508465,-0.000395,0.008570,0.001152,0.29,-0.24,9.81
227509469,-0.004656,0.001113,0.000087,-0.47,-0.23,9.62
227510479,0.005996,-0.008475,-0.003109,0.39,-0.15,10.10
227511489,0.040085,-0.030846,-0.003109,0.36,-0.24,9.79
227512499,0.031563,-0.039368,-0.002044,-0.43,-0.13,9.70
227513529,0.026237,-0.034042,-0.005240,0.40,-0.14,10.16
227514521,0.044346,-0.037238,-0.005240,0.31,-0.19,9.85
227515529,0.029433,-0.035107,-0.005240,-0.46,-0.24,9.65
227516539,0.002801,-0.006344,-0.007370,0.40,-0.29,10.08
227517549,0.011323,0.007504,-0.004174,0.27,-0.10,9.86
227518568,0.001735,0.010700,0.000087,-0.45,-0.23,9.62
227519572,-0.031288,0.036267,-0.000978,0.41,-0.32,10.07
227520586,-0.037680,0.045854,0.000087,0.18,-0.08,9.95
227521592,-0.037680,0.039463,0.000087,-0.50,-0.35,9.60
227522606,-0.040876,0.039463,0.002217,0.34,-0.44,9.98
227523634,-0.030223,0.030940,0.006478,0.13,-0.10,10.03
227524628,-0.009983,0.014961,0.008609,-0.52,-0.38,9.64
227525637,0.027302,-0.010606,0.007544,0.34,-0.32,9.95
227526657,0.054999,-0.030846,0.009674,0.16,0.00,9.97
227527656,0.050738,-0.041499,0.010740,-0.50,-0.44,9.61
227528676,0.060326,-0.058543,0.009674,0.34,-0.35,9.97
227529678,0.070978,-0.070261,0.007544,0.20,-0.11,9.86
227530693,0.058195,-0.063870,0.005413,-0.47,-0.43,9.59
227531699,0.056065,-0.052151,0.004348,0.43,-0.19,10.06
227532703,0.075240,-0.053217,0.006478,0.28,-0.04,9.90
227533741,0.058195,-0.046825,0.007544,-0.48,-0.45,9.56
227534732,0.043281,-0.024454,0.005413,0.42,-0.22,9.99
227535736,0.037955,-0.013801,0.008609,-0.53,-0.43,9.55
227536747,0.015584,0.009635,0.002217,0.42,-0.20,10.13
227537755,0.033694,0.009635,0.003283,0.28,0.06,9.97
227538766,0.019845,0.004308,0.004348,-0.47,-0.46,9.42
227539790,-0.002526,0.027745,-0.000978,0.46,-0.28,10.02
227540788,0.010258,0.033071,-0.003109,0.20,0.00,9.99
227541793,-0.005722,0.030940,-0.004174,-0.54,-0.58,9.49
227542803,-0.037680,0.053311,-0.006305,0.38,-0.38,10.06
227543831,-0.033419,0.058638,-0.005240,0.12,0.07,10.03
227544825,-0.041941,0.054377,-0.005240,-0.57,-0.62,9.41
227545829,-0.066443,0.070356,-0.009501,0.37,-0.48,9.96
227546862,-0.058986,0.074617,-0.007370,0.13,0.08,10.10
227547849,-0.058986,0.067160,-0.005240,-0.55,-0.62,9.46
227548865,-0.077096,0.073552,-0.007370,0.31,-0.46,9.95
227549869,-0.069639,0.072486,-0.004174,0.10,0.08,10.13
227550879,-0.070704,0.062899,0.000087,-0.54,-0.61,9.52
227551889,-0.084552,0.065029,-0.002044,0.38,-0.36,10.01
227552899,-0.078161,0.067160,-0.003109,0.23,0.12,10.10
227553929,-0.077096,0.066095,-0.002044,-0.48,-0.54,9.50
227554921,-0.086683,0.063964,-0.004174,0.41,-0.32,9.99
227555929,-0.074965,0.057572,-0.000978,0.29,0.11,10.04
227556939,-0.072834,0.054377,0.001152,-0.46,-0.53,9.50
227557949,-0.080291,0.051181,-0.003109,0.43,-0.30,10.01
227558965,-0.072834,0.053311,-0.004174,0.28,0.11,10.08
227559969,-0.076030,0.058638,-0.002044,-0.54,-0.51,9.50
227560979,-0.082422,0.068225,-0.004174,0.44,-0.27,10.02
227561989,-0.076030,0.065029,-0.004174,0.32,0.18,10.05
227562999,-0.082422,0.063964,-0.004174,-0.57,-0.55,9.33
227564029,-0.086683,0.065029,-0.010566,0.43,-0.33,9.99
227565021,-0.074965,0.049050,-0.009501,0.31,0.18,10.05
227566029,-0.079226,0.046920,-0.008435,-0.58,-0.68,9.26
227567039,-0.083487,0.059703,-0.009501,0.42,-0.42,10.00
227568049,-0.076030,0.058638,-0.009501,0.20,0.24,10.17
227569065,-0.088814,0.061834,-0.008435,-0.67,-0.71,9.34
227570069,-0.098401,0.078878,-0.010566,0.36,-0.52,9.90
227571079,-0.092009,0.074617,-0.008435,0.17,0.24,10.16
227572089,-0.095205,0.068225,-0.006305,-0.67,-0.77,9.34
227573113,-0.094140,0.073552,-0.006305,0.34,-0.56,9.93
227574117,-0.072834,0.070356,-0.003109,0.18,0.23,10.30
227575119,-0.076030,0.066095,-0.002044,-0.67,-0.76,9.36
227576129,-0.089879,0.078878,-0.003109,0.34,-0.44,9.91
227577139,-0.079226,0.081009,0.001152,0.25,0.25,10.24
227578149,-0.073900,0.073552,0.006478,-0.61,-0.68,9.34
227579164,-0.069639,0.065029,0.007544,0.44,-0.35,9.96
227580169,-0.047268,0.049050,0.008609,0.33,0.30,10.24
227581179,-0.051529,0.047985,0.009674,-0.60,-0.60,9.33
227582189,-0.061116,0.059703,0.006478,0.53,-0.29,9.92
227583213,-0.056855,0.051181,0.008609,0.39,0.35,10.16
227584217,-0.064312,0.049050,0.010740,-0.57,-0.63,9.39
227585219,-0.053659,0.043724,0.008609,0.51,-0.29,10.15
227586229,-0.032354,0.017092,0.008609,0.35,0.38,10.19
227587239,-0.039811,0.010700,0.007544,-0.53,-0.72,9.23
227588249,-0.033419,0.016027,0.006478,0.43,-0.45,10.02
227589264,-0.017440,0.002178,0.007544,0.24,0.41,10.27
227590269,-0.022766,-0.010606,0.008609,-0.56,-0.73,9.21
227591279,-0.017440,-0.006344,0.006478,0.30,-0.61,9.84
227592289,-0.005722,-0.015932,0.007544,0.15,0.29,10.28
227593313,-0.007852,-0.030846,0.007544,-0.55,-0.77,9.26
227594317,0.008127,-0.040433,0.006478,0.22,-0.59,9.82
227595319,0.026237,-0.042564,0.007544,0.14,0.25,10.31
227596329,0.028367,-0.047890,0.008609,-0.56,-0.68,9.34
227597339,0.043281,-0.061739,0.007544,0.22,-0.43,9.79
227598349,0.050738,-0.060674,0.008609,0.24,0.27,10.22
227599364,0.036890,-0.047890,0.007544,-0.49,-0.59,9.44
227600369,0.051803,-0.058543,0.005413,0.32,-0.42,9.94
227601379,0.072044,-0.073457,0.006478,0.31,0.25,10.25
227602389,0.056065,-0.062804,0.007544,-0.49,-0.52,9.43
227603413,0.058195,-0.061739,0.004348,0.49,-0.26,9.93
227604417,0.068848,-0.075588,0.003283,0.40,0.35,10.23
227605419,0.044346,-0.059608,0.000087,-0.58,-0.60,9.36
227606429,0.053934,-0.056413,-0.003109,0.54,-0.30,9.96
227607439,0.085892,-0.085175,-0.004174,0.37,0.45,10.21
227608449,0.052869,-0.079849,-0.008435,-0.59,-0.74,9.18
227609464,0.053934,-0.061739,-0.008435,0.53,-0.44,10.02
227610469,0.084827,-0.076653,-0.008435,0.31,0.50,10.38
227611479,0.056065,-0.074522,-0.012697,-0.58,-0.95,9.16
227612489,0.059260,-0.061739,-0.014827,0.42,-0.61,9.98
227613513,0.076305,-0.085175,-0.009501,0.12,0.52,10.37
227614517,0.043281,-0.087306,-0.008435,-0.68,-1.07,9.07
227615519,0.049673,-0.066000,-0.009501,0.28,-0.71,9.84
227616529,0.068848,-0.070261,-0.007370,0.05,0.52,10.47
227617539,0.047542,-0.080914,-0.006305,-0.67,-0.98,9.21
227618549,0.040085,-0.073457,-0.006305,0.20,-0.74,9.71
227619566,0.049673,-0.070261,-0.002044,0.08,0.33,10.31
227620572,0.033694,-0.066000,-0.002044,-0.56,-0.78,9.28
227621587,0.031563,-0.061739,-0.003109,0.26,-0.52,9.79
227622593,0.035824,-0.046825,0.000087,0.22,0.31,10.35
227623619,0.025171,-0.031911,0.001152,-0.50,-0.64,9.47
227624626,0.030498,-0.042564,0.000087,0.36,-0.44,9.90
227625625,0.042216,-0.055347,0.001152,0.43,0.34,10.13
227626635,0.030498,-0.045760,0.002217,-0.38,-0.51,9.31
227627658,0.040085,-0.047890,0.001152,0.46,-0.40,9.92
227628656,0.051803,-0.057478,0.001152,0.45,0.39,10.33
227629674,0.033694,-0.046825,-0.000978,-0.41,-0.47,9.53
227630685,0.050738,-0.051086,-0.003109,0.52,-0.34,9.98
227631687,0.069913,-0.074522,-0.000978,0.39,0.46,10.29
227632699,0.045412,-0.069196,0.000087,-0.50,-0.61,9.34
227633724,0.059260,-0.060674,-0.000978,0.47,-0.41,9.95
227634726,0.079501,-0.073457,-0.002044,0.27,0.53,10.30
227635731,0.054999,-0.048956,-0.009501,0.34,-0.60,9.85
227636737,0.081631,-0.060674,-0.008435,0.16,0.56,10.49
227637748,0.062456,-0.064935,-0.007370,-0.70,-0.97,9.27
227638754,0.061391,-0.045760,-0.008435,0.22,-0.75,9.81
227639765,0.068848,-0.050021,-0.006305,0.06,0.44,10.40
227640782,0.039020,-0.042564,-0.006305,-0.71,-0.98,9.14
227641783,0.037955,-0.019128,-0.006305,0.27,-0.71,9.73
227642793,0.061391,-0.020193,-0.002044,0.13,0.41,10.51
227643817,0.044346,-0.022324,0.000087,-0.69,-0.91,9.25
227644819,0.033694,-0.004214,-0.000978,0.31,-0.61,9.79
227645823,0.046477,-0.004214,0.004348,0.23,0.48,10.60
227646829,0.015584,0.005374,0.007544,-0.63,-0.76,9.30
227647839,0.001735,0.027745,0.004348,0.51,-0.46,9.75
227648849,0.030498,0.019222,0.006478,0.39,0.59,10.49
227649864,0.009192,0.021353,0.005413,-0.62,-0.73,9.18
227650869,-0.011048,0.038397,0.002217,0.63,-0.42,9.83
227651909,0.007062,0.019222,0.006478,0.49,0.70,10.50
227652889,-0.016375,0.027745,0.008609,-0.56,-0.87,9.08
227653913,-0.040876,0.066095,0.005413,0.64,-0.50,9.97
227654917,-0.034484,0.053311,0.002217,0.44,0.84,10.66
227655919,-0.058986,0.053311,-0.002044,-0.56,-1.04,9.17
227656929,-0.064312,0.081009,-0.004174,0.45,-0.70,9.89
227657939,-0.049398,0.057572,0.000087,0.28,0.84,10.63
227658949,-0.067508,0.038397,0.002217,-0.61,-1.05,9.05
227659964,-0.070704,0.054377,0.001152,0.25,-0.80,9.68
227660969,-0.058986,0.045854,0.003283,0.19,0.71,10.57
227661979,-0.063247,0.027745,0.002217,-0.65,-1.04,9.02
227662989,-0.045137,0.019222,0.001152,0.11,-0.79,9.56
227664013,-0.014244,0.012831,0.004348,0.10,0.48,10.51
227665017,-0.003591,-0.005279,0.006478,-0.67,-0.89,9.32
227666036,0.014519,-0.025519,0.007544,0.18,-0.56,9.81
227667028,0.028367,-0.025519,0.008609,0.24,0.39,10.45
227668038,0.015584,-0.021258,0.004348,-0.56,-0.65,9.29
227669048,0.027302,-0.037238,0.001152,0.31,-0.53,9.74
227670062,0.041151,-0.044694,0.000087,0.39,0.38,10.41
227671068,0.026237,-0.028715,-0.003109,-0.52,-0.53,9.28
227672078,0.053934,-0.038303,-0.004174,0.43,-0.50,9.77
227673109,0.073109,-0.062804,-0.005240,0.44,0.56,10.65
227674099,0.031563,-0.045760,-0.009501,-0.51,-0.64,9.35
227675115,0.039020,-0.031911,-0.013762,0.55,-0.58,9.67
227676136,0.062456,-0.062804,-0.013762,0.41,0.74,10.52
227677128,0.027302,-0.052151,-0.016958,-0.56,-0.88,9.21
227678138,0.032628,-0.018062,-0.019088,0.41,-0.76,9.75
227679148,0.061391,-0.044694,-0.014827,0.33,0.90,10.64
227680162,0.033694,-0.046825,-0.015892,-0.52,-1.07,9.09
227681168,0.042216,-0.006344,-0.016958,0.24,-0.92,9.66
227682178,0.066717,-0.011671,-0.012697,0.21,0.82,10.73
227683208,0.039020,-0.023389,-0.010566,-0.56,-1.14,9.08
227684199,0.025171,0.006439,-0.011631,0.08,-0.92,9.58
227685215,0.026237,0.017092,-0.007370,0.09,0.61,10.66
227686236,-0.008918,0.022418,-0.006305,-0.62,-0.99,9.21
227687228,-0.034484,0.043724,-0.006305,0.06,-0.78,9.66
227688238,-0.022766,0.052246,-0.000978,0.14,0.40,10.45
227689248,-0.024897,0.049050,0.002217,-0.57,-0.71,9.34
227690262,-0.039811,0.051181,0.002217,0.15,-0.61,9.80
227691268,-0.033419,0.051181,0.004348,0.29,0.41,10.44
227692278,-0.046202,0.057572,0.005413,-0.49,-0.48,9.38
227693309,-0.073900,0.068225,0.001152,0.31,-0.58,9.72
227694299,-0.058986,0.060768,0.001152,0.46,0.53,10.43
227695315,-0.060051,0.066095,0.002217,-0.41,-0.36,9.39
227696336,-0.067508,0.078878,-0.000978,0.42,-0.57,9.69
227697328,-0.047268,0.063964,-0.003109,0.44,0.65,10.71
227698338,-0.061116,0.067160,-0.003109,-0.39,-0.52,9.47
227699348,-0.054725,0.085270,-0.004174,0.46,-0.63,9.60
227700362,-0.029158,0.061834,-0.005240,0.32,0.89,10.67
227701368,-0.046202,0.058638,-0.008435,-0.48,-0.84,9.18
227702378,-0.039811,0.078878,-0.011631,0.37,-0.80,9.56
227703408,-0.011048,0.046920,-0.010566,0.25,0.87,10.75
227704399,-0.017440,0.029875,-0.011631,-0.52,-1.08,9.08
227705415,0.008127,0.041593,-0.013762,0.32,-0.80,9.58
227706436,0.052869,0.008570,-0.008435,0.17,0.85,10.99
227707428,0.047542,-0.020193,-0.004174,-0.71,-1.21,9.05
227708438,0.058195,-0.010606,-0.003109,0.20,-0.83,9.35
227709448,0.078435,-0.029781,-0.000978,0.17,0.82,10.87
227710462,0.054999,-0.040433,0.000087,-0.73,-1.09,9.10
227711468,0.086958,-0.047890,0.001152,0.23,-0.74,9.46
227712478,0.109329,-0.072392,0.003283,0.18,0.75,10.92
227713509,0.063522,-0.064935,0.000087,-0.70,-1.01,9.10
227714499,0.077370,-0.061739,0.002217,0.41,-0.65,9.47
227715515,0.089088,-0.074522,0.005413,0.28,0.82,10.92
227716536,0.032628,-0.042564,0.003283,-0.68,-1.00,9.12
227717528,0.017714,-0.018062,0.003283,0.54,-0.60,9.63
227718538,0.004931,-0.032976,0.003283,0.37,0.93,10.72
227719548,-0.053659,0.005374,0.000087,-0.62,-1.07,8.91
227720566,-0.056855,0.043724,0.001152,0.59,-0.56,9.69
227721570,-0.054725,0.023483,0.001152,0.39,1.02,10.81
227722583,-0.096271,0.036267,-0.002044,-0.61,-1.13,9.07
227723612,-0.089879,0.085270,-0.005240,0.51,-0.59,9.75
227724604,-0.052594,0.067160,-0.003109,0.35,1.01,10.84
227725624,-0.049398,0.041593,-0.004174,-0.63,-1.12,9.01
227726643,-0.019570,0.052246,-0.008435,0.32,-0.61,9.55
227727636,0.019845,0.025614,-0.010566,0.26,0.92,10.71
227728648,0.015584,-0.003149,-0.011631,-0.61,-1.05,9.03
227729662,0.033694,-0.002083,-0.013762,0.26,-0.64,9.61
227730684,0.068848,-0.025519,-0.009501,0.24,0.79,10.74
227731680,0.057130,-0.045760,-0.008435,-0.61,-0.94,9.21
227732687,0.048608,-0.046825,-0.008435,0.27,-0.63,9.74
227733728,0.039020,-0.041499,-0.007370,0.26,0.62,10.71
227734705,0.004931,-0.024454,-0.007370,-0.66,-0.76,9.20
227735723,0.001735,-0.023389,-0.007370,0.28,-0.57,9.71
227736746,-0.045137,-0.001018,-0.000978,-0.62,-0.66,9.25
227737738,-0.055790,0.017092,-0.002044,0.37,-0.58,9.66
227738741,-0.048333,0.009635,-0.002044,0.33,0.59,10.60
227739753,-0.073900,0.023483,-0.005240,-0.61,-0.80,9.22
227740770,-0.066443,0.036267,-0.007370,0.53,-0.60,9.75
227741768,-0.043007,0.017092,-0.004174,0.38,0.75,10.63
227742782,-0.070704,0.034136,-0.005240,-0.65,-0.93,9.08
227743812,-0.062182,0.053311,-0.005240,0.48,-0.63,9.72
227744814,-0.035550,0.020288,-0.003109,0.35,0.90,10.66
227745817,-0.061116,0.018157,-0.004174,-0.64,-1.12,9.01
227746840,-0.060051,0.040528,-0.004174,0.37,-0.73,9.73
227747828,-0.040876,0.018157,0.000087,0.30,1.00,10.85
227748838,-0.064312,0.010700,0.001152,-0.58,-1.14,9.01
227749848,-0.052594,0.024549,0.003283,0.27,-0.80,9.51
227750862,-0.024897,0.007504,0.006478,0.17,0.86,10.62
227751868,-0.040876,-0.004214,0.003283,-0.61,-0.99,9.03
227752878,-0.041941,-0.001018,0.000087,0.24,-0.68,9.63
227753909,-0.017440,-0.007410,0.002217,0.21,0.77,10.73
227754899,-0.014244,-0.016997,-0.000978,-0.61,-0.74,9.23
227755915,0.007062,-0.028715,-0.004174,0.20,-0.66,9.61
227756937,0.033694,-0.046825,-0.003109,0.23,0.60,10.72
227757928,0.034759,-0.045760,-0.005240,-0.57,-0.64,9.26
227758938,0.062456,-0.050021,-0.009501,0.38,-0.66,9.57
227759948,0.089088,-0.071327,-0.010566,0.38,0.66,10.73
227760962,0.060326,-0.052151,-0.014827,-0.55,-0.59,9.10
227761968,0.043281,-0.019128,-0.019088,0.46,-0.78,9.37
227762978,0.045412,-0.025519,-0.016958,0.37,0.67,10.75
227764008,0.001735,0.001113,-0.016958,-0.60,-0.81,9.07
227764999,-0.024897,0.046920,-0.020154,0.36,-0.96,9.43
227766032,-0.029158,0.036267,-0.020154,0.31,0.89,10.96
227767018,-0.066443,0.041593,-0.021219,-0.49,-0.82,9.12
227768028,-0.061116,0.052246,-0.022284,0.30,-0.97,9.27
227769038,-0.035550,0.009635,-0.020154,0.22,0.91,10.72
227770048,-0.035550,-0.011671,-0.020154,-0.52,-0.94,9.05
227771062,0.017714,-0.020193,-0.021219,0.08,-1.01,9.27
227772068,0.078435,-0.070261,-0.019088,0.16,0.60,10.18
227773099,0.079501,-0.093697,-0.020154,-0.39,-0.92,9.12
227774089,0.056065,-0.055347,-0.023349,0.03,-0.57,10.04
227775099,0.029433,-0.004214,-0.024415,-0.02,-0.05,10.43
227776132,0.013453,0.022418,-0.024415,-0.28,-0.91,9.70
227777118,-0.011048,0.017092,-0.018023,0.12,-0.14,9.93
227778128,-0.060051,0.036267,-0.018023,0.10,-0.37,9.53
227779138,-0.082422,0.066095,-0.014827,-0.16,-0.65,9.46
227780148,-0.061116,0.059703,-0.010566,0.05,-0.10,10.19
227781162,-0.029158,0.026679,-0.005240,0.07,-0.46,9.67
227782168,0.008127,-0.006344,-0.002044,-0.13,-0.57,9.63
227783198,0.023041,-0.026585,-0.000978,0.21,0.11,10.33
227784189,0.013453,-0.038303,-0.004174,0.04,-0.40,9.53
227785199,0.040085,-0.040433,-0.005240,-0.01,-0.77,9.58
227786232,0.064587,-0.040433,-0.006305,0.15,0.29,10.43
227787218,0.025171,-0.031911,-0.012697,-0.09,-0.31,9.47
227788228,-0.008918,-0.009540,-0.016958,0.16,-0.93,9.17
227789238,0.009192,0.003243,-0.010566,0.14,0.46,10.48
227790248,0.003866,0.014961,-0.005240,-0.21,-0.30,9.76
227791262,-0.032354,0.038397,-0.008435,0.15,-0.96,9.39
227792268,-0.046202,0.039463,-0.010566,0.15,0.46,10.43
227793299,-0.052594,0.044789,-0.010566,-0.32,-0.48,9.37
227794289,-0.057920,0.055442,-0.008435,0.03,-0.91,9.13
227795299,-0.061116,0.047985,-0.005240,0.10,0.43,10.41
227796332,-0.065377,0.045854,-0.005240,-0.35,-0.65,9.42
227797318,-0.036615,0.025614,-0.008435,0.05,-0.88,9.24
227798328,-0.023831,-0.003149,-0.011631,0.14,0.42,10.50
227799338,-0.041941,-0.004214,-0.013762,-0.36,-0.67,9.59
227800348,-0.002526,-0.013801,-0.012697,0.05,-0.81,9.50
227801362,0.025171,-0.028715,-0.011631,0.13,0.34,10.55
227802368,0.003866,-0.029781,-0.015892,-0.34,-0.65,9.36
227803398,0.030498,-0.038303,-0.019088,0.15,-0.71,9.23
227804389,0.051803,-0.050021,-0.012697,0.21,0.41,10.63
227805399,0.025171,-0.044694,-0.011631,-0.35,-0.62,9.53
227806432,0.040085,-0.036172,-0.014827,0.22,-0.69,9.26
227807418,0.060326,-0.043629,-0.011631,0.29,0.52,10.67
227808428,0.030498,-0.024454,-0.012697,-0.37,-0.69,9.45
227809438,0.024106,0.009635,-0.015892,0.18,-0.75,9.21
227810448,0.027302,0.007504,-0.009501,0.26,0.56,10.77
227811462,-0.005722,0.023483,-0.008435,-0.39,-0.77,9.51
227812468,-0.024897,0.047985,-0.011631,0.21,-0.74,9.27
227813499,-0.033419,0.043724,-0.010566,0.29,0.53,10.66
