time_us,gyro_x_rad_s,gyro_y_rad_s,gyro_z_rad_s,acc_x_m_s2,acc_y_m_s2,acc_z_m_s2
31037618,0.001914,0.001403,0.003187,0.02,-0.30,9.84
31038443,0.000848,0.000338,0.001056,0.01,-0.31,9.88
31039203,-0.000217,0.000338,-0.000009,0.00,-0.31,9.86
31040198,-0.001282,0.000338,-0.001074,0.00,-0.30,9.83
31041207,-0.001282,0.000338,-0.001074,0.03,-0.30,9.80
31042215,-0.002348,-0.000728,-0.002140,0.02,-0.32,9.76
31043169,-0.002348,-0.000728,-0.002140,0.02,-0.32,9.76
31044179,0.001914,-0.001793,-0.001074,0.04,-0.34,9.75
31045194,0.002979,-0.003923,-0.001074,0.02,-0.30,9.77
31046199,0.001914,-0.001793,-0.000009,0.03,-0.29,9.83
31047209,0.001914,0.000338,0.001056,0.03,-0.30,9.86
31048219,0.001914,0.000338,0.001056,0.04,-0.29,9.88
31049243,0.001914,-0.001793,0.001056,0.05,-0.29,9.86
31050246,0.000848,-0.002858,0.001056,-0.01,-0.29,9.86
31051247,0.001914,0.000338,0.001056,-0.02,-0.30,9.81
31052257,0.002979,0.001403,-0.001074,-0.01,-0.28,9.78
31053267,0.001914,0.001403,-0.001074,0.00,-0.27,9.83
31054277,0.000848,-0.000728,-0.001074,-0.03,-0.31,9.83
31055291,0.001914,-0.000728,-0.001074,-0.03,-0.30,9.85
31056297,0.002979,-0.000728,-0.000009,0.00,-0.30,9.86
31057307,0.004044,-0.001793,0.002122,0.02,-0.31,9.84
31058317,0.004044,-0.000728,0.003187,0.02,-0.31,9.82
31059347,0.004044,0.000338,0.002122,0.00,-0.31,9.86
31060352,0.002979,0.001403,0.001056,0.01,-0.28,9.88
31061349,0.001914,0.001403,0.001056,0.01,-0.26,9.86
31062359,0.001914,0.002468,0.001056,-0.02,-0.29,9.86
31063369,0.000848,0.001403,-0.001074,-0.02,-0.29,9.87
31064379,0.000848,-0.000728,-0.002140,0.00,-0.30,9.87
31065395,0.000848,-0.001793,-0.004270,-0.01,-0.31,9.86
31066399,0.000848,-0.001793,-0.003205,-0.01,-0.33,9.87
31067409,0.001914,0.000338,-0.000009,0.00,-0.34,9.85
31068419,-0.000217,0.001403,0.001056,0.01,-0.33,9.81
31069442,-0.000217,-0.000728,0.002122,0.01,-0.34,9.80
31070447,0.000848,-0.001793,0.002122,-0.01,-0.33,9.83
31071447,0.001914,-0.000728,0.002122,0.02,-0.32,9.85
31072457,0.001914,0.000338,-0.000009,0.03,-0.31,9.86
31073467,0.001914,-0.000728,-0.001074,0.00,-0.32,9.85
31074477,0.000848,-0.001793,-0.000009,0.03,-0.30,9.86
31075491,0.000848,-0.002858,0.001056,0.01,-0.28,9.87
31076497,0.002979,-0.002858,0.002122,0.00,-0.31,9.84
31077507,0.002979,-0.001793,0.001056,0.01,-0.29,9.85
31078535,0.000848,0.000338,-0.000009,0.00,-0.27,9.85
31079531,0.001914,0.000338,-0.002140,-0.01,-0.31,9.86
31080551,0.004044,0.000338,-0.004270,0.01,-0.34,9.84
31081549,0.002979,0.000338,-0.001074,0.03,-0.30,9.83
31082559,0.002979,0.000338,0.001056,0.02,-0.24,9.82
31083569,0.000848,0.001403,0.001056,0.00,-0.27,9.81
31084579,-0.002348,0.001403,0.001056,0.03,-0.29,9.86
31085594,-0.001282,0.000338,0.003187,0.06,-0.31,9.87
31086599,-0.000217,-0.000728,0.003187,0.02,-0.28,9.86
31087609,-0.001282,0.000338,0.004252,-0.01,-0.28,9.86
31088633,-0.003413,0.002468,0.003187,0.02,-0.30,9.88
31089629,-0.004478,0.004599,-0.000009,0.04,-0.30,9.86
31090688,-0.003413,0.006729,-0.002140,0.02,-0.32,9.85
31091711,-0.001299,0.002467,-0.004336,0.01,-0.30,9.85
31092657,-0.000234,-0.001795,-0.002206,0.02,-0.30,9.83
31093667,0.000831,-0.002860,0.000990,-0.01,-0.31,9.84
31094677,0.001897,0.000336,0.002056,0.02,-0.30,9.86
31095692,0.000831,0.002467,0.000990,0.04,-0.27,9.84
31096697,-0.001299,0.000336,-0.000075,-0.01,-0.29,9.82
31097707,-0.001299,-0.000729,-0.001140,-0.01,-0.31,9.84
31098737,-0.001299,-0.001795,-0.001140,0.03,-0.28,9.86
31099731,-0.001299,-0.001795,-0.001140,0.02,-0.29,9.84
31100751,-0.000234,-0.001795,-0.001140,0.01,-0.30,9.85
31101749,-0.000234,0.000336,-0.000075,0.01,-0.27,9.83
31102759,-0.000234,0.002467,0.000990,-0.01,-0.28,9.76
31103769,-0.000234,0.002467,0.003121,0.00,-0.30,9.76
31104779,0.000831,0.003532,0.004186,0.03,-0.32,9.80
31105794,-0.000234,0.004597,0.002056,0.02,-0.31,9.81
31106799,-0.001299,0.003532,-0.002206,0.03,-0.30,9.79
31107809,-0.002365,0.002467,-0.003271,0.02,-0.29,9.81
31108833,-0.004495,0.002467,-0.002206,0.01,-0.27,9.85
31109829,-0.002365,0.001401,-0.001140,0.02,-0.30,9.82
31110844,0.000831,-0.001795,-0.001140,0.03,-0.34,9.83
31111847,0.000831,-0.001795,-0.000075,0.02,-0.34,9.85
31112857,-0.000234,-0.000729,0.000990,0.01,-0.30,9.80
31113867,-0.000234,-0.000729,0.000990,0.02,-0.30,9.77
31114877,0.000831,0.000336,0.000990,0.03,-0.30,9.81
31115891,-0.000234,-0.000729,-0.000075,0.03,-0.31,9.83
31116897,-0.000234,-0.001795,0.000990,0.00,-0.31,9.84
31117909,0.000831,-0.000729,-0.000075,-0.01,-0.31,9.83
31118945,0.001897,-0.000729,-0.002206,0.00,-0.31,9.79
31119941,0.000831,0.000336,-0.003271,0.04,-0.30,9.84
31120960,0.000831,0.000336,-0.002206,0.04,-0.32,9.87
31121964,0.000831,-0.000729,-0.001140,0.03,-0.32,9.84
31122964,0.000831,-0.001795,-0.000075,0.04,-0.30,9.82
31123980,-0.000234,-0.000729,-0.001140,0.05,-0.30,9.86
31124999,-0.001299,0.000336,-0.001140,0.06,-0.32,9.86
31126003,-0.003430,0.001401,-0.000075,0.05,-0.33,9.85
31127013,-0.003430,0.002467,0.000990,0.02,-0.32,9.89
31128020,-0.002365,0.002467,0.000990,-0.03,-0.30,9.85
31129045,-0.001299,-0.000729,-0.002206,0.01,-0.30,9.83
31130046,0.000831,-0.002860,-0.001140,0.09,-0.27,9.84
31131052,0.002962,-0.002860,0.003121,0.05,-0.28,9.81
31132056,0.001897,-0.001795,0.002056,0.00,-0.28,9.83
31133072,-0.000234,-0.000729,-0.002206,0.02,-0.27,9.86
31134083,-0.000234,0.001401,-0.004336,0.01,-0.29,9.85
31135084,0.001897,0.003532,-0.001140,0.01,-0.31,9.81
31136096,0.004027,0.002467,0.002056,-0.02,-0.29,9.83
31137101,0.004027,0.001401,0.002056,-0.01,-0.28,9.84
31138107,0.002962,0.002467,0.000990,0.02,-0.30,9.80
31139164,-0.000234,0.001401,-0.001140,0.02,-0.31,9.80
31140153,-0.002365,-0.000729,-0.003271,0.03,-0.31,9.85
31141155,-0.002365,-0.000729,-0.002206,0.04,-0.31,9.80
31142151,0.000831,0.000336,0.000990,0.03,-0.33,9.78
31143160,0.001897,0.002467,0.000990,0.03,-0.33,9.80
31144169,-0.000234,0.003532,-0.001140,0.03,-0.31,9.84
31145179,0.000831,0.000336,-0.001140,0.03,-0.31,9.81
31146194,0.000831,-0.002860,-0.001140,0.02,-0.28,9.83
31147199,-0.000234,-0.003925,-0.002206,-0.01,-0.28,9.88
31148209,-0.001299,-0.002860,-0.001140,-0.01,-0.27,9.85
31149233,-0.001299,0.000336,-0.001140,0.00,-0.31,9.82
31150229,-0.002365,0.001401,-0.001140,0.00,-0.32,9.85
31151244,-0.002365,0.001401,-0.001140,0.02,-0.30,9.89
31152247,-0.000234,0.001401,-0.002206,0.01,-0.31,9.86
31153257,-0.000234,0.000336,-0.002206,0.00,-0.28,9.86
31154267,-0.001299,-0.002860,-0.002206,0.01,-0.30,9.83
31155277,-0.002365,-0.002860,-0.002206,0.02,-0.32,9.86
31156291,-0.003430,-0.000729,-0.000075,0.04,-0.29,9.91
31157297,-0.003430,0.001401,-0.000075,0.04,-0.31,9.90
31158307,-0.003430,0.001401,-0.002206,0.02,-0.31,9.84
31159337,-0.001299,-0.000729,-0.003271,-0.01,-0.33,9.80
31160331,0.000831,0.001401,-0.002206,-0.01,-0.33,9.83
31161350,0.000831,0.003532,-0.001140,0.02,-0.30,9.88
31162349,0.000831,0.004597,-0.002206,0.04,-0.31,9.93
31163359,-0.000234,0.004597,-0.001140,0.03,-0.30,9.89
31164369,-0.000234,0.001401,-0.001140,-0.02,-0.29,9.83
31165379,0.001897,-0.001795,-0.000075,-0.01,-0.31,9.82
31166395,0.001897,0.000336,-0.001140,0.03,-0.31,9.83
31167399,0.000831,0.003532,-0.003271,0.03,-0.33,9.82
31168409,-0.000234,0.003532,-0.003271,0.02,-0.33,9.81
31169432,-0.002365,0.000336,-0.001140,0.01,-0.30,9.82
31170429,-0.001299,-0.002860,-0.000075,0.01,-0.32,9.79
31171445,-0.000234,-0.000729,0.000990,-0.01,-0.30,9.79
31172447,0.001897,0.000336,0.002056,-0.02,-0.28,9.78
31173457,0.002962,-0.001795,0.000990,-0.02,-0.31,9.79
31174467,0.000831,-0.002860,0.000990,0.02,-0.30,9.83
31175477,0.000831,-0.001795,0.003121,0.01,-0.26,9.83
31176491,-0.000234,0.000336,0.003121,-0.03,-0.27,9.82
31177497,-0.000234,0.001401,-0.000075,-0.01,-0.30,9.84
31178525,-0.000234,0.001401,-0.002206,0.02,-0.30,9.84
31179521,-0.001299,0.004597,-0.001140,0.03,-0.29,9.83
31180529,-0.001299,0.006728,-0.001140,0.01,-0.28,9.86
31181551,0.000831,0.003532,-0.000075,-0.01,-0.32,9.88
31182549,0.002962,-0.001795,-0.001140,0.00,-0.33,9.84
31183559,0.005092,-0.003925,-0.003271,0.01,-0.31,9.80
31184569,0.004027,-0.003925,-0.001140,0.01,-0.33,9.82
31185579,0.002962,-0.001795,0.000990,0.02,-0.30,9.85
31186594,0.001897,0.000336,-0.000075,0.08,-0.29,9.85
31187599,-0.000234,0.001401,-0.002206,0.07,-0.35,9.82
31188623,-0.002365,0.002467,-0.002206,0.04,-0.33,9.84
31189619,-0.001299,0.001401,-0.000075,0.05,-0.29,9.88
31190627,0.000831,-0.000729,-0.000075,0.00,-0.32,9.88
31191644,-0.001299,-0.000729,-0.000075,0.00,-0.33,9.85
31192647,-0.003430,0.000336,-0.000075,0.02,-0.32,9.82
31193657,-0.003430,0.000336,-0.000075,0.00,-0.32,9.79
31194667,-0.002365,0.000336,-0.002206,0.02,-0.30,9.84
31195677,-0.001299,-0.000729,-0.001140,0.03,-0.29,9.85
31196691,0.000831,-0.001795,0.000990,0.02,-0.30,9.80
31197697,0.001897,-0.002860,-0.000075,0.00,-0.30,9.87
31198727,0.001897,0.000336,-0.002206,0.01,-0.28,9.89
31199721,0.000831,0.003532,-0.003271,0.00,-0.26,9.84
31200729,0.000831,0.003532,-0.001140,-0.02,-0.26,9.82
31201750,0.000831,0.003532,-0.000075,0.01,-0.29,9.84
31202749,-0.000234,0.003532,-0.000075,0.04,-0.30,9.81
31203759,-0.000234,0.001401,0.000990,0.00,-0.31,9.82
31204769,-0.000234,0.000336,0.000990,0.01,-0.34,9.87
31205779,0.000831,0.001401,-0.000075,0.04,-0.31,9.82
31206795,0.002962,0.001401,-0.000075,0.03,-0.29,9.82
31207799,0.001897,0.001401,-0.000075,0.02,-0.30,9.85
31208822,-0.000234,-0.000729,-0.001140,0.02,-0.33,9.83
31209819,-0.001299,-0.000729,-0.000075,0.00,-0.29,9.82
31210827,-0.001299,-0.000729,-0.000075,0.00,-0.26,9.82
31211845,-0.001299,-0.001795,0.000990,0.00,-0.28,9.80
31212847,-0.000234,-0.000729,0.000990,0.01,-0.30,9.81
31213857,0.001897,0.000336,0.000990,0.02,-0.32,9.81
31214867,0.001897,0.001401,0.003121,0.02,-0.35,9.82
31215877,-0.000234,0.001401,0.004186,0.03,-0.35,9.86
31216891,-0.000234,0.001401,0.005251,0.04,-0.30,9.84
31217897,-0.000234,0.001401,0.003121,0.02,-0.29,9.87
31218931,-0.001299,0.001401,-0.000075,0.03,-0.28,9.89
31219927,-0.002365,0.001401,-0.001140,0.01,-0.29,9.83
31220969,-0.001291,0.000286,-0.000029,0.00,-0.32,9.82
31221960,0.000839,-0.001845,0.001036,0.02,-0.31,9.81
31222962,-0.000226,-0.001845,0.001036,0.03,-0.31,9.81
31223963,0.000839,-0.000780,0.001036,0.03,-0.29,9.85
31224978,0.000839,0.002416,-0.000029,0.00,-0.29,9.86
31225991,0.000839,0.003481,-0.000029,0.01,-0.32,9.90
31227003,-0.000226,0.001351,0.001036,0.01,-0.34,9.87
31228017,-0.002356,-0.000780,0.002102,0.02,-0.31,9.84
31229031,-0.003422,-0.001845,0.001036,0.04,-0.30,9.84
31230027,-0.003422,-0.001845,-0.001094,0.04,-0.31,9.82
31231039,-0.000226,0.000286,-0.001094,0.01,-0.28,9.86
31232051,0.000839,0.000286,-0.000029,-0.02,-0.29,9.88
31233053,0.000839,-0.000780,0.001036,0.01,-0.32,9.87
31234075,-0.000226,-0.000780,-0.000029,0.06,-0.32,9.85
31235080,-0.000226,0.000286,-0.002159,0.05,-0.31,9.84
31236085,-0.000226,0.000286,-0.003225,0.04,-0.32,9.84
31237096,0.000839,0.001351,-0.003225,0.01,-0.29,9.83
31238101,0.000839,0.001351,0.001036,-0.02,-0.27,9.87
31239127,-0.000226,-0.000780,0.003167,-0.02,-0.29,9.89
31240125,0.000839,-0.000780,0.002102,-0.03,-0.29,9.83
31241134,0.004035,0.000286,-0.001094,0.01,-0.32,9.83
31242153,0.005101,0.000286,-0.002159,0.03,-0.33,9.84
31243151,0.001905,0.000286,-0.001094,0.04,-0.31,9.82
31244160,-0.000226,-0.000780,-0.000029,0.03,-0.30,9.83
31245169,0.001905,0.002416,-0.002159,0.02,-0.31,9.86
31246179,0.001905,0.002416,-0.003225,0.02,-0.31,9.89
31247195,0.000839,0.000286,-0.001094,0.02,-0.29,9.83
31248199,0.000839,0.001351,-0.000029,0.01,-0.28,9.79
31249230,0.000839,0.002416,-0.001094,0.01,-0.28,9.77
31250219,0.000839,0.000286,-0.001094,0.05,-0.28,9.75
31251227,-0.000226,-0.000780,-0.000029,0.05,-0.30,9.78
31252245,-0.002356,-0.002910,0.001036,0.02,-0.29,9.80
31253247,-0.004487,-0.005041,-0.000029,0.02,-0.29,9.82
31254257,-0.004487,-0.005041,-0.001094,0.03,-0.29,9.84
31255267,-0.001291,-0.005041,-0.000029,0.02,-0.28,9.86
31256277,-0.000226,-0.003976,-0.000029,0.01,-0.31,9.85
31257291,-0.000226,-0.002910,-0.000029,0.00,-0.35,9.87
31258297,0.000839,-0.001845,0.001036,0.00,-0.34,9.87
31259337,-0.000226,0.000286,0.003167,0.02,-0.32,9.85
31260321,-0.001291,0.001351,0.001036,0.02,-0.31,9.86
31261329,-0.001291,-0.000780,0.001036,0.01,-0.32,9.88
31262351,-0.001291,-0.000780,-0.000029,0.03,-0.33,9.88
31263349,-0.001291,0.000286,-0.000029,0.03,-0.29,9.86
31264359,0.000839,0.001351,-0.000029,-0.02,-0.29,9.85
31265369,0.002970,0.004547,-0.001094,-0.03,-0.30,9.86
31266379,0.001905,0.004547,-0.002159,0.00,-0.27,9.83
31267394,0.000839,0.001351,-0.002159,0.04,-0.27,9.82
31268399,-0.000226,-0.001845,-0.000029,0.03,-0.29,9.87
31269423,-0.001291,0.000286,-0.000029,-0.02,-0.28,9.87
31270419,-0.000226,0.002416,-0.001094,-0.03,-0.30,9.85
31271427,0.000839,0.004547,-0.000029,0.01,-0.30,9.84
31272444,0.000839,0.003481,0.002102,0.05,-0.28,9.84
31273447,0.000839,0.000286,0.001036,0.04,-0.29,9.85
31274457,0.001905,0.000286,-0.002159,0.00,-0.27,9.87
31275467,-0.000226,0.001351,-0.003225,-0.02,-0.24,9.88
31276477,-0.000226,0.002416,-0.001094,0.00,-0.26,9.85
31277491,0.001905,0.002416,0.001036,0.01,-0.28,9.84
31278517,0.002970,0.001351,0.001036,0.00,-0.33,9.80
31279511,0.001905,0.002416,-0.000029,-0.02,-0.35,9.78
31280519,-0.000226,0.002416,-0.001094,-0.02,-0.33,9.83
31281529,0.000839,0.001351,-0.001094,0.01,-0.34,9.88
31282550,0.000839,0.000286,-0.001094,0.01,-0.34,9.87
31283549,0.000839,0.000286,-0.001094,0.01,-0.29,9.83
31284559,0.000839,0.002416,-0.002159,0.03,-0.29,9.82
31285569,-0.001291,0.001351,-0.002159,0.02,-0.34,9.81
31286579,-0.002356,0.000286,-0.001094,0.01,-0.35,9.80
31287595,-0.001291,0.000286,-0.000029,0.03,-0.34,9.83
31288612,-0.001291,0.000286,0.001036,0.04,-0.33,9.88
31289609,-0.000226,0.001351,0.001036,0.01,-0.34,9.90
31290617,0.000839,0.000286,-0.000029,0.01,-0.31,9.83
31291627,-0.000226,0.000286,-0.001094,0.02,-0.31,9.82
31292645,-0.000226,-0.000780,-0.001094,0.04,-0.31,9.85
31293647,-0.000226,-0.002910,-0.000029,0.03,-0.31,9.80
31294657,0.000839,-0.001845,-0.002159,0.03,-0.32,9.82
31295667,0.000839,-0.000780,-0.004290,0.03,-0.30,9.85
31296677,-0.000226,-0.000780,-0.003225,0.01,-0.30,9.82
31297691,-0.000226,-0.000780,-0.001094,0.03,-0.31,9.83
31298715,-0.000226,0.000286,0.001036,0.04,-0.32,9.85
31299711,0.000839,0.001351,0.002102,0.03,-0.31,9.87
31300731,0.001905,-0.000780,0.002102,0.03,-0.33,9.87
31301728,0.004035,0.000286,0.001036,0.01,-0.36,9.86
31302748,0.005101,0.001351,-0.000029,-0.01,-0.35,9.86
31303747,0.005101,0.000286,-0.002159,0.03,-0.34,9.84
31304757,0.004035,-0.002910,-0.002159,0.04,-0.34,9.80
31305767,0.001905,-0.002910,-0.000029,-0.01,-0.34,9.78
31306777,-0.002356,-0.000780,0.002102,-0.02,-0.33,9.81
31307791,-0.003422,-0.000780,0.003167,0.00,-0.29,9.85
31308818,-0.000226,-0.002910,0.003167,0.01,-0.30,9.83
31309809,0.001905,-0.005041,0.003167,0.02,-0.32,9.80
31310830,0.000839,-0.005041,0.001036,0.04,-0.31,9.81
31311827,0.000839,-0.001845,0.001036,0.05,-0.32,9.80
31312842,-0.000226,0.000286,-0.000029,0.06,-0.32,9.79
31313845,-0.001291,0.001351,-0.001094,0.02,-0.31,9.88
31314855,-0.000226,0.001351,-0.000029,0.02,-0.28,9.87
31315865,0.001905,0.001351,-0.001094,0.03,-0.28,9.82
31316875,0.002970,0.000286,-0.001094,0.01,-0.28,9.84
31317890,0.001905,0.001351,-0.000029,0.02,-0.30,9.83
31318926,0.000839,0.001351,-0.001094,0.05,-0.30,9.88
31319924,-0.000226,0.000286,-0.001094,0.05,-0.28,9.89
31320925,0.001905,-0.001845,-0.000029,0.04,-0.31,9.85
31321938,0.001905,-0.002910,0.001036,0.02,-0.31,9.85
31322957,0.000839,-0.002910,0.002102,0.00,-0.30,9.85
31323959,-0.000226,-0.000780,0.003167,-0.01,-0.30,9.86
31324962,-0.000226,0.000286,0.003167,-0.01,-0.29,9.88
31325973,-0.001291,-0.000780,-0.000029,0.02,-0.31,9.82
31326987,0.000839,0.000286,-0.002159,0.03,-0.31,9.78
31328002,0.002970,0.003481,-0.001094,0.01,-0.30,9.82
31329024,0.004035,0.003481,0.001036,0.03,-0.32,9.83
31330027,0.000839,0.002416,0.003167,0.02,-0.32,9.86
31331025,-0.000226,0.001351,0.004232,-0.02,-0.30,9.84
31332039,-0.000226,0.002416,0.004232,-0.01,-0.33,9.85
31333051,0.000839,0.003481,-0.000029,0.03,-0.31,9.83
31334059,0.000839,0.002416,-0.003225,0.02,-0.29,9.78
31335065,-0.001291,0.000286,-0.002159,-0.02,-0.31,9.82
31336075,-0.002356,-0.000780,-0.000029,-0.02,-0.30,9.85
31337084,-0.003422,0.000286,0.002102,0.00,-0.31,9.87
31338097,-0.000226,0.000286,0.002102,0.00,-0.31,9.84
31339121,0.002970,-0.000780,-0.001094,-0.01,-0.30,9.82
31340121,0.000839,-0.001845,-0.004290,-0.01,-0.28,9.85
31341122,-0.000226,-0.002910,-0.003225,0.01,-0.28,9.87
31342131,-0.001291,-0.001845,-0.001094,0.01,-0.30,9.83
31343152,-0.001291,0.000286,-0.000029,-0.01,-0.31,9.81
31344184,0.000839,-0.003976,-0.000029,0.05,-0.30,9.84
31345158,-0.000226,-0.003976,-0.000029,0.01,-0.30,9.87
31346167,-0.001291,-0.003976,-0.000029,-0.02,-0.30,9.90
31347177,0.000839,-0.002910,-0.002159,-0.01,-0.31,9.90
31348191,0.001905,-0.000780,-0.001094,-0.03,-0.32,9.86
31349217,0.001905,-0.000780,0.001036,0.00,-0.30,9.86
31350254,-0.000270,0.001359,-0.000013,0.04,-0.28,9.86
31351217,-0.001335,0.003489,-0.003209,0.04,-0.28,9.82
31352225,-0.000270,0.003489,-0.003209,0.02,-0.28,9.79
31353242,-0.000270,0.000293,-0.001079,0.03,-0.35,9.82
31354245,-0.001335,-0.000772,0.001052,0.04,-0.37,9.86
31355255,-0.002400,-0.000772,-0.000013,0.00,-0.32,9.86
31356265,-0.001335,-0.000772,0.001052,0.00,-0.30,9.84
31357275,-0.000270,-0.002903,-0.000013,0.02,-0.30,9.79
31358290,-0.000270,-0.003968,-0.001079,0.02,-0.30,9.79
31359319,-0.000270,-0.000772,-0.000013,0.02,-0.28,9.78
31360321,-0.000270,0.001359,0.001052,0.03,-0.30,9.76
31361318,-0.000270,0.003489,-0.000013,0.01,-0.31,9.79
31362327,0.001861,0.002424,-0.000013,0.01,-0.29,9.85
31363347,0.002926,-0.001837,0.001052,0.03,-0.29,9.88
31364347,0.001861,-0.005033,0.002117,0.04,-0.28,9.86
31365357,-0.000270,-0.003968,0.002117,0.02,-0.32,9.81
31366367,-0.003466,-0.000772,0.001052,0.02,-0.31,9.80
31367377,-0.003466,0.001359,-0.000013,0.04,-0.28,9.80
31368392,-0.003466,0.000293,-0.003209,0.03,-0.28,9.79
31369415,-0.002400,0.000293,-0.004275,0.03,-0.27,9.80
31370420,-0.001335,-0.000772,-0.002144,0.02,-0.28,9.84
31371417,-0.000270,-0.002903,-0.000013,0.01,-0.31,9.88
31372425,-0.001335,-0.001837,0.002117,0.02,-0.33,9.87
31373444,-0.002400,-0.000772,0.002117,0.01,-0.32,9.86
31374445,-0.001335,-0.000772,-0.000013,0.00,-0.31,9.88
31375455,0.001861,-0.000772,-0.002144,0.03,-0.32,9.87
31376465,0.005057,-0.000772,-0.001079,0.06,-0.32,9.81
31377475,0.003991,-0.000772,0.001052,0.05,-0.31,9.79
31378508,0.001861,-0.000772,0.003182,0.04,-0.28,9.82
31379501,-0.000270,-0.000772,0.004248,0.03,-0.27,9.82
31380521,-0.001335,-0.002903,0.002117,-0.01,-0.28,9.82
31381518,0.000795,-0.003968,-0.002144,-0.01,-0.32,9.85
31382527,0.002926,-0.001837,-0.002144,0.01,-0.34,9.83
31383547,0.001861,-0.000772,-0.001079,-0.01,-0.29,9.79
31384547,0.002926,0.001359,-0.001079,0.01,-0.27,9.80
31385557,0.002926,0.003489,-0.001079,0.02,-0.28,9.83
31386567,0.000795,0.001359,-0.001079,0.02,-0.28,9.87
31387577,-0.000270,-0.000772,-0.001079,0.04,-0.31,9.88
31388607,0.000795,-0.001837,-0.002144,0.04,-0.31,9.82
31389600,0.000795,-0.002903,-0.001079,0.01,-0.30,9.81
31390620,-0.000270,-0.001837,-0.002144,-0.02,-0.31,9.85
31391617,-0.000270,-0.001837,-0.001079,0.02,-0.31,9.85
31392625,-0.000270,-0.001837,0.001052,0.05,-0.33,9.85
31393642,-0.002400,-0.001837,-0.000013,0.05,-0.30,9.86
31394645,-0.002400,-0.002903,-0.001079,0.02,-0.27,9.90
31395655,-0.002400,-0.005033,-0.001079,0.02,-0.29,9.90
31396665,-0.000270,-0.003968,-0.002144,0.02,-0.28,9.88
31397675,0.000795,-0.001837,-0.002144,-0.01,-0.30,9.86
31398709,0.000795,0.001359,-0.000013,0.01,-0.32,9.83
31399701,-0.000270,0.000293,0.001052,0.06,-0.32,9.84
31400721,-0.001335,-0.001837,0.001052,0.05,-0.33,9.80
31401718,-0.000270,-0.001837,0.001052,0.00,-0.28,9.78
31402727,0.000795,0.000293,-0.001079,0.00,-0.26,9.81
31403746,0.001861,0.001359,-0.002144,0.04,-0.28,9.87
31404747,0.003991,0.000293,-0.001079,0.03,-0.30,9.90
31405757,0.005057,-0.000772,0.001052,0.04,-0.30,9.85
31406767,0.002926,-0.001837,0.001052,0.07,-0.28,9.82
31407777,0.001861,-0.001837,0.001052,0.03,-0.30,9.87
31408807,0.001861,-0.000772,0.001052,0.00,-0.32,9.86
31409800,0.000795,-0.000772,0.002117,0.00,-0.28,9.82
31410820,-0.003466,0.000293,0.001052,-0.01,-0.28,9.82
31411817,-0.005596,0.001359,-0.000013,0.01,-0.32,9.83
31412825,-0.003466,-0.000772,-0.002144,0.00,-0.30,9.80
31413842,-0.000270,-0.002903,-0.002144,0.01,-0.29,9.81
31414845,0.001861,0.000293,-0.002144,0.05,-0.29,9.84
31415855,0.001861,0.002424,-0.001079,0.03,-0.32,9.80
31416865,0.001861,0.002424,-0.001079,0.01,-0.35,9.76
31417875,-0.001335,-0.001837,-0.001079,-0.01,-0.35,9.79
31418912,-0.001335,-0.003968,0.001052,-0.01,-0.33,9.81
31419912,-0.000270,-0.002903,0.003182,0.01,-0.28,9.84
31420911,-0.000270,-0.001837,0.002117,0.04,-0.28,9.91
31421919,-0.001335,0.000293,-0.001079,0.05,-0.28,9.90
31422938,-0.000270,0.001359,-0.003209,0.04,-0.29,9.88
31423954,0.000795,0.003489,-0.002144,0.06,-0.30,9.84
31424958,0.000795,0.002424,-0.000013,0.06,-0.27,9.83
31425964,0.000795,0.000293,0.001052,0.03,-0.26,9.84
31426976,0.000795,0.000293,-0.000013,0.01,-0.30,9.82
31427991,-0.000270,0.000293,0.001052,0.02,-0.32,9.84
31429021,0.001861,-0.000772,0.003182,0.03,-0.30,9.85
31430024,0.002926,-0.001837,0.003182,0.00,-0.28,9.87
31431017,0.000795,-0.000772,0.002117,-0.02,-0.28,9.86
31432025,0.000795,-0.000772,0.001052,0.01,-0.29,9.86
31433034,0.000795,-0.001837,-0.000013,0.04,-0.33,9.81
31434060,-0.001335,-0.001837,-0.001079,0.04,-0.32,9.78
31435052,-0.003466,-0.000772,-0.001079,0.04,-0.31,9.83
31436064,-0.003466,0.000293,-0.001079,0.02,-0.31,9.83
31437075,-0.000270,0.001359,-0.001079,0.01,-0.32,9.82
31438084,0.000795,0.002424,-0.001079,0.01,-0.32,9.87
31439113,0.000795,0.002424,-0.000013,0.02,-0.31,9.90
31440144,0.000795,0.000293,0.002117,0.04,-0.31,9.87
31441108,0.001861,-0.001837,0.002117,0.04,-0.30,9.86
31442117,0.001861,-0.001837,-0.000013,0.02,-0.28,9.86
31443131,0.000795,0.000293,-0.000013,0.01,-0.27,9.84
31444150,-0.001335,0.003489,-0.000013,0.00,-0.30,9.84
31445149,0.000795,0.002424,0.001052,0.01,-0.33,9.80
31446158,-0.000270,0.005620,-0.001079,0.03,-0.32,9.83
31447167,-0.001335,0.006685,-0.003209,0.02,-0.28,9.84
31448177,-0.001335,0.003489,-0.001079,0.00,-0.28,9.85
31449484,-0.000270,0.001359,0.001052,0.01,-0.30,9.83
31450195,0.003991,0.004554,0.001052,0.01,-0.34,9.88
31451185,0.009318,0.014142,-0.002144,0.01,-0.35,9.87
31452194,-0.001335,0.014142,-0.007470,-0.05,-0.36,9.85
31453204,-0.009857,0.005620,-0.014927,-0.05,-0.43,9.83
31454223,-0.005596,-0.005033,-0.022384,0.01,-0.29,9.80
31455224,0.010383,-0.002903,-0.025580,0.03,-0.39,9.80
31456234,0.010383,0.005620,-0.024515,0.12,-0.36,9.88
31457244,0.002926,0.003489,-0.021319,0.20,-0.22,9.93
31458254,-0.011988,0.001359,-0.020254,0.05,-0.18,9.84
31459297,-0.013053,-0.005033,-0.017058,-0.25,-0.03,9.90
31460281,0.019971,-0.017816,-0.013862,-0.27,-0.30,9.78
31461288,0.039146,-0.022078,-0.004275,0.04,-0.45,9.66
31462297,0.014644,-0.014621,0.011705,0.31,-0.15,9.73
31463308,-0.016249,0.007750,0.017031,-0.06,0.07,9.93
31464327,-0.016249,0.013077,0.011705,-0.33,-0.69,10.13
31465328,0.011448,-0.008229,0.012770,0.03,-0.51,9.95
31466337,0.019971,-0.017816,0.021292,0.36,0.29,9.41
31467348,-0.022641,0.012011,0.017031,-0.20,-0.40,9.67
31468357,-0.020510,0.017338,0.007444,-0.45,-1.27,10.07
31469388,0.026362,-0.011425,0.012770,0.64,0.33,9.80
31470376,0.005057,-0.001837,0.012770,0.38,-0.29,9.79
31471384,-0.043946,0.014142,0.007444,-0.70,-1.62,9.92
31472394,0.008252,-0.022078,0.009574,0.37,1.07,9.94
31473404,0.030623,-0.025273,0.003182,0.27,-0.20,10.11
31474423,-0.045012,-0.011425,0.001052,-0.50,-1.26,8.91
31475424,-0.022641,-0.031665,-0.004275,0.58,-0.12,9.53
31476434,0.033819,-0.005033,-0.003209,-0.20,0.06,11.15
31477444,-0.007727,0.012011,-0.001079,-0.20,0.01,9.55
31478454,-0.003466,0.013077,-0.006405,-0.18,-0.99,10.38
31479490,-0.029032,-0.002903,-0.003209,0.25,0.32,9.50
31480481,0.006122,0.009881,-0.006405,-0.26,-0.47,9.14
31481488,-0.008792,0.009881,-0.004275,0.02,-0.19,10.63
31482497,-0.013053,-0.009294,-0.006405,0.29,-0.56,9.06
31483508,-0.017314,0.002424,-0.002144,-0.25,-0.42,10.58
31484527,-0.005596,-0.006098,-0.005340,0.46,0.20,9.66
31485528,-0.042881,-0.003968,-0.004275,-0.24,-0.90,10.00
31486537,-0.030098,-0.000772,-0.004275,0.09,0.05,9.67
31487548,-0.006661,0.005620,-0.002144,-0.45,-0.42,9.74
31488557,0.021036,0.006685,0.001052,0.07,0.16,10.00
31489588,-0.004531,-0.001837,-0.001079,-0.03,-0.70,9.12
31490576,-0.014118,0.001359,0.007444,0.39,-0.68,10.47
31491584,-0.007727,0.002424,0.009574,0.65,-0.06,9.74
31492594,-0.005596,0.002424,0.018096,-0.58,-0.84,10.06
31493604,0.002926,-0.006098,0.020227,0.15,0.04,9.84
31494623,-0.002400,-0.003968,0.020227,0.01,-0.47,9.18
31495624,-0.006661,0.006685,0.022357,-0.11,-0.77,10.52
31496634,0.000795,0.013077,0.021292,0.43,0.39,10.34
31497644,-0.000270,0.005620,0.019162,-0.40,-0.49,9.08
31498677,0.000795,-0.000772,0.019162,-0.20,-0.75,10.07
31499680,0.010383,-0.006098,0.014901,0.65,0.50,9.90
31500677,0.012514,-0.016751,0.010639,-0.44,-0.35,9.30
31501688,0.016775,-0.016751,0.009574,-0.37,-0.85,10.21
31502697,0.019971,-0.002903,0.008509,0.63,0.57,10.02
31503708,0.013579,-0.003968,0.008509,-0.07,-0.26,9.06
31504724,0.003991,-0.015686,0.006378,-0.61,-0.81,10.21
31505728,0.009318,-0.011425,0.004248,0.39,0.08,10.09
31506737,0.014644,-0.002903,0.002117,0.57,0.02,9.30
31507748,0.011448,-0.001837,0.001052,-0.58,-0.61,9.82
31508775,0.015709,-0.006098,-0.000013,-0.21,-0.71,10.34
31509776,0.018905,-0.011425,0.002117,0.64,0.44,9.85
31510774,0.005057,-0.006098,0.003182,0.18,-0.20,9.54
31511784,-0.007727,0.005620,0.001052,-0.55,-0.90,9.84
31512794,-0.009857,0.008816,-0.001079,0.00,-0.54,9.93
31513804,0.003991,0.006685,-0.001079,0.66,0.16,9.84
31514821,-0.011988,0.006685,-0.001079,0.23,-0.18,9.91
31515824,0.003991,-0.006098,-0.000013,-0.50,-0.98,9.93
31516834,0.040211,-0.010360,-0.000013,-0.32,-0.69,9.75
31517844,0.062582,-0.001837,0.002117,0.59,-0.11,9.69
31518877,0.044472,-0.001837,-0.000013,0.51,0.24,9.79
31519880,0.006122,-0.000772,-0.000013,-0.20,-0.58,9.96
31520877,-0.006661,0.002424,0.002117,-0.66,-0.87,9.82
31521888,-0.007727,0.001359,0.005313,-0.02,-0.78,9.51
31522899,-0.004531,0.000293,0.009574,0.58,0.35,9.89
31523913,-0.000270,0.002424,0.010639,0.31,0.36,10.33
31524929,0.001861,0.008816,0.011705,-0.13,-0.71,10.12
31525936,-0.002400,0.006685,0.014901,-0.65,-0.90,9.49
31526946,-0.005596,0.001359,0.017031,-0.20,-0.83,9.23
31527951,-0.000270,-0.002903,0.015966,0.44,0.26,9.87
31528990,-0.004531,-0.005033,0.014901,0.38,0.65,10.26
31529985,-0.006661,-0.002903,0.015966,0.29,-0.36,10.30
31530989,-0.009857,0.003489,0.017031,-0.33,-0.74,9.59
31531994,-0.008792,-0.000772,0.014901,-0.69,-0.85,8.95
31533005,0.002926,-0.001837,0.010639,-0.10,-0.67,9.56
31534014,0.005057,-0.000772,0.006378,0.25,0.39,10.17
31535026,0.006122,0.002424,0.006378,0.39,0.72,10.37
31536029,0.006122,0.004554,0.005313,0.49,-0.06,10.45
31537044,-0.002400,-0.000772,0.002117,-0.09,-0.75,9.81
31538053,-0.002400,-0.007164,-0.001079,-0.64,-1.07,9.04
31539085,0.002926,0.002424,-0.004275,-0.41,-0.95,9.23
31540084,-0.009857,0.005620,-0.005340,0.00,-0.20,9.78
31541083,-0.007727,-0.005033,-0.003209,0.16,0.61,10.15
31542088,0.011448,-0.010360,-0.002144,0.43,0.59,10.35
31543098,0.021036,-0.005033,-0.004275,0.61,-0.07,10.46
31544112,0.015709,-0.003968,-0.007470,0.24,-0.66,10.11
31545128,0.006122,-0.006098,-0.010666,-0.55,-1.18,9.00
31546130,-0.001335,0.000293,-0.011732,-0.44,-0.78,9.47
31547139,-0.006661,-0.000772,-0.011732,-0.17,-0.01,9.82
31548148,-0.006661,0.003489,-0.008536,0.13,0.55,10.05
31549206,0.003991,-0.003968,-0.004275,0.42,0.59,10.31
31550176,0.002926,-0.005033,-0.004275,0.63,0.10,10.43
31551174,-0.008792,0.006685,-0.002144,0.57,-0.54,10.43
31552184,-0.006661,0.019468,0.001052,0.18,-0.94,10.04
31553194,0.003991,0.025860,0.003182,-0.32,-1.08,9.31
31554204,0.006122,0.025860,0.004248,-0.60,-0.98,8.93
31555214,-0.005596,0.025860,0.003182,-0.58,-0.70,9.14
31556231,-0.019445,0.022664,0.002117,-0.43,-0.28,9.56
31557234,-0.009857,0.008816,0.004248,-0.20,0.21,9.80
31558244,0.006122,-0.003968,0.010639,0.04,0.56,9.99
31559278,-0.003466,0.000293,0.012770,0.32,0.52,10.27
31560271,-0.006661,-0.001837,0.011705,0.54,0.12,10.43
31561287,-0.016249,-0.000772,0.010639,0.62,-0.33,10.47
31562287,-0.010923,-0.001837,0.011705,0.46,-0.66,10.38
31563298,0.010383,0.001359,0.011705,0.12,-0.82,10.00
31564307,-0.000270,0.004554,0.009574,-0.24,-0.83,9.46
31565318,-0.016249,-0.001837,0.007444,-0.47,-0.81,9.01
31566334,-0.003466,-0.010360,0.006378,-0.55,-0.68,8.91
31567338,0.022101,-0.006098,0.005313,-0.54,-0.41,9.25
31568347,0.035950,0.007750,0.002117,-0.41,-0.14,9.63
31569375,0.031689,0.019468,-0.003209,-0.21,0.06,9.83
31570366,0.019971,0.022664,-0.006405,-0.02,0.20,10.00
31571383,0.012514,0.021599,-0.006405,0.14,0.29,10.22
31572384,0.014644,0.015207,-0.004275,0.32,0.23,10.32
31573394,0.018905,0.006685,-0.003209,0.49,0.04,10.35
31574404,0.016775,-0.001837,-0.002144,0.62,-0.21,10.33
31575414,0.002926,-0.006098,-0.002144,0.64,-0.44,10.29
31576431,-0.007727,-0.003968,-0.000013,0.48,-0.60,10.32
31577434,0.001861,0.003489,0.001052,0.24,-0.66,10.28
31578444,0.005057,0.002424,-0.002144,0.05,-0.72,9.99
31579478,-0.002400,-0.002903,-0.005340,-0.12,-0.73,9.51
31580471,-0.005596,-0.000772,-0.003209,-0.31,-0.70,9.14
31581487,-0.007727,-0.000772,-0.002144,-0.43,-0.61,9.06
31582487,-0.004531,0.000293,-0.000013,-0.48,-0.46,9.07
31583498,-0.006661,0.003489,0.001052,-0.49,-0.36,9.26
31584507,-0.002400,0.003489,0.003182,-0.43,-0.28,9.52
31585518,0.002926,0.001359,0.002117,-0.31,-0.22,9.67
31586534,-0.003466,0.000293,0.002117,-0.24,-0.08,9.81
31587538,-0.001335,-0.005033,0.001052,-0.14,-0.01,9.94
31588547,-0.000270,-0.006098,0.002117,-0.03,-0.02,10.03
31589575,-0.005596,-0.003968,0.002117,0.08,0.01,10.11
31590566,-0.006661,-0.005033,0.002117,0.18,0.02,10.19
31591620,0.003991,-0.007164,0.005313,0.27,-0.02,10.17
31592600,0.014644,-0.006098,0.006378,0.37,-0.09,10.14
31593594,-0.000270,0.002424,0.003182,0.43,-0.19,10.15
31594604,-0.013053,0.004554,0.002117,0.46,-0.29,10.19
31595614,-0.005596,-0.003968,0.002117,0.45,-0.35,10.18
31596632,0.006122,-0.013555,0.002117,0.40,-0.40,10.20
31597634,0.010383,-0.014621,0.002117,0.35,-0.45,10.28
31598667,0.014644,-0.007164,0.002117,0.23,-0.51,10.26
31599661,0.017840,0.002424,-0.000013,0.10,-0.50,10.11
31600667,0.026362,0.003489,-0.001079,0.05,-0.50,9.90
31601688,0.028493,0.007750,-0.000013,0.02,-0.52,9.70
31602687,0.028493,0.012011,-0.000013,-0.05,-0.54,9.49
31603698,0.026362,0.015207,-0.000013,-0.14,-0.52,9.34
31604707,0.028493,0.015207,-0.001079,-0.22,-0.49,9.28
31605718,0.025297,0.014142,-0.001079,-0.28,-0.46,9.22
31606734,0.019971,0.009881,-0.000013,-0.31,-0.39,9.19
31607738,0.009318,0.002424,-0.000013,-0.31,-0.38,9.26
31608764,-0.002400,-0.006098,-0.000013,-0.35,-0.34,9.40
31609756,-0.006661,-0.012490,-0.001079,-0.36,-0.27,9.52
31610764,-0.004531,-0.015686,-0.002144,-0.27,-0.25,9.62
31611785,-0.006661,-0.011425,-0.003209,-0.20,-0.27,9.74
31612784,-0.005596,0.000293,-0.003209,-0.16,-0.27,9.85
31613794,0.005057,0.008816,-0.001079,-0.13,-0.23,9.89
31614804,0.008252,0.006685,-0.000013,-0.08,-0.23,9.93
31615814,0.006122,-0.001837,0.001052,-0.05,-0.23,9.92
31616831,0.008252,-0.003968,-0.000013,-0.03,-0.20,9.98
31617834,0.007187,0.002424,-0.000013,0.02,-0.20,10.03
31618866,0.006122,0.009881,0.002117,0.08,-0.19,10.04
31619861,0.002926,0.003489,0.002117,0.15,-0.16,10.05
31620867,0.003991,-0.007164,0.001052,0.19,-0.20,10.07
31621889,-0.004531,-0.005033,-0.000013,0.21,-0.23,10.05
31622888,-0.011988,0.003489,-0.001079,0.20,-0.24,10.04
31623899,-0.017314,0.001359,-0.002144,0.21,-0.26,10.04
31624914,-0.014118,-0.012490,-0.002144,0.28,-0.33,10.00
31625921,-0.008792,-0.011425,0.001052,0.29,-0.36,10.01
31626949,-0.002400,0.000293,0.002117,0.26,-0.37,10.03
31627941,-0.000270,0.002424,-0.000013,0.30,-0.42,10.04
31628972,-0.006661,0.000293,-0.002144,0.31,-0.43,10.09
31629968,-0.004531,0.004554,-0.001079,0.32,-0.46,10.10
31630971,0.003991,0.005620,-0.001079,0.31,-0.48,10.12
31631996,0.006122,0.002424,-0.001079,0.22,-0.49,10.19
31632993,0.010383,0.004554,-0.001079,0.13,-0.48,10.14
31634006,0.007187,0.003489,-0.002144,0.11,-0.51,10.08
31635016,-0.001335,-0.001837,-0.004275,0.08,-0.50,10.01
31636020,-0.000270,-0.000772,-0.003209,0.04,-0.50,9.95
31637041,-0.002400,0.001359,-0.004275,0.04,-0.54,9.90
31638043,-0.007727,-0.002903,-0.004275,-0.01,-0.52,9.78
31639072,-0.000270,-0.006098,-0.003209,-0.04,-0.53,9.68
31640070,-0.000270,-0.003968,-0.004275,-0.07,-0.50,9.61
31641074,-0.005596,-0.003968,-0.005340,-0.12,-0.45,9.49
31642092,-0.002400,-0.002903,-0.003209,-0.13,-0.46,9.39
31643088,0.001861,-0.000772,0.001052,-0.14,-0.43,9.47
31644098,0.012514,0.000293,0.004248,-0.16,-0.40,9.49
31645112,0.007187,0.005620,0.003182,-0.21,-0.39,9.42
31646121,0.000795,0.003489,0.001052,-0.28,-0.40,9.45
31647137,0.007187,0.003489,-0.000013,-0.27,-0.36,9.50
31648139,0.018905,0.000293,-0.000013,-0.24,-0.34,9.51
31649164,0.009318,0.004554,0.002117,-0.21,-0.29,9.62
31650156,-0.001335,0.002424,0.004248,-0.22,-0.24,9.68
31651178,-0.003466,-0.000772,0.005313,-0.20,-0.27,9.70
31652185,-0.003466,-0.003968,0.004248,-0.14,-0.31,9.74
31653184,0.005057,-0.008229,0.001052,-0.10,-0.26,9.82
31654194,0.005057,-0.005033,0.001052,-0.08,-0.23,9.88
31655204,0.001861,-0.008229,-0.000013,-0.10,-0.25,9.91
31656214,-0.014118,-0.005033,-0.002144,-0.07,-0.27,9.87
31657242,-0.009857,-0.007164,-0.002144,-0.03,-0.26,9.88
31658234,-0.008792,-0.000772,0.001052,0.00,-0.26,9.91
31659266,-0.002400,-0.000772,-0.000013,0.04,-0.23,9.92
31660261,-0.006661,0.001359,-0.000013,0.03,-0.23,9.98
31661268,-0.002400,0.003489,-0.001079,0.02,-0.22,10.02
31662288,-0.006661,0.004554,-0.001079,0.03,-0.18,10.05
31663288,-0.002400,0.005620,-0.001079,0.07,-0.22,10.04
31664297,-0.006661,0.003489,-0.001079,0.10,-0.21,10.02
31665308,-0.005596,0.004554,-0.001079,0.08,-0.21,9.97
31666317,-0.013053,0.003489,-0.000013,0.10,-0.23,9.97
31667335,-0.013053,0.003489,-0.000013,0.16,-0.22,9.98
31668337,-0.007727,-0.002903,-0.002144,0.18,-0.25,9.96
31669364,0.006122,-0.003968,-0.000013,0.15,-0.28,9.98
31670356,0.010383,-0.001837,0.001052,0.14,-0.28,10.07
31671364,0.005057,0.001359,0.002117,0.22,-0.30,10.03
31672385,0.000795,0.007750,-0.000013,0.23,-0.30,10.00
31673384,-0.006661,0.010946,-0.001079,0.20,-0.32,10.02
31674394,-0.003466,0.008816,-0.002144,0.25,-0.34,10.02
31675404,0.001861,0.001359,-0.000013,0.30,-0.38,10.02
31676414,0.000795,-0.002903,-0.000013,0.31,-0.43,10.07
31677431,-0.002400,0.004554,0.002117,0.30,-0.46,10.09
31678434,0.008252,0.013077,0.004248,0.24,-0.52,10.16
31679466,0.016775,0.002424,0.004248,0.17,-0.54,10.18
31680461,0.010383,-0.009294,0.004248,0.12,-0.55,10.14
31681468,-0.003466,-0.014621,0.004248,0.09,-0.51,10.04
31682488,-0.010923,-0.006098,0.002117,0.05,-0.51,9.83
31683488,-0.006661,0.007750,-0.002144,-0.05,-0.51,9.69
31684497,0.000795,0.016273,-0.004275,-0.15,-0.51,9.50
31685508,0.005057,0.017338,-0.001079,-0.19,-0.50,9.34
31686517,0.006122,0.017338,0.001052,-0.25,-0.46,9.20
31687535,0.006122,0.018403,-0.002144,-0.33,-0.46,9.12
31688537,0.008252,0.021599,-0.003209,-0.33,-0.43,9.15
31689564,0.012514,0.027991,-0.002144,-0.36,-0.38,9.22
31690556,0.008252,0.031186,-0.002144,-0.42,-0.29,9.37
31691564,-0.003466,0.021599,-0.004275,-0.37,-0.23,9.57
31692585,-0.006661,0.002424,-0.004275,-0.30,-0.24,9.73
31693584,-0.003466,-0.010360,-0.003209,-0.22,-0.21,9.79
31694594,-0.003466,-0.012490,-0.002144,-0.13,-0.17,9.88
31695604,-0.003466,-0.009294,-0.002144,-0.02,-0.19,9.93
31696614,-0.004531,-0.008229,-0.002144,0.05,-0.14,10.04
31697631,-0.006661,-0.009294,-0.000013,0.07,-0.11,10.12
31698656,-0.000270,-0.009294,0.001052,0.13,-0.12,10.16
31699651,0.006122,-0.009294,0.001052,0.19,-0.15,10.17
31700657,0.009318,-0.009294,0.002117,0.22,-0.15,10.11
31701668,0.005057,-0.008229,0.001052,0.25,-0.17,10.10
31702688,-0.000270,-0.001837,0.001052,0.28,-0.24,10.07
31703688,0.002926,0.008816,0.001052,0.33,-0.31,10.03
31704697,0.011448,0.010946,0.002117,0.33,-0.33,10.05
31705708,0.010383,0.003489,0.003182,0.33,-0.32,10.11
31706717,-0.001335,-0.007164,0.002117,0.34,-0.38,10.13
31707735,-0.016249,-0.011425,-0.000013,0.29,-0.44,10.07
31708754,-0.018380,-0.003968,0.002117,0.25,-0.45,10.08
31709746,-0.005596,0.001359,0.003182,0.17,-0.43,10.17
31710754,0.002926,-0.006098,0.003182,0.13,-0.41,10.15
31711764,-0.004531,-0.011425,0.001052,0.12,-0.42,10.14
31712785,-0.005596,0.000293,-0.000013,0.04,-0.44,10.09
31713784,0.005057,0.010946,-0.000013,0.02,-0.46,9.95
31714794,0.008252,0.002424,-0.000013,-0.02,-0.49,9.83
31715804,0.006122,-0.003968,-0.000013,-0.08,-0.50,9.70
31716814,0.006122,0.003489,0.001052,-0.10,-0.49,9.61
31717831,0.008252,0.001359,-0.000013,-0.14,-0.53,9.48
31718856,0.002926,-0.005033,-0.000013,-0.17,-0.54,9.35
31719851,-0.004531,0.000293,0.001052,-0.16,-0.51,9.32
31720857,-0.004531,0.001359,0.001052,-0.21,-0.46,9.34
31721868,-0.000270,-0.005033,0.003182,-0.21,-0.46,9.36
31722889,-0.003466,-0.003968,0.003182,-0.19,-0.47,9.34
31723888,-0.008792,-0.006098,-0.000013,-0.24,-0.43,9.42
31724899,-0.000270,-0.011425,-0.002144,-0.28,-0.37,9.45
31725913,-0.000270,-0.003968,-0.001079,-0.25,-0.37,9.47
31726921,-0.007727,-0.001837,-0.000013,-0.22,-0.32,9.56
31727945,-0.011988,0.001359,-0.002144,-0.24,-0.29,9.61
31728963,-0.008792,0.005620,-0.003209,-0.24,-0.28,9.68
31729957,0.009318,0.003489,-0.002144,-0.21,-0.25,9.75
31730966,0.015709,0.005620,0.001052,-0.14,-0.24,9.82
31731972,0.018905,0.001359,0.001052,-0.08,-0.25,9.81
31732998,0.003991,0.003489,-0.000013,-0.08,-0.23,9.86
31733998,-0.003466,0.001359,-0.000013,-0.05,-0.25,9.87
31735006,-0.011988,0.002424,-0.000013,-0.02,-0.22,9.92
31736013,-0.011988,0.001359,-0.002144,-0.04,-0.21,9.94
31737023,-0.018380,0.001359,-0.002144,-0.01,-0.24,9.92
31738035,-0.019445,0.001359,0.001052,0.01,-0.23,10.00
31739067,-0.017314,0.003489,0.002117,0.01,-0.23,10.01
31740060,-0.018380,0.008816,-0.000013,0.03,-0.20,9.96
31741069,-0.008792,0.009881,-0.003209,0.03,-0.20,9.98
31742071,-0.000270,0.007750,-0.003209,0.09,-0.21,10.00
31743092,0.000795,0.005620,-0.001079,0.11,-0.20,10.02
31744088,0.003991,0.006685,0.001052,0.10,-0.22,10.06
31745098,0.003991,0.007750,-0.000013,0.14,-0.26,9.99
31746112,0.009318,0.003489,-0.002144,0.19,-0.23,9.96
31747134,0.011448,0.003489,-0.003209,0.18,-0.25,9.96
31748137,0.005057,0.007750,-0.003209,0.19,-0.30,9.99
31749155,0.007187,0.012011,-0.003209,0.17,-0.30,9.99
31750146,-0.000270,0.017338,-0.001079,0.17,-0.29,9.90
31751154,0.000795,0.012011,0.001052,0.17,-0.28,9.90
31752164,-0.010923,0.009881,-0.000013,0.18,-0.29,9.99
31753185,-0.010923,0.005620,-0.001079,0.22,-0.31,10.02
31754184,-0.008792,0.000293,-0.002144,0.27,-0.32,10.05
31755194,-0.001335,-0.006098,0.002117,0.27,-0.35,10.07
31756204,0.000795,-0.010360,0.005313,0.24,-0.39,10.06
31757214,-0.010923,-0.005033,0.005313,0.22,-0.42,10.07
31758231,-0.008792,0.005620,0.002117,0.17,-0.44,10.11
31759256,0.002926,0.004554,0.001052,0.11,-0.45,10.11
31760251,0.002926,-0.000772,0.001052,0.05,-0.49,10.08
31761257,-0.000270,0.004554,0.001052,0.04,-0.51,10.00
31762268,0.007187,0.013077,0.001052,0.00,-0.54,9.86
31763288,0.016775,0.007750,0.003182,-0.04,-0.59,9.68
31764288,0.014644,-0.005033,0.002117,-0.07,-0.60,9.56
31765297,-0.002400,-0.007164,-0.001079,-0.14,-0.60,9.44
31766308,-0.017314,0.004554,-0.001079,-0.22,-0.57,9.31
31767317,-0.019445,0.017338,-0.003209,-0.26,-0.49,9.25
31768335,-0.010923,0.016273,-0.005340,-0.29,-0.45,9.21
31769354,0.002926,0.005620,-0.003209,-0.34,-0.43,9.23
31770346,0.016775,-0.002903,-0.000013,-0.37,-0.34,9.34
31771354,0.025297,-0.008229,0.002117,-0.34,-0.32,9.49
31772364,0.030623,-0.009294,0.004248,-0.32,-0.27,9.63
31773385,0.034884,-0.009294,0.004248,-0.26,-0.22,9.75
31774384,0.026362,-0.005033,0.001052,-0.19,-0.23,9.81
31775394,0.013579,0.000293,-0.001079,-0.13,-0.20,9.85
31776404,0.008252,0.003489,-0.001079,-0.03,-0.14,9.96
31777414,0.011448,0.005620,-0.001079,0.01,-0.11,10.01
31778431,0.014644,0.004554,-0.002144,0.07,-0.10,10.04
31779456,0.012514,0.001359,-0.001079,0.11,-0.08,10.07
31780451,0.005057,-0.005033,-0.001079,0.14,-0.12,10.06
31781457,-0.002400,-0.012490,-0.001079,0.22,-0.14,10.09
31782468,-0.003466,-0.015686,-0.001079,0.29,-0.16,10.02
31783488,-0.004531,-0.011425,-0.003209,0.31,-0.17,10.02
31784488,-0.006661,0.001359,-0.005340,0.29,-0.19,10.09
31785497,0.003991,0.010946,-0.003209,0.31,-0.29,10.06
31786508,0.018905,0.005620,0.001052,0.31,-0.37,10.05
31787517,0.014644,-0.007164,0.002117,0.28,-0.36,10.13
31788535,-0.001335,-0.005033,0.001052,0.29,-0.37,10.13
31789554,0.001861,0.006685,0.001052,0.28,-0.42,10.08
31790546,0.014644,0.004554,0.001052,0.25,-0.44,10.14
31791554,0.009318,-0.006098,0.001052,0.19,-0.43,10.22
31792564,0.000795,-0.005033,0.001052,0.11,-0.41,10.17
31793585,0.001861,-0.000772,-0.000013,0.08,-0.45,10.10
31794584,-0.002400,-0.007164,0.001052,0.08,-0.49,10.00
31795594,-0.006661,-0.009294,0.001052,0.04,-0.51,9.88
31796604,-0.007727,-0.003968,-0.001079,0.03,-0.54,9.82
31797614,-0.009857,-0.008229,-0.001079,-0.02,-0.54,9.76
31798649,-0.004531,-0.003968,0.001052,-0.07,-0.58,9.68
31799641,0.002926,0.005620,-0.000013,-0.12,-0.54,9.59
31800648,0.001861,0.001359,-0.000013,-0.14,-0.52,9.49
31801657,0.010383,0.000293,-0.001079,-0.14,-0.49,9.41
31802668,0.015709,0.001359,0.001052,-0.19,-0.40,9.40
31803688,0.016775,0.001359,0.002117,-0.22,-0.37,9.38
31804688,0.012514,0.000293,0.002117,-0.21,-0.34,9.37
31805697,0.000795,-0.007164,0.001052,-0.20,-0.35,9.39
31806708,-0.005596,-0.006098,-0.001079,-0.24,-0.34,9.42
31807717,-0.011988,-0.007164,-0.004275,-0.24,-0.33,9.46
31808746,-0.008792,-0.011425,-0.004275,-0.22,-0.30,9.55
31809736,-0.011988,-0.010360,-0.003209,-0.25,-0.29,9.56
31810744,-0.003466,-0.009294,-0.003209,-0.26,-0.27,9.60
31811754,-0.000270,-0.010360,-0.003209,-0.23,-0.28,9.69
31812764,0.009318,-0.006098,-0.003209,-0.18,-0.26,9.77
31813785,0.001861,-0.002903,-0.003209,-0.13,-0.29,9.72
31814784,0.007187,-0.001837,-0.003209,-0.11,-0.26,9.78
31815794,0.003991,0.003489,-0.002144,-0.11,-0.24,9.86
31816804,0.008252,0.004554,0.001052,-0.11,-0.29,9.88
31817814,0.006122,0.003489,0.003182,-0.05,-0.27,9.87
31818849,0.010383,0.006685,0.003182,0.01,-0.30,9.89
31819841,0.007187,0.005620,0.002117,-0.03,-0.27,9.94
31820848,0.005057,-0.002903,0.002117,-0.04,-0.27,9.90
31821857,0.003991,-0.007164,0.001052,-0.04,-0.28,10.00
31822868,0.000795,-0.000772,0.002117,-0.03,-0.27,10.05
31823889,0.008252,0.003489,0.002117,-0.05,-0.33,10.08
31824888,0.003991,0.009881,0.003182,-0.04,-0.34,10.07
31825899,0.009318,0.010946,0.001052,-0.01,-0.30,10.00
31826913,0.002926,0.014142,-0.001079,0.01,-0.28,9.94
31827920,-0.000270,0.007750,-0.001079,0.07,-0.30,9.89
31828953,-0.006661,0.004554,0.002117,0.07,-0.33,9.91
31829940,-0.007727,-0.005033,0.004248,0.11,-0.26,9.90
31830953,-0.010923,-0.008229,0.006378,0.17,-0.26,9.92
31831965,-0.013053,-0.009294,0.008509,0.20,-0.25,10.05
31832972,-0.007727,-0.010360,0.008509,0.22,-0.22,10.16
31833997,0.000795,-0.006098,0.010639,0.24,-0.25,10.17
31834992,0.003991,-0.003968,0.010639,0.28,-0.24,10.13
31836005,-0.002400,0.000293,0.010639,0.30,-0.26,10.03
31837013,-0.004531,0.013077,0.008509,0.35,-0.27,9.99
31838019,0.008252,0.015207,0.009574,0.38,-0.34,10.02
31839060,0.011448,0.004554,0.010639,0.37,-0.39,10.05
31840050,0.000795,-0.001837,0.009574,0.35,-0.42,10.11
31841058,-0.009857,0.007750,0.007444,0.28,-0.44,10.17
31842066,-0.006661,0.013077,0.007444,0.23,-0.45,10.17
31843071,0.012514,0.006685,0.010639,0.16,-0.47,10.09
31844092,0.017840,-0.009294,0.011705,0.10,-0.47,9.98
31845088,0.002926,-0.022078,0.010639,0.06,-0.49,9.81
31846098,-0.010923,-0.024208,0.009574,-0.02,-0.52,9.63
31847112,-0.011988,0.003489,0.005313,-0.24,-0.54,9.22
31848121,-0.007727,0.019468,0.004248,-0.27,-0.54,9.05
31849149,-0.005596,0.025860,0.004248,-0.32,-0.48,9.01
31850138,-0.007727,0.025860,0.002117,-0.38,-0.43,9.12
31851144,-0.015184,0.024795,-0.000013,-0.42,-0.35,9.24
31852154,-0.026902,0.021599,-0.003209,-0.42,-0.29,9.38
31853164,-0.038620,0.013077,-0.002144,-0.37,-0.26,9.59
31854185,-0.036489,0.001359,0.001052,-0.26,-0.21,9.75
31855184,-0.014118,-0.009294,0.002117,-0.17,-0.15,9.86
31856194,0.003991,-0.011425,-0.000013,-0.12,-0.13,9.89
31857220,0.012514,-0.011425,-0.002144,0.00,-0.14,9.93
31858214,0.013579,-0.010360,-0.003209,0.06,-0.12,10.02
31859249,0.013579,-0.007164,-0.001079,0.10,-0.11,10.08
31860241,0.015709,-0.002903,-0.000013,0.19,-0.11,10.17
31861248,0.014644,-0.001837,-0.001079,0.21,-0.11,10.20
31862257,0.009318,-0.003968,-0.000013,0.25,-0.18,10.12
31863268,0.001861,-0.006098,-0.000013,0.31,-0.24,10.11
31864288,-0.007727,-0.001837,0.001052,0.33,-0.29,10.10
31865288,-0.008792,0.003489,-0.001079,0.35,-0.32,10.09
31866297,0.000795,0.005620,-0.001079,0.35,-0.30,10.14
31867308,0.007187,0.000293,0.001052,0.35,-0.34,10.12
31868317,0.002926,-0.010360,0.002117,0.34,-0.38,10.04
31869346,-0.009857,-0.007164,-0.000013,0.31,-0.40,10.07
31870336,-0.007727,0.010946,-0.002144,0.26,-0.41,10.17
31871344,0.010383,0.009881,-0.003209,0.21,-0.43,10.17
31872354,0.015709,-0.008229,-0.001079,0.14,-0.45,10.17
31873364,0.012514,-0.006098,0.001052,0.08,-0.41,10.12
31874385,0.014644,0.006685,0.003182,0.04,-0.42,10.05
31875384,0.010383,0.001359,0.002117,-0.04,-0.49,10.01
31876394,-0.002400,0.001359,-0.000013,-0.06,-0.47,9.85
31877404,-0.004531,0.007750,-0.001079,-0.03,-0.50,9.68
31878414,-0.001335,-0.005033,-0.001079,-0.08,-0.57,9.60
31879449,-0.001335,-0.015686,-0.002144,-0.10,-0.52,9.53
31880441,-0.005596,-0.015686,-0.003209,-0.13,-0.50,9.47
31881448,-0.018380,-0.014621,-0.004275,-0.16,-0.52,9.42
31882457,-0.017314,-0.005033,-0.002144,-0.18,-0.49,9.36
31883468,-0.007727,0.007750,0.002117,-0.21,-0.44,9.37
31884488,0.007187,0.008816,0.003182,-0.22,-0.41,9.40
31885488,0.016775,0.008816,0.004248,-0.21,-0.38,9.38
31886497,0.013579,0.008816,0.004248,-0.19,-0.36,9.38
31887508,0.006122,0.010946,0.003182,-0.21,-0.36,9.39
31888517,-0.006661,0.013077,-0.000013,-0.23,-0.32,9.49
31889546,-0.004531,0.012011,-0.000013,-0.21,-0.30,9.54
31890536,-0.004531,0.013077,0.001052,-0.18,-0.28,9.64
31891544,0.002926,0.009881,-0.000013,-0.17,-0.27,9.69
31892554,-0.000270,0.007750,-0.001079,-0.16,-0.23,9.72
31893564,0.006122,0.004554,0.001052,-0.12,-0.20,9.74
31894585,0.003991,0.005620,0.003182,-0.10,-0.26,9.84
31895584,0.011448,0.002424,0.003182,-0.08,-0.27,9.90
31896594,0.011448,-0.008229,0.002117,-0.08,-0.23,9.93
31897604,0.007187,-0.013555,-0.000013,-0.05,-0.22,9.94
31898636,-0.009857,-0.007164,-0.001079,-0.03,-0.26,9.88
31899642,-0.020510,-0.000772,-0.000013,-0.04,-0.23,9.94
31900637,-0.019445,-0.001837,-0.001079,0.00,-0.22,9.96
31901648,-0.019445,-0.009294,-0.000013,0.00,-0.25,9.95
31902657,-0.014118,-0.017816,0.001052,0.00,-0.22,9.95
31903668,-0.009857,-0.015686,0.002117,0.01,-0.21,10.04
31904684,-0.005596,-0.011425,0.001052,0.06,-0.16,10.04
31905688,-0.005596,-0.005033,-0.000013,0.10,-0.17,10.05
31906697,-0.001335,-0.002903,0.002117,0.10,-0.21,10.06
31907708,0.008252,-0.003968,0.002117,0.16,-0.22,10.02
31908734,0.014644,0.000293,0.003182,0.22,-0.25,10.01
31909737,0.009318,0.001359,0.003182,0.23,-0.27,10.00
31910734,-0.000270,0.000293,0.002117,0.26,-0.30,10.00
31911744,-0.001335,0.007750,-0.000013,0.30,-0.31,10.03
31912754,0.005057,0.006685,-0.000013,0.30,-0.32,10.07
31913764,0.002926,-0.009294,0.001052,0.32,-0.35,10.09
31914781,-0.014118,-0.014621,0.002117,0.31,-0.40,10.13
31915784,-0.016249,-0.005033,0.001052,0.33,-0.46,10.15
31916794,0.003991,0.005620,0.004248,0.34,-0.50,10.14
31917804,0.017840,-0.000772,0.005313,0.29,-0.49,10.17
31918836,0.009318,-0.013555,0.004248,0.24,-0.48,10.22
31919842,-0.001335,-0.014621,0.002117,0.18,-0.48,10.20
31920837,-0.008792,-0.007164,-0.000013,0.12,-0.48,10.15
31921848,-0.017314,0.006685,0.002117,0.03,-0.51,9.99
31922857,-0.020510,0.020534,0.003182,-0.04,-0.52,9.77
31923868,-0.015184,0.022664,-0.000013,-0.13,-0.53,9.57
31924885,-0.005596,0.016273,-0.002144,-0.21,-0.53,9.36
31925888,-0.001335,0.005620,-0.004275,-0.21,-0.54,9.18
31926899,-0.000270,0.000293,-0.005340,-0.27,-0.53,9.08
31927913,0.000795,0.000293,-0.004275,-0.35,-0.49,9.04
31928942,0.001861,0.003489,-0.001079,-0.42,-0.43,9.12
31929947,-0.002400,0.012011,-0.001079,-0.43,-0.33,9.32
31930938,-0.009857,0.019468,-0.004275,-0.39,-0.24,9.49
31931949,-0.011988,0.022664,-0.002144,-0.37,-0.18,9.58
31932966,-0.014118,0.021599,0.002117,-0.29,-0.14,9.72
31933971,-0.019445,0.014142,0.001052,-0.17,-0.11,9.86
31934992,-0.011988,-0.001837,-0.001079,-0.10,-0.08,9.94
31935994,-0.000270,-0.011425,-0.003209,-0.05,-0.04,10.04
31937006,0.003991,-0.013555,-0.003209,0.09,-0.08,10.11
31938013,0.002926,-0.009294,-0.002144,0.16,-0.09,10.15
31939045,0.002926,-0.007164,-0.004275,0.20,-0.07,10.15
31940050,0.005057,-0.012490,-0.005340,0.24,-0.13,10.14
31941047,0.005057,-0.012490,-0.003209,0.25,-0.18,10.14
31942057,0.008252,-0.010360,-0.000013,0.30,-0.23,10.11
31943066,0.006122,-0.005033,-0.000013,0.32,-0.25,10.12
31944071,-0.002400,0.002424,-0.001079,0.33,-0.31,10.11
31945089,-0.002400,0.010946,-0.003209,0.33,-0.35,10.11
31946088,0.011448,0.015207,-0.002144,0.34,-0.35,10.11
31947098,0.021036,0.003489,-0.000013,0.32,-0.36,10.18
31948112,-0.024771,-0.003968,-0.001079,0.19,-0.39,10.20
31949138,-0.019445,0.003489,-0.003209,0.16,-0.38,10.15
31950154,-0.000270,-0.007164,-0.004275,0.10,-0.43,10.09
31951139,-0.001335,-0.023143,-0.002144,0.03,-0.43,10.00
31952156,-0.006661,-0.009294,0.001052,0.02,-0.45,9.85
31953156,-0.001335,0.005620,-0.000013,-0.01,-0.50,9.73
31954166,-0.002400,-0.001837,-0.000013,-0.06,-0.52,9.66
31955183,0.006122,-0.003968,0.001052,-0.11,-0.55,9.58
31956186,0.012514,-0.005033,0.001052,-0.15,-0.55,9.49
31957196,0.001861,-0.009294,-0.001079,-0.14,-0.54,9.43
31958206,-0.000270,-0.005033,-0.000013,-0.15,-0.52,9.36
31959243,0.005057,0.000293,0.002117,-0.19,-0.47,9.32
31960255,0.012514,0.004554,0.004248,-0.20,-0.42,9.31
31961239,0.014644,0.009881,0.005313,-0.18,-0.41,9.37
31962247,0.005057,0.009881,0.002117,-0.24,-0.39,9.39
31963258,-0.002400,0.012011,-0.001079,-0.25,-0.35,9.41
31964267,-0.014118,0.014142,-0.001079,-0.22,-0.35,9.52
31965285,-0.011988,0.014142,-0.000013,-0.23,-0.31,9.56
31966287,-0.010923,0.009881,-0.001079,-0.23,-0.28,9.54
31967298,0.000795,-0.001837,-0.004275,-0.21,-0.25,9.66
31968308,0.000795,-0.010360,-0.004275,-0.19,-0.25,9.72
31969342,0.010383,-0.009294,-0.002144,-0.18,-0.24,9.74
31970352,0.009318,0.000293,-0.001079,-0.12,-0.21,9.78
31971337,0.012514,0.001359,-0.000013,-0.10,-0.20,9.77
31972346,0.015709,0.003489,-0.000013,-0.08,-0.21,9.84
31973356,0.017840,0.003489,-0.001079,-0.06,-0.23,9.90
31974366,0.013579,0.001359,0.002117,-0.04,-0.23,9.96
31975383,0.008252,-0.006098,0.003182,-0.02,-0.22,9.97
31976386,0.002926,-0.014621,0.005313,-0.01,-0.23,9.98
31977396,-0.001335,-0.018882,0.003182,-0.01,-0.23,9.98
31978406,0.006122,-0.011425,0.002117,0.02,-0.23,10.00
31979443,0.011448,0.001359,0.003182,0.09,-0.22,10.07
31980455,0.003991,0.010946,0.004248,0.13,-0.23,10.06
31981439,-0.011988,0.007750,0.003182,0.16,-0.23,10.09
31982447,-0.020510,-0.002903,0.001052,0.18,-0.24,10.10
31983458,-0.006661,-0.009294,0.002117,0.24,-0.29,10.06
31984467,0.003991,-0.005033,0.004248,0.33,-0.34,10.05
31985485,0.002926,-0.000772,0.001052,0.33,-0.38,10.02
31986487,-0.003466,-0.001837,-0.002144,0.32,-0.39,10.06
31987498,0.001861,-0.000772,-0.003209,0.35,-0.40,10.08
31988507,0.016775,-0.000772,-0.000013,0.36,-0.38,10.12
31989542,0.022101,-0.002903,0.002117,0.37,-0.41,10.18
31990552,0.013579,-0.003968,0.001052,0.33,-0.40,10.18
31991537,-0.002400,-0.006098,-0.000013,0.26,-0.42,10.16
31992546,-0.014118,-0.006098,-0.000013,0.20,-0.45,10.15
31993556,-0.017314,0.000293,-0.000013,0.12,-0.45,10.11
31994566,-0.015184,0.008816,-0.002144,0.04,-0.47,10.01
31995583,-0.009857,0.015207,-0.002144,0.00,-0.49,9.81
31996586,-0.003466,0.018403,-0.001079,-0.08,-0.52,9.58
31997596,0.002926,0.019468,-0.004275,-0.18,-0.54,9.40
31998633,0.003991,0.018403,-0.005340,-0.26,-0.50,9.20
31999617,-0.001335,0.019468,-0.005340,-0.35,-0.49,9.07
32000653,-0.007727,0.023729,-0.004275,-0.38,-0.47,9.02
32001639,-0.013053,0.021599,-0.001079,-0.38,-0.39,9.12
32002647,-0.007727,0.009881,0.001052,-0.41,-0.34,9.31
32003658,0.001861,-0.005033,0.003182,-0.37,-0.25,9.45
32004667,0.007187,-0.012490,0.001052,-0.31,-0.17,9.60
32005685,0.006122,-0.013555,-0.001079,-0.25,-0.14,9.74
32006687,0.001861,-0.013555,-0.002144,-0.19,-0.13,9.84
32007698,-0.006661,-0.010360,-0.002144,-0.12,-0.14,9.92
32008733,-0.014118,-0.002903,-0.002144,-0.02,-0.15,10.02
32009715,-0.010923,0.007750,-0.002144,0.04,-0.15,10.05
32010752,0.006122,0.015207,-0.000013,0.06,-0.12,10.07
32011737,0.022101,0.007750,0.001052,0.10,-0.13,10.11
32012746,0.019971,-0.008229,0.001052,0.14,-0.14,10.14
32013756,0.002926,-0.008229,0.001052,0.16,-0.14,10.13
32014766,-0.002400,0.012011,-0.001079,0.22,-0.21,10.01
32015783,0.002926,0.014142,-0.003209,0.24,-0.24,9.97
32016786,0.005057,-0.008229,-0.004275,0.24,-0.25,10.01
32017796,-0.007727,-0.012490,-0.002144,0.28,-0.30,9.98
32018833,-0.011988,-0.000772,-0.002144,0.30,-0.30,10.00
32019817,-0.007727,-0.001837,-0.003209,0.30,-0.33,9.95
32020853,-0.014118,-0.000772,-0.003209,0.28,-0.36,9.95
32021839,-0.009857,0.004554,-0.002144,0.28,-0.38,10.04
32022847,-0.003466,0.002424,-0.001079,0.28,-0.41,10.07
32023858,-0.003466,-0.005033,-0.001079,0.26,-0.40,10.13
32024867,-0.005596,-0.010360,-0.003209,0.20,-0.40,10.11
32025885,-0.014118,-0.007164,-0.004275,0.15,-0.38,10.07
32026888,-0.002400,-0.005033,-0.002144,0.13,-0.36,10.10
32027899,0.009318,-0.002903,-0.001079,0.15,-0.37,10.10
32028940,0.019971,0.000293,-0.000013,0.10,-0.39,10.08
32029935,0.018905,0.004554,-0.001079,0.06,-0.39,10.03
32030946,0.008252,0.012011,-0.002144,0.02,-0.39,9.94
32031941,-0.000270,0.014142,-0.002144,-0.01,-0.40,9.89
32032954,-0.005596,0.007750,-0.005340,0.02,-0.41,9.83
32033970,-0.003466,-0.001837,-0.004275,0.02,-0.42,9.72
32034975,0.000795,-0.001837,-0.003209,-0.03,-0.44,9.66
32035998,-0.003466,0.005620,-0.002144,-0.07,-0.42,9.69
32037001,-0.007727,0.005620,-0.002144,-0.09,-0.39,9.62
32038005,-0.019445,0.001359,-0.002144,-0.12,-0.40,9.50
32039042,-0.011988,-0.005033,-0.003209,-0.12,-0.40,9.48
32040041,-0.010923,0.000293,-0.002144,-0.14,-0.39,9.47
32041051,0.003991,0.000293,0.001052,-0.16,-0.40,9.44
32042046,0.012514,0.003489,0.002117,-0.18,-0.37,9.36
32043056,0.012514,0.003489,0.003182,-0.21,-0.37,9.34
32044066,0.006122,0.007750,0.003182,-0.26,-0.38,9.38
32045071,0.006122,0.008816,0.002117,-0.27,-0.37,9.43
32046089,0.009318,0.007750,0.002117,-0.26,-0.35,9.50
32047088,0.010383,-0.001837,0.003182,-0.25,-0.32,9.53
32048098,-0.005596,-0.015686,0.002117,-0.24,-0.32,9.66
32049138,-0.001335,-0.016751,0.002117,-0.24,-0.29,9.69
32050135,0.010383,-0.007164,0.004248,-0.19,-0.28,9.72
32051140,0.006122,0.008816,0.003182,-0.16,-0.28,9.81
32052138,-0.008792,0.014142,-0.000013,-0.13,-0.29,9.88
32053146,-0.007727,0.003489,0.001052,-0.11,-0.30,9.94
32054156,-0.000270,-0.007164,0.003182,-0.06,-0.28,9.96
32055166,0.002926,-0.007164,0.003182,-0.04,-0.26,10.00
32056183,-0.007727,0.006685,0.002117,0.00,-0.29,10.08
32057186,-0.008792,0.012011,0.001052,0.06,-0.25,10.14
32058196,0.005057,0.005620,0.003182,0.12,-0.24,10.19
32059232,0.011448,-0.001837,0.004248,0.20,-0.25,10.18
32060234,0.005057,-0.009294,0.004248,0.24,-0.20,10.13
32061260,-0.003466,-0.008229,0.003182,0.32,-0.20,10.13
32062237,-0.005596,0.001359,-0.001079,0.35,-0.18,10.11
32063248,-0.006661,0.005620,-0.003209,0.39,-0.21,10.07
32064257,-0.002400,-0.000772,-0.002144,0.41,-0.29,10.05
32065268,0.008252,-0.008229,0.002117,0.38,-0.32,10.13
32066284,0.017840,-0.011425,0.005313,0.36,-0.35,10.15
32067288,0.019971,-0.013555,0.005313,0.35,-0.41,10.14
32068297,0.025297,-0.017816,0.004248,0.30,-0.41,10.19
32069333,0.032754,-0.023143,0.003182,0.19,-0.43,10.20
32070332,0.033819,-0.021012,0.002117,0.09,-0.46,10.14
