time_us,gyro_x_rad_s,gyro_y_rad_s,gyro_z_rad_s,acc_x_m_s2,acc_y_m_s2,acc_z_m_s2
2407129642,-0.001249,-0.002097,0.003679,0.04,-0.30,9.76
2407130656,-0.001998,-0.002730,0.002256,0.06,-0.30,9.78
2407131379,-0.000932,-0.001663,0.002254,0.05,-0.29,9.86
2407132389,-0.000931,-0.001662,0.002252,0.05,-0.30,9.86
2407133399,-0.001994,-0.001660,0.001186,0.03,-0.34,9.83
2407134409,-0.000928,-0.000594,0.000120,0.01,-0.36,9.88
2407135419,-0.000927,0.000471,0.001184,0.02,-0.35,9.90
2407136429,-0.000926,0.000470,0.002247,0.04,-0.32,9.82
2407137439,0.000139,0.001534,0.002245,0.04,-0.33,9.80
2407138454,0.000139,0.000468,0.001178,0.02,-0.35,9.79
2407139461,0.000139,-0.001661,0.001177,0.02,-0.31,9.79
2407140469,-0.000926,-0.003787,0.003305,0.05,-0.29,9.82
2407141479,-0.001989,-0.002719,0.002237,0.05,-0.33,9.79
2407142489,-0.001987,-0.001652,-0.000958,0.02,-0.33,9.79
2407143533,0.000144,-0.000586,-0.002021,0.01,-0.28,9.82
2407144509,0.001208,-0.000586,-0.000955,0.04,-0.29,9.82
2407145519,0.002271,0.000479,0.001175,0.04,-0.32,9.80
2407146529,0.002268,0.000479,0.002238,0.04,-0.31,9.79
2407147539,0.002266,-0.001650,0.002235,0.03,-0.31,9.79
2407148554,-0.000929,-0.002713,0.000105,0.02,-0.32,9.82
2407149561,-0.003056,-0.001646,0.000105,0.02,-0.34,9.80
2407150569,-0.001989,-0.000580,0.001169,0.06,-0.34,9.78
2407151579,0.000141,-0.003772,0.002232,0.06,-0.33,9.84
2407152589,0.000141,-0.002704,0.002229,0.05,-0.33,9.87
2407153603,0.001205,-0.001637,0.001163,0.08,-0.31,9.84
2407154610,0.002268,-0.001636,0.000098,0.04,-0.32,9.82
2407155637,0.002266,-0.001634,-0.000967,0.02,-0.34,9.81
2407156634,0.000135,-0.001632,-0.004158,0.04,-0.33,9.82
2407157647,0.000135,-0.001631,-0.003090,0.04,-0.33,9.80
2407158659,-0.000929,-0.000565,-0.000958,0.02,-0.32,9.78
2407159666,0.000136,-0.000564,0.001171,0.05,-0.32,9.85
2407160678,0.001200,-0.000564,0.001170,0.05,-0.33,9.86
2407161687,0.002263,0.001565,0.001169,0.02,-0.31,9.82
2407162698,0.002261,0.002628,0.001167,0.02,-0.31,9.81
2407163713,0.001194,0.002625,0.001166,0.03,-0.31,9.83
2407164719,0.000129,0.001559,-0.000963,0.01,-0.32,9.82
2407165734,-0.000935,0.000493,-0.000962,0.05,-0.32,9.81
2407166735,-0.000935,0.001556,0.000103,0.04,-0.29,9.82
2407167750,-0.000934,0.002619,0.001167,0.03,-0.30,9.81
2407168766,0.000132,0.001552,0.001166,0.04,-0.34,9.83
2407169771,0.000131,0.000486,0.001165,0.04,-0.33,9.87
2407170779,-0.000933,-0.000578,0.001163,0.05,-0.33,9.86
2407171786,-0.000932,-0.000578,0.000098,0.06,-0.35,9.78
2407172795,-0.000931,0.000487,-0.000966,0.05,-0.34,9.75
2407173803,0.001198,0.000487,0.000099,0.04,-0.33,9.78
2407174810,0.002261,-0.000578,0.000099,0.04,-0.34,9.81
2407175824,0.002259,0.002615,0.001163,0.02,-0.35,9.77
2407176834,0.001193,0.004741,0.000098,0.02,-0.34,9.75
2407177848,-0.000937,0.004736,-0.002031,0.04,-0.32,9.81
2407178854,-0.000936,0.002603,-0.002029,0.06,-0.32,9.86
2407179862,-0.000935,-0.000592,-0.002027,0.06,-0.33,9.81
2407180869,0.000130,-0.001656,-0.002025,0.04,-0.34,9.81
2407181879,0.001194,-0.002718,-0.000959,0.05,-0.33,9.85
2407182889,0.001193,0.000477,-0.002022,0.05,-0.32,9.83
2407183899,0.001192,0.001541,-0.003084,0.03,-0.33,9.78
2407184909,-0.002002,0.001539,-0.002017,0.03,-0.36,9.76
2407185919,-0.002000,0.002602,0.000114,0.05,-0.37,9.74
2407186929,0.001194,0.002599,0.002242,0.07,-0.33,9.76
2407187944,0.003322,0.001532,0.002240,0.05,-0.32,9.81
2407188951,0.002254,0.000466,0.002238,0.04,-0.34,9.81
2407189959,0.000123,0.002594,0.003299,0.05,-0.32,9.81
2407190969,0.000123,0.003656,0.004360,0.04,-0.31,9.82
2407191979,0.001187,0.004717,0.002228,0.04,-0.35,9.83
2407192989,0.001186,0.003648,-0.000967,0.08,-0.33,9.85
2407193999,0.001185,0.001515,-0.002031,0.06,-0.31,9.86
2407195009,0.000120,0.000450,-0.002028,0.02,-0.33,9.82
2407196019,-0.000945,0.000449,-0.000962,0.03,-0.35,9.82
2407197029,-0.002008,0.000449,-0.000961,0.04,-0.34,9.80
2407198044,-0.002006,0.003641,-0.000960,0.02,-0.33,9.76
2407199051,-0.000940,0.005766,-0.000959,0.04,-0.34,9.80
2407200059,-0.000939,0.004696,-0.000958,0.06,-0.31,9.90
2407201069,-0.000938,0.001498,-0.000957,0.03,-0.29,9.90
2407202079,0.000127,-0.000632,0.001172,0.04,-0.34,9.84
2407203089,-0.000937,0.000433,0.001171,0.06,-0.34,9.82
2407204099,-0.000936,0.001497,0.002234,0.04,-0.34,9.80
2407205109,0.000129,0.001496,0.000103,0.06,-0.35,9.83
2407206119,0.002257,-0.001699,-0.000961,0.08,-0.32,9.85
2407207129,0.002255,-0.005954,-0.000960,0.07,-0.29,9.83
2407208144,0.000124,-0.004884,0.000105,0.01,-0.29,9.82
2407209151,-0.002004,-0.000622,-0.000959,0.00,-0.31,9.83
2407210159,0.000126,0.002572,-0.002023,0.01,-0.32,9.85
2407211169,0.001190,0.003633,-0.000956,0.00,-0.30,9.85
2407212179,0.001189,0.002565,0.001173,0.01,-0.33,9.86
2407213189,0.000124,0.002563,0.000108,0.01,-0.35,9.82
2407214199,-0.000941,0.001496,-0.002021,0.05,-0.35,9.80
2407215209,-0.002004,0.001494,-0.002019,0.07,-0.35,9.80
2407216219,-0.002002,0.002557,-0.000953,0.06,-0.34,9.79
2407217229,-0.002000,0.002554,-0.002016,0.05,-0.33,9.78
2407218244,-0.001998,0.001488,-0.002014,0.04,-0.34,9.78
2407219251,0.004389,0.000422,-0.003076,0.06,-0.35,9.84
2407220259,0.003321,0.000422,-0.002009,0.09,-0.32,9.84
2407221269,0.000125,0.000421,-0.002007,0.09,-0.32,9.81
2407222279,-0.000939,0.001485,-0.002005,0.05,-0.31,9.78
2407223289,-0.000939,0.002548,-0.000938,0.05,-0.28,9.82
2407224299,0.000127,0.000417,0.000127,0.05,-0.31,9.83
2407225309,0.000127,-0.000648,-0.000937,0.06,-0.36,9.79
2407226319,0.000126,-0.002776,-0.002001,0.09,-0.34,9.79
2407227329,-0.000938,-0.000645,-0.001999,0.09,-0.27,9.82
2407228344,0.001191,0.002549,-0.000933,0.05,-0.31,9.83
2407229351,0.003319,0.002546,0.001197,0.03,-0.37,9.81
2407230359,0.004379,0.001479,0.001196,0.02,-0.35,9.77
2407231369,0.004375,0.000414,0.000130,0.02,-0.33,9.78
2407232379,0.002242,0.000413,-0.001998,0.03,-0.34,9.82
2407233389,-0.000953,0.001477,-0.001996,0.04,-0.31,9.83
2407234399,-0.003080,0.002540,0.000134,0.06,-0.30,9.87
2407235409,0.000116,0.001473,-0.000930,0.06,-0.32,9.87
2407236419,0.002244,-0.000657,-0.000929,0.06,-0.35,9.81
2407237429,0.001177,-0.000656,0.000136,0.04,-0.35,9.78
2407238454,-0.000952,-0.001720,0.000136,0.03,-0.33,9.81
2407239451,-0.000951,-0.002782,0.000136,0.06,-0.33,9.83
2407240459,0.001178,-0.002779,-0.000929,0.03,-0.34,9.81
2407241469,0.000113,0.000416,-0.001992,0.05,-0.34,9.78
2407242479,-0.000951,0.001480,-0.000926,0.06,-0.31,9.78
2407243489,-0.000951,0.001478,0.001204,0.01,-0.34,9.84
2407244499,0.001179,0.000413,0.001202,0.01,-0.36,9.82
2407245509,0.003306,0.002541,0.001201,0.03,-0.32,9.79
2407246519,0.002239,0.003602,0.002264,0.03,-0.34,9.79
2407247529,0.002236,0.002534,0.001198,0.02,-0.37,9.79
2407248544,0.003298,0.001468,0.001196,0.03,-0.35,9.78
2407249551,0.002231,0.000402,0.002259,0.07,-0.33,9.77
2407250559,-0.000964,0.000401,0.002257,0.06,-0.34,9.79
2407251569,-0.002027,-0.001727,0.002255,0.02,-0.33,9.81
2407252579,-0.002025,-0.003854,0.000124,0.04,-0.32,9.80
2407253589,-0.002023,-0.005979,-0.000940,0.04,-0.34,9.79
2407254603,-0.000957,-0.002780,-0.002003,0.04,-0.34,9.82
2407255614,-0.002020,-0.000649,-0.004130,0.05,-0.33,9.83
2407256629,-0.000954,0.000416,-0.003061,0.07,-0.34,9.81
2407257634,-0.000953,0.001480,-0.000930,0.04,-0.34,9.81
2407258650,0.000112,0.001479,-0.000929,0.00,-0.32,9.83
2407259659,0.001176,0.001477,-0.000928,0.04,-0.32,9.78
2407260665,0.001175,0.000411,-0.000927,0.07,-0.32,9.78
2407261677,0.001174,-0.001718,0.000138,0.05,-0.34,9.82
2407262687,0.000108,-0.002780,-0.000926,0.04,-0.36,9.84
2407263700,-0.000956,-0.001713,-0.001990,0.03,-0.34,9.84
2407264710,0.000109,0.000417,-0.001988,0.04,-0.34,9.82
2407265717,0.002238,0.002545,-0.000921,0.05,-0.32,9.78
2407266726,0.003299,0.003607,-0.000920,0.06,-0.32,9.82
2407267735,0.001168,0.002539,-0.001984,0.07,-0.34,9.83
2407268759,0.001167,0.002536,-0.001982,0.08,-0.33,9.82
2407269762,0.002230,0.001470,-0.001980,0.04,-0.31,9.82
2407270798,0.003292,0.000404,-0.001978,0.03,-0.29,9.85
2407271802,0.004352,-0.001725,0.000153,0.05,-0.31,9.85
2407272825,0.001155,-0.001723,0.001217,0.08,-0.33,9.86
2407273816,-0.000974,-0.000657,-0.000913,0.08,-0.34,9.82
2407274806,0.000091,0.000408,-0.001976,0.07,-0.35,9.77
2407275817,0.001155,0.001472,-0.000910,0.05,-0.34,9.81
2407276824,0.000090,0.000406,0.000155,0.05,-0.31,9.84
2407277839,-0.002039,-0.001723,-0.000909,0.07,-0.30,9.85
2407278844,-0.003101,-0.001721,-0.000908,0.04,-0.31,9.84
2407279853,-0.000969,0.001473,0.000157,0.04,-0.31,9.80
2407280862,0.001160,0.003600,0.000157,0.02,-0.34,9.78
2407281869,0.001159,0.004661,-0.000908,0.04,-0.33,9.81
2407282879,0.001158,0.002528,-0.001971,0.06,-0.28,9.83
2407283889,0.001156,0.001461,-0.001969,0.06,-0.32,9.79
2407284914,-0.000973,0.001459,0.000161,0.06,-0.35,9.78
2407285924,0.000092,0.002522,0.002290,0.08,-0.34,9.78
2407286955,0.002220,0.005712,0.002287,0.07,-0.32,9.82
2407287968,0.001154,0.004642,0.001221,0.02,-0.31,9.85
2407288958,0.000089,0.000380,-0.001973,0.01,-0.31,9.82
2407289956,-0.002040,0.000380,-0.004100,0.03,-0.33,9.83
2407290963,-0.003102,0.003572,-0.003031,0.06,-0.34,9.81
2407291973,0.000094,0.003569,-0.000900,0.08,-0.33,9.80
2407292983,0.001158,0.000373,-0.000899,0.07,-0.33,9.84
2407294002,0.002221,-0.001756,0.000166,0.07,-0.33,9.80
2407295007,0.001154,-0.002819,-0.000898,0.06,-0.34,9.82
2407296049,0.001153,0.000377,0.000167,0.04,-0.33,9.82
2407297062,0.000088,0.002505,0.000167,0.05,-0.34,9.81
2407298043,-0.000977,0.001438,-0.000898,0.07,-0.34,9.82
2407299084,-0.000976,0.001437,0.000167,0.09,-0.32,9.82
2407300080,-0.000975,0.003563,0.003360,0.06,-0.34,9.82
2407301097,0.000091,0.002496,0.002292,0.04,-0.33,9.78
2407302086,0.002219,0.000365,0.000162,0.04,-0.29,9.76
2407303079,0.001152,0.000364,0.002290,0.05,-0.29,9.79
2407304089,0.000087,-0.000700,0.004416,0.03,-0.29,9.82
2407305099,-0.002041,-0.000699,0.003347,0.02,-0.31,9.86
2407306109,-0.002039,0.000365,0.000151,0.05,-0.33,9.88
2407307119,0.002220,0.000365,-0.000913,0.05,-0.32,9.87
2407308182,0.004346,0.000365,-0.000912,0.04,-0.33,9.85
2407309143,0.004341,-0.000700,-0.000911,0.04,-0.34,9.83
2407310149,0.001144,-0.003892,-0.000910,0.05,-0.33,9.82
2407311159,0.000079,-0.004952,-0.000909,0.07,-0.29,9.81
2407312169,0.000079,-0.003883,0.001220,0.04,-0.32,9.85
2407313179,0.000079,0.000378,0.002283,0.05,-0.34,9.84
2407314189,-0.002050,0.001442,0.001216,0.05,-0.33,9.81
2407315199,-0.004176,0.002504,0.000151,0.05,-0.31,9.80
2407316209,-0.002044,0.002502,0.001215,0.06,-0.31,9.77
2407317219,0.000087,0.001435,0.001214,0.04,-0.30,9.74
2407318234,0.001151,0.001434,-0.000916,0.03,-0.27,9.74
2407319241,0.000086,0.001432,-0.000915,0.06,-0.32,9.84
2407320267,-0.000979,-0.000698,0.000150,0.06,-0.35,9.83
2407321304,0.000087,-0.000697,0.001214,0.08,-0.38,9.82
2407322311,0.003279,-0.000696,0.001213,0.08,-0.36,9.78
2407323313,0.005404,-0.000696,0.001212,0.04,-0.32,9.75
2407324311,0.002206,-0.000695,0.001211,0.05,-0.33,9.77
2407325318,0.001140,-0.000694,0.000145,0.05,-0.31,9.81
2407326309,0.001138,0.000371,0.000145,0.04,-0.31,9.80
2407327319,-0.000991,0.001435,-0.000919,0.03,-0.31,9.77
2407328334,-0.002054,0.002497,-0.001983,0.05,-0.29,9.82
2407329341,0.000076,0.000366,-0.001981,0.08,-0.32,9.86
2407330349,0.001140,-0.001762,0.000150,0.08,-0.31,9.82
2407331359,0.002203,-0.000696,0.002278,0.05,-0.28,9.84
2407332388,0.002201,0.000368,0.002276,0.07,-0.31,9.83
2407333379,0.002199,0.000368,0.000145,0.06,-0.31,9.83
2407334389,0.001132,0.001432,-0.001984,0.05,-0.29,9.88
2407335399,0.002196,0.002495,-0.000917,0.04,-0.31,9.84
2407336409,0.000065,0.002492,-0.000916,0.04,-0.31,9.82
2407337419,0.001129,0.002490,0.000149,0.06,-0.33,9.83
2407338489,0.003256,0.000359,0.000149,0.07,-0.33,9.86
2407339444,0.002189,0.000358,0.000148,0.07,-0.33,9.81
2407340471,0.001122,0.001422,0.000148,0.08,-0.33,9.78
2407341459,0.001121,0.001421,0.001212,0.09,-0.33,9.82
2407342469,0.000056,-0.001773,0.002275,0.09,-0.34,9.81
2407343479,0.000056,-0.001771,0.003337,0.08,-0.32,9.81
2407344489,0.001120,0.000359,0.004398,0.06,-0.33,9.84
2407345499,0.000055,0.000358,0.003329,0.04,-0.35,9.80
2407346509,-0.002074,-0.001770,-0.000931,0.02,-0.34,9.80
2407347563,-0.003136,-0.001769,-0.001994,0.03,-0.34,9.82
2407348533,-0.002068,0.000362,0.000136,0.02,-0.32,9.81
2407349541,-0.002067,0.001425,0.000136,0.02,-0.32,9.78
2407350549,-0.001000,-0.000704,-0.001992,0.02,-0.33,9.84
2407351559,0.001129,-0.001768,-0.000926,0.00,-0.31,9.89
2407352569,0.003256,-0.000702,0.001203,0.02,-0.32,9.82
2407353579,0.003253,0.001427,0.001202,0.04,-0.34,9.80
2407354589,0.000057,0.001426,0.000137,0.03,-0.34,9.81
2407355603,-0.001007,0.001424,-0.000928,0.04,-0.34,9.79
2407356610,0.000058,0.000359,-0.000927,0.03,-0.32,9.80
2407357629,0.001122,-0.001770,0.000138,0.03,-0.34,9.79
2407358638,0.001121,-0.001768,0.001202,0.03,-0.35,9.78
2407359650,0.002184,-0.001766,0.000137,0.01,-0.33,9.79
2407360659,0.003246,0.000364,0.000137,0.01,-0.33,9.82
2407361665,0.004307,0.001428,0.000137,0.05,-0.31,9.82
2407362678,0.004303,0.000362,0.000137,0.04,-0.28,9.80
2407363687,0.002170,-0.001767,0.001201,0.01,-0.29,9.77
2407364698,0.000040,-0.001765,0.001199,0.05,-0.32,9.76
2407365716,0.000040,-0.000699,0.001198,0.07,-0.33,9.75
2407366719,-0.002089,0.000366,0.000133,0.05,-0.32,9.74
2407367725,-0.001023,-0.000699,0.000133,0.05,-0.31,9.78
2407368745,0.000043,-0.002826,0.000133,0.04,-0.30,9.78
2407369754,0.000043,-0.001759,0.001197,0.02,-0.33,9.78
2407370770,0.001107,0.001435,0.001195,0.03,-0.35,9.81
2407371771,0.003234,0.001434,-0.001998,0.08,-0.34,9.81
2407372782,0.001102,-0.001761,-0.004125,0.08,-0.35,9.83
2407373787,-0.001027,-0.000695,-0.003056,0.03,-0.35,9.84
2407374796,-0.001026,0.000370,-0.001989,0.04,-0.33,9.79
2407375804,0.000039,-0.000694,-0.003051,0.06,-0.32,9.78
2407376811,0.002167,-0.002822,-0.004112,0.03,-0.34,9.84
2407377829,0.004294,-0.002819,-0.001980,0.03,-0.33,9.84
2407378836,0.003225,0.001441,-0.000914,0.05,-0.30,9.79
2407379844,0.002158,0.005696,-0.000913,0.04,-0.34,9.79
2407380861,0.000027,0.005690,-0.001976,0.02,-0.33,9.84
2407381863,0.000027,0.003556,-0.000910,0.05,-0.33,9.80
2407382871,0.000027,0.000360,-0.000909,0.04,-0.35,9.79
2407383881,0.000027,-0.001769,-0.003036,0.02,-0.34,9.86
2407384891,0.000027,-0.000703,-0.004098,0.03,-0.33,9.87
2407385901,0.001091,-0.000702,-0.001965,0.04,-0.34,9.83
2407386911,0.001090,-0.001766,-0.000899,0.02,-0.34,9.78
2407387925,0.001089,-0.003892,-0.001962,0.02,-0.34,9.80
2407388932,0.001088,-0.002824,-0.000896,0.03,-0.34,9.86
2407389948,0.000023,0.000371,0.000169,0.06,-0.34,9.85
2407390951,-0.001042,0.000371,-0.000895,0.05,-0.32,9.85
2407391961,-0.001041,0.000370,-0.001959,0.03,-0.32,9.84
2407392971,-0.001040,0.001434,-0.000892,0.05,-0.32,9.81
2407393981,-0.002103,-0.000696,-0.000891,0.05,-0.33,9.75
2407394991,-0.003165,-0.001759,-0.001955,0.04,-0.35,9.84
2407396001,-0.003162,0.001435,-0.000889,0.04,-0.33,9.92
2407397011,-0.003158,0.004627,-0.000888,0.02,-0.32,9.87
2407398025,-0.002091,0.003558,-0.001951,0.02,-0.34,9.84
2407399032,-0.001025,0.001426,-0.001949,0.03,-0.32,9.82
2407400048,-0.001024,-0.000704,-0.003011,0.06,-0.30,9.82
2407401051,-0.002087,-0.000704,-0.001944,0.05,-0.30,9.79
2407402061,-0.002085,0.000361,-0.001942,0.04,-0.31,9.79
2407403071,-0.001018,0.000361,-0.000876,0.07,-0.33,9.79
2407404081,0.000047,-0.000704,0.000189,0.09,-0.37,9.77
2407405091,0.001111,-0.000703,0.001253,0.07,-0.36,9.76
2407406101,0.001110,0.002491,0.003380,0.04,-0.31,9.77
2407407111,0.001109,0.001424,0.003377,0.01,-0.34,9.80
2407408125,0.002172,-0.001770,0.002309,0.02,-0.36,9.83
2407409132,0.001105,-0.000704,0.001243,0.02,-0.34,9.81
2407410148,0.001104,0.000361,0.000177,0.04,-0.34,9.81
2407411151,0.001103,-0.000704,0.001241,0.07,-0.34,9.81
2407412161,0.000038,-0.000703,0.002304,0.04,-0.35,9.81
2407413171,0.000038,-0.000703,0.004430,0.04,-0.35,9.84
2407414181,0.001102,-0.000702,0.003362,0.05,-0.35,9.84
2407415191,0.001101,0.000363,0.001230,0.03,-0.31,9.81
2407416201,-0.002093,0.000363,-0.000900,0.04,-0.30,9.82
2407417211,-0.003155,-0.001766,-0.000899,0.04,-0.32,9.84
2407418225,-0.003152,-0.003893,0.000166,0.01,-0.32,9.82
2407419232,0.000044,-0.003889,-0.001962,0.05,-0.32,9.78
2407420248,0.001108,-0.002821,-0.001960,0.04,-0.30,9.76
2407421251,0.001107,-0.000689,-0.000894,0.04,-0.30,9.76
2407422261,0.000042,-0.000689,0.000171,0.05,-0.34,9.80
2407423271,-0.001023,-0.001752,0.001235,0.03,-0.37,9.81
2407424281,-0.002086,-0.002815,0.000170,0.01,-0.38,9.78
2407425291,-0.001019,-0.000683,0.001234,-0.01,-0.38,9.82
2407426301,0.002174,-0.000683,0.000168,0.02,-0.35,9.81
2407427311,0.004300,-0.001746,-0.001960,0.02,-0.32,9.79
2407428325,0.004296,0.000384,-0.000894,0.02,-0.31,9.80
2407429332,0.003228,0.002512,0.000171,0.05,-0.32,9.78
2407430348,0.003224,0.000381,0.000171,0.08,-0.35,9.75
2407431351,0.002157,-0.002812,0.000171,0.08,-0.36,9.76
2407432361,0.002155,-0.001745,-0.001958,0.05,-0.35,9.78
2407433371,0.002153,0.000385,-0.004085,0.03,-0.33,9.85
2407434381,0.002150,0.000385,-0.003016,0.05,-0.34,9.86
2407435391,0.001084,-0.000680,-0.000885,0.04,-0.34,9.86
2407436401,0.001083,-0.001743,-0.000884,0.03,-0.31,9.82
2407437411,0.000018,-0.001741,0.000181,0.04,-0.29,9.83
2407438425,0.000018,0.000389,0.001245,0.03,-0.32,9.83
2407439432,-0.002111,0.001453,0.001244,0.04,-0.34,9.80
2407440448,-0.002109,0.000387,0.000179,0.05,-0.34,9.81
2407441451,0.000022,-0.000678,0.000178,0.04,-0.36,9.78
2407442461,-0.001042,-0.000677,0.000178,0.04,-0.36,9.80
2407443478,-0.003170,0.000388,0.002306,0.07,-0.32,9.84
2407444481,-0.004231,0.000387,0.003368,0.07,-0.31,9.86
2407445491,-0.001034,0.001451,0.002301,0.07,-0.34,9.86
2407446501,0.001096,0.001450,0.000170,0.08,-0.34,9.85
2407447511,0.002159,0.001448,0.000170,0.07,-0.33,9.85
2407448525,0.000028,0.002511,0.000170,0.07,-0.32,9.80
2407449532,0.001092,0.001444,-0.000895,0.09,-0.33,9.81
2407450548,0.002155,0.000379,-0.001958,0.07,-0.32,9.88
2407451551,0.000025,-0.000686,-0.000892,0.05,-0.31,9.84
2407452561,-0.002104,-0.002814,-0.001955,0.08,-0.29,9.78
2407453571,-0.002102,-0.002811,-0.003017,0.09,-0.30,9.83
2407454581,-0.001035,-0.000680,-0.001950,0.05,-0.36,9.86
2407455591,-0.002098,0.000385,0.000180,0.00,-0.37,9.78
2407456603,-0.003160,0.000385,-0.000884,0.05,-0.34,9.78
2407457612,-0.002093,-0.000680,-0.001947,0.07,-0.33,9.83
2407458629,0.001102,-0.000679,-0.000881,0.05,-0.34,9.84
2407459636,0.003229,0.000386,-0.000880,0.04,-0.30,9.81
2407460658,0.002161,0.000386,-0.000880,0.06,-0.30,9.77
2407461656,0.000031,-0.000679,-0.000879,0.08,-0.32,9.79
2407462667,0.000031,0.000386,-0.000878,0.04,-0.30,9.80
2407463678,0.001095,0.001450,-0.000877,0.04,-0.31,9.77
2407464693,0.000030,0.000384,0.000188,0.07,-0.32,9.79
2407465705,-0.001035,0.000384,0.000188,0.07,-0.34,9.85
2407466714,-0.001033,-0.001745,-0.000876,0.05,-0.35,9.91
2407467718,-0.001032,-0.003872,0.000189,0.05,-0.32,9.91
2407468740,-0.001031,-0.001740,0.000189,0.04,-0.29,9.85
2407469745,-0.001030,0.002519,-0.000876,0.03,-0.32,9.80
2407470761,0.000035,0.004645,-0.001939,0.04,-0.34,9.79
2407471759,0.002163,0.001448,-0.001937,0.03,-0.31,9.79
2407472769,0.001097,-0.000682,0.000193,0.03,-0.32,9.79
2407473782,0.000032,0.001447,-0.000871,0.05,-0.35,9.81
2407474787,-0.001033,0.000381,-0.004063,0.07,-0.31,9.82
2407475797,-0.003160,0.001445,-0.002995,0.04,-0.29,9.82
2407476804,-0.003157,0.001444,-0.000863,0.05,-0.33,9.80
2407477820,-0.002089,-0.000686,0.002330,0.06,-0.34,9.77
2407478826,-0.001023,-0.001750,0.002328,0.06,-0.36,9.82
2407479835,-0.001022,-0.000684,0.001261,0.05,-0.35,9.86
2407480851,-0.003149,-0.000683,0.000196,0.03,-0.35,9.87
2407481854,-0.003146,-0.000683,-0.001933,0.06,-0.35,9.83
2407482863,-0.002079,0.000382,-0.000867,0.07,-0.32,9.79
2407483871,0.000052,0.001446,0.000198,0.06,-0.30,9.80
2407484881,0.001116,0.003573,0.001263,0.06,-0.32,9.82
2407485891,0.002179,0.002505,0.001261,0.04,-0.35,9.82
2407486901,0.002177,0.002503,0.001260,0.03,-0.35,9.83
2407487915,0.002174,0.002500,0.001259,0.05,-0.33,9.86
2407488922,0.000044,0.002498,0.000193,0.06,-0.33,9.82
2407489938,-0.002085,0.001431,-0.000871,0.03,-0.31,9.83
2407490941,-0.003147,-0.000699,0.000194,0.02,-0.30,9.84
2407491951,-0.003144,0.000366,0.000194,0.03,-0.34,9.79
2407492961,-0.003140,0.002494,-0.000871,0.04,-0.33,9.80
2407493971,-0.001009,0.002492,0.000194,0.04,-0.31,9.83
2407494981,0.001121,0.000361,0.000194,0.02,-0.33,9.83
2407495991,0.003248,-0.000704,0.001258,0.01,-0.33,9.82
2407497001,0.000052,-0.001767,0.000193,0.03,-0.32,9.83
2407498015,-0.001012,-0.001766,-0.000872,0.03,-0.31,9.79
2407499022,-0.001011,-0.001764,0.002322,0.03,-0.31,9.80
2407500038,0.001118,-0.001762,0.002319,0.03,-0.31,9.83
2407501041,0.000053,-0.001760,0.000189,0.03,-0.29,9.83
2407502051,-0.001011,-0.000694,0.000189,0.06,-0.33,9.84
2407503061,-0.001010,0.001435,0.002317,0.06,-0.34,9.80
2407504071,-0.001009,0.002498,0.001250,0.02,-0.32,9.79
2407505081,-0.003137,0.001431,-0.000879,0.03,-0.32,9.80
2407506091,-0.004198,0.001429,-0.000879,0.04,-0.33,9.80
2407507101,-0.004194,0.002492,-0.000878,0.04,-0.31,9.77
2407508115,-0.003125,0.002490,0.000187,0.04,-0.32,9.78
2407509122,-0.002058,0.001423,0.001251,0.01,-0.33,9.81
2407510138,-0.002056,0.000357,0.001250,-0.02,-0.31,9.80
2407511141,-0.002054,-0.001771,0.000185,0.00,-0.31,9.78
2407512151,-0.000987,-0.000705,-0.001944,0.01,-0.31,9.81
2407513161,0.001142,0.001424,-0.000878,0.01,-0.31,9.85
2407514171,0.003269,0.002486,0.002316,0.03,-0.29,9.82
2407515181,0.002202,0.002484,0.003378,0.03,-0.29,9.81
2407516191,-0.000993,0.001417,0.001246,0.04,-0.31,9.82
2407517201,-0.002056,0.000352,0.000180,0.05,-0.32,9.82
2407518215,0.000074,-0.001777,0.001244,0.04,-0.31,9.79
2407519222,0.002203,0.002481,-0.000885,0.03,-0.32,9.79
2407520238,0.002200,0.001415,-0.001949,0.04,-0.34,9.78
2407521241,0.002198,0.000349,-0.001947,0.04,-0.33,9.76
2407522251,0.002196,0.000349,0.000184,0.03,-0.35,9.80
2407523261,0.002194,-0.000716,0.001248,0.04,-0.35,9.82
2407524271,0.002192,-0.001779,0.002311,0.06,-0.33,9.77
2407525281,0.003254,0.000351,0.001244,0.04,-0.33,9.77
2407526291,0.002186,0.000351,0.000179,0.04,-0.31,9.78
2407527301,0.000055,-0.000714,-0.000886,0.03,-0.31,9.81
2407528315,-0.001009,-0.000713,-0.000885,0.04,-0.34,9.86
2407529322,-0.001008,0.001416,0.000180,0.05,-0.33,9.82
2407530331,-0.002071,0.001414,0.000180,0.05,-0.31,9.78
2407531341,0.001124,0.000349,0.002308,0.04,-0.33,9.81
2407532351,0.001123,-0.001780,0.002306,0.03,-0.34,9.83
2407533361,0.002186,0.000350,0.002304,0.05,-0.32,9.82
2407534371,0.003248,-0.000714,0.001237,0.04,-0.33,9.83
2407535381,0.003244,-0.002842,-0.000893,0.02,-0.33,9.81
2407536391,0.000048,-0.003903,-0.001956,0.02,-0.33,9.77
2407537401,-0.003144,-0.002835,-0.000890,0.04,-0.32,9.75
2407538442,-0.002077,-0.000704,-0.000889,0.06,-0.31,9.76
2407539468,0.001118,-0.000703,-0.000888,0.03,-0.33,9.79
2407540431,0.002181,-0.000702,-0.001951,0.01,-0.35,9.83
2407541441,0.002179,0.000362,-0.001949,0.02,-0.32,9.81
2407542451,0.003241,0.000362,-0.000883,0.01,-0.32,9.77
2407543498,0.004302,-0.001767,0.000182,0.05,-0.31,9.81
2407544599,0.002169,-0.003893,0.000182,0.04,-0.30,9.80
2407545447,0.000038,-0.001763,0.000182,0.05,-0.22,9.81
2407546457,0.000038,0.015282,0.006574,0.00,-0.41,9.82
2407547467,-0.001027,0.021674,0.006574,-0.09,-0.53,9.75
2407548481,-0.001027,0.012086,-0.008340,0.14,-0.40,9.71
2407549491,-0.002092,0.001433,-0.024320,0.22,-0.51,9.89
2407550497,-0.005288,-0.001763,-0.030711,0.07,-0.47,9.82
2407551507,0.001104,0.001433,-0.027515,-0.03,0.06,9.69
2407552536,0.007495,0.004629,-0.021124,0.03,0.17,9.89
2407553527,0.010691,0.001433,-0.011536,-0.08,-0.27,9.97
2407554537,0.009626,-0.001763,-0.005145,-0.42,-0.58,9.70
2407555547,0.020279,-0.004958,-0.007275,-0.28,-1.00,9.67
2407556557,0.034127,-0.008154,-0.026450,0.69,-0.29,9.69
2407557583,0.013887,-0.002828,-0.036038,0.87,0.93,9.57
2407558595,-0.022333,0.013151,-0.014732,-0.29,-0.31,9.72
2407559591,-0.023398,0.017412,-0.000883,-0.81,-1.89,10.10
2407560610,0.024540,-0.011350,-0.020058,0.38,-0.55,10.14
2407561616,0.037323,-0.034786,-0.034972,1.48,1.56,9.90
2407562621,-0.029790,-0.010285,-0.008340,-0.30,-1.26,9.41
2407563636,-0.053226,0.029131,0.007639,-1.15,-2.44,9.34
2407564659,0.025605,0.018478,-0.013667,1.12,2.79,10.46
2407565653,0.022409,-0.024133,-0.009406,0.48,-0.25,10.25
2407566662,-0.052160,-0.028395,0.003378,-1.66,-3.04,8.77
2407567679,0.010691,0.002499,-0.018993,0.72,3.48,9.98
2407568693,0.018148,0.012086,0.004443,1.06,-2.14,10.39
2407569710,-0.069205,0.017412,0.023618,-1.38,-1.59,9.05
2407570706,0.004299,0.039783,0.004443,0.14,3.58,11.03
2407571717,-0.003158,-0.009220,0.021487,0.25,-3.95,9.22
2407572734,-0.015941,-0.044374,0.012965,-0.27,1.01,9.40
2407573731,0.066086,0.018478,0.012965,0.33,0.02,11.38
2407574747,-0.012745,-0.008154,0.020422,0.34,-1.30,7.10
2407575769,-0.020202,0.033392,0.020422,-0.31,-0.41,10.95
2407576780,-0.011680,0.042979,0.008704,-0.09,0.50,9.52
2407577771,-0.010614,-0.013481,0.005508,0.32,-1.63,9.02
2407578785,-0.007419,0.007825,0.001247,-0.19,0.48,11.64
2407579792,0.001104,-0.007089,0.003378,0.45,-0.65,9.01
2407580800,-0.005288,0.022739,0.006574,-0.35,-0.63,10.39
2407581811,-0.019137,-0.009220,0.010835,0.46,-0.02,9.54
2407582820,0.005365,0.019543,0.002312,0.05,-1.03,10.23
2407583829,0.022409,-0.009220,0.006574,-0.35,0.93,8.75
2407584851,0.011756,-0.002828,0.003378,0.67,-2.65,10.42
2407585858,-0.001027,-0.014546,0.011900,-0.82,2.71,9.05
2407586857,-0.007419,-0.000697,0.007639,0.58,-3.52,9.89
2407587880,-0.024463,0.014217,0.001247,-0.37,2.46,10.74
2407588904,-0.009549,-0.009220,-0.006210,0.11,-1.49,9.42
2407589891,-0.010614,0.004629,-0.005145,0.92,-2.42,10.79
2407590905,0.008561,-0.002828,0.010835,-1.45,4.92,8.89
2407591907,-0.001027,-0.009220,0.004443,1.22,-6.32,10.59
2407592931,-0.007419,-0.023068,-0.007275,-0.55,3.53,7.80
2407593945,-0.018071,-0.010285,-0.014732,-0.90,0.91,10.31
2407594937,-0.037246,0.007825,-0.018993,1.97,-6.68,10.59
2407595947,-0.023398,0.004629,-0.009406,-1.56,7.07,8.66
2407596957,-0.007419,0.009956,0.000182,0.06,-3.19,11.87
2407597967,0.005365,-0.003893,-0.005145,1.60,-4.43,5.74
2407598981,0.046911,0.014217,-0.010471,-2.28,6.50,11.89
2407599991,0.001104,-0.004958,-0.008340,0.62,-3.94,12.75
2407600997,-0.017006,-0.036917,-0.008340,2.02,-3.20,5.78
2407602007,0.000038,-0.023068,0.002312,-0.94,5.30,12.97
2407603017,0.025605,-0.004958,0.005508,-0.47,-2.36,11.85
2407604033,0.020279,-0.000697,-0.004079,1.20,-4.42,5.46
2407605037,-0.006353,-0.014546,-0.009406,0.14,4.82,10.46
2407606047,-0.024463,-0.015611,-0.001949,-1.27,1.16,13.76
2407607057,-0.029790,-0.019872,-0.000883,0.60,-6.23,6.14
2407608071,-0.010614,-0.002828,-0.003014,1.48,0.69,6.38
2407609081,0.004299,0.012086,0.002312,-1.10,5.54,13.81
2407610087,0.003234,0.007825,-0.001949,-1.10,-3.79,11.49
2407611097,-0.008484,-0.006024,-0.007275,1.79,-4.94,5.18
2407612107,-0.002092,-0.010285,-0.009406,0.61,4.16,9.95
2407613117,0.014952,-0.013481,-0.011536,-1.73,3.56,15.49
2407614127,0.004299,-0.003893,-0.006210,-0.16,-4.95,9.32
2407615137,-0.018071,0.009956,0.003378,1.93,-3.82,4.18
2407616147,-0.019137,-0.004958,0.003378,-0.02,4.52,10.68
2407617157,-0.004223,-0.029460,0.003378,-1.86,3.48,15.18
2407618171,-0.002092,-0.036917,0.000182,-0.01,-4.78,8.78
2407619181,-0.003158,-0.026264,-0.000883,1.72,-4.45,3.94
2407620187,-0.063879,0.025935,-0.020058,-1.62,5.07,15.56
2407621197,-0.022333,0.053632,0.006574,-0.73,-2.86,11.78
2407622207,0.034127,0.051501,0.023618,1.35,-6.57,5.03
2407623217,0.034127,0.013151,0.005508,1.47,0.47,6.30
2407624227,-0.002092,-0.015611,-0.005145,-0.78,5.96,13.71
2407625237,0.000038,-0.024133,0.001247,-1.76,2.33,15.03
2407626247,0.001104,-0.022003,-0.001949,0.30,-6.35,8.28
2407627257,-0.009549,-0.017742,-0.013667,1.52,-4.89,3.79
2407628271,-0.022333,-0.012415,-0.017928,1.08,2.84,7.51
2407629281,-0.017006,-0.009220,-0.010471,-1.02,5.80,14.54
2407630287,-0.021267,0.006760,0.008704,-1.45,1.36,14.91
2407631297,-0.010614,0.016347,0.012965,0.34,-6.37,8.36
2407632307,-0.003158,0.023804,0.020422,1.21,-4.56,4.06
2407633317,-0.010614,0.013151,0.025749,1.22,1.43,6.63
2407634327,-0.012745,-0.016677,0.014031,-0.25,4.80,13.68
2407635337,-0.026594,-0.027329,-0.007275,-1.51,4.08,16.23
2407636347,-0.045769,-0.024133,-0.012602,-0.33,-3.58,10.89
2407637357,-0.044703,-0.019872,-0.005145,0.85,-6.72,4.99
2407638371,-0.025528,-0.011350,0.010835,1.19,-1.90,3.77
2407639381,0.006430,-0.001763,0.030010,0.98,2.81,8.77
2407640387,0.021344,-0.006024,0.030010,-0.58,5.33,15.52
2407641397,0.018148,-0.001763,0.032140,-1.32,2.64,15.74
2407642407,0.008561,0.001433,0.036401,-0.15,-4.28,10.06
2407643417,-0.008484,0.002499,0.032140,0.64,-6.15,4.84
2407644427,-0.015941,0.003564,0.025749,0.96,-2.19,3.61
2407645437,-0.001027,-0.003893,0.026814,1.30,1.45,7.92
2407646447,0.013887,-0.015611,0.028944,0.25,4.50,14.85
2407647457,0.007495,-0.014546,0.030010,-1.16,4.74,17.01
2407648471,0.000038,-0.010285,0.039597,-0.88,-0.85,12.28
2407649481,-0.007419,0.000368,0.044924,-0.06,-6.00,6.71
2407650487,-0.004223,-0.001763,0.039597,0.34,-4.91,3.69
2407651497,-0.006353,-0.001763,0.039597,1.02,-0.99,4.30
2407652507,0.002169,-0.006024,0.037467,1.35,2.03,9.42
2407653517,-0.011680,0.002499,0.034271,0.32,4.61,15.63
2407654549,-0.022333,0.021674,0.039597,-1.00,4.63,16.90
2407655537,0.007495,0.015282,0.048119,-1.19,-0.05,12.56
2407656547,0.037323,-0.011350,0.047054,-0.55,-5.10,7.53
2407657557,0.034127,-0.031590,0.037467,0.06,-5.63,4.48
2407658571,0.010691,-0.040113,0.028944,0.70,-2.46,4.14
2407659581,-0.013810,-0.036917,0.025749,1.50,0.58,7.28
2407660587,-0.022333,-0.033721,0.031075,1.30,2.96,12.61
2407661597,0.000038,-0.028395,0.044924,-0.22,5.04,16.63
2407662610,0.025605,-0.012415,0.064099,-1.36,3.86,15.50
2407663619,0.023475,0.009956,0.072621,-1.16,-0.82,10.54
2407664633,0.007495,0.011021,0.051315,-0.58,-5.05,6.74
2407665640,-0.014876,0.005694,0.044924,-0.19,-5.44,4.95
2407666652,0.005365,0.003564,0.049185,0.59,-3.00,4.65
2407667666,-0.003158,0.013151,0.061968,1.49,-0.35,6.68
2407668683,0.008561,-0.009220,0.050250,1.57,2.15,11.11
2407669690,0.003234,-0.001763,0.059838,0.76,4.18,15.32
2407670700,-0.015941,0.003564,0.076882,-0.57,4.60,16.63
2407671707,0.012822,-0.026264,0.051315,-1.43,2.20,13.58
2407672717,0.020279,-0.010285,0.051315,-1.27,-1.92,9.07
2407673721,-0.019137,0.037653,0.094992,-0.71,-4.91,6.50
2407674731,-0.047899,0.036588,0.115232,-0.14,-5.06,5.11
2407675747,-0.034051,-0.013481,0.082208,0.62,-3.18,4.86
2407676754,0.003234,-0.063549,0.030010,1.42,-0.74,6.44
2407677762,0.042650,-0.079528,-0.001949,1.88,1.38,9.77
2407678776,0.072477,-0.072071,0.001247,1.51,3.07,13.45
2407679782,0.090587,-0.061418,0.015096,0.12,4.21,16.15
2407680787,0.095914,-0.065679,0.022553,-1.15,3.57,15.27
2407681800,0.090587,-0.082724,0.020422,-1.57,1.03,11.26
2407682810,0.074608,-0.091246,0.022553,-1.43,-2.23,8.10
2407683820,0.037323,-0.075267,0.042793,-0.82,-4.53,6.94
2407684829,-0.013810,-0.023068,0.082208,0.02,-4.62,6.05
2407685837,-0.051095,0.036588,0.121624,0.75,-3.17,5.20
2407686847,-0.039377,0.057893,0.122689,1.48,-1.29,6.35
2407687857,0.010691,0.015282,0.086470,2.10,0.50,8.81
2407688871,0.033062,-0.031590,0.065164,1.96,2.08,11.85
2407689881,0.004299,-0.013481,0.089665,0.97,3.37,14.62
2407690887,-0.005288,0.014217,0.108840,-0.50,3.79,15.59
2407691897,0.006430,-0.012415,0.088600,-1.62,2.73,13.50
2407692907,-0.003158,-0.020938,0.087535,-1.84,0.29,9.84
2407693917,0.002169,0.003564,0.100318,-1.48,-2.26,8.04
2407694927,0.003234,-0.004958,0.097122,-0.82,-4.06,7.63
2407695937,-0.006353,0.005694,0.104579,0.03,-4.39,6.88
2407696947,0.000038,-0.004958,0.098188,0.82,-3.26,5.78
2407697957,0.006430,-0.008154,0.100318,1.36,-1.55,6.47
2407698971,0.016018,-0.004958,0.106710,1.96,0.04,8.20
2407699981,0.005365,0.001433,0.115232,2.21,1.21,10.28
2407700987,0.005365,0.001433,0.118428,1.67,2.44,12.67
2407701997,0.001104,-0.009220,0.115232,0.28,3.43,14.87
2407703007,0.018148,-0.016677,0.114167,-1.12,3.47,14.87
2407704017,0.016018,-0.018807,0.120559,-1.86,2.31,12.08
2407705027,0.005365,-0.011350,0.125885,-1.97,0.22,9.43
2407706037,0.001104,-0.004958,0.134407,-1.50,-1.98,8.49
2407707047,-0.003158,-0.006024,0.131211,-0.77,-3.57,8.36
2407708061,-0.005288,-0.007089,0.130146,0.13,-4.08,7.11
2407709071,0.011756,-0.008154,0.135473,0.75,-3.22,6.53
2407710077,0.010691,-0.007089,0.141864,1.32,-1.66,6.62
2407711087,-0.004223,0.005694,0.147191,1.77,-0.45,7.76
2407712097,-0.002092,0.001433,0.149321,2.15,0.61,9.05
2407713107,0.011756,-0.012415,0.147191,1.89,1.74,11.39
2407714117,0.001104,-0.012415,0.143995,0.98,2.77,13.62
2407715127,-0.007419,-0.004958,0.149321,-0.43,3.37,14.96
2407716137,0.006430,0.002499,0.165300,-1.58,3.15,13.93
2407717147,0.007495,0.000368,0.175953,-1.91,1.82,10.99
2407718161,-0.013810,0.003564,0.171692,-1.80,-0.21,9.16
2407719171,-0.025528,0.000368,0.165300,-1.17,-2.33,8.40
2407720177,0.018148,-0.009220,0.175953,0.35,-3.83,7.12
2407721187,0.007495,0.002499,0.182345,0.93,-3.05,6.92
2407722197,-0.023398,0.014217,0.181280,1.35,-1.57,6.79
2407723207,-0.023398,0.015282,0.180214,1.68,-0.50,7.77
2407724217,-0.001027,-0.003893,0.181280,2.19,0.29,8.78
2407725227,0.018148,-0.018807,0.184475,2.02,1.22,10.76
2407726237,0.010691,-0.015611,0.189802,1.14,2.34,12.89
2407727247,-0.010614,0.000368,0.194063,-0.25,3.22,14.67
2407728261,-0.023398,0.018478,0.195128,-1.42,3.25,14.26
2407729271,-0.022333,0.014217,0.194063,-1.78,2.26,11.67
2407730277,0.001104,0.002499,0.192998,-1.91,0.63,9.71
2407731287,0.013887,-0.015611,0.198324,-1.51,-1.35,8.60
2407732297,0.017083,-0.011350,0.202585,-0.92,-2.91,8.83
2407733307,-0.007419,-0.001763,0.205781,0.04,-3.75,7.54
2407734317,-0.027659,0.015282,0.204716,0.67,-3.55,7.28
2407735327,-0.037246,0.016347,0.202585,1.05,-2.30,6.83
2407736337,-0.020202,0.014217,0.200455,1.42,-1.27,7.47
2407737347,-0.001027,0.005694,0.206846,2.04,-0.50,7.82
2407738361,0.012822,0.000368,0.214303,2.13,0.30,9.24
2407739371,0.011756,-0.000697,0.217499,1.61,1.47,11.31
2407740377,-0.003158,0.000368,0.215369,0.55,2.54,13.66
2407741387,-0.021267,0.007825,0.206846,-0.79,3.12,14.96
2407742397,-0.032985,0.007825,0.202585,-1.52,2.89,13.11
2407743407,-0.022333,0.013151,0.205781,-2.00,1.86,11.27
2407744417,-0.007419,0.007825,0.217499,-1.98,0.17,9.55
2407745427,0.007495,0.002499,0.223891,-1.62,-1.58,9.17
2407746437,0.008561,-0.009220,0.220695,-0.82,-2.95,8.01
2407747447,0.002169,-0.010285,0.211107,-0.10,-3.68,7.26
2407748461,-0.023398,-0.002828,0.205781,0.41,-3.00,6.83
2407749471,-0.050030,0.003564,0.206846,0.69,-2.02,6.76
2407750491,-0.056422,0.003564,0.216434,1.10,-1.09,6.71
2407751487,-0.043638,-0.006024,0.226021,1.48,-0.26,7.12
2407752497,-0.019137,-0.018807,0.222826,1.34,0.94,9.05
2407753507,0.007495,-0.031590,0.212173,0.61,2.40,12.06
2407754517,0.030931,-0.033721,0.200455,-0.46,3.55,14.70
2407755527,0.038388,-0.028395,0.199389,-1.56,4.21,14.81
2407756537,0.035193,-0.019872,0.206846,-2.26,3.48,12.89
2407757567,0.022409,-0.026264,0.211107,-2.53,2.03,10.54
2407758561,0.024540,-0.041178,0.206846,-2.35,0.15,9.02
2407759571,0.038388,-0.055027,0.197259,-1.65,-1.80,8.16
2407760577,0.061825,-0.051831,0.187671,-0.88,-2.91,8.21
2407761587,0.063955,-0.044374,0.187671,0.10,-3.43,7.61
2407762597,0.055433,-0.025199,0.192998,0.41,-2.72,7.47
2407763610,0.036258,-0.006024,0.196194,0.83,-1.66,8.04
2407764619,0.008561,-0.003893,0.190867,1.38,-0.53,7.51
2407765636,-0.001027,0.003564,0.179149,1.47,0.48,9.21
2407766643,-0.013810,0.004629,0.170627,1.69,1.49,10.67
2407767652,-0.030855,-0.000697,0.173823,1.11,2.44,11.50
2407768669,-0.009549,0.013151,0.186606,-0.45,2.96,14.99
2407769683,0.017083,0.015282,0.197259,-1.55,4.04,14.78
2407770687,0.013887,-0.018807,0.196194,-1.67,2.40,12.29
2407771703,0.005365,-0.043309,0.183410,-2.18,0.70,10.39
2407772712,0.007495,-0.041178,0.167431,-2.19,-0.02,8.86
2407773715,-0.012745,-0.026264,0.165300,-0.80,-2.96,8.82
2407774721,-0.024463,0.013151,0.180214,-0.50,-3.77,7.58
2407775766,0.006430,0.061089,0.192998,-0.22,-2.88,7.99
2407776748,-0.001027,0.040849,0.200455,1.41,-3.33,7.48
2407777754,-0.012745,-0.002828,0.200455,1.04,-1.73,5.18
2407778766,0.034127,0.012086,0.196194,0.54,0.28,7.92
2407779776,-0.008484,-0.003893,0.192998,2.44,0.73,7.50
2407780781,-0.085184,-0.009220,0.195128,1.75,0.76,8.29
2407781787,-0.039377,0.057893,0.194063,-0.50,2.54,15.94
2407782800,0.001104,0.058958,0.189802,0.13,4.28,15.98
2407783810,-0.035116,0.005694,0.191932,-0.56,1.71,13.08
2407784820,0.007495,0.018478,0.199389,-2.89,1.83,12.26
2407785838,0.054368,0.004629,0.198324,-1.73,1.47,9.21
2407786851,-0.001027,-0.042243,0.196194,-0.52,-3.54,8.64
2407787858,-0.002092,-0.013481,0.194063,-1.62,-3.69,9.51
2407788881,0.035193,0.015282,0.183410,-0.12,-2.65,8.02
2407789892,-0.014876,-0.022003,0.178084,1.72,-4.84,6.76
2407790884,-0.024463,-0.019872,0.184475,0.31,-2.99,6.27
2407791890,0.052237,0.012086,0.189802,0.77,-0.11,6.86
2407792902,0.023475,-0.016677,0.198324,2.72,-0.71,6.72
2407793910,-0.036181,-0.017742,0.201520,1.69,-0.11,8.94
2407794924,-0.004223,0.036588,0.191932,0.68,2.39,14.50
2407795932,-0.010614,0.019543,0.180214,1.06,3.42,14.91
2407796959,-0.053226,-0.018807,0.182345,-0.38,1.77,14.00
2407797976,0.006430,0.013151,0.190867,-2.39,2.69,13.41
2407798972,0.043715,0.012086,0.199389,-1.77,2.28,9.60
2407799984,-0.027659,-0.023068,0.201520,-1.00,-2.38,9.37
2407800995,-0.026594,0.002499,0.198324,-1.83,-2.53,9.39
2407801987,0.018148,0.018478,0.188737,-0.43,-2.48,7.56
2407802997,-0.020202,-0.019872,0.188737,1.21,-5.09,7.21
2407804007,-0.018071,-0.014546,0.199389,0.26,-3.54,6.00
2407805017,0.046911,0.020608,0.206846,0.69,-0.93,6.86
2407806027,-0.005288,-0.008154,0.205781,2.35,-1.50,7.10
2407807037,-0.056422,-0.013481,0.198324,1.66,-0.56,8.28
2407808051,0.014952,0.032326,0.189802,1.15,2.05,13.01
2407809072,0.035193,0.014217,0.189802,1.58,2.92,13.53
2407810067,-0.008484,-0.020938,0.201520,-0.10,2.01,13.45
2407811097,0.026670,-0.002828,0.203650,-2.01,3.21,14.21
2407812087,0.017083,-0.014546,0.191932,-1.65,2.97,11.27
2407813097,-0.059617,-0.050766,0.181280,-1.19,-1.50,9.46
2407814121,-0.018071,-0.016677,0.186606,-2.04,-1.68,8.95
2407815117,0.055433,0.014217,0.197259,-0.77,-1.94,7.93
2407816127,0.004299,-0.013481,0.204716,0.94,-5.47,7.46
2407817137,-0.021267,0.002499,0.202585,0.04,-4.15,6.94
2407818151,0.022409,0.031261,0.191932,0.74,-1.69,7.30
2407819161,0.000038,-0.010285,0.190867,2.29,-2.13,7.11
2407820167,0.042650,-0.018807,0.182345,1.33,2.11,11.14
2407821177,0.012822,-0.032656,0.178084,1.84,2.48,11.76
2407822187,-0.042573,-0.030525,0.187671,0.00,2.02,13.29
2407823197,0.016018,0.003564,0.198324,-1.66,3.51,14.96
2407824207,0.042650,-0.011350,0.194063,-1.62,3.24,12.43
2407825217,-0.029790,-0.041178,0.180214,-1.51,-0.87,10.63
2407826227,-0.023398,-0.007089,0.171692,-1.92,-1.33,9.38
2407827237,0.031997,0.017412,0.180214,-0.78,-2.20,7.61
2407828251,0.005365,-0.009220,0.195128,0.53,-5.68,7.55
2407829261,-0.001027,-0.006024,0.190867,0.33,-4.36,7.09
2407830267,0.027736,0.011021,0.175953,1.04,-1.93,7.19
2407831277,0.006430,-0.015611,0.170627,1.82,-1.92,7.29
2407832287,-0.001027,-0.019872,0.170627,1.39,-0.11,7.99
2407833297,0.030931,0.007825,0.167431,1.72,1.95,10.55
2407834307,0.001104,0.009956,0.174888,1.61,2.21,12.04
2407835317,-0.031920,-0.002828,0.179149,0.04,2.21,13.97
2407836327,0.005365,0.001433,0.175953,-1.31,3.32,15.38
2407837337,0.000038,-0.000697,0.167431,-1.89,3.03,12.66
2407838351,-0.055356,-0.008154,0.166366,-1.78,-0.53,10.25
2407839391,-0.025528,0.015282,0.173823,-1.69,-1.39,8.77
2407840367,0.012822,0.023804,0.175953,-0.89,-2.45,7.77
2407841377,-0.039377,-0.011350,0.166366,0.35,-5.54,7.28
2407842387,-0.043638,-0.008154,0.162105,0.42,-4.20,6.23
2407843397,0.013887,0.012086,0.170627,0.81,-1.86,7.60
2407844407,-0.010614,-0.011350,0.178084,1.79,-1.77,7.21
2407845417,-0.038312,-0.007089,0.182345,1.51,0.01,7.12
2407846427,0.008561,0.029131,0.184475,1.39,1.91,11.39
2407847437,0.018148,0.000368,0.177018,1.50,2.40,12.37
2407848451,-0.020202,-0.031590,0.164235,-0.05,2.33,13.30
2407849461,0.006430,-0.000697,0.159974,-1.79,3.43,15.34
2407850467,0.031997,0.008890,0.173823,-1.86,3.12,12.24
2407851477,0.003234,-0.017742,0.190867,-1.55,-0.96,9.89
2407852487,0.018148,-0.002828,0.186606,-1.82,-1.69,9.20
2407853497,0.038388,0.014217,0.171692,-0.67,-2.42,7.80
2407854507,-0.001027,-0.014546,0.166366,0.61,-5.62,6.87
2407855517,0.005365,-0.018807,0.167431,0.31,-4.23,6.41
2407856527,0.035193,0.002499,0.165300,0.95,-1.71,7.48
2407857537,-0.010614,-0.010285,0.170627,2.01,-1.96,7.34
2407858551,-0.014876,-0.016677,0.175953,1.57,-0.24,7.96
2407859585,0.044780,0.001433,0.171692,1.57,2.00,11.53
2407860567,0.007495,-0.011350,0.162105,1.67,2.32,12.61
2407861577,-0.055356,-0.019872,0.166366,0.01,2.18,13.45
2407862587,-0.002092,0.013151,0.177018,-1.59,3.29,14.78
2407863597,0.024540,0.004629,0.182345,-1.62,2.79,12.01
2407864610,-0.031920,-0.030525,0.174888,-1.58,-1.09,9.86
2407865618,-0.019137,-0.006024,0.169561,-1.85,-1.66,9.32
2407866633,0.028801,0.018478,0.177018,-0.62,-2.43,8.02
2407867643,-0.007419,-0.014546,0.188737,0.64,-5.52,7.20
2407868655,-0.013810,-0.011350,0.191932,0.34,-4.25,6.31
2407869668,0.029866,0.019543,0.187671,0.89,-1.63,7.32
2407870678,0.007495,-0.013481,0.184475,2.13,-1.88,7.42
2407871685,-0.009549,-0.035852,0.177018,1.66,-0.35,7.62
2407872700,0.028801,0.001433,0.169561,1.47,2.05,11.49
2407873707,0.007495,0.002499,0.179149,1.70,2.36,12.69
2407874719,-0.020202,-0.015611,0.200455,0.03,2.04,13.21
2407875731,0.029866,0.006760,0.203650,-1.74,3.28,14.63
2407876731,0.027736,0.000368,0.184475,-1.69,2.90,12.03
2407877749,-0.043638,-0.026264,0.174888,-1.51,-1.11,10.06
2407878759,-0.012745,-0.006024,0.184475,-1.90,-1.73,9.50
2407879766,0.031997,0.007825,0.194063,-0.72,-2.17,8.15
2407880770,-0.025528,-0.022003,0.196194,0.67,-5.24,7.34
2407881781,-0.034051,-0.012415,0.197259,0.25,-4.38,6.28
2407882787,0.030931,0.012086,0.194063,0.74,-1.49,6.47
2407883800,0.018148,-0.018807,0.187671,1.99,-1.67,7.05
2407884810,-0.026594,-0.027329,0.185541,1.62,-0.90,8.13
2407885820,0.002169,0.005694,0.184475,1.65,1.82,11.07
2407886829,0.021344,0.006760,0.190867,1.61,2.48,13.44
2407887837,-0.004223,-0.020938,0.190867,0.14,2.08,14.20
2407888851,0.006430,-0.013481,0.175953,-1.20,2.85,13.91
2407889861,0.016018,0.007825,0.164235,-1.78,2.81,12.04
2407890867,-0.023398,-0.000697,0.175953,-1.61,-0.46,9.98
2407891877,-0.020202,-0.000697,0.187671,-1.78,-2.09,9.26
2407892887,0.013887,0.015282,0.180214,-1.20,-2.10,8.55
2407893897,-0.015941,-0.004958,0.169561,0.58,-4.39,7.96
2407894907,-0.028724,-0.016677,0.169561,0.35,-4.32,6.14
2407895917,0.018148,0.002499,0.166366,0.46,-1.62,6.37
2407896927,-0.003158,-0.001763,0.169561,2.14,-1.20,6.87
2407897937,-0.036181,-0.007089,0.182345,1.88,-0.75,7.15
2407898951,0.017083,0.011021,0.185541,1.35,1.66,11.46
2407899961,0.018148,-0.002828,0.169561,1.34,3.10,13.75
2407900967,-0.041508,-0.024133,0.161039,0.03,2.43,13.86
2407901977,-0.003158,-0.000697,0.165300,-1.70,3.06,14.23
2407902987,0.030931,0.006760,0.169561,-1.83,2.88,11.62
2407903997,-0.023398,-0.018807,0.170627,-1.55,-1.07,9.81
2407905007,-0.010614,-0.006024,0.172757,-1.76,-2.34,9.47
2407906017,0.039454,0.002499,0.168496,-0.61,-2.53,8.16
2407907027,-0.003158,-0.028395,0.161039,0.63,-4.90,7.40
2407908041,-0.021267,-0.018807,0.164235,0.45,-4.34,6.03
2407909051,0.029866,0.012086,0.170627,0.97,-1.30,6.46
2407910057,0.013887,-0.010285,0.167431,2.07,-1.06,7.49
2407911067,-0.027659,-0.022003,0.157843,1.87,-0.41,8.42
2407912077,0.005365,0.003564,0.153582,1.61,2.17,11.96
2407913087,0.018148,0.001433,0.157843,1.10,2.87,14.45
2407914097,-0.022333,-0.013481,0.165300,-0.36,2.29,14.22
2407915107,-0.004223,0.012086,0.166366,-1.62,2.92,13.70
2407916117,0.026670,0.025935,0.164235,-2.07,2.38,11.22
2407917127,-0.006353,-0.008154,0.157843,-1.75,-1.48,9.23
2407918141,-0.012745,-0.008154,0.147191,-1.43,-2.70,9.11
2407919151,0.021344,0.019543,0.152517,-0.51,-2.84,8.18
2407920157,-0.009549,-0.002828,0.172757,0.64,-3.82,5.70
2407921167,0.021344,0.024869,0.164235,0.92,-1.00,6.86
2407922177,0.004299,0.008890,0.161039,2.12,-0.95,7.51
2407923187,-0.015941,-0.015611,0.159974,1.91,-0.17,8.37
2407924197,0.017083,0.008890,0.157843,1.27,2.33,12.74
2407925207,0.019213,0.014217,0.165300,0.70,3.20,14.88
2407926217,-0.007419,-0.010285,0.173823,-0.67,2.47,14.07
2407927227,0.017083,-0.004958,0.163170,-1.97,2.74,13.01
2407928241,0.035193,0.001433,0.151452,-2.12,2.05,10.28
2407929251,-0.002092,-0.016677,0.158909,-1.63,-1.90,8.79
2407930257,0.006430,-0.008154,0.163170,-1.29,-3.29,9.02
2407931267,0.035193,0.014217,0.156778,-0.31,-3.06,8.20
2407932277,0.002169,-0.008154,0.156778,0.90,-4.79,7.02
2407933287,-0.007419,-0.031590,0.151452,0.73,-3.59,5.89
2407934297,0.027736,-0.009220,0.143995,0.97,-0.56,7.00
2407935307,0.006430,-0.004958,0.152517,2.27,-0.70,7.80
2407936317,-0.013810,-0.013481,0.166366,1.90,0.18,9.18
2407937327,0.022409,0.004629,0.164235,1.02,2.77,13.49
2407938341,0.013887,-0.001763,0.152517,0.38,3.45,15.19
2407939351,-0.020202,-0.026264,0.147191,-0.96,2.40,14.07
2407940357,0.006430,-0.010285,0.146125,-2.14,2.53,12.46
2407941367,0.019213,0.004629,0.146125,-2.09,1.51,9.72
2407942377,-0.017006,-0.008154,0.154648,-1.48,-2.53,8.77
2407943387,-0.003158,-0.008154,0.156778,-1.13,-3.54,9.08
2407944397,0.025605,-0.004958,0.142929,-0.12,-3.23,7.94
2407945407,-0.014876,-0.018807,0.135473,0.95,-4.46,6.89
2407946417,-0.026594,-0.014546,0.139734,0.81,-3.12,5.99
2407947427,0.014952,0.005694,0.138668,1.18,-0.32,7.02
2407948441,-0.008484,0.005694,0.138668,2.22,-0.31,8.22
2407949451,-0.040442,-0.007089,0.139734,1.76,0.26,9.40
2407950457,0.003234,0.004629,0.133342,0.86,2.77,13.69
2407951467,0.009626,0.002499,0.123754,0.12,3.47,15.52
2407952477,-0.042573,-0.009220,0.128016,-1.11,2.28,13.81
2407953487,-0.015941,0.009956,0.134407,-2.22,2.26,12.00
2407954497,0.019213,0.015282,0.131211,-2.13,1.30,9.61
2407955507,-0.035116,-0.016677,0.120559,-1.41,-2.60,8.52
2407956517,-0.037246,-0.014546,0.117363,-1.10,-4.05,8.36
2407957527,0.028801,0.007825,0.121624,-0.13,-3.08,7.92
2407958541,0.009626,-0.012415,0.125885,1.23,-4.00,6.98
2407959551,-0.025528,-0.010285,0.130146,0.90,-3.15,5.80
2407960557,0.016018,0.025935,0.129081,1.09,0.01,7.24
2407961567,0.021344,0.000368,0.124820,2.40,0.09,8.12
2407962577,-0.013810,-0.027329,0.117363,1.67,0.30,9.78
2407963587,0.010691,0.002499,0.116297,0.61,2.87,14.31
2407964597,0.025605,0.012086,0.128016,0.02,3.78,15.64
2407965615,-0.008484,-0.010285,0.139734,-1.27,2.14,13.82
2407966619,0.005365,-0.001763,0.135473,-2.25,1.96,11.56
2407967632,0.037323,0.007825,0.122689,-2.06,1.03,9.12
2407968645,0.008561,-0.018807,0.121624,-1.27,-3.09,8.28
2407969659,0.001104,-0.018807,0.119493,-0.82,-4.22,8.55
2407970667,0.029866,0.009956,0.118428,0.17,-3.25,7.76
2407971677,0.006430,-0.004958,0.124820,1.20,-3.95,6.93
2407972687,-0.002092,-0.022003,0.120559,0.91,-2.52,6.20
2407973697,0.033062,-0.001763,0.108840,1.36,0.30,7.36
2407974704,0.021344,-0.000697,0.110971,2.31,0.33,8.85
2407975716,-0.004223,-0.010285,0.122689,1.59,0.84,10.47
2407976723,0.014952,0.011021,0.124820,0.46,3.15,14.76
2407977730,0.017083,0.011021,0.118428,-0.50,3.77,15.80
2407978753,-0.007419,-0.015611,0.113102,-1.56,2.09,13.36
2407979759,0.008561,-0.012415,0.103514,-2.24,1.58,10.99
2407980762,0.025605,0.006760,0.100318,-2.02,0.39,8.76
2407981770,-0.009549,0.003564,0.118428,-1.17,-3.47,8.21
2407982781,-0.006353,-0.002828,0.124820,-0.57,-4.57,7.87
2407983787,0.024540,0.006760,0.112036,0.27,-3.12,7.53
2407984800,-0.003158,-0.007089,0.108840,1.33,-3.51,6.98
2407985810,-0.018071,-0.018807,0.110971,1.13,-2.28,6.01
2407986820,0.022409,0.011021,0.105645,1.37,0.69,7.97
2407987829,0.002169,0.015282,0.108840,2.42,0.64,9.17
2407988841,-0.029790,-0.003893,0.114167,1.39,0.96,10.88
2407989851,0.011756,-0.000697,0.109906,0.02,3.20,15.17
2407990857,0.020279,-0.003893,0.099253,-0.66,3.82,15.59
2407991867,-0.028724,-0.015611,0.102449,-1.62,1.73,12.81
2407992877,-0.002092,0.001433,0.112036,-2.32,1.07,10.41
2407993887,0.028801,0.011021,0.109906,-2.00,0.19,8.52
2407994897,-0.017006,-0.017742,0.106710,-0.78,-3.92,7.58
2407995907,-0.019137,-0.019872,0.108840,-0.40,-4.80,7.72
2407996917,0.028801,-0.001763,0.103514,0.40,-2.99,7.41
2407997927,-0.006353,-0.012415,0.103514,1.59,-3.20,7.13
2407998941,-0.028724,-0.004958,0.114167,1.11,-1.91,6.79
2407999951,0.022409,0.011021,0.117363,1.53,0.76,8.10
2408000957,0.007495,-0.012415,0.107775,2.40,1.02,9.79
2408001967,-0.043638,-0.033721,0.099253,1.30,1.12,11.42
2408002977,-0.004223,-0.008154,0.100318,-0.09,3.23,15.39
2408003987,0.020279,0.002499,0.108840,-0.92,3.86,15.47
2408004997,-0.023398,-0.012415,0.118428,-1.63,1.39,12.22
2408006007,-0.013810,0.004629,0.119493,-2.39,0.84,10.28
2408007017,0.028801,0.012086,0.114167,-1.77,-0.30,8.04
2408008031,-0.006353,-0.023068,0.105645,-0.57,-4.24,7.70
2408009041,-0.018071,-0.015611,0.102449,-0.21,-4.85,7.82
2408010047,0.020279,0.018478,0.108840,0.69,-2.92,7.46
2408011057,0.002169,0.001433,0.121624,1.52,-3.00,7.27
2408012067,-0.015941,-0.014546,0.120559,1.24,-1.65,6.60
2408013077,0.021344,0.011021,0.113102,1.62,1.07,8.38
2408014087,0.020279,-0.000697,0.110971,2.35,1.03,9.96
2408015097,-0.004223,-0.019872,0.114167,1.17,1.35,11.88
2408016107,0.016018,0.004629,0.110971,-0.31,3.44,15.42
2408017117,0.019213,0.013151,0.108840,-1.06,3.79,15.05
2408018131,-0.009549,-0.012415,0.109906,-1.82,1.35,12.22
2408019141,0.011756,-0.013481,0.102449,-2.18,0.54,9.82
2408020155,-0.009549,0.002499,0.112036,-0.63,-4.45,7.67
2408021158,-0.010614,0.002499,0.122689,0.04,-4.86,7.48
2408022168,0.017083,0.012086,0.112036,0.69,-2.86,7.41
2408023203,-0.012745,-0.003893,0.101384,1.56,-2.89,7.16
2408024210,-0.025528,-0.020938,0.100318,1.37,-1.30,6.76
2408025198,0.016018,-0.008154,0.099253,1.67,1.16,8.69
2408026208,-0.002092,-0.000697,0.104579,2.15,1.26,10.51
2408027218,-0.039377,-0.007089,0.115232,0.91,1.67,12.20
2408028234,0.003234,0.002499,0.116297,-0.54,3.34,15.48
2408029243,0.016018,-0.000697,0.103514,-1.45,3.83,14.97
2408030253,-0.036181,-0.023068,0.096057,-1.76,1.11,11.51
2408031255,-0.019137,-0.003893,0.103514,-2.17,0.14,9.74
2408032265,0.016018,0.016347,0.110971,-1.70,-0.86,8.01
2408033275,-0.029790,-0.007089,0.114167,-0.35,-4.57,7.33
2408034285,-0.029790,-0.004958,0.114167,0.10,-4.94,7.21
2408035295,0.025605,0.009956,0.110971,0.83,-2.66,7.49
2408036305,0.003234,-0.015611,0.105645,1.65,-2.43,7.54
2408037315,-0.029790,-0.018807,0.109906,1.40,-1.31,6.87
2408038331,0.014952,0.016347,0.114167,1.73,1.30,9.12
2408039340,0.026670,0.001433,0.117363,2.21,1.61,10.75
2408040355,-0.005288,-0.030525,0.112036,0.85,1.57,12.24
2408041358,0.007495,-0.004958,0.103514,-0.85,3.45,15.53
2408042368,0.023475,0.007825,0.106710,-1.28,3.73,14.31
2408043398,-0.006353,-0.004958,0.119493,-1.75,0.86,11.51
2408044407,0.005365,0.006760,0.121624,-2.26,0.04,9.88
2408045415,0.022409,0.015282,0.110971,-1.42,-1.09,7.92
2408046408,-0.014876,-0.008154,0.105645,-0.34,-4.55,7.77
2408047439,-0.013810,-0.019872,0.101384,0.12,-4.85,7.10
2408048437,0.025605,-0.004958,0.097122,0.77,-2.43,7.28
2408049452,-0.012745,-0.008154,0.103514,1.68,-2.46,7.40
2408050457,-0.040442,-0.003893,0.116297,1.44,-1.34,6.87
2408051460,0.012822,0.016347,0.115232,1.64,1.41,9.04
2408052481,0.012822,-0.003893,0.103514,2.18,1.46,10.67
2408053493,-0.037246,-0.018807,0.097122,0.76,1.63,12.24
2408054491,-0.007419,0.011021,0.100318,-0.78,3.36,15.15
2408055505,0.024540,0.020608,0.112036,-1.39,3.74,14.57
2408056518,-0.010614,-0.014546,0.117363,-1.73,0.89,11.43
2408057520,-0.005288,-0.009220,0.106710,-2.26,0.10,9.77
2408058556,0.028801,0.014217,0.097122,-1.69,-0.63,8.11
2408059562,-0.001027,-0.006024,0.103514,-0.18,-4.58,7.25
2408060556,0.002169,-0.009220,0.112036,0.01,-4.95,7.40
2408061558,0.038388,0.011021,0.106710,0.70,-2.53,7.49
2408062568,0.001104,-0.006024,0.104579,1.87,-2.55,7.26
2408063578,-0.022333,-0.018807,0.105645,1.31,-1.30,7.03
2408064613,0.028801,-0.004958,0.100318,1.65,1.37,8.88
2408065597,0.010691,-0.014546,0.097122,2.26,1.57,10.41
2408066616,-0.036181,-0.016677,0.106710,0.76,1.58,12.42
2408067620,0.003234,0.008890,0.112036,-0.73,3.49,15.63
2408068636,0.026670,-0.000697,0.104579,-1.38,3.77,14.43
2408069646,-0.021267,-0.027329,0.094992,-2.02,1.08,11.78
2408070659,-0.012745,-0.010285,0.093927,-2.25,0.22,9.55
2408071665,0.022409,0.008890,0.104579,-1.51,-1.27,7.56
2408072675,-0.008484,-0.007089,0.114167,-0.46,-4.80,7.80
2408073686,-0.019137,-0.002828,0.115232,0.34,-4.75,7.34
2408074698,0.018148,0.016347,0.113102,0.95,-2.62,7.52
2408075709,0.003234,-0.008154,0.105645,1.57,-2.47,7.37
2408076715,-0.025528,-0.017742,0.098188,1.53,-0.75,6.78
2408077722,0.002169,0.015282,0.100318,1.71,1.48,9.18
2408078735,0.014952,0.013151,0.112036,1.93,1.55,10.91
2408079754,-0.010614,-0.004958,0.117363,0.58,2.08,12.93
2408080764,0.006430,0.005694,0.112036,-0.96,3.49,15.62
2408081763,0.025605,0.006760,0.107775,-1.82,3.63,14.22
2408082771,-0.014876,-0.011350,0.110971,-1.95,0.71,11.13
2408083800,-0.015941,0.001433,0.109906,-1.97,-0.52,9.25
2408084788,0.021344,0.018478,0.114167,-1.34,-1.82,7.76
2408085801,0.001104,-0.013481,0.109906,-0.09,-5.15,7.24
2408086811,-0.008484,-0.018807,0.099253,0.42,-4.65,6.79
2408087822,0.024540,0.005694,0.101384,1.00,-2.29,6.93
2408088835,0.010691,-0.002828,0.107775,1.70,-1.90,7.29
2408089843,-0.012745,-0.000697,0.113102,1.54,-0.37,7.32
2408090854,0.017083,0.017412,0.110971,1.68,1.85,10.07
2408091855,0.020279,-0.000697,0.100318,1.59,2.34,12.38
2408092865,-0.021267,-0.025199,0.093927,0.18,2.40,13.72
2408093875,-0.003158,-0.008154,0.093927,-1.39,3.36,15.19
2408094885,0.019213,0.006760,0.103514,-2.17,3.20,12.84
2408095895,-0.018071,-0.008154,0.109906,-2.02,-0.09,10.00
2408096905,-0.008484,-0.000697,0.109906,-1.68,-1.57,9.05
2408097915,0.021344,0.004629,0.102449,-0.81,-2.61,7.91
2408098930,-0.018071,-0.016677,0.093927,0.26,-5.22,7.08
2408099951,-0.028724,-0.009220,0.099253,0.62,-4.21,6.08
2408100948,0.010691,0.011021,0.102449,1.13,-1.59,6.91
2408101958,-0.005288,0.004629,0.105645,1.92,-1.32,7.44
2408102968,-0.027659,-0.006024,0.103514,1.72,0.13,8.28
2408103978,0.006430,-0.003893,0.096057,1.54,2.15,11.58
2408104988,0.001104,-0.007089,0.093927,1.03,2.82,13.84
2408105998,-0.032985,-0.012415,0.104579,-0.36,2.73,14.24
2408107008,-0.004223,0.003564,0.114167,-1.70,3.10,14.09
2408108023,0.009626,0.005694,0.107775,-2.44,2.58,11.30
2408109033,-0.027659,-0.017742,0.098188,-1.89,-1.14,9.03
2408110044,-0.017006,-0.014546,0.096057,-1.35,-2.54,9.06
2408111045,0.016018,0.001433,0.096057,-0.39,-3.07,8.02
2408112055,-0.019137,0.000368,0.104579,0.73,-4.94,7.06
2408113074,-0.024463,0.006760,0.114167,0.62,-3.68,6.12
2408114097,0.018148,0.014217,0.109906,1.10,-1.02,7.09
2408115085,-0.004223,-0.002828,0.100318,2.11,-0.71,7.90
2408116095,-0.035116,-0.017742,0.102449,1.87,0.15,8.50
2408117105,0.004299,0.002499,0.103514,1.25,2.48,12.72
2408118120,0.001104,0.008890,0.108840,0.62,3.31,14.72
2408119130,-0.031920,-0.008154,0.114167,-0.65,2.50,13.84
2408120146,0.020279,-0.001763,0.098188,-2.24,2.01,10.03
2408121148,-0.025528,-0.018807,0.101384,-1.63,-2.04,8.87
2408122158,-0.010614,-0.003893,0.114167,-1.23,-3.40,8.99
2408123168,0.023475,0.005694,0.114167,0.03,-3.26,7.92
2408124178,-0.014876,-0.011350,0.109906,1.02,-4.59,7.01
2408125188,-0.028724,-0.017742,0.104579,0.80,-3.30,5.79
2408126198,0.018148,0.000368,0.097122,1.18,-0.38,7.08
2408127208,-0.002092,0.001433,0.103514,2.31,-0.35,8.05
2408128223,-0.024463,-0.003893,0.117363,1.89,0.28,9.60
2408129233,0.012822,0.011021,0.116297,1.01,2.83,13.76
2408130244,0.009626,0.000368,0.104579,0.26,3.36,15.25
2408131245,-0.025528,-0.018807,0.099253,-1.13,2.21,14.30
2408132255,0.000038,-0.007089,0.100318,-1.89,2.06,12.05
2408133265,0.011756,0.004629,0.098188,-1.91,1.00,9.70
2408134275,-0.023398,-0.001763,0.106710,-1.54,-2.65,8.82
2408135285,-0.018071,-0.006024,0.110971,-1.01,-3.96,8.34
2408136295,0.018148,0.003564,0.096057,-0.21,-3.14,7.40
2408137305,-0.003158,-0.000697,0.090731,1.05,-4.04,6.67
2408138320,-0.020202,-0.003893,0.093927,0.95,-3.01,6.11
2408139330,0.010691,0.015282,0.091796,1.18,-0.12,7.32
2408140346,-0.002092,0.016347,0.091796,2.25,0.33,8.83
2408141348,-0.026594,-0.009220,0.090731,1.65,0.70,10.21
2408142358,0.000038,-0.004958,0.084339,0.56,2.62,13.91
2408143368,0.016018,0.004629,0.076882,-0.35,3.90,15.73
2408144378,-0.006353,-0.007089,0.086470,-1.28,2.26,13.57
2408145388,0.000038,0.001433,0.096057,-2.34,1.24,11.18
2408146398,0.034127,0.014217,0.092861,-2.18,0.59,8.96
2408147408,0.013887,-0.011350,0.089665,-0.89,-3.02,7.98
2408148423,-0.003158,-0.026264,0.080078,-0.73,-4.81,7.40
2408149433,0.030931,0.005694,0.081143,0.05,-3.56,6.77
2408150444,0.020279,-0.001763,0.088600,1.44,-3.22,7.03
2408151445,-0.006353,-0.009220,0.093927,1.13,-2.28,6.43
2408152455,0.017083,0.004629,0.089665,1.40,0.56,8.14
2408153465,0.018148,-0.015611,0.077947,2.35,1.39,9.97
2408154475,-0.023398,-0.030525,0.076882,1.25,1.30,11.70
2408155485,0.002169,-0.009220,0.076882,-0.31,3.24,15.52
2408156495,0.016018,-0.002828,0.080078,-0.94,3.85,15.14
2408157505,-0.021267,-0.020938,0.079013,-1.75,1.30,12.28
2408158520,-0.004223,-0.014546,0.075817,-2.22,0.16,9.99
2408159530,0.023475,-0.011350,0.066229,-1.48,-1.08,8.09
2408160546,-0.003158,-0.010285,0.072621,-0.55,-4.54,7.65
2408161548,-0.006353,-0.002828,0.079013,0.06,-5.09,7.08
2408162558,0.020279,0.014217,0.073686,0.83,-2.92,6.89
