time_us,gyro_x_rad_s,gyro_y_rad_s,gyro_z_rad_s,acc_x_m_s2,acc_y_m_s2,acc_z_m_s2
906884350,0.000356,-0.001907,0.000094,0.02,-0.34,9.82
906885568,-0.000612,-0.003485,-0.001758,0.03,-0.27,9.84
906887045,-0.000611,-0.002417,-0.001756,0.00,-0.31,9.84
906888084,-0.001674,-0.002413,-0.000690,-0.02,-0.32,9.83
906889094,-0.000608,-0.002411,0.001440,0.03,-0.31,9.85
906890104,0.000457,-0.000280,0.002502,0.03,-0.28,9.83
906891149,0.000456,-0.000280,0.002500,0.01,-0.26,9.83
906892178,0.000456,-0.001343,0.000369,0.01,-0.27,9.85
906893134,0.000455,-0.001342,-0.000696,0.04,-0.28,9.81
906894144,-0.000609,-0.001341,-0.000695,0.05,-0.29,9.75
906895154,-0.002737,-0.002404,-0.000694,0.05,-0.28,9.75
906896170,-0.002734,-0.001337,0.000371,0.03,-0.28,9.80
906897174,0.000461,-0.000271,0.001434,0.03,-0.31,9.82
906898184,0.002589,0.001857,-0.000696,0.04,-0.33,9.82
906899194,0.003651,0.002920,0.000369,0.05,-0.31,9.86
906900204,0.002583,0.002917,0.000369,0.04,-0.32,9.83
906901214,-0.000613,0.002914,0.000369,0.05,-0.34,9.80
906902224,-0.001676,0.002911,0.000368,0.05,-0.32,9.85
906903234,-0.001674,0.001844,-0.001761,0.05,-0.31,9.81
906904244,-0.002737,-0.000287,-0.000695,0.06,-0.29,9.80
906905254,-0.001670,-0.000286,0.000370,0.04,-0.27,9.84
906906271,-0.000604,0.000778,0.000370,0.06,-0.30,9.81
906907274,0.000461,0.002906,0.000370,0.07,-0.33,9.80
906908284,0.000460,0.001839,0.001433,0.03,-0.32,9.82
906909296,0.000460,-0.000292,0.000368,0.02,-0.31,9.81
906910316,-0.001669,-0.001356,0.000367,0.06,-0.32,9.79
906911320,-0.003796,0.001838,0.003560,0.04,-0.28,9.78
906912327,-0.001664,0.003965,0.004620,0.04,-0.27,9.81
906913342,0.001531,0.003961,0.001423,0.07,-0.29,9.84
906914350,0.002593,0.002893,-0.001771,0.02,-0.30,9.81
906915361,0.001527,0.002890,-0.001769,0.01,-0.32,9.79
906916373,-0.000603,0.003951,0.000361,0.04,-0.34,9.83
906917378,-0.001667,0.002883,0.002489,0.03,-0.30,9.84
906918392,0.000463,-0.000313,0.002486,0.04,-0.28,9.82
906919399,0.002591,-0.001377,0.001420,0.05,-0.32,9.82
906920410,0.000460,0.001817,0.001418,0.07,-0.35,9.79
906921419,0.000460,0.002880,0.000353,0.05,-0.33,9.81
906922432,0.001523,0.001813,0.000352,0.01,-0.29,9.83
906923443,0.001522,-0.001382,0.000352,0.03,-0.28,9.78
906924451,0.001520,-0.000316,-0.000713,0.03,-0.27,9.79
906925465,0.001519,0.002877,-0.001776,0.03,-0.25,9.78
906926476,0.001517,0.002874,-0.000710,0.05,-0.28,9.77
906927481,0.001516,0.001807,0.000355,0.04,-0.29,9.79
906928488,0.000450,0.001805,0.002483,0.04,-0.32,9.79
906929494,-0.002743,0.001803,0.002480,0.03,-0.32,9.81
906930508,-0.003805,-0.000327,0.001414,-0.01,-0.31,9.84
906931518,-0.003801,-0.002455,0.001412,0.00,-0.33,9.84
906932528,-0.001669,-0.003517,0.001411,0.05,-0.30,9.82
906933553,0.000462,-0.002449,0.000345,0.06,-0.28,9.80
906934546,-0.000603,0.000746,0.001409,0.04,-0.29,9.80
906935559,-0.000602,0.001809,0.001408,0.05,-0.31,9.80
906936564,0.001527,0.000743,0.001406,0.05,-0.33,9.78
906937574,0.001525,-0.000322,0.000341,0.06,-0.33,9.79
906938584,-0.001669,-0.001385,-0.000724,0.06,-0.33,9.81
906939594,-0.003796,-0.000320,-0.000723,0.05,-0.36,9.82
906940604,-0.001664,0.001809,0.000342,0.04,-0.34,9.82
906941614,0.000466,0.002871,0.002470,0.03,-0.28,9.79
906942624,-0.000598,0.001804,0.002467,0.03,-0.28,9.79
906943634,-0.001662,0.001802,0.001401,0.04,-0.29,9.81
906944644,-0.000596,0.001801,-0.000729,0.02,-0.30,9.79
906945660,0.000469,0.001799,-0.000728,-0.01,-0.31,9.80
906946665,-0.000596,0.001797,0.000336,0.01,-0.28,9.83
906947674,-0.002724,0.001795,0.002465,0.02,-0.27,9.82
906948684,-0.003785,0.000729,0.003526,0.03,-0.28,9.79
906949694,-0.002717,0.001793,0.002458,0.05,-0.28,9.80
906950704,0.000478,0.001791,0.001392,0.04,-0.29,9.83
906951714,0.002606,0.000725,-0.000738,0.01,-0.30,9.80
906952724,0.002604,-0.001404,-0.000737,0.03,-0.30,9.83
906953734,0.001537,-0.002467,0.001392,0.03,-0.30,9.83
906954744,0.000471,-0.002465,0.002455,0.04,-0.28,9.75
906955760,-0.000594,-0.001398,0.002452,0.04,-0.28,9.81
906956764,0.000471,-0.002461,0.003514,0.04,-0.31,9.81
906957774,-0.000594,-0.002458,0.002446,0.06,-0.32,9.77
906958784,-0.000593,0.001801,0.000315,0.03,-0.29,9.77
906959794,-0.001657,0.002863,-0.000749,0.03,-0.29,9.81
906960804,-0.001655,-0.000332,-0.000748,0.03,-0.30,9.83
906961814,-0.000589,-0.003524,-0.000748,0.03,-0.33,9.79
906962824,-0.001653,-0.002457,-0.001811,0.06,-0.36,9.75
906963834,-0.003779,0.000738,-0.001809,0.05,-0.32,9.76
906964844,-0.001647,0.002866,0.000321,0.04,-0.26,9.74
906965860,-0.000581,0.001799,0.001385,0.02,-0.25,9.74
906966865,-0.000581,0.000733,0.000319,-0.01,-0.28,9.81
906967874,0.000484,-0.000332,-0.000745,-0.01,-0.31,9.81
906968884,0.001548,-0.001396,0.000320,0.03,-0.29,9.79
906969894,0.003675,-0.001394,0.001383,0.02,-0.31,9.81
906970904,0.003671,0.000735,0.000318,0.03,-0.31,9.85
906971914,0.002603,0.001799,-0.001811,0.05,-0.29,9.86
906972924,0.001536,0.001797,-0.001809,0.02,-0.29,9.81
906973934,0.000470,-0.000333,0.000321,0.03,-0.28,9.81
906974944,0.000470,-0.001397,0.002449,0.02,-0.30,9.85
906975960,-0.000595,-0.002460,0.001383,0.00,-0.32,9.80
906976964,-0.000594,-0.000329,0.000317,0.03,-0.30,9.78
906977974,0.000471,0.001800,0.000317,0.04,-0.29,9.84
906978984,0.000470,0.000734,0.000316,0.04,-0.30,9.84
906979994,-0.000594,-0.001395,-0.001812,0.01,-0.31,9.79
906981004,-0.000594,-0.000330,-0.001811,0.01,-0.31,9.81
906982014,-0.000593,-0.000329,-0.000744,0.03,-0.33,9.83
906983024,-0.001657,-0.001393,0.000320,0.02,-0.32,9.77
906984034,-0.003784,-0.003520,0.001384,0.05,-0.30,9.79
906985044,-0.004844,-0.002453,0.000319,0.07,-0.30,9.83
906986060,-0.003775,-0.001386,0.000318,0.09,-0.31,9.79
906987073,-0.002707,-0.002449,-0.000746,0.08,-0.32,9.81
906988074,-0.001640,-0.003510,-0.000745,0.04,-0.33,9.83
906989084,-0.000574,-0.003507,0.000320,0.05,-0.33,9.80
906990094,-0.000573,-0.002439,0.002448,0.05,-0.34,9.79
906991104,0.001556,-0.001372,0.000317,0.02,-0.34,9.80
906992114,0.002618,-0.001371,-0.001812,-0.01,-0.32,9.82
906993124,0.001551,-0.000305,-0.001810,0.00,-0.30,9.85
906994134,-0.000579,-0.000305,-0.000744,0.04,-0.28,9.83
906995144,0.000486,-0.001369,-0.000743,0.04,-0.30,9.82
906996160,0.000486,-0.001368,0.000322,0.04,-0.32,9.81
906997164,-0.002707,-0.002430,0.002450,0.06,-0.30,9.77
906998210,-0.002705,-0.003492,0.000319,0.04,-0.28,9.80
906999215,-0.000574,-0.002424,-0.002874,0.04,-0.29,9.82
907000231,0.001555,-0.000294,-0.000743,0.04,-0.30,9.81
907001204,0.002618,0.001835,0.001386,0.02,-0.33,9.83
907002214,0.002615,0.000769,0.002449,0.02,-0.33,9.78
907003224,0.002613,-0.001360,0.002447,0.00,-0.30,9.75
907004234,0.000482,-0.003487,0.002444,0.03,-0.34,9.81
907005244,-0.000583,-0.000291,0.000314,0.04,-0.34,9.85
907006260,-0.001647,0.000773,0.000313,0.04,-0.33,9.84
907007265,-0.000581,-0.001356,0.000313,0.05,-0.34,9.83
907008274,0.001548,-0.002419,-0.001816,0.05,-0.32,9.84
907009284,0.002611,-0.000288,-0.001814,0.04,-0.31,9.80
907010299,0.002608,0.002905,-0.001812,0.05,-0.29,9.80
907011310,0.001542,0.005031,-0.001810,0.07,-0.28,9.84
907012325,-0.000588,0.005026,0.000320,0.05,-0.33,9.84
907013361,-0.001652,0.001828,0.002448,0.04,-0.34,9.83
907014352,-0.002715,0.000762,0.000317,0.06,-0.33,9.83
907015378,-0.000583,0.001825,-0.000747,0.06,-0.30,9.81
907016378,0.001546,0.001823,-0.000747,0.02,-0.30,9.81
907017385,0.001544,-0.000307,-0.000746,0.01,-0.29,9.81
907018403,0.000478,-0.000307,-0.000745,0.03,-0.28,9.78
907019393,0.001542,0.001822,0.001384,0.02,-0.27,9.78
907020405,0.000476,0.003949,0.001383,0.00,-0.28,9.81
907021412,-0.001653,0.001816,0.000317,0.00,-0.32,9.78
907022422,-0.001651,0.000750,-0.000748,0.03,-0.29,9.79
907023448,-0.000585,0.001814,-0.001811,0.05,-0.27,9.80
907024452,-0.001649,0.005005,-0.001809,0.04,-0.28,9.90
907025489,-0.001647,0.002871,-0.002871,0.01,-0.27,9.91
907026511,0.000483,0.001804,-0.003933,0.03,-0.27,9.85
907027490,0.000483,0.001802,-0.002864,0.06,-0.27,9.81
907028521,0.001546,0.000736,0.000331,0.06,-0.30,9.84
907029535,0.003673,-0.001393,0.001395,0.06,-0.29,9.87
907030531,0.002605,-0.002456,0.002458,0.02,-0.30,9.83
907031534,0.001538,-0.001389,0.002455,0.00,-0.31,9.80
907032518,0.000473,0.001805,0.000324,0.02,-0.31,9.75
907033528,-0.001656,0.001803,0.000324,0.03,-0.32,9.77
907034537,-0.002719,0.000737,0.001388,0.05,-0.32,9.84
907035581,-0.001652,-0.000328,0.002451,0.02,-0.28,9.82
907036590,-0.000586,-0.000328,0.000320,0.04,-0.25,9.81
907037564,-0.001650,0.000737,-0.000745,0.05,-0.30,9.82
907038574,-0.001648,0.000736,0.001385,0.03,-0.32,9.82
907039584,-0.001646,-0.000329,0.001383,0.03,-0.30,9.82
907040594,-0.002709,-0.000328,0.000318,0.01,-0.32,9.82
907041604,-0.002706,-0.000328,-0.000747,0.01,-0.31,9.79
907042614,-0.001639,-0.000328,-0.001810,0.05,-0.29,9.83
907043624,-0.001638,-0.000327,-0.001809,0.04,-0.30,9.85
907044660,0.000492,0.001801,0.001386,0.00,-0.28,9.77
907045673,0.000492,0.001800,0.002449,0.01,-0.29,9.76
907046679,-0.000573,-0.000331,0.002446,0.02,-0.31,9.80
907047665,0.000492,0.000734,0.002444,0.02,-0.31,9.82
907048687,0.001556,0.002862,0.000313,0.01,-0.31,9.83
907049684,0.002618,-0.000334,-0.001816,0.05,-0.31,9.83
907050694,-0.000577,-0.002462,-0.002878,0.03,-0.32,9.82
907051704,-0.002705,-0.002460,-0.001811,0.01,-0.27,9.84
907052714,-0.002702,-0.000329,-0.000745,0.06,-0.24,9.84
907053724,-0.002699,0.004993,-0.000744,0.06,-0.27,9.79
907054734,-0.001632,0.003923,0.000320,0.08,-0.29,9.78
907055775,0.000498,0.000727,0.001384,0.06,-0.30,9.79
907056754,0.001561,-0.000338,0.002447,0.03,-0.31,9.80
907057764,0.000496,0.001791,0.002445,0.03,-0.33,9.84
907058774,-0.001633,0.001789,0.003506,0.04,-0.32,9.83
907059784,-0.002696,0.001787,0.003503,0.06,-0.31,9.84
907060794,-0.001629,0.001785,0.002435,0.06,-0.30,9.84
907061804,0.000501,-0.001409,0.000304,0.04,-0.30,9.79
907062814,0.000501,-0.003536,0.001368,0.04,-0.32,9.81
907063824,0.000500,-0.003532,0.001367,0.04,-0.33,9.83
907064834,0.001564,-0.001400,0.000301,0.02,-0.34,9.80
907065850,0.000498,-0.000335,-0.000763,0.01,-0.33,9.81
907066854,0.000498,0.000730,0.001366,0.03,-0.31,9.84
907067865,0.001561,-0.000335,0.002429,0.08,-0.32,9.81
907068874,0.002624,-0.001399,0.002426,0.07,-0.32,9.80
907069884,0.000493,-0.003526,0.002424,0.02,-0.29,9.78
907070894,-0.001636,-0.003523,0.001357,0.01,-0.26,9.76
907071904,-0.000570,-0.003519,-0.000773,0.02,-0.29,9.81
907072914,0.000495,-0.001387,0.001357,0.08,-0.31,9.83
907073924,0.000494,0.000743,0.001355,0.10,-0.29,9.81
907074934,0.000494,0.001806,-0.001839,0.03,-0.29,9.74
907075950,-0.000571,0.001804,-0.002901,-0.02,-0.29,9.77
907076954,-0.001635,0.001803,-0.001834,0.00,-0.28,9.84
907077964,-0.001633,0.001801,0.000296,0.01,-0.29,9.80
907078974,-0.000567,0.001799,-0.000768,0.00,-0.30,9.78
907079984,0.001562,0.001797,-0.000767,0.03,-0.31,9.79
907080994,0.002624,0.000731,0.001362,0.04,-0.33,9.81
907082004,0.001557,0.000730,0.002425,-0.02,-0.33,9.83
907083014,-0.000573,-0.000335,0.003486,-0.01,-0.30,9.85
907084024,-0.002700,0.000730,0.003483,0.03,-0.30,9.85
907085034,-0.002698,0.000729,0.002415,0.03,-0.29,9.78
907086050,-0.001631,0.000728,0.000284,0.05,-0.28,9.76
907087054,-0.000565,0.000728,-0.000780,0.06,-0.33,9.79
907088065,0.000500,0.001791,-0.000779,0.04,-0.34,9.82
907089074,0.000499,0.001789,0.000286,0.02,-0.31,9.82
907090084,-0.000565,0.002852,0.000285,0.02,-0.29,9.81
907091094,0.001564,0.001785,0.001349,0.03,-0.29,9.81
907092104,0.002626,0.000719,0.001348,0.04,-0.30,9.83
907093114,0.002624,-0.001410,0.000282,0.04,-0.30,9.86
907094124,0.001557,-0.000345,-0.000782,0.02,-0.29,9.86
907095134,0.001555,-0.001409,-0.001846,0.02,-0.32,9.82
907096202,0.001554,-0.002471,-0.001844,0.01,-0.31,9.78
907097154,0.001552,-0.002469,-0.000778,0.00,-0.28,9.85
907098164,0.000486,-0.001402,-0.000777,0.04,-0.29,9.90
907099174,-0.000578,-0.002465,0.000288,0.06,-0.30,9.86
907100184,-0.001642,-0.002462,0.000288,0.05,-0.30,9.85
907101194,-0.000576,-0.002460,0.000287,0.02,-0.29,9.80
907102204,0.002617,-0.001393,0.000287,0.03,-0.32,9.82
907103214,0.001550,-0.000328,-0.000777,0.05,-0.34,9.85
907104224,0.000484,0.001801,-0.000777,0.05,-0.32,9.81
907105234,-0.000580,0.001799,0.000288,0.05,-0.31,9.82
907106250,0.001549,0.001797,0.002417,0.06,-0.30,9.80
907107254,0.002611,0.000731,0.001350,0.03,-0.28,9.78
907108265,0.001544,0.000731,0.001349,0.03,-0.27,9.79
907109274,-0.000585,0.001794,0.002411,0.03,-0.29,9.84
907110301,-0.001649,0.002856,0.000281,0.00,-0.33,9.87
907111295,-0.000583,0.001789,-0.000784,-0.01,-0.32,9.85
907112308,0.000482,0.000723,-0.001847,0.02,-0.28,9.83
907113319,0.000481,-0.000342,-0.002910,0.02,-0.28,9.84
907114328,-0.001648,-0.000341,-0.000778,0.03,-0.28,9.80
907115340,-0.001646,-0.000341,0.002415,0.03,-0.28,9.79
907116359,-0.000580,-0.001405,0.001348,0.00,-0.29,9.86
907117358,-0.000580,-0.002467,0.000283,0.02,-0.31,9.88
907118373,-0.000579,-0.003529,0.000283,0.08,-0.32,9.85
907119379,-0.000578,-0.002461,0.001346,0.07,-0.30,9.84
907120397,-0.001642,0.000734,0.002409,0.03,-0.29,9.83
907121400,-0.000576,0.002861,0.001343,0.02,-0.29,9.82
907122411,0.001553,0.002858,0.002406,0.02,-0.31,9.81
907123421,0.000487,0.001791,0.001339,0.03,-0.31,9.79
907124433,0.001551,0.002854,0.000273,0.01,-0.30,9.81
907125443,0.001549,0.001787,0.000273,0.03,-0.32,9.81
907126458,-0.000581,0.001785,-0.001856,0.04,-0.32,9.80
907127466,-0.000580,0.001783,-0.003982,0.00,-0.30,9.79
907128471,0.001549,0.000717,-0.005042,0.02,-0.32,9.79
907129481,0.003676,0.000716,-0.001845,0.04,-0.29,9.81
907130500,0.003672,0.001780,0.001350,0.02,-0.27,9.79
907131494,0.002604,0.000714,0.002413,0.02,-0.29,9.75
907132508,0.003666,-0.000351,0.000282,0.04,-0.31,9.74
907133518,0.002598,-0.000351,-0.001847,0.07,-0.32,9.76
907134528,0.000467,-0.001415,-0.000781,0.03,-0.29,9.81
907135543,-0.000598,-0.001413,0.000284,-0.01,-0.28,9.88
907136546,-0.001662,-0.002476,0.000284,0.03,-0.30,9.87
907137553,-0.002724,-0.003538,0.000284,0.06,-0.31,9.83
907138564,-0.002721,-0.002470,-0.000781,0.07,-0.31,9.86
907139574,-0.002719,-0.000339,-0.000780,0.05,-0.31,9.83
907140593,-0.001652,0.000725,0.001349,0.05,-0.30,9.81
907141594,0.001543,0.000725,0.002412,0.06,-0.30,9.81
907142604,0.000477,0.001788,0.003474,0.06,-0.30,9.83
907143614,-0.000588,0.003915,0.002406,0.04,-0.30,9.79
907144624,0.000477,0.002847,0.001339,0.04,-0.28,9.77
907145640,0.002605,0.000715,0.000274,0.06,-0.26,9.83
907146644,0.003666,-0.001414,-0.000791,0.06,-0.27,9.83
907147654,0.003663,-0.001412,-0.001854,0.02,-0.30,9.82
907148665,0.002595,0.000718,-0.002916,0.00,-0.32,9.78
907149674,0.000464,0.002845,-0.001849,0.02,-0.35,9.77
907150693,-0.000601,0.001778,0.000281,0.02,-0.34,9.79
907151694,-0.000600,-0.001416,0.000281,0.04,-0.32,9.78
907152701,-0.000600,-0.002479,0.000280,0.05,-0.30,9.78
907153714,0.001529,-0.002477,0.001344,0.03,-0.31,9.78
907154724,0.002592,-0.000346,0.001343,0.03,-0.29,9.81
907155740,0.002589,-0.000345,0.003470,0.02,-0.24,9.80
907156744,0.001523,-0.000345,0.005595,0.01,-0.25,9.79
907157754,-0.000607,0.001784,0.002397,0.01,-0.27,9.81
907158764,-0.001671,0.000718,-0.002927,0.02,-0.30,9.88
907159774,-0.001669,0.001781,-0.002924,0.01,-0.30,9.86
907160793,-0.001668,0.002844,0.002400,0.00,-0.27,9.79
907161794,-0.002730,0.002841,0.002398,0.01,-0.28,9.80
907162804,-0.003792,0.002838,-0.000797,0.00,-0.32,9.85
907163814,-0.002724,0.001771,0.000268,-0.02,-0.33,9.84
907164824,-0.000592,0.000705,0.001332,0.00,-0.34,9.79
907165840,0.000472,-0.000360,0.001330,0.01,-0.34,9.82
907166844,0.001536,0.000705,-0.000799,0.05,-0.34,9.84
907167854,0.002599,0.000704,-0.002927,0.08,-0.33,9.85
907168863,0.001532,-0.000361,-0.000796,0.08,-0.28,9.83
907169874,-0.001662,0.000703,0.002398,0.03,-0.27,9.79
907170893,-0.003789,0.000703,0.004524,0.01,-0.30,9.78
907171894,-0.003785,0.000702,0.004519,0.04,-0.31,9.78
907172904,-0.001653,-0.001427,0.001322,0.03,-0.32,9.84
907173914,0.000477,-0.001426,-0.000808,-0.01,-0.32,9.80
907174924,-0.000587,0.001768,0.001321,0.01,-0.32,9.78
907175940,-0.000587,0.003895,0.002384,0.04,-0.30,9.81
907176944,-0.000586,0.003891,0.000253,0.05,-0.30,9.82
907177954,0.001543,0.001759,-0.000811,0.03,-0.31,9.84
907178964,0.001541,0.000693,-0.002939,0.02,-0.28,9.81
907179974,0.001540,-0.001436,-0.002936,0.03,-0.27,9.78
907180993,0.001538,-0.002499,-0.001868,0.05,-0.28,9.82
907181994,-0.000592,-0.000368,-0.000802,0.06,-0.29,9.84
907183004,-0.000591,0.002825,0.000263,0.04,-0.29,9.81
907184014,0.001538,0.002822,0.000262,0.04,-0.27,9.81
907185024,0.000472,0.000691,-0.000802,0.04,-0.26,9.81
907186040,-0.000593,-0.000374,0.001327,0.03,-0.30,9.78
907187044,-0.000592,0.002819,0.002390,0.04,-0.33,9.81
907188054,-0.001656,0.003880,0.001323,0.02,-0.34,9.83
907189065,-0.000590,0.002812,0.000258,0.04,-0.33,9.85
907190074,0.000475,0.001745,-0.000807,0.03,-0.34,9.90
907191093,0.002603,0.000679,-0.000806,0.01,-0.35,9.86
907192106,0.001536,-0.001450,0.000259,0.02,-0.31,9.80
907193102,-0.000594,-0.001449,0.002387,0.04,-0.29,9.82
907194114,-0.001658,-0.002511,0.003449,0.03,-0.30,9.89
907195124,-0.000592,-0.002509,0.002381,0.04,-0.30,9.88
907196140,0.000473,-0.001442,0.002379,0.04,-0.32,9.82
907197144,-0.000592,-0.000376,0.000248,0.01,-0.32,9.81
907198154,-0.000591,-0.000376,-0.002945,-0.01,-0.30,9.84
907199168,0.000474,-0.000376,-0.002942,-0.01,-0.31,9.87
907200174,0.001538,-0.000375,-0.000810,0.00,-0.31,9.83
907201193,0.002600,0.000689,0.002383,0.03,-0.31,9.80
907202194,0.001533,0.000689,0.002381,0.05,-0.30,9.80
907203204,0.000468,-0.000376,0.002378,0.04,-0.30,9.82
907204214,0.000467,0.000688,0.001312,0.01,-0.30,9.83
907205224,-0.000598,-0.000377,0.001310,0.00,-0.28,9.79
907206240,0.000467,0.000688,0.000245,0.02,-0.30,9.81
907207244,-0.000597,0.000687,0.000245,0.02,-0.28,9.85
907208254,-0.001661,-0.000378,0.000244,-0.01,-0.27,9.81
907209265,-0.002724,-0.000377,-0.000820,-0.01,-0.30,9.81
907210274,-0.001657,-0.001441,-0.000819,0.02,-0.29,9.84
907211297,-0.002719,-0.002504,0.000246,0.07,-0.28,9.84
907212295,-0.002716,-0.000373,-0.000819,0.07,-0.30,9.85
907213308,-0.000585,0.001756,-0.001882,0.05,-0.31,9.84
907214317,0.000480,0.000690,-0.000816,0.05,-0.29,9.84
907215328,0.000479,-0.000375,0.001313,0.06,-0.31,9.88
907216348,-0.001650,-0.002503,0.000248,0.05,-0.29,9.82
907217348,-0.003776,-0.002500,-0.001881,0.04,-0.27,9.79
907218359,-0.002709,-0.001434,-0.001879,0.02,-0.29,9.83
907219373,-0.000577,0.000696,-0.000813,0.04,-0.28,9.84
907220381,0.002616,0.000695,0.001316,0.05,-0.28,9.87
907221397,0.001549,0.000695,0.002379,0.04,-0.31,9.85
907222400,0.000483,0.000694,0.000248,0.05,-0.35,9.81
907223410,0.000483,0.000693,-0.000816,0.03,-0.32,9.84
907224420,-0.000582,0.001757,-0.001879,0.03,-0.26,9.82
907225433,-0.000581,0.000691,-0.004006,0.04,-0.30,9.80
907226448,-0.001645,-0.000374,-0.004002,0.03,-0.31,9.84
907227452,-0.001643,-0.000374,-0.003998,0.02,-0.33,9.82
907228466,0.000487,0.000691,-0.000801,0.04,-0.29,9.82
907229470,0.002615,0.000690,0.003456,0.06,-0.30,9.83
907230483,0.002612,0.000690,0.002389,0.08,-0.29,9.84
907231497,0.000481,0.000689,0.000258,0.07,-0.28,9.82
907232494,0.000480,-0.000376,-0.000806,0.03,-0.31,9.79
907233508,-0.000584,0.000689,0.001323,0.03,-0.31,9.79
907234518,-0.000584,0.000688,0.001321,0.01,-0.31,9.80
907235533,-0.001647,-0.000377,0.002384,0.00,-0.33,9.78
907236537,-0.000581,0.000688,0.002382,0.07,-0.31,9.79
907237546,0.002612,0.001751,0.001315,0.06,-0.32,9.82
907238553,0.003673,0.002814,-0.000814,0.01,-0.33,9.82
907239564,0.002606,0.002811,-0.002942,0.03,-0.29,9.83
907240574,0.000474,0.002808,-0.002939,0.06,-0.30,9.78
907241593,-0.000590,0.001741,-0.000808,0.04,-0.30,9.76
907242594,-0.000590,0.000675,0.001321,0.04,-0.28,9.78
907243604,-0.000589,-0.001454,0.003449,0.06,-0.29,9.80
907244614,-0.000588,-0.001453,0.002381,0.04,-0.33,9.81
907245630,-0.001652,-0.000387,-0.001878,0.03,-0.36,9.81
907246634,-0.001650,-0.001451,-0.004005,0.01,-0.33,9.86
907247644,-0.000584,-0.002514,-0.004001,-0.01,-0.31,9.80
907248674,-0.001648,-0.000383,-0.000804,-0.01,-0.33,9.82
907249692,-0.001646,0.001746,0.002389,0.02,-0.33,9.90
907250691,-0.000581,0.002808,0.001323,0.02,-0.33,9.85
907251693,-0.000580,0.000677,-0.001871,0.03,-0.31,9.80
907252694,-0.000579,-0.000388,-0.002934,0.05,-0.30,9.75
907253701,0.001550,0.000677,-0.000802,0.05,-0.32,9.80
907254712,0.001548,-0.000388,-0.000802,0.04,-0.31,9.80
907255727,0.000482,-0.001452,-0.000801,0.03,-0.29,9.81
907256734,0.001546,-0.003579,0.000264,0.00,-0.29,9.86
907257744,0.001544,-0.001447,0.000264,0.01,-0.30,9.78
907258754,0.000479,0.002812,-0.001865,0.03,-0.31,9.74
907259764,0.001542,0.004937,-0.001863,0.02,-0.30,9.78
907260774,0.001541,0.002804,-0.001861,0.02,-0.31,9.78
907261793,0.000475,-0.001456,-0.002923,0.06,-0.31,9.82
907262794,-0.000590,-0.003583,-0.002920,0.06,-0.31,9.86
907263804,0.000475,-0.001451,-0.001853,0.06,-0.31,9.80
907264858,0.001539,0.000679,-0.000787,0.09,-0.31,9.75
907265840,0.001537,0.002807,0.000278,0.06,-0.30,9.79
907266834,0.001536,-0.000389,0.000278,0.06,-0.29,9.82
907267844,0.000470,-0.003581,0.000277,0.01,-0.29,9.83
907268854,-0.002723,-0.004642,0.000277,-0.03,-0.33,9.84
907269895,-0.003784,-0.003573,0.000277,0.01,-0.33,9.88
907270874,-0.001652,-0.001441,0.000277,0.04,-0.31,9.87
907271884,0.000478,0.002818,0.001341,0.01,-0.30,9.87
907272925,0.001542,0.002815,0.002403,0.01,-0.30,9.84
907273935,0.002604,0.000684,0.001337,0.03,-0.30,9.80
907274949,0.002602,0.000683,0.002400,0.04,-0.27,9.82
907275934,0.001535,-0.000382,0.002397,0.03,-0.27,9.84
907276973,0.000469,-0.002510,0.001331,-0.01,-0.30,9.85
907277951,0.000468,-0.001443,0.001329,-0.01,-0.31,9.81
907278961,-0.001660,0.001751,0.001328,0.03,-0.33,9.80
907279969,-0.002723,0.003877,0.001327,0.05,-0.32,9.80
907281018,-0.000592,0.003874,0.001325,0.06,-0.28,9.78
907282003,0.001537,0.001741,0.000260,0.06,-0.27,9.81
907283038,0.001536,-0.001453,-0.000805,0.07,-0.28,9.85
907284027,0.000470,-0.003580,-0.000804,0.06,-0.30,9.84
907285046,-0.000595,-0.001448,0.000261,0.05,-0.30,9.83
907286060,-0.001658,0.000682,0.000261,0.04,-0.28,9.80
907287050,-0.000593,0.000681,0.000260,0.03,-0.30,9.78
907288044,0.001536,0.000680,0.001324,0.05,-0.32,9.84
907289054,0.001535,0.000680,0.002387,0.06,-0.34,9.82
907290065,0.001533,0.002807,0.003449,0.04,-0.33,9.79
907291074,0.000468,0.001740,0.004510,0.03,-0.30,9.80
907292084,0.000467,-0.000390,0.002377,0.07,-0.31,9.78
907293094,0.001531,-0.002518,0.001310,0.06,-0.32,9.82
907294104,0.001529,-0.001451,0.002373,0.02,-0.32,9.87
907295114,0.001528,0.001743,0.001307,0.00,-0.33,9.87
907296161,0.000462,0.000677,0.000241,0.00,-0.34,9.84
907297134,-0.000603,-0.000388,-0.001888,0.02,-0.35,9.82
907298144,-0.001666,-0.000387,-0.001886,0.05,-0.36,9.83
907299234,-0.001665,-0.000387,-0.001884,0.04,-0.34,9.84
907300129,-0.000599,-0.001452,-0.000818,0.01,-0.31,9.82
907301153,0.002597,0.004939,0.004508,-0.01,-0.35,9.83
907302155,0.003662,0.024114,0.017291,-0.01,-0.35,9.85
907303172,0.001531,0.021984,0.009834,0.04,-0.43,9.85
907304184,0.000466,0.010266,-0.007210,-0.02,-0.47,9.76
907305195,0.001531,0.003874,-0.022124,-0.18,-0.47,9.67
907306193,0.001531,0.000678,-0.034907,0.13,-0.64,9.85
907307202,-0.004860,-0.002518,-0.043430,0.38,-0.23,9.94
907308205,-0.008056,-0.002518,-0.045560,0.35,0.17,9.77
907309215,-0.010187,-0.001452,-0.030646,0.01,0.24,9.89
907310225,0.002597,-0.003583,-0.011471,-0.54,0.04,9.97
907311236,0.014315,-0.007844,-0.004014,-0.55,-0.81,9.90
907312259,0.013249,-0.012105,-0.016798,0.17,-1.07,9.76
907313255,0.002597,-0.011040,-0.031712,0.71,0.24,9.65
907314265,-0.013383,0.007070,-0.015732,0.06,0.43,9.77
907315275,-0.015513,0.018788,0.016226,-0.96,-1.58,9.94
907316300,0.020706,-0.003583,0.017291,-0.32,-1.72,9.73
907317305,0.053730,-0.033411,-0.006145,1.34,1.65,9.47
907318308,0.010054,-0.018497,0.006638,0.17,0.71,9.91
907319322,-0.055994,0.020919,0.033270,-1.60,-3.63,9.86
907320329,0.001531,0.014527,0.007704,0.47,1.18,10.00
907321342,0.062252,-0.012105,-0.000818,1.34,1.69,10.80
907322351,-0.031492,-0.021693,0.024748,-1.33,-4.40,9.52
907323364,-0.036819,-0.014236,0.001312,-0.21,2.48,8.76
907324373,0.032424,0.008135,-0.002949,1.21,0.38,10.57
907325385,-0.029362,-0.002518,0.011965,-1.18,-3.64,8.93
907326399,0.050534,0.000678,-0.005080,0.45,-2.18,11.13
907327407,-0.035754,-0.055782,-0.010406,-0.35,-0.14,8.42
907328410,0.022837,0.006005,-0.000818,0.50,0.08,10.69
907329419,0.014315,0.034767,0.005573,-0.08,0.11,9.90
907330434,-0.015513,0.004939,0.004508,0.08,-0.93,9.68
907331443,-0.002730,0.027310,0.004508,-0.30,0.45,9.66
907332449,0.010054,-0.019562,0.013030,0.62,-0.46,9.46
907333459,0.011119,0.002809,0.010900,-0.16,-0.08,10.45
907334468,0.015380,-0.009975,-0.000818,0.62,-0.44,9.24
907335475,-0.004860,0.015592,-0.004014,0.01,0.36,10.12
907336497,-0.002730,-0.001452,-0.005080,0.06,-1.06,10.14
907337506,-0.006991,-0.004648,-0.005080,0.93,-0.42,9.02
907338508,0.000466,-0.009975,-0.004014,-1.02,1.15,12.02
907339515,-0.041080,-0.017432,-0.006145,1.51,-1.96,6.71
907340525,-0.009122,0.010266,0.009834,-0.87,1.48,10.56
907341536,0.018576,0.037963,0.011965,0.46,-3.07,8.29
907342545,0.018576,0.009200,0.011965,0.14,2.74,10.71
907343555,-0.012317,-0.025954,0.010900,-0.61,-2.83,12.58
907344565,-0.018709,-0.047259,-0.007210,1.83,-0.18,6.41
907345575,0.002597,-0.036607,-0.015732,-1.20,1.73,13.42
907346592,0.005792,-0.005713,-0.016798,0.64,-4.18,6.82
907347602,-0.016578,0.004939,-0.004014,0.08,3.40,10.83
907348605,-0.037884,-0.000387,0.008769,-0.80,-1.62,12.56
907349615,-0.029362,-0.006779,0.002377,1.18,-2.89,5.57
907350625,0.001531,-0.015301,0.001312,-0.94,4.56,11.64
907351636,0.013249,-0.001452,0.001312,-0.62,-2.96,11.22
907352645,0.005792,0.011331,-0.002949,1.17,-1.83,6.32
907353655,-0.030427,0.006005,0.003443,-0.92,4.54,12.78
907354665,-0.043210,0.004939,0.014095,-0.65,-3.09,11.47
907355675,-0.006991,-0.000387,0.017291,1.30,-2.70,6.33
907356692,0.013249,-0.021693,0.010900,-0.55,5.03,12.01
907357702,0.000466,-0.021693,0.006638,-1.13,-1.20,12.41
907358705,-0.008056,-0.006779,0.003443,1.00,-4.68,5.64
907359715,0.007923,-0.007844,0.010900,0.42,3.19,8.92
907360725,0.031359,-0.003583,0.022618,-1.35,2.78,12.89
907361736,0.038816,0.006005,0.024748,-0.11,-4.98,7.44
907362745,0.013249,0.001744,0.020487,1.87,-2.14,6.21
907363755,-0.008056,0.009200,0.021552,-0.59,5.61,13.50
907364765,-0.002730,0.011331,0.018357,-1.43,-0.17,13.59
907365781,0.006858,0.011331,0.019422,1.28,-6.21,7.19
907366793,0.001531,0.014527,0.018357,1.48,0.65,7.76
907367795,0.015380,-0.008909,0.014095,-1.13,5.87,12.47
907368805,0.014315,-0.005713,0.018357,-1.06,-1.85,11.31
907369815,-0.001665,0.020919,0.021552,1.41,-6.26,6.62
907370825,-0.004860,0.026245,0.027944,1.45,0.69,7.03
907371836,-0.006991,0.013462,0.024748,-1.06,6.00,13.06
907372845,-0.017644,0.016657,0.021552,-1.36,0.09,12.75
907373855,-0.011252,0.023049,0.036466,1.04,-7.07,7.19
907374865,0.010054,0.024114,0.053511,1.79,-1.96,6.23
907375881,0.015380,0.028376,0.058837,-0.04,5.58,11.66
907376893,-0.000599,0.015592,0.036466,-1.97,4.16,14.29
907377895,-0.004860,-0.013170,0.011965,-0.18,-5.37,9.70
907378905,0.001531,-0.005713,0.018357,1.59,-6.27,5.87
907379915,0.007923,0.002809,0.038597,1.35,1.84,7.02
907380925,0.005792,0.004939,0.050315,-0.67,5.99,12.62
907381936,0.005792,0.006005,0.053511,-1.80,2.48,13.88
907382945,0.011119,-0.001452,0.041793,0.10,-5.98,9.26
907383955,0.014315,-0.002518,0.034336,1.46,-5.68,5.82
907384965,-0.001665,0.002809,0.037532,1.45,1.20,6.68
907385981,-0.002730,-0.013170,0.024748,-0.19,4.96,12.06
907387030,-0.000599,-0.017432,0.020487,-1.82,4.17,14.95
907387995,-0.002730,-0.014236,0.020487,-0.68,-2.71,11.57
907389005,0.000466,-0.019562,0.023683,1.01,-7.04,6.54
907390015,0.006858,-0.021693,0.034336,1.43,-2.51,5.12
907391025,0.012184,-0.018497,0.054576,1.03,3.10,8.25
907392036,0.006858,0.000678,0.074816,-0.69,5.67,13.78
907393045,-0.002730,0.007070,0.076947,-1.72,3.33,14.94
907394055,0.002597,-0.004648,0.070555,-0.37,-3.92,10.55
907395065,0.018576,-0.008909,0.068425,0.86,-6.61,6.21
907396081,0.024967,-0.003583,0.071621,1.25,-2.26,4.97
907397093,0.028163,-0.003583,0.076947,1.39,2.03,7.46
907398095,0.021772,-0.005713,0.079078,0.11,4.51,12.94
907399105,0.020706,-0.008909,0.076947,-1.51,4.77,15.67
907400115,0.023902,-0.016366,0.074816,-1.12,-0.02,12.39
907401125,0.015380,-0.013170,0.083339,0.21,-5.78,8.09
907402136,0.001531,-0.007844,0.085469,0.91,-5.44,5.40
907403154,-0.001665,-0.000387,0.089730,1.26,-0.92,5.42
907404155,0.005792,-0.001452,0.091861,1.43,2.32,8.44
907405165,0.003662,-0.005713,0.081208,0.43,4.14,13.43
907406181,-0.002730,0.001744,0.080143,-1.38,4.62,15.89
907407193,0.002597,0.004939,0.097187,-1.34,0.95,12.63
907408195,0.016445,0.010266,0.114232,-0.14,-4.51,8.76
907409205,0.024967,0.006005,0.119558,0.67,-5.91,6.37
907410215,0.027098,-0.005713,0.122754,1.11,-2.92,5.46
907411225,0.020706,-0.003583,0.128080,1.28,0.55,6.47
907412236,0.004727,0.010266,0.130211,1.21,2.68,9.83
907413245,-0.011252,0.017723,0.123819,0.04,4.10,14.43
907414255,-0.005926,-0.003583,0.105710,-1.30,4.21,15.59
907415265,-0.000599,-0.022758,0.101448,-1.41,0.95,12.40
907416281,0.000466,-0.007844,0.120624,-0.43,-3.70,8.77
907417297,-0.004860,-0.005713,0.121689,0.28,-5.40,6.84
907418302,0.018576,-0.011040,0.125950,0.53,-3.53,5.58
907419309,-0.019774,0.004939,0.136603,1.01,-0.75,5.94
907420320,0.018576,-0.019562,0.127015,1.39,1.14,7.79
907421329,0.032424,-0.007844,0.136603,1.00,2.75,11.70
907422341,-0.038949,0.033702,0.166431,-0.31,4.08,15.38
907423353,-0.045341,0.004939,0.160039,-1.24,3.50,15.09
907424365,0.036686,-0.053651,0.121689,-1.42,0.79,12.11
907425373,0.092080,-0.063239,0.101448,-0.78,-2.69,8.86
907426389,-0.002730,0.055008,0.166431,0.30,-4.21,6.11
907427399,-0.054929,0.096554,0.202650,0.83,-2.25,5.94
907428400,-0.074104,0.105076,0.219695,1.22,0.07,6.84
907429410,-0.068777,0.092292,0.215433,1.56,1.47,8.93
907430420,-0.054929,0.072052,0.203715,1.21,2.66,12.68
907431427,-0.028297,0.044355,0.183475,-0.24,3.83,15.62
907432443,0.016445,0.004939,0.155778,-1.26,3.44,14.83
907433449,0.050534,-0.047259,0.133407,-1.33,1.16,11.33
907434459,0.044143,-0.067500,0.138733,-0.89,-2.13,8.28
907435468,-0.002730,-0.027019,0.177083,-0.22,-4.47,7.48
907436485,-0.020840,0.028376,0.201585,0.08,-4.22,7.51
907437498,0.000466,0.009200,0.185606,0.52,-2.51,6.45
907438499,0.014315,-0.018497,0.177083,1.16,-1.10,6.71
907439508,0.000466,0.003874,0.193063,1.81,0.21,7.49
907440515,0.010054,-0.002518,0.189867,1.81,1.38,10.02
907441538,-0.008056,-0.002518,0.195193,1.25,2.52,12.67
907442552,-0.005926,0.002809,0.201585,-0.15,3.50,15.23
907443562,-0.013383,0.001744,0.203715,-1.37,3.51,15.16
907444555,-0.002730,-0.012105,0.203715,-1.49,1.92,11.41
907445565,0.001531,-0.018497,0.200520,-1.42,-0.73,8.53
907446581,-0.001665,-0.018497,0.206911,-0.93,-3.23,7.52
907447593,0.001531,-0.007844,0.209042,-0.51,-3.83,8.48
907448595,-0.018709,0.004939,0.219695,0.13,-3.17,7.14
907449605,-0.001665,-0.000387,0.221825,0.71,-2.38,7.30
907450615,0.000466,-0.004648,0.215433,1.27,-0.45,7.50
907451625,-0.003795,0.007070,0.223956,1.76,0.07,8.01
907452636,-0.011252,0.008135,0.234609,2.29,0.64,8.89
907453645,-0.014448,0.006005,0.238870,1.50,2.06,11.94
907454655,-0.018709,0.023049,0.241000,-0.03,3.28,15.44
907455674,-0.010187,0.000678,0.238870,-0.69,3.44,14.52
907456691,0.023902,-0.011040,0.233543,-1.89,2.67,12.60
907457719,0.021772,-0.019562,0.229282,-1.66,1.05,8.95
907458702,-0.022970,-0.008909,0.238870,-1.07,-1.80,7.61
907459710,-0.024035,0.027310,0.260175,-1.16,-3.31,7.88
907460718,0.005792,0.030506,0.275089,-0.27,-3.14,9.00
907461731,0.003662,-0.011040,0.268698,0.24,-2.75,8.88
907462742,-0.013383,-0.041933,0.249522,0.57,-1.98,7.94
907463748,-0.028297,-0.028084,0.242066,1.46,-1.01,7.76
907464760,-0.027231,0.010266,0.252718,1.97,-0.60,7.75
907465785,-0.027231,0.037963,0.277220,2.20,0.27,7.95
907466807,-0.019774,0.039028,0.290003,1.57,1.59,10.69
907467795,-0.009122,0.020919,0.283611,0.37,2.63,13.58
907468807,-0.006991,-0.006779,0.268698,-0.29,3.01,14.50
907469814,0.005792,-0.008909,0.256979,-1.05,2.46,13.07
907470829,0.012184,0.012396,0.253784,-1.83,1.93,10.98
907471825,-0.012317,0.017723,0.260175,-1.47,-0.10,9.66
907472836,-0.040015,0.009200,0.264436,-1.41,-1.93,8.70
907473845,-0.036819,0.000678,0.268698,-1.56,-2.14,8.07
907474855,-0.035754,-0.028084,0.274024,-0.75,-2.61,7.28
907475871,-0.047472,-0.042998,0.280416,-0.37,-2.19,6.51
907476882,-0.024035,-0.014236,0.294264,0.03,-1.77,7.01
907477886,-0.002730,0.017723,0.311309,0.81,-0.89,7.96
907478895,0.001531,0.018788,0.315570,1.23,-0.15,7.57
907479905,0.027098,0.007070,0.315570,1.19,0.30,9.08
907480932,0.044143,-0.014236,0.318766,0.96,1.73,11.29
907481940,0.024967,-0.038737,0.323027,0.59,2.58,13.08
907482941,0.019641,-0.046194,0.328353,-0.72,2.97,14.22
907483964,0.035620,-0.036607,0.332614,-2.09,3.88,14.12
907484969,0.028163,-0.028084,0.333680,-1.89,2.38,11.91
907485971,0.014315,-0.022758,0.331549,-1.89,0.86,9.30
907487000,0.026033,-0.022758,0.330484,-2.22,0.17,7.61
907487996,0.016445,-0.025954,0.331549,-1.44,-2.23,8.44
907488995,-0.011252,-0.016366,0.335810,-0.82,-2.87,8.70
907490005,-0.006991,0.010266,0.346463,-0.42,-2.52,9.67
907491015,-0.025101,0.013462,0.360312,0.56,-2.62,10.06
907492025,-0.033623,0.002809,0.367769,0.60,-0.95,7.74
907493036,0.000466,0.017723,0.370965,0.60,-0.53,8.57
907494045,-0.017644,0.001744,0.369899,1.84,-0.91,7.50
907495055,-0.033623,-0.018497,0.367769,1.67,0.27,7.13
907496092,0.022837,0.016657,0.369899,0.51,1.23,12.40
907497082,0.005792,0.014527,0.379487,0.83,2.81,13.03
907498086,-0.059190,0.003874,0.386944,-0.19,1.99,11.50
907499103,-0.009122,0.043289,0.383748,-2.27,2.78,12.59
907500105,0.006858,0.018788,0.368834,-1.51,3.07,13.00
907501115,-0.043210,-0.030215,0.350724,-1.31,-0.60,10.71
907502125,-0.011252,-0.008909,0.347528,-2.62,0.17,8.27
907503136,0.016445,-0.003583,0.353920,-1.36,-0.21,9.00
907504145,-0.028297,-0.025954,0.370965,-0.36,-4.00,7.95
907505155,0.006858,-0.007844,0.385878,-1.16,-3.14,7.41
907506191,0.052665,-0.004648,0.389074,0.07,-1.64,9.98
907507182,0.008988,-0.042998,0.378421,1.09,-2.47,9.23
907508186,0.001531,-0.042998,0.365638,0.41,-1.05,6.52
907509195,0.049469,-0.019562,0.357116,1.10,-0.10,7.33
907510205,0.020706,-0.032345,0.360312,2.04,-0.20,7.46
907511215,-0.003795,-0.030215,0.374160,1.34,0.06,7.90
907512225,0.037751,0.004939,0.384813,0.50,1.46,13.16
907513236,0.024967,-0.009975,0.385878,0.47,2.97,15.46
907514245,-0.015513,-0.032345,0.380552,-0.33,1.66,12.70
907515255,0.030294,-0.001452,0.374160,-2.01,2.80,12.10
907516271,0.030294,0.001744,0.369899,-1.68,2.72,12.64
907517282,-0.040015,-0.021693,0.372030,-0.88,-1.27,10.20
907518289,-0.003795,0.011331,0.378421,-2.08,-0.49,8.54
907519301,0.029229,0.016657,0.379487,-1.17,-0.15,9.51
907520309,-0.041080,-0.027019,0.372030,0.43,-4.06,7.79
907521320,-0.028297,-0.000387,0.366703,-0.81,-3.36,7.12
907522329,0.017511,0.031571,0.361377,0.22,-1.61,10.45
907523341,-0.054929,-0.003583,0.362442,1.81,-2.33,9.38
907524354,-0.053863,0.015592,0.372030,0.45,-1.26,7.26
907525365,0.014315,0.057138,0.375226,0.96,-0.37,8.11
907526379,-0.057059,-0.019562,0.353920,1.35,-0.53,7.86
907527390,0.011119,0.020919,0.351789,0.22,1.27,12.67
907528393,-0.003795,-0.004648,0.354985,0.80,3.40,14.37
907529400,-0.036819,-0.019562,0.364573,-0.32,1.17,11.84
907530413,0.031359,0.023049,0.368834,-2.45,3.07,11.22
907531420,0.026033,-0.002518,0.354985,-1.49,2.98,12.26
907532450,-0.036819,-0.056847,0.343267,-0.86,-1.45,9.72
907533444,0.021772,-0.015301,0.350724,-2.48,0.14,7.99
907534449,0.062252,-0.005713,0.354985,-1.30,0.20,9.84
907535459,0.000466,-0.051521,0.349659,0.19,-3.94,8.30
907536471,0.015380,-0.031280,0.349659,-0.98,-3.23,7.51
907537486,0.054795,-0.004648,0.353920,0.05,-1.71,11.09
907538491,-0.018709,-0.039802,0.368834,1.56,-2.46,9.95
907539499,-0.012317,-0.029150,0.381617,0.35,-1.49,7.23
907540508,0.065448,0.009200,0.368834,0.82,-0.45,7.59
907541515,0.023902,-0.034476,0.346463,2.43,-0.10,7.12
907542525,-0.019774,-0.049390,0.346463,1.61,-0.63,7.56
907543536,0.033490,0.008135,0.362442,0.45,0.87,12.24
907544545,0.007923,0.001744,0.373095,1.17,2.93,14.66
907545555,-0.052798,-0.023823,0.373095,0.34,1.13,11.90
907546571,0.001531,0.021984,0.370965,-2.13,2.71,12.10
907547582,0.012184,0.018788,0.364573,-1.34,3.47,13.81
907548586,-0.052798,-0.021693,0.362442,-0.68,-0.69,11.06
907549595,-0.014448,0.013462,0.366703,-2.48,0.10,8.39
907550605,0.014315,0.023049,0.364573,-1.38,0.86,9.38
907551615,-0.059190,-0.005713,0.369899,0.12,-3.29,8.08
907552625,-0.043210,0.028376,0.382683,-1.28,-3.20,7.32
907553636,0.011119,0.043289,0.374160,-0.13,-1.64,10.63
907554645,-0.042145,-0.027019,0.350724,1.52,-2.73,9.57
907555655,-0.034688,-0.032345,0.350724,0.10,-1.97,6.93
907556671,0.040947,0.013462,0.364573,0.77,-1.15,7.63
907557682,0.004727,-0.019562,0.366703,2.50,-0.54,6.76
907558686,-0.022970,-0.025954,0.367769,1.35,-0.93,7.19
907559695,0.044143,0.018788,0.366703,0.50,0.26,11.48
907560705,0.018576,-0.018497,0.364573,1.68,2.62,12.10
907561715,-0.031492,-0.041933,0.367769,0.48,0.76,10.25
907562725,0.033490,0.008135,0.365638,-1.89,2.37,12.40
907563736,0.034555,-0.018497,0.353920,-1.04,3.61,14.96
907564745,-0.031492,-0.057912,0.356051,-0.83,-0.08,12.09
907565761,0.012184,-0.009975,0.367769,-2.53,1.15,8.53
907566772,0.036686,0.002809,0.365638,-1.59,1.42,9.25
907567775,-0.024035,-0.038737,0.359246,-0.28,-3.22,8.35
907568786,0.006858,-0.011040,0.367769,-1.30,-2.86,7.99
907569795,0.051599,0.014527,0.368834,-0.24,-1.38,11.44
907570805,-0.014448,-0.046194,0.348594,1.26,-3.04,10.25
907571815,-0.016578,-0.047259,0.342202,-0.01,-2.43,7.03
907572825,0.045208,0.003874,0.354985,0.80,-1.18,7.68
907573836,0.005792,-0.002518,0.368834,2.37,-1.23,8.20
907574845,-0.029362,0.004939,0.376291,1.30,-1.15,7.17
907575861,0.007923,0.032637,0.370965,1.10,0.10,9.56
907576872,-0.032558,-0.000387,0.362442,2.28,1.34,10.34
907577875,-0.064516,-0.023823,0.359246,1.10,0.22,9.31
907578886,0.018576,0.023049,0.357116,-1.15,1.99,13.64
907579895,0.018576,0.008135,0.354985,-0.48,3.77,16.03
907580905,-0.066647,-0.011040,0.367769,-0.48,0.75,12.72
907581915,-0.028297,0.039028,0.379487,-2.69,1.92,9.23
907582925,0.010054,0.024114,0.363508,-1.81,2.16,9.60
907583936,-0.040015,-0.049390,0.339006,-0.38,-2.43,8.29
907584945,0.007923,-0.011040,0.343267,-1.93,-2.06,7.91
907585961,0.052665,0.019853,0.351789,-0.73,-0.93,10.73
907586972,-0.026166,-0.033411,0.345398,1.06,-3.34,9.17
907587975,-0.017644,-0.017432,0.349659,-0.45,-2.86,7.18
907588986,0.045208,0.023049,0.356051,0.54,-1.70,8.72
907589995,-0.004860,-0.016366,0.356051,2.08,-1.60,8.65
907591005,-0.019774,-0.021693,0.353920,1.00,-1.27,7.19
907592015,0.036686,0.013462,0.346463,1.20,-0.53,8.63
907593025,-0.005926,-0.022758,0.343267,2.43,0.83,8.50
907594036,-0.037884,-0.036607,0.351789,1.30,-0.21,8.55
907595045,0.042012,0.017723,0.353920,-0.58,1.50,13.90
907596061,0.024967,-0.007844,0.344333,0.09,3.54,16.08
907597072,-0.036819,-0.052586,0.341137,-0.16,0.83,12.28
907598075,0.028163,0.003874,0.350724,-2.64,2.65,9.78
907599086,0.044143,0.006005,0.343267,-1.94,2.73,10.97
907600095,-0.035754,-0.057912,0.319831,-0.37,-2.26,9.49
907601105,0.012184,-0.011040,0.320896,-2.03,-1.05,8.26
907602115,0.052665,0.026245,0.336876,-1.19,-0.16,10.72
907603125,-0.045341,-0.020627,0.343267,0.90,-3.82,8.99
907604136,-0.036819,0.009200,0.345398,-0.54,-3.25,7.56
907605145,0.020706,0.043289,0.339006,0.17,-1.82,10.30
907606161,-0.046406,-0.016366,0.332614,1.95,-2.17,8.84
907607172,-0.042145,-0.007844,0.337941,0.77,-1.57,7.18
907608192,0.032424,0.036898,0.330484,1.00,-0.74,7.70
907609186,-0.024035,-0.011040,0.318766,2.64,0.33,7.12
907610195,-0.054929,-0.017432,0.331549,1.60,-0.72,7.95
907611205,0.024967,0.040094,0.347528,-0.23,1.04,12.46
907612215,0.014315,0.002809,0.331549,0.55,3.27,14.86
907613225,-0.026166,-0.047259,0.303852,-0.11,0.92,12.49
907614236,0.021772,-0.004648,0.300656,-2.36,2.61,11.34
907615245,0.014315,-0.006779,0.311309,-1.61,2.55,12.05
907616261,-0.026166,-0.029150,0.321962,-0.85,-1.37,10.18
907617272,0.037751,0.013462,0.321962,-2.10,-0.25,7.75
907618275,0.046273,0.031571,0.305982,-1.49,-0.09,9.25
907619289,-0.045341,-0.008909,0.295330,0.22,-3.53,8.33
907620301,-0.035754,-0.002518,0.302787,-0.61,-3.33,7.78
907621309,0.030294,0.001744,0.298525,0.04,-2.19,11.19
907622320,-0.006991,-0.065369,0.277220,1.85,-2.61,9.66
907623329,-0.002730,-0.051521,0.277220,0.72,-1.61,6.86
907624341,0.056926,0.026245,0.290003,0.91,-0.98,7.77
907625353,0.006858,0.004939,0.297460,2.62,-0.25,7.16
907626369,-0.028297,-0.023823,0.298525,1.57,-0.76,7.87
907627382,0.032424,-0.005713,0.288938,0.28,0.76,12.28
907628386,-0.042145,-0.047259,0.283611,0.34,0.88,11.39
907629393,0.014315,0.042224,0.294264,-2.23,2.79,11.95
907630406,0.010054,0.049681,0.294264,-1.53,3.19,14.05
907631409,-0.058124,-0.017432,0.287873,-0.76,-0.97,11.62
907632420,-0.009122,-0.002518,0.290003,-2.48,0.47,8.48
907633427,0.016445,0.002809,0.290003,-1.31,0.29,9.46
907634443,-0.034688,-0.032345,0.281481,0.45,-3.80,7.85
907635449,0.013249,0.013462,0.278285,-1.11,-2.89,7.37
907636465,0.053730,0.050746,0.276155,-0.17,-1.73,11.25
907637472,-0.050667,-0.004648,0.286807,1.86,-3.07,9.21
907638475,-0.053863,-0.004648,0.301721,0.28,-1.85,6.71
907639491,0.022837,0.029441,0.299591,0.66,-0.97,7.39
907640499,-0.018709,-0.038737,0.269763,2.78,-0.70,6.14
907641508,-0.019774,-0.046194,0.254849,1.60,-1.03,7.67
907642515,0.065448,0.026245,0.267632,0.43,0.53,11.96
907643525,0.021772,-0.004648,0.282546,1.59,2.62,13.16
907644536,-0.036819,-0.039802,0.293199,0.53,0.63,11.52
907645545,0.026033,-0.002518,0.290003,-1.90,2.58,12.43
907646561,0.027098,-0.017432,0.274024,-1.12,3.51,14.08
907647572,-0.025101,-0.046194,0.269763,-0.63,-0.39,11.29
907648575,0.033490,0.010266,0.281481,-2.56,0.90,8.34
907649586,0.057991,0.020919,0.282546,-1.71,1.18,9.38
907650595,-0.027231,-0.045129,0.274024,0.08,-3.54,7.99
907651605,-0.013383,-0.028084,0.280416,-1.18,-3.14,7.60
907652615,0.029229,0.016657,0.290003,-0.04,-1.47,11.18
907653625,-0.025101,-0.006779,0.294264,1.77,-3.20,10.20
907654636,-0.008056,0.001744,0.288938,0.06,-1.97,7.40
907655645,0.039881,0.028376,0.277220,0.63,-1.03,8.07
907656661,-0.032558,-0.021693,0.275089,2.61,-1.19,7.25
907657672,-0.049602,-0.030215,0.286807,1.47,-0.91,7.41
907658675,0.020706,0.021984,0.291068,0.93,0.33,9.97
907659692,-0.008056,0.002809,0.282546,2.05,1.77,11.28
907660711,-0.044276,-0.015301,0.279350,0.65,0.61,10.92
907661716,0.011119,0.030506,0.287873,-1.54,2.37,13.06
907662715,0.010054,0.018788,0.285742,-0.73,3.07,15.55
907663734,-0.041080,-0.037672,0.272959,-0.62,0.20,12.13
907664736,0.016445,-0.012105,0.268698,-2.59,1.56,8.89
907665751,0.030294,0.007070,0.272959,-1.57,1.27,9.00
907666762,-0.043210,-0.012105,0.283611,-0.18,-3.26,8.30
907667765,-0.008056,0.017723,0.282546,-1.60,-2.47,8.10
907668775,0.031359,0.017723,0.264436,-0.22,-1.38,10.96
907669786,-0.038949,-0.048325,0.251653,1.54,-3.61,9.26
907670795,-0.012317,-0.028084,0.255914,-0.14,-2.44,6.93
907671805,0.056926,0.023049,0.256979,0.67,-1.34,8.61
907672815,-0.008056,-0.019562,0.254849,2.53,-1.82,8.02
907673825,-0.027231,-0.023823,0.261241,1.21,-1.28,7.22
907674836,0.042012,0.030506,0.269763,0.99,-0.09,9.24
907675870,0.008988,-0.012105,0.258045,2.55,0.88,9.62
907676883,-0.022970,-0.049390,0.242066,1.17,-0.07,9.49
907677878,0.046273,0.004939,0.248457,-1.04,1.91,13.76
907678881,0.021772,0.001744,0.253784,-0.06,3.24,16.01
907679899,-0.052798,-0.031280,0.258045,-0.32,0.51,12.45
907680902,0.008988,0.011331,0.256979,-2.77,2.26,9.57
907681908,0.018576,0.015592,0.253784,-1.59,2.10,10.00
907682920,-0.063451,-0.025954,0.258045,-0.19,-2.70,8.66
907683931,-0.014448,0.015592,0.261241,-2.01,-1.72,8.07
907684942,0.026033,0.032637,0.251653,-0.62,-0.52,10.55
907685968,-0.052798,-0.024888,0.250588,1.34,-3.97,8.84
907686987,-0.022970,-0.003583,0.262306,-0.53,-3.08,7.40
907687971,0.043077,0.035833,0.261241,0.47,-1.47,9.86
907688982,-0.026166,-0.021693,0.249522,2.36,-2.19,8.70
907690003,-0.022970,-0.022758,0.251653,0.90,-1.45,7.15
907691008,0.056926,0.039028,0.259110,0.92,-0.36,8.07
907692014,0.016445,-0.012105,0.246327,2.67,0.41,7.61
907693015,-0.012317,-0.049390,0.234609,1.48,-0.51,8.55
907694025,0.057991,0.002809,0.242066,-0.43,1.70,13.35
907695036,0.017511,-0.005713,0.255914,0.59,3.14,14.99
907696051,-0.049602,-0.015301,0.269763,-0.14,0.66,12.28
907697062,0.023902,0.036898,0.269763,-2.72,2.93,10.79
907698065,0.028163,0.013462,0.258045,-1.52,2.72,11.74
907699075,-0.053863,-0.040868,0.255914,-0.33,-1.95,9.80
907700105,0.002597,0.002809,0.254849,-2.50,-0.33,8.24
907701095,0.032424,0.011331,0.249522,-1.16,0.12,9.87
907702121,-0.055994,-0.036607,0.258045,1.05,-4.24,8.03
907703115,-0.013383,0.009200,0.275089,-0.82,-3.28,7.65
907704139,0.043077,0.046485,0.271893,0.18,-1.40,10.87
907705136,-0.030427,-0.034476,0.247392,2.12,-2.54,9.60
907706151,-0.014448,-0.044064,0.239935,0.54,-1.46,7.09
907707162,0.054795,0.014527,0.252718,0.83,-0.42,7.17
907708165,-0.003795,-0.011040,0.256979,2.78,-0.62,6.93
907709175,-0.026166,-0.017432,0.254849,1.63,-0.78,8.28
907710186,0.031359,0.033702,0.251653,0.24,1.14,12.30
907711210,-0.011252,0.014527,0.255914,1.18,2.48,14.13
907712205,-0.051733,-0.014236,0.264436,0.11,0.72,11.90
907713215,0.020706,0.025180,0.260175,-2.03,2.60,12.24
907714225,0.015380,0.007070,0.245261,-1.20,2.84,13.49
907715236,-0.044276,-0.037672,0.235674,-0.81,-1.02,10.98
907716251,0.006858,0.000678,0.244196,-2.43,0.31,8.48
907717262,0.027098,0.017723,0.252718,-1.25,0.38,8.92
907718265,-0.043210,-0.030215,0.251653,0.40,-4.08,7.56
907719275,-0.008056,-0.008909,0.246327,-1.04,-3.21,7.61
907720289,0.036686,0.025180,0.242066,0.11,-1.42,11.02
907721301,-0.031492,-0.016366,0.245261,1.90,-3.09,9.89
907722309,-0.026166,-0.020627,0.247392,0.29,-1.77,7.16
907723320,0.035620,0.010266,0.237804,0.76,-0.61,7.24
907724329,-0.014448,-0.023823,0.232478,2.65,-1.25,7.02
907725341,-0.028297,-0.023823,0.243131,1.72,-0.84,7.82
907726357,0.039881,0.036898,0.253784,0.69,0.82,11.24
907727370,0.006858,0.007070,0.246327,1.40,1.88,12.64
907728373,0.017511,-0.008909,0.230347,-1.57,2.43,13.05
907729386,0.014315,0.002809,0.243131,-1.09,2.96,14.16
907730398,-0.038949,-0.014236,0.260175,-0.73,-0.44,11.49
907731400,0.003662,0.014527,0.255914,-2.18,0.70,8.80
907732409,0.022837,0.010266,0.236739,-1.42,0.77,8.73
907733420,-0.033623,-0.038737,0.229282,-0.05,-3.61,7.87
907734428,0.002597,-0.019562,0.236739,-1.10,-3.02,7.97
907735443,0.049469,0.015592,0.242066,-0.02,-1.26,10.80
907736454,-0.025101,-0.020627,0.241000,1.67,-3.34,9.64
907737465,-0.031492,-0.018497,0.245261,0.22,-2.24,7.07
907738468,0.031359,0.029441,0.252718,0.52,-0.66,7.86
907739475,-0.005926,-0.001452,0.249522,2.43,-1.75,7.44
907740491,-0.019774,-0.023823,0.237804,1.58,-1.32,7.44
907741499,0.043077,0.014527,0.232478,0.93,0.63,10.11
907742508,0.007923,-0.001452,0.236739,1.96,1.51,11.27
907743515,-0.043210,-0.018497,0.246327,0.82,0.23,10.79
907744525,0.018576,0.028376,0.241000,-1.42,2.28,13.57
907745536,0.005792,0.011331,0.233543,-0.84,3.33,14.80
907746551,-0.063451,-0.034476,0.241000,-0.65,0.03,11.92
907747562,-0.001665,0.009200,0.250588,-2.70,1.54,9.43
907748565,0.031359,0.015592,0.244196,-1.67,1.43,8.92
907749575,-0.036819,-0.040868,0.229282,-0.06,-3.29,7.99
907750586,0.001531,-0.008909,0.227152,-1.67,-2.49,8.23
907751595,0.047338,0.032637,0.236739,-0.32,-0.96,10.91
907752605,-0.018709,-0.008909,0.249522,1.61,-3.67,9.66
907753615,-0.018709,-0.012105,0.252718,-0.01,-2.86,7.18
907754625,0.035620,0.011331,0.238870,0.68,-0.93,8.07
907755636,-0.009122,-0.028084,0.226086,2.47,-2.01,8.14
907756651,-0.021905,-0.030215,0.233543,1.59,-1.37,7.19
907757662,0.044143,0.025180,0.244196,1.16,0.33,8.80
907758665,0.010054,0.006005,0.246327,2.03,0.86,9.75
907759675,-0.044276,-0.025954,0.247392,1.19,0.12,10.36
907760686,0.005792,0.017723,0.249522,-0.73,1.88,14.11
907761706,0.000466,0.023049,0.253784,-0.77,3.20,15.62
907762708,-0.044276,-0.014236,0.252718,-0.68,0.55,12.69
907763718,0.013249,0.010266,0.244196,-2.28,1.63,9.93
907764728,0.032424,0.009200,0.236739,-1.78,1.48,9.02
907765746,-0.031492,-0.036607,0.242066,-0.51,-2.90,8.29
907766755,-0.004860,-0.007844,0.255914,-1.47,-2.21,8.14
907767758,0.033490,0.028376,0.263371,-0.43,-1.09,10.00
907768768,-0.022970,-0.016366,0.253784,1.35,-3.95,8.56
907769778,-0.010187,-0.023823,0.242066,0.11,-2.81,6.95
907770789,0.036686,0.011331,0.237804,0.53,-0.96,9.05
907771802,-0.028297,-0.011040,0.247392,2.30,-2.26,8.62
907772805,-0.033623,-0.013170,0.259110,1.52,-1.36,7.48
907773815,0.045208,0.028376,0.261241,1.22,0.30,8.72
907774825,0.018576,-0.007844,0.249522,2.22,0.54,9.39
907775843,-0.024035,-0.051521,0.235674,1.17,0.04,10.16
907776852,0.033490,-0.013170,0.234609,-0.83,2.06,13.98
907777855,0.013249,-0.007844,0.245261,-0.66,3.36,15.40
907778865,-0.050667,-0.024888,0.260175,-0.72,0.73,12.27
907779875,0.008988,0.021984,0.262306,-2.58,1.95,9.77
907780886,0.030294,0.023049,0.252718,-1.94,1.79,9.14
907781905,-0.032558,-0.039802,0.238870,-0.50,-2.78,8.21
907782908,0.010054,-0.019562,0.236739,-1.76,-2.02,8.65
907783918,0.046273,0.014527,0.247392,-0.51,-0.84,10.82
907784928,-0.038949,-0.017432,0.262306,1.44,-3.82,9.15
907785946,-0.029362,-0.002518,0.269763,-0.08,-2.90,7.32
907786955,0.042012,0.023049,0.260175,0.49,-0.83,8.72
907787958,-0.002730,-0.033411,0.242066,2.25,-1.78,8.27
907788968,-0.016578,-0.050455,0.235674,1.36,-1.16,7.26
907789978,0.033490,-0.003583,0.236739,1.17,0.53,8.68
907790989,-0.012317,-0.017432,0.242066,2.07,1.13,9.45
907792002,-0.045341,-0.023823,0.249522,0.92,0.44,10.41
907793005,0.024967,0.032637,0.255914,-1.04,2.36,14.09
907794015,0.022837,0.034767,0.260175,-1.02,3.46,15.75
907795025,-0.034688,-0.001452,0.264436,-0.95,0.70,12.79
907796043,0.002597,0.016657,0.260175,-2.29,1.65,9.58
907797052,0.019641,0.013462,0.243131,-1.79,1.24,8.64
907798055,-0.026166,-0.037672,0.221825,-0.63,-3.04,8.29
907799065,-0.000599,-0.030215,0.218629,-1.24,-2.54,8.30
907800075,0.038816,-0.003583,0.228217,-0.25,-1.47,10.05
907801086,-0.009122,-0.016366,0.249522,1.29,-3.63,8.93
907802105,-0.001665,-0.004648,0.264436,0.41,-2.39,6.64
907803108,0.045208,0.032637,0.267632,0.68,-0.74,7.83
907804118,-0.000599,0.000678,0.259110,2.25,-1.83,7.77
907805128,-0.024035,-0.019562,0.247392,1.71,-0.99,7.46
907806146,0.034555,0.012396,0.237804,1.09,0.76,10.53
907807155,0.006858,-0.007844,0.235674,1.71,1.52,11.57
907808158,-0.030427,-0.038737,0.235674,0.48,0.82,11.32
907809168,0.029229,0.001744,0.238870,-1.68,2.44,13.98
907810178,0.018576,-0.004648,0.242066,-1.21,3.26,14.50
907811189,-0.048537,-0.038737,0.243131,-1.01,0.19,11.77
907812202,0.007923,-0.001452,0.247392,-2.64,1.18,8.80
907813205,0.039881,0.016657,0.254849,-1.61,0.80,7.91
907814215,-0.027231,-0.002518,0.265502,-0.16,-3.74,7.85
907815225,-0.019774,0.025180,0.265502,-0.98,-3.10,8.23
907816243,0.010054,0.042224,0.251653,0.23,-1.46,10.84
907817252,-0.038949,-0.017432,0.229282,1.80,-3.35,9.84
907818255,-0.016578,-0.032345,0.218629,0.46,-2.04,7.07
907819265,0.048404,0.006005,0.223956,0.80,-0.36,7.79
907820275,-0.016578,-0.012105,0.246327,2.67,-1.31,7.40
907821289,-0.051733,-0.012105,0.269763,1.75,-0.98,7.60
907822310,0.024967,0.037963,0.272959,0.68,1.09,11.23
907823312,0.017511,0.009200,0.259110,1.22,2.27,12.77
907824322,-0.030427,-0.035541,0.245261,0.18,0.81,11.87
907825334,0.018576,0.002809,0.235674,-2.03,2.58,13.00
907826350,0.011119,0.003874,0.232478,-1.56,3.23,13.67
907827359,-0.045341,-0.035541,0.243131,-0.80,-0.57,11.09
907828366,0.017511,0.001744,0.254849,-2.58,0.52,8.72
907829377,-0.030427,-0.022758,0.261241,0.41,-4.04,7.41
907830387,-0.011252,-0.013170,0.258045,-0.92,-3.46,7.73
907831395,0.037751,0.006005,0.246327,0.22,-1.31,10.91
907832407,-0.019774,-0.042998,0.234609,2.07,-2.80,9.63
907833409,-0.003795,-0.034476,0.234609,0.47,-1.82,7.22
907834420,0.052665,0.014527,0.239935,0.90,-0.15,7.23
907835428,-0.016578,-0.006779,0.251653,2.80,-0.75,7.09
907836451,-0.048537,-0.013170,0.262306,1.54,-0.77,8.17
907837456,0.028163,0.026245,0.264436,0.36,1.37,12.33
907838459,0.022837,0.000678,0.254849,0.96,2.70,14.30
907839468,-0.017644,-0.031280,0.244196,-0.20,1.10,12.40
907840475,0.023902,0.008135,0.238870,-2.45,2.81,12.33
907841491,0.000466,0.004939,0.237804,-1.75,2.85,12.46
907842508,-0.055994,-0.037672,0.241000,-0.87,-0.97,10.36
907843510,0.013249,-0.000387,0.249522,-2.50,0.14,8.38
907844517,0.052665,0.019853,0.254849,-1.36,-0.06,8.81
907845528,-0.026166,-0.016366,0.259110,0.59,-4.15,7.85
907846546,-0.022970,0.007070,0.259110,-0.50,-3.34,7.60
907847555,0.011119,0.034767,0.252718,0.37,-1.35,10.48
907848558,-0.040015,-0.015301,0.242066,1.85,-2.53,9.64
907849568,-0.019774,-0.027019,0.233543,0.73,-1.45,7.19
907850578,0.040947,0.007070,0.232478,1.05,-0.05,7.19
907851589,0.001531,-0.009975,0.236739,2.44,-0.60,7.58
907852602,-0.031492,-0.016366,0.248457,1.58,-0.32,8.62
907853605,0.017511,0.016657,0.253784,0.29,1.60,12.44
907854615,0.005792,0.007070,0.252718,0.12,2.79,14.57
907855625,-0.027231,-0.022758,0.245261,-0.49,1.41,12.86
907856643,0.011119,-0.004648,0.238870,-1.95,2.32,11.76
907857652,0.020706,-0.001452,0.236739,-1.98,2.38,11.24
907858672,-0.028297,-0.028084,0.241000,-1.15,-0.86,10.10
907859678,-0.001665,-0.009975,0.245261,-1.87,-0.46,8.75
907860687,0.030294,0.013462,0.247392,-1.36,-0.46,8.88
907861696,-0.016578,-0.013170,0.247392,0.27,-3.59,8.29
907862698,-0.009122,-0.008909,0.243131,-0.14,-3.12,7.54
907863708,0.030294,0.017723,0.238870,0.34,-1.52,9.86
907864718,-0.015513,-0.006779,0.238870,1.73,-2.38,9.47
907865735,-0.026166,-0.011040,0.239935,0.95,-1.38,7.08
907866746,0.031359,0.016657,0.238870,0.98,-0.02,7.60
907867748,0.007923,-0.009975,0.237804,2.43,-0.30,7.59
907868758,-0.022970,-0.021693,0.235674,1.62,-0.34,8.76
907869768,0.020706,0.019853,0.233543,0.09,1.56,13.39
907870778,-0.003795,0.006005,0.235674,0.19,2.96,14.88
907871793,-0.050667,-0.028084,0.237804,-0.46,1.19,12.65
907872808,0.014315,0.002809,0.238870,-2.29,2.42,11.46
907873817,0.042012,0.009200,0.237804,-1.86,2.54,11.10
907874826,-0.018709,-0.021693,0.235674,-0.85,-1.47,9.70
907875849,-0.000599,0.011331,0.232478,-2.07,-0.80,8.67
907876866,0.011119,0.028376,0.231413,-1.14,-0.34,9.36
907877847,-0.061320,-0.023823,0.232478,0.78,-4.02,8.16
907878860,-0.030427,-0.015301,0.235674,-0.20,-3.40,7.42
907879869,0.038816,0.020919,0.241000,0.45,-1.33,9.91
907880880,0.000466,-0.007844,0.241000,1.90,-2.27,9.32
907881923,-0.016578,-0.007844,0.236739,0.89,-1.31,6.99
907882918,0.013249,0.028376,0.230347,1.06,-0.01,7.42
907883919,-0.036819,-0.002518,0.229282,2.31,-0.22,7.78
907884941,-0.047472,-0.028084,0.232478,1.50,-0.23,8.88
907885960,0.032424,0.010266,0.241000,0.01,1.63,13.22
907886965,0.031359,0.003874,0.242066,-0.17,3.01,14.99
907887960,-0.017644,-0.022758,0.236739,-0.65,1.23,12.75
907888977,0.012184,0.004939,0.227152,-2.12,2.31,11.26
907889968,0.013249,0.009200,0.223956,-1.90,2.36,10.80
907890978,-0.033623,-0.021693,0.232478,-1.08,-1.36,9.56
907892016,0.006858,-0.002518,0.239935,-1.87,-0.82,8.57
907893017,0.039881,0.010266,0.238870,-0.97,-0.61,9.18
907894005,-0.013383,-0.032345,0.226086,0.60,-3.93,8.27
907895015,-0.006991,-0.025954,0.217564,-0.09,-3.16,7.61
907896047,0.028163,0.012396,0.223956,0.46,-1.34,10.11
907897057,-0.029362,-0.002518,0.239935,1.85,-2.37,9.58
907898045,-0.036819,-0.005713,0.246327,1.02,-1.33,7.18
907899055,0.024967,0.013462,0.233543,1.05,0.11,7.63
907900065,0.003662,-0.024889,0.215433,2.36,-0.17,7.87
907901075,-0.017644,-0.041933,0.211172,1.50,-0.30,8.65
907902096,0.036686,0.008135,0.225021,-0.14,1.50,13.31
907903113,0.011119,0.015592,0.243131,0.00,2.93,14.92
907904126,-0.045341,-0.003583,0.249522,-0.46,1.17,12.32
907905118,0.005792,0.027310,0.236739,-2.37,2.43,11.31
907906135,0.012184,0.010266,0.217564,-1.84,2.55,11.08
907907146,-0.037884,-0.039802,0.210107,-0.85,-1.57,9.94
907908148,0.010054,-0.008909,0.218629,-2.07,-0.81,8.68
907909158,0.051599,0.016657,0.231413,-0.98,-0.49,9.34
907910168,-0.008056,-0.015301,0.239935,0.69,-3.94,8.39
907911178,-0.003795,-0.002518,0.234609,-0.29,-3.11,7.53
907912193,0.022837,0.019853,0.218629,0.39,-1.28,9.34
907913195,-0.032558,-0.015301,0.210107,1.73,-2.43,9.40
907914205,-0.040015,-0.027019,0.214368,0.99,-1.40,7.19
907915221,0.019641,0.004939,0.221825,1.06,0.02,7.81
907916232,-0.000599,-0.006779,0.225021,2.19,-0.26,7.90
907917243,-0.025101,-0.020627,0.220760,1.57,-0.16,8.50
907918245,0.023902,0.029441,0.215433,-0.08,1.56,13.12
