time_us,gyro_x_rad_s,gyro_y_rad_s,gyro_z_rad_s,acc_x_m_s2,acc_y_m_s2,acc_z_m_s2
47827324,-0.004370,0.002757,0.000475,-0.03,-0.35,9.81
47828022,-0.002239,0.003822,-0.000591,-0.06,-0.32,9.80
47829038,-0.001174,0.004887,0.000475,-0.04,-0.37,9.81
47830094,-0.002239,0.007018,0.002605,-0.01,-0.38,9.82
47831045,-0.001174,0.005952,0.002605,0.02,-0.29,9.86
47832053,-0.000109,0.002757,0.002605,0.08,-0.28,9.87
47833061,-0.001174,-0.000439,0.002605,0.12,-0.26,9.86
47834070,-0.001174,-0.001505,0.000475,0.12,-0.20,9.82
47835087,-0.001174,-0.002570,-0.002721,0.10,-0.18,9.77
47836090,-0.001174,-0.002570,-0.002721,0.03,-0.23,9.80
47837097,-0.000109,-0.002570,0.000475,-0.04,-0.24,9.83
47838105,-0.000109,-0.000439,0.003670,-0.06,-0.26,9.86
47839115,0.000957,-0.002570,0.005801,-0.06,-0.28,9.88
47840190,0.002022,-0.003635,0.005801,-0.07,-0.27,9.84
47841166,0.002022,-0.004700,0.004736,-0.11,-0.30,9.81
47842173,0.002022,-0.004700,0.005801,-0.15,-0.31,9.81
47843154,0.002022,-0.002570,0.005801,-0.13,-0.33,9.80
47844163,0.000957,-0.001505,0.004736,-0.09,-0.41,9.79
47845178,0.000957,-0.001505,0.004736,-0.12,-0.42,9.83
47846181,-0.001174,-0.000439,0.004736,-0.10,-0.38,9.86
47847191,-0.002239,0.001691,0.004736,-0.01,-0.39,9.87
47848201,-0.002239,0.003822,0.005801,0.05,-0.35,9.81
47849211,-0.000109,0.002757,0.005801,0.08,-0.28,9.80
47850244,-0.000109,-0.001505,0.004736,0.14,-0.26,9.79
47851231,-0.001174,-0.002570,0.003670,0.12,-0.26,9.75
47852241,-0.002239,-0.001505,0.003670,0.02,-0.28,9.81
47853251,-0.002239,-0.001505,0.002605,-0.02,-0.30,9.85
47854261,-0.002239,-0.001505,0.000475,-0.03,-0.32,9.86
47855278,-0.000109,-0.000439,-0.001656,-0.02,-0.31,9.87
47856281,0.000957,-0.001505,-0.002721,0.01,-0.27,9.84
47857291,0.000957,-0.003635,-0.002721,0.03,-0.27,9.78
47858301,0.000957,-0.003635,-0.003787,0.01,-0.23,9.79
47859311,0.000957,-0.004700,-0.003787,-0.03,-0.22,9.83
47860343,0.002022,-0.003635,-0.000591,-0.08,-0.24,9.82
47861331,0.003087,-0.002570,0.002605,-0.11,-0.29,9.86
47862341,0.002022,-0.002570,0.004736,-0.09,-0.33,9.86
47863351,0.000957,-0.002570,0.003670,-0.05,-0.33,9.84
47864361,0.002022,-0.002570,0.004736,-0.05,-0.36,9.82
47865375,0.004153,0.000626,0.005801,-0.08,-0.40,9.77
47866381,0.003087,0.003822,0.004736,-0.07,-0.43,9.75
47867391,0.002022,0.003822,0.002605,-0.04,-0.40,9.82
47868401,0.000957,0.002757,0.000475,0.04,-0.35,9.87
47869411,-0.003304,0.001691,-0.000591,0.07,-0.37,9.81
47870444,-0.003304,-0.001505,-0.000591,0.06,-0.35,9.83
47871431,-0.001174,-0.003635,-0.001656,0.10,-0.34,9.88
47872441,-0.003304,-0.003635,-0.005917,0.09,-0.31,9.85
47873451,-0.006500,-0.002570,-0.006982,0.00,-0.27,9.81
47874461,-0.004370,-0.002570,-0.005917,-0.07,-0.28,9.81
47875478,-0.002239,-0.002570,-0.003787,-0.11,-0.29,9.85
47876481,-0.003304,-0.003635,-0.000591,-0.15,-0.27,9.83
47877491,-0.003304,-0.001505,-0.000591,-0.12,-0.28,9.81
47878501,-0.001174,-0.001505,-0.000591,-0.05,-0.26,9.88
47879511,-0.000109,-0.002570,0.001540,-0.03,-0.21,9.86
47880543,-0.000109,-0.003635,0.003670,-0.03,-0.26,9.80
47881531,0.000957,-0.001505,0.004736,0.00,-0.27,9.82
47882541,-0.000109,0.000626,0.004736,0.00,-0.28,9.80
47883551,-0.000109,0.000626,0.002605,-0.04,-0.37,9.78
47884561,-0.000109,0.000626,-0.001656,-0.07,-0.36,9.82
47885575,0.002022,-0.001505,-0.002721,-0.06,-0.35,9.84
47886581,0.000957,-0.002570,0.000475,0.00,-0.35,9.81
47887591,-0.000109,-0.000439,0.001540,0.03,-0.35,9.79
47888601,-0.000109,0.000626,0.000475,0.03,-0.35,9.80
47889611,-0.001174,-0.000439,-0.002721,0.02,-0.32,9.80
47890644,-0.002239,-0.000439,-0.003787,0.02,-0.32,9.80
47891631,-0.001174,-0.001505,-0.004852,-0.02,-0.27,9.78
47892641,-0.002239,-0.002570,-0.003787,-0.12,-0.23,9.82
47893651,-0.004370,-0.001505,-0.001656,-0.13,-0.23,9.85
47894661,-0.003304,-0.002570,0.003670,-0.06,-0.26,9.84
47895678,-0.001174,-0.001505,0.006866,-0.04,-0.21,9.88
47896681,-0.000109,0.001691,0.007931,-0.03,-0.20,9.85
47897691,-0.001174,0.002757,0.006866,0.03,-0.23,9.78
47898701,0.002022,0.004887,0.005801,0.02,-0.22,9.78
47899711,0.002022,0.002757,0.005801,-0.01,-0.27,9.81
47900743,-0.000109,0.000626,0.005801,0.00,-0.30,9.84
47901731,-0.001174,0.000626,0.004736,0.03,-0.32,9.82
47902741,0.002022,0.002757,0.001540,0.05,-0.35,9.84
47903751,0.000957,0.001691,0.000475,0.04,-0.35,9.88
47904761,-0.002239,-0.000439,-0.001656,0.02,-0.35,9.81
47905775,-0.005435,-0.000439,-0.003787,0.00,-0.39,9.82
47906781,-0.004370,0.001691,-0.008048,-0.07,-0.39,9.83
47907791,-0.002239,0.000626,-0.010178,-0.13,-0.32,9.84
47908801,-0.003304,-0.001505,-0.008048,-0.13,-0.33,9.84
47909834,-0.003304,0.001691,-0.003787,-0.13,-0.31,9.85
47910825,-0.003304,0.004887,-0.002721,-0.13,-0.26,9.83
47911831,-0.004370,0.005952,-0.001656,-0.09,-0.28,9.81
47912841,-0.003304,0.005952,-0.000591,-0.07,-0.25,9.80
47913851,-0.002239,0.007018,0.000475,-0.08,-0.24,9.80
47914861,-0.002239,0.005952,0.001540,-0.03,-0.27,9.84
47915879,-0.001174,0.003822,0.004736,0.01,-0.26,9.82
47916881,0.002022,0.003822,0.007931,0.05,-0.30,9.88
47917891,0.002022,0.002757,0.008997,0.04,-0.38,9.82
47918901,0.000957,0.002757,0.011127,0.04,-0.36,9.77
47919935,0.000957,0.001691,0.008997,0.04,-0.37,9.79
47920928,-0.001174,-0.000439,0.003670,0.05,-0.31,9.79
47921933,-0.002239,-0.000439,0.001540,0.06,-0.30,9.79
47922946,-0.001174,-0.000439,0.000475,0.00,-0.32,9.82
47923956,-0.000109,-0.000439,-0.000591,-0.07,-0.33,9.80
47924974,-0.001174,0.000626,-0.001656,-0.08,-0.34,9.78
47925989,-0.001174,0.000626,-0.000591,-0.05,-0.25,9.79
47926988,0.000957,0.000626,-0.001656,-0.07,-0.23,9.77
47927998,0.002022,-0.000439,-0.003787,-0.08,-0.28,9.76
47929013,0.000957,-0.000439,-0.004852,-0.08,-0.27,9.81
47930045,-0.003304,0.000626,-0.005917,-0.08,-0.24,9.81
47931036,-0.004370,0.000626,-0.005917,-0.03,-0.26,9.83
47932042,-0.003304,-0.000439,-0.005917,-0.01,-0.28,9.83
47933084,-0.002239,-0.000439,-0.006982,-0.05,-0.28,9.82
47934064,-0.001174,0.002757,-0.005917,0.00,-0.31,9.82
47935071,-0.002239,0.003822,-0.006982,0.05,-0.32,9.84
47936087,-0.001174,0.002757,-0.009113,0.07,-0.33,9.87
47937090,-0.002239,0.000626,-0.012309,0.10,-0.38,9.86
47938099,-0.003304,0.000626,-0.012309,0.10,-0.38,9.79
47939105,-0.003304,0.000626,-0.011244,0.09,-0.34,9.78
47940134,-0.006500,-0.002570,-0.012309,0.05,-0.34,9.80
47941126,-0.007566,-0.006831,-0.014439,0.01,-0.29,9.78
47942131,-0.002239,-0.007896,-0.015505,0.00,-0.22,9.84
47943145,0.002022,-0.004700,-0.014439,-0.03,-0.20,9.86
47944154,0.002022,-0.001505,-0.011244,-0.07,-0.21,9.84
47945163,-0.001174,-0.001505,-0.006982,-0.08,-0.21,9.86
47946178,-0.002239,-0.003635,-0.003787,-0.10,-0.20,9.86
47947181,-0.000109,-0.002570,0.001540,-0.11,-0.19,9.80
47948191,-0.000109,-0.000439,0.005801,-0.09,-0.24,9.76
47949201,-0.000109,0.002757,0.008997,-0.08,-0.29,9.79
47950234,-0.001174,0.002757,0.012193,-0.07,-0.32,9.81
47951225,-0.001174,0.000626,0.013258,-0.01,-0.34,9.82
47952231,0.000957,0.000626,0.013258,0.03,-0.35,9.84
47953241,-0.000109,0.001691,0.012193,0.02,-0.38,9.83
47954251,-0.000109,0.001691,0.008997,0.03,-0.36,9.82
47955261,0.000957,0.000626,0.004736,0.05,-0.36,9.81
47956311,0.002122,-0.000427,0.002571,0.06,-0.36,9.80
47957281,-0.000008,-0.000427,0.001506,0.03,-0.37,9.86
47958291,-0.001074,-0.000427,-0.001690,0.01,-0.36,9.88
47959301,-0.001074,-0.001493,-0.002755,-0.01,-0.32,9.85
47960333,-0.001074,-0.000427,-0.001690,-0.02,-0.28,9.86
47961326,-0.002139,0.002768,-0.001690,-0.05,-0.26,9.86
47962331,-0.003204,0.003834,-0.002755,-0.08,-0.22,9.82
47963341,-0.003204,0.002768,-0.003821,-0.08,-0.22,9.78
47964351,-0.005335,-0.000427,-0.003821,-0.09,-0.23,9.76
47965361,-0.005335,-0.002558,-0.004886,-0.11,-0.23,9.80
47966375,-0.002139,-0.002558,-0.003821,-0.09,-0.25,9.81
47967381,0.001057,-0.001493,-0.001690,-0.03,-0.27,9.80
47968391,0.001057,0.000638,0.000440,-0.02,-0.29,9.82
47969401,0.001057,0.002768,0.002571,-0.01,-0.28,9.85
47970433,0.002122,0.004899,0.001506,0.01,-0.29,9.84
47971426,0.004253,0.002768,0.000440,0.05,-0.33,9.81
47972431,0.004253,-0.001493,-0.000625,0.07,-0.34,9.80
47973441,0.003187,-0.004689,-0.000625,0.05,-0.36,9.83
47974451,0.001057,-0.003623,0.001506,0.03,-0.36,9.86
47975461,-0.001074,-0.000427,0.001506,0.02,-0.32,9.84
47976478,-0.000008,0.001703,-0.000625,0.01,-0.30,9.83
47977481,-0.001074,0.000638,-0.000625,-0.01,-0.31,9.81
47978491,-0.003204,-0.001493,0.000440,-0.01,-0.32,9.82
47979501,-0.003204,-0.002558,0.001506,-0.04,-0.29,9.85
47980534,-0.002139,-0.002558,0.001506,-0.07,-0.27,9.82
47981525,-0.001074,-0.002558,0.002571,-0.04,-0.26,9.78
47982531,-0.001074,-0.000427,0.003636,-0.05,-0.25,9.80
47983541,-0.002139,0.001703,0.003636,-0.09,-0.23,9.87
47984551,-0.000008,0.002768,0.002571,-0.11,-0.21,9.87
47985561,0.002122,0.001703,0.001506,-0.08,-0.23,9.85
47986575,-0.000008,-0.000427,0.001506,-0.02,-0.26,9.85
47987581,-0.000008,-0.000427,0.001506,-0.01,-0.31,9.86
47988591,0.001057,-0.000427,0.001506,-0.02,-0.32,9.89
47989601,0.003188,-0.000427,-0.000625,-0.01,-0.34,9.84
47990634,0.004253,-0.001493,-0.003821,0.03,-0.37,9.78
47991625,0.002122,-0.001493,-0.003821,0.03,-0.35,9.79
47992631,-0.002139,0.000638,-0.002755,0.03,-0.33,9.82
47993641,-0.002139,0.001703,-0.004886,0.04,-0.36,9.85
47994651,-0.000008,0.000638,-0.008082,0.03,-0.38,9.86
47995661,0.001057,-0.001493,-0.009147,0.01,-0.33,9.86
47996679,0.001057,-0.001493,-0.008082,0.00,-0.31,9.82
47997681,-0.000008,-0.000427,-0.005951,-0.04,-0.31,9.80
47998691,-0.002139,0.000638,-0.003821,-0.06,-0.29,9.85
47999701,-0.003204,0.002768,-0.000625,-0.07,-0.28,9.82
48000733,-0.001074,0.002768,-0.000625,-0.06,-0.27,9.78
48001726,-0.000008,0.001703,-0.001690,-0.06,-0.26,9.82
48002731,-0.000008,0.001703,0.001506,-0.07,-0.25,9.82
48003741,0.001057,0.001703,0.003636,-0.04,-0.27,9.78
48004751,0.002122,0.000638,0.003636,-0.02,-0.28,9.75
48005761,0.003188,-0.000427,0.003636,-0.01,-0.28,9.80
48006775,0.003188,-0.001493,0.001506,-0.01,-0.33,9.83
48007781,0.002122,-0.001493,0.000440,-0.01,-0.33,9.87
48008791,0.003188,-0.000427,0.001506,0.00,-0.33,9.86
48009823,0.002122,0.001703,0.002571,0.01,-0.33,9.87
48010811,-0.000008,0.001703,0.001506,0.01,-0.32,9.84
48011826,-0.003204,0.001703,0.000440,0.00,-0.31,9.79
48012831,-0.003204,0.003834,0.001506,-0.02,-0.30,9.81
48013841,-0.001074,0.002768,0.002571,-0.06,-0.31,9.78
48014851,-0.000008,-0.000427,0.001506,-0.07,-0.30,9.80
48015861,0.001057,-0.000427,0.001506,-0.03,-0.29,9.81
48016878,0.001057,0.002768,-0.001690,0.00,-0.28,9.80
48017881,-0.000008,0.000638,-0.003821,-0.03,-0.29,9.86
48018891,-0.001074,-0.000427,-0.001690,-0.07,-0.28,9.81
48019926,-0.001074,0.001703,-0.003821,-0.04,-0.28,9.78
48020911,-0.001074,0.002768,-0.001690,-0.04,-0.28,9.81
48021926,-0.000008,0.001703,-0.000625,-0.04,-0.29,9.93
48022936,0.001057,0.001703,0.000440,-0.04,-0.30,9.94
48023946,0.001057,0.001703,0.000440,-0.02,-0.32,9.89
48024953,-0.000008,0.001703,-0.000625,0.01,-0.31,9.86
48025969,-0.001074,-0.000427,0.000440,0.00,-0.30,9.83
48026983,-0.001074,-0.002558,0.002571,0.03,-0.32,9.83
48027989,0.002122,-0.003623,0.003636,0.04,-0.33,9.84
48029001,0.004253,-0.002558,0.000440,-0.01,-0.33,9.80
48030032,0.003188,-0.001493,0.001506,-0.03,-0.32,9.86
48031022,-0.000008,-0.001493,0.001506,0.00,-0.31,9.89
48032037,-0.002139,0.000638,0.000440,0.00,-0.31,9.82
48033041,-0.002139,-0.000427,-0.000625,-0.03,-0.31,9.81
48034053,-0.003204,-0.001493,0.000440,-0.04,-0.29,9.84
48035091,-0.002139,-0.000427,0.000440,-0.03,-0.28,9.83
48036070,0.002122,0.000638,0.000440,-0.06,-0.28,9.78
48037088,0.003188,0.001703,-0.000625,-0.09,-0.28,9.79
48038090,0.001057,0.003834,-0.000625,-0.09,-0.27,9.85
48039101,-0.001074,0.004899,0.000440,-0.09,-0.28,9.86
48040128,-0.002139,0.005964,-0.000625,-0.05,-0.28,9.86
48041115,-0.000008,0.004899,-0.001690,-0.03,-0.29,9.88
48042127,0.001057,0.001703,-0.002755,-0.03,-0.33,9.86
48043136,0.001057,-0.000427,-0.000625,-0.01,-0.31,9.82
48044145,-0.001074,-0.000427,0.000440,-0.01,-0.28,9.79
48045154,-0.001074,0.000638,0.000440,0.01,-0.33,9.81
48046163,-0.001074,0.001703,0.000440,0.02,-0.34,9.87
48047178,-0.000008,0.001703,-0.000625,0.01,-0.30,9.87
48048181,-0.001074,0.001703,0.000440,-0.04,-0.32,9.81
48049191,-0.000008,-0.000427,0.000440,-0.05,-0.34,9.82
48050223,-0.000008,0.000638,-0.000625,-0.02,-0.29,9.85
48051211,-0.000008,0.001703,-0.002755,-0.03,-0.29,9.81
48052226,-0.002139,0.002768,-0.002755,-0.05,-0.30,9.79
48053231,-0.004269,0.001703,-0.001690,-0.05,-0.28,9.80
48054241,-0.005335,-0.002558,-0.000625,-0.02,-0.27,9.84
48055251,-0.004269,-0.002558,0.001506,-0.02,-0.29,9.82
48056261,-0.002139,-0.000427,0.001506,-0.04,-0.32,9.78
48057278,-0.000008,-0.000427,0.000440,-0.02,-0.33,9.84
48058281,0.002122,-0.000427,-0.000625,-0.01,-0.30,9.86
48059291,0.001057,-0.000427,-0.001690,0.00,-0.29,9.85
48060324,-0.002139,0.000638,-0.000625,0.00,-0.30,9.85
48061311,-0.003204,0.002768,0.001506,-0.02,-0.30,9.84
48062325,-0.004269,0.003834,0.002571,-0.03,-0.31,9.84
48063331,-0.003204,0.002768,0.002571,-0.02,-0.32,9.80
48064341,-0.002139,-0.000427,0.000440,-0.04,-0.34,9.79
48065351,-0.001074,-0.000427,-0.000625,-0.01,-0.34,9.78
48066361,0.001057,-0.000427,0.000440,0.01,-0.31,9.78
48067375,0.002122,-0.000427,0.000440,-0.03,-0.30,9.88
48068381,0.003188,0.000638,-0.000625,-0.02,-0.29,9.86
48069391,0.003188,0.000638,-0.001690,0.01,-0.29,9.85
48070424,0.002122,-0.000427,-0.002755,0.01,-0.28,9.83
48071411,-0.000008,-0.000427,-0.002755,0.00,-0.28,9.79
48072425,-0.003204,-0.000427,-0.003821,-0.04,-0.30,9.80
48073431,-0.003204,0.000638,-0.002755,-0.05,-0.31,9.80
48074441,-0.000008,0.001703,0.000440,-0.03,-0.30,9.82
48075451,0.004253,0.003834,0.000440,-0.03,-0.30,9.83
48076461,0.005318,0.001703,-0.000625,0.00,-0.30,9.82
48077479,0.002122,-0.001493,-0.001690,-0.03,-0.29,9.88
48078481,-0.001074,-0.000427,0.000440,-0.03,-0.27,9.92
48079491,-0.001074,-0.000427,0.001506,0.00,-0.26,9.83
48080523,-0.000008,-0.000427,0.000440,-0.02,-0.27,9.79
48081511,-0.000008,-0.000427,0.001506,0.01,-0.29,9.82
48082526,-0.001074,0.000638,0.004702,0.00,-0.30,9.84
48083531,-0.002139,0.001703,0.002571,-0.02,-0.30,9.84
48084541,-0.000008,0.002768,-0.001690,-0.01,-0.31,9.81
48085579,0.002146,0.000581,-0.001651,-0.03,-0.31,9.80
48086561,0.001081,-0.000484,-0.001651,-0.03,-0.28,9.83
48087575,0.000016,-0.003680,-0.000586,-0.01,-0.27,9.81
48088581,0.001081,-0.005811,0.000480,-0.02,-0.29,9.77
48089591,0.001081,-0.004745,0.001545,-0.04,-0.29,9.80
48090623,-0.001050,-0.001549,0.001545,-0.02,-0.30,9.86
48091611,-0.001050,0.000581,0.001545,0.01,-0.29,9.86
48092626,0.002146,0.000581,0.001545,0.00,-0.32,9.76
48093631,0.004277,-0.000484,-0.000586,0.00,-0.34,9.76
48094641,0.004277,0.001646,0.000480,-0.02,-0.31,9.83
48095651,0.002146,0.002712,0.002610,-0.01,-0.30,9.86
48096661,-0.002115,0.001646,0.002610,-0.02,-0.31,9.84
48097678,-0.003180,-0.000484,0.001545,-0.02,-0.33,9.80
48098681,0.000016,-0.000484,0.001545,0.00,-0.32,9.79
48099691,0.001081,-0.000484,0.002610,-0.04,-0.30,9.84
48100724,0.000016,-0.000484,0.003675,-0.06,-0.30,9.88
48101711,0.000016,-0.002615,0.001545,-0.02,-0.31,9.90
48102725,-0.001050,-0.002615,-0.001651,-0.02,-0.31,9.88
48103731,0.000016,-0.002615,-0.002716,-0.02,-0.30,9.85
48104741,0.001081,-0.002615,-0.001651,-0.03,-0.32,9.86
48105751,-0.001050,-0.003680,-0.000586,-0.05,-0.31,9.80
48106761,-0.001050,-0.004745,0.001545,-0.02,-0.28,9.79
48107775,0.000016,-0.001549,0.000480,-0.01,-0.29,9.82
48108781,-0.001050,0.000581,-0.000586,-0.02,-0.28,9.80
48109814,-0.002115,0.000581,-0.001651,-0.03,-0.27,9.86
48110801,-0.001050,0.001646,-0.002716,-0.01,-0.28,9.81
48111811,0.000016,0.000581,-0.001651,0.01,-0.28,9.76
48112825,-0.001050,0.000581,-0.000586,-0.02,-0.30,9.83
48113831,-0.002115,0.000581,0.002610,-0.02,-0.30,9.84
48114841,-0.004245,-0.001549,0.002610,-0.02,-0.27,9.79
48115851,-0.002115,-0.004745,0.000480,-0.01,-0.28,9.81
48116861,0.001081,-0.003680,-0.000586,0.02,-0.30,9.86
48117879,0.003212,-0.001549,0.000480,0.00,-0.30,9.85
48118881,0.003212,-0.000484,0.001545,-0.02,-0.32,9.82
48119915,0.001081,-0.001549,0.001545,-0.05,-0.29,9.82
48120901,0.002146,-0.001549,-0.000586,-0.05,-0.30,9.80
48121911,0.003212,-0.001549,-0.002716,-0.05,-0.28,9.79
48122928,0.001081,-0.001549,-0.003782,-0.03,-0.28,9.83
48123935,-0.002115,0.000581,-0.003782,0.00,-0.31,9.83
48124945,-0.004245,0.003777,-0.002716,0.01,-0.32,9.82
48125955,-0.002115,0.004842,-0.001651,0.01,-0.33,9.83
48126976,-0.001050,0.000581,-0.000586,-0.01,-0.34,9.81
48127980,0.001081,0.000581,0.000480,-0.02,-0.33,9.80
48128990,0.001081,0.002712,0.000480,-0.04,-0.32,9.77
48130023,-0.002115,0.003777,0.000480,-0.03,-0.32,9.78
48131020,-0.003180,0.002712,0.002610,-0.03,-0.33,9.82
48132024,-0.001050,0.001646,0.002610,-0.03,-0.34,9.83
48133040,0.001081,0.002712,0.000480,0.00,-0.33,9.82
48134042,0.001081,0.002712,0.000480,-0.01,-0.30,9.81
48135053,0.001081,0.002712,0.001545,-0.03,-0.27,9.80
48136061,-0.001050,0.003777,0.000480,-0.01,-0.30,9.81
48137072,-0.003180,0.002712,-0.000586,-0.03,-0.32,9.81
48138090,-0.003180,0.001646,0.001545,-0.02,-0.33,9.79
48139090,-0.001050,0.000581,0.003675,0.01,-0.35,9.81
48140124,0.001081,0.000581,0.003675,0.01,-0.34,9.82
48141105,0.002146,-0.001549,0.004741,0.00,-0.33,9.85
48142115,0.003212,-0.004745,0.003675,-0.03,-0.32,9.85
48143128,0.002146,-0.002615,0.001545,-0.03,-0.30,9.85
48144131,0.001081,0.000581,0.002610,-0.02,-0.30,9.84
48145145,0.002146,0.001646,0.002610,-0.05,-0.32,9.75
48146154,0.002146,0.001646,0.001545,-0.02,-0.30,9.75
48147163,0.000016,0.000581,0.000480,0.02,-0.28,9.86
48148178,0.001081,0.000581,0.000480,-0.01,-0.28,9.86
48149181,0.000016,0.000581,0.001545,-0.03,-0.27,9.80
48150214,0.000016,-0.001549,0.001545,-0.01,-0.28,9.79
48151201,0.001081,-0.002615,-0.001651,-0.01,-0.30,9.78
48152211,0.001081,-0.002615,-0.002716,-0.02,-0.32,9.77
48153225,0.001081,-0.001549,-0.001651,-0.03,-0.36,9.81
48154231,0.000016,-0.000484,-0.001651,-0.01,-0.35,9.83
48155241,-0.001050,-0.001549,0.000480,-0.02,-0.33,9.85
48156251,-0.003180,-0.001549,0.002610,-0.03,-0.32,9.86
48157261,-0.003180,-0.001549,0.002610,-0.02,-0.29,9.85
48158279,-0.002115,-0.001549,0.001545,-0.04,-0.31,9.82
48159281,-0.001050,-0.000484,-0.000586,-0.03,-0.33,9.84
48160313,0.000016,0.000581,-0.000586,0.00,-0.30,9.89
48161301,0.001081,0.001646,-0.001651,0.01,-0.26,9.86
48162311,0.002146,-0.000484,-0.003782,-0.02,-0.27,9.80
48163326,0.001081,-0.003680,-0.003782,-0.06,-0.29,9.84
48164331,-0.002115,-0.005811,-0.001651,-0.04,-0.32,9.82
48165341,-0.003180,-0.004745,0.001545,-0.01,-0.34,9.78
48166351,-0.001050,-0.001549,0.001545,-0.02,-0.32,9.83
48167361,-0.001050,0.000581,0.000480,-0.03,-0.31,9.86
48168375,-0.001050,-0.002615,-0.000586,-0.01,-0.31,9.91
48169381,0.001081,-0.003680,-0.001651,0.00,-0.33,9.89
48170413,0.002146,-0.002615,-0.002716,-0.03,-0.35,9.87
48171401,0.002146,-0.002615,-0.003782,0.00,-0.34,9.84
48172411,0.001081,-0.002615,-0.000586,0.00,-0.32,9.82
48173426,0.000016,-0.000484,-0.000586,-0.02,-0.28,9.79
48174431,0.001081,0.000581,-0.000586,-0.01,-0.31,9.78
48175441,0.001081,0.001646,-0.000586,0.03,-0.34,9.84
48176451,0.001081,0.001646,-0.000586,0.02,-0.30,9.86
48177461,0.001081,0.001646,-0.001651,-0.02,-0.28,9.83
48178478,0.000016,0.002712,-0.001651,-0.05,-0.30,9.81
48179481,-0.002115,0.003777,-0.000586,-0.05,-0.32,9.77
48180514,-0.001050,0.002712,-0.000586,-0.03,-0.30,9.75
48181501,-0.001050,0.000581,-0.001651,-0.04,-0.29,9.76
48182511,-0.001050,-0.001549,-0.000586,-0.04,-0.31,9.79
48183525,-0.001050,-0.001549,0.002610,-0.05,-0.31,9.82
48184531,-0.002115,-0.001549,0.002610,-0.05,-0.28,9.85
48185541,-0.001050,-0.001549,0.002610,-0.01,-0.28,9.86
48186551,0.002146,-0.001549,0.001545,-0.02,-0.32,9.86
48187561,0.003212,-0.003680,0.001545,-0.03,-0.30,9.85
48188575,0.001081,-0.002615,0.002610,-0.02,-0.34,9.79
48189581,0.001081,-0.001549,0.000480,-0.02,-0.32,9.77
48190614,0.001081,-0.000484,-0.001651,-0.03,-0.27,9.85
48191601,0.000016,-0.001549,-0.001651,-0.02,-0.29,9.87
48192611,-0.002115,-0.001549,0.001545,-0.02,-0.29,9.84
48193625,-0.002115,0.001646,0.003675,-0.02,-0.29,9.81
48194631,-0.003180,0.002712,0.003675,0.02,-0.30,9.76
48195641,-0.002115,0.002712,0.002610,-0.01,-0.31,9.78
48196651,0.002146,-0.000484,-0.000586,-0.01,-0.33,9.81
48197661,0.002146,-0.001549,-0.001651,-0.01,-0.31,9.77
48198679,0.002146,-0.003680,-0.000586,-0.01,-0.31,9.75
48199681,0.000016,-0.001549,0.001545,0.02,-0.32,9.78
48200713,-0.002115,0.000581,0.003675,-0.02,-0.29,9.84
48201701,-0.003180,0.001646,0.002610,-0.04,-0.26,9.83
48202711,-0.003180,0.002712,0.000480,-0.02,-0.28,9.77
48203726,-0.002115,0.000581,-0.000586,-0.01,-0.32,9.81
48204731,0.000016,0.000581,-0.000586,-0.04,-0.29,9.89
48205741,0.002146,0.000581,-0.000586,-0.05,-0.30,9.92
48206751,0.002146,0.000581,-0.001651,-0.02,-0.29,9.83
48207761,0.001081,-0.000484,-0.002716,-0.03,-0.28,9.81
48208775,0.002146,-0.001549,-0.001651,-0.02,-0.31,9.81
48209803,0.003212,-0.001549,-0.001651,-0.02,-0.34,9.77
48210791,0.004277,0.000581,-0.001651,-0.03,-0.33,9.78
48211801,0.004277,0.001646,-0.000586,-0.02,-0.27,9.81
48212811,0.003212,-0.001549,0.001545,0.00,-0.26,9.81
48213826,0.001081,-0.003680,0.002610,-0.01,-0.29,9.81
48214859,0.001067,-0.002558,0.003641,-0.01,-0.30,9.82
48215841,0.003198,-0.002558,0.002575,-0.01,-0.33,9.76
48216851,0.004263,-0.002558,0.000445,0.02,-0.30,9.73
48217861,0.002132,-0.002558,-0.001686,0.01,-0.28,9.77
48218878,0.000002,-0.002558,-0.002751,-0.02,-0.31,9.83
48219904,0.000002,-0.001493,0.000445,0.00,-0.29,9.84
48220891,-0.001063,0.001703,-0.000620,-0.04,-0.26,9.80
48221901,-0.002129,0.001703,-0.001686,-0.02,-0.24,9.75
48222911,-0.002129,-0.000428,-0.002751,-0.02,-0.26,9.76
48223925,-0.001063,-0.001493,-0.001686,-0.02,-0.29,9.80
48224934,0.001067,-0.000428,-0.000620,-0.05,-0.33,9.79
48225946,0.000002,0.002768,-0.000620,-0.04,-0.34,9.79
48226954,-0.002129,0.003833,0.001510,-0.02,-0.29,9.82
48227969,-0.004259,0.003833,0.000445,-0.01,-0.28,9.84
48228982,-0.004259,-0.000428,-0.002751,-0.03,-0.28,9.85
48230014,-0.001063,-0.003624,-0.004881,-0.06,-0.28,9.84
48230999,0.002132,-0.002558,-0.002751,-0.02,-0.30,9.82
48232012,0.004263,-0.001493,0.000445,-0.01,-0.29,9.79
48233021,0.004263,-0.001493,-0.000620,-0.03,-0.30,9.79
48234034,0.003198,-0.001493,-0.002751,-0.06,-0.33,9.78
48235045,0.001067,-0.001493,-0.002751,-0.04,-0.31,9.82
48236049,-0.001063,-0.000428,-0.002751,-0.01,-0.28,9.83
48237061,-0.001063,0.001703,-0.002751,-0.02,-0.29,9.76
48238070,-0.001063,0.002768,-0.001686,-0.01,-0.31,9.73
48239089,-0.002129,0.001703,0.001510,-0.02,-0.31,9.74
48240553,-0.004259,-0.000428,0.001510,-0.05,-0.26,9.81
48241088,-0.003194,-0.004689,-0.000620,-0.13,-0.18,9.82
48242084,0.019177,-0.021734,-0.003816,-0.04,-0.23,9.80
48243101,0.029830,-0.027060,-0.000620,0.04,-0.28,9.87
48244109,0.015981,-0.014277,0.010032,-0.04,-0.23,9.80
48245110,0.002132,-0.003624,0.018555,0.03,-0.22,9.75
48246125,-0.004259,0.000637,0.021751,0.06,-0.24,9.80
48247134,-0.005325,0.001703,0.022816,0.12,-0.34,9.62
48248142,0.000002,-0.000428,0.028142,0.00,-0.60,9.95
48249160,0.000002,-0.003624,0.032403,-0.39,-0.79,9.90
48250183,-0.007455,-0.001493,0.032403,-0.44,-0.21,9.74
48251171,0.008524,-0.006820,0.019620,-0.01,0.18,9.83
48252179,0.028764,-0.013211,-0.000620,0.39,-0.49,9.50
48253189,0.041548,-0.004689,-0.011273,0.16,-0.86,9.70
48254207,0.023438,0.002768,-0.007012,-0.40,-0.27,10.39
48255209,-0.009586,-0.005754,-0.005947,-0.38,-0.10,10.16
48256219,-0.015977,-0.016407,-0.018730,0.59,-0.91,9.34
48257229,0.011720,0.001703,-0.018730,0.25,-0.55,10.03
48258246,0.009589,0.019812,-0.005947,-1.01,0.74,10.22
48259256,-0.030891,-0.013211,-0.010208,0.15,-0.99,8.72
48260285,-0.010651,-0.018538,-0.012338,0.77,-1.09,9.67
48261271,0.028764,0.033661,-0.001686,-0.90,1.71,11.09
48262280,-0.013847,-0.003624,-0.003816,0.37,-1.31,9.21
48263290,-0.028761,-0.043039,0.003641,1.03,-0.75,9.81
48264308,0.036221,0.030465,0.012163,-1.40,1.31,10.25
48265310,0.025569,-0.000428,0.006837,0.43,-1.44,8.92
48266320,-0.040479,-0.027060,0.013228,0.26,0.10,10.90
48267330,0.003198,0.005964,0.006837,-0.34,-0.43,9.24
48268340,0.011720,0.003833,0.006837,0.10,-0.05,9.35
48269357,0.001067,0.000637,0.003641,0.01,-0.54,11.60
48270383,-0.007455,-0.023864,0.002575,0.45,0.03,7.24
48271371,-0.038348,0.027269,0.000445,-0.69,-0.45,12.35
48272379,0.002132,-0.019603,0.000445,0.62,-0.44,8.20
48273389,-0.015977,-0.005754,0.001510,-0.24,0.07,10.60
48274407,0.009589,-0.019603,0.003641,-0.11,-0.94,9.19
48275409,0.002132,-0.014277,0.004706,0.60,0.22,10.35
48276419,0.012785,0.004898,0.008967,-0.72,-0.76,10.01
48277429,-0.024500,-0.012146,0.006837,0.47,0.29,9.65
48278439,0.003198,0.002768,0.005771,-0.11,-1.05,10.44
48279456,0.011720,0.001703,0.007902,-0.85,-0.17,7.92
48280485,-0.031957,0.029400,0.005771,0.51,0.03,12.20
48281471,-0.031957,0.024074,0.005771,-0.55,-1.00,7.42
48282480,-0.024500,0.018747,0.002575,0.22,0.79,11.92
48283490,-0.004259,-0.000428,-0.001686,0.39,-0.68,9.00
48284508,-0.009586,-0.002558,-0.009143,-1.15,-0.83,8.57
48285510,-0.017043,0.026204,-0.012338,0.74,0.73,11.43
48286520,-0.001063,0.019812,-0.012338,0.21,-1.05,8.89
48287530,0.021307,0.002768,-0.010208,-1.14,-0.64,9.08
48288540,-0.011716,0.000637,-0.010208,0.83,0.62,11.88
48289557,-0.024500,0.000637,-0.014469,0.45,-0.83,9.04
48290583,-0.003194,0.001703,-0.018730,-1.21,-0.88,8.70
48291571,0.018112,0.004898,-0.017665,0.39,0.23,11.22
48292579,0.012785,0.000637,-0.013404,1.07,-0.11,10.15
48293589,-0.022369,-0.013211,-0.011273,-0.81,-1.01,8.21
48294607,-0.004259,-0.025995,-0.008077,-0.77,-0.58,10.06
48295609,0.013850,-0.023864,-0.004881,1.20,0.59,11.24
48296619,0.010655,-0.027060,0.000445,0.75,-0.10,9.56
48297629,0.004263,-0.022799,0.002575,-1.28,-1.27,8.70
48298639,-0.022369,0.004898,0.000445,-0.63,-0.27,10.22
48299656,-0.028761,0.024074,-0.002751,1.38,0.68,10.93
48300685,-0.010651,0.021943,0.000445,0.85,0.19,9.45
48301671,0.019177,0.005964,0.012163,-1.32,-0.96,8.66
48302680,0.021307,0.000637,0.021751,-1.13,-0.78,9.70
48303690,0.006393,-0.010015,0.014294,0.90,0.16,10.99
48304708,-0.007455,-0.007885,0.003641,1.40,0.47,10.75
48305710,0.013850,-0.014277,0.001510,-0.19,-0.23,9.09
48306720,0.027699,-0.020668,0.002575,-1.65,-1.35,8.68
48307730,0.021307,-0.006820,0.001510,-0.83,-0.95,9.76
48308740,0.003198,0.004898,-0.000620,0.93,-0.11,10.54
48309757,-0.004259,0.002768,-0.001686,1.39,0.48,10.62
48310783,0.006393,-0.005754,-0.001686,0.06,-0.04,9.41
48311771,0.000002,-0.014277,-0.001686,-1.15,-0.92,9.04
48312779,-0.006390,-0.011081,-0.000620,-1.21,-1.42,9.23
48313789,0.005328,0.000637,0.003641,-0.36,-1.11,9.98
48314807,0.001067,-0.002558,0.007902,1.01,0.30,11.28
48315809,-0.005325,-0.016407,0.012163,1.34,0.63,10.71
48316819,-0.012782,-0.031321,0.013228,0.38,0.29,9.51
48317829,-0.020239,-0.036647,0.014294,-0.78,-0.14,8.84
48318839,-0.009586,-0.021734,0.014294,-1.27,-0.80,8.70
48319856,-0.009586,0.002768,0.012163,-0.94,-1.09,9.30
48320885,-0.012782,0.013421,0.007902,0.17,-0.80,10.42
48321871,0.001067,0.010225,0.004706,1.13,0.12,11.17
48322880,0.014916,0.001703,0.004706,0.71,0.76,9.72
48323890,-0.012782,0.024074,0.003641,-0.04,0.40,9.25
48324911,0.007459,0.016617,0.005771,-0.63,-0.05,9.00
48325913,-0.018108,0.004898,0.002575,-1.09,-1.27,8.92
48326926,-0.015977,0.017682,-0.001686,-1.17,-1.83,9.15
48327935,0.054331,-0.002558,0.002575,-0.44,-1.37,10.00
48328960,0.093746,-0.051561,0.007902,0.51,-0.59,10.75
48329995,0.082028,-0.082455,0.007902,0.91,0.24,10.99
48330972,0.072441,-0.084585,0.005771,0.91,0.70,10.52
48331978,0.060723,-0.052627,0.001510,0.84,0.59,9.67
48332994,0.011720,0.017682,-0.002751,0.40,0.30,9.35
48334004,-0.024500,0.032596,-0.004881,-0.26,0.16,9.35
48335021,-0.005325,-0.002558,-0.004881,-0.56,-0.27,9.36
48336023,-0.007455,-0.013211,-0.008077,-0.95,-1.16,9.34
48337029,0.003198,0.000637,-0.013404,-1.23,-1.48,9.27
48338040,0.019177,-0.003624,-0.011273,-0.93,-1.18,9.62
48339064,0.003198,-0.014277,-0.008077,-0.55,-1.21,9.81
48340101,-0.027696,0.003833,-0.007012,-0.20,-0.81,9.93
48341071,-0.042609,0.026204,-0.010208,0.22,-0.34,10.14
48342089,-0.036218,0.021943,-0.011273,0.65,0.07,10.30
48343105,-0.019173,0.016617,-0.009143,0.78,0.47,10.49
48344095,0.004263,0.008094,-0.007012,0.87,0.52,10.33
48345155,0.011720,-0.008950,-0.007012,0.91,0.36,9.87
48346126,0.008524,-0.007885,-0.004881,0.74,0.30,9.87
48347137,0.004263,0.002768,-0.000620,0.53,0.27,9.91
48348134,0.008524,-0.005754,0.004706,0.38,0.06,9.71
48349153,-0.002129,-0.005754,0.004706,-0.01,0.02,9.91
48350192,0.010655,0.002768,0.007902,-0.32,-0.10,9.70
48351164,0.003198,-0.008950,0.007902,-0.04,-0.19,9.59
48352171,-0.025565,-0.008950,0.003641,-0.36,-0.62,9.71
48353181,-0.018108,0.010225,0.000445,-0.91,-0.77,9.50
48354191,0.019177,0.004898,0.000445,-0.39,-0.37,9.85
48355208,0.051135,-0.010015,-0.000620,-0.47,-0.99,9.71
48356211,0.050070,-0.010015,-0.000620,-1.07,-0.92,9.23
48357221,0.031960,-0.016407,-0.002751,-0.52,-0.44,9.51
48358231,0.039417,-0.030256,-0.004881,-0.08,-0.95,9.62
48359252,0.055396,-0.016407,-0.005947,-0.55,-0.66,9.40
48360289,0.030895,0.018747,-0.010208,-0.38,-0.57,9.51
48361261,-0.013847,0.041118,-0.012338,0.18,-0.77,9.98
48362270,-0.040479,0.037922,-0.009143,-0.21,-0.41,10.03
48363280,-0.005325,-0.002558,-0.008077,-0.25,-0.68,9.79
48364290,0.043678,-0.024929,-0.009143,0.39,-0.54,10.08
48365307,0.010655,0.010225,-0.011273,0.08,-0.28,10.28
48366310,-0.012782,0.019812,-0.012338,-0.14,-0.63,9.91
48367320,-0.014912,0.011290,-0.014469,0.43,-0.28,9.79
48368330,-0.004259,-0.003624,-0.009143,0.20,-0.11,10.30
48369351,-0.013847,0.010225,-0.008077,-0.07,-0.53,10.05
48370389,0.000002,0.002768,-0.008077,0.41,-0.18,9.63
48371364,-0.007455,0.001703,-0.005947,0.24,0.03,10.28
48372371,-0.001063,0.012355,-0.004881,-0.07,-0.42,9.98
48373381,0.005328,0.005964,-0.005947,0.33,-0.22,9.44
48374391,-0.004259,-0.002558,-0.003816,0.24,0.07,10.17
48375408,0.004263,0.001703,-0.002751,-0.08,-0.35,9.83
48376411,0.013850,-0.004689,0.000445,0.29,-0.24,9.43
48377421,-0.009586,-0.004689,0.003641,0.20,0.08,10.30
48378431,-0.013847,0.018747,0.002575,-0.19,-0.42,9.77
48379452,0.031960,0.008094,0.002575,0.17,-0.32,9.42
48380489,0.036221,-0.025995,0.003641,0.17,0.05,10.31
48381461,-0.015977,-0.000428,0.005771,-0.18,-0.58,9.62
48382470,-0.036218,0.029400,0.006837,0.19,-0.41,9.35
48383480,-0.021304,0.023008,0.010032,0.15,0.09,10.35
48384490,-0.002129,0.019812,0.007902,-0.29,-0.60,9.61
48385507,0.038352,0.003833,0.006837,0.08,-0.45,9.38
48386510,0.064984,-0.048366,0.005771,0.14,0.05,10.43
48387520,0.054331,-0.066475,0.004706,-0.26,-0.68,9.67
48388530,0.064984,-0.061149,0.003641,0.06,-0.44,9.42
48389551,0.059658,-0.074998,0.002575,0.05,0.07,10.44
48390589,0.029830,-0.065410,0.000445,-0.31,-0.72,9.54
48391564,0.044744,-0.052627,-0.002751,0.06,-0.37,9.31
48392571,0.055396,-0.069671,-0.003816,0.06,0.17,10.45
48393581,0.033025,-0.060084,-0.004881,-0.34,-0.69,9.66
48394591,0.035156,-0.038778,-0.007012,-0.02,-0.39,9.38
48395608,0.033025,-0.040909,-0.008077,0.00,0.08,10.43
48396611,0.012785,-0.016407,-0.008077,-0.28,-0.74,9.67
48397621,0.004263,0.018747,-0.005947,0.07,-0.33,9.45
48398631,-0.015977,0.028335,-0.003816,0.06,0.08,10.40
48399652,-0.038348,0.047510,-0.002751,-0.28,-0.84,9.63
48400689,-0.015977,0.043249,-0.002751,0.01,-0.33,9.36
48401661,-0.005325,-0.001493,-0.004881,-0.01,0.04,10.41
48402670,-0.010651,-0.024929,-0.007012,-0.29,-0.88,9.69
48403680,0.006393,-0.027060,-0.005947,0.03,-0.34,9.51
48404690,-0.006390,-0.023864,-0.001686,0.00,-0.12,10.34
48405707,-0.047936,0.018747,-0.000620,-0.30,-0.92,9.79
48406710,-0.033022,0.043249,-0.002751,-0.01,-0.17,9.44
48407720,0.004263,0.012355,-0.002751,-0.14,-0.08,10.39
48408730,0.013850,-0.010015,-0.003816,-0.35,-0.84,9.79
48409751,0.036221,-0.029190,-0.002751,0.10,-0.12,9.47
48410789,0.015981,-0.044104,0.000445,0.00,-0.17,9.85
48411764,-0.033022,-0.002558,0.000445,-0.32,-0.89,9.52
48412771,-0.033022,0.031531,0.000445,0.01,-0.05,9.79
48413781,-0.009586,0.012355,0.002575,-0.17,-0.14,10.55
48414791,-0.004259,-0.010015,0.000445,-0.39,-0.95,10.05
48415808,0.012785,-0.022799,0.000445,0.13,0.12,9.44
48416811,-0.014912,-0.012146,0.000445,-0.09,-0.09,9.72
48417821,-0.040479,0.026204,0.000445,-0.38,-0.92,9.44
48418831,-0.002129,0.013421,0.001510,0.13,0.13,9.76
48419883,0.033025,-0.037713,0.001510,-0.06,-0.15,9.89
48420857,0.011720,-0.033452,-0.001686,-0.35,-0.87,9.65
48421860,-0.013847,0.004898,-0.002751,0.19,0.11,9.94
48422870,-0.037283,0.025139,-0.001686,-0.11,-0.23,10.14
48423880,0.036221,-0.022799,-0.001686,0.25,0.20,9.90
48424890,0.027699,-0.047300,-0.003816,-0.10,-0.19,9.59
48425912,-0.027696,-0.003624,-0.008077,-0.27,-0.83,9.08
48426914,-0.054328,0.043249,-0.011273,0.28,0.20,9.91
48427927,-0.035152,0.037922,-0.009143,-0.11,-0.16,9.92
48428948,0.005328,0.000637,-0.007012,-0.26,-0.76,9.40
48429985,0.040482,-0.041974,-0.004881,0.28,0.20,10.09
48430965,0.013850,-0.037713,-0.004881,-0.11,-0.05,9.85
48431970,-0.033022,0.013421,-0.007012,-0.23,-0.70,9.27
48432980,-0.038348,0.031531,-0.008077,0.32,0.12,9.94
48433993,-0.010651,0.008094,-0.005947,-0.01,0.02,9.72
48435003,0.005328,-0.012146,-0.005947,-0.15,-0.64,9.20
48436021,0.008524,-0.017472,-0.002751,0.33,0.14,10.00
48437024,-0.022369,0.003833,-0.002751,-0.04,0.07,10.06
48438046,-0.030891,0.025139,-0.003816,-0.14,-0.75,9.50
48439053,0.010655,-0.005754,-0.002751,0.34,-0.01,10.10
48440088,0.027699,-0.034517,-0.002751,-0.05,0.15,10.00
48441067,-0.002129,-0.006820,-0.005947,-0.09,-0.63,9.27
48442067,-0.022369,0.023008,-0.005947,0.30,-0.08,9.90
48443079,-0.041544,0.032596,-0.003816,-0.12,0.10,9.98
48444084,-0.014912,0.015551,-0.000620,-0.06,-0.62,9.37
48445111,0.036221,-0.032386,0.001510,0.28,-0.09,10.01
48446108,0.034091,-0.047300,-0.001686,-0.20,0.10,10.11
48447110,-0.014912,0.003833,-0.007012,-0.07,-0.52,9.57
48448124,-0.043675,0.042183,-0.008077,0.24,-0.14,10.06
48449144,-0.043675,0.035792,-0.008077,-0.25,0.16,10.07
48450180,0.003198,0.000637,-0.004881,-0.06,-0.46,9.50
48451162,0.047939,-0.049431,0.000445,0.24,-0.23,9.89
48452161,0.024503,-0.048366,0.000445,-0.20,0.09,10.05
48453171,-0.030891,0.013421,-0.004881,0.05,-0.40,9.72
48454181,-0.052197,0.049640,-0.008077,0.28,-0.23,10.07
48455191,-0.034087,0.038987,-0.005947,-0.22,0.02,10.10
48456208,0.020242,-0.002558,-0.002751,0.10,-0.26,9.85
48457211,0.054331,-0.050496,0.000445,0.33,-0.18,10.10
48458221,0.019177,-0.041974,-0.001686,-0.16,0.02,10.05
48459242,-0.039414,0.019812,-0.008077,0.20,-0.23,9.79
48460278,-0.053262,0.048575,-0.010208,0.34,-0.24,9.88
48461257,-0.037283,0.036857,-0.008077,-0.21,0.00,9.90
48462260,0.012785,-0.001493,-0.004881,0.24,-0.10,9.97
48463270,0.046874,-0.051561,-0.000620,0.33,-0.31,10.05
48464280,0.018112,-0.046235,-0.000620,-0.30,-0.11,9.99
48465290,-0.030891,0.014486,-0.004881,0.25,-0.06,10.10
48466307,-0.049001,0.044314,-0.008077,0.34,-0.30,10.01
48467310,-0.050066,0.041118,-0.009143,-0.33,-0.22,9.83
48468320,-0.003194,0.013421,-0.007012,0.20,-0.12,9.95
48469341,0.047939,-0.039843,-0.002751,0.26,-0.27,9.88
48470378,0.034091,-0.052627,-0.002751,-0.40,-0.23,9.82
48471360,-0.007455,-0.004689,-0.005947,0.22,0.00,10.17
48472361,-0.026630,0.028335,-0.007012,0.22,-0.31,10.02
48473371,-0.047936,0.043249,-0.007012,-0.46,-0.42,9.76
48474381,-0.037283,0.041118,-0.005947,0.27,-0.02,10.10
48475391,-0.004259,0.003833,-0.003816,0.23,-0.34,9.86
48476408,0.008524,-0.025995,-0.003816,-0.48,-0.53,9.58
48477411,0.017046,-0.028125,-0.004881,0.29,-0.03,10.05
48478421,0.022373,-0.033452,-0.001686,0.24,-0.27,9.95
48479442,-0.005325,-0.008950,-0.000620,-0.46,-0.57,9.62
48480478,-0.038348,0.042183,-0.002751,0.33,-0.02,10.11
48481457,-0.043675,0.051771,-0.003816,0.27,-0.22,9.99
48482460,-0.039414,0.037922,-0.003816,-0.45,-0.53,9.52
48483470,-0.002129,0.009160,-0.001686,0.35,0.03,10.01
48484480,0.034091,-0.034517,0.000445,0.28,-0.16,9.95
48485490,0.020242,-0.043039,-0.002751,-0.48,-0.61,9.42
48486507,0.005328,-0.016407,-0.007012,0.33,0.00,10.05
48487510,0.007459,-0.012146,-0.007012,0.29,-0.05,10.06
48488520,-0.021304,0.016617,-0.007012,-0.51,-0.63,9.42
48489530,-0.056458,0.068815,-0.005947,0.32,-0.06,10.02
48490565,-0.059654,0.069881,-0.004881,0.28,-0.11,10.01
48491557,-0.052197,0.050706,-0.003816,-0.49,-0.73,9.44
48492559,-0.008520,0.017682,-0.002751,0.36,-0.07,10.12
48493569,0.028764,-0.034517,-0.000620,0.27,-0.03,10.02
48494579,0.024503,-0.050496,0.000445,-0.58,-0.77,9.18
48495589,0.030895,-0.037713,0.001510,0.29,-0.18,9.92
48496606,0.034091,-0.039843,0.003641,0.24,-0.06,10.10
48497609,0.005328,-0.014277,0.003641,-0.57,-0.80,9.32
48498619,-0.022369,0.042183,-0.002751,0.29,-0.20,10.00
48499629,-0.029826,0.059228,-0.003816,0.24,0.00,10.09
48500667,-0.055393,0.067750,-0.003816,-0.55,-0.82,9.20
48501657,-0.052197,0.068815,-0.002751,0.31,-0.23,9.88
48502660,-0.025565,0.030465,-0.001686,0.24,0.01,10.15
48503670,-0.002129,-0.004689,-0.000620,-0.58,-0.88,9.28
48504680,0.050070,-0.036647,0.003641,0.28,-0.26,9.87
48505690,0.072441,-0.074998,0.007902,0.27,0.09,10.18
48506707,0.041548,-0.064345,0.006837,-0.54,-0.82,9.29
48507710,0.025569,-0.021734,0.003641,0.27,-0.26,9.94
48508720,0.025569,-0.003624,0.003641,0.26,0.11,10.25
48509730,-0.008520,0.028335,0.002575,-0.55,-0.82,9.21
48510765,-0.037283,0.069881,0.000445,0.29,-0.22,9.79
48511757,-0.036218,0.069881,0.000445,0.31,0.19,10.20
48512759,-0.043675,0.059228,0.001510,-0.55,-0.85,9.20
48513769,-0.019173,0.038987,0.002575,0.27,-0.29,9.83
48514779,0.022373,-0.012146,0.004706,0.28,0.24,10.27
48515789,0.023438,-0.039843,0.002575,-0.56,-0.84,9.25
48516806,0.045809,-0.051561,0.003641,0.26,-0.34,9.82
48517809,0.058592,-0.077128,0.007902,0.28,0.15,10.21
48518819,0.033025,-0.062214,0.006837,-0.57,-0.91,9.21
48519829,0.033025,-0.027060,0.004706,0.22,-0.38,9.81
48520867,0.040482,-0.019603,0.004706,0.23,0.16,10.25
48521857,0.010655,0.010225,0.003641,-0.59,-0.89,9.15
48522860,-0.012782,0.052836,0.001510,0.17,-0.43,9.69
48523870,-0.018108,0.056032,0.002575,0.17,0.21,10.35
48524880,-0.040479,0.058163,0.003641,-0.57,-0.89,9.26
48525890,-0.007455,0.019812,0.004706,0.23,0.28,10.40
48526912,-0.011716,0.004898,0.003641,-0.52,-0.85,9.25
48527913,0.022373,-0.014277,0.004706,0.15,-0.51,9.60
48528925,0.044744,-0.049431,0.005771,0.23,0.24,10.33
48529964,0.034091,-0.053692,0.006837,-0.48,-0.84,9.31
48530950,0.046874,-0.049431,0.004706,0.17,-0.49,9.72
48531963,0.049005,-0.064345,0.004706,0.21,0.26,10.47
48532964,0.024503,-0.050496,0.002575,-0.51,-0.84,9.23
48533975,0.029830,-0.030256,0.002575,0.20,-0.49,9.50
48534986,0.037287,-0.035582,0.002575,0.26,0.31,10.40
48536003,0.009589,-0.008950,0.002575,-0.48,-0.73,9.30
48537019,-0.002129,0.032596,0.001510,0.20,-0.52,9.49
48538019,-0.003194,0.035792,0.001510,0.25,0.23,10.27
48539030,-0.028761,0.048575,-0.000620,-0.49,-0.71,9.19
48540066,-0.031957,0.060293,-0.000620,0.16,-0.48,9.46
48541054,-0.029826,0.043249,-0.000620,0.22,0.30,10.33
48542067,-0.053262,0.056032,-0.002751,-0.48,-0.76,9.28
48543070,-0.059654,0.067750,-0.002751,0.16,-0.51,9.54
48544078,-0.052197,0.042183,-0.001686,0.22,0.32,10.37
48545084,-0.051132,0.030465,0.000445,-0.48,-0.84,9.27
48546094,-0.018108,0.018747,0.001510,0.11,-0.56,9.49
48547145,0.010655,-0.014277,0.001510,0.22,0.27,10.32
48548110,0.006393,-0.019603,-0.001686,-0.44,-0.82,9.30
48549125,0.036221,-0.033452,-0.000620,0.14,-0.57,9.55
48550159,0.041548,-0.059018,0.001510,0.28,0.27,10.47
48551142,0.019177,-0.051561,-0.000620,-0.44,-0.81,9.34
48552159,0.028764,-0.043039,-0.001686,0.03,-0.62,9.44
48553159,0.043678,-0.060084,-0.001686,0.21,0.29,10.43
48554169,0.030895,-0.061149,-0.000620,-0.40,-0.65,9.33
48555179,0.042613,-0.060084,-0.001686,0.10,-0.55,9.39
48556189,0.046874,-0.074998,-0.001686,0.22,0.27,10.37
48557206,0.027699,-0.068606,-0.003816,-0.37,-0.64,9.35
48558209,0.037287,-0.053692,-0.004881,0.14,-0.57,9.48
48559219,0.049005,-0.066475,-0.004881,0.26,0.32,10.45
48560257,0.028764,-0.053692,-0.005947,-0.40,-0.68,9.34
48561240,0.023438,-0.029190,-0.007012,0.15,-0.58,9.52
48562257,0.030895,-0.044104,-0.005947,0.27,0.36,10.55
48563260,0.019177,-0.039843,-0.003816,-0.39,-0.68,9.42
48564270,0.030895,-0.028125,-0.001686,0.13,-0.65,9.42
48565280,0.037287,-0.045170,0.000445,0.25,0.33,10.45
48566290,0.009589,-0.033452,-0.002751,-0.41,-0.62,9.48
48567307,0.007459,-0.007885,-0.005947,0.03,-0.61,9.46
48568310,0.020242,-0.017472,-0.002751,0.16,0.24,10.45
48569320,0.010655,-0.011081,-0.002751,-0.41,-0.72,9.41
48570355,0.013850,0.004898,-0.003816,0.08,-0.55,9.46
48571340,0.026634,-0.013211,-0.001686,0.19,0.24,10.46
48572356,0.012785,-0.007885,-0.003816,-0.40,-0.71,9.44
48573359,0.012785,0.009160,-0.004881,0.10,-0.60,9.48
48574369,0.024503,-0.005754,-0.001686,0.18,0.26,10.39
48575379,0.004263,-0.003624,-0.003816,-0.43,-0.65,9.39
48576389,0.009589,0.011290,-0.004881,0.09,-0.61,9.45
48577406,0.022373,-0.004689,-0.001686,0.23,0.25,10.49
48578409,0.005328,-0.001493,-0.001686,-0.41,-0.66,9.49
48579419,0.005328,0.017682,-0.003816,0.07,-0.62,9.48
48580457,0.020242,-0.000428,-0.000620,0.23,0.24,10.52
48581440,0.006393,-0.001493,0.000445,-0.38,-0.63,9.49
48582457,0.014916,0.007029,-0.000620,0.08,-0.55,9.45
48583460,0.026634,-0.012146,-0.001686,0.20,0.28,10.51
48584470,0.019177,-0.015342,-0.002751,-0.40,-0.61,9.49
48585480,0.024503,-0.006820,-0.003816,0.07,-0.53,9.46
48586490,0.045809,-0.032386,0.000445,0.20,0.27,10.52
48587507,0.036221,-0.030256,0.002575,-0.42,-0.69,9.44
48588510,0.056462,-0.021734,0.002575,0.09,-0.57,9.43
48589520,0.073506,-0.051561,0.002575,0.25,0.31,10.49
48590555,0.052201,-0.049431,0.001510,-0.42,-0.63,9.44
48591540,0.070310,-0.045170,0.002575,0.08,-0.58,9.41
48592556,0.086290,-0.065410,0.004706,0.21,0.22,10.49
48593559,0.056462,-0.052627,0.002575,-0.38,-0.63,9.46
48594569,0.064984,-0.040909,0.001510,0.12,-0.51,9.41
48595579,0.068180,-0.060084,0.003641,0.20,0.27,10.54
48596589,0.035156,-0.049431,0.001510,-0.41,-0.66,9.51
48597606,0.039417,-0.035582,0.001510,0.09,-0.53,9.43
48598609,0.034091,-0.048366,0.003641,0.23,0.30,10.55
48599619,0.000002,-0.031321,0.002575,-0.39,-0.65,9.50
48600657,0.004263,-0.016407,0.001510,0.10,-0.53,9.41
48601640,0.006393,-0.033452,0.001510,0.22,0.27,10.48
48602657,-0.017043,-0.021734,0.000445,-0.42,-0.69,9.38
48603660,0.003198,-0.015342,0.003641,0.15,-0.50,9.42
48604670,0.011720,-0.038778,0.005771,0.24,0.28,10.58
48605680,-0.009586,-0.030256,0.002575,-0.43,-0.71,9.45
48606690,0.005328,-0.019603,-0.000620,0.16,-0.55,9.46
48607707,0.019177,-0.041974,-0.000620,0.22,0.28,10.53
48608710,0.004263,-0.037713,-0.003816,-0.47,-0.74,9.31
48609720,0.029830,-0.030256,-0.003816,0.13,-0.56,9.43
48610755,0.049005,-0.060084,-0.000620,0.24,0.36,10.59
48611740,0.030895,-0.059018,-0.000620,-0.43,-0.67,9.44
48612756,0.047939,-0.043039,-0.000620,0.12,-0.54,9.49
48613759,0.063919,-0.065410,-0.001686,0.19,0.29,10.58
48614769,0.046874,-0.067541,-0.003816,-0.43,-0.74,9.38
48615779,0.063919,-0.049431,-0.002751,0.16,-0.53,9.44
48616789,0.076702,-0.069671,0.000445,0.21,0.24,10.50
48617806,0.044744,-0.065410,-0.003816,-0.46,-0.88,9.31
48618809,0.034091,-0.035582,-0.007012,0.11,-0.52,9.43
48619819,0.045809,-0.051561,-0.005947,0.20,0.37,10.54
48620857,0.029830,-0.041974,-0.004881,-0.42,-0.82,9.41
48621840,0.027699,-0.007885,-0.003816,0.12,-0.51,9.47
48622857,0.029830,-0.016407,-0.000620,0.19,0.41,10.58
48623860,0.004263,-0.003624,-0.002751,-0.42,-0.86,9.43
48624870,-0.002129,0.027269,-0.004881,0.08,-0.53,9.45
48625880,-0.001063,0.024074,-0.001686,0.15,0.40,10.56
48626890,-0.028761,0.059228,0.001510,0.13,-0.50,9.42
48627912,-0.036218,0.049640,-0.000620,0.20,0.43,10.59
48628914,-0.051132,0.063489,-0.000620,-0.37,-0.83,9.42
48629951,-0.046871,0.073076,0.000445,0.12,-0.48,9.40
48630936,-0.057523,0.057097,0.001510,0.17,0.39,10.56
48631949,-0.074568,0.060293,0.000445,-0.42,-0.87,9.38
48632963,-0.052197,0.050706,0.001510,0.06,-0.51,9.27
48633965,-0.050066,0.017682,-0.000620,0.12,0.37,10.64
48634978,-0.063915,0.015551,-0.003816,-0.43,-0.85,9.58
48635988,-0.025565,0.011290,0.000445,0.08,-0.56,9.38
48637005,-0.002129,-0.024929,0.003641,0.21,0.30,10.52
48638015,-0.014912,-0.027060,0.001510,-0.37,-0.83,9.42
48639023,0.025569,-0.024929,0.002575,0.04,-0.53,9.32
48640062,0.053266,-0.057953,0.003641,0.11,0.28,10.66
48641037,0.031960,-0.059018,0.001510,-0.44,-0.85,9.60
48642045,0.052201,-0.041974,0.000445,0.03,-0.50,9.33
48643078,0.071376,-0.066475,0.001510,0.20,0.30,10.48
48644071,0.041548,-0.059018,-0.001686,-0.31,-0.82,9.51
48645077,0.038352,-0.030256,-0.003816,0.04,-0.50,9.35
48646084,0.046874,-0.039843,-0.001686,0.11,0.25,10.53
48647095,0.024503,-0.022799,-0.000620,-0.36,-0.85,9.47
48648108,0.018112,0.008094,0.000445,0.07,-0.46,9.26
48649110,0.013850,0.011290,0.001510,0.14,0.30,10.67
48650152,-0.010651,0.035792,0.001510,-0.36,-0.86,9.62
48651134,-0.018108,0.062424,0.000445,0.10,-0.50,9.24
48652141,-0.030891,0.059228,0.000445,0.17,0.22,10.55
48653159,-0.049001,0.072011,0.001510,-0.37,-0.80,9.53
48654159,-0.040479,0.063489,0.002575,0.05,-0.40,9.29
48655169,-0.053262,0.031531,0.002575,0.17,0.27,10.53
48656179,-0.064980,0.033661,0.003641,-0.34,-0.79,9.47
48657189,-0.025565,0.030465,0.006837,0.04,-0.47,9.28
48658206,-0.011716,-0.006820,0.008967,0.13,0.21,10.60
48659209,-0.015977,-0.015342,0.006837,-0.33,-0.74,9.69
48660247,0.030895,-0.023864,0.006837,0.06,-0.48,9.28
48661230,0.055396,-0.064345,0.006837,0.14,0.06,10.47
48662240,0.035156,-0.063279,0.004706,-0.34,-0.86,9.61
48663257,0.055396,-0.049431,0.006837,0.08,-0.39,9.25
48664260,0.071376,-0.071802,0.008967,0.16,0.18,10.44
48665270,0.045809,-0.055823,0.004706,-0.39,-0.86,9.59
48666280,0.044744,-0.023864,0.002575,-0.01,-0.40,9.32
48667290,0.041548,-0.024929,0.003641,0.13,0.22,10.56
48668307,0.008524,0.000637,0.000445,-0.34,-0.85,9.66
48669310,0.001067,0.027269,-0.000620,0.01,-0.36,9.37
48670345,-0.007455,0.024074,-0.001686,0.12,0.24,10.56
48671330,-0.028761,0.045379,-0.000620,-0.33,-0.85,9.52
48672339,-0.025565,0.053901,0.000445,0.05,-0.37,9.23
48673356,-0.040479,0.041118,-0.001686,0.14,0.14,10.43
48674359,-0.059654,0.051771,-0.001686,-0.31,-0.81,9.56
48675369,-0.039414,0.045379,0.000445,0.05,-0.32,9.27
48676379,-0.042609,0.016617,0.001510,0.10,0.16,10.49
48677389,-0.052197,0.016617,0.003641,-0.36,-0.79,9.70
48678406,-0.010651,0.005964,0.005771,0.05,-0.29,9.34
48679409,0.007459,-0.032386,0.005771,0.16,0.11,10.37
48680447,0.001067,-0.034517,0.003641,-0.34,-0.89,9.57
48681430,0.045809,-0.037713,0.004706,0.01,-0.31,9.38
48682440,0.069245,-0.072867,0.003641,0.14,0.16,10.51
48683457,0.041548,-0.066475,0.000445,-0.32,-0.79,9.64
48684460,0.052201,-0.045170,0.000445,0.02,-0.33,9.24
48685470,0.058592,-0.055823,0.002575,0.10,0.07,10.35
48686480,0.027699,-0.033452,-0.000620,-0.32,-0.81,9.67
48687490,0.019177,0.000637,-0.001686,0.02,-0.28,9.39
48688507,0.010655,0.004898,-0.001686,0.05,0.10,10.39
48689510,-0.015977,0.032596,-0.002751,-0.31,-0.81,9.59
48690545,-0.017043,0.051771,-0.004881,0.07,-0.19,9.34
48691530,-0.030891,0.043249,-0.004881,0.10,0.09,10.35
48692539,-0.050066,0.059228,-0.000620,-0.28,-0.93,9.69
48693556,-0.045805,0.064554,0.001510,0.07,-0.16,9.43
48694559,-0.061784,0.048575,0.001510,0.01,0.03,10.33
48695569,-0.071372,0.048575,-0.000620,-0.33,-0.89,9.62
48696579,-0.041544,0.028335,-0.001686,0.11,-0.10,9.39
48697589,-0.034087,-0.010015,-0.001686,0.09,-0.01,10.10
48698606,-0.030891,-0.013211,-0.003816,-0.34,-0.90,9.58
48699609,0.019177,-0.025995,-0.001686,0.04,-0.11,9.48
48700647,0.042613,-0.065410,0.000445,0.05,0.04,10.44
48701630,0.025569,-0.064345,-0.002751,-0.29,-0.91,9.81
48702640,0.053266,-0.056888,-0.002751,0.11,-0.13,9.51
48703657,0.066049,-0.076063,-0.002751,0.12,0.00,10.15
48704660,0.036221,-0.050496,-0.005947,-0.30,-0.95,9.56
48705670,0.036221,-0.017472,-0.007012,0.05,-0.03,9.54
48706680,0.029830,-0.022799,-0.002751,0.05,0.03,10.39
48707690,-0.001063,0.004898,-0.003816,-0.30,-0.93,9.77
48708707,-0.006390,0.033661,-0.005947,0.15,0.03,9.51
48709710,-0.019173,0.034726,-0.005947,0.06,-0.06,10.00
48710745,-0.041544,0.060293,-0.002751,-0.33,-0.96,9.46
48711730,-0.041544,0.078403,0.000445,0.11,0.05,9.54
48712739,-0.057523,0.073076,0.001510,0.03,-0.02,10.29
48713756,-0.074568,0.076272,0.000445,-0.34,-0.99,9.72
48714759,-0.056458,0.053901,0.001510,0.18,0.10,9.43
48715769,-0.058589,0.019812,0.000445,0.10,-0.01,10.05
48716779,-0.057523,0.021943,0.001510,-0.34,-0.98,9.59
48717789,-0.013847,0.009160,0.004706,0.12,0.07,9.58
48718806,-0.002129,-0.027060,0.005771,0.06,-0.06,10.16
48719809,-0.004259,-0.029190,0.002575,-0.33,-0.99,9.61
48720847,0.039417,-0.037713,0.003641,0.12,0.06,9.46
48721830,0.056462,-0.069671,0.003641,0.05,-0.07,10.13
48722840,0.034091,-0.054757,-0.000620,-0.32,-1.01,9.65
48723857,0.055396,-0.040909,-0.000620,0.14,0.12,9.62
48724860,0.068180,-0.060084,0.000445,0.03,-0.05,10.11
48725870,0.040482,-0.036647,-0.002751,-0.34,-0.94,9.65
48726880,0.036221,-0.008950,-0.000620,0.15,0.14,9.63
48727890,-0.003194,0.027269,0.000445,-0.35,-1.01,9.58
48728911,-0.007455,0.051771,-0.001686,0.17,0.20,9.69
48729940,-0.026630,0.051771,-0.002751,0.07,-0.05,10.16
48730925,-0.047936,0.068815,-0.002751,-0.31,-1.03,9.50
48731934,-0.043675,0.067750,-0.002751,0.21,0.17,9.59
48732948,-0.061784,0.050706,-0.000620,0.06,-0.11,10.05
48733963,-0.064980,0.058163,0.002575,-0.30,-0.98,9.56
48734964,-0.025565,0.037922,0.007902,0.20,0.27,9.82
48735975,-0.020239,-0.002558,0.007902,-0.01,-0.11,10.13
48736986,-0.017043,-0.011081,0.004706,-0.36,-1.06,9.44
48738003,0.033025,-0.032386,0.006837,0.24,0.28,9.53
48739019,0.053266,-0.070736,0.006837,0.09,-0.03,9.91
48740053,0.044744,-0.057953,0.001510,-0.28,-1.06,9.47
48741030,0.071376,-0.051561,0.002575,0.18,0.19,9.66
48742036,0.075637,-0.072867,0.004706,-0.02,-0.13,9.95
48743055,0.045809,-0.045170,0.002575,-0.31,-1.03,9.46
48744069,0.045809,-0.013211,0.001510,0.22,0.28,9.75
48745073,0.025569,-0.003624,0.001510,0.01,-0.06,10.02
48746084,-0.005325,0.032596,-0.000620,-0.37,-1.04,9.42
48747088,-0.007455,0.051771,-0.000620,0.12,0.29,9.61
48748094,-0.030891,0.048575,-0.000620,0.00,-0.03,10.02
48749108,-0.056458,0.063489,-0.000620,-0.25,-1.02,9.52
48750138,-0.043675,0.051771,0.000445,0.26,0.28,9.77
48751125,-0.050066,0.026204,-0.000620,-0.02,-0.16,9.86
48752155,-0.041544,0.027269,0.000445,-0.34,-1.06,9.34
48753141,0.010655,-0.000428,0.004706,0.23,0.31,9.76
48754159,0.024503,-0.044104,0.005771,0.02,-0.07,10.13
48755159,0.015981,-0.045170,0.002575,-0.23,-1.00,9.54
48756169,0.058592,-0.055823,0.004706,0.25,0.24,9.68
48757179,0.071376,-0.081389,0.005771,-0.07,-0.17,9.68
48758189,0.047939,-0.055823,0.002575,-0.30,-1.02,9.31
48759206,0.046874,-0.024929,0.001510,0.25,0.34,9.87
48760237,0.031960,-0.013211,0.003641,-0.08,-0.08,10.22
48761220,-0.007455,0.021943,-0.000620,-0.24,-1.01,9.47
48762230,-0.014912,0.036857,-0.003816,0.32,0.30,9.61
48763240,-0.037283,0.038987,-0.005947,-0.06,-0.08,9.81
48764257,-0.052197,0.060293,-0.001686,-0.30,-1.04,9.33
48765260,-0.044740,0.051771,0.003641,0.23,0.26,9.87
48766270,-0.053262,0.023008,0.004706,-0.04,0.01,10.16
48767280,-0.039414,0.009160,0.002575,-0.21,-0.98,9.44
48768290,0.015981,-0.028125,0.003641,0.32,0.22,9.64
48769307,0.030895,-0.067541,0.001510,-0.04,-0.11,9.80
48770335,0.033025,-0.055823,-0.000620,-0.30,-0.95,9.17
48771320,0.067114,-0.050496,-0.000620,0.22,0.35,9.78
48772329,0.067114,-0.061149,-0.000620,-0.13,-0.04,10.15
48773339,0.026634,-0.030256,-0.004881,-0.27,-1.02,9.36
48774356,0.018112,-0.002558,-0.008077,0.32,0.23,9.59
48775359,-0.002129,0.013421,-0.009143,-0.04,0.02,9.95
48776369,-0.036218,0.053901,-0.008077,-0.18,-0.93,9.35
48777379,-0.050066,0.065620,-0.005947,0.33,0.24,9.86
48778389,-0.073503,0.052836,-0.001686,-0.07,0.03,10.20
48779406,-0.070307,0.043249,0.002575,-0.22,-0.97,9.36
48780437,-0.026630,0.002768,0.004706,0.32,0.17,9.55
48781420,-0.014912,-0.035582,0.003641,-0.05,0.03,9.90
48782430,0.004263,-0.029190,0.002575,-0.20,-0.87,9.28
48783440,0.061788,-0.045170,0.002575,0.31,0.22,9.79
48784457,0.070310,-0.071802,-0.000620,-0.12,0.01,10.07
48785460,0.037287,-0.044104,-0.007012,-0.19,-0.86,9.37
48786470,0.030895,-0.019603,-0.008077,0.35,0.20,9.74
48787480,0.000002,-0.000428,-0.008077,-0.13,-0.01,10.08
48788490,-0.037283,0.050706,-0.009143,-0.19,-0.91,9.36
48789507,-0.050066,0.069881,-0.007012,0.32,0.15,9.75
48790535,-0.071372,0.060293,-0.004881,-0.13,0.02,10.05
48791520,-0.064980,0.054967,-0.003816,-0.11,-0.77,9.33
48792529,-0.019173,0.012355,-0.000620,0.37,0.18,9.59
48793539,-0.003194,-0.036647,0.000445,-0.16,-0.02,9.98
48794556,0.017046,-0.041974,-0.000620,-0.15,-0.74,9.38
48795559,0.063919,-0.059018,0.000445,0.31,0.16,9.82
48796569,0.060723,-0.070736,0.000445,-0.18,-0.02,10.16
48797579,0.021307,-0.021734,-0.004881,-0.08,-0.68,9.46
48798589,0.008524,0.014486,-0.007012,0.33,0.06,9.63
48799606,-0.025565,0.031531,-0.005947,-0.22,-0.11,9.94
48800637,-0.056458,0.063489,-0.001686,-0.08,-0.64,9.41
48801620,-0.060719,0.063489,0.000445,0.34,0.14,9.77
48802630,-0.067111,0.040053,0.001510,-0.20,0.00,10.17
48803640,-0.036218,0.025139,0.000445,-0.04,-0.61,9.58
48804657,0.023438,-0.021734,0.002575,0.29,0.07,9.70
48805660,0.037287,-0.063279,0.001510,-0.25,-0.08,10.02
48806670,0.030895,-0.039843,-0.002751,0.01,-0.61,9.54
48807680,0.047939,-0.027060,-0.003816,0.32,0.01,9.66
48808690,0.012785,-0.014277,-0.004881,-0.24,-0.07,10.00
48809707,-0.037283,0.040053,-0.005947,0.06,-0.53,9.69
48810735,-0.043675,0.063489,-0.004881,0.34,0.03,9.85
48811720,-0.061784,0.057097,-0.002751,-0.25,-0.22,9.96
48812729,-0.046871,0.052836,-0.001686,0.12,-0.47,9.65
48813739,0.001067,0.011290,0.001510,0.34,0.08,9.83
48814756,0.020242,-0.040909,0.000445,-0.29,-0.16,10.00
48815759,0.026634,-0.040909,-0.001686,0.08,-0.40,9.70
48816769,0.040482,-0.036647,-0.000620,0.27,-0.01,9.67
48817779,0.021307,-0.022799,-0.001686,-0.31,-0.23,9.75
48818789,-0.005325,0.029400,-0.002751,0.17,-0.27,9.85
48819806,-0.021304,0.052836,-0.001686,0.30,0.03,9.94
48820837,-0.059654,0.054967,-0.000620,-0.28,-0.17,9.90
48821820,-0.052197,0.052836,-0.000620,0.18,-0.37,9.73
48822830,0.004263,0.002768,0.003641,0.24,-0.15,9.71
48823840,0.025569,-0.050496,0.005771,-0.32,-0.33,9.72
48824857,0.037287,-0.048366,0.002575,0.23,-0.18,10.04
48825860,0.037287,-0.032386,0.000445,0.24,-0.05,10.09
48826870,0.011720,-0.002558,0.000445,-0.35,-0.29,9.87
48827880,-0.011716,0.045379,0.000445,0.27,-0.18,9.92
48828890,-0.011716,0.049640,0.002575,0.18,-0.19,9.71
48829931,-0.013847,0.020878,0.005771,0.28,-0.15,10.16
48830913,0.011720,-0.014277,0.006837,0.29,-0.05,10.37
48831925,0.020242,-0.038778,0.005771,-0.48,-0.52,9.76
48832935,0.046874,-0.040909,0.003641,0.27,-0.12,9.89
48833949,0.079898,-0.052627,0.005771,0.33,-0.04,9.61
48834963,0.040482,-0.032386,0.004706,-0.45,-0.45,9.36
48835965,-0.003194,0.023008,0.003641,0.27,-0.14,10.18
48836978,-0.021304,0.037922,0.004706,0.21,-0.09,10.00
48837988,-0.044740,0.042183,0.000445,-0.46,-0.51,9.63
48839005,-0.040479,0.058163,0.000445,0.33,-0.15,10.12
48840038,-0.017043,0.031531,0.003641,0.25,-0.13,9.97
48841023,-0.019173,0.004898,0.003641,-0.51,-0.63,9.49
48842031,0.019177,-0.003624,0.004706,0.29,-0.17,10.12
48843038,0.067114,-0.044104,0.006837,0.19,-0.03,9.99
48844046,0.056462,-0.064345,0.002575,-0.49,-0.63,9.33
48845067,0.034091,-0.030256,-0.000620,0.31,-0.21,10.05
48846070,0.039417,-0.014277,0.000445,0.15,-0.08,10.02
48847080,0.007459,0.002768,0.003641,-0.53,-0.71,9.52
48848086,-0.019173,0.043249,0.004706,0.35,-0.13,10.13
48849095,-0.030891,0.050706,0.004706,0.24,-0.07,10.12
48850195,-0.047936,0.051771,0.002575,-0.57,-0.74,9.39
48851109,-0.035152,0.041118,0.005771,0.25,-0.13,9.99
48852129,-0.004259,-0.005754,0.010032,0.24,-0.04,9.77
48853133,-0.007455,-0.028125,0.008967,-0.49,-0.75,9.10
48854165,0.036221,-0.031321,0.011098,0.33,-0.18,10.07
48855161,0.075637,-0.063279,0.011098,0.22,0.00,10.21
48856178,0.057527,-0.067541,0.005771,-0.55,-0.75,9.52
48857169,0.041548,-0.033452,-0.000620,0.33,-0.11,10.01
48858179,0.046874,-0.024929,-0.002751,0.28,0.05,9.82
48859189,0.012785,-0.000428,-0.003816,-0.50,-0.78,9.06
48860229,-0.015977,0.047510,-0.002751,0.33,-0.16,10.01
