time_us,gyro_x_rad_s,gyro_y_rad_s,gyro_z_rad_s,acc_x_m_s2,acc_y_m_s2,acc_z_m_s2
9602148,-0.000311,-0.001886,-0.000998,0.01,-0.29,9.83
9602895,-0.000311,-0.000821,0.000068,-0.02,-0.29,9.87
9603897,0.000754,0.000244,0.001133,-0.02,-0.29,9.85
9604911,0.000754,0.000244,-0.000998,-0.01,-0.30,9.80
9605919,0.001819,0.002375,-0.004194,-0.02,-0.32,9.83
9606931,0.002885,0.002375,-0.004194,-0.02,-0.31,9.86
9607940,-0.001376,0.001310,-0.000998,-0.01,-0.31,9.86
9608971,-0.004572,0.001310,0.001133,0.04,-0.33,9.83
9609981,-0.003507,0.000244,0.001133,0.03,-0.30,9.81
9610975,-0.001376,0.001310,0.000068,0.01,-0.31,9.85
9611990,-0.000311,0.000244,-0.000998,0.02,-0.31,9.84
9613000,-0.001376,-0.000821,-0.000998,0.01,-0.30,9.82
9614008,-0.000311,-0.001886,0.000068,0.03,-0.29,9.83
9615025,0.000754,-0.002951,0.000068,0.03,-0.31,9.82
9616026,-0.000311,-0.001886,0.001133,0.01,-0.32,9.83
9617034,-0.001376,-0.000821,0.000068,0.00,-0.31,9.87
9618045,-0.002442,-0.000821,-0.002063,-0.01,-0.31,9.86
9619074,-0.001376,-0.001886,-0.003128,0.01,-0.30,9.82
9620078,-0.001376,-0.000821,-0.000998,0.02,-0.30,9.81
9621077,-0.001376,0.001310,0.000068,0.01,-0.29,9.88
9622084,-0.002442,0.001310,-0.000998,0.00,-0.30,9.88
9623091,-0.003507,0.000244,-0.002063,0.02,-0.30,9.86
9624101,-0.002442,0.000244,-0.003128,0.04,-0.28,9.85
9625112,-0.000311,0.000244,-0.000998,0.04,-0.30,9.84
9626117,0.000754,-0.000821,-0.000998,0.05,-0.33,9.82
9627131,-0.000311,-0.001886,0.002198,0.04,-0.33,9.76
9628140,-0.001376,-0.002951,0.001133,-0.02,-0.34,9.78
9629165,0.000754,-0.002951,-0.002063,-0.01,-0.34,9.83
9630172,-0.000311,-0.000821,-0.003128,0.01,-0.34,9.85
9631167,-0.001376,0.001310,0.000068,-0.01,-0.32,9.86
9632177,-0.001376,0.001310,0.002198,-0.01,-0.28,9.88
9633187,-0.000311,-0.000821,0.000068,-0.02,-0.29,9.85
9634197,0.000754,-0.002951,0.000068,0.00,-0.30,9.85
9635244,0.000754,-0.001886,-0.000998,0.02,-0.26,9.85
9636217,0.000754,-0.000821,-0.002063,0.03,-0.25,9.79
9637227,0.000754,-0.002951,0.000068,0.06,-0.28,9.82
9638237,0.000754,-0.004017,0.000068,0.01,-0.31,9.87
9639263,-0.000311,-0.001886,0.000068,-0.02,-0.30,9.85
9640266,-0.000311,0.000244,0.000068,-0.01,-0.29,9.84
9641267,-0.001376,-0.000821,0.002198,0.00,-0.31,9.87
9642277,-0.000311,-0.001886,0.003263,0.00,-0.28,9.83
9643287,0.000754,-0.001886,0.001133,0.00,-0.28,9.82
9644297,0.000754,-0.002951,0.000068,0.00,-0.33,9.84
9645311,0.000754,-0.002951,0.000068,0.00,-0.33,9.83
9646317,-0.000311,-0.001886,0.000068,0.02,-0.29,9.81
9647327,-0.001376,-0.001886,0.000068,0.02,-0.27,9.83
9648337,-0.002442,-0.001886,0.000068,0.03,-0.29,9.82
9649364,0.000754,-0.001886,-0.000998,0.03,-0.31,9.79
9650370,0.002885,0.001310,-0.000998,0.01,-0.34,9.82
9651367,0.001819,0.001310,0.000068,0.02,-0.33,9.85
9652377,0.001819,0.001310,0.002198,0.04,-0.28,9.86
9653387,0.000754,0.003440,0.003263,0.05,-0.30,9.87
9654397,0.001819,0.001310,0.002198,-0.01,-0.34,9.83
9655412,0.001819,-0.000821,0.001133,0.02,-0.33,9.85
9656417,0.000754,-0.001886,0.002198,0.02,-0.30,9.86
9657427,-0.000311,-0.000821,0.001133,0.00,-0.31,9.81
9658452,-0.001376,-0.001886,0.000068,0.02,-0.31,9.80
9659451,0.000754,-0.000821,0.001133,0.00,-0.30,9.84
9660462,0.002885,0.001310,0.000068,0.04,-0.28,9.81
9661498,0.002843,0.001375,-0.002087,0.06,-0.26,9.79
9662477,0.001778,-0.000755,-0.002087,0.03,-0.26,9.88
9663487,-0.000353,-0.000755,-0.002087,0.05,-0.25,9.89
9664497,-0.000353,0.000310,-0.001022,0.05,-0.28,9.83
9665511,0.001778,0.001375,-0.002087,0.00,-0.32,9.84
9666517,0.002843,0.000310,-0.003152,-0.01,-0.31,9.85
9667527,0.002843,-0.000755,-0.001022,0.03,-0.32,9.84
9668553,-0.000353,-0.001820,0.001109,0.05,-0.34,9.83
9669551,-0.002483,-0.002886,0.001109,0.04,-0.33,9.84
9670566,-0.003549,-0.000755,0.000043,0.01,-0.32,9.86
9671567,-0.001418,-0.000755,-0.002087,-0.01,-0.33,9.84
9672577,0.000712,-0.000755,-0.001022,0.01,-0.33,9.84
9673587,0.001778,-0.000755,-0.002087,0.01,-0.30,9.86
9674597,0.000712,-0.001820,-0.003152,0.00,-0.30,9.84
9675611,-0.001418,-0.001820,-0.001022,-0.02,-0.28,9.80
9676617,-0.003549,-0.000755,0.002174,-0.01,-0.31,9.81
9677627,-0.002483,-0.000755,0.001109,0.02,-0.30,9.83
9678653,-0.001418,0.001375,0.001109,0.01,-0.27,9.81
9679651,-0.001418,0.002441,0.002174,0.01,-0.29,9.84
9680661,-0.001418,0.001375,0.001109,0.04,-0.31,9.87
9681667,-0.000353,0.000310,0.000043,0.06,-0.32,9.85
9682677,-0.001418,-0.000755,0.000043,0.01,-0.31,9.86
9683687,-0.001418,-0.000755,-0.001022,-0.01,-0.31,9.85
9684697,-0.000353,-0.000755,0.000043,0.02,-0.31,9.82
9685711,0.000712,-0.000755,0.000043,0.03,-0.28,9.86
9686717,0.000712,-0.000755,-0.001022,0.01,-0.25,9.88
9687727,0.001778,0.000310,-0.003152,0.02,-0.27,9.83
9688754,0.000712,0.001375,-0.002087,0.03,-0.31,9.78
9689751,-0.000353,0.001375,-0.002087,0.04,-0.32,9.84
9690765,-0.000353,0.001375,-0.001022,0.02,-0.31,9.89
9691767,-0.002483,0.000310,-0.001022,0.00,-0.28,9.84
9692777,-0.002483,0.001375,-0.002087,0.04,-0.28,9.79
9693787,-0.001418,0.000310,-0.002087,0.05,-0.32,9.84
9694797,0.000712,0.000310,0.000043,0.03,-0.32,9.89
9695812,0.000712,0.000310,0.000043,0.01,-0.33,9.86
9696817,-0.001418,-0.001820,0.001109,0.04,-0.30,9.85
9697827,-0.000353,-0.003951,0.000043,0.05,-0.29,9.85
9698852,0.003908,-0.001820,0.000043,0.05,-0.32,9.86
9699851,0.006039,0.000310,-0.001022,0.04,-0.31,9.80
9700862,0.006039,0.001375,-0.001022,0.05,-0.30,9.78
9701867,0.004974,0.001375,-0.001022,0.02,-0.29,9.84
9702877,0.002843,0.000310,-0.001022,0.00,-0.26,9.88
9703887,0.000712,0.000310,-0.001022,0.02,-0.28,9.88
9704897,-0.000353,-0.000755,0.001109,0.01,-0.31,9.87
9705912,0.000712,0.000310,0.003239,0.03,-0.32,9.86
9706920,0.001778,-0.000755,0.003239,0.05,-0.33,9.87
9707932,0.002843,-0.001820,0.001109,0.04,-0.32,9.86
9708959,0.002843,-0.000755,-0.001022,0.03,-0.31,9.84
9709962,0.001778,-0.000755,-0.001022,0.03,-0.31,9.78
9710979,0.000712,-0.000755,0.000043,0.04,-0.30,9.78
9711975,0.001778,0.000310,0.003239,0.04,-0.30,9.83
9712990,0.002843,-0.000755,0.002174,0.01,-0.32,9.84
9713998,0.003908,0.000310,0.000043,0.00,-0.29,9.88
9715006,0.002843,0.002441,-0.001022,-0.02,-0.31,9.89
9716023,-0.000353,0.002441,-0.002087,-0.01,-0.34,9.83
9717026,-0.002483,0.002441,-0.002087,0.02,-0.32,9.84
9718041,-0.003549,0.000310,0.000043,0.02,-0.34,9.88
9719064,-0.002483,-0.000755,0.001109,0.04,-0.35,9.85
9720060,-0.000353,-0.000755,0.002174,0.06,-0.32,9.83
9721074,0.000712,-0.000755,0.002174,0.02,-0.30,9.84
9722076,-0.000353,-0.001820,0.001109,-0.01,-0.30,9.85
9723084,-0.001418,-0.002886,0.001109,0.02,-0.29,9.81
9724091,-0.001418,0.000310,0.003239,0.05,-0.29,9.82
9725101,0.000712,-0.000755,0.005370,0.02,-0.29,9.82
9726112,0.002843,-0.001820,0.006435,0.00,-0.28,9.81
9727117,0.002843,-0.001820,0.004305,0.03,-0.30,9.83
9728131,0.000712,0.001375,0.001109,0.03,-0.33,9.84
9729158,-0.001418,0.003506,0.000043,0.01,-0.35,9.85
9730154,-0.001418,0.002441,-0.001022,0.01,-0.33,9.83
9731183,-0.001418,0.002441,-0.001022,0.00,-0.29,9.83
9732167,-0.002483,0.003506,0.000043,0.00,-0.29,9.85
9733177,-0.001418,0.003506,0.000043,0.02,-0.31,9.82
9734187,0.000712,0.002441,0.000043,0.03,-0.31,9.78
9735197,0.000712,-0.000755,0.000043,0.03,-0.33,9.77
9736212,-0.000353,-0.000755,0.001109,0.05,-0.34,9.79
9737217,-0.000353,-0.000755,0.003239,0.04,-0.30,9.85
9738231,-0.000353,-0.000755,0.003239,0.02,-0.30,9.89
9739252,-0.002483,-0.001820,0.001109,0.02,-0.33,9.85
9740251,-0.002483,-0.001820,-0.001022,0.02,-0.32,9.84
9741262,-0.000353,-0.001820,-0.002087,0.02,-0.29,9.86
9742267,0.000712,-0.000755,-0.002087,0.02,-0.29,9.82
9743277,-0.000353,0.001375,-0.001022,0.01,-0.28,9.80
9744287,-0.003549,0.001375,0.000043,0.02,-0.30,9.83
9745297,-0.004614,0.000310,-0.001022,0.04,-0.34,9.85
9746311,-0.000353,0.000310,-0.002087,0.04,-0.34,9.83
9747317,0.002843,0.002441,-0.002087,0.04,-0.34,9.80
9748327,0.002843,0.002441,-0.002087,0.04,-0.32,9.82
9749353,0.001778,0.002441,0.000043,0.05,-0.31,9.86
9750351,-0.001418,0.002441,0.000043,0.03,-0.31,9.85
9751366,-0.001418,0.002441,-0.002087,0.01,-0.30,9.82
9752367,-0.000353,0.001375,-0.001022,0.00,-0.29,9.83
9753377,-0.001418,-0.000755,-0.001022,0.01,-0.28,9.86
9754387,-0.002483,-0.001820,-0.002087,0.06,-0.28,9.82
9755397,-0.001418,-0.002886,-0.001022,0.00,-0.30,9.78
9756411,0.001778,-0.001820,0.001109,0.00,-0.32,9.81
9757417,0.003908,-0.000755,0.001109,0.03,-0.30,9.82
9758427,0.001778,-0.000755,0.001109,0.03,-0.32,9.82
9759453,-0.000353,-0.002886,0.000043,0.03,-0.34,9.81
9760451,-0.001418,-0.002886,-0.001022,0.00,-0.32,9.82
9761461,-0.000353,0.000310,-0.003152,-0.02,-0.30,9.82
9762467,-0.001418,0.002441,-0.003152,0.01,-0.30,9.76
9763477,-0.002483,0.001375,-0.002087,0.03,-0.30,9.77
9764487,-0.001418,-0.000755,-0.001022,0.02,-0.29,9.81
9765497,0.000712,-0.000755,0.000043,0.04,-0.29,9.79
9766511,0.002843,-0.000755,0.001109,0.04,-0.32,9.79
9767517,0.001778,-0.001820,0.002174,0.02,-0.33,9.82
9768544,-0.000353,-0.000755,0.002174,0.01,-0.29,9.88
9769541,-0.001418,-0.000755,0.002174,0.04,-0.30,9.88
9770547,-0.000353,-0.000755,0.002174,0.02,-0.32,9.86
9771565,0.000712,0.001375,0.002174,0.00,-0.33,9.83
9772567,0.001778,0.004571,0.002174,0.00,-0.31,9.79
9773577,-0.000353,0.004571,0.001109,-0.01,-0.31,9.82
9774587,0.000712,0.003506,0.000043,0.01,-0.31,9.88
9775597,0.000712,0.000310,0.001109,0.04,-0.28,9.84
9776612,0.000712,-0.001820,0.002174,0.03,-0.30,9.78
9777617,-0.000353,-0.003951,0.003239,0.04,-0.32,9.82
9778642,-0.002483,-0.002886,0.001109,0.03,-0.32,9.83
9779641,-0.000353,-0.000755,-0.001022,0.01,-0.29,9.82
9780647,0.001778,0.000310,-0.002087,0.04,-0.29,9.82
9781662,0.001778,0.000310,0.000043,0.00,-0.30,9.84
9782667,0.000712,-0.001820,0.001109,0.00,-0.31,9.86
9783677,0.000712,0.000310,0.000043,0.04,-0.32,9.83
9784687,0.000712,0.003506,0.001109,0.02,-0.32,9.80
9785697,-0.001418,0.004571,0.003239,-0.02,-0.31,9.81
9786711,-0.001418,0.003506,0.003239,-0.01,-0.32,9.83
9787717,0.000712,0.002441,0.003239,0.01,-0.32,9.87
9788743,0.000712,0.001375,0.001109,0.04,-0.31,9.86
9789741,0.000712,0.000310,0.000043,0.06,-0.30,9.84
9790775,0.000699,0.000298,-0.001037,0.02,-0.30,9.83
9791766,0.001764,0.000298,-0.002102,0.00,-0.30,9.81
9792767,0.001764,-0.000767,0.000028,0.00,-0.31,9.80
9793777,0.001764,-0.001833,0.003224,0.01,-0.33,9.84
9794787,0.000699,-0.002898,0.005355,0.03,-0.31,9.87
9795797,-0.000366,-0.002898,0.004289,0.01,-0.28,9.88
9796811,-0.000366,-0.002898,0.001093,0.01,-0.31,9.85
9797817,-0.002497,-0.000767,0.001093,0.00,-0.32,9.81
9798843,-0.003562,-0.000767,0.000028,0.00,-0.31,9.80
9799841,-0.002497,-0.000767,0.001093,0.03,-0.32,9.84
9800847,-0.000366,-0.000767,0.001093,0.00,-0.32,9.87
9801861,0.000699,0.001363,0.001093,-0.02,-0.32,9.85
9802867,0.000699,0.001363,0.001093,0.00,-0.28,9.84
9803877,-0.000366,-0.001833,0.002159,0.02,-0.29,9.82
9804887,-0.000366,-0.002898,0.001093,0.03,-0.32,9.82
9805897,-0.000366,-0.000767,-0.002102,0.03,-0.30,9.85
9806911,-0.001432,-0.000767,-0.002102,0.02,-0.32,9.88
9807921,-0.000366,-0.001833,0.000028,0.03,-0.33,9.86
9808951,0.000699,-0.001833,0.000028,0.04,-0.30,9.86
9809950,0.001764,-0.003963,-0.002102,0.05,-0.31,9.85
9810955,-0.000366,-0.003963,-0.002102,0.04,-0.30,9.84
9811974,-0.001432,-0.001833,0.000028,0.04,-0.29,9.87
9812975,-0.000366,-0.000767,0.002159,0.03,-0.31,9.85
9813991,0.000699,-0.000767,0.003224,-0.01,-0.29,9.81
9815000,0.000699,0.000298,0.002159,-0.02,-0.27,9.86
9816009,0.000699,0.001363,0.001093,-0.01,-0.28,9.85
9817025,0.000699,0.002428,0.001093,0.01,-0.31,9.84
9818026,0.000699,0.002428,0.001093,0.02,-0.33,9.88
9819056,0.000699,0.000298,0.002159,0.02,-0.32,9.83
9820050,-0.000366,-0.000767,0.003224,0.04,-0.32,9.81
9821060,-0.001432,-0.000767,0.002159,0.02,-0.32,9.82
9822075,-0.001432,0.001363,0.001093,0.01,-0.32,9.80
9823075,-0.001432,0.001363,0.001093,0.01,-0.29,9.80
9824084,-0.000366,-0.000767,0.002159,0.01,-0.26,9.82
9825091,0.001764,-0.000767,0.002159,0.02,-0.30,9.78
9826101,0.000699,-0.001833,-0.001037,0.04,-0.31,9.81
9827112,-0.001432,0.000298,-0.002102,0.02,-0.29,9.86
9828117,-0.002497,0.003494,-0.002102,-0.01,-0.28,9.80
9829147,-0.001432,0.003494,-0.001037,0.00,-0.29,9.78
9830145,-0.000366,0.002428,-0.001037,0.02,-0.29,9.80
9831149,-0.000366,0.001363,-0.003168,0.03,-0.28,9.81
9832167,-0.001432,0.001363,-0.003168,0.03,-0.29,9.82
9833167,-0.001432,0.000298,0.000028,0.00,-0.29,9.85
9834177,-0.000366,0.000298,0.000028,0.00,-0.29,9.88
9835187,-0.000366,0.000298,-0.002102,0.01,-0.28,9.86
9836197,-0.002497,0.001363,-0.002102,0.01,-0.29,9.78
9837211,-0.002497,0.000298,-0.001037,0.04,-0.32,9.72
9838217,-0.001432,0.001363,0.000028,0.04,-0.31,9.78
9839243,-0.001432,0.002428,-0.003168,0.02,-0.30,9.81
9840285,-0.002497,0.001363,-0.004233,0.02,-0.32,9.83
9841245,-0.003562,-0.001833,-0.003168,-0.01,-0.31,9.88
9842260,-0.002497,-0.003963,-0.001037,-0.02,-0.31,9.83
9843265,-0.000366,-0.001833,0.000028,-0.02,-0.31,9.80
9844275,0.000699,0.000298,0.001093,-0.02,-0.31,9.77
9845285,0.000699,-0.000767,0.002159,-0.02,-0.34,9.78
9846295,-0.001432,-0.000767,0.000028,-0.02,-0.35,9.82
9847310,-0.002497,0.000298,-0.002102,0.01,-0.31,9.81
9848315,-0.000366,0.002428,-0.002102,0.03,-0.30,9.80
9849350,0.000699,0.003494,-0.002102,0.02,-0.30,9.79
9850351,0.002829,0.001363,-0.002102,0.01,-0.32,9.79
9851347,0.003895,-0.001833,-0.002102,0.02,-0.33,9.85
9852365,0.002829,-0.000767,-0.001037,0.04,-0.35,9.88
9853367,0.001764,0.003494,-0.001037,0.03,-0.32,9.83
9854377,0.000699,0.006690,0.000028,0.02,-0.28,9.82
9855387,0.001764,0.000298,0.004289,-0.01,-0.31,9.82
9856397,-0.001432,-0.001833,0.003224,0.01,-0.28,9.87
9857412,-0.002497,-0.001833,-0.001037,0.04,-0.28,9.90
9858417,-0.000366,0.000298,-0.001037,0.02,-0.31,9.87
9859447,-0.000366,0.000298,-0.001037,0.02,-0.28,9.83
9860450,-0.000366,0.000298,-0.002102,0.01,-0.27,9.83
9861445,0.000699,-0.000767,-0.001037,-0.01,-0.31,9.86
9862461,0.001764,-0.000767,0.002159,0.00,-0.33,9.86
9863465,0.000699,-0.001833,0.002159,0.00,-0.31,9.84
9864475,0.000699,-0.001833,0.000028,0.00,-0.28,9.84
9865485,0.001764,-0.000767,-0.001037,0.00,-0.31,9.82
9866495,0.002829,0.000298,-0.001037,0.02,-0.34,9.80
9867510,0.002829,-0.000767,0.000028,0.03,-0.33,9.83
9868539,0.001764,0.000298,0.000028,0.01,-0.30,9.83
9869532,0.001764,0.003494,-0.001037,0.00,-0.30,9.80
9870550,0.002829,0.004559,0.000028,0.00,-0.32,9.79
9871547,0.001764,0.002428,0.001093,0.00,-0.33,9.79
9872566,-0.000366,0.000298,0.001093,0.04,-0.30,9.78
9873567,-0.002497,0.001363,0.002159,0.05,-0.28,9.82
9874577,-0.002497,0.001363,0.003224,0.05,-0.28,9.86
9875587,-0.001432,-0.000767,0.001093,0.01,-0.32,9.83
9876597,-0.001432,0.000298,0.000028,-0.02,-0.33,9.85
9877611,-0.000366,0.002428,0.000028,0.01,-0.32,9.86
9878638,0.000699,0.002428,0.000028,0.02,-0.30,9.85
9879631,-0.000366,0.001363,0.000028,0.04,-0.26,9.84
9880648,-0.001432,-0.000767,0.001093,0.04,-0.31,9.82
9881645,-0.001432,-0.002898,0.001093,0.03,-0.33,9.84
9882660,-0.000366,-0.001833,0.002159,0.02,-0.31,9.84
9883665,-0.001432,0.002428,0.002159,0.01,-0.31,9.83
9884675,-0.000366,0.002428,0.001093,0.02,-0.30,9.82
9885685,0.001764,0.001363,0.001093,0.01,-0.29,9.87
9886695,0.002829,0.002428,0.001093,0.02,-0.28,9.88
9887710,0.000699,0.001363,0.002159,0.00,-0.28,9.80
9888740,-0.002497,-0.000767,0.001093,0.00,-0.31,9.79
9889732,-0.003562,0.000298,0.002159,0.02,-0.33,9.85
9890750,-0.002497,0.000298,0.001093,0.00,-0.33,9.86
9891747,0.000699,-0.001833,0.000028,-0.02,-0.33,9.86
9892765,0.006025,-0.001833,0.000028,-0.01,-0.34,9.86
9893767,0.007091,-0.000767,-0.002102,0.01,-0.34,9.83
9894777,0.004960,-0.000767,-0.004233,0.01,-0.29,9.84
9895787,0.002829,0.000298,-0.004233,0.02,-0.28,9.86
9896797,0.001764,0.001363,-0.004233,0.03,-0.26,9.82
9897812,0.002829,0.002428,-0.001037,-0.01,-0.28,9.75
9898837,0.002829,0.003494,0.001093,-0.04,-0.31,9.79
9899840,0.001764,0.001363,-0.001037,-0.02,-0.30,9.85
9900835,0.000699,0.000298,-0.003168,0.02,-0.30,9.84
9901845,0.000699,-0.000767,-0.002102,0.04,-0.29,9.86
9902861,0.001764,-0.000767,0.000028,0.05,-0.30,9.88
9903865,0.001764,-0.000767,0.000028,0.04,-0.31,9.85
9904875,0.000699,-0.000767,-0.001037,0.00,-0.30,9.80
9905885,0.000699,0.001363,-0.002102,-0.02,-0.29,9.81
9906895,0.001764,0.002428,-0.002102,-0.02,-0.31,9.84
9907911,0.002829,0.001363,-0.001037,-0.02,-0.33,9.82
9908946,0.001764,-0.000767,-0.002102,0.02,-0.33,9.80
9909950,-0.000366,-0.001833,-0.002102,0.03,-0.34,9.82
9910941,-0.002497,-0.001833,-0.002102,0.01,-0.31,9.81
9911954,-0.003562,-0.000767,-0.002102,0.01,-0.30,9.84
9912979,-0.003562,0.000298,-0.002102,0.00,-0.32,9.88
9913975,-0.001432,0.000298,-0.002102,0.03,-0.31,9.86
9914990,-0.000366,-0.000767,0.001093,0.03,-0.31,9.85
9915998,-0.000366,-0.000767,0.001093,0.01,-0.33,9.83
9917006,-0.000366,-0.000767,0.000028,0.02,-0.31,9.81
9918023,-0.001432,-0.000767,0.001093,0.01,-0.29,9.81
9919052,-0.001432,0.001363,0.002159,0.03,-0.31,9.83
9920092,-0.000373,0.003478,0.002165,0.02,-0.32,9.83
9921046,0.000692,0.002413,0.001100,0.00,-0.30,9.88
9922054,0.003888,0.001347,0.000035,0.02,-0.33,9.90
9923071,0.006018,0.000282,-0.001030,0.02,-0.32,9.86
9924075,0.003888,-0.001849,-0.001030,0.04,-0.32,9.84
9925084,0.002822,0.001347,-0.001030,0.05,-0.31,9.77
9926089,0.001757,0.003478,0.001100,0.02,-0.30,9.75
9927100,0.000692,0.003478,0.003231,0.00,-0.32,9.85
9928110,-0.000373,-0.001849,0.002165,0.03,-0.29,9.88
9929144,0.000692,-0.003979,0.000035,0.03,-0.28,9.87
9930145,0.001757,-0.005044,0.000035,0.03,-0.32,9.83
9931140,0.000692,-0.003979,0.002165,0.03,-0.32,9.79
9932149,0.000692,-0.002914,0.003231,0.02,-0.31,9.84
9933166,0.000692,-0.002914,0.002165,0.03,-0.31,9.86
9934167,0.000692,-0.001849,0.001100,0.03,-0.32,9.84
9935177,0.001757,-0.001849,0.001100,0.03,-0.32,9.83
9936209,0.001757,-0.001849,0.001100,0.04,-0.31,9.85
9937197,-0.000373,-0.001849,0.000035,0.04,-0.33,9.84
9938212,-0.000373,-0.000783,0.001100,0.04,-0.31,9.79
9939237,-0.000373,-0.000783,0.002165,0.02,-0.26,9.81
9940240,-0.001439,-0.000783,0.000035,0.00,-0.28,9.77
9941235,-0.001439,-0.002914,-0.001030,0.02,-0.31,9.76
9942245,-0.000373,-0.003979,0.000035,0.04,-0.30,9.79
9943261,-0.001439,-0.003979,0.000035,0.01,-0.32,9.80
9944265,-0.001439,-0.001849,-0.002096,0.00,-0.34,9.84
9945275,0.000692,0.000282,0.000035,0.01,-0.30,9.84
9946285,0.000692,0.000282,0.004296,0.01,-0.34,9.89
9947295,0.000692,0.000282,0.006426,0.00,-0.35,9.90
9948310,-0.000373,0.001347,0.004296,-0.01,-0.31,9.84
9949339,-0.002504,0.001347,0.000035,0.01,-0.31,9.83
9950341,-0.001439,0.001347,-0.001030,0.02,-0.33,9.86
9951337,0.000692,0.002413,-0.003161,0.01,-0.33,9.86
9952347,0.000692,0.000282,-0.005292,0.03,-0.30,9.81
9953366,-0.000373,-0.002914,-0.005292,0.01,-0.28,9.78
9954367,0.000692,-0.003979,-0.001030,-0.03,-0.31,9.80
9955377,0.000692,0.001347,0.002165,0.03,-0.30,9.79
9956387,-0.000373,0.000282,0.003231,0.01,-0.31,9.81
9957397,-0.000373,0.001347,0.003231,0.01,-0.32,9.88
9958428,-0.000373,0.002413,0.002165,0.01,-0.31,9.88
9959421,-0.000373,0.003478,0.001100,-0.01,-0.29,9.84
9960438,-0.000373,0.002413,-0.001030,0.01,-0.30,9.82
9961435,0.000692,-0.000783,-0.001030,0.03,-0.29,9.86
9962445,0.001757,-0.002914,-0.002096,0.02,-0.29,9.87
9963504,-0.001439,-0.001849,-0.002096,0.04,-0.32,9.83
9964485,-0.003569,0.000282,-0.001030,0.02,-0.33,9.86
9965504,-0.002504,0.002413,-0.001030,0.00,-0.32,9.87
9966485,-0.000373,0.003478,0.000035,0.00,-0.31,9.82
9967495,0.001757,0.004543,0.001100,0.00,-0.32,9.82
9968529,0.000692,0.005608,0.000035,0.00,-0.31,9.82
9969522,-0.001439,0.004543,-0.002096,-0.01,-0.28,9.79
9970541,-0.000373,0.002413,-0.001030,0.01,-0.28,9.83
9971537,-0.000373,0.000282,0.000035,0.04,-0.30,9.84
9972547,-0.000373,-0.000783,0.001100,0.03,-0.30,9.81
9973564,0.001757,-0.000783,0.002165,0.03,-0.32,9.85
9974567,0.000692,-0.000783,0.002165,0.03,-0.32,9.83
9975577,-0.000373,0.000282,0.002165,0.01,-0.29,9.82
9976587,0.000692,0.002413,0.001100,0.02,-0.29,9.87
9977597,-0.000373,0.003478,0.002165,0.02,-0.31,9.83
9978627,-0.000373,0.001347,0.002165,0.02,-0.31,9.77
9979621,-0.000373,-0.001849,0.001100,0.04,-0.32,9.78
9980640,-0.000373,-0.003979,0.001100,0.03,-0.32,9.82
9981635,-0.001439,-0.001849,0.000035,0.04,-0.28,9.84
9982645,-0.001439,-0.000783,-0.001030,0.03,-0.28,9.87
9983660,0.000692,-0.000783,-0.002096,0.00,-0.33,9.87
9984665,0.000692,0.000282,-0.002096,-0.02,-0.33,9.86
9985675,0.000692,-0.001849,-0.002096,0.00,-0.31,9.86
9986685,0.001757,-0.002914,-0.001030,0.02,-0.32,9.82
9987695,0.000692,-0.001849,0.002165,-0.02,-0.31,9.85
9988729,-0.000373,-0.001849,0.003231,-0.01,-0.28,9.89
9989722,-0.000373,-0.002914,0.002165,0.02,-0.30,9.83
9990741,0.001757,-0.002914,0.000035,0.02,-0.29,9.81
9991737,0.001757,0.000282,-0.001030,0.01,-0.31,9.83
9992747,-0.000373,0.001347,-0.002096,0.01,-0.31,9.80
9993764,-0.000373,0.000282,-0.001030,0.00,-0.30,9.78
9994767,0.001757,0.000282,0.001100,0.00,-0.32,9.81
9995777,0.001757,0.000282,0.002165,0.01,-0.31,9.81
9996787,0.000692,-0.000783,0.002165,-0.01,-0.29,9.84
9997797,0.000692,-0.000783,-0.001030,0.00,-0.26,9.87
9998827,0.000692,-0.000783,-0.002096,0.02,-0.29,9.85
9999821,-0.002504,-0.001849,-0.002096,0.04,-0.31,9.81
10000840,-0.002504,-0.001849,-0.001030,0.02,-0.30,9.81
10001839,-0.000373,-0.001849,0.000035,0.00,-0.30,9.83
10002849,0.000692,-0.001849,-0.001030,0.01,-0.27,9.83
10003862,0.001757,-0.001849,-0.002096,0.00,-0.29,9.83
10004869,0.000692,-0.000783,-0.002096,-0.01,-0.31,9.82
10005878,0.000692,0.000282,-0.001030,0.00,-0.28,9.78
10006889,0.002822,0.002413,0.002165,0.02,-0.28,9.79
10007900,0.002822,0.002413,0.002165,0.01,-0.28,9.85
10008930,0.001757,0.000282,0.002165,0.01,-0.29,9.82
10009925,0.000692,-0.000783,0.001100,0.02,-0.32,9.80
10010931,-0.001439,-0.000783,-0.001030,0.01,-0.34,9.86
10011937,-0.002504,0.000282,-0.001030,0.01,-0.31,9.83
10012952,-0.002504,-0.000783,0.000035,0.00,-0.29,9.84
10014136,-0.003569,0.000282,-0.002096,0.00,-0.30,9.89
10014962,-0.004635,0.002413,-0.003161,0.07,-0.23,9.85
10015966,0.002822,0.006674,0.003231,0.06,-0.38,9.92
10016972,0.003888,0.017327,0.007492,0.00,-0.56,9.85
10017987,0.000692,0.012000,-0.003161,0.12,-0.39,9.74
10019022,-0.001439,0.004543,-0.018075,0.16,-0.23,9.85
10020010,-0.003569,0.001347,-0.024467,-0.04,-0.18,9.78
10021019,-0.002504,-0.001849,-0.019140,-0.11,-0.04,9.88
10022027,-0.000373,-0.005044,-0.010618,-0.09,-0.03,10.10
10023032,-0.002504,-0.003979,-0.004226,-0.43,-0.48,9.78
10024056,-0.000373,0.001347,-0.006357,-0.21,-0.76,9.67
10025057,0.000692,0.008804,-0.014879,0.56,-0.62,9.81
10026066,-0.006765,0.012000,-0.022336,0.51,0.13,9.70
10027071,-0.012092,0.007739,-0.011683,-0.09,0.46,9.92
10028082,0.002822,-0.003979,0.014949,-0.61,-0.76,10.24
10029114,0.027324,-0.021024,0.022406,-0.09,-1.36,9.90
10030098,0.016671,-0.016762,0.002165,1.06,0.34,9.46
10031109,-0.027005,0.023718,-0.001030,0.32,0.82,9.71
10032118,-0.032332,0.033306,0.019210,-1.35,-1.67,10.26
10033126,0.039042,-0.029546,0.013883,-0.06,-0.62,9.58
10034142,0.045434,-0.045525,-0.005292,1.53,2.21,9.37
10035144,-0.055768,0.029045,0.009622,-0.71,-2.54,10.18
10036154,-0.032332,0.027979,0.014949,-1.39,-1.82,9.43
10037164,0.080588,-0.035938,-0.002096,1.61,3.98,9.95
10038174,-0.011026,-0.002914,0.006426,0.30,-3.21,10.83
10039213,-0.080269,0.020522,-0.003161,-1.56,-0.96,8.65
10040200,0.064609,-0.014632,-0.012749,1.26,2.45,10.24
10041208,0.037977,-0.000783,-0.001030,0.04,-3.67,11.13
10042217,-0.025940,-0.006110,-0.018075,-0.57,1.61,5.89
10043228,0.034781,0.032240,-0.004226,0.28,-2.41,10.76
10044244,0.030520,0.040763,-0.014879,0.64,1.10,10.23
10045268,0.012410,-0.001849,-0.003161,0.13,-1.21,8.90
10046257,0.002822,0.048220,-0.004226,-0.16,-1.61,12.97
10047268,-0.004635,-0.018893,-0.011683,1.31,0.90,8.62
10048277,0.023063,0.025849,-0.011683,-1.31,-1.67,11.73
10049310,-0.027005,-0.014632,-0.012749,0.96,0.16,8.82
10050297,-0.031267,0.042893,-0.017010,0.22,-0.75,10.59
10051304,-0.017418,0.033306,-0.025532,-0.61,-0.96,9.91
10052314,0.046499,0.022653,-0.037250,0.95,0.80,8.44
10053324,0.009214,-0.009306,-0.039381,0.03,-1.09,11.41
10054341,-0.004635,-0.003979,-0.056425,0.55,0.47,7.64
10055344,-0.006765,-0.015697,-0.046838,-0.41,0.50,12.25
10056354,0.027324,-0.001849,-0.026597,-1.08,3.63,10.81
10057364,0.010279,0.013065,-0.024467,-0.10,-3.36,9.01
10058374,0.019867,0.019457,-0.017010,0.83,1.71,8.64
10059413,0.021997,0.002413,-0.007422,-0.48,-0.58,14.04
10060400,0.020932,-0.001849,-0.003161,0.63,-2.09,6.39
10061408,0.014541,-0.000783,0.006426,-0.60,4.02,12.55
10062417,0.006018,0.007739,0.006426,-0.73,-3.59,9.81
10063428,0.018802,0.005608,0.002165,0.97,0.49,6.85
10064444,0.012410,-0.017828,0.003231,-0.62,2.65,13.43
10065448,0.006018,-0.017828,0.002165,-0.24,-4.55,7.61
10066457,0.012410,-0.000783,0.004296,0.72,1.57,7.42
10067468,-0.001439,0.014131,0.007492,-0.95,2.36,14.00
10068477,-0.023810,0.013065,0.003231,-0.11,-4.66,7.72
10069510,-0.022744,0.006674,0.001100,0.92,1.02,7.30
10070497,-0.021679,0.007739,0.001100,-0.96,3.38,14.11
10071504,-0.019548,0.008804,0.001100,-0.46,-4.50,9.75
10072514,-0.017418,-0.003979,0.002165,1.28,-1.31,6.20
10073524,-0.007830,-0.011436,0.003231,-0.54,4.85,13.02
10074541,-0.002504,-0.003979,0.007492,-1.06,-1.76,12.79
10075544,-0.000373,-0.005044,0.010688,0.97,-4.44,5.62
10076554,0.007084,-0.010371,0.012818,0.67,2.78,8.45
10077564,0.006018,-0.012501,0.011753,-1.17,3.28,13.94
10078574,-0.007830,-0.006110,0.013883,-0.27,-4.73,9.24
10079613,0.002822,0.001347,0.017079,1.41,-3.06,5.50
10080600,0.003888,0.013065,0.028797,0.06,4.58,11.03
10081608,-0.004635,0.001347,0.025602,-1.53,2.21,14.26
10082617,0.011345,-0.026350,0.013883,-0.04,-5.09,8.48
10083628,0.026259,-0.038068,0.010688,1.56,-2.93,5.32
10084644,0.012410,-0.026350,0.012818,0.16,4.21,10.84
10085648,-0.000373,-0.011436,0.020275,-1.41,3.20,14.17
10086657,0.008149,0.003478,0.038385,-0.18,-4.63,9.80
10087668,0.020932,0.008804,0.051168,1.10,-4.51,5.67
10088698,0.016671,0.007739,0.055429,0.83,2.84,8.13
10089695,0.006018,0.008804,0.053299,-0.77,4.72,13.67
10090694,-0.009961,0.010935,0.043711,-1.18,-0.73,13.76
10091704,-0.016353,0.005608,0.041581,0.53,-6.34,7.56
10092714,-0.016353,-0.008240,0.039450,1.00,-1.42,5.07
10093724,0.000692,-0.017828,0.039450,0.22,4.13,10.18
10094741,-0.006765,-0.021024,0.043711,-1.46,4.87,14.56
10095744,-0.009961,-0.021024,0.053299,-1.37,-1.37,12.94
10096754,-0.014222,-0.007175,0.059691,0.16,-6.15,7.17
10097764,0.000692,-0.015697,0.055429,0.70,-0.83,4.78
10098801,0.012410,-0.025285,0.053299,0.54,2.70,8.04
10099797,0.004953,-0.017828,0.058625,-1.09,4.27,13.43
10100797,-0.007830,-0.012501,0.063952,-1.92,2.59,14.79
10101808,-0.012092,-0.012501,0.074604,-0.59,-4.45,9.90
10102817,0.009214,-0.000783,0.086323,0.18,-4.32,5.73
10103828,0.012410,0.006674,0.089518,0.63,0.01,5.23
10104844,-0.002504,0.005608,0.092714,0.70,1.71,8.74
10105848,-0.006765,-0.005044,0.094845,-0.99,4.22,14.32
10106857,-0.009961,-0.012501,0.099106,-1.69,3.06,15.38
10107868,-0.013157,-0.014632,0.102302,-0.58,-3.44,11.31
10108900,-0.000373,-0.002914,0.101236,-0.08,-5.10,6.85
10109900,0.003888,0.009870,0.101236,0.28,-1.36,4.96
10110898,-0.003569,0.009870,0.110824,0.95,0.08,5.92
10111913,-0.004635,-0.002914,0.112955,0.42,1.51,10.36
10112922,-0.013157,-0.014632,0.106563,-0.59,3.82,15.07
10113935,-0.012092,-0.006110,0.111889,-1.24,2.38,14.96
10114949,0.008149,0.017327,0.118281,-0.82,-1.94,11.65
10115953,0.010279,0.024783,0.123607,0.18,-4.46,7.68
10116965,0.000692,0.022653,0.122542,-0.11,-3.31,5.34
10117972,-0.004635,0.010935,0.106563,0.36,-0.86,4.81
10119010,-0.005700,-0.007175,0.092714,1.32,-0.10,6.89
10120009,0.017736,-0.021024,0.091649,0.89,1.22,11.27
10121008,-0.002504,0.005608,0.105498,-0.12,3.11,15.19
10122017,-0.013157,-0.000783,0.094845,-0.64,2.46,15.35
10123023,0.039042,-0.032742,0.084192,-0.70,-0.46,12.44
10124033,0.007084,0.003478,0.099106,-0.60,-2.77,9.27
10125056,-0.081335,0.055677,0.114020,-0.17,-3.37,7.09
10126056,-0.116489,0.050350,0.109759,0.03,-2.55,5.52
10127066,-0.083465,0.007739,0.088453,0.39,-1.58,5.35
10128071,-0.051507,-0.015697,0.075670,1.33,-0.91,6.81
10129099,-0.067486,0.006674,0.083127,1.57,0.31,9.46
10130095,-0.093053,0.056742,0.099106,0.89,1.65,13.06
10131103,-0.066421,0.058872,0.092714,0.46,2.35,14.98
10132109,-0.003569,-0.002914,0.066082,-0.20,1.65,14.30
10133118,0.019867,-0.018893,0.057560,-0.74,0.51,12.54
10134126,0.009214,-0.006110,0.059691,-0.36,-1.00,10.67
10135142,-0.011026,-0.011436,0.056495,-0.70,-2.88,8.41
10136144,-0.013157,-0.001849,0.054364,-0.60,-2.68,6.74
10137154,-0.000373,-0.007175,0.047972,0.28,-2.03,6.24
10138164,-0.006765,-0.012501,0.042646,0.33,-2.12,6.14
10139201,-0.023810,0.000282,0.045842,0.84,-1.51,6.45
10140197,-0.015287,0.006674,0.046907,1.54,-0.86,7.76
10141197,0.009214,-0.002914,0.042646,1.49,-0.09,9.70
10142208,0.019867,-0.014632,0.039450,1.35,0.89,11.76
10143217,0.015606,-0.016762,0.033059,0.81,1.50,13.80
10144228,0.006018,-0.015697,0.025602,0.22,1.81,14.33
10145244,-0.000373,-0.017828,0.020275,-0.12,1.38,13.38
10146248,0.010279,-0.014632,0.020275,-0.58,0.63,12.51
10147273,0.020932,-0.013567,0.024536,-0.65,0.19,11.32
10148267,0.012410,-0.006110,0.030928,-0.92,-1.02,9.82
10149298,0.001757,0.008804,0.028797,-0.94,-1.57,8.73
10150295,-0.001439,0.004543,0.019210,-0.31,-1.65,7.74
10151294,-0.004635,-0.003979,0.008557,-0.42,-2.13,6.98
10152304,-0.002504,0.000282,0.010688,-0.40,-1.71,6.63
10153314,0.006018,0.002413,0.013883,0.11,-1.44,6.97
10154324,0.007084,-0.006110,0.009622,0.37,-1.45,7.44
10155341,0.016671,-0.012501,0.009622,0.72,-1.13,7.55
10156344,0.012410,0.006674,0.009622,1.21,-0.28,9.44
10157354,-0.014222,0.007739,0.004296,1.15,0.08,10.55
10158364,-0.008896,0.001347,0.002165,0.76,0.66,11.98
10159401,-0.006765,0.002413,0.005361,0.62,1.11,12.80
10160397,-0.013157,-0.006110,0.004296,0.27,1.08,13.23
10161398,0.018802,-0.017828,0.004296,-0.09,1.20,13.13
10162407,0.016671,-0.003979,0.012818,-0.22,1.20,12.63
10163418,0.002822,0.004543,0.007492,-0.57,0.64,11.98
10164427,0.014541,-0.008240,-0.001030,-0.82,0.43,11.32
10165445,0.014541,-0.001849,0.009622,-0.89,0.37,10.68
10166447,-0.021679,0.014131,0.016014,-1.00,-0.41,9.82
10167458,-0.032332,0.007739,0.004296,-1.01,-0.75,9.14
10168467,0.004953,-0.011436,-0.002096,-0.87,-0.86,8.59
10169498,0.035846,-0.015697,0.003231,-0.87,-1.37,8.21
10170495,0.009214,0.003478,0.010688,-0.70,-1.40,7.62
10171494,-0.029136,0.015196,0.007492,-0.33,-1.44,7.53
10172504,-0.022744,0.000282,-0.003161,-0.19,-1.42,7.66
10173514,0.016671,-0.018893,-0.005292,-0.31,-1.21,7.63
10174524,0.045434,-0.014632,0.004296,0.07,-1.31,8.01
10175541,0.018802,0.015196,0.021340,0.62,-1.19,8.03
10176544,-0.042985,0.041828,0.024536,0.63,-1.07,8.19
10177554,-0.058964,0.031175,0.008557,0.93,-0.71,8.68
10178564,-0.009961,-0.015697,-0.008487,1.33,-0.46,9.22
10179601,0.041173,-0.029546,-0.002096,1.14,-0.33,10.08
10180597,0.014541,0.007739,0.013883,1.12,0.44,11.02
10181598,-0.015287,0.013065,0.007492,0.97,0.82,12.06
10182607,0.011345,-0.006110,0.005361,0.56,0.84,12.63
10183618,0.014541,0.010935,0.009622,0.10,1.19,13.44
10184627,-0.022744,0.017327,0.001100,0.11,1.36,13.37
10185645,-0.029136,-0.006110,-0.001030,-0.19,0.50,11.90
10186647,0.003888,-0.000783,0.005361,-0.84,0.66,11.72
10187658,-0.022744,0.014131,0.006426,-0.46,1.14,11.48
10188688,-0.037658,0.000282,-0.003161,-0.93,-0.43,10.23
10189677,0.010279,-0.016762,-0.006357,-1.40,-0.39,9.42
10190691,0.041173,-0.008240,0.007492,-0.47,-0.11,9.20
10191694,-0.004635,0.010935,0.019210,-0.61,-1.65,8.26
10192704,-0.031267,0.017327,0.006426,-1.46,-1.02,7.64
10193714,0.000692,-0.001849,-0.013814,-0.35,-1.19,8.68
10194724,0.021997,-0.029546,-0.012749,0.16,-2.41,7.76
10195741,0.016671,-0.014632,0.000035,-0.95,-1.34,7.42
10196744,-0.014222,0.018392,0.008557,0.15,-1.42,8.32
10197754,-0.058964,0.010935,0.000035,0.82,-1.56,7.69
10198791,-0.040854,-0.005044,-0.015944,-0.11,-1.11,7.89
10199780,0.009214,-0.016762,-0.022336,0.74,-1.13,8.22
10200794,0.039042,-0.034872,-0.013814,1.33,-0.63,8.43
10201798,0.052891,-0.019958,0.001100,0.70,-0.80,9.29
10202807,0.027324,0.021588,0.010688,1.08,-0.04,10.06
10203818,-0.039789,0.027979,0.016014,1.51,0.17,10.40
10204827,-0.047246,0.012000,0.004296,0.72,-0.03,11.25
10205845,-0.002504,0.004543,-0.012749,0.68,1.30,12.49
10206847,0.019867,-0.030611,-0.026597,0.80,1.15,13.04
10207858,0.035846,-0.058308,-0.023401,-0.20,0.63,12.29
10208888,0.074196,-0.041264,-0.006357,-0.15,1.52,12.51
10209877,0.052891,-0.018893,0.017079,0.04,1.38,12.97
10210893,-0.012092,0.013065,0.035189,-0.92,0.36,10.90
10211897,-0.040854,0.047154,0.029863,-1.12,0.86,10.41
10212913,-0.029136,0.024783,0.004296,-0.55,0.88,11.08
10213921,0.002822,-0.028481,-0.010618,-1.15,-0.69,9.26
10214933,0.026259,-0.023154,0.001100,-1.62,-0.34,8.77
10215948,-0.005700,0.003478,0.009622,-0.43,-0.49,9.43
10216949,-0.019548,-0.018893,-0.003161,-0.54,-2.26,7.88
10217966,0.002822,-0.019958,0.000035,-1.29,-1.36,7.55
10219001,-0.002504,-0.007175,0.001100,0.18,-1.56,8.35
10219989,-0.004635,-0.022089,-0.001030,0.44,-2.42,7.11
10221007,-0.009961,-0.010371,0.003231,-0.31,-1.32,7.06
10222007,0.003888,0.005608,0.005361,0.75,-1.15,8.10
10223017,-0.004635,-0.003979,0.010688,1.20,-1.14,8.01
10224026,-0.019548,-0.003979,0.005361,0.86,-1.02,8.47
10225033,0.014541,0.001347,0.002165,1.30,-0.20,9.44
10226057,-0.006765,0.008804,0.009622,1.54,0.20,10.10
10227057,-0.013157,-0.001849,0.004296,0.93,-0.02,11.26
10228066,0.027324,-0.002914,0.000035,0.72,1.20,12.65
10229092,-0.001439,0.007739,0.011753,0.64,1.40,13.18
10230082,-0.035528,0.010935,0.010688,-0.31,0.74,12.57
10231105,0.006018,0.006674,-0.004226,-0.50,1.41,12.69
10232094,0.018802,0.004543,0.002165,-0.27,1.38,13.02
10233109,-0.020614,0.014131,0.016014,-1.02,0.15,10.77
10234118,-0.028071,0.025849,0.008557,-1.31,0.46,10.14
10235126,0.001757,-0.006110,-0.013814,-0.61,0.60,10.54
10236142,0.036911,-0.045525,-0.018075,-1.12,-0.96,8.98
10237144,0.059282,-0.023154,0.003231,-1.69,-0.40,8.88
10238154,0.025193,0.020522,0.025602,-0.40,-0.46,9.32
10239191,-0.035528,0.034371,0.030928,-0.57,-2.08,7.92
10240180,-0.046180,0.030110,0.012818,-1.27,-0.98,7.80
10241195,-0.019548,0.001347,-0.009553,0.22,-1.28,8.71
10242197,-0.002504,-0.044460,-0.019140,0.23,-2.19,7.63
10243223,0.035846,-0.048721,-0.010618,-0.51,-1.01,7.60
10244218,0.046499,-0.022089,0.007492,0.71,-1.10,8.75
10245227,0.027324,-0.012501,0.023471,0.86,-1.41,8.33
10246245,0.020932,0.010935,0.033059,0.41,-1.10,8.27
10247247,0.007084,0.042893,0.036254,1.21,-0.47,9.03
10248258,-0.028071,0.041828,0.036254,1.34,-0.61,8.89
10249288,-0.050442,0.036502,0.027732,0.90,-0.98,9.28
10250283,-0.051507,0.035436,0.014949,1.28,0.16,10.22
10251291,-0.065356,0.009870,0.006426,1.33,0.16,10.35
10252294,-0.055768,-0.009306,0.003231,0.55,-0.06,11.10
10253304,-0.019548,-0.012501,-0.002096,0.60,1.16,12.25
10254314,-0.019548,-0.032742,-0.010618,0.59,1.06,12.48
10255324,-0.003569,-0.048721,-0.012749,-0.37,0.54,12.03
10256341,0.036911,-0.032742,-0.008487,-0.32,1.27,12.46
10257344,0.035846,-0.041264,0.000035,-0.95,0.27,10.79
10258354,0.049695,-0.011436,0.008557,-1.12,0.70,10.54
10259391,0.041173,0.007739,0.017079,-0.59,0.88,11.09
10260380,0.023063,0.013065,0.024536,-1.23,-0.49,9.39
10261394,0.029454,0.026914,0.023471,-1.65,-0.08,9.28
10262398,0.012410,0.038632,0.028797,-0.54,0.06,9.76
10263407,-0.019548,0.031175,0.029863,-0.84,-1.54,8.43
10264418,-0.024875,0.030110,0.024536,-1.54,-0.70,8.42
10265427,-0.030201,0.024783,0.016014,-0.02,-0.99,9.12
10266445,-0.045115,0.000282,0.005361,-0.05,-2.30,7.80
10267447,-0.035528,-0.001849,0.002165,-0.89,-0.97,7.72
10268458,-0.022744,-0.008240,-0.008487,0.51,-1.32,8.85
10269488,-0.021679,-0.037003,-0.013814,0.49,-1.90,8.01
10270477,0.014541,-0.033807,-0.010618,-0.18,-1.03,7.93
10271491,0.035846,-0.015697,-0.007422,0.97,-0.96,8.81
10272494,0.019867,-0.018893,-0.001030,1.15,-1.10,8.50
10273504,0.028389,-0.016762,0.002165,0.70,-1.15,8.61
10274514,0.041173,0.005608,0.007492,1.33,-0.27,9.31
10275524,0.020932,0.015196,0.014949,1.44,-0.32,9.28
10276541,0.008149,0.018392,0.019210,0.88,-0.62,9.98
10277544,-0.003569,0.031175,0.022406,1.10,0.64,11.11
10278554,-0.037658,0.022653,0.021340,1.07,0.56,11.42
10279591,-0.051507,0.008804,0.014949,0.18,0.35,11.87
10280580,-0.031267,0.009870,0.009622,0.22,1.36,12.73
10281594,-0.024875,-0.006110,0.004296,0.23,1.23,12.97
10282598,-0.008896,-0.021024,0.002165,-0.71,0.62,11.66
10283607,0.030520,-0.016762,-0.004226,-0.67,1.13,11.63
10284618,0.034781,-0.019958,-0.004226,-0.37,1.12,11.90
10285627,0.028389,-0.023154,0.003231,-1.19,-0.04,9.94
10286645,0.034781,-0.003979,0.011753,-1.45,0.28,9.76
10287647,0.012410,0.015196,0.022406,-0.62,0.45,10.28
10288678,-0.016353,0.016261,0.029863,-1.08,-0.98,8.92
10289667,-0.019548,0.025849,0.031993,-1.64,-0.41,8.74
10290674,-0.029136,0.024783,0.026667,-0.30,-0.53,9.24
10291691,-0.045115,-0.000783,0.017079,-0.46,-2.06,8.05
10292694,-0.009961,-0.008240,0.004296,-1.18,-0.99,7.89
10293709,0.025193,-0.012501,-0.004226,0.30,-1.30,8.81
10294714,0.026259,-0.031676,-0.007422,0.35,-2.24,7.80
10295724,0.035846,-0.023154,-0.001030,-0.41,-1.12,7.74
10296741,0.027324,0.003478,0.010688,0.76,-1.17,8.80
10297744,-0.006765,0.009870,0.021340,0.95,-1.42,8.34
10298781,-0.016353,0.022653,0.026667,0.44,-1.20,8.30
10299770,-0.022744,0.031175,0.020275,1.21,-0.65,9.04
10300778,-0.040854,0.006674,0.010688,1.41,-0.52,8.96
10301794,-0.019548,-0.009306,0.000035,0.95,-0.88,9.47
10302798,0.029454,-0.013567,-0.010618,1.22,0.19,10.43
10303807,0.032650,-0.024219,-0.009553,1.29,0.32,10.63
10304818,0.021997,-0.019958,-0.003161,0.48,0.12,11.48
10305827,0.019867,0.005608,0.006426,0.38,1.27,12.66
10306845,-0.013157,0.020522,0.018145,0.40,1.34,12.91
10307847,-0.037658,0.020522,0.024536,-0.55,0.70,12.01
10308878,-0.027005,0.025849,0.018145,-0.59,1.25,12.15
10309867,-0.019548,0.001347,0.003231,-0.32,1.37,12.54
10310874,0.001757,-0.034872,-0.007422,-1.15,0.25,10.46
10311893,0.045434,-0.032742,-0.010618,-1.35,0.48,10.02
10312897,0.037977,-0.012501,0.001100,-0.62,0.60,10.45
10313913,0.001757,0.001347,0.014949,-1.18,-0.75,9.04
10314922,-0.014222,0.029045,0.024536,-1.66,-0.22,8.97
10315935,-0.039789,0.037567,0.027732,-0.36,-0.41,9.45
10316949,-0.058964,0.012000,0.020275,-0.62,-1.96,8.17
10317953,-0.027005,0.000282,0.005361,-1.29,-0.87,7.95
10318992,0.016671,-0.018893,-0.011683,0.27,-1.22,8.78
10319985,0.033716,-0.052982,-0.020206,0.33,-2.31,7.66
10320992,0.052891,-0.042329,-0.011683,-0.46,-1.09,7.67
10322005,0.045434,-0.007175,0.004296,0.75,-1.19,8.89
10323007,0.002822,0.013065,0.024536,0.88,-1.50,8.29
10324017,-0.012092,0.033306,0.034124,0.32,-1.14,8.20
10325022,-0.024875,0.045024,0.031993,1.23,-0.75,9.00
10326034,-0.055768,0.029045,0.026667,1.45,-0.66,8.82
10327056,-0.051507,0.013065,0.013883,0.97,-1.03,9.22
10328057,-0.015287,0.002413,-0.002096,1.31,-0.03,10.04
10329084,0.004953,-0.027415,-0.013814,1.39,0.08,10.16
10330071,0.033716,-0.046590,-0.018075,0.61,-0.18,11.08
10331082,0.058217,-0.031676,-0.013814,0.54,1.08,12.27
10332091,0.034781,-0.021024,-0.001030,0.59,1.14,12.53
10333094,0.017736,-0.008240,0.014949,-0.34,0.63,12.12
10334109,0.009214,0.033306,0.028797,-0.43,1.28,12.46
10335118,-0.030201,0.047154,0.031993,-0.23,1.35,12.79
10336126,-0.053637,0.032240,0.024536,-1.01,0.40,10.80
10337142,-0.029136,0.024783,0.010688,-1.15,0.69,10.35
10338144,-0.003569,-0.006110,-0.005292,-0.61,0.86,10.81
10339181,0.014541,-0.043394,-0.013814,-1.25,-0.47,9.24
10340170,0.044368,-0.032742,-0.009553,-1.67,-0.07,9.17
10341177,0.031585,-0.008240,0.005361,-0.49,-0.11,9.64
10342195,-0.011026,0.010935,0.024536,-0.78,-1.75,8.30
10343197,-0.025940,0.032240,0.027732,-1.43,-0.94,8.17
10344208,-0.028071,0.021588,0.012818,0.11,-1.26,8.88
10345217,-0.019548,-0.017828,-0.003161,0.14,-2.31,7.62
10346228,0.021997,-0.028481,-0.010618,-0.58,-1.09,7.56
10347244,0.035846,-0.011436,-0.001030,0.72,-1.25,8.71
10348248,0.001757,0.001347,0.018145,0.78,-1.65,8.18
10349278,-0.015287,0.022653,0.029863,0.30,-1.17,8.15
10350267,-0.023810,0.031175,0.023471,1.22,-0.71,8.98
10351274,-0.027005,-0.002914,0.004296,1.42,-0.85,8.77
10352312,0.009214,-0.026350,-0.010618,1.04,-1.15,9.03
10353294,0.044368,-0.025285,-0.013814,1.38,-0.03,9.99
10354304,0.024128,-0.016762,0.002165,1.44,0.06,10.14
10355314,0.010279,0.001347,0.022406,0.74,-0.13,10.99
10356324,0.002822,0.031175,0.033059,0.65,1.09,12.22
10357341,-0.049376,0.025849,0.018145,-0.37,0.62,12.17
10358344,-0.016353,0.012000,-0.007422,-0.46,1.31,12.59
10359381,0.013475,-0.031676,-0.023401,-0.22,1.27,12.78
10360370,0.033716,-0.058308,-0.018075,-1.01,0.31,10.75
10361377,0.055021,-0.029546,-0.001030,-1.24,0.66,10.40
10362395,0.026259,0.003478,0.019210,-0.64,0.84,10.99
10363397,-0.018483,0.025849,0.036254,-1.24,-0.49,9.45
10364408,-0.029136,0.046089,0.035189,-1.73,-0.15,9.28
10365417,-0.040854,0.037567,0.019210,-0.55,-0.10,9.66
10366428,-0.047246,0.003478,-0.003161,-0.78,-1.69,8.28
10367444,-0.003569,-0.017828,-0.018075,-1.42,-0.88,8.33
10368448,0.029454,-0.031676,-0.020206,0.16,-1.21,9.09
10369478,0.031585,-0.041264,-0.006357,0.22,-2.38,7.58
10370467,0.043303,-0.012501,0.010688,-0.61,-1.10,7.55
10371474,0.021997,0.026914,0.024536,0.72,-1.34,8.78
10372491,-0.031267,0.035436,0.027732,0.81,-1.73,8.08
10373494,-0.045115,0.032240,0.017079,0.18,-1.13,8.08
10374504,-0.017418,0.009870,-0.003161,1.17,-0.81,8.87
10375514,0.003888,-0.033807,-0.015944,1.40,-0.75,8.64
10376524,0.031585,-0.044460,-0.011683,1.00,-1.05,8.98
10377541,0.035846,-0.013567,0.005361,1.41,-0.09,9.78
10378544,-0.005700,0.007739,0.022406,1.47,0.06,9.95
10379581,-0.033397,0.021588,0.026667,0.74,-0.18,10.91
10380570,-0.023810,0.026914,0.017079,0.75,1.05,12.08
10381577,-0.016353,-0.003979,-0.001030,0.68,1.13,12.44
10382595,0.010279,-0.033807,-0.011683,-0.34,0.73,12.22
10383597,0.044368,-0.025285,-0.006357,-0.38,1.40,12.59
10384608,0.020932,-0.002914,0.016014,-0.21,1.30,12.79
10385617,-0.008896,0.012000,0.030928,-1.06,0.44,10.89
10386628,-0.012092,0.032240,0.030928,-1.20,0.78,10.58
10387644,-0.027005,0.019457,0.018145,-0.67,0.82,10.96
10388668,-0.029136,-0.012501,0.001100,-1.32,-0.43,9.41
10389657,0.012410,-0.026350,-0.010618,-1.71,-0.09,9.27
10390664,0.033716,-0.033807,-0.009553,-0.55,-0.13,9.70
10391674,0.026259,-0.032742,0.004296,-0.82,-1.64,8.45
10392691,0.027324,0.001347,0.022406,-1.40,-0.84,8.23
10393694,-0.007830,0.036502,0.030928,0.12,-1.26,8.91
10394704,-0.054703,0.033306,0.022406,0.17,-2.36,7.68
10395714,-0.037658,0.014131,0.000035,-0.51,-1.13,7.51
10396724,0.009214,-0.014632,-0.015944,0.76,-1.37,8.65
10397741,0.025193,-0.043394,-0.009553,0.84,-1.73,8.10
10398771,0.034781,-0.024219,0.014949,0.32,-1.20,8.10
10399760,0.010279,0.020522,0.031993,1.22,-0.89,8.98
10400768,-0.033397,0.022653,0.024536,1.43,-0.85,8.75
10401777,-0.028071,0.003478,0.003231,0.99,-1.09,9.04
10402795,0.016671,-0.011436,-0.011683,1.34,-0.13,9.96
10403797,0.019867,-0.023154,-0.003161,1.47,0.14,10.14
10404808,0.014541,-0.005044,0.017079,0.71,-0.04,11.12
10405817,-0.001439,0.033306,0.027732,0.56,1.11,12.29
10406828,-0.036593,0.025849,0.019210,0.53,1.19,12.54
10407844,-0.032332,-0.008240,-0.003161,-0.44,0.72,12.20
10408868,0.015606,-0.022089,-0.014879,-0.55,1.34,12.46
10409857,0.029454,-0.027415,-0.007422,-0.32,1.32,12.78
10410864,0.014541,-0.012501,0.013883,-1.12,0.30,10.77
10411874,-0.002504,0.029045,0.024536,-1.42,0.51,10.14
10412893,-0.027005,0.029045,0.012818,-0.78,0.68,10.68
10413898,-0.018483,-0.009306,-0.007422,-1.20,-0.68,9.21
10414913,0.028389,-0.023154,-0.012749,-1.73,-0.33,9.15
10415921,0.026259,-0.009306,0.003231,-0.49,-0.40,9.55
10416933,-0.022744,0.008804,0.019210,-0.57,-1.96,7.97
10417948,-0.037658,0.029045,0.016014,-1.20,-1.03,7.97
10418980,-0.014222,0.008804,-0.005292,0.32,-1.43,8.85
10419971,0.019867,-0.038068,-0.020206,0.43,-2.38,7.58
10420976,0.053956,-0.035938,-0.008487,-0.30,-1.18,7.58
10421987,0.025193,0.007739,0.014949,0.88,-1.29,8.71
10423007,-0.044050,0.023718,0.020275,1.11,-1.41,8.23
10424007,-0.040854,0.016261,0.004296,0.64,-1.11,8.30
10425017,0.011345,-0.001849,-0.009553,1.36,-0.68,8.89
10426026,0.023063,-0.018893,-0.003161,1.56,-0.42,8.89
10427033,0.012410,-0.005044,0.010688,1.08,-0.72,9.79
10428057,-0.013157,0.019457,0.013883,1.19,0.31,10.79
10429076,-0.022744,-0.008240,-0.002096,1.21,0.64,11.09
10430066,0.012410,-0.038068,-0.011683,0.37,0.42,11.93
10431073,0.041173,-0.015697,-0.002096,0.09,1.39,12.94
10432078,-0.002504,0.015196,0.017079,0.07,1.44,13.21
10433091,-0.049376,0.025849,0.019210,-0.75,0.79,11.87
10434094,-0.023810,0.017327,0.001100,-0.88,1.15,11.55
10435109,0.011345,-0.012501,-0.009553,-0.61,1.20,11.98
10436118,0.026259,-0.024219,0.001100,-1.27,0.08,10.05
10437126,0.010279,0.013065,0.018145,-1.60,0.23,9.63
10438142,-0.023810,0.019457,0.013883,-0.76,0.23,9.99
10439171,-0.015287,-0.018893,-0.006357,-1.02,-1.27,8.59
10440160,0.033716,-0.028481,-0.012749,-1.60,-0.72,8.73
10441168,0.029454,-0.008240,0.003231,-0.18,-1.01,9.15
10442177,-0.028071,0.012000,0.018145,-0.07,-2.34,7.54
10443195,-0.036593,0.021588,0.005361,-0.82,-1.17,7.55
10444197,0.003888,0.000282,-0.012749,0.56,-1.57,8.63
10445208,0.026259,-0.026350,-0.008487,0.71,-1.96,7.81
10446217,0.021997,-0.006110,0.009622,0.08,-1.08,7.88
10447228,-0.017418,0.024783,0.013883,1.12,-1.15,8.68
10448253,-0.029136,-0.002914,-0.002096,1.37,-0.97,8.49
10449268,0.017736,-0.028481,-0.011683,0.95,-1.04,8.87
10450257,0.040107,-0.009306,-0.002096,1.36,-0.31,9.48
10451264,-0.015287,0.017327,0.012818,1.50,0.04,9.68
10452274,-0.050442,0.026914,0.010688,0.88,-0.18,10.89
10453291,-0.011026,0.009870,-0.005292,0.66,0.99,12.20
10454294,0.018802,-0.021024,-0.007422,0.57,1.25,12.62
10455304,0.013475,-0.015697,0.009622,-0.27,0.83,12.37
10456314,-0.012092,0.020522,0.014949,-0.48,1.35,12.60
10457324,-0.024875,0.006674,-0.001030,-0.35,1.34,12.90
10458341,0.045434,-0.018893,-0.004226,-1.34,0.69,10.26
10459371,0.000692,0.016261,0.017079,-0.80,0.72,10.78
10460360,-0.049376,0.022653,0.016014,-1.26,-0.61,9.26
10461367,-0.009961,0.007739,-0.003161,-1.72,-0.29,9.17
10462378,0.026259,-0.010371,-0.006357,-0.53,-0.45,9.51
10463394,0.001757,-0.007175,0.009622,-0.63,-2.00,7.99
10464398,-0.022744,0.018392,0.016014,-1.22,-1.11,7.95
10465407,-0.011026,0.007739,0.000035,0.33,-1.52,8.73
10466418,0.021997,-0.033807,-0.009553,0.49,-2.34,7.52
10467427,0.043303,-0.024219,0.005361,-0.24,-1.16,7.54
10468485,0.004953,0.017327,0.020275,0.90,-1.24,8.64
10469469,-0.035528,0.015196,0.011753,1.16,-1.38,8.20
10470457,-0.002504,-0.006110,-0.003161,0.73,-1.16,8.32
10471464,0.026259,0.002413,0.002165,1.37,-0.58,9.04
10472474,-0.020614,0.017327,0.017079,1.58,-0.35,9.06
10473492,-0.044050,0.018392,0.011753,1.05,-0.64,9.95
10474494,0.003888,0.004543,-0.001030,1.07,0.51,11.12
10475504,0.030520,-0.018893,0.000035,1.04,0.86,11.55
10476514,0.011345,-0.006110,0.013883,0.14,0.62,12.19
10477524,-0.006765,0.019457,0.011753,-0.13,1.46,13.01
10478541,0.001757,-0.003979,-0.002096,-0.11,1.48,13.28
10479570,0.024128,-0.025285,0.002165,-0.94,0.71,11.62
10480560,0.015606,0.007739,0.016014,-1.11,0.97,11.04
10481567,-0.032332,0.024783,0.017079,-0.69,1.04,11.47
10482578,-0.028071,-0.007175,0.001100,-1.33,-0.17,9.68
10483596,0.024128,-0.015697,-0.002096,-1.73,0.03,9.41
10484598,0.008149,0.004543,0.011753,-0.70,-0.10,9.86
10485607,-0.035528,0.008804,0.011753,-0.88,-1.69,8.34
10486618,-0.004635,0.001347,-0.002096,-1.45,-0.95,8.29
10487627,0.030520,-0.007175,-0.003161,0.02,-1.32,8.92
10488659,-0.003569,-0.000783,0.012818,0.21,-2.43,7.45
10489647,-0.028071,0.020522,0.013883,-0.49,-1.24,7.39
10490673,-0.005700,0.007739,-0.001030,0.72,-1.44,8.53
10491667,0.019867,-0.025285,-0.002096,0.93,-1.67,7.96
10492676,0.017736,-0.010371,0.010688,0.47,-1.15,8.08
10493695,-0.007830,0.015196,0.007492,1.32,-0.83,8.77
10494696,-0.001439,-0.015697,-0.006357,1.54,-0.57,8.70
10495706,0.034781,-0.030611,-0.001030,1.10,-0.81,9.43
10496716,0.021997,0.007739,0.013883,1.29,0.12,10.34
10497726,-0.033397,0.020522,0.012818,1.29,0.50,10.74
10498763,-0.022744,-0.001849,-0.002096,0.48,0.36,11.81
10499747,0.019867,-0.001849,-0.002096,0.18,1.36,12.93
10500774,-0.014222,0.013065,0.008557,0.09,1.48,13.32
10501769,-0.045115,0.014131,0.005361,-0.71,0.91,12.08
10502778,0.000692,0.002413,-0.002096,-0.89,1.20,11.64
10503796,0.023063,-0.010371,0.003231,-0.67,1.19,12.04
10504798,-0.008896,-0.001849,0.013883,-1.31,0.13,10.11
10505807,-0.013157,0.016261,0.006426,-1.60,0.21,9.64
10506818,0.015606,-0.000783,-0.002096,-0.80,0.13,10.11
10507827,0.020932,-0.012501,0.008557,-1.02,-1.26,8.67
10508862,-0.000373,0.014131,0.014949,-1.54,-0.74,8.69
10509847,-0.015287,0.013065,0.003231,-0.12,-1.14,9.12
10510873,0.008149,-0.025285,-0.006357,-0.01,-2.38,7.48
10511867,0.028389,-0.016762,0.005361,-0.72,-1.27,7.45
10512876,-0.006765,0.014131,0.011753,0.63,-1.58,8.52
10513898,-0.018483,-0.003979,-0.001030,0.81,-1.82,7.81
10514899,0.024128,-0.017828,-0.003161,0.28,-1.11,7.98
10515913,0.019867,0.009870,0.010688,1.19,-1.00,8.75
10516921,-0.036593,0.019457,0.011753,1.45,-0.78,8.58
10517938,-0.019548,0.003478,0.000035,1.13,-0.97,9.10
10518973,0.024128,-0.000783,0.000035,1.41,-0.11,9.88
10519970,-0.014222,0.004543,0.009622,1.47,0.33,10.26
10520968,-0.032332,0.004543,0.004296,0.72,0.19,11.44
10521980,0.019867,-0.000783,-0.004226,0.42,1.29,12.74
10522989,0.023063,-0.009306,0.003231,0.27,1.49,13.17
10524005,-0.018483,0.002413,0.012818,-0.66,0.95,12.27
10525007,-0.002504,0.012000,0.005361,-0.83,1.37,12.05
10526017,0.019867,0.002413,0.003231,-0.58,1.33,12.37
10527023,-0.002504,0.007739,0.016014,-1.28,0.21,10.30
10528033,-0.013157,0.019457,0.011753,-1.64,0.35,9.70
10529072,0.007084,-0.007175,-0.004226,-0.86,0.36,10.24
10530071,0.018802,-0.028481,0.001100,-1.12,-1.11,8.85
10531071,0.004953,-0.001849,0.011753,-1.69,-0.72,8.72
10532070,-0.000373,0.000282,0.003231,-0.29,-1.05,9.12
10533081,0.019867,-0.027415,0.002165,-0.11,-2.37,7.59
10534095,0.024128,-0.007175,0.016014,-0.76,-1.30,7.42
10535096,-0.008896,0.018392,0.017079,0.58,-1.50,8.43
10536111,-0.014222,-0.003979,0.004296,0.77,-1.91,7.68
10537120,0.013475,-0.012501,0.004296,0.26,-1.18,7.77
10538129,-0.005700,0.013065,0.012818,1.17,-0.95,8.75
10539166,-0.029136,-0.000783,0.004296,1.45,-0.84,8.58
10540165,0.006018,-0.018893,0.001100,1.13,-1.02,8.88
10541159,0.018802,0.004543,0.013883,1.47,-0.14,9.78
10542168,-0.022744,0.013065,0.018145,1.48,0.23,10.20
10543177,-0.013157,-0.003979,0.005361,0.70,0.12,11.33
10544196,0.025193,-0.000783,0.005361,0.52,1.22,12.65
10545197,-0.015287,0.017327,0.019210,0.35,1.37,13.02
10546208,-0.042985,0.013065,0.013883,-0.63,0.89,12.29
10547217,0.007084,0.000282,0.006426,-0.78,1.40,12.32
10548228,0.011345,-0.001849,0.016014,-0.55,1.36,12.39
10549262,-0.022744,0.003478,0.017079,-1.31,0.25,10.28
10550271,0.006018,0.004543,0.003231,-1.61,0.43,9.86
10551257,0.028389,-0.001849,0.004296,-0.85,0.39,10.40
10552266,-0.008896,0.004543,0.016014,-1.19,-1.07,8.99
10553276,-0.013157,0.015196,0.008557,-1.65,-0.64,8.59
10554295,0.015606,0.004543,0.000035,-0.31,-0.99,9.01
10555296,0.002822,-0.002914,0.010688,-0.27,-2.31,7.69
10556306,-0.017418,0.012000,0.013883,-0.78,-1.30,7.39
10557338,0.015606,-0.028481,0.000035,0.70,-2.06,7.69
10558326,0.008149,-0.014632,0.013883,0.23,-1.29,7.84
10559365,-0.000373,0.002413,0.007492,1.16,-0.94,8.93
10560365,0.011345,-0.019958,0.001100,1.41,-1.06,8.58
10561359,0.017736,-0.013567,0.012818,1.16,-1.13,8.73
10562368,-0.004635,0.015196,0.016014,1.54,-0.16,9.71
10563377,-0.014222,-0.001849,0.006426,1.51,0.12,10.09
10564396,0.011345,-0.018893,0.006426,0.74,0.03,11.27
10565397,0.003888,0.008804,0.013883,0.54,1.16,12.56
10566408,-0.016353,-0.000783,0.005361,0.39,1.34,12.88
10567417,0.012410,-0.027415,0.001100,-0.60,0.83,12.32
10568428,0.025193,-0.000783,0.013883,-0.80,1.36,12.36
10569462,-0.017418,0.016261,0.014949,-0.56,1.42,12.54
10570465,-0.019548,-0.006110,0.001100,-1.28,0.24,10.44
10571457,0.019867,-0.001849,0.005361,-1.62,0.34,9.84
10572466,-0.009961,0.014131,0.011753,-0.84,0.41,10.38
10573476,-0.034462,-0.001849,0.001100,-1.08,-1.10,8.97
10574495,0.010279,-0.008240,-0.002096,-1.67,-0.70,8.87
10575496,0.007084,0.008804,0.005361,-0.31,-0.99,9.25
10576506,-0.027005,0.005608,-0.002096,-0.14,-2.46,7.57
10577516,0.008149,-0.000783,-0.007422,-0.87,-1.30,7.53
10578526,0.024128,0.008804,0.002165,0.56,-1.65,8.61
10579565,-0.024875,0.013065,0.005361,0.84,-2.09,7.68
10580565,-0.014222,0.009870,-0.004226,0.19,-1.14,7.79
10581559,0.021997,0.009870,-0.004226,1.18,-1.30,8.50
10582568,-0.013157,0.012000,0.003231,1.50,-0.92,8.43
10583577,-0.022744,0.006674,-0.004226,1.13,-0.93,9.07
10584596,0.020932,-0.000783,-0.005292,1.43,-0.35,9.63
10585597,0.008149,0.000282,0.005361,1.49,0.33,10.01
10586608,-0.015287,0.008804,0.002165,0.81,0.20,11.35
10587617,0.017736,0.005608,-0.007422,0.42,1.22,12.73
10588650,0.007084,0.002413,-0.001030,0.26,1.51,13.26
10589645,-0.025940,0.010935,0.001100,-0.52,1.06,12.47
10590664,0.004953,0.010935,-0.007422,-0.78,1.41,12.19
10591657,0.013475,0.002413,-0.001030,-0.69,1.30,12.45
10592666,-0.017418,0.001347,0.006426,-1.28,0.37,10.36
10593676,0.008149,0.002413,0.000035,-1.53,0.45,9.67
10594693,0.020932,-0.001849,0.002165,-0.88,0.30,10.08
10595696,-0.017418,0.002413,0.009622,-1.12,-1.19,8.69
10596706,-0.002504,0.007739,0.002165,-1.61,-0.71,8.74
10597716,0.021997,0.006674,0.002165,-0.25,-1.09,9.11
10598751,-0.016353,0.010935,0.008557,-0.06,-2.49,7.40
10599745,-0.014222,0.012000,0.000035,-0.71,-1.33,7.37
10600765,0.020932,0.000282,-0.002096,0.58,-1.46,8.46
10601759,-0.004635,-0.005044,0.007492,0.84,-1.84,7.73
10602768,-0.011026,0.002413,0.005361,0.35,-1.17,7.85
10603777,0.025193,0.001347,0.002165,1.21,-1.00,8.58
10604795,0.002822,0.000282,0.010688,1.47,-0.77,8.49
10605797,-0.020614,0.006674,0.009622,1.17,-0.91,9.17
10606808,0.015606,0.001347,0.004296,1.41,-0.01,10.05
10607817,-0.000373,0.001347,0.009622,1.38,0.50,10.51
10608850,-0.027005,0.008804,0.005361,0.57,0.35,11.75
10609845,0.011345,0.004543,-0.004226,0.18,1.38,12.97
10610864,0.011345,-0.001849,0.003231,0.04,1.55,13.33
10611857,-0.019548,-0.000783,0.006426,-0.80,0.92,12.24
10612866,0.013475,0.000282,-0.001030,-1.00,1.25,11.84
10613876,0.017736,0.001347,0.005361,-0.77,1.22,12.04
10614898,-0.022744,0.006674,0.009622,-1.39,0.07,10.04
10615899,0.003888,0.007739,-0.001030,-1.68,0.21,9.56
10616913,0.014541,0.006674,0.002165,-0.81,0.11,10.07
10617921,-0.027005,0.007739,0.006426,-0.97,-1.46,8.59
10618962,-0.005700,0.002413,-0.001030,-1.55,-0.97,8.50
10619970,0.018802,-0.002914,0.002165,-0.11,-1.41,8.99
10620955,-0.013157,-0.003979,0.007492,0.16,-2.52,7.36
10621969,0.002822,-0.002914,0.000035,-0.52,-1.33,7.31
10622975,0.029454,0.001347,0.002165,0.75,-1.55,8.49
10623988,-0.014222,0.006674,0.006426,1.02,-1.74,7.93
10625008,-0.017418,0.007739,-0.001030,0.53,-1.16,8.08
10626007,0.018802,0.005608,-0.002096,1.36,-0.83,8.73
10627017,-0.016353,0.006674,0.004296,1.63,-0.53,8.67
10628027,-0.023810,0.004543,0.000035,1.24,-0.78,9.55
10629060,0.020932,0.000282,-0.001030,1.31,0.18,10.61
10630076,-0.001439,-0.001849,0.006426,1.19,0.70,11.15
10631059,-0.018483,-0.000783,0.004296,0.38,0.57,12.08
10632064,0.028389,0.000282,-0.002096,0.03,1.53,13.09
10633070,0.010279,0.005608,0.003231,-0.09,1.58,13.40
10634081,-0.028071,0.010935,0.004296,-0.89,0.86,11.79
10635094,0.009214,0.008804,0.000035,-1.09,1.12,11.20
