time_us,gyro_x_rad_s,gyro_y_rad_s,gyro_z_rad_s,acc_x_m_s2,acc_y_m_s2,acc_z_m_s2
2632184462,-0.001032,0.003091,0.000423,0.07,-0.30,9.81
2632185132,0.000031,0.001871,0.000391,0.07,-0.30,9.80
2632185711,0.001095,-0.002389,-0.000674,0.06,-0.32,9.80
2632186705,0.000030,-0.004517,-0.001738,0.06,-0.31,9.79
2632187716,0.000030,-0.003448,-0.000672,0.05,-0.31,9.85
2632188731,0.000030,-0.001316,0.001457,0.03,-0.32,9.86
2632189730,0.000030,-0.000251,0.001455,0.04,-0.31,9.84
2632190753,0.000030,-0.000250,0.000390,0.06,-0.31,9.83
2632191701,0.000030,-0.000250,0.000389,0.06,-0.31,9.83
2632192720,0.001094,-0.002378,0.001453,0.07,-0.34,9.78
2632193721,0.001093,-0.001312,0.001452,0.07,-0.33,9.81
2632194735,0.000028,-0.000246,0.000386,0.04,-0.33,9.84
2632195737,0.000028,-0.000246,0.000386,0.03,-0.34,9.87
2632196762,-0.001036,-0.002374,0.001449,0.03,-0.35,9.85
2632197759,-0.001035,-0.003436,0.002512,0.04,-0.33,9.82
2632198783,0.000030,-0.002368,0.001445,0.04,-0.30,9.86
2632199777,0.000030,-0.000238,-0.001749,0.03,-0.29,9.85
2632200794,-0.001034,0.001891,-0.002811,0.03,-0.34,9.82
2632201796,-0.002098,0.002953,-0.000680,0.01,-0.35,9.83
2632202810,-0.002096,0.000822,0.004642,0.01,-0.33,9.84
2632203817,-0.002093,-0.000243,0.006765,0.04,-0.34,9.87
2632204834,-0.001027,-0.002371,0.003566,0.07,-0.35,9.86
2632205836,-0.001026,-0.002369,0.000370,0.06,-0.35,9.83
2632206853,0.001103,-0.001302,-0.001759,0.06,-0.35,9.80
2632207868,0.002167,-0.002365,-0.001757,0.06,-0.35,9.83
2632208862,0.002164,-0.002363,-0.002820,0.03,-0.34,9.85
2632209879,0.000034,-0.001296,-0.002817,0.02,-0.34,9.81
2632210906,-0.001031,-0.001295,-0.002814,0.04,-0.34,9.85
2632211899,0.002163,-0.001293,-0.001747,0.03,-0.32,9.82
2632212902,0.002161,-0.000228,-0.002809,0.02,-0.32,9.77
2632213919,0.000030,0.001901,-0.003871,0.02,-0.35,9.82
2632214922,-0.001034,0.001899,-0.000674,0.04,-0.34,9.82
2632215939,0.000031,0.000833,0.001455,0.04,-0.30,9.78
2632216942,0.001096,-0.000232,0.000389,0.06,-0.30,9.79
2632217965,0.001094,-0.001296,-0.002804,0.05,-0.30,9.79
2632218962,0.001093,-0.002359,-0.002801,0.01,-0.31,9.78
2632219979,0.000028,-0.003421,-0.000670,0.02,-0.32,9.80
2632220982,0.000028,-0.004482,0.000395,0.02,-0.33,9.82
2632221999,-0.001036,-0.003413,0.000395,0.05,-0.35,9.84
2632223002,-0.002099,-0.000217,0.000394,0.07,-0.33,9.84
2632224019,-0.002097,0.000847,0.000394,0.07,-0.31,9.86
2632225022,0.001097,-0.001282,0.000394,0.05,-0.34,9.83
2632226039,0.002161,-0.000216,-0.001735,0.02,-0.36,9.79
2632227042,0.001094,0.001912,-0.002798,0.02,-0.34,9.82
2632228065,0.000029,0.002975,-0.000666,0.04,-0.33,9.85
2632229062,-0.001035,0.002972,0.001463,0.05,-0.34,9.85
2632230079,0.000030,-0.000224,0.001461,0.07,-0.33,9.84
2632231082,-0.001034,-0.000224,0.001460,0.08,-0.33,9.81
2632232099,-0.002098,0.000841,0.000394,0.08,-0.34,9.81
2632233102,-0.002095,-0.000224,-0.001735,0.05,-0.35,9.84
2632234119,-0.001029,-0.000224,-0.001733,0.06,-0.37,9.86
2632235122,0.001100,-0.000224,0.000397,0.07,-0.36,9.86
2632236139,0.001099,-0.000224,-0.000668,0.05,-0.34,9.85
2632237142,0.000034,0.000841,-0.001731,0.07,-0.34,9.78
2632238165,0.001098,-0.001289,-0.001729,0.08,-0.32,9.74
2632239162,0.002161,-0.002351,-0.001728,0.06,-0.33,9.79
2632240179,0.001095,-0.001285,-0.000662,0.02,-0.34,9.87
2632241182,0.000030,-0.000219,0.000403,0.02,-0.34,9.90
2632242199,0.001094,-0.001283,0.000403,0.04,-0.31,9.89
2632243202,0.001093,-0.000218,0.000402,0.06,-0.30,9.83
2632244219,0.000027,-0.001282,0.001466,0.05,-0.34,9.77
2632245222,0.000027,-0.000216,0.001465,0.04,-0.35,9.79
2632246239,0.000027,0.000848,0.001463,0.05,-0.34,9.84
2632247242,0.000027,0.000847,0.001462,0.05,-0.34,9.84
2632248265,-0.001037,0.001911,0.000396,0.08,-0.34,9.82
2632249262,-0.002100,0.002973,0.000396,0.06,-0.31,9.81
2632250279,-0.001034,-0.000223,0.000395,0.03,-0.30,9.77
2632251282,0.001096,-0.003415,0.001459,0.05,-0.31,9.74
2632252299,0.000030,-0.004476,0.003586,0.04,-0.32,9.79
2632253302,0.000030,-0.003407,0.001454,0.00,-0.31,9.84
2632254319,0.003223,-0.002340,-0.001740,-0.02,-0.32,9.82
2632255322,0.002155,0.000855,-0.001738,0.03,-0.35,9.81
2632256339,0.000025,0.001919,0.000392,0.05,-0.35,9.80
2632257342,-0.001039,0.001917,0.000392,0.04,-0.34,9.79
2632258365,-0.002103,0.000851,0.000391,0.03,-0.33,9.81
2632259362,-0.001036,0.000850,-0.000673,0.05,-0.33,9.81
2632260379,0.000029,-0.001280,-0.002801,0.06,-0.33,9.83
2632261382,-0.001035,-0.002342,0.000394,0.03,-0.34,9.86
2632262399,-0.003163,-0.001276,0.003586,0.03,-0.34,9.84
2632263402,-0.003159,-0.000210,0.001454,0.05,-0.33,9.82
2632264419,-0.002092,-0.000210,0.001453,0.03,-0.31,9.83
2632265422,-0.002090,-0.002338,0.001451,0.03,-0.30,9.84
2632266439,-0.001024,-0.002336,0.000386,0.06,-0.30,9.83
2632267442,-0.001023,-0.000205,0.000385,0.08,-0.30,9.79
2632268465,-0.001022,-0.000205,0.000385,0.07,-0.32,9.76
2632269462,0.000044,-0.000205,0.001449,0.05,-0.34,9.77
2632270479,0.001108,-0.001269,0.000383,0.05,-0.34,9.80
2632271482,0.000043,-0.002332,-0.000681,0.04,-0.36,9.85
2632272499,0.001107,-0.003394,-0.000681,0.03,-0.36,9.85
2632273502,0.002170,-0.001262,0.001448,0.02,-0.33,9.84
2632274519,0.003232,0.000868,0.003575,0.01,-0.35,9.79
2632275522,0.002164,-0.001261,0.003572,0.03,-0.35,9.77
2632276539,0.000034,-0.001260,0.001440,0.07,-0.37,9.80
2632277542,0.000034,-0.001259,-0.000690,0.06,-0.39,9.78
2632278565,0.001098,-0.000193,-0.001754,0.04,-0.34,9.79
2632279562,0.002161,0.000871,-0.000688,0.08,-0.31,9.82
2632280579,0.003223,-0.000194,-0.001751,0.08,-0.33,9.82
2632281582,0.003220,-0.001258,-0.002814,0.07,-0.34,9.85
2632282602,0.000024,-0.001257,-0.002811,0.06,-0.35,9.84
2632283609,-0.001040,-0.001255,-0.001744,0.05,-0.35,9.81
2632284635,0.000025,-0.001254,-0.000678,0.04,-0.32,9.76
2632285624,0.001089,-0.001253,-0.000677,0.02,-0.29,9.71
2632286649,0.001088,-0.000187,-0.001741,0.01,-0.31,9.78
2632287650,0.000023,-0.000187,-0.002803,0.02,-0.33,9.85
2632288675,0.002151,-0.000187,-0.004929,0.06,-0.34,9.83
2632289668,0.003213,0.000877,-0.003859,0.07,-0.34,9.80
2632290686,0.003210,0.000876,-0.001727,0.04,-0.29,9.78
2632291695,0.001078,-0.000189,0.000403,0.04,-0.31,9.79
2632292709,0.001077,-0.000188,-0.000662,0.06,-0.33,9.83
2632293707,0.003204,-0.000188,-0.001725,0.06,-0.34,9.79
2632294725,0.002137,-0.000188,-0.000659,0.06,-0.36,9.77
2632295728,0.001071,0.001940,0.001470,0.08,-0.33,9.80
2632296748,-0.001059,0.003003,0.000404,0.08,-0.29,9.81
2632297756,-0.001058,-0.000193,-0.001725,0.07,-0.32,9.80
2632298773,-0.001057,-0.003385,-0.002787,0.07,-0.34,9.80
2632299809,-0.001056,-0.003382,-0.001720,0.06,-0.35,9.79
2632300812,0.001074,-0.002314,0.000410,0.05,-0.35,9.80
2632301812,0.001073,-0.001248,0.000410,0.07,-0.33,9.82
2632302828,0.000007,-0.000182,0.000409,0.08,-0.34,9.86
2632303852,0.000007,0.000882,0.000409,0.04,-0.34,9.85
2632304872,0.000007,-0.001247,-0.001720,0.00,-0.32,9.78
2632305856,-0.002121,-0.001246,-0.001718,0.01,-0.34,9.74
2632306871,-0.004247,-0.001245,0.002540,0.03,-0.36,9.81
2632307881,-0.003179,-0.000179,0.004666,0.05,-0.34,9.86
2632308869,0.000017,-0.000179,0.003597,0.04,-0.29,9.78
2632309872,0.001081,-0.001243,0.000401,0.02,-0.31,9.74
2632310876,0.002144,-0.000178,-0.001728,0.04,-0.34,9.81
2632311892,0.001078,0.000887,-0.001726,0.04,-0.36,9.83
2632312897,0.000013,-0.000178,0.000404,0.03,-0.35,9.80
2632313918,0.001077,-0.001242,0.001468,0.05,-0.30,9.80
2632314932,0.001076,-0.001241,0.001466,0.04,-0.30,9.82
2632315948,0.003203,0.000889,-0.001728,0.05,-0.34,9.84
2632316949,0.002136,0.000888,-0.000662,0.05,-0.33,9.81
2632317966,-0.001059,-0.000177,0.001467,0.05,-0.31,9.79
2632318977,-0.004251,-0.001241,0.003594,0.05,-0.32,9.79
2632320012,-0.004246,-0.000176,0.003591,0.02,-0.31,9.80
2632320999,-0.002114,0.001953,0.002523,0.02,-0.31,9.86
2632322006,-0.001047,0.000886,0.001456,0.07,-0.31,9.86
2632323011,-0.001046,-0.001243,0.000390,0.08,-0.30,9.78
2632324012,-0.003174,-0.004434,-0.000674,0.05,-0.33,9.79
2632325023,-0.003170,-0.004430,-0.001738,0.04,-0.34,9.81
2632326034,-0.001039,-0.003361,-0.002800,0.04,-0.36,9.81
2632327037,-0.001038,-0.001229,-0.002797,0.02,-0.34,9.81
2632328069,0.002156,0.001965,-0.000666,0.04,-0.30,9.82
2632329058,0.003218,0.004091,-0.000666,0.05,-0.31,9.87
2632330113,0.002150,0.003023,-0.002793,0.05,-0.31,9.86
2632331108,-0.001044,-0.000173,-0.003855,0.05,-0.35,9.79
2632332121,-0.002107,-0.001237,-0.001722,0.04,-0.37,9.76
2632333110,-0.001041,0.000893,0.000408,0.05,-0.31,9.76
2632334137,-0.001040,0.001956,0.000408,0.07,-0.30,9.81
2632335121,-0.001039,0.000890,-0.000657,0.07,-0.31,9.83
2632336137,-0.001038,-0.003368,-0.001721,0.05,-0.31,9.85
2632337136,-0.001037,-0.004429,-0.000655,0.06,-0.31,9.82
2632338160,0.000028,-0.001232,-0.001718,0.08,-0.31,9.81
2632339156,0.002157,0.000898,-0.002781,0.05,-0.34,9.83
2632340175,0.002155,0.000897,-0.000650,0.05,-0.35,9.81
2632341209,0.001088,-0.000168,0.001480,0.06,-0.35,9.86
2632342222,0.001087,0.000896,0.001478,0.04,-0.35,9.86
2632343222,0.000022,-0.000169,0.001477,0.04,-0.33,9.82
2632344238,-0.001043,-0.001233,0.000411,0.04,-0.34,9.79
2632345230,0.003215,-0.001232,-0.001718,0.03,-0.35,9.78
2632346270,0.004276,-0.000166,-0.002781,0.05,-0.33,9.82
2632347251,0.003208,0.001962,-0.001713,0.08,-0.32,9.84
2632348290,0.002140,0.003025,-0.000648,0.04,-0.32,9.84
2632349274,0.001074,0.001957,0.001481,0.04,-0.32,9.79
2632350308,-0.001056,0.000891,0.001480,0.05,-0.33,9.76
2632351291,-0.002119,-0.000174,0.000414,0.04,-0.32,9.82
2632352344,-0.002117,-0.000174,-0.001715,0.06,-0.30,9.84
2632353294,-0.003179,0.000890,-0.001713,0.07,-0.31,9.80
2632354335,-0.003176,-0.000175,-0.000647,0.04,-0.30,9.78
2632355317,-0.002108,-0.003367,0.000418,0.04,-0.29,9.77
2632356344,0.000023,-0.003364,0.000418,0.05,-0.29,9.77
2632357338,0.002151,-0.003360,0.000417,0.02,-0.33,9.77
2632358360,0.001085,-0.001228,0.000417,0.02,-0.37,9.81
2632359375,0.001083,0.001965,-0.000648,0.05,-0.33,9.83
2632360378,0.002146,0.004092,-0.000647,0.04,-0.32,9.81
2632361411,0.003209,0.004088,0.000418,0.02,-0.34,9.75
2632362432,0.002141,0.000891,0.002546,0.05,-0.33,9.74
2632363413,0.000010,0.000890,0.002543,0.07,-0.34,9.75
2632364431,0.000010,0.001953,0.000412,0.05,-0.35,9.74
2632365414,-0.001054,0.000887,-0.001717,0.06,-0.33,9.75
2632366431,-0.001053,-0.000178,-0.001715,0.08,-0.31,9.77
2632367434,0.000013,-0.001242,0.000415,0.05,-0.32,9.76
2632368457,0.001077,-0.003369,0.000415,0.05,-0.34,9.79
2632369454,0.001076,-0.004430,-0.001714,0.04,-0.34,9.82
2632370504,0.001075,-0.002297,-0.003841,0.04,-0.35,9.79
2632371514,0.001073,-0.002295,-0.003837,0.04,-0.35,9.78
2632372498,0.000008,-0.000164,-0.001705,0.03,-0.34,9.80
2632373494,0.000008,0.000901,0.001490,0.03,-0.33,9.77
2632374511,0.002137,-0.000165,0.003617,0.04,-0.32,9.80
2632375514,0.002134,-0.001229,0.002549,0.04,-0.33,9.85
2632376531,0.002132,-0.000163,0.001482,0.04,-0.32,9.82
2632377534,0.001066,-0.000163,0.001481,0.04,-0.32,9.82
2632378557,-0.001064,-0.001227,0.003607,0.03,-0.35,9.79
2632379561,-0.001062,0.000903,0.002540,0.03,-0.35,9.73
2632380571,-0.001061,0.003030,0.000409,0.03,-0.34,9.73
2632381574,0.000004,0.003027,-0.000656,0.01,-0.33,9.80
2632382598,0.001068,0.001960,0.000409,0.03,-0.32,9.80
2632383594,0.002131,-0.000171,0.000408,0.04,-0.30,9.77
2632384611,0.001065,-0.003363,0.000408,0.02,-0.29,9.79
2632385616,-0.001065,-0.004424,-0.000657,0.01,-0.30,9.78
2632386656,-0.001064,-0.004419,-0.000656,0.03,-0.31,9.80
2632387635,0.001066,-0.001222,0.000409,0.05,-0.32,9.81
2632388673,0.001065,-0.000157,0.000409,0.04,-0.30,9.77
2632389654,-0.001065,-0.002285,-0.000656,0.06,-0.32,9.80
2632390677,-0.002128,-0.003347,-0.000655,0.06,-0.31,9.81
2632391684,-0.001061,-0.002279,0.000409,0.05,-0.30,9.83
2632392704,0.001068,0.003044,0.000409,0.04,-0.34,9.84
2632393704,0.001067,0.001977,-0.000656,0.04,-0.35,9.86
2632394720,0.002130,-0.000154,-0.002783,0.04,-0.32,9.82
2632395721,0.000000,-0.002282,-0.003845,0.04,-0.31,9.78
2632396747,-0.001065,-0.003344,-0.002777,0.03,-0.33,9.78
2632397747,0.001065,-0.001212,0.000419,0.05,-0.33,9.84
2632398770,0.001064,-0.001211,-0.000646,0.06,-0.32,9.78
2632399760,-0.000002,-0.000146,-0.001709,0.04,-0.33,9.76
2632400779,-0.001066,0.000919,-0.001708,0.04,-0.30,9.83
2632401781,-0.002129,0.000918,-0.000642,0.02,-0.30,9.84
2632402803,-0.001063,-0.000147,-0.000641,0.02,-0.30,9.82
2632403799,0.001067,-0.000147,0.000424,0.02,-0.31,9.81
2632404811,0.001066,-0.000147,0.000423,0.02,-0.34,9.85
2632405818,0.000001,-0.000147,0.000423,0.01,-0.34,9.86
2632406835,0.000001,0.000918,0.000422,0.04,-0.31,9.82
2632407850,-0.001064,0.001981,0.000422,0.05,-0.34,9.83
2632408847,0.000002,0.003043,0.000422,0.04,-0.33,9.83
2632409900,0.001066,0.001976,-0.000643,0.05,-0.33,9.84
2632410903,0.000001,-0.001219,-0.002771,0.06,-0.34,9.78
2632411888,-0.001064,-0.001218,-0.001704,0.06,-0.33,9.70
2632412894,0.000002,-0.000152,0.000426,0.04,-0.35,9.75
2632413903,0.001066,0.000912,0.001490,0.03,-0.35,9.78
2632414911,0.000001,0.001976,0.002553,0.04,-0.32,9.82
2632415943,-0.002128,0.001974,0.003615,0.06,-0.31,9.79
2632416924,-0.001061,-0.000157,0.003611,0.08,-0.36,9.76
2632417958,0.000004,-0.001221,0.003607,0.06,-0.37,9.80
2632418944,0.001068,-0.002284,0.001475,0.04,-0.31,9.77
2632419961,0.001067,-0.002282,0.000410,0.06,-0.32,9.78
2632420964,0.000002,-0.000151,0.000409,0.05,-0.36,9.81
2632421988,0.000002,0.000913,0.001473,0.03,-0.33,9.79
2632423024,0.000002,0.000913,0.001471,0.05,-0.32,9.82
2632424001,0.000002,-0.000153,-0.000658,0.05,-0.30,9.85
2632425004,0.000002,-0.000152,-0.001722,0.03,-0.31,9.83
2632426021,0.001066,-0.000152,-0.002785,0.02,-0.34,9.82
2632427024,0.001065,0.001976,-0.001718,0.00,-0.33,9.84
2632428047,0.002128,0.001974,0.000413,0.02,-0.32,9.80
2632429075,0.002126,0.001972,0.000412,0.05,-0.32,9.80
2632430077,0.002124,0.001970,-0.000652,0.02,-0.32,9.84
2632431064,0.002121,0.000904,-0.000652,-0.01,-0.33,9.82
2632432088,0.002119,-0.001225,-0.000651,0.01,-0.34,9.84
2632433084,0.001053,-0.002288,0.000414,0.04,-0.35,9.82
2632434101,0.001052,-0.002286,0.000413,0.06,-0.34,9.75
2632435104,-0.000013,-0.000155,0.001477,0.05,-0.33,9.77
2632436121,-0.001078,0.000909,0.002540,0.07,-0.31,9.82
2632437124,-0.000012,0.000908,0.003601,0.06,-0.31,9.86
2632438147,0.001052,-0.000157,0.002534,0.04,-0.32,9.89
2632439144,-0.000013,-0.001221,0.002531,0.07,-0.29,9.87
2632440161,-0.001077,-0.001220,0.003593,0.08,-0.29,9.82
2632441164,-0.002141,-0.000154,0.002525,0.05,-0.31,9.85
2632442188,-0.002138,0.003038,-0.000670,0.04,-0.31,9.86
2632443184,-0.000008,0.001971,-0.001734,0.05,-0.34,9.82
2632444201,0.002121,0.001969,0.000396,0.07,-0.35,9.85
2632445204,0.004247,0.000903,0.001460,0.08,-0.31,9.84
2632446221,0.004243,-0.000162,0.000394,0.04,-0.29,9.82
2632447224,0.002110,-0.001226,0.000394,0.01,-0.29,9.83
2632448247,-0.001085,-0.001225,0.000394,0.03,-0.29,9.78
2632449283,-0.002148,-0.001224,-0.000671,0.05,-0.28,9.74
2632450290,-0.002146,-0.000158,-0.000670,0.03,-0.30,9.77
2632451297,-0.002144,-0.000158,0.000395,0.04,-0.34,9.74
2632452320,0.001051,-0.001222,0.001458,0.05,-0.34,9.74
2632453284,0.003178,-0.001221,0.001457,0.03,-0.30,9.82
2632454301,-0.000017,-0.000155,-0.002801,0.05,-0.29,9.82
2632455304,-0.003210,0.000909,-0.003863,0.04,-0.30,9.84
2632456321,-0.003207,0.000908,-0.001730,0.03,-0.29,9.81
2632457324,-0.002139,-0.000157,0.000400,0.08,-0.27,9.79
2632458347,-0.001073,-0.000157,-0.000665,0.10,-0.27,9.82
2632459344,-0.000008,-0.000157,-0.002793,0.05,-0.31,9.81
2632460387,-0.000008,-0.000157,-0.003854,0.04,-0.33,9.81
2632461391,-0.000008,0.000908,-0.001722,0.04,-0.32,9.78
2632462388,-0.001072,0.000907,-0.000656,0.04,-0.29,9.78
2632463384,-0.000006,-0.000158,-0.000655,0.04,-0.30,9.81
2632464401,-0.000006,-0.001222,0.000410,0.04,-0.32,9.84
2632465404,-0.000006,-0.000157,0.001474,0.05,-0.33,9.82
2632466421,-0.001071,0.000907,0.001472,0.07,-0.33,9.83
2632467424,-0.001070,-0.001222,0.000406,0.07,-0.30,9.86
2632468447,-0.000004,-0.003349,0.000406,0.09,-0.31,9.83
2632469444,0.001060,-0.002281,0.000406,0.05,-0.35,9.82
2632470461,0.001059,-0.001215,-0.000659,0.01,-0.34,9.78
2632471464,0.001058,-0.000150,-0.000658,0.03,-0.33,9.79
2632472488,0.001057,-0.001214,0.000406,0.03,-0.34,9.83
2632473531,-0.001073,-0.001212,0.000406,0.04,-0.33,9.82
2632474501,-0.002136,-0.001211,-0.000659,0.01,-0.33,9.81
2632475504,-0.001069,-0.001210,-0.000658,0.00,-0.34,9.82
2632476548,-0.000004,-0.000145,-0.000657,0.02,-0.32,9.84
2632477540,-0.002133,0.003048,0.000408,0.04,-0.32,9.82
2632478547,-0.004259,0.004109,0.001471,0.05,-0.34,9.78
2632479549,-0.003190,0.004105,0.002534,0.04,-0.34,9.81
2632480561,-0.003187,0.001973,0.001467,0.03,-0.33,9.86
2632481564,-0.001056,0.000906,0.001466,0.02,-0.33,9.84
2632482588,0.001074,0.003034,0.001464,0.01,-0.34,9.79
2632483584,0.001073,0.001967,0.000399,0.02,-0.32,9.80
2632484630,0.000008,-0.000164,-0.000666,0.03,-0.31,9.82
2632485602,-0.001057,-0.001228,-0.000665,0.02,-0.33,9.83
2632486630,-0.001056,-0.000162,-0.000665,0.02,-0.29,9.85
2632487627,-0.001055,-0.000162,0.000400,0.02,-0.32,9.79
2632488664,-0.001053,0.000902,0.000400,0.00,-0.34,9.77
2632489645,0.000012,0.000901,0.000400,0.00,-0.31,9.81
2632490666,0.000012,-0.000164,0.000399,0.04,-0.33,9.82
2632491670,-0.001052,0.000901,0.001463,0.04,-0.36,9.78
2632492693,0.000013,-0.000165,0.000397,0.05,-0.32,9.76
2632493693,0.001077,0.000900,0.000397,0.06,-0.32,9.79
2632494718,0.001076,0.001963,-0.000668,0.07,-0.31,9.80
2632495718,0.001075,0.003025,-0.001731,0.07,-0.29,9.82
2632496734,-0.002119,0.005151,-0.000665,0.04,-0.32,9.82
2632497734,-0.003181,0.005145,-0.000665,0.03,-0.35,9.83
2632498772,-0.001049,0.003012,-0.000664,0.05,-0.32,9.81
2632499767,0.000016,0.001945,0.000401,0.05,-0.30,9.78
2632500782,0.001080,0.000878,0.001465,0.04,-0.31,9.82
2632501785,-0.001049,0.000878,0.001463,0.04,-0.31,9.82
2632502801,-0.001048,0.000877,0.002526,0.04,-0.31,9.81
2632503798,0.002145,0.001940,0.001459,0.04,-0.32,9.83
2632504806,0.002143,0.003002,0.000394,0.01,-0.32,9.83
2632505847,0.002141,0.000871,0.000393,0.00,-0.31,9.83
2632506840,0.002139,0.000870,0.000393,0.04,-0.27,9.81
2632507847,0.001073,0.000869,0.000392,0.07,-0.28,9.79
2632508845,-0.001057,-0.001260,0.002520,0.04,-0.32,9.80
2632509858,-0.002120,-0.000195,0.001454,0.05,-0.34,9.81
2632510860,-0.001054,0.001934,0.000388,0.05,-0.30,9.78
2632511872,0.000011,0.002996,0.000388,0.03,-0.28,9.80
2632512874,-0.001053,0.001929,-0.000677,0.03,-0.32,9.87
2632513891,-0.001052,-0.000201,-0.002805,0.06,-0.34,9.86
2632514894,0.000014,-0.000201,-0.002802,0.05,-0.33,9.83
2632515911,0.002142,-0.000201,0.000394,0.02,-0.30,9.83
2632516914,0.001076,-0.002329,0.002522,0.02,-0.32,9.80
2632517960,0.000010,-0.002327,0.004647,0.02,-0.34,9.81
2632518934,0.000010,-0.001260,0.003578,0.01,-0.34,9.86
2632519951,-0.002118,0.000869,0.000382,0.04,-0.32,9.85
2632520954,-0.003180,0.000869,-0.000682,0.05,-0.31,9.83
2632521971,-0.001049,-0.000197,-0.001746,0.03,-0.32,9.78
2632522974,0.002145,0.000868,0.000384,0.02,-0.32,9.78
2632523991,0.003207,0.000867,0.003576,0.03,-0.31,9.78
2632525030,0.002140,0.000866,0.003573,0.03,-0.31,9.81
2632526011,0.002137,0.000865,0.001441,0.02,-0.31,9.80
2632527043,0.000007,-0.001264,-0.001753,0.06,-0.33,9.74
2632528037,-0.002122,-0.002327,-0.001752,0.08,-0.33,9.77
2632529034,-0.001055,-0.003389,-0.000686,0.04,-0.31,9.85
2632530051,0.001074,-0.002321,0.000379,-0.01,-0.33,9.83
2632531054,0.000009,-0.000191,-0.000685,0.00,-0.33,9.83
2632532071,0.000009,-0.000190,-0.001749,0.02,-0.30,9.83
2632533074,0.000009,0.000874,-0.001747,0.04,-0.27,9.81
2632534091,0.000009,0.001937,-0.000681,0.07,-0.29,9.83
2632535094,-0.002119,-0.000193,0.000384,0.05,-0.32,9.80
2632536141,-0.002117,-0.002321,-0.000681,0.05,-0.32,9.79
2632537147,0.000013,-0.002319,-0.000680,0.05,-0.34,9.82
2632538164,0.001077,0.000876,0.000385,0.03,-0.34,9.85
2632539142,0.000012,0.001939,-0.000680,0.02,-0.32,9.84
2632540181,-0.002116,0.001938,-0.002808,0.03,-0.32,9.82
2632541188,-0.002114,-0.001257,0.000388,0.04,-0.32,9.85
2632542187,-0.002112,-0.002320,0.001452,0.06,-0.32,9.85
2632543206,-0.001046,-0.002318,0.000386,0.07,-0.33,9.77
2632544191,-0.002109,-0.002315,-0.000679,0.04,-0.33,9.74
2632545215,-0.003171,-0.000185,-0.000678,0.04,-0.33,9.72
2632546223,-0.002104,0.000880,0.000387,0.06,-0.36,9.81
2632547252,-0.001037,0.001943,0.001451,0.04,-0.36,9.88
2632548250,0.000028,0.003005,0.001449,0.02,-0.37,9.82
2632549234,0.000028,0.001938,-0.000681,0.03,-0.36,9.82
2632550274,0.000028,-0.000192,-0.001744,0.04,-0.30,9.88
2632551287,0.003220,-0.000192,-0.000678,0.06,-0.31,9.86
2632552292,0.003217,0.000872,-0.000677,0.05,-0.33,9.80
2632553302,0.001086,0.000872,-0.000677,0.05,-0.30,9.81
2632554307,0.000020,0.000871,-0.001740,0.03,-0.34,9.83
2632555294,0.000020,0.001934,-0.000674,0.04,-0.34,9.80
2632556330,0.001084,0.001932,0.000391,0.06,-0.31,9.79
2632557314,0.003212,-0.000198,0.000390,0.04,-0.32,9.82
2632558337,0.004273,-0.001262,0.001454,0.04,-0.33,9.80
2632559334,0.005333,0.000867,0.002517,0.05,-0.31,9.79
2632560391,0.005327,0.001931,0.003578,0.05,-0.31,9.80
2632561380,0.003193,-0.001264,0.002510,0.04,-0.32,9.80
2632562412,-0.000003,-0.003391,0.000380,0.04,-0.30,9.86
2632563405,-0.002131,-0.003387,-0.000685,0.04,-0.33,9.83
2632564409,-0.002129,-0.001256,-0.000684,0.05,-0.33,9.77
2632565394,-0.001062,0.000874,0.001445,0.07,-0.31,9.83
2632566411,0.000003,0.003002,0.001443,0.04,-0.32,9.82
2632567414,-0.001061,0.001934,0.001442,0.03,-0.34,9.82
2632568437,-0.002124,-0.001260,0.000376,0.04,-0.37,9.81
2632569434,-0.002122,-0.003387,-0.000688,0.05,-0.35,9.77
2632570491,-0.003184,-0.004448,-0.000688,0.06,-0.34,9.79
2632571475,-0.003181,-0.002315,0.000377,0.06,-0.32,9.80
2632572513,-0.003178,-0.001249,0.001441,0.06,-0.29,9.77
2632573482,-0.003175,-0.002311,0.000375,0.09,-0.30,9.77
2632574495,-0.002107,-0.003374,-0.000689,0.11,-0.32,9.79
2632575525,-0.002105,-0.001242,-0.001753,0.08,-0.33,9.80
2632576552,-0.001039,0.001952,-0.001751,0.05,-0.33,9.83
2632577545,0.000026,0.001950,0.000379,0.03,-0.32,9.85
2632578587,0.001091,0.000884,0.001443,0.04,-0.30,9.79
2632579552,0.000025,0.003011,0.000377,0.04,-0.31,9.78
2632580584,-0.003167,0.001944,-0.000687,0.04,-0.34,9.82
2632581578,-0.005293,-0.000186,-0.000686,0.04,-0.37,9.84
2632582594,-0.005287,-0.003379,0.001443,0.03,-0.37,9.84
2632583596,-0.001025,-0.002311,0.001441,0.04,-0.35,9.88
2632584613,0.002169,0.000884,0.000376,0.04,-0.32,9.87
2632585592,0.003231,0.000883,-0.000689,0.05,-0.28,9.81
2632586612,0.002163,-0.002310,-0.001753,0.06,-0.29,9.82
2632587616,0.000033,-0.003372,-0.001751,0.05,-0.29,9.82
2632588652,0.001097,0.000888,-0.000685,0.05,-0.34,9.75
2632589633,0.002160,0.004080,0.000380,0.07,-0.36,9.75
2632590685,0.003222,0.004076,-0.000685,0.07,-0.34,9.79
2632591735,-0.001038,0.003007,-0.002812,0.04,-0.32,9.79
2632592703,-0.006365,0.003007,-0.002812,0.01,-0.35,9.83
2632593653,-0.006365,0.003007,-0.002812,0.01,-0.35,9.83
2632594667,-0.044715,0.016856,-0.004943,0.03,-0.31,9.74
2632595677,-0.023409,0.010464,-0.016661,-0.17,-0.36,9.79
2632596687,0.002158,0.006203,-0.025183,-0.11,-0.48,9.76
2632597695,0.016006,0.003007,-0.027314,0.16,-0.55,9.88
2632598718,0.007484,0.000877,-0.025183,0.38,-0.55,9.81
2632599719,0.003223,-0.003385,-0.029444,0.45,-0.37,9.76
2632600725,-0.003169,-0.005515,-0.039032,0.34,-0.03,9.80
2632601739,-0.021278,-0.001254,-0.053946,-0.37,0.03,9.83
2632602754,-0.014887,0.004072,-0.059272,-0.78,-0.61,9.83
2632603764,0.003223,-0.004450,-0.043293,0.13,-0.82,9.80
2632604769,0.006419,-0.015103,-0.020922,1.01,0.13,9.83
2632605777,-0.009560,-0.001254,-0.018791,0.24,0.74,9.54
2632606795,-0.027670,0.029639,-0.032640,-1.02,-1.06,9.68
2632607802,0.000027,0.023247,-0.021987,-0.07,-1.07,10.21
2632608823,0.042638,-0.024690,0.000384,1.12,1.22,10.31
2632609818,0.013876,-0.035343,-0.004943,0.15,-0.44,9.42
2632610821,-0.035127,0.016856,-0.010269,-0.67,-1.30,9.79
2632611829,0.001092,0.024313,0.009971,0.13,1.32,10.42
2632612837,0.018137,-0.011907,0.018493,0.81,-1.09,9.48
2632613847,-0.006365,-0.002319,0.015298,-0.48,-1.00,10.14
2632614861,0.011745,0.018986,0.018493,-0.63,0.89,9.70
2632615867,0.007484,-0.006580,0.020624,1.12,-1.47,8.91
2632616877,-0.004234,-0.002319,0.023820,-0.36,0.34,10.38
2632617887,-0.002103,0.044553,0.032342,-0.43,-0.44,9.73
2632618906,-0.038323,0.015790,0.033407,0.41,-0.31,9.51
2632619921,-0.042584,-0.008711,0.028081,-0.16,-0.95,10.23
2632620931,0.013876,-0.012972,0.027016,-0.29,0.62,9.81
2632621938,0.026659,-0.015103,0.028081,0.26,-0.84,9.15
2632622940,-0.001038,-0.005515,0.025950,-0.13,-0.26,10.87
2632623950,-0.008495,-0.008711,0.018493,0.04,-0.29,8.78
2632624960,0.018137,-0.002319,0.013167,-0.23,-0.80,10.56
2632625971,-0.006365,-0.023625,0.009971,0.42,0.21,10.01
2632626997,-0.004234,-0.016168,0.007841,0.56,-1.62,9.86
2632628006,-0.018083,-0.001254,0.006775,-0.39,0.97,9.81
2632629012,-0.003169,0.011529,0.000384,0.57,-1.51,9.41
2632630011,0.018137,0.021117,-0.006008,-0.66,-0.43,10.51
2632631040,0.002158,-0.002319,-0.013465,-0.36,0.66,7.88
2632632034,0.003223,-0.001254,-0.018791,0.24,-1.41,10.99
2632633052,-0.003169,-0.005515,-0.016661,0.04,0.36,9.36
2632634061,0.004288,-0.005515,-0.021987,0.47,0.03,9.69
2632635068,-0.006365,-0.007646,-0.024118,0.10,-1.96,11.27
2632636067,-0.003169,-0.008711,-0.023053,-0.59,1.13,8.60
2632637077,0.002158,-0.005515,-0.026248,0.58,-0.21,9.02
2632638098,0.012811,-0.014037,-0.030510,0.39,-1.86,10.92
2632639097,0.042638,-0.009776,-0.029444,-0.73,1.65,8.92
2632640107,0.045834,0.000877,-0.027314,0.36,0.22,9.38
2632641117,0.030920,0.001942,-0.025183,0.62,-2.24,11.77
2632642127,0.025594,-0.019364,-0.026248,-0.45,0.88,9.01
2632643137,0.039443,-0.019364,-0.029444,-0.11,1.47,8.65
2632644147,0.033051,-0.011907,-0.031575,0.98,-1.90,11.54
2632645157,0.014941,-0.001254,-0.030510,0.40,-1.23,10.31
2632646183,0.005354,0.013660,-0.029444,-0.80,1.89,8.22
2632647177,-0.007430,0.008333,-0.029444,0.38,-0.11,9.69
2632648196,-0.007430,-0.001254,-0.025183,1.06,-2.10,11.83
2632649197,0.021333,-0.003385,-0.018791,-0.03,-0.36,9.78
2632650228,0.029855,-0.003385,-0.018791,-0.62,1.29,7.75
2632651217,0.014941,-0.004450,-0.020922,0.23,0.22,9.52
2632652237,-0.005299,0.011529,-0.019857,1.10,-1.70,11.64
2632653237,-0.017017,0.017921,-0.014530,0.33,-1.55,10.37
2632654247,-0.024474,0.011529,-0.010269,-0.80,0.69,8.19
2632655257,-0.017017,0.001942,-0.011334,-0.32,1.90,8.65
2632656267,-0.019148,0.006203,-0.016661,0.86,-0.68,11.23
2632657277,-0.017017,0.006203,-0.018791,0.72,-2.58,11.84
2632658325,-0.014887,0.004072,-0.018791,-0.05,-1.29,9.08
2632659297,-0.022344,0.005138,-0.020922,-0.96,1.53,7.05
2632660307,-0.013821,0.009399,-0.025183,-0.36,2.34,8.81
2632661335,-0.018083,0.007268,-0.028379,0.99,-0.68,12.36
2632662337,-0.020213,0.006203,-0.032640,0.91,-2.82,12.81
2632663345,-0.008495,0.004072,-0.035836,0.17,-1.92,9.36
2632664350,-0.004234,-0.002319,-0.041162,-0.74,0.12,6.56
2632665357,-0.001038,0.003007,-0.045423,-0.92,2.26,7.52
2632666367,0.007484,0.004072,-0.048619,0.15,1.90,11.11
2632667377,0.009615,-0.004450,-0.051815,1.18,-0.77,13.73
2632668396,0.019202,-0.007646,-0.055011,0.90,-2.53,11.76
2632669407,0.027724,-0.008711,-0.059272,0.01,-2.66,7.79
2632670415,0.008549,-0.010842,-0.066729,-0.44,-1.36,6.21
2632671417,0.006419,-0.018299,-0.073121,-0.74,1.34,7.09
2632672432,0.026659,-0.009776,-0.076317,-0.39,3.07,10.24
2632673440,0.024529,-0.003385,-0.082708,0.69,2.07,13.96
2632674460,0.000027,-0.006580,-0.088035,1.22,-0.56,13.59
2632675460,-0.007430,-0.007646,-0.092296,0.49,-2.36,10.16
2632676472,0.011745,-0.004450,-0.094426,0.00,-3.00,7.86
2632677484,0.025594,0.000877,-0.096557,0.28,-3.06,7.24
2632678501,0.003223,-0.006580,-0.102949,0.23,-1.33,7.79
2632679524,0.029855,-0.011907,-0.101883,-0.24,1.64,8.75
2632680528,0.053291,0.004072,-0.093361,-0.27,3.27,10.42
2632681527,0.006419,0.008333,-0.093361,0.33,2.72,12.93
2632682534,-0.045780,-0.014037,-0.101883,0.58,1.21,13.38
2632683537,-0.051106,-0.041735,-0.105079,0.37,-0.88,10.83
2632684547,-0.024474,-0.048126,-0.098687,0.26,-2.70,8.90
2632685557,0.018137,-0.019364,-0.086969,0.26,-3.15,8.53
2632686567,0.026659,0.013660,-0.089100,0.40,-3.13,8.20
2632687577,0.000027,-0.000189,-0.097622,0.44,-2.81,8.15
2632688598,-0.022344,-0.014037,-0.096557,-0.08,-1.25,8.61
2632689598,-0.006365,-0.017233,-0.092296,-0.14,0.77,8.61
2632690614,0.018137,-0.014037,-0.086969,-0.01,2.36,9.30
2632691619,-0.021278,0.001942,-0.091231,-0.45,2.84,11.07
2632692633,-0.061759,0.008333,-0.095492,-0.47,2.72,11.69
2632693641,-0.050041,-0.027886,-0.091231,0.00,2.00,11.75
2632694651,0.043704,-0.021494,-0.077382,-0.48,-0.25,10.59
2632695667,0.026659,-0.017233,-0.078447,-0.42,-1.43,8.69
2632696677,-0.009560,-0.033212,-0.082708,-0.34,-2.56,8.73
2632697687,-0.012756,-0.023625,-0.085904,-0.19,-2.27,8.18
2632698704,-0.008495,0.011529,-0.084839,0.22,-2.45,8.01
2632699704,-0.011691,0.033900,-0.081643,0.29,-2.42,9.38
2632700716,0.013876,0.041357,-0.076317,0.19,-1.76,9.25
2632701723,0.022398,0.042422,-0.072055,0.55,-1.62,8.30
2632702732,-0.008495,0.012595,-0.068860,0.56,-1.16,9.41
2632703749,-0.021278,-0.011907,-0.068860,0.17,0.21,9.50
2632704754,-0.001038,-0.005515,-0.065664,0.30,0.87,8.85
2632705762,-0.032997,0.012595,-0.065664,0.20,1.12,10.41
2632706770,-0.040454,0.023247,-0.063533,-0.09,1.61,10.95
2632707781,0.003223,0.031770,-0.056076,-0.16,1.86,10.28
2632708800,0.010680,0.027509,-0.047554,-0.16,1.57,11.47
2632709802,-0.007430,0.020052,-0.044358,0.00,0.97,12.11
2632710810,-0.014887,0.030704,-0.042228,-0.17,1.01,10.49
2632711820,-0.057498,0.036031,-0.039032,-0.25,0.66,10.70
2632712829,-0.086261,0.030704,-0.037966,0.00,-0.32,11.32
2632713837,-0.068151,0.034965,-0.035836,-0.14,-0.19,9.68
2632714847,-0.068151,0.032835,-0.033705,-0.25,-0.60,9.06
2632715857,-0.074543,0.025378,-0.028379,-0.20,-1.44,9.80
2632716867,-0.041519,0.027509,-0.021987,-0.23,-0.80,8.79
2632717893,-0.025540,0.040292,-0.016661,-0.26,-1.06,8.91
2632718895,-0.034062,0.039227,-0.016661,-0.25,-1.50,9.79
2632719913,-0.018083,0.031770,-0.013465,-0.08,-1.09,8.81
2632720907,-0.005299,0.028574,-0.007073,-0.03,-1.22,9.34
2632721917,-0.006365,0.011529,-0.002812,-0.13,-1.37,10.33
2632722945,0.016006,0.001942,-0.003877,0.09,-1.21,9.19
2632723937,0.018137,0.011529,-0.006008,0.20,-1.12,9.09
2632724947,-0.005299,0.005138,-0.007073,-0.05,-1.16,10.59
2632725973,0.009615,-0.003385,-0.004943,0.10,-1.07,9.72
2632726972,0.023463,-0.006580,-0.003877,0.34,-1.02,9.01
2632727989,0.000027,-0.005515,-0.006008,0.06,-1.02,10.40
2632728992,0.001092,-0.005515,-0.006008,0.04,-0.98,9.95
2632730002,-0.002103,0.003007,-0.004943,0.36,-0.91,8.91
2632731011,-0.024474,0.003007,-0.004943,0.14,-0.87,10.31
2632732017,-0.018083,0.000877,-0.008139,-0.03,-0.84,10.31
2632733027,-0.007430,0.001942,-0.013465,0.32,-0.82,9.04
2632734037,-0.023409,-0.002319,-0.015596,0.14,-0.76,10.31
2632735047,-0.009560,-0.007646,-0.013465,-0.04,-0.64,10.43
2632736057,0.001092,-0.007646,-0.013465,0.37,-0.73,8.97
2632737087,-0.014887,-0.009776,-0.014530,0.13,-0.69,10.22
2632738113,-0.004234,-0.012972,-0.014530,-0.04,-0.56,10.42
2632739100,0.023463,-0.018299,-0.012400,0.43,-0.65,8.87
2632740110,0.013876,-0.019364,-0.009204,0.17,-0.57,10.10
2632741124,0.009615,-0.008711,-0.007073,-0.08,-0.46,10.38
2632742137,0.004288,0.006203,-0.007073,0.33,-0.57,8.86
2632743134,-0.020213,0.005138,-0.007073,0.09,-0.49,10.19
2632744149,-0.014887,0.000877,-0.008139,-0.17,-0.33,10.64
2632745164,0.000027,0.005138,-0.007073,0.28,-0.56,8.95
2632746157,-0.008495,-0.000189,-0.006008,0.07,-0.50,10.22
2632747169,-0.001038,-0.003385,-0.004943,-0.24,-0.25,10.69
2632748201,0.010680,0.003007,-0.002812,0.27,-0.46,8.96
2632749188,-0.001038,-0.003385,-0.002812,0.05,-0.45,10.25
2632750197,0.003223,-0.010842,-0.002812,-0.25,-0.18,10.60
2632751207,0.007484,-0.009776,0.000384,0.23,-0.43,8.67
2632752217,-0.012756,-0.009776,0.004645,-0.03,-0.44,9.95
2632753227,0.001092,-0.002319,0.011036,-0.31,-0.15,10.44
2632754237,0.028790,0.006203,0.013167,0.15,-0.32,8.80
2632755247,0.018137,0.012595,0.014232,-0.14,-0.26,10.25
2632756257,0.012811,0.018986,0.015298,-0.34,-0.09,10.57
2632757267,0.020267,0.014725,0.013167,0.14,-0.29,8.79
2632758285,0.004288,0.001942,0.011036,-0.14,-0.26,10.12
2632759288,0.011745,-0.010842,0.014232,-0.33,-0.11,10.47
2632760297,0.031986,-0.017233,0.017428,0.09,-0.19,8.88
2632761307,0.021333,-0.014037,0.020624,-0.19,-0.24,10.05
2632762317,0.019202,0.001942,0.021689,-0.40,-0.10,10.30
2632763327,0.023463,0.001942,0.017428,0.00,-0.16,8.74
2632764337,0.006419,-0.010842,0.018493,-0.27,-0.15,9.97
2632765347,0.020267,-0.006580,0.022755,-0.34,0.10,10.15
2632766372,0.033051,0.009399,0.021689,0.09,-0.08,8.68
2632767383,0.014941,0.004072,0.018493,-0.31,-0.19,10.05
2632768395,0.026659,-0.007646,0.020624,-0.34,0.01,10.07
2632769388,0.038377,-0.004450,0.021689,0.07,-0.01,8.86
2632770397,0.021333,-0.006580,0.017428,-0.28,-0.06,10.38
2632771417,0.025594,-0.007646,0.015298,-0.29,0.09,9.99
2632772417,0.033051,0.004072,0.015298,0.11,0.02,8.83
2632773427,0.021333,0.000877,0.013167,-0.22,-0.04,10.44
2632774443,0.030920,-0.004450,0.014232,-0.23,0.20,9.88
2632775467,0.035181,-0.002319,0.016363,0.17,-0.01,8.80
2632776457,0.022398,-0.011907,0.013167,-0.12,0.04,10.26
2632777477,0.036247,-0.009776,0.013167,-0.11,0.38,9.69
2632778485,0.028790,0.005138,0.013167,0.23,-0.06,8.78
2632779488,0.001092,0.008333,0.014232,-0.06,-0.04,10.41
2632780497,0.018137,0.008333,0.016363,0.00,0.30,9.96
2632781531,0.026659,-0.002319,0.014232,0.36,-0.09,9.17
2632782520,0.005354,-0.000189,0.014232,0.01,-0.14,10.76
2632783527,0.010680,0.003007,0.014232,0.04,0.33,10.33
2632784537,0.018137,-0.006580,0.016363,0.50,-0.12,9.39
2632785547,0.010680,-0.006580,0.016363,0.16,-0.32,10.90
2632786557,0.025594,-0.010842,0.015298,0.09,0.33,10.47
2632787567,0.040508,-0.017233,0.015298,0.51,-0.29,9.43
2632788585,0.043704,-0.036408,0.016363,0.31,-0.53,10.79
2632789588,0.059683,-0.026821,0.020624,0.20,0.10,10.10
2632790597,0.030920,0.000877,0.018493,0.43,-0.44,9.30
2632791622,-0.008495,0.009399,0.017428,0.26,-0.70,10.81
2632792624,0.009615,0.004072,0.016363,0.18,-0.32,9.83
2632793634,0.009615,-0.011907,0.014232,0.51,-0.66,9.23
2632794654,0.024529,-0.002319,0.017428,0.17,-0.36,9.86
2632795661,0.009615,0.001942,0.014232,0.38,-0.73,9.26
2632796667,0.005354,-0.014037,0.014232,0.20,-0.81,11.03
2632797684,0.033051,-0.008711,0.015298,0.21,-0.56,9.38
2632798691,0.025594,0.005138,0.013167,0.36,-0.76,8.89
2632799700,0.012811,-0.014037,0.008906,0.07,-0.69,10.59
2632800705,0.029855,-0.038539,0.007841,0.09,-0.53,8.99
2632801717,0.029855,-0.043865,0.011036,0.30,-0.65,8.93
2632802727,0.013876,-0.011907,0.012102,0.06,-0.62,10.95
2632803736,0.024529,0.011529,0.009971,0.16,-0.49,9.33
2632804746,0.014941,-0.002319,0.004645,0.29,-0.66,9.34
2632805760,0.010680,-0.035343,0.003579,0.06,-0.72,10.94
2632806777,0.025594,-0.055583,0.004645,0.20,-0.60,9.07
2632807790,0.034116,-0.058779,0.007841,0.20,-0.58,8.95
2632808792,0.029855,-0.033212,0.008906,-0.05,-0.43,10.35
2632809806,0.045834,-0.010842,0.007841,0.12,-0.42,8.90
2632810804,0.039443,-0.008711,0.004645,0.16,-0.42,9.22
2632811814,0.022398,-0.007646,0.000384,-0.15,-0.34,10.90
2632812820,0.030920,-0.001254,-0.001747,0.13,-0.42,9.45
2632813829,0.025594,-0.009776,-0.002812,0.21,-0.46,9.62
2632814837,0.021333,-0.023625,-0.006008,-0.14,-0.40,11.00
2632815847,0.044769,-0.036408,-0.009204,0.09,-0.41,9.21
2632816876,0.043704,-0.045996,-0.011334,0.16,-0.36,9.17
2632817879,0.028790,-0.048126,-0.011334,-0.13,-0.24,10.53
2632818898,0.028790,-0.038539,-0.013465,0.05,-0.34,9.12
2632819906,0.016006,-0.034278,-0.017726,0.16,-0.30,9.46
2632820902,0.018137,-0.039604,-0.021987,-0.15,-0.16,10.91
2632821910,0.036247,-0.035343,-0.023053,0.07,-0.23,9.42
2632822929,0.024529,-0.031082,-0.024118,0.15,-0.23,9.74
2632823934,0.018137,-0.030017,-0.023053,-0.16,-0.19,11.08
2632824944,0.039443,-0.022560,-0.020922,0.08,-0.22,9.21
2632825954,0.029855,-0.016168,-0.019857,0.08,-0.19,9.38
2632826973,0.013876,-0.010842,-0.020922,-0.17,-0.08,10.62
2632828006,0.028790,-0.006580,-0.023053,0.06,-0.11,8.88
2632828995,0.027724,-0.015103,-0.023053,0.10,-0.11,9.39
2632829997,0.013876,-0.016168,-0.024118,-0.14,-0.10,10.99
2632831007,0.027724,-0.012972,-0.028379,0.06,-0.11,9.32
2632832020,0.010680,-0.015103,-0.030510,0.05,-0.11,9.79
2632833031,-0.007430,-0.018299,-0.028379,-0.13,-0.13,11.16
2632834027,-0.001038,-0.020429,-0.029444,0.12,-0.05,9.12
2632835037,-0.003169,-0.020429,-0.028379,0.11,-0.01,9.44
2632836047,-0.008495,-0.006580,-0.026248,-0.10,-0.04,10.84
2632837057,0.006419,0.007268,-0.029444,0.02,-0.01,8.87
2632838076,-0.001038,0.008333,-0.030510,0.03,-0.03,9.31
2632839078,-0.025540,0.010464,-0.030510,-0.12,-0.01,10.92
2632840087,-0.028735,0.008333,-0.030510,0.04,0.06,8.94
2632841097,-0.035127,-0.005515,-0.029444,0.08,-0.02,9.43
2632842107,-0.025540,-0.009776,-0.025183,-0.13,-0.05,11.21
2632843117,0.007484,-0.003385,-0.025183,-0.01,0.00,9.25
2632844127,0.009615,-0.000189,-0.027314,0.01,-0.03,9.76
2632845137,-0.005299,0.007268,-0.026248,-0.07,-0.11,11.37
2632846147,-0.003169,0.016856,-0.025183,0.01,-0.03,9.17
2632847157,-0.024474,0.011529,-0.024118,-0.02,0.03,9.49
2632848176,-0.028735,-0.001254,-0.024118,-0.04,-0.08,11.08
2632849177,0.008549,-0.009776,-0.024118,0.02,-0.05,9.14
2632850187,0.023463,-0.017233,-0.024118,0.00,-0.01,9.45
2632851209,0.009615,-0.002319,-0.026248,-0.08,-0.09,11.17
2632852207,0.007484,0.022182,-0.027314,-0.04,0.01,9.25
2632853233,-0.011691,0.022182,-0.030510,-0.03,-0.07,9.41
2632854227,-0.012756,-0.001254,-0.030510,-0.08,-0.25,11.16
2632855246,0.036247,-0.024690,-0.031575,-0.04,-0.04,9.31
2632856247,0.034116,-0.017233,-0.031575,-0.06,0.01,9.23
2632857257,0.002158,0.000877,-0.030510,-0.17,-0.13,10.76
2632858284,-0.003169,0.010464,-0.032640,-0.12,0.03,9.20
2632859277,-0.009560,0.006203,-0.035836,-0.03,-0.07,9.25
2632860287,-0.002103,-0.005515,-0.036901,-0.18,-0.20,10.94
2632861297,0.027724,-0.005515,-0.035836,-0.19,0.06,9.47
2632862307,0.011745,-0.003385,-0.040097,0.01,-0.22,9.19
2632863317,-0.017017,-0.000189,-0.044358,-0.12,-0.38,10.71
2632864327,-0.012756,0.008333,-0.045423,-0.10,0.02,9.54
2632865337,-0.017017,0.016856,-0.044358,0.09,-0.35,9.24
2632866354,-0.035127,0.028574,-0.044358,-0.04,-0.51,10.51
2632867357,-0.022344,0.025378,-0.045423,-0.03,-0.06,9.47
2632868376,-0.021278,0.011529,-0.046489,0.05,-0.32,9.18
2632869377,-0.030866,-0.003385,-0.046489,0.02,-0.45,10.31
2632870387,-0.020213,-0.005515,-0.045423,0.02,-0.08,9.55
2632871397,-0.025540,-0.000189,-0.047554,0.13,-0.34,9.34
2632872407,-0.040454,0.004072,-0.048619,0.01,-0.43,10.54
2632873417,-0.038323,0.010464,-0.048619,-0.04,0.02,9.88
2632874443,-0.038323,0.001942,-0.049685,0.17,-0.35,9.45
2632875454,-0.035127,-0.012972,-0.047554,0.03,-0.49,10.61
2632876467,-0.011691,-0.014037,-0.044358,-0.04,-0.02,9.71
2632877457,-0.006365,-0.012972,-0.042228,0.21,-0.34,9.15
2632878476,-0.020213,0.000877,-0.043293,0.08,-0.49,10.55
2632879477,-0.003169,0.015790,-0.042228,0.00,-0.10,9.83
2632880487,0.007484,0.014725,-0.041162,0.26,-0.41,9.44
2632881497,-0.003169,0.010464,-0.040097,0.12,-0.54,10.70
2632882519,-0.007430,0.005138,-0.042228,0.14,-0.19,9.53
2632883532,-0.029801,-0.005515,-0.045423,0.36,-0.54,9.11
2632884544,-0.029801,-0.012972,-0.039032,0.12,-0.62,10.62
2632885551,0.006419,-0.002319,-0.032640,0.08,-0.23,9.40
2632886547,0.021333,0.004072,-0.030510,0.35,-0.54,9.07
2632887557,0.007484,-0.003385,-0.032640,0.17,-0.72,10.76
2632888576,0.010680,-0.011907,-0.033705,0.20,-0.44,9.52
2632889577,0.006419,-0.015103,-0.029444,0.41,-0.67,9.34
2632890593,-0.008495,0.006203,-0.026248,0.11,-0.82,10.83
2632891597,-0.004234,0.014725,-0.028379,0.23,-0.65,9.17
2632892610,-0.026605,0.001942,-0.029444,0.38,-0.80,9.06
2632893638,-0.008495,0.004072,-0.020922,0.23,-0.77,9.07
2632894633,-0.004234,-0.000189,-0.020922,0.36,-0.86,9.18
2632895641,-0.014887,0.007268,-0.017726,0.16,-0.93,10.70
2632896661,-0.009560,0.016856,-0.014530,0.38,-0.98,9.20
2632897662,-0.026605,0.013660,-0.016661,0.42,-1.08,9.29
2632898690,-0.039388,0.016856,-0.017726,0.10,-1.02,10.54
2632899684,-0.026605,0.021117,-0.017726,0.37,-1.07,9.16
2632900697,-0.024474,0.010464,-0.014530,0.39,-1.12,9.42
2632901705,-0.036192,0.018986,-0.011334,0.01,-1.03,10.52
2632902723,-0.029801,0.020052,-0.011334,0.30,-1.09,9.28
2632903727,-0.028735,0.008333,-0.009204,0.28,-1.05,9.61
2632904729,-0.038323,0.013660,-0.010269,-0.12,-0.86,10.44
2632905751,-0.020213,0.012595,-0.009204,0.23,-0.91,9.31
2632906778,-0.018083,0.007268,-0.008139,0.14,-0.81,9.84
2632907780,-0.020213,0.011529,-0.007073,-0.31,-0.55,10.50
2632908796,-0.017017,0.020052,-0.004943,0.08,-0.69,9.30
2632909781,-0.034062,0.015790,-0.006008,-0.01,-0.63,9.99
2632910787,-0.028735,0.009399,-0.003877,-0.46,-0.34,10.50
2632911800,-0.028735,0.012595,-0.003877,0.01,-0.53,9.20
2632912830,-0.043649,0.020052,-0.003877,-0.14,-0.42,10.15
2632913820,-0.061759,0.033900,-0.003877,-0.66,-0.14,10.73
2632914829,-0.042584,0.029639,-0.003877,-0.17,-0.33,9.22
2632915856,-0.048976,0.016856,-0.001747,-0.35,-0.16,10.17
2632916874,-0.038323,0.013660,0.001449,-0.74,0.20,10.72
2632917857,-0.034062,0.014725,0.000384,-0.23,0.09,8.99
2632918876,-0.036192,0.014725,0.001449,-0.43,0.16,9.94
2632919877,-0.039388,0.025378,0.001449,-0.76,0.38,10.55
2632920887,-0.022344,0.030704,0.000384,-0.23,0.13,8.79
2632921897,-0.036192,0.024313,0.000384,-0.40,0.00,9.74
2632922907,-0.025540,0.020052,0.004645,-0.55,0.07,10.22
2632923917,-0.007430,0.016856,0.005710,-0.14,0.11,8.80
2632924927,-0.029801,0.022182,0.005710,-0.37,0.09,9.75
2632925937,-0.038323,0.027509,0.004645,-0.45,0.07,9.82
2632926947,-0.031931,0.011529,0.006775,-0.05,0.07,8.62
2632927957,-0.034062,0.004072,0.007841,-0.27,0.09,9.96
2632928976,-0.022344,0.017921,0.005710,-0.40,0.21,9.98
2632929977,-0.006365,0.017921,0.005710,0.02,0.07,8.93
2632930987,-0.017017,0.020052,0.007841,-0.21,-0.04,10.29
2632931997,-0.023409,0.020052,0.004645,-0.20,0.21,10.04
2632933007,-0.012756,-0.006580,0.005710,0.17,0.03,8.88
2632934017,-0.023409,-0.004450,0.008906,-0.14,-0.15,10.23
2632935045,-0.018083,0.013660,0.006775,-0.17,0.27,10.11
2632936037,-0.022344,0.011529,0.002514,0.27,-0.11,9.02
2632937069,-0.038323,0.012595,0.004645,0.01,-0.32,10.43
2632938087,-0.011691,0.025378,0.007841,-0.02,0.18,10.19
2632939085,0.006419,0.022182,0.005710,0.34,-0.25,9.24
2632940096,0.005354,-0.005515,0.003579,-0.07,-0.37,10.63
2632941095,0.000027,-0.019364,0.000384,-0.08,0.23,10.19
2632942117,-0.001038,-0.027886,-0.001747,0.33,-0.28,9.04
2632943128,-0.017017,-0.008711,-0.000682,0.01,-0.49,10.37
2632944130,-0.007430,0.020052,-0.000682,-0.12,0.30,10.12
2632945149,-0.001038,0.023247,-0.002812,0.26,-0.27,9.12
2632946147,-0.007430,0.005138,-0.007073,0.02,-0.51,10.55
2632947147,0.005354,-0.008711,-0.010269,-0.05,0.25,10.19
2632948181,-0.005299,-0.014037,-0.013465,0.29,-0.36,9.19
2632949172,-0.017017,-0.028951,-0.015596,-0.03,-0.51,10.66
2632950181,-0.005299,-0.038539,-0.016661,-0.05,0.31,10.15
2632951190,0.000027,-0.049192,-0.019857,0.28,-0.34,8.95
2632952203,-0.008495,-0.042800,-0.020922,0.01,-0.62,10.29
2632953213,0.009615,-0.027886,-0.023053,-0.08,0.23,9.93
2632954224,0.014941,-0.022560,-0.025183,0.22,-0.36,9.12
2632955248,-0.001038,-0.021494,-0.027314,-0.01,-0.59,10.58
2632956245,0.010680,-0.019364,-0.028379,-0.07,0.27,10.09
2632957258,0.012811,-0.025756,-0.032640,0.27,-0.40,9.13
2632958293,0.000027,-0.028951,-0.036901,0.00,-0.63,10.52
2632959267,0.010680,-0.025756,-0.039032,-0.07,0.27,9.98
2632960277,0.012811,-0.028951,-0.041162,0.27,-0.38,8.98
2632961287,0.008549,-0.034278,-0.042228,0.03,-0.61,10.43
2632962297,0.025594,-0.036408,-0.043293,-0.02,0.26,9.85
2632963307,0.021333,-0.035343,-0.046489,0.28,-0.43,9.00
2632964317,0.014941,-0.040669,-0.049685,0.03,-0.64,10.56
2632965327,0.044769,-0.045996,-0.050750,0.04,0.20,9.92
2632966337,0.050095,-0.043865,-0.050750,0.32,-0.43,9.05
2632967347,0.024529,-0.034278,-0.052880,-0.03,-0.60,10.54
2632968367,0.040508,-0.022560,-0.056076,0.00,0.16,9.83
2632969367,0.055422,-0.025756,-0.057142,0.28,-0.46,8.95
2632970377,0.035181,-0.023625,-0.056076,-0.05,-0.61,10.38
2632971387,0.037312,-0.012972,-0.057142,-0.01,0.12,9.76
2632972397,0.036247,-0.017233,-0.058207,0.30,-0.52,8.98
2632973433,0.028790,-0.034278,-0.058207,0.01,-0.69,10.48
2632974427,0.055422,-0.040669,-0.058207,0.00,0.13,9.94
2632975427,0.055422,-0.035343,-0.059272,0.34,-0.44,9.14
2632976437,0.017072,-0.020429,-0.063533,-0.01,-0.61,10.62
2632977447,0.020267,0.001942,-0.066729,0.06,-0.01,9.79
2632978466,0.023463,0.007268,-0.064598,0.40,-0.56,9.04
2632979467,0.013876,-0.001254,-0.060337,0.00,-0.57,10.50
2632980477,0.016006,-0.007646,-0.058207,0.09,0.01,9.48
2632981496,0.013876,-0.015103,-0.059272,0.36,-0.51,8.67
2632982497,-0.006365,-0.009776,-0.061403,0.02,-0.65,10.12
2632983507,0.005354,0.005138,-0.060337,-0.02,-0.10,9.49
2632984517,0.011745,0.010464,-0.058207,0.28,-0.52,8.87
2632985527,-0.014887,0.009399,-0.058207,0.06,-0.58,10.43
2632986537,-0.014887,0.015790,-0.058207,0.06,-0.25,9.77
2632987567,-0.012756,0.016856,-0.058207,0.32,-0.62,9.29
2632988602,-0.029801,0.024313,-0.057142,0.01,-0.60,10.91
2632989567,-0.026605,0.036031,-0.056076,0.10,-0.26,10.12
2632990577,-0.028735,0.044553,-0.052880,0.26,-0.50,9.30
2632991594,-0.053237,0.038161,-0.050750,0.02,-0.61,10.49
2632992597,-0.053237,0.022182,-0.052880,0.04,-0.28,9.71
2632993610,-0.034062,0.005138,-0.056076,0.24,-0.51,8.97
2632994619,-0.013821,0.006203,-0.057142,-0.04,-0.36,9.94
2632995644,-0.005299,0.015790,-0.052880,0.26,-0.55,9.30
2632996652,-0.022344,0.014725,-0.050750,0.03,-0.58,10.72
2632997654,-0.008495,0.007268,-0.049685,0.05,-0.46,10.12
2632998677,0.020267,-0.011907,-0.049685,0.31,-0.48,9.03
2632999677,0.000027,-0.015103,-0.051815,0.06,-0.56,10.31
2633000685,-0.011691,0.001942,-0.052880,0.10,-0.57,9.72
2633001696,-0.017017,0.023247,-0.050750,0.34,-0.61,8.86
2633002718,-0.025540,0.016856,-0.047554,0.07,-0.55,10.57
2633003715,0.008549,0.004072,-0.043293,0.05,-0.50,10.11
2633004728,0.036247,-0.002319,-0.042228,0.36,-0.53,9.04
2633005736,0.003223,0.006203,-0.046489,0.00,-0.55,10.62
2633006753,-0.020213,0.026443,-0.051815,0.03,-0.62,10.30
2633007762,-0.020213,0.034965,-0.052880,0.42,-0.55,8.93
2633008780,-0.024474,0.018986,-0.052880,-0.02,-0.47,10.45
2633009783,-0.005299,0.012595,-0.050750,0.06,-0.54,10.20
2633010790,0.002158,0.033900,-0.049685,0.41,-0.53,8.88
2633011819,-0.035127,0.047749,-0.049685,-0.03,-0.58,10.32
2633012840,-0.044715,0.039227,-0.049685,0.01,-0.63,10.16
2633013823,-0.023409,0.028574,-0.047554,0.47,-0.58,8.91
2633014823,-0.026605,0.032835,-0.046489,0.13,-0.45,10.52
2633015847,-0.026605,0.054141,-0.046489,-0.08,-0.44,10.53
2633016843,-0.043649,0.066924,-0.049685,0.41,-0.55,8.87
2633017854,-0.073477,0.047749,-0.051815,0.14,-0.56,10.24
2633018895,-0.053237,0.027509,-0.048619,-0.03,-0.59,10.26
2633019883,-0.017017,0.020052,-0.044358,0.48,-0.57,8.55
2633020888,-0.029801,0.031770,-0.044358,0.14,-0.49,10.15
2633021905,-0.047910,0.058402,-0.044358,-0.01,-0.52,10.49
2633022909,-0.056433,0.062663,-0.044358,0.37,-0.53,9.17
2633023912,-0.054302,0.034965,-0.043293,0.14,-0.57,10.54
2633024923,-0.027670,0.003007,-0.041162,0.02,-0.57,10.53
2633025950,-0.003169,-0.002319,-0.043293,0.31,-0.51,9.14
2633026956,-0.024474,0.003007,-0.043293,0.14,-0.52,10.16
2633027961,-0.029801,0.020052,-0.041162,-0.10,-0.43,10.56
2633028963,-0.013821,0.029639,-0.043293,0.30,-0.48,9.06
2633029988,-0.006365,0.006203,-0.045423,0.02,-0.55,9.83
2633030987,0.017072,-0.021494,-0.043293,-0.13,-0.29,10.17
2633032026,0.041573,-0.032147,-0.041162,0.36,-0.23,8.58
2633033018,0.020267,-0.024690,-0.042228,-0.02,-0.49,9.57
2633034012,0.019202,-0.003385,-0.043293,-0.16,-0.36,10.33
2633035024,0.035181,0.010464,-0.043293,0.38,-0.33,9.02
2633036025,0.020267,0.012595,-0.046489,-0.07,-0.38,10.39
2633037052,0.028790,0.003007,-0.047554,-0.27,-0.16,10.74
2633038057,0.049030,-0.011907,-0.047554,0.23,-0.18,9.17
2633039055,0.028790,-0.027886,-0.049685,-0.11,-0.46,10.20
2633040065,0.036247,-0.024690,-0.048619,-0.28,-0.29,10.48
2633041075,0.054356,-0.015103,-0.048619,0.16,-0.08,8.97
2633042085,0.035181,-0.026821,-0.047554,-0.15,-0.39,9.98
2633043105,0.029855,-0.026821,-0.046489,-0.33,-0.21,10.40
2633044108,0.025594,-0.007646,-0.046489,0.22,-0.13,8.66
2633045118,-0.003169,0.009399,-0.044358,-0.20,-0.26,10.14
2633046150,0.011745,0.011529,-0.044358,-0.43,-0.06,10.51
2633047138,0.040508,-0.003385,-0.046489,0.17,-0.04,8.87
2633048159,0.026659,-0.022560,-0.048619,-0.23,-0.18,10.27
2633049158,0.026659,-0.017233,-0.046489,-0.38,-0.13,10.52
2633050168,0.038377,0.003007,-0.044358,0.16,-0.07,8.82
2633051178,0.024529,0.007268,-0.043293,-0.28,-0.14,10.40
2633052188,0.012811,0.008333,-0.043293,-0.47,-0.10,10.31
2633053203,0.008549,0.003007,-0.040097,0.07,-0.02,8.57
2633054205,-0.013821,0.007268,-0.036901,-0.27,-0.07,10.21
2633055215,-0.003169,0.016856,-0.035836,-0.28,-0.12,9.92
2633056225,0.012811,0.015790,-0.034771,0.14,0.01,8.68
2633057235,-0.005299,0.023247,-0.033705,-0.39,-0.01,10.30
2633058256,0.001092,0.028574,-0.031575,-0.34,0.02,9.90
2633059255,0.012811,0.009399,-0.030510,0.07,0.09,8.63
2633060265,-0.002103,-0.002319,-0.026248,-0.32,-0.03,10.28
2633061275,0.006419,0.004072,-0.024118,-0.22,0.17,9.65
2633062285,0.021333,0.005138,-0.019857,0.12,0.10,8.62
2633063305,0.014941,0.009399,-0.018791,-0.35,0.02,10.49
2633064308,0.021333,0.009399,-0.018791,-0.21,0.29,9.65
2633065318,0.029855,-0.001254,-0.015596,0.29,0.02,8.80
2633066328,0.023463,-0.018299,-0.014530,-0.11,-0.13,10.58
2633067338,0.030920,-0.020429,-0.014530,-0.03,0.32,9.90
2633068359,0.030920,-0.009776,-0.016661,0.36,-0.09,9.06
2633069358,0.008549,-0.000189,-0.017726,-0.04,-0.23,10.89
2633070368,0.025594,0.007268,-0.016661,0.01,0.49,10.31
2633071378,0.030920,-0.009776,-0.015596,0.44,-0.12,9.34
2633072399,0.009615,-0.012972,-0.016661,0.12,-0.33,11.05
2633073403,0.019202,-0.010842,-0.018791,0.14,0.36,10.39
2633074405,0.025594,-0.011907,-0.018791,0.50,-0.28,9.46
2633075433,0.020267,-0.019364,-0.016661,0.18,-0.39,10.92
2633076425,0.022398,-0.016168,-0.013465,0.24,0.11,10.12
2633077435,0.009615,-0.011907,-0.013465,0.58,-0.66,9.41
2633078456,-0.024474,0.005138,-0.016661,0.34,-0.87,10.95
2633079455,-0.015952,0.008333,-0.018791,0.30,-0.45,9.77
2633080465,0.005354,-0.015103,-0.016661,0.43,-0.72,9.10
2633081475,-0.004234,-0.021494,-0.013465,0.24,-0.87,10.71
2633082485,-0.006365,-0.012972,-0.011334,0.24,-0.69,9.34
2633083516,-0.004234,-0.008711,-0.009204,0.45,-0.90,8.78
2633084508,-0.005299,-0.008711,-0.009204,0.19,-0.94,10.87
2633085518,0.013876,0.007268,-0.010269,0.18,-0.63,9.55
2633086528,0.014941,0.011529,-0.010269,0.32,-0.82,9.09
2633087538,0.003223,-0.004450,-0.011334,0.17,-1.03,10.68
2633088585,-0.001038,-0.015103,-0.011334,0.33,-0.76,9.07
2633089558,-0.005299,-0.022560,-0.011334,0.27,-0.94,8.66
2633090568,-0.010626,-0.022560,-0.011334,-0.04,-0.81,10.33
2633091578,0.001092,-0.017233,-0.009204,0.21,-0.67,8.98
2633092607,-0.004234,-0.011907,-0.006008,0.25,-0.85,9.14
2633093609,-0.011691,0.012595,-0.002812,-0.22,-0.56,10.78
2633094609,-0.009560,0.003007,-0.003877,0.22,-0.78,9.68
2633095617,-0.010626,-0.025756,-0.004943,-0.23,-0.62,10.92
2633096633,0.002158,-0.033212,-0.004943,0.25,-0.72,9.32
2633097641,0.005354,-0.025756,-0.000682,0.19,-0.71,9.50
2633098662,0.001092,0.003007,0.000384,-0.29,-0.39,10.47
2633099665,0.013876,0.012595,-0.003877,0.13,-0.55,8.94
2633100680,0.004288,-0.003385,-0.006008,0.17,-0.59,9.59
2633101685,0.003223,-0.020429,-0.002812,-0.30,-0.32,10.54
2633102694,0.018137,-0.021494,-0.001747,0.16,-0.47,9.18
2633103715,-0.004234,-0.022560,-0.003877,0.14,-0.48,9.81
2633104722,-0.012756,-0.023625,-0.002812,-0.28,-0.33,10.63
2633105724,0.003223,-0.022560,-0.000682,0.18,-0.45,9.18
2633106733,0.003223,-0.024690,0.003579,0.10,-0.41,9.79
2633107757,0.000027,-0.007646,0.007841,-0.31,-0.23,10.62
2633108770,0.027724,0.007268,0.007841,0.10,-0.41,9.23
2633109763,0.026659,0.003007,0.007841,0.07,-0.35,9.88
2633110776,0.016006,0.007268,0.007841,-0.25,-0.15,10.53
2633111782,0.026659,0.011529,0.007841,0.20,-0.32,9.09
2633112790,0.011745,0.008333,0.009971,0.01,-0.36,9.62
2633113807,0.000027,0.011529,0.012102,-0.33,-0.20,10.46
2633114809,0.013876,0.001942,0.008906,0.22,-0.30,9.01
2633115819,0.009615,-0.021494,0.008906,0.05,-0.19,9.73
2633116828,0.009615,-0.028951,0.009971,-0.29,-0.02,10.38
2633117835,0.020267,-0.019364,0.009971,0.23,-0.23,8.98
2633118856,0.002158,-0.009776,0.006775,0.03,-0.23,9.86
2633119855,0.002158,0.001942,0.007841,-0.35,-0.03,10.76
2633120865,0.026659,0.008333,0.009971,0.17,-0.16,9.22
2633121875,0.009615,0.005138,0.012102,0.02,-0.15,9.90
2633122885,-0.013821,0.007268,0.014232,-0.27,-0.08,10.61
2633123923,-0.003169,0.009399,0.012102,0.16,-0.16,8.89
2633124937,-0.008495,-0.003385,0.007841,-0.03,-0.07,9.73
2633125918,-0.001038,-0.011907,0.006775,-0.25,-0.06,10.51
2633126936,0.020267,-0.008711,0.007841,0.12,-0.08,9.02
2633127957,-0.003169,0.000877,0.009971,-0.02,0.01,9.79
2633128957,-0.023409,0.015790,0.009971,-0.21,-0.08,10.78
2633129974,-0.006365,0.018986,0.006775,0.13,-0.10,9.24
2633130978,-0.006365,-0.003385,0.004645,-0.02,0.01,9.82
2633131990,-0.008495,-0.018299,0.005710,-0.20,-0.02,10.79
2633133004,0.005354,-0.014037,0.006775,0.11,-0.03,9.15
2633134004,-0.014887,0.001942,0.006775,-0.07,-0.05,9.73
2633135022,-0.032997,0.013660,0.006775,-0.28,-0.09,10.85
2633136033,-0.017017,0.013660,0.005710,0.04,-0.06,9.17
2633137038,-0.011691,-0.008711,0.006775,-0.05,0.06,9.57
2633138048,-0.010626,-0.023625,0.006775,-0.16,0.01,10.79
2633139063,0.005354,-0.016168,0.007841,0.09,-0.06,9.25
2633140062,-0.007430,0.004072,0.006775,-0.03,0.00,9.76
2633141071,-0.021278,0.025378,0.007841,-0.20,-0.03,11.01
2633142080,-0.005299,0.018986,0.007841,-0.03,-0.02,9.20
2633143105,0.001092,-0.015103,0.007841,-0.05,-0.02,9.49
2633144102,0.009615,-0.031082,0.007841,-0.14,-0.08,10.99
2633145116,0.034116,-0.020429,0.006775,-0.04,-0.03,9.32
2633146127,0.017072,-0.003385,0.005710,-0.03,-0.06,9.62
2633147135,-0.002103,0.008333,0.006775,-0.09,-0.08,11.11
2633148176,0.016006,0.009399,0.008906,-0.01,0.02,9.16
2633149171,0.014941,-0.007646,0.005710,-0.04,-0.10,9.34
2633150158,0.019202,-0.021494,0.005710,-0.14,-0.17,11.04
2633151168,0.040508,-0.011907,0.006775,-0.06,0.00,9.25
2633152178,0.011745,0.003007,0.006775,-0.04,-0.06,9.33
2633153193,-0.019148,0.013660,0.009971,-0.11,-0.16,11.09
2633154195,0.001092,0.016856,0.011036,-0.05,0.03,9.46
2633155205,0.016006,0.008333,0.006775,-0.05,-0.07,9.59
2633156225,0.013876,-0.002319,0.002514,-0.10,-0.30,11.20
2633157225,0.026659,0.003007,0.002514,-0.03,-0.04,9.43
2633158246,0.000027,0.015790,0.003579,-0.05,-0.07,9.28
2633159255,-0.035127,0.014725,0.003579,-0.13,-0.31,10.85
2633160267,-0.019148,0.004072,0.002514,-0.04,-0.05,9.39
2633161283,-0.011691,0.006203,0.001449,0.02,-0.17,9.25
2633162289,-0.027670,0.016856,-0.002812,-0.08,-0.32,10.76
2633163285,-0.026605,0.027509,-0.007073,-0.10,0.02,9.43
2633164295,-0.035127,0.025378,-0.003877,-0.03,-0.16,9.15
2633165321,-0.040454,0.009399,0.000384,-0.08,-0.37,10.67
2633166315,-0.017017,-0.002319,0.001449,-0.03,-0.05,9.66
2633167325,-0.013821,-0.001254,-0.001747,0.15,-0.32,9.36
2633168345,-0.022344,0.015790,-0.003877,-0.06,-0.51,10.87
2633169345,-0.008495,0.025378,-0.003877,-0.18,0.00,9.78
2633170355,-0.002103,0.000877,-0.002812,0.05,-0.28,9.11
2633171373,0.001092,-0.025756,-0.001747,-0.02,-0.56,10.54
2633172383,0.024529,-0.025756,-0.001747,-0.13,-0.02,9.61
2633173399,0.021333,-0.014037,-0.002812,0.11,-0.45,9.01
2633174404,0.000027,0.000877,-0.003877,0.00,-0.60,10.37
2633175415,0.007484,0.005138,-0.002812,-0.17,0.12,9.52
2633176435,0.018137,-0.016168,-0.001747,0.05,-0.42,8.91
2633177442,0.018137,-0.030017,-0.002812,0.03,-0.72,10.21
2633178447,0.034116,-0.012972,-0.003877,-0.09,0.01,9.70
2633179451,0.029855,-0.001254,-0.008139,0.07,-0.49,9.21
2633180464,0.007484,-0.002319,-0.009204,-0.01,-0.77,10.46
2633181474,0.012811,-0.001254,-0.008139,-0.12,0.04,10.01
2633182493,0.009615,-0.007646,-0.010269,0.10,-0.46,9.13
2633183501,-0.001038,-0.008711,-0.011334,-0.02,-0.82,10.28
2633184511,0.019202,0.004072,-0.012400,-0.09,-0.02,9.73
2633185514,0.020267,0.004072,-0.015596,0.14,-0.53,9.03
2633186525,0.006419,-0.012972,-0.015596,-0.08,-0.75,10.35
2633187541,0.013876,-0.014037,-0.013465,-0.17,0.06,9.75
2633188567,0.001092,-0.003385,-0.012400,0.12,-0.59,8.95
2633189555,-0.029801,0.010464,-0.014530,-0.04,-0.85,10.06
2633190559,-0.021278,0.021117,-0.016661,-0.05,-0.09,9.66
2633191580,-0.010626,0.013660,-0.017726,0.22,-0.57,9.10
2633192585,-0.018083,-0.002319,-0.015596,-0.05,-0.68,10.43
2633193590,-0.005299,-0.005515,-0.013465,-0.10,-0.03,9.88
2633194599,-0.019148,0.005138,-0.010269,-0.09,-0.80,10.47
2633195629,-0.020213,0.012595,-0.013465,-0.08,-0.15,9.91
2633196620,-0.018083,0.011529,-0.015596,0.24,-0.59,9.24
2633197646,-0.029801,0.009399,-0.016661,-0.02,-0.73,10.46
2633198669,-0.014887,0.013660,-0.017726,-0.04,-0.14,9.61
2633199662,0.001092,0.009399,-0.016661,0.25,-0.65,8.92
2633200676,-0.013821,-0.002319,-0.013465,-0.07,-0.82,10.39
2633201673,0.005354,-0.011907,-0.011334,-0.04,-0.30,9.58
2633202689,0.018137,-0.009776,-0.009204,0.31,-0.60,8.98
2633203691,-0.009560,0.011529,-0.011334,-0.03,-0.63,10.64
2633204704,-0.007430,0.032835,-0.012400,-0.03,-0.30,9.83
2633205716,-0.001038,0.025378,-0.014530,0.27,-0.62,9.19
2633206731,-0.002103,-0.004450,-0.016661,-0.06,-0.75,10.82
2633207757,0.037312,-0.016168,-0.014530,-0.01,-0.38,9.90
2633208776,0.052226,-0.014037,-0.011334,0.29,-0.45,9.00
2633209758,0.011745,-0.004450,-0.008139,0.00,-0.65,10.64
2633210772,0.002158,0.010464,-0.009204,0.06,-0.45,9.73
2633211780,-0.004234,0.015790,-0.014530,0.32,-0.63,8.83
2633212785,-0.014887,0.003007,-0.017726,0.01,-0.67,10.69
2633213795,0.008549,0.004072,-0.018791,0.07,-0.47,9.81
2633214819,0.011745,0.007268,-0.018791,0.32,-0.60,8.89
2633215839,-0.008495,-0.001254,-0.016661,-0.03,-0.63,10.78
2633216839,0.004288,-0.006580,-0.015596,0.05,-0.55,10.11
