time_us,gyro_x_rad_s,gyro_y_rad_s,gyro_z_rad_s,acc_x_m_s2,acc_y_m_s2,acc_z_m_s2
276154695,0.001103,0.001736,0.000443,-0.02,-0.28,9.84
276155419,0.002169,0.002801,0.000443,0.01,-0.25,9.81
276156391,0.002169,0.002801,0.000443,0.03,-0.24,9.78
276157401,0.003234,0.003866,-0.000622,0.00,-0.24,9.83
276158426,0.000038,0.001736,-0.001687,0.01,-0.24,9.85
276159423,-0.003158,-0.001460,-0.001687,0.00,-0.24,9.81
276160430,-0.004223,-0.001460,-0.000622,-0.04,-0.23,9.80
276161440,-0.003158,-0.000395,0.000443,-0.02,-0.26,9.81
276162450,-0.002093,-0.001460,-0.000622,0.00,-0.28,9.81
276163464,-0.001027,-0.001460,-0.000622,0.01,-0.24,9.83
276164470,0.000038,-0.000395,0.000443,0.00,-0.22,9.84
276165480,0.002169,0.000670,0.001508,0.00,-0.24,9.79
276166490,0.001103,0.000670,0.000443,0.00,-0.25,9.81
276167500,-0.001027,0.000670,0.000443,0.02,-0.27,9.85
276168530,-0.001027,0.000670,0.000443,0.01,-0.28,9.84
276169524,0.001103,0.001736,-0.000622,-0.01,-0.28,9.82
276170531,0.002169,0.002801,-0.001687,0.00,-0.26,9.77
276171541,0.000038,0.004932,-0.001687,0.02,-0.25,9.73
276172549,-0.002093,0.004932,-0.000622,0.04,-0.24,9.78
276173563,-0.001027,0.001736,0.000443,0.03,-0.21,9.82
276174569,0.000038,0.000670,0.001508,0.01,-0.21,9.79
276175579,-0.001027,0.001736,0.000443,0.02,-0.22,9.77
276176589,0.000038,0.001736,-0.001687,0.02,-0.24,9.80
276177599,0.001103,0.002801,-0.002753,0.02,-0.23,9.86
276178624,0.002169,0.002801,-0.000622,0.00,-0.23,9.88
276179621,0.001103,0.000670,0.001508,-0.02,-0.24,9.83
276180627,-0.001027,-0.000395,0.001508,0.01,-0.25,9.82
276181637,-0.001027,0.000670,0.001508,0.02,-0.25,9.83
276182647,0.001103,0.000670,0.000443,-0.01,-0.18,9.79
276183662,0.001103,-0.000395,-0.001687,0.01,-0.21,9.78
276184667,-0.001027,0.000670,-0.003818,0.02,-0.25,9.79
276185681,-0.001027,0.001736,-0.001687,0.01,-0.22,9.80
276186687,0.001103,0.001736,0.000443,-0.01,-0.22,9.80
276187702,0.003234,0.001736,0.001508,-0.01,-0.21,9.78
276188733,0.002169,0.003866,0.001508,0.00,-0.23,9.79
276189727,0.000038,0.001736,0.001508,-0.01,-0.26,9.80
276190739,-0.001027,-0.000395,0.000443,0.00,-0.22,9.78
276191747,-0.001027,0.001736,-0.001687,0.00,-0.23,9.82
276192760,0.000038,0.001736,-0.001687,-0.04,-0.28,9.86
276193779,0.001103,-0.000395,-0.000622,-0.03,-0.24,9.81
276194781,0.001103,-0.000395,0.001508,0.02,-0.21,9.79
276195788,0.000038,-0.000395,0.001508,0.02,-0.23,9.82
276196802,0.000038,-0.001460,0.001508,0.02,-0.24,9.86
276197808,0.002169,-0.001460,0.003639,0.00,-0.26,9.85
276198838,0.003234,0.000670,0.004704,-0.01,-0.26,9.79
276199832,0.001103,0.001736,0.002574,-0.02,-0.23,9.79
276200837,-0.002093,0.002801,-0.001687,-0.03,-0.22,9.81
276201852,-0.004223,0.002801,-0.003818,0.01,-0.21,9.82
276202859,-0.004223,0.002801,-0.001687,0.00,-0.24,9.82
276203874,-0.002093,0.002801,-0.000622,-0.02,-0.23,9.82
276204874,-0.003158,0.000670,0.001508,-0.01,-0.21,9.84
276205883,-0.002093,-0.000395,0.003639,-0.03,-0.22,9.80
276206889,-0.001027,0.000670,0.003639,0.02,-0.24,9.76
276207898,0.001103,0.001736,0.001508,0.02,-0.26,9.79
276208967,0.000038,0.002801,-0.001687,-0.01,-0.22,9.82
276209970,0.000038,0.003866,-0.001687,0.03,-0.22,9.83
276210965,0.001103,0.003866,-0.000622,0.01,-0.25,9.78
276211979,0.000038,0.003866,0.001508,-0.05,-0.23,9.79
276212951,0.000038,0.001736,0.001508,-0.06,-0.23,9.83
276213963,0.003234,-0.000395,0.000443,-0.05,-0.24,9.83
276214969,0.004299,-0.000395,-0.001687,-0.03,-0.25,9.84
276215979,0.004299,0.001736,-0.001687,-0.02,-0.25,9.81
276216989,0.003234,0.001736,-0.002753,-0.01,-0.26,9.81
276217999,0.001103,0.000670,-0.000622,0.00,-0.26,9.83
276219024,-0.001027,-0.000395,0.001508,0.02,-0.24,9.84
276220021,0.000038,-0.001460,0.001508,0.02,-0.23,9.80
276221027,0.001103,-0.001460,0.000443,0.01,-0.23,9.79
276222037,0.002169,0.002801,-0.000622,0.01,-0.21,9.85
276223047,0.000038,0.004932,-0.000622,-0.01,-0.22,9.83
276224062,-0.001027,0.003866,-0.000622,-0.04,-0.20,9.82
276225067,0.002169,0.001736,0.000443,-0.02,-0.20,9.84
276226077,0.004299,0.000670,0.001508,0.00,-0.23,9.84
276227087,0.002169,0.002801,0.000443,0.02,-0.22,9.86
276228097,0.000038,0.001736,0.000443,0.01,-0.24,9.85
276229127,0.000038,-0.000395,-0.000622,-0.01,-0.26,9.82
276230122,0.001103,-0.001460,-0.000622,-0.02,-0.23,9.79
276231129,0.000038,0.001736,-0.001687,-0.02,-0.20,9.82
276232139,-0.003158,-0.000395,-0.002753,0.00,-0.28,9.80
276233149,-0.002093,-0.002525,-0.002753,-0.02,-0.25,9.78
276234163,0.000038,-0.001460,-0.000622,-0.02,-0.22,9.76
276235199,0.000038,-0.000395,0.000443,-0.03,-0.25,9.77
276236179,-0.001027,0.000670,0.001508,-0.01,-0.23,9.77
276237189,-0.003158,-0.000395,0.000443,0.01,-0.23,9.79
276238199,-0.002093,-0.000395,0.000443,0.00,-0.26,9.80
276239224,0.000038,0.000670,0.000443,-0.02,-0.23,9.79
276240221,-0.001027,0.003866,0.000443,-0.02,-0.22,9.82
276241227,-0.001027,0.002801,0.002574,0.00,-0.24,9.83
276242270,-0.001027,-0.001460,0.003639,0.02,-0.24,9.79
276243247,0.000038,-0.001460,0.002574,0.04,-0.22,9.79
276244262,0.000038,0.001736,0.000443,0.03,-0.23,9.83
276245267,-0.002093,0.002801,-0.001687,0.01,-0.26,9.85
276246277,-0.001027,0.001736,-0.001687,0.03,-0.25,9.84
276247287,0.001103,0.001736,-0.000622,0.01,-0.25,9.80
276248297,0.002169,0.002801,-0.001687,0.02,-0.27,9.82
276249327,0.002169,0.002801,-0.000622,0.02,-0.24,9.87
276250351,0.000035,0.003737,-0.000620,-0.03,-0.23,9.82
276251329,-0.001030,0.004803,0.000445,-0.02,-0.24,9.77
276252339,-0.001030,0.004803,0.002575,0.00,-0.25,9.77
276253349,0.000035,0.002672,0.004706,0.02,-0.23,9.81
276254363,0.000035,0.000542,0.002575,0.04,-0.25,9.81
276255369,0.000035,0.000542,0.001510,0.01,-0.27,9.81
276256379,-0.001030,0.001607,0.000445,-0.03,-0.26,9.87
276257389,-0.002095,0.000542,0.002575,-0.05,-0.24,9.88
276258410,-0.001030,-0.000524,0.003641,-0.04,-0.23,9.79
276259416,0.002166,-0.000524,0.001510,0.02,-0.25,9.81
276260417,0.003231,-0.000524,-0.000620,0.01,-0.25,9.83
276261427,0.001101,0.000542,-0.001686,-0.03,-0.24,9.78
276262437,0.000035,0.002672,-0.001686,-0.03,-0.24,9.76
276263447,0.000035,0.002672,-0.000620,-0.02,-0.23,9.80
276264462,0.000035,0.001607,0.000445,-0.01,-0.21,9.83
276265467,0.000035,0.001607,0.000445,-0.02,-0.23,9.81
276266477,0.000035,0.001607,0.000445,-0.02,-0.24,9.84
276267487,-0.001030,0.000542,-0.000620,-0.03,-0.24,9.82
276268512,-0.002095,-0.000524,-0.001686,-0.03,-0.27,9.76
276269517,-0.003160,-0.001589,0.000445,-0.03,-0.28,9.79
276270519,-0.002095,-0.000524,0.002575,-0.01,-0.27,9.84
276271529,-0.001030,0.000542,0.003641,-0.02,-0.25,9.84
276272539,0.001101,-0.001589,0.003641,-0.01,-0.24,9.81
276273549,0.001101,-0.004785,0.001510,0.02,-0.25,9.79
276274563,0.000035,-0.004785,-0.000620,0.02,-0.26,9.81
276275569,-0.002095,-0.003719,-0.000620,-0.01,-0.26,9.82
276276579,-0.003160,-0.002654,-0.000620,-0.02,-0.24,9.80
276277589,-0.002095,-0.002654,-0.000620,0.01,-0.24,9.78
276278610,-0.001030,-0.001589,-0.000620,0.02,-0.27,9.83
276279616,-0.002095,-0.001589,-0.000620,0.04,-0.27,9.86
276280617,-0.002095,-0.000524,-0.000620,0.03,-0.26,9.82
276281627,-0.001030,0.002672,-0.000620,-0.02,-0.23,9.78
276282637,-0.001030,0.004803,-0.001686,-0.03,-0.21,9.80
276283647,-0.001030,0.002672,-0.000620,-0.01,-0.25,9.84
276284662,-0.002095,0.001607,0.001510,0.01,-0.25,9.84
276285667,-0.003160,0.000542,0.001510,0.02,-0.23,9.82
276286681,-0.001030,0.000542,0.002575,0.00,-0.24,9.80
276287688,0.001101,0.000542,0.001510,-0.02,-0.27,9.81
276288717,0.001101,0.001607,0.000445,-0.03,-0.26,9.84
276289724,-0.002095,0.002672,-0.001686,-0.04,-0.24,9.84
276290725,-0.003160,0.002672,-0.002751,0.00,-0.24,9.80
276291743,-0.001030,-0.000524,-0.001686,0.01,-0.28,9.77
276292746,-0.001030,-0.002654,-0.000620,-0.01,-0.30,9.78
276293758,-0.001030,-0.000524,0.000445,0.01,-0.24,9.86
276294773,-0.001030,0.002672,0.000445,0.02,-0.23,9.86
276295781,-0.003160,0.002672,-0.000620,-0.01,-0.24,9.81
276296787,-0.003160,0.000542,-0.001686,0.00,-0.21,9.83
276297805,-0.002095,-0.002654,0.000445,0.04,-0.23,9.84
276298824,-0.001030,-0.003719,0.002575,0.02,-0.26,9.83
276299832,-0.002095,-0.002654,0.001510,0.01,-0.26,9.79
276300828,-0.003160,-0.002654,0.000445,-0.01,-0.25,9.79
276301835,-0.001030,0.000542,-0.000620,-0.01,-0.24,9.85
276302845,0.000035,-0.000524,-0.000620,0.01,-0.25,9.81
276303855,0.001101,-0.004785,-0.001686,-0.01,-0.23,9.79
276304869,0.001101,-0.006915,-0.001686,0.00,-0.22,9.82
276305877,0.002166,-0.005850,0.000445,0.04,-0.22,9.81
276306882,0.001101,-0.004785,0.000445,0.03,-0.24,9.79
276307888,0.000035,-0.001589,0.001510,-0.02,-0.26,9.81
276308912,-0.001030,0.001607,0.000445,-0.02,-0.23,9.85
276309920,-0.002095,0.002672,-0.001686,0.00,-0.23,9.84
276310925,-0.001030,0.001607,-0.001686,0.00,-0.24,9.82
276311932,0.000035,0.001607,-0.001686,-0.01,-0.23,9.82
276312941,0.002166,0.002672,-0.002751,-0.04,-0.22,9.83
276313951,0.003231,0.001607,-0.001686,-0.01,-0.23,9.83
276314963,0.003231,0.002672,-0.000620,0.04,-0.25,9.83
276315969,0.000035,0.000542,-0.000620,0.02,-0.24,9.82
276316979,-0.001030,0.000542,0.000445,0.00,-0.26,9.82
276317989,-0.001030,0.001607,0.000445,0.02,-0.24,9.85
276319010,0.000035,0.001607,-0.000620,0.02,-0.24,9.87
276320016,0.001101,0.002672,0.000445,0.00,-0.26,9.84
276321017,0.003231,0.002672,0.000445,-0.03,-0.25,9.81
276322027,0.001101,0.001607,-0.000620,-0.04,-0.26,9.79
276323037,0.000035,-0.001589,-0.000620,-0.02,-0.28,9.81
276324047,0.000035,-0.001589,0.001510,-0.02,-0.28,9.82
276325062,0.002166,0.000542,0.001510,-0.03,-0.29,9.82
276326067,0.003231,0.000542,0.001510,0.01,-0.26,9.85
276327077,0.002166,0.000542,0.001510,0.01,-0.23,9.82
276328087,-0.001030,0.001607,0.002575,-0.03,-0.23,9.78
276329112,-0.003160,0.002672,0.002575,-0.01,-0.23,9.75
276330117,-0.004226,0.001607,0.000445,0.00,-0.25,9.78
276331119,-0.002095,-0.000524,-0.000620,-0.01,-0.22,9.79
276332129,0.000035,-0.003719,0.000445,0.00,-0.22,9.79
276333139,0.000035,-0.001589,0.000445,0.01,-0.22,9.84
276334149,-0.002095,0.001607,-0.002751,-0.02,-0.26,9.79
276335163,-0.002095,-0.000524,-0.000620,0.03,-0.24,9.81
276336169,-0.001030,-0.002654,0.001510,0.04,-0.24,9.83
276337179,0.000035,-0.001589,0.001510,0.02,-0.24,9.86
276338189,0.000035,-0.001589,0.000445,0.00,-0.23,9.88
276339210,0.000035,-0.001589,-0.000620,-0.02,-0.22,9.88
276340216,0.001101,-0.001589,-0.000620,0.00,-0.23,9.79
276341217,0.002166,-0.000524,0.001510,0.03,-0.20,9.76
276342227,0.002166,0.000542,0.001510,0.01,-0.22,9.84
276343237,0.000035,0.002672,0.001510,0.02,-0.27,9.85
276344285,-0.001030,0.001607,0.001510,0.01,-0.25,9.85
276345262,-0.002095,-0.001589,0.000445,-0.02,-0.23,9.85
276346267,-0.001030,-0.002654,0.000445,0.01,-0.24,9.85
276347277,-0.001030,0.001607,0.001510,0.00,-0.25,9.83
276348287,0.000035,0.004803,0.001510,-0.01,-0.22,9.79
276349312,0.001101,0.003737,0.000445,0.01,-0.23,9.82
276350317,0.000035,0.001607,-0.000620,0.00,-0.24,9.87
276351319,0.000035,0.002672,-0.001686,-0.02,-0.21,9.84
276352329,0.000035,0.003737,-0.001686,-0.01,-0.23,9.86
276353339,0.000035,0.004803,0.000445,0.02,-0.27,9.86
276354349,0.001101,0.003737,0.000445,0.02,-0.26,9.82
276355363,0.002166,-0.000524,0.001510,0.01,-0.24,9.85
276356369,0.001101,-0.004785,0.000445,0.02,-0.26,9.89
276357379,-0.001030,-0.004785,0.000445,0.01,-0.29,9.87
276358399,-0.002095,-0.001589,-0.001686,-0.03,-0.25,9.82
276359401,0.000035,0.000542,-0.002751,-0.04,-0.23,9.79
276360412,0.001101,0.001607,-0.003816,0.00,-0.25,9.79
276361417,0.001101,0.001607,-0.003816,0.00,-0.22,9.84
276362427,0.002166,-0.000524,-0.001686,-0.02,-0.24,9.85
276363437,0.000035,-0.000524,0.001510,0.00,-0.27,9.82
276364447,0.000035,0.000542,0.002575,-0.02,-0.23,9.81
276365462,0.001101,-0.000524,0.000445,-0.02,-0.22,9.83
276366467,0.000035,-0.001589,-0.002751,0.01,-0.23,9.81
276367477,-0.002095,-0.000524,-0.002751,-0.03,-0.25,9.81
276368503,-0.002095,0.000542,0.001510,-0.06,-0.24,9.83
276369502,0.000035,0.000542,0.000445,-0.02,-0.22,9.83
276370513,0.000035,0.000542,-0.000620,0.00,-0.23,9.82
276371519,0.000035,0.000542,-0.000620,0.00,-0.22,9.83
276372529,-0.001030,-0.000524,-0.001686,0.00,-0.23,9.79
276373539,-0.002095,-0.000524,-0.003816,0.00,-0.24,9.79
276374549,-0.002095,-0.000524,-0.002751,0.01,-0.23,9.86
276375563,-0.001030,-0.000524,-0.001686,0.02,-0.23,9.85
276376569,0.001101,0.000542,-0.000620,0.03,-0.23,9.79
276377579,0.003231,0.000542,-0.000620,0.00,-0.21,9.76
276378599,0.003231,0.000542,-0.001686,-0.01,-0.21,9.80
276379625,0.001138,-0.000542,-0.001688,0.03,-0.24,9.79
276380612,-0.000993,-0.000542,-0.000623,0.03,-0.25,9.78
276381617,0.000072,0.001589,0.001508,0.01,-0.27,9.82
276382627,0.001138,0.001589,0.003638,0.00,-0.25,9.81
276383637,0.000072,0.000524,0.002573,0.00,-0.21,9.81
276384647,-0.003124,0.000524,0.000442,0.00,-0.23,9.78
276385662,-0.002058,-0.000542,0.000442,-0.01,-0.23,9.78
276386667,0.000072,0.000524,0.001508,-0.02,-0.24,9.83
276387681,0.001138,0.002654,-0.000623,-0.02,-0.22,9.82
276388709,0.001138,0.004785,-0.001688,0.01,-0.19,9.79
276389709,0.000072,0.002654,-0.000623,0.00,-0.23,9.84
276390720,-0.000993,0.000524,0.003638,-0.01,-0.24,9.83
276391741,-0.003124,0.000524,0.004704,0.00,-0.22,9.81
276392739,-0.003124,0.002654,0.004704,0.04,-0.22,9.81
276393742,-0.002058,0.002654,0.003638,0.03,-0.21,9.76
276394758,-0.002058,0.000524,0.001508,0.00,-0.22,9.79
276395777,-0.003124,-0.001607,-0.001688,0.02,-0.23,9.84
276396775,-0.003124,0.000524,-0.001688,-0.01,-0.21,9.84
276397788,-0.003124,0.000524,-0.000623,-0.03,-0.23,9.84
276398816,-0.003124,0.000524,-0.000623,0.00,-0.24,9.85
276399814,-0.002058,0.001589,-0.000623,0.01,-0.27,9.84
276400822,0.001138,-0.001607,0.000442,0.01,-0.28,9.78
276401839,0.001138,-0.003738,-0.000623,0.02,-0.26,9.82
276402838,-0.000993,-0.002672,-0.001688,0.00,-0.26,9.87
276403851,-0.000993,-0.001607,0.000442,0.00,-0.28,9.86
276404858,-0.002058,-0.000542,0.001508,-0.01,-0.26,9.83
276405870,-0.002058,-0.000542,0.001508,-0.02,-0.24,9.81
276406872,-0.002058,-0.001607,0.000442,0.01,-0.23,9.78
276407883,-0.002058,-0.003738,0.000442,0.00,-0.23,9.79
276408901,-0.003124,-0.004803,0.001508,0.00,-0.26,9.84
276409901,-0.002058,-0.002672,0.002573,0.00,-0.24,9.84
276410938,0.001138,0.000524,0.001508,0.01,-0.23,9.83
276411923,0.002203,0.002654,0.000442,0.02,-0.24,9.87
276412931,0.003268,0.002654,0.000442,0.02,-0.23,9.84
276413940,0.002203,0.002654,0.002573,0.02,-0.26,9.78
276414950,0.000072,0.000524,0.002573,0.01,-0.24,9.80
276415962,-0.003124,-0.001607,0.002573,0.02,-0.20,9.84
276416967,-0.003124,-0.002672,0.002573,0.00,-0.22,9.84
276417977,-0.002058,-0.002672,0.002573,-0.02,-0.24,9.79
276418998,-0.000993,-0.000542,0.001508,0.00,-0.26,9.77
276420000,0.000072,-0.000542,0.001508,0.04,-0.24,9.80
276421026,0.000072,-0.000542,0.001508,0.01,-0.21,9.78
276422017,0.000072,0.000524,0.001508,0.00,-0.22,9.77
276423026,0.002203,0.001589,0.002573,0.00,-0.24,9.79
276424036,0.003268,0.003719,0.003638,0.01,-0.23,9.81
276425046,0.000072,0.003719,0.002573,0.05,-0.21,9.81
276426061,-0.003124,0.001589,0.001508,0.04,-0.21,9.79
276427066,-0.003124,-0.001607,-0.001688,-0.01,-0.22,9.78
276428076,0.000072,-0.002672,-0.002753,-0.01,-0.24,9.76
276429100,0.003268,-0.001607,-0.001688,0.00,-0.25,9.80
276430101,0.003268,0.001589,0.000442,0.00,-0.25,9.84
276431127,0.000072,0.003719,0.001508,-0.02,-0.24,9.82
276432119,-0.000993,0.001589,0.001508,0.01,-0.25,9.79
276433127,-0.000993,-0.000542,0.001508,0.05,-0.25,9.79
276434137,-0.000993,0.000524,-0.000623,0.03,-0.22,9.84
276435147,0.000072,0.000524,-0.002753,-0.01,-0.19,9.84
276436162,0.001138,0.000524,0.002573,0.01,-0.27,9.81
276437167,0.000072,0.000524,0.002573,0.02,-0.25,9.82
276438177,0.001138,-0.000542,0.002573,0.00,-0.21,9.84
276439198,0.000072,-0.000542,0.002573,0.00,-0.20,9.83
276440200,0.000072,-0.001607,0.000442,0.01,-0.23,9.81
276441226,0.002203,-0.002672,-0.000623,0.00,-0.23,9.82
276442217,0.001138,-0.002672,-0.000623,-0.01,-0.24,9.83
276443226,0.000072,-0.001607,-0.000623,-0.02,-0.26,9.82
276444236,-0.002058,-0.000542,0.000442,-0.04,-0.25,9.83
276445246,-0.002058,-0.000542,-0.000623,-0.02,-0.24,9.83
276446281,0.000072,-0.000542,0.001508,-0.01,-0.26,9.85
276447266,0.001138,-0.000542,0.001508,-0.01,-0.25,9.87
276448276,0.001138,-0.000542,0.000442,0.02,-0.25,9.86
276449300,0.000072,-0.000542,-0.000623,0.00,-0.23,9.83
276450301,0.000072,-0.000542,-0.001688,-0.01,-0.20,9.82
276451327,0.000072,0.000524,-0.002753,-0.01,-0.18,9.82
276452319,0.001138,0.001589,-0.001688,0.00,-0.19,9.81
276453327,0.001138,0.000524,-0.001688,0.03,-0.23,9.83
276454337,0.000072,-0.000542,-0.001688,-0.01,-0.26,9.80
276455347,-0.000993,0.001589,-0.000623,-0.02,-0.27,9.81
276456362,0.001138,0.003719,0.000442,0.01,-0.28,9.82
276457367,0.003268,0.002654,-0.000623,0.00,-0.26,9.76
276458389,0.003268,0.001589,0.000442,-0.02,-0.24,9.75
276459390,0.001138,0.000524,0.002573,0.00,-0.24,9.82
276460396,0.000072,-0.000542,0.000442,0.00,-0.25,9.87
276461426,-0.000993,-0.002672,-0.001688,-0.01,-0.25,9.83
276462417,-0.004189,-0.002672,-0.000623,-0.01,-0.23,9.80
276463426,-0.004189,-0.002672,0.000442,-0.02,-0.24,9.81
276464436,-0.003124,-0.002672,0.001508,-0.03,-0.25,9.81
276465446,-0.003124,-0.000542,0.000442,-0.03,-0.22,9.82
276466461,-0.002058,0.001589,-0.000623,-0.03,-0.20,9.79
276467466,-0.000993,0.002654,0.000442,-0.03,-0.21,9.78
276468491,-0.000993,0.000524,-0.000623,-0.03,-0.24,9.79
276469491,-0.000993,-0.000542,-0.000623,0.02,-0.26,9.85
276470497,-0.003124,-0.000542,0.000442,-0.01,-0.24,9.84
276471527,-0.005254,-0.000542,0.002573,-0.03,-0.21,9.80
276472519,-0.005254,-0.000542,0.000442,-0.01,-0.20,9.84
276473527,-0.002058,-0.000542,-0.001688,-0.02,-0.22,9.86
276474537,-0.002058,0.000524,-0.001688,0.01,-0.22,9.85
276475547,0.000072,0.001589,-0.002753,-0.01,-0.22,9.86
276476562,0.001138,0.001589,-0.001688,-0.03,-0.22,9.86
276477567,0.001138,0.001589,-0.001688,-0.02,-0.23,9.84
276478589,0.000072,-0.000542,-0.000623,0.00,-0.25,9.82
276479590,0.001138,-0.000542,0.001508,0.03,-0.25,9.78
276480596,0.001138,-0.001607,0.001508,0.03,-0.23,9.79
276481626,0.001138,-0.000542,0.001508,0.04,-0.25,9.79
276482617,0.001138,0.001589,0.000442,0.03,-0.24,9.78
276483626,0.001138,0.002654,0.000442,-0.01,-0.23,9.84
276484636,0.002203,0.002654,0.001508,0.00,-0.22,9.85
276485646,0.003268,0.000524,0.001508,0.00,-0.23,9.82
276486661,0.003268,-0.002672,0.001508,0.00,-0.25,9.77
276487666,0.000072,-0.002672,0.000442,0.03,-0.26,9.77
276488693,0.000072,-0.000542,-0.000623,0.02,-0.26,9.80
276489693,0.001138,0.002654,-0.000623,0.00,-0.25,9.84
276490702,0.001138,0.002654,-0.000623,0.00,-0.24,9.83
276491743,0.001138,0.001589,0.000442,-0.01,-0.25,9.80
276492725,0.002203,0.002654,0.001508,-0.01,-0.27,9.81
276493743,0.000072,0.000524,0.002573,-0.01,-0.28,9.85
276494746,-0.002058,-0.001607,0.004704,-0.02,-0.25,9.86
276495755,-0.000993,-0.001607,0.004704,0.00,-0.25,9.85
276496772,0.000072,0.000524,0.002573,0.01,-0.24,9.81
276497783,0.001138,0.000524,0.001508,-0.02,-0.23,9.77
276498797,0.001138,-0.000542,0.001508,-0.02,-0.27,9.78
276499803,-0.000993,-0.002672,0.001508,0.01,-0.26,9.78
276500806,-0.003124,-0.003738,0.001508,0.01,-0.24,9.80
276501842,-0.003124,-0.001607,-0.000623,-0.01,-0.23,9.81
276502828,-0.000993,0.001589,-0.002753,0.00,-0.22,9.79
276503843,-0.000993,0.002654,-0.000623,0.00,-0.23,9.80
276504844,0.000072,0.001589,0.000442,0.00,-0.24,9.80
276505855,0.001138,0.000524,0.000442,0.04,-0.24,9.81
276506868,0.000072,0.000524,0.001508,0.05,-0.25,9.81
276507876,-0.002058,-0.000542,0.002573,0.04,-0.23,9.78
276508922,-0.003073,-0.000552,0.001429,0.01,-0.22,9.79
276509892,-0.000943,-0.000552,0.001429,-0.01,-0.23,9.82
276510921,0.001188,-0.000552,0.002495,0.01,-0.24,9.77
276511917,0.001188,-0.001617,0.002495,0.02,-0.25,9.77
276512922,0.000123,-0.001617,0.002495,0.02,-0.25,9.81
276513931,-0.000943,-0.000552,0.001429,0.00,-0.24,9.80
276514940,-0.002008,0.000514,-0.000701,-0.01,-0.25,9.83
276515950,-0.002008,0.001579,-0.000701,-0.02,-0.24,9.83
276516962,0.000123,0.000514,0.000364,-0.01,-0.23,9.82
276517967,0.001188,-0.001617,-0.000701,0.01,-0.26,9.83
276518988,0.001188,-0.002682,-0.001766,0.00,-0.26,9.83
276519990,0.000123,-0.001617,-0.000701,-0.02,-0.24,9.80
276521012,0.001188,0.000514,-0.000701,0.00,-0.23,9.80
276522012,0.000123,-0.001617,0.000364,0.00,-0.20,9.81
276523016,0.000123,-0.003748,0.000364,-0.01,-0.20,9.82
276524026,-0.000943,-0.004813,0.000364,-0.01,-0.25,9.83
276525036,-0.000943,-0.003748,-0.000701,-0.01,-0.29,9.83
276526046,0.001188,-0.002682,-0.001766,-0.01,-0.27,9.79
276527061,0.000123,-0.000552,-0.001766,0.00,-0.23,9.76
276528066,-0.000943,0.000514,-0.001766,0.01,-0.26,9.79
276529090,-0.000943,-0.000552,-0.001766,0.02,-0.24,9.83
276530091,0.002253,-0.000552,-0.001766,0.01,-0.20,9.87
276531113,0.001188,-0.001617,-0.000701,-0.02,-0.22,9.85
276532113,-0.002008,-0.001617,-0.000701,-0.02,-0.22,9.85
276533117,-0.002008,-0.000552,-0.000701,-0.01,-0.24,9.87
276534127,0.000123,-0.000552,0.000364,0.01,-0.25,9.83
276535137,0.001188,0.000514,-0.000701,0.01,-0.25,9.84
276536147,0.001188,0.001579,-0.001766,0.01,-0.24,9.85
276537162,0.001188,0.001579,0.000364,0.01,-0.23,9.77
276538167,0.002253,0.000514,0.002495,0.01,-0.20,9.79
276539188,0.002253,0.000514,0.002495,0.00,-0.20,9.87
276540190,0.000123,0.000514,0.001429,-0.02,-0.23,9.90
276541212,0.000123,0.001579,0.000364,0.00,-0.24,9.82
276542227,0.002253,0.001579,0.001429,0.00,-0.22,9.81
276543216,0.002253,0.002644,0.003560,-0.02,-0.21,9.85
276544226,0.001188,0.003709,0.002495,-0.01,-0.25,9.82
276545236,-0.000943,0.003709,0.001429,0.04,-0.28,9.82
276546246,-0.000943,-0.000552,0.002495,0.04,-0.28,9.82
276547261,0.000123,-0.004813,0.001429,0.01,-0.26,9.82
276548266,0.001188,-0.003748,0.000364,0.00,-0.24,9.82
276549292,0.002253,-0.001617,-0.000701,0.02,-0.23,9.82
276550291,0.003319,0.000514,-0.001766,0.06,-0.23,9.86
276551297,0.004384,0.001579,-0.000701,0.06,-0.22,9.85
276552314,0.004384,0.002644,0.001429,0.07,-0.24,9.86
276553317,0.003319,0.000514,0.002495,0.08,-0.24,9.82
276554327,0.001188,-0.003748,0.002495,0.04,-0.23,9.79
276555337,-0.000943,-0.003748,0.001429,0.00,-0.25,9.80
276556347,-0.002008,0.000514,0.000364,-0.01,-0.25,9.79
276557362,-0.002008,0.002644,-0.000701,0.01,-0.25,9.77
276558380,-0.002008,0.004775,-0.000701,0.01,-0.26,9.76
276559380,-0.002008,0.004775,0.000364,0.01,-0.24,9.80
276560386,-0.002008,0.000514,0.000364,0.03,-0.23,9.81
276561396,-0.000943,-0.000552,0.000364,0.03,-0.24,9.81
276562411,0.001188,0.000514,0.000364,0.03,-0.23,9.82
276563416,0.002253,0.001579,-0.000701,0.01,-0.25,9.85
276564426,0.001188,0.001579,-0.000701,-0.01,-0.28,9.85
276565436,-0.000943,0.002644,0.000364,0.00,-0.29,9.80
276566446,0.001188,0.002644,0.000364,0.01,-0.26,9.77
276567461,0.002253,0.001579,0.000364,0.02,-0.20,9.77
276568482,0.002253,0.000514,0.002495,0.02,-0.20,9.81
276569481,0.003319,-0.000552,0.004625,0.01,-0.21,9.81
276570487,0.001188,-0.002682,0.004625,0.01,-0.22,9.81
276571497,-0.002008,-0.000552,0.003560,0.03,-0.22,9.84
276572512,-0.002008,0.000514,0.003560,0.02,-0.26,9.85
276573517,0.000123,0.000514,0.001429,0.00,-0.28,9.84
276574527,0.002253,-0.000552,-0.001766,0.02,-0.24,9.82
276575537,0.002253,-0.002682,-0.002832,0.03,-0.22,9.85
276576547,0.002253,-0.002682,-0.002832,0.01,-0.24,9.87
276577562,0.002253,-0.001617,-0.001766,0.01,-0.24,9.84
276578580,-0.000943,0.000514,-0.000701,0.03,-0.27,9.83
276579580,-0.000943,0.001579,-0.000701,0.00,-0.29,9.82
276580586,0.002253,-0.002682,-0.000701,-0.02,-0.27,9.78
276581596,0.001188,-0.004813,-0.001766,0.04,-0.24,9.81
276582611,-0.002008,-0.002682,-0.002832,0.03,-0.23,9.81
276583616,-0.002008,-0.000552,-0.000701,0.00,-0.21,9.83
276584626,-0.002008,0.001579,0.003560,-0.02,-0.19,9.88
276585636,-0.002008,0.003709,0.002495,-0.01,-0.23,9.83
276586646,-0.003073,0.000514,-0.000701,0.00,-0.25,9.79
276587661,-0.002008,-0.004813,-0.001766,-0.01,-0.23,9.80
276588685,0.000123,-0.004813,-0.001766,0.00,-0.23,9.78
276589686,0.002253,-0.002682,-0.000701,-0.02,-0.21,9.78
276590689,0.003319,-0.000552,0.000364,-0.05,-0.23,9.79
276591704,0.002253,-0.000552,0.001429,-0.02,-0.24,9.81
276592721,0.001188,0.001579,0.002495,0.00,-0.24,9.81
276593725,0.001188,0.001579,0.002495,-0.03,-0.26,9.78
276594737,0.001188,0.000514,0.000364,-0.02,-0.25,9.80
276595867,-0.000943,-0.000552,-0.001766,-0.01,-0.22,9.82
276596733,-0.000943,-0.000552,-0.002832,-0.01,-0.16,9.82
276597742,0.000123,0.011166,0.004625,-0.01,-0.28,9.85
276598773,-0.006269,0.027146,0.005691,0.00,-0.35,9.82
276599761,-0.007334,0.018623,-0.002832,0.01,-0.27,9.71
276600771,-0.004138,0.007971,-0.010289,-0.14,-0.24,9.69
276601787,-0.002008,0.005840,-0.014550,-0.27,-0.33,9.79
276602792,0.004384,0.007971,-0.017746,-0.04,-0.47,9.86
276603800,0.009710,0.010101,-0.024137,0.21,-0.57,9.85
276604807,0.002253,0.010101,-0.030529,0.24,-0.21,9.80
276605817,-0.009465,0.009036,-0.022007,0.31,0.40,9.80
276606829,-0.012661,0.006905,-0.002832,0.02,0.49,9.96
276607844,-0.003073,-0.006943,0.012082,-0.67,-0.26,9.99
276608869,0.010775,-0.025053,0.012082,-0.59,-1.03,9.74
276609859,0.011841,-0.022923,-0.001766,0.63,-0.33,9.47
276610866,-0.009465,0.009036,-0.003897,0.90,0.70,9.69
276611870,-0.024379,0.029276,0.014213,-0.70,-0.21,10.22
276612886,0.007580,-0.001617,0.026996,-0.96,-1.87,9.85
276613895,0.042734,-0.036771,0.005691,1.01,0.38,9.56
276614904,-0.008400,0.002644,-0.004962,0.92,1.11,9.92
276615912,-0.060598,0.050582,0.015278,-1.46,-2.97,10.15
276616922,0.023559,-0.001617,0.008886,-0.38,0.14,9.71
276617932,0.058713,-0.039967,-0.004962,1.68,2.81,9.99
276618964,-0.076578,0.021819,0.015278,-0.78,-4.52,9.94
276619954,-0.044619,0.006905,0.002495,-0.94,0.77,8.67
276620960,0.092802,-0.028249,-0.006028,1.50,3.19,11.13
276621970,-0.024379,0.026080,0.008886,-0.60,-4.82,10.59
276622982,-0.043554,0.001579,-0.008158,-0.71,2.45,7.07
276623990,0.057648,-0.017596,-0.000701,0.97,-1.06,11.90
276625000,-0.007334,-0.014400,-0.022007,0.17,-0.40,9.50
276626010,-0.007334,-0.006943,-0.014550,-0.54,0.58,7.98
276627020,-0.025444,0.040994,-0.006028,-0.33,-1.36,12.54
276628032,0.010775,-0.041032,-0.012419,1.34,0.60,7.41
276629064,0.044864,0.010101,-0.001766,-1.31,-0.42,11.51
276630054,-0.030770,0.004775,-0.011354,1.03,-0.55,8.94
276631060,0.018232,0.020754,-0.006028,-0.59,-0.42,10.82
276632070,0.002253,-0.011204,-0.014550,-0.11,-0.13,10.03
276633082,0.009710,-0.026118,-0.010289,0.61,-0.37,9.25
276634090,-0.040358,0.013297,-0.017746,-0.84,-1.08,11.15
276635100,0.015037,0.006905,-0.017746,0.63,0.42,8.06
276636110,-0.004138,0.013297,-0.006028,-0.58,-0.90,12.10
276637120,0.012906,0.015428,-0.009223,0.32,0.30,6.57
276638132,-0.022248,0.009036,-0.006028,-0.86,0.55,11.67
276639164,-0.008400,0.003709,-0.012419,-0.92,3.41,11.19
276640154,-0.004138,0.014362,-0.024137,0.14,-2.70,10.19
276641160,0.008645,0.004775,-0.015615,0.70,1.26,7.03
276642170,-0.005204,-0.002682,-0.009223,-0.48,0.35,13.45
276643182,0.000123,0.000514,-0.012419,1.07,-3.33,6.41
276644190,0.009710,0.010101,-0.013485,-0.51,3.92,12.12
276645200,0.009710,0.006905,-0.016680,-0.13,-2.08,11.34
276646210,0.006514,-0.008009,-0.013485,1.06,-2.05,6.24
276647220,0.005449,-0.006943,-0.004962,-0.80,3.58,12.51
276648232,0.010775,0.000514,-0.001766,0.28,-3.17,10.15
276649264,0.007580,0.004775,0.001429,0.92,-1.62,6.82
276650254,-0.020118,0.002644,0.005691,-0.88,3.71,12.49
276651283,-0.035032,0.013297,0.002495,-0.02,-2.94,9.92
276652270,-0.013726,0.016493,0.000364,0.81,-2.42,7.39
276653282,-0.017987,-0.000552,0.004625,-0.52,4.26,13.04
276654290,-0.019052,-0.009074,0.008886,-0.47,-1.07,11.10
276655300,0.024624,0.015428,0.004625,0.42,-4.10,6.40
276656310,0.031016,0.010101,0.000364,0.16,2.70,9.65
276657320,0.000123,-0.016531,-0.001766,-1.25,2.75,12.25
276658332,0.001188,-0.009074,0.000364,0.05,-4.28,7.73
276659364,0.008645,-0.004813,0.005691,1.44,-1.98,6.37
276660354,0.022494,-0.006943,0.012082,-0.92,4.14,12.36
276661360,0.022494,-0.003748,0.015278,-0.79,1.58,13.59
276662370,-0.002008,0.005840,0.015278,1.15,-4.80,8.04
276663382,-0.009465,0.005840,0.012082,0.95,-1.76,7.20
276664390,-0.000943,-0.011204,0.005691,-0.58,5.19,11.43
276665400,0.000123,-0.011204,0.003560,-0.76,0.62,12.06
276666410,0.006514,-0.000552,0.005691,0.39,-5.49,8.25
276667420,0.008645,-0.013335,0.004625,1.03,-1.59,7.45
276668432,0.007580,-0.037837,-0.001766,-0.18,4.31,11.52
276669464,0.005449,-0.029314,-0.006028,-1.46,3.06,12.87
276670454,-0.010530,-0.013335,-0.009223,0.13,-4.76,8.75
276671460,0.002253,-0.019727,-0.010289,0.54,-4.06,6.38
276672470,0.033146,-0.002682,0.006756,-0.03,2.53,8.77
276673482,-0.006269,0.003709,0.017409,-0.58,5.02,13.11
276674490,-0.017987,-0.012270,0.012082,-1.04,0.02,13.63
276675500,-0.005204,-0.013335,0.006756,0.62,-6.12,8.65
276676510,-0.011595,-0.018661,0.004625,1.01,-2.16,5.31
276677520,0.012906,-0.009074,0.009952,-0.26,2.12,8.88
276678556,0.007580,-0.003748,0.020604,-0.78,5.51,13.58
276679544,-0.005204,-0.004813,0.022735,-1.03,0.63,13.95
276680550,0.011841,-0.004813,0.018474,0.61,-6.41,8.95
276681560,0.007580,-0.025053,0.014213,1.28,-3.20,4.43
276682570,0.026755,-0.012270,0.012082,0.11,0.35,6.76
276683582,0.022494,-0.008009,0.007821,0.17,4.27,12.22
276684590,0.016102,-0.009074,0.005691,-1.38,4.44,14.89
276685600,0.023559,0.006905,0.009952,-0.77,-2.91,11.09
276686610,0.001188,0.002644,0.011017,1.22,-6.05,6.47
276687620,-0.005204,0.000514,0.006756,0.54,-3.04,5.39
276688656,0.011841,-0.003748,0.002495,0.86,0.67,7.60
276689644,0.010775,-0.012270,-0.001766,0.63,3.88,13.01
276690650,0.021428,-0.012270,-0.001766,-1.34,4.63,15.35
276691660,0.020363,-0.001617,-0.001766,-0.83,-0.04,11.39
276692675,-0.006269,-0.011204,-0.001766,0.38,-5.84,7.81
276693690,-0.006269,-0.013335,-0.001766,-0.05,-4.40,6.04
276694696,0.006514,-0.008009,-0.001766,0.99,-0.70,5.39
276695705,0.007580,-0.006943,-0.004962,1.52,0.48,8.39
276696716,0.007580,0.005840,-0.001766,-0.10,3.78,13.85
276697731,0.003319,0.012232,0.003560,-1.22,4.94,15.43
276698765,0.002253,-0.005878,0.004625,-1.21,0.54,12.06
276699752,0.012906,-0.021857,0.002495,-0.70,-4.05,8.87
276700758,0.016102,-0.011204,0.003560,0.07,-4.23,6.95
276701773,-0.004138,0.009036,0.008886,0.57,-2.38,6.05
276702783,-0.025444,0.018623,0.005691,0.92,-0.89,6.29
276703799,-0.017987,0.006905,-0.003897,1.12,1.17,9.34
276704801,0.000123,-0.013335,-0.009223,0.29,3.43,14.18
276705807,0.004384,-0.006943,0.001429,-0.84,4.01,15.44
276706817,-0.040358,0.018623,0.008886,-1.40,1.54,12.78
276707826,-0.006269,0.001579,-0.004962,-1.13,-1.87,10.26
276708862,0.042734,-0.015466,-0.004962,-0.36,-3.85,8.11
276709853,0.006514,0.018623,0.013147,-0.13,-3.62,5.91
276710860,-0.054207,0.070822,0.029127,0.11,-1.74,5.25
276711864,-0.084035,0.096389,0.033388,1.07,-0.92,6.60
276712870,-0.096818,0.081475,0.030192,1.86,-0.29,8.45
276713936,-0.070186,0.063365,0.023800,0.92,1.78,12.28
276714910,-0.027575,0.047386,0.011017,0.03,3.11,14.83
276715923,0.012906,0.016493,-0.003897,-0.78,2.79,14.92
276716912,0.007580,-0.011204,-0.013485,-1.05,1.67,12.10
276717951,-0.025444,-0.011204,-0.007093,-1.19,-1.15,9.78
276718957,0.011841,0.011166,-0.009223,-0.70,-2.40,9.10
276719944,0.015037,-0.005878,-0.012419,-0.45,-2.23,5.94
276720950,0.012906,0.009036,-0.011354,-0.16,-4.09,7.54
276721960,-0.010530,-0.001617,-0.010289,1.00,-1.88,6.88
276722970,0.002253,0.001579,-0.016680,0.27,-1.94,7.80
276723982,-0.015857,0.007971,-0.017746,1.72,-0.86,7.85
276724990,-0.005204,-0.006943,-0.022007,0.62,1.00,10.52
276726000,0.002253,0.004775,-0.031594,0.63,0.72,12.46
276727010,-0.016922,-0.014400,-0.039051,0.67,3.18,12.11
276728020,-0.015857,0.012232,-0.037986,-1.26,1.41,13.28
276729056,-0.027575,-0.001617,-0.039051,-0.17,1.51,12.30
276730044,0.007580,0.025015,-0.035855,-1.72,1.61,11.82
276731050,0.002253,0.027146,-0.036921,-1.27,-0.42,9.73
276732060,0.015037,0.027146,-0.036921,-0.81,-0.86,10.66
276733070,-0.014791,0.011166,-0.035855,-1.23,-1.76,7.77
276734082,-0.000943,0.005840,-0.036921,0.11,-3.56,7.03
276735090,-0.011595,0.010101,-0.043312,-0.10,-1.50,6.99
276736100,-0.003073,-0.008009,-0.044378,0.33,-3.15,7.38
276737110,-0.021183,-0.008009,-0.039051,0.90,-1.60,7.20
276738120,0.000123,-0.016531,-0.032660,0.35,-0.76,9.00
276739156,0.018232,0.015428,-0.028398,1.25,-0.88,8.73
276740144,0.016102,0.005840,-0.032660,0.87,1.44,10.56
276741150,-0.010530,-0.010139,-0.028398,0.84,2.15,11.15
276742160,0.020363,0.011166,-0.029464,-0.31,1.12,12.60
276743170,0.016102,-0.001617,-0.034790,0.05,2.08,13.16
276744182,-0.004138,-0.005878,-0.034790,-0.90,1.84,12.90
276745190,-0.029705,-0.016531,-0.039051,-0.39,0.40,11.93
276746200,0.004384,0.000514,-0.036921,-1.02,1.77,11.02
276747237,0.005449,0.011166,-0.037986,-1.38,0.29,9.45
276748220,0.006514,-0.000552,-0.034790,-0.75,-0.58,10.26
276749256,-0.035032,-0.005878,-0.033725,-1.24,-0.88,8.24
276750244,-0.000943,-0.006943,-0.036921,-0.04,-2.49,7.68
276751250,0.015037,0.013297,-0.039051,-0.42,-1.02,7.26
276752260,0.001188,0.001579,-0.043312,-0.03,-2.87,7.75
276753270,-0.016922,-0.012270,-0.043312,0.09,-1.78,7.46
276754282,-0.007334,-0.008009,-0.037986,0.35,-2.33,8.28
276755290,-0.011595,0.016493,-0.040117,0.94,-1.45,7.90
276756300,0.010775,-0.008009,-0.050769,0.47,-0.89,9.30
276757340,0.010775,-0.010139,-0.052900,1.08,-1.39,8.65
276758327,-0.015857,0.004775,-0.047574,0.75,0.42,9.48
276759356,-0.021183,0.015428,-0.044378,1.28,-0.83,9.77
276760344,0.009710,-0.013335,-0.047574,1.03,1.03,10.33
276761350,0.020363,-0.011204,-0.043312,0.59,0.29,11.70
276762360,-0.004138,0.011166,-0.034790,0.68,1.25,11.12
276763370,-0.014791,0.018623,-0.035855,0.07,1.15,12.23
276764382,-0.002008,-0.013335,-0.047574,0.19,1.21,12.10
276765390,0.020363,-0.031445,-0.052900,-0.59,1.67,12.28
276766400,0.020363,-0.012270,-0.044378,-0.51,0.98,12.17
276767410,0.001188,0.018623,-0.027333,-0.76,1.73,11.49
276768420,-0.036097,0.031407,-0.024137,-1.07,0.73,11.00
276769456,-0.039293,0.017558,-0.030529,-0.85,0.76,10.40
276770444,-0.015857,0.005840,-0.040117,-1.25,0.38,9.60
276771450,0.020363,-0.019727,-0.044378,-0.56,-0.56,9.13
276772460,0.028885,-0.034641,-0.044378,-1.17,-0.21,8.54
276773470,0.036342,-0.028249,-0.033725,-0.41,-1.99,8.02
276774482,0.036342,-0.001617,-0.028398,-0.60,-0.80,7.98
276775490,0.028885,0.016493,-0.016680,-0.06,-2.41,7.98
276776500,-0.000943,0.026080,-0.012419,-0.11,-1.23,8.13
276777510,-0.020118,0.025015,-0.011354,0.08,-2.24,8.53
276778544,-0.042489,0.027146,-0.014550,0.49,-1.43,8.34
276779536,-0.039293,0.027146,-0.015615,0.23,-1.36,9.17
276780540,-0.048880,0.015428,-0.016680,0.87,-1.56,8.58
276781550,-0.027575,0.006905,-0.016680,0.49,-0.56,9.38
276782560,-0.017987,-0.004813,-0.023072,1.10,-1.31,8.84
276783570,0.013971,-0.012270,-0.027333,0.66,0.06,9.32
276784582,0.013971,-0.026118,-0.030529,1.16,-0.87,9.37
276785590,0.026755,-0.023988,-0.031594,0.89,0.56,9.85
276786600,0.021428,-0.027184,-0.031594,0.87,-0.10,10.38
276787610,0.036342,-0.026118,-0.032660,0.71,0.83,10.78
276788644,0.025689,-0.027184,-0.031594,0.37,0.74,11.50
276789636,0.027820,-0.016531,-0.031594,0.36,1.04,11.98
276790640,0.010775,-0.006943,-0.027333,-0.17,1.42,12.07
276791650,0.016102,-0.000552,-0.028398,-0.11,1.05,12.48
276792660,0.007580,-0.008009,-0.023072,-0.52,1.76,11.69
276793676,0.013971,-0.008009,-0.022007,-0.75,1.06,12.04
276794693,0.005449,-0.011204,-0.018811,-0.77,1.46,10.81
276795697,0.013971,-0.008009,-0.022007,-1.07,0.83,10.92
276796706,0.015037,-0.004813,-0.016680,-0.82,0.65,9.83
276797718,0.019298,0.003709,-0.017746,-1.18,0.44,9.55
276798750,0.023559,0.015428,-0.012419,-0.79,-0.62,8.84
276799742,0.017167,0.022884,-0.009223,-1.03,-0.07,8.48
276800751,0.013971,0.029276,0.000364,-0.48,-1.86,8.26
276801757,-0.002008,0.031407,-0.000701,-0.56,-0.73,8.03
276802772,-0.002008,0.036733,0.003560,-0.14,-2.48,8.31
276803780,-0.014791,0.029276,0.001429,-0.02,-1.21,8.06
276804791,-0.007334,0.023950,0.002495,0.10,-2.37,8.78
276805800,-0.024379,0.014362,-0.003897,0.41,-1.36,8.29
276806805,-0.014791,0.010101,-0.009223,0.23,-1.72,9.39
276807822,-0.023314,-0.005878,-0.016680,0.86,-1.61,8.55
276808854,-0.003073,-0.011204,-0.018811,0.47,-0.76,9.63
276809846,-0.009465,-0.019727,-0.023072,1.11,-1.45,8.67
276810853,0.009710,-0.014400,-0.023072,0.65,-0.01,9.45
276811855,0.000123,-0.019727,-0.025203,1.17,-1.19,9.05
276812864,0.018232,-0.015466,-0.020941,0.86,0.54,9.91
276813870,0.005449,-0.010139,-0.017746,0.92,-0.32,10.09
276814886,0.019298,0.001579,-0.014550,0.80,0.78,10.77
276815895,0.009710,0.012232,-0.003897,0.40,0.66,11.46
276816904,0.017167,0.017558,-0.002832,0.37,1.10,11.94
276817912,0.005449,0.012232,-0.001766,-0.17,1.44,12.09
276818946,0.003319,0.007971,-0.009223,-0.13,1.13,12.52
276819936,-0.008400,-0.006943,-0.019876,-0.67,1.86,11.69
276820940,-0.000943,-0.018661,-0.028398,-0.67,1.07,12.04
276821950,0.003319,-0.019727,-0.026268,-0.84,1.47,10.82
276822960,0.009710,-0.013335,-0.022007,-1.14,0.83,10.62
276823970,0.004384,0.004775,-0.004962,-0.86,0.42,9.66
276824982,0.000123,0.018623,-0.002832,-1.26,0.30,9.16
276825990,-0.002008,0.021819,0.001429,-0.63,-1.17,8.64
276827000,-0.013726,0.013297,-0.004962,-0.92,-0.30,8.25
276828010,-0.004138,-0.008009,-0.013485,-0.29,-2.51,8.12
276829044,0.001188,-0.032510,-0.027333,-0.26,-1.09,7.86
276830036,0.019298,-0.031445,-0.025203,0.09,-2.84,8.21
276831040,0.016102,-0.020792,-0.022007,0.27,-1.41,7.90
276832050,0.017167,0.010101,-0.006028,0.07,-2.11,9.11
276833060,-0.014791,0.032472,0.001429,0.68,-1.68,8.28
276834070,-0.024379,0.034603,-0.001766,0.36,-1.03,9.65
276835082,-0.038227,0.019689,-0.011354,1.02,-1.51,8.61
276836090,-0.008400,0.001579,-0.018811,0.61,-0.19,9.84
276837100,-0.002008,-0.022923,-0.026268,1.16,-1.28,9.07
276838110,0.024624,-0.027184,-0.024137,0.89,0.48,9.67
276839144,0.020363,-0.021857,-0.016680,0.99,-0.57,9.97
276840136,0.033146,-0.008009,-0.009223,0.88,0.85,10.57
276841140,0.012906,0.007971,0.000364,0.52,0.42,11.30
276842150,0.002253,0.022884,-0.000701,0.44,1.01,11.67
276843160,-0.030770,0.019689,-0.008158,0.01,1.15,12.46
276844170,-0.032901,-0.000552,-0.015615,-0.53,1.83,11.84
276845182,-0.010530,-0.014400,-0.023072,-0.68,1.09,12.12
276846190,0.004384,-0.021857,-0.022007,-0.84,1.70,10.98
276847200,0.023559,-0.026118,-0.023072,-1.16,0.94,10.90
276848210,0.027820,-0.021857,-0.010289,-0.87,0.74,9.88
276849244,0.027820,-0.008009,-0.006028,-1.27,0.55,9.58
276850236,0.019298,0.011166,0.001429,-0.75,-0.77,8.93
276851240,-0.005204,0.021819,-0.000701,-1.08,-0.02,8.41
276852250,-0.022248,0.021819,-0.002832,-0.47,-2.12,8.24
276853260,-0.038227,0.012232,-0.011354,-0.48,-0.80,7.92
276854270,-0.026509,0.003709,-0.014550,-0.07,-2.73,8.17
276855282,-0.017987,-0.013335,-0.023072,0.06,-1.25,7.96
276856316,0.011841,-0.018661,-0.020941,0.06,-2.33,8.82
276857300,0.017167,-0.026118,-0.022007,0.58,-1.64,8.22
276858310,0.035277,-0.016531,-0.013485,0.31,-1.40,9.51
276859344,0.028885,-0.000552,-0.007093,0.95,-1.67,8.55
276860336,0.025689,0.015428,-0.002832,0.57,-0.56,9.91
276861340,-0.013726,0.020754,-0.002832,1.16,-1.44,8.85
276862350,-0.022248,0.022885,-0.006028,0.81,0.19,9.55
276863360,-0.040358,0.009036,-0.012419,1.13,-1.01,9.39
276864370,-0.017987,-0.000552,-0.018811,0.97,0.60,9.98
276865382,-0.010530,-0.017596,-0.023072,0.77,-0.08,10.73
276866390,0.018232,-0.022923,-0.025203,0.69,0.86,11.12
276867400,0.025689,-0.018661,-0.019876,0.15,0.91,11.76
276868410,0.037407,-0.008009,-0.016680,0.19,1.08,12.27
276869444,0.020363,0.006905,-0.004962,-0.44,1.71,11.98
276870436,0.010775,0.019689,-0.002832,-0.44,1.12,12.42
276871440,-0.019052,0.016493,0.000364,-0.75,1.84,11.37
276872450,-0.030770,0.011166,-0.006028,-1.03,1.11,11.43
276873460,-0.033966,-0.001617,-0.011354,-0.93,1.23,10.35
276874470,-0.016922,-0.012270,-0.019876,-1.30,0.78,10.11
276875482,0.005449,-0.016531,-0.016680,-0.85,-0.10,9.42
276876490,0.020363,-0.017596,-0.018811,-1.22,0.24,8.95
276877500,0.028885,-0.004813,-0.006028,-0.60,-1.67,8.43
276878534,0.019298,0.012232,-0.001766,-0.77,-0.44,8.11
276879524,0.003319,0.023950,0.004625,-0.16,-2.54,7.96
276880532,-0.025444,0.023950,0.000364,-0.10,-1.19,7.85
276881540,-0.028640,0.011166,-0.007093,0.12,-2.60,8.45
276882550,-0.032901,-0.010139,-0.016680,0.44,-1.51,8.08
276883560,-0.004138,-0.021857,-0.022007,0.20,-1.87,9.33
276884570,0.004384,-0.035706,-0.027333,0.86,-1.69,8.45
276885582,0.027820,-0.026118,-0.019876,0.45,-0.82,10.03
276886590,0.022494,-0.011204,-0.011354,1.12,-1.52,8.82
276887600,0.029951,0.012232,-0.001766,0.71,0.03,9.78
276888634,-0.003073,0.029276,0.007821,1.23,-1.27,9.24
276889624,-0.011595,0.031407,0.005691,1.06,0.50,9.84
276890632,-0.043554,0.014362,-0.001766,0.96,-0.40,10.25
276891640,-0.028640,-0.001617,-0.015615,0.81,0.82,10.59
276892650,-0.021183,-0.025053,-0.026268,0.34,0.64,11.32
276893660,0.012906,-0.032510,-0.030529,0.32,1.13,12.02
276894677,0.020363,-0.032510,-0.023072,-0.16,1.55,12.02
276895691,0.034212,-0.018661,-0.015615,-0.24,1.05,12.52
276896698,0.025689,0.005840,0.001429,-0.76,2.01,11.59
276897707,0.016102,0.029276,0.005691,-0.90,1.11,11.79
276898744,-0.019052,0.037798,0.008886,-0.94,1.41,10.66
276899733,-0.039293,0.031407,0.001429,-1.26,0.88,10.49
276900738,-0.041423,0.010101,-0.004962,-0.96,0.40,9.61
276901750,-0.022248,-0.014400,-0.016680,-1.30,0.44,9.18
276902761,0.005449,-0.030380,-0.019876,-0.66,-1.15,8.75
276903776,0.020363,-0.037837,-0.028398,-0.93,-0.22,8.43
276904783,0.035277,-0.020792,-0.016680,-0.31,-2.54,8.00
276905789,0.032081,0.000514,-0.008158,-0.28,-1.06,7.91
276906800,0.021428,0.028211,0.005691,0.11,-2.83,8.26
276907806,-0.022248,0.040994,0.008886,0.30,-1.45,7.97
276908844,-0.032901,0.036733,0.001429,0.17,-2.18,9.18
276909831,-0.046750,0.012232,-0.013485,0.76,-1.64,8.37
276910844,-0.011595,-0.012270,-0.020941,0.40,-1.16,9.94
276911846,0.004384,-0.033575,-0.026268,1.14,-1.64,8.54
276912854,0.037407,-0.022923,-0.016680,0.66,-0.19,9.97
276913864,0.027820,-0.003748,-0.004962,1.25,-1.37,9.07
276914870,0.024624,0.017558,0.001429,0.96,0.46,9.68
276915886,-0.016922,0.023950,0.001429,1.03,-0.70,9.88
276916895,-0.024379,0.019689,-0.009223,0.89,0.88,10.53
276917904,-0.032901,-0.006943,-0.018811,0.43,0.44,11.27
276918936,0.001188,-0.022923,-0.023072,0.40,1.10,11.76
276919926,0.015037,-0.020792,-0.016680,-0.13,1.51,11.91
276920932,0.034212,-0.003748,-0.011354,-0.17,1.15,12.48
276921940,0.011841,0.017558,0.001429,-0.71,1.99,11.68
276922950,-0.010530,0.025015,-0.000701,-0.85,1.11,12.05
276923960,-0.030770,0.006905,-0.007093,-0.97,1.65,10.85
276924970,-0.014791,-0.019727,-0.023072,-1.28,0.99,10.67
276925982,0.010775,-0.032510,-0.023072,-1.02,0.55,9.76
276926990,0.025689,-0.026118,-0.020941,-1.36,0.47,9.23
276928000,0.024624,0.004775,-0.001766,-0.68,-1.21,8.53
276929034,-0.003073,0.030341,0.004625,-0.99,-0.17,8.16
276930024,-0.026509,0.029276,0.001429,-0.33,-2.52,8.06
276931032,-0.038227,0.002644,-0.012419,-0.19,-1.15,7.86
276932040,-0.003073,-0.015466,-0.017746,0.17,-3.05,8.22
276933050,0.017167,-0.023988,-0.020941,0.45,-1.42,7.88
276934060,0.033146,-0.000552,-0.007093,0.29,-2.15,9.24
276935070,-0.003073,0.018623,0.002495,0.97,-1.81,8.37
276936082,-0.014791,0.022884,-0.001766,0.50,-0.96,10.06
276937090,-0.023314,-0.004813,-0.015615,1.22,-1.60,8.65
276938100,0.016102,-0.017596,-0.018811,0.80,0.02,9.89
276939134,0.015037,-0.009074,-0.009223,1.31,-1.33,9.08
276940124,0.018232,0.017558,0.002495,0.99,0.68,9.78
276941132,-0.017987,0.028211,0.006756,0.94,-0.43,10.18
276942140,-0.012661,0.011166,-0.004962,0.81,0.99,10.96
276943150,-0.009465,-0.025053,-0.017746,0.20,0.86,11.67
276944160,0.018232,-0.004813,-0.002832,-0.49,1.88,11.93
276945170,0.004384,0.021819,-0.002832,-0.52,1.29,12.42
276946182,-0.020118,0.012232,-0.009223,-0.92,2.00,11.37
276947190,-0.007334,-0.013335,-0.019876,-1.06,1.04,11.50
276948200,0.011841,-0.014400,-0.011354,-1.09,1.46,10.38
276949234,0.015037,0.007971,-0.002832,-1.50,0.86,9.97
276950224,-0.011595,0.023950,0.007821,-0.98,-0.35,9.70
276951232,-0.032901,0.006905,-0.002832,-1.26,0.14,8.82
276952240,-0.002008,-0.014400,-0.014550,-0.40,-2.23,7.74
276953250,0.026755,-0.018661,-0.019876,-0.59,-0.69,7.72
276954260,0.025689,0.004775,-0.004962,-0.07,-2.97,8.07
276955270,-0.020118,0.015428,-0.000701,0.24,-1.51,7.84
276956282,-0.009465,0.006905,-0.010289,0.39,-2.83,8.80
276957290,0.010775,-0.013335,-0.024137,0.80,-1.62,8.20
276958301,0.028885,-0.001617,-0.010289,0.40,-1.51,9.84
276959334,-0.019052,0.017558,0.003560,1.31,-1.87,8.36
276960324,-0.017987,0.022885,-0.000701,0.72,-0.23,10.16
276961332,-0.000943,-0.003748,-0.015615,1.36,-1.43,8.86
276962340,0.035277,-0.019727,-0.017746,1.01,0.57,10.20
276963350,0.008645,-0.009074,-0.007093,1.13,-0.69,10.33
276964360,-0.006269,0.010101,-0.007093,0.95,0.98,10.01
276965370,-0.004138,0.001579,-0.016680,0.28,0.49,11.06
276966382,0.026755,-0.015466,-0.022007,0.27,1.50,11.81
276967390,0.011841,-0.001617,-0.007093,-0.29,1.60,12.25
276968400,-0.010530,0.023950,-0.000701,-0.26,0.98,12.61
276969434,-0.014791,0.021819,-0.003897,-1.02,2.36,11.49
276970424,0.011841,-0.005878,-0.014550,-1.17,1.38,11.53
276971432,0.013971,-0.010139,-0.004962,-1.07,1.48,10.72
276972440,-0.011595,0.004775,-0.002832,-1.47,0.70,10.10
276973450,-0.007334,0.005840,-0.009223,-1.05,0.02,9.38
276974460,0.008645,-0.021857,-0.020941,-1.32,0.26,8.59
276975470,0.023559,-0.018661,-0.008158,-0.68,-1.95,8.92
276976482,-0.006269,0.010101,0.001429,-0.65,-0.57,7.86
276977490,-0.008400,0.017558,-0.002832,0.01,-3.06,7.70
276978524,0.000123,-0.010139,-0.014550,0.17,-1.34,7.51
276979514,0.019298,-0.010139,-0.003897,0.39,-2.86,8.53
276980520,-0.008400,0.017558,0.005691,0.91,-1.89,8.22
276981532,-0.002008,0.015428,-0.002832,0.56,-1.59,9.83
276982540,0.007580,-0.016531,-0.018811,1.37,-1.83,8.52
276983550,0.021428,-0.019727,-0.013485,0.97,-0.34,10.14
276984560,-0.010530,0.005840,-0.003897,1.45,-1.63,9.07
276985570,-0.000943,0.006905,-0.007093,1.09,0.77,9.45
276986582,0.008645,-0.003748,-0.014550,1.16,-0.61,10.09
276987590,0.009710,0.003709,-0.011354,0.92,1.10,10.57
276988624,-0.024379,0.014362,-0.006028,0.20,0.71,11.86
276989614,-0.008400,0.000514,-0.013485,0.22,1.17,11.93
276990620,0.007580,-0.004813,-0.012419,-0.51,2.00,12.13
276991632,0.004384,0.004775,-0.010289,-0.61,1.29,12.15
276992640,-0.013726,-0.001617,-0.014550,-1.06,2.04,11.34
276993650,-0.005204,-0.025053,-0.023072,-1.21,1.02,11.29
276994660,0.004384,-0.010139,-0.011354,-1.22,1.46,10.56
276995676,-0.014791,0.013297,-0.008158,-1.48,0.76,9.66
276996693,-0.006269,0.013297,-0.013485,-1.08,-0.48,9.78
276997697,0.000123,-0.010139,-0.019876,-1.31,0.13,8.49
276998728,0.003319,-0.001617,-0.006028,-0.36,-2.54,7.82
276999724,-0.017987,0.010101,-0.003897,-0.33,-0.92,7.66
277000726,0.004384,-0.002682,-0.009223,0.19,-3.30,7.70
277001738,0.003319,-0.014400,-0.014550,0.37,-1.56,7.79
277002751,0.008645,-0.004813,-0.011354,0.52,-2.55,8.99
277003761,-0.000943,-0.004813,-0.014550,1.15,-1.79,8.23
277004772,0.017167,-0.004813,-0.011354,0.57,-1.07,10.22
277005783,-0.013726,0.013297,-0.004962,1.35,-1.79,8.65
277006792,-0.014791,0.020754,-0.006028,0.94,0.29,10.12
277007798,-0.002008,0.000514,-0.012419,1.45,-1.32,9.46
277008833,0.017167,-0.010139,-0.008158,1.05,1.00,9.92
277009825,-0.015857,0.003709,-0.000701,0.68,-0.06,11.08
277010837,-0.007334,0.000514,-0.006028,0.65,1.32,10.97
277011843,0.004384,-0.003748,-0.010289,-0.11,1.29,12.09
277012849,0.001188,0.004775,-0.011354,-0.22,1.44,12.33
277013854,-0.003073,0.001579,-0.012419,-0.96,2.25,11.92
277014864,0.007580,-0.014400,-0.015615,-0.78,1.00,12.04
277015870,0.000123,0.006905,-0.001766,-1.14,2.09,11.03
277016886,-0.020118,0.017558,-0.002832,-1.53,0.96,10.40
277017895,-0.006269,-0.000552,-0.008158,-1.19,0.51,10.31
277018927,-0.009465,-0.016531,-0.014550,-1.43,0.31,8.96
277019916,0.002253,-0.008009,-0.012419,-0.56,-1.89,8.35
277020922,0.013971,-0.013335,-0.018811,-0.86,-0.49,7.88
277021932,0.019298,-0.005878,-0.008158,-0.16,-3.20,8.02
277022940,-0.026509,0.004775,-0.006028,0.21,-1.43,7.84
277023950,-0.004138,0.004775,-0.008158,0.52,-3.26,8.13
277024960,0.013971,0.006905,-0.010289,0.79,-1.70,7.82
277025970,0.013971,0.015428,-0.007093,0.47,-1.64,9.85
277026982,-0.013726,-0.001617,-0.010289,1.43,-1.93,8.38
277027990,0.008645,-0.015466,-0.009223,0.87,-0.10,10.33
277029024,-0.006269,0.002644,-0.006028,1.45,-1.45,9.13
277030014,-0.000943,0.002644,-0.014550,1.04,1.01,10.04
277031020,0.000123,-0.011204,-0.020941,0.99,-0.50,10.72
277032032,0.002253,-0.004813,-0.014550,0.85,1.26,10.31
277033040,0.007580,0.005840,-0.009223,0.01,0.94,11.70
277034050,0.022494,0.001579,-0.009223,-0.10,1.71,12.15
277035060,-0.015857,0.013297,0.002495,-0.66,2.04,12.28
277036070,-0.031836,0.005840,-0.002832,-0.53,0.83,12.32
277037082,0.003319,0.002644,-0.006028,-1.36,2.48,11.19
277038090,0.007580,0.006905,-0.010289,-1.58,1.28,10.63
277039124,0.006514,-0.003748,-0.015615,-1.15,0.85,10.63
277040114,0.001188,-0.023988,-0.022007,-1.40,0.34,9.29
277041141,0.004384,-0.001617,-0.011354,-0.67,-1.34,8.41
277042133,0.000123,0.011166,-0.012419,-1.12,-0.19,7.83
277043140,0.006514,0.010101,-0.004962,-0.31,-2.83,8.68
277044150,-0.041423,0.004775,-0.003897,0.13,-1.45,7.94
277045160,-0.007334,0.001579,-0.007093,0.56,-3.64,7.48
277046170,0.031016,0.004775,-0.011354,0.39,-1.77,9.55
277047182,-0.017987,-0.021857,-0.015615,1.41,-2.28,8.29
277048190,0.002253,-0.029314,-0.013485,0.81,-0.30,9.93
277049227,0.005449,0.012232,-0.008158,1.42,-1.45,8.76
277050211,0.010775,0.020754,-0.006028,1.15,0.80,10.97
277051241,-0.031836,0.002644,-0.002832,1.25,-0.63,11.13
277052233,-0.038227,-0.005878,-0.004962,1.00,0.96,9.52
277053240,0.023559,0.003709,-0.009223,0.01,0.87,11.03
277054259,0.050191,0.009036,-0.009223,-0.15,2.30,12.36
277055260,-0.012661,-0.002682,-0.004962,-0.54,1.86,12.95
277056270,-0.028640,-0.030380,-0.008158,-0.23,0.29,12.24
277057282,0.013971,-0.000552,-0.002832,-1.40,2.82,10.78
277058290,0.021428,0.021819,-0.006028,-1.74,1.88,10.37
277059328,-0.006269,0.003709,-0.008158,-1.06,0.60,11.06
277060311,-0.055272,-0.015466,-0.010289,-1.34,-0.18,9.78
277061366,0.004384,0.000514,-0.009223,-0.73,-1.20,7.95
277062333,0.053387,0.010101,-0.010289,-1.14,0.13,7.48
277063340,0.011841,0.001579,-0.000701,-0.42,-2.85,9.34
277064350,-0.055272,-0.031445,-0.003897,0.02,-1.79,8.19
277065360,-0.004138,-0.019727,-0.002832,0.59,-3.75,7.14
277066370,0.026755,0.022884,-0.006028,0.69,-1.16,7.46
277067382,0.018232,0.015428,-0.003897,0.36,-1.59,10.08
277068390,-0.051011,-0.011204,-0.001766,1.47,-2.58,8.63
277069427,-0.023314,-0.003748,-0.003897,0.69,-0.20,9.61
277070411,0.049126,0.018623,-0.008158,1.40,-1.24,8.38
277071441,0.038473,0.014362,-0.006028,1.30,0.82,10.72
277072433,-0.043554,-0.019727,-0.009223,1.15,-0.71,11.17
277073440,-0.027575,-0.032510,-0.013485,0.80,1.02,9.72
277074450,0.027820,0.011166,-0.008158,-0.19,1.37,11.44
277075460,0.043799,0.009036,-0.006028,-0.16,2.42,13.19
277076470,-0.019052,-0.001617,0.005691,-0.52,1.83,13.48
277077482,-0.049946,-0.003748,0.004625,-0.35,0.13,11.72
277078490,0.031016,0.022884,-0.000701,-1.55,3.01,10.16
277079528,0.034212,0.032472,-0.004962,-1.85,1.83,9.92
277080511,-0.017987,-0.005878,-0.010289,-0.95,-0.08,11.14
277081541,-0.044619,-0.039967,-0.010289,-1.23,-0.36,9.72
277082533,0.031016,-0.010139,-0.007093,-0.55,-1.50,7.52
277083540,0.069366,0.013297,-0.012419,-0.90,-0.06,7.02
277084550,0.006514,0.011166,-0.004962,-0.25,-3.24,9.30
277085560,-0.077643,-0.020792,-0.006028,0.32,-2.05,8.12
277086570,-0.006269,-0.011204,-0.004962,0.66,-3.40,7.32
277087582,0.036342,0.028211,-0.006028,0.90,-1.25,7.52
277088617,0.018232,0.016493,-0.002832,0.45,-1.37,10.42
277089601,-0.062729,-0.010139,0.002495,1.53,-2.61,8.82
277090610,-0.019052,-0.013335,-0.000701,0.87,0.18,9.11
277091641,0.068301,0.013297,-0.008158,1.43,-1.06,8.54
277092633,0.046995,0.016493,-0.011354,1.23,1.03,11.24
277093640,-0.043554,-0.022923,-0.014550,0.87,-0.29,12.05
277094650,-0.036097,-0.030380,-0.011354,0.72,0.90,10.04
277095660,0.042734,0.010101,-0.010289,-0.49,2.03,11.48
277096677,0.055517,0.014362,-0.010289,-0.54,2.62,13.36
277097691,-0.042489,-0.009074,-0.002832,-0.78,1.83,13.50
277098725,-0.062729,-0.039967,-0.006028,-0.70,0.03,11.62
277099706,0.025689,-0.000552,-0.000701,-1.53,2.87,9.53
277100719,0.049126,0.019689,-0.004962,-1.91,1.65,9.07
277101750,-0.011595,0.004775,0.005691,-1.00,-0.92,10.91
277102741,-0.075512,-0.011204,0.007821,-1.15,-0.62,9.19
277103755,0.021428,0.013297,0.002495,-0.15,-2.36,6.94
277104765,0.055517,0.036733,-0.001766,-0.45,-0.34,6.99
277105772,0.001188,0.011166,-0.001766,-0.24,-3.36,9.42
277106782,-0.068055,-0.029314,-0.001766,0.53,-2.39,8.26
277107789,0.001188,-0.011204,-0.003897,0.77,-2.69,8.01
277108831,0.074692,0.014362,-0.009223,1.30,-1.30,7.63
277109808,0.029951,0.010101,-0.009223,0.70,-0.87,10.53
277110822,-0.073382,-0.029314,-0.013485,1.56,-2.43,9.10
277111854,-0.031836,-0.028249,-0.015615,0.97,0.70,8.90
277112841,0.038473,0.018623,-0.014550,1.31,-0.59,8.90
277113848,0.041669,0.016493,-0.011354,1.08,1.34,11.68
277114855,-0.059533,-0.011204,-0.002832,0.33,0.29,12.98
277115864,-0.044619,-0.034641,-0.007093,0.40,0.82,10.82
277116870,0.042734,0.010101,-0.006028,-0.82,2.93,11.62
277117886,0.048060,0.020754,-0.007093,-0.88,2.48,12.96
277118923,-0.030770,0.000514,0.002495,-1.02,1.49,12.94
277119905,-0.066990,-0.012270,0.003560,-1.09,0.13,11.30
277120912,0.032081,0.017558,-0.000701,-1.35,2.18,8.90
277121944,0.043799,0.033537,-0.003897,-1.75,1.07,7.97
277122933,-0.017987,0.003709,-0.006028,-0.86,-2.15,10.24
277123940,-0.066990,-0.027184,-0.006028,-0.95,-1.05,8.52
277124950,0.031016,-0.000552,-0.008158,0.16,-3.21,6.59
277125960,0.083215,0.020754,-0.008158,0.19,-0.65,7.08
277126970,0.019298,0.004775,-0.009223,0.05,-3.17,9.75
277127982,-0.061664,-0.030380,-0.009223,0.86,-2.66,8.41
277129017,0.000123,-0.009074,-0.007093,0.66,-1.50,8.56
277130001,0.064040,0.019689,-0.010289,1.61,-1.25,7.52
277131010,0.024624,0.013297,-0.009223,1.10,-0.33,10.44
277132041,-0.070186,-0.022923,-0.009223,1.45,-2.13,9.64
277133033,-0.026509,-0.032510,-0.009223,0.93,1.16,9.12
277134040,0.041669,0.002644,-0.012419,0.72,0.51,10.33
277135050,0.039538,0.001579,-0.011354,0.68,2.05,12.65
277136060,-0.056337,-0.012270,-0.002832,-0.19,0.97,13.71
277137070,-0.046750,-0.029314,-0.004962,-0.12,0.49,11.32
277138082,0.036342,0.012232,-0.001766,-1.42,3.52,10.80
277139118,0.043799,0.018623,-0.007093,-1.40,2.38,11.43
277140101,-0.033966,0.004775,0.004625,-1.05,0.82,12.01
277141110,-0.069121,-0.023988,-0.001766,-1.45,-0.39,10.46
277142141,0.028885,0.003709,-0.001766,-1.13,0.33,8.16
277143133,0.054452,0.023950,-0.007093,-1.38,0.71,7.09
277144140,-0.003073,0.007971,0.000364,-0.43,-3.21,9.51
277145150,-0.080839,-0.018661,-0.000701,-0.19,-1.94,7.98
277146160,0.004384,-0.000552,-0.000701,0.51,-3.78,6.64
277147170,0.046995,0.035668,-0.004962,0.69,-0.84,7.37
277148182,-0.082969,-0.011204,0.000364,1.48,-2.86,8.85
277149217,-0.019052,-0.016531,-0.002832,0.76,-0.39,9.03
277150201,0.054452,0.021819,-0.007093,1.55,-1.08,7.88
277151210,0.027820,0.019689,-0.007093,1.35,0.84,10.55
277152241,-0.070186,-0.009074,-0.000701,1.19,-1.04,11.13
277153233,-0.047815,-0.014400,0.001429,0.83,1.02,9.77
277154240,0.051256,0.028211,0.000364,-0.27,1.82,11.58
277155250,0.038473,0.034603,-0.003897,-0.21,2.63,13.59
277156260,-0.052076,0.001579,-0.001766,-0.71,1.88,13.88
277157270,-0.073382,-0.020792,-0.001766,-0.59,0.10,11.56
277158282,0.041669,0.010101,-0.003897,-1.65,3.08,9.57
277159318,0.059778,0.028211,-0.007093,-1.93,1.72,9.23
277160301,-0.014791,0.003709,-0.006028,-0.95,-0.66,11.04
277161310,-0.076578,-0.019727,-0.003897,-1.24,-0.63,9.30
277162341,0.022494,0.009036,-0.001766,-0.25,-2.24,7.19
277163359,0.061909,0.031407,-0.000701,-0.52,-0.32,7.01
277164340,0.006514,0.007971,-0.000701,-0.20,-3.52,9.34
277165350,-0.072316,-0.027184,-0.000701,0.54,-2.27,7.99
277166360,0.003319,-0.008009,-0.002832,0.75,-2.74,7.74
277167370,0.073627,0.023950,-0.006028,1.34,-1.36,7.56
277168382,0.033146,0.015428,-0.007093,0.68,-0.83,10.71
277169417,-0.060598,-0.019727,-0.008158,1.53,-2.31,9.27
277170401,-0.025444,-0.008009,-0.007093,0.95,0.96,9.15
277171410,0.062974,0.027146,-0.010289,1.28,-0.43,9.38
277172441,0.043799,0.023950,-0.013485,1.00,1.58,11.82
277173433,-0.043554,-0.015466,-0.012419,0.12,0.52,13.15
277174440,-0.045684,-0.022923,-0.008158,0.26,0.95,10.97
277175450,0.057648,0.011166,-0.008158,-1.12,3.14,11.35
277176460,0.061909,0.022884,-0.010289,-1.08,2.35,12.46
277177470,-0.017987,-0.005878,-0.012419,-1.08,1.39,12.63
277178511,-0.062729,-0.021857,-0.010289,-1.31,-0.01,11.01
277179491,0.035277,0.011166,-0.008158,-1.30,1.52,8.79
277180500,0.060844,0.030341,-0.010289,-1.58,0.86,7.62
277181510,0.000123,0.003709,-0.013485,-0.61,-2.71,9.88
277182541,-0.063794,-0.028249,-0.011354,-0.63,-1.49,8.09
277183533,0.021428,-0.003748,-0.008158,0.39,-3.72,6.38
277184540,0.071496,0.022884,-0.010289,0.47,-0.79,7.29
277185550,0.021428,0.012232,-0.010289,0.23,-2.64,10.10
277186560,-0.064859,-0.016531,-0.007093,1.25,-2.78,8.49
277187570,-0.011595,0.001579,-0.003897,0.68,-0.86,8.97
