time_us,gyro_x_rad_s,gyro_y_rad_s,gyro_z_rad_s,acc_x_m_s2,acc_y_m_s2,acc_z_m_s2
301628204,0.002922,0.002550,-0.002380,0.00,-0.32,9.80
301628978,0.001854,0.002547,-0.001314,0.00,-0.31,9.84
301629982,-0.000276,0.000416,-0.000248,-0.01,-0.31,9.80
301630994,-0.001340,-0.000649,0.001881,0.01,-0.30,9.78
301632002,-0.003467,-0.000648,0.001879,0.03,-0.28,9.83
301633014,-0.004528,0.000417,0.001877,0.04,-0.30,9.81
301634022,-0.003459,0.001480,0.001875,0.03,-0.31,9.81
301635039,-0.001327,0.000415,0.000809,0.04,-0.31,9.79
301636042,0.000802,-0.000650,-0.000256,0.05,-0.28,9.78
301637054,0.002930,-0.001713,-0.000256,0.08,-0.27,9.81
301638062,0.003991,-0.001712,0.001873,0.07,-0.30,9.85
301639074,0.001859,-0.000646,0.005063,0.03,-0.29,9.89
301640082,-0.000272,0.001483,0.003994,0.02,-0.30,9.82
301641094,-0.001335,0.001482,0.001862,0.02,-0.30,9.79
301642102,-0.000270,0.001480,0.000796,-0.01,-0.29,9.80
301643114,0.000795,-0.001714,0.000795,0.02,-0.28,9.82
301644122,0.000794,-0.003840,-0.000270,0.04,-0.26,9.86
301645139,-0.000271,-0.000644,-0.001334,0.01,-0.26,9.85
301646142,-0.000271,0.001485,-0.000269,0.03,-0.28,9.83
301647154,-0.001335,-0.000645,0.001860,0.05,-0.34,9.79
301648162,-0.003462,-0.002773,0.001858,0.04,-0.36,9.74
301649174,-0.002394,-0.003834,0.000792,0.03,-0.28,9.73
301650182,-0.000263,-0.002766,-0.002401,0.02,-0.26,9.78
301651194,0.001865,-0.000635,-0.003463,0.00,-0.30,9.86
301652202,0.000799,0.001494,-0.003460,0.00,-0.32,9.83
301653214,-0.001330,0.002557,-0.001328,0.02,-0.32,9.77
301654222,-0.001329,0.000426,0.000802,0.02,-0.33,9.77
301655239,-0.000263,-0.001703,0.000801,0.05,-0.32,9.79
301656242,0.001866,-0.001701,0.000800,0.06,-0.30,9.81
301657254,0.001864,-0.001699,0.001864,0.03,-0.29,9.78
301658262,0.000798,0.000431,0.001862,0.04,-0.26,9.78
301659274,-0.001332,0.001495,-0.000268,0.03,-0.28,9.81
301660282,-0.001330,0.001493,-0.001332,0.01,-0.34,9.80
301661294,-0.001329,-0.000637,-0.000267,0.00,-0.35,9.81
301662302,0.001865,-0.001700,-0.000266,0.02,-0.32,9.82
301663342,0.001863,-0.001699,0.000798,0.04,-0.28,9.79
301664348,-0.001331,-0.002761,0.002926,0.03,-0.31,9.79
301665358,-0.003458,-0.001694,0.002923,0.02,-0.32,9.80
301666342,-0.003455,-0.001692,-0.000273,0.03,-0.30,9.80
301667354,-0.004516,-0.000627,-0.001337,0.04,-0.32,9.82
301668368,-0.003447,-0.001690,-0.002400,0.03,-0.31,9.82
301669374,-0.000251,-0.003817,-0.001333,0.02,-0.28,9.79
301670382,0.000814,-0.003813,0.000797,0.04,-0.29,9.77
301671394,-0.000251,0.000448,-0.000268,0.00,-0.31,9.78
301672402,0.000813,0.002576,-0.000268,0.03,-0.32,9.83
301673414,0.002941,0.002573,0.000796,0.03,-0.33,9.81
301674422,0.001873,0.002570,0.001860,0.02,-0.34,9.81
301675439,-0.000257,0.003632,0.001858,0.03,-0.34,9.79
301676442,0.000808,0.002564,0.001856,0.04,-0.33,9.79
301677464,0.000807,0.001497,0.001854,0.01,-0.32,9.81
301678489,0.001870,0.000432,-0.000276,0.00,-0.29,9.79
301679488,0.000804,0.000431,-0.001340,0.01,-0.32,9.81
301680504,-0.000261,0.002559,-0.000274,0.03,-0.35,9.80
301681525,-0.000261,0.002557,0.000790,0.03,-0.34,9.81
301682505,-0.000260,0.001490,0.000789,0.01,-0.34,9.86
301683524,-0.000260,-0.000640,0.000788,0.02,-0.30,9.86
301684534,0.000804,-0.001704,-0.000277,0.02,-0.27,9.86
301685538,0.001868,0.000426,-0.001341,0.03,-0.28,9.85
301686551,0.000802,0.002554,-0.001339,0.03,-0.29,9.77
301687561,0.000801,0.003616,-0.001338,0.04,-0.30,9.75
301688596,0.001864,0.001484,-0.001336,0.05,-0.29,9.82
301689615,0.001862,-0.000646,0.001857,0.01,-0.31,9.83
301690596,-0.001332,-0.002774,0.002920,0.00,-0.33,9.76
301691626,-0.002395,-0.002771,0.002917,-0.01,-0.34,9.76
301692623,-0.001329,-0.000640,0.000786,-0.01,-0.32,9.81
301693650,-0.000263,0.001489,0.000785,0.00,-0.28,9.79
301694632,-0.001327,-0.000641,0.001848,0.01,-0.29,9.78
301695666,-0.002390,-0.000640,0.000782,0.03,-0.31,9.81
301696666,-0.000259,-0.000639,-0.000283,0.03,-0.31,9.84
301697654,-0.000259,-0.001703,-0.002411,0.01,-0.33,9.86
301698708,0.000806,-0.001701,-0.002409,0.02,-0.34,9.83
301699700,0.001869,-0.000635,-0.000278,0.03,-0.31,9.77
301700696,0.002931,0.000430,0.000787,0.03,-0.30,9.78
301701698,0.002928,-0.001699,0.000786,0.05,-0.29,9.85
301702718,0.001861,-0.000633,0.001849,0.04,-0.29,9.82
301703755,0.000795,0.001496,0.001847,0.03,-0.31,9.80
301704778,-0.000270,0.001494,0.001846,0.04,-0.32,9.81
301705745,0.000795,0.000429,-0.000285,0.02,-0.34,9.80
301706769,-0.000270,0.000428,-0.001349,0.02,-0.33,9.84
301707802,-0.000270,0.001492,-0.000283,0.03,-0.30,9.85
301708771,0.000794,0.001490,-0.000283,0.05,-0.29,9.82
301709782,-0.000271,0.001489,-0.000283,0.04,-0.30,9.80
301710786,-0.000270,0.001487,0.000782,0.04,-0.31,9.81
301711794,-0.000270,0.001486,0.000781,0.04,-0.30,9.82
301712805,0.000794,0.002549,0.001845,0.03,-0.29,9.77
301713818,-0.001335,0.001482,0.001843,0.02,-0.30,9.74
301714832,-0.002398,-0.000648,0.001841,0.02,-0.32,9.78
301715861,-0.001331,-0.000647,0.000775,0.05,-0.35,9.76
301716850,-0.000265,0.001482,0.000774,0.05,-0.33,9.82
301717854,0.000799,0.001480,0.002902,0.01,-0.33,9.86
301718862,0.002927,-0.000650,0.002899,0.03,-0.34,9.79
301719874,0.001860,-0.002778,0.000767,0.04,-0.32,9.81
301720882,0.000793,-0.001711,-0.001362,0.03,-0.31,9.83
301721894,0.001857,0.000420,-0.000296,0.03,-0.31,9.80
301722902,0.005048,-0.000645,0.001833,0.02,-0.30,9.84
301723914,0.005042,-0.002773,0.001831,0.04,-0.29,9.84
301724928,0.002909,-0.003834,0.000765,0.02,-0.30,9.79
301725934,-0.000287,-0.003830,-0.000300,0.03,-0.31,9.81
301726976,-0.000286,-0.001698,-0.000300,0.05,-0.30,9.78
301727962,0.000778,0.000432,0.000764,0.04,-0.27,9.76
301728962,0.000777,-0.001697,0.000764,0.00,-0.27,9.81
301729974,0.000777,-0.004888,-0.000301,-0.02,-0.28,9.81
301730982,-0.000288,-0.004883,-0.001365,-0.02,-0.29,9.81
301731994,0.000776,-0.003814,-0.000300,0.01,-0.29,9.84
301733002,0.000775,-0.000617,0.001829,0.04,-0.30,9.87
301734014,0.000775,0.002576,0.001827,0.02,-0.33,9.83
301735028,0.000774,0.003638,0.000761,0.00,-0.28,9.82
301736034,-0.001355,0.001506,0.001825,-0.02,-0.28,9.84
301737042,-0.002418,0.000440,0.001823,-0.05,-0.31,9.79
301738054,-0.001352,0.000439,0.001821,0.00,-0.29,9.74
301739062,0.000778,0.001503,0.000755,0.03,-0.29,9.76
301740074,-0.000287,0.000437,-0.000310,0.02,-0.32,9.78
301741082,-0.000287,-0.001691,-0.002438,0.00,-0.30,9.81
301742094,-0.001350,-0.001690,-0.001372,0.00,-0.29,9.86
301743102,-0.001349,0.001505,-0.000306,0.04,-0.29,9.86
301744114,-0.001348,0.002567,0.001823,0.04,-0.28,9.84
301745128,-0.002411,0.003629,0.001821,0.00,-0.29,9.84
301746134,-0.002408,0.003625,-0.001373,0.01,-0.30,9.84
301747142,-0.001341,0.001493,-0.004565,0.04,-0.30,9.82
301748154,-0.000276,0.001492,-0.004560,0.04,-0.31,9.82
301749162,0.000789,0.001490,-0.000299,0.03,-0.34,9.83
301750174,0.002916,-0.000640,0.002894,0.04,-0.32,9.82
301751182,0.000785,-0.000639,0.001827,0.04,-0.28,9.81
301752194,-0.001344,-0.000639,-0.000303,-0.01,-0.28,9.82
301753202,-0.002407,0.000426,-0.002431,-0.01,-0.29,9.85
301754214,-0.003469,0.000426,-0.000300,0.00,-0.31,9.85
301755228,-0.002401,0.001490,0.000764,0.01,-0.30,9.82
301756234,0.000794,0.002552,-0.000301,0.00,-0.30,9.81
301757242,0.003986,0.002550,-0.002429,0.03,-0.30,9.82
301758254,0.006110,0.000419,-0.002427,0.04,-0.29,9.79
301759262,0.003975,-0.000646,-0.002424,0.01,-0.29,9.78
301760274,-0.001350,-0.002774,-0.002422,0.01,-0.31,9.78
301761282,-0.003477,-0.001707,-0.001355,0.03,-0.30,9.78
301762294,0.000784,-0.000641,-0.001354,0.04,-0.29,9.80
301763302,0.002911,-0.000640,-0.000288,0.02,-0.29,9.78
301764314,0.001844,-0.000639,0.001841,0.03,-0.29,9.79
301765328,-0.000286,0.001490,0.000775,0.01,-0.32,9.84
301766334,-0.002414,0.001488,-0.000290,0.00,-0.32,9.86
301767342,-0.002412,-0.000642,-0.001354,0.03,-0.29,9.83
301768354,-0.000281,-0.001705,-0.000289,0.04,-0.31,9.79
301769362,-0.000281,-0.001704,-0.000288,0.01,-0.33,9.77
301770374,0.000784,-0.000638,-0.000288,0.02,-0.34,9.76
301771382,0.000783,-0.001701,0.000776,0.03,-0.33,9.80
301772394,0.000782,-0.000635,0.001840,0.02,-0.33,9.89
301773402,0.000781,0.000430,-0.000291,0.01,-0.32,9.86
301774414,0.000781,0.000429,-0.001354,0.04,-0.32,9.78
301775428,0.001844,0.000429,-0.001353,0.03,-0.34,9.84
301776434,0.002906,0.000428,-0.001352,0.00,-0.33,9.84
301777442,0.000775,-0.002765,-0.000286,-0.01,-0.32,9.81
301778454,-0.001354,-0.002762,0.001843,0.02,-0.31,9.83
301779462,-0.001353,0.000433,0.001841,0.01,-0.31,9.87
301780474,-0.001351,0.003626,0.002903,0.00,-0.35,9.82
301781482,-0.003479,0.002558,0.002900,-0.01,-0.32,9.82
301782494,-0.004539,0.001491,0.002897,-0.01,-0.27,9.87
301783502,-0.005599,0.002554,0.000766,0.04,-0.30,9.83
301784519,-0.004529,0.003615,0.001829,0.05,-0.31,9.82
301785522,-0.002396,0.000419,0.002892,0.04,-0.32,9.80
301786534,-0.000265,-0.001710,0.002889,0.03,-0.32,9.80
301787542,-0.000265,-0.001708,0.001822,0.02,-0.27,9.80
301788554,0.000800,-0.000642,-0.000309,0.06,-0.27,9.80
301789562,-0.000265,0.001487,-0.001373,0.04,-0.28,9.84
301790574,-0.001329,0.000421,-0.001371,0.01,-0.29,9.86
301791583,-0.001328,-0.001708,0.000759,0.00,-0.33,9.82
301792594,-0.001327,-0.000642,0.000758,0.01,-0.34,9.78
301793607,-0.002390,0.001487,-0.000307,0.00,-0.29,9.81
301794625,-0.002387,0.002550,-0.000307,-0.02,-0.27,9.81
301795631,-0.003449,0.001483,0.001822,-0.01,-0.27,9.84
301796637,-0.002381,0.000418,0.002884,0.04,-0.29,9.81
301797646,-0.000250,0.000417,0.001817,0.08,-0.31,9.80
301798662,0.000814,0.002545,0.002880,0.03,-0.27,9.82
301799670,0.001877,0.002543,0.001812,0.01,-0.30,9.79
301800683,-0.000253,0.001476,0.000746,0.03,-0.33,9.79
301801690,-0.002381,-0.000654,-0.000319,0.03,-0.34,9.85
301802703,-0.002379,-0.001718,-0.001382,0.04,-0.34,9.89
301803708,-0.003440,-0.001716,-0.002445,0.00,-0.31,9.82
301804731,-0.003437,0.000414,-0.002443,0.01,-0.28,9.80
301805733,-0.000241,0.001478,-0.002440,0.04,-0.30,9.83
301806745,0.002952,-0.000652,-0.002438,0.02,-0.32,9.80
301807750,0.002949,-0.002780,-0.001371,0.04,-0.32,9.82
301808764,0.000818,-0.002777,0.000759,0.04,-0.32,9.84
301809769,-0.000247,-0.001710,0.001822,0.01,-0.30,9.81
301810779,-0.000247,-0.000644,0.000756,0.02,-0.27,9.81
301811786,-0.000247,0.000421,-0.000309,0.01,-0.28,9.82
301812794,-0.000247,0.001485,-0.000309,0.01,-0.36,9.82
301813805,-0.001311,0.002547,-0.001373,0.04,-0.34,9.85
301814824,-0.003438,0.002545,-0.002435,0.03,-0.29,9.85
301815826,-0.005563,-0.000650,-0.001369,0.03,-0.28,9.83
301816837,-0.003429,-0.003842,-0.000303,0.04,-0.30,9.85
301817845,-0.000232,-0.004903,0.001826,0.02,-0.31,9.83
301818854,-0.000232,-0.004898,0.002888,0.01,-0.33,9.80
301819869,-0.000232,-0.002764,0.001821,0.02,-0.31,9.83
301820874,0.001897,-0.002762,-0.000309,0.05,-0.32,9.86
301821882,0.002959,0.000434,-0.003502,0.05,-0.35,9.85
301822894,0.000828,0.002562,-0.004562,0.04,-0.33,9.84
301823902,0.000827,0.000431,-0.003494,0.05,-0.33,9.83
301824919,-0.000238,-0.001698,-0.003490,0.06,-0.30,9.85
301825922,-0.003431,-0.001696,-0.003486,0.05,-0.27,9.86
301826934,-0.003427,-0.000630,0.000774,0.03,-0.31,9.86
301827942,-0.000231,0.000434,0.002901,0.02,-0.33,9.83
301828954,0.000833,-0.000630,0.001834,0.04,-0.29,9.78
301829962,0.001897,-0.001694,-0.001360,0.02,-0.27,9.80
301830974,0.001895,-0.000628,-0.001359,0.03,-0.29,9.84
301831982,-0.000236,0.000437,-0.000293,0.06,-0.32,9.79
301832994,-0.000235,0.000437,0.001836,0.08,-0.33,9.77
301834002,0.000829,-0.000628,0.002898,0.06,-0.30,9.75
301835019,0.000828,0.000437,0.001831,0.02,-0.28,9.74
301836022,0.001892,0.000436,-0.002428,0.03,-0.29,9.80
301837034,0.002954,0.000436,-0.003490,0.05,-0.32,9.82
301838042,0.002951,0.000435,-0.001358,0.05,-0.34,9.79
301839054,0.000820,-0.000629,-0.001356,0.01,-0.32,9.77
301840062,0.001883,-0.002757,-0.002419,0.00,-0.30,9.74
301841074,0.001881,-0.003818,-0.002417,-0.02,-0.28,9.74
301842082,0.000815,-0.001686,-0.003479,0.02,-0.25,9.76
301843094,-0.000250,0.002572,-0.003475,0.05,-0.27,9.79
301844102,-0.001314,0.002570,-0.002407,0.04,-0.32,9.82
301845119,0.000816,0.002567,-0.001341,0.05,-0.33,9.81
301846122,0.001879,0.002565,-0.000275,0.05,-0.28,9.79
301847134,0.001877,0.002562,-0.001339,0.05,-0.28,9.83
301848142,0.000811,-0.000633,-0.003466,0.04,-0.30,9.82
301849154,-0.000254,-0.004889,-0.003463,0.01,-0.28,9.71
301850162,0.000810,-0.002756,-0.003459,0.01,-0.28,9.75
301851174,-0.000255,0.001504,-0.003456,0.03,-0.33,9.82
301852182,-0.003447,0.003630,-0.004516,0.03,-0.34,9.79
301853194,-0.002379,0.003627,-0.003448,-0.01,-0.29,9.77
301854202,-0.000248,0.002559,-0.000251,-0.03,-0.30,9.79
301855219,0.001880,0.002556,0.000813,0.01,-0.31,9.78
301856222,0.002943,0.000425,-0.001316,0.04,-0.31,9.78
301857234,0.002940,0.000425,-0.001315,0.04,-0.30,9.76
301858242,0.001872,0.000424,0.000815,0.03,-0.32,9.78
301859254,0.000806,0.000424,0.000814,0.04,-0.34,9.81
301860262,-0.001323,0.002552,-0.001315,0.04,-0.31,9.78
301861274,-0.001322,0.002549,-0.002378,0.02,-0.28,9.76
301862282,0.000808,0.000418,-0.004504,0.01,-0.26,9.78
301863294,0.001872,0.001482,-0.004500,0.02,-0.27,9.84
301864302,0.001870,0.002545,-0.002367,0.03,-0.31,9.79
301865319,0.002932,0.002542,0.001893,0.01,-0.32,9.74
301866322,-0.000264,0.000411,0.004019,0.01,-0.33,9.78
301867334,-0.003456,-0.001717,0.002951,-0.01,-0.31,9.83
301868342,-0.002388,-0.000652,0.000819,-0.02,-0.28,9.83
301869354,0.000807,0.001478,-0.001310,-0.01,-0.28,9.81
301870362,0.000806,0.000412,-0.001308,0.01,-0.34,9.79
301871374,0.001869,-0.001717,-0.000243,-0.01,-0.32,9.77
301872382,-0.000261,-0.002779,0.000822,0.03,-0.34,9.81
301873394,-0.001325,-0.001712,-0.001308,0.04,-0.30,9.85
301874402,-0.002388,-0.001711,-0.002371,0.01,-0.32,9.85
301875419,-0.001321,-0.001709,-0.000240,0.03,-0.32,9.82
301876422,0.000809,-0.000643,0.000825,0.04,-0.31,9.79
301877434,0.000808,0.000422,-0.000240,0.05,-0.33,9.80
301878442,0.000807,0.000421,0.000824,0.05,-0.31,9.81
301879454,-0.000258,-0.000643,0.000823,0.07,-0.30,9.77
301880462,-0.000258,-0.002771,0.000822,0.05,-0.31,9.78
301881474,-0.001322,-0.001704,-0.000243,0.00,-0.31,9.82
301882482,-0.002385,-0.001702,-0.001307,-0.02,-0.30,9.80
301883494,-0.000254,0.000428,-0.000241,0.00,-0.31,9.79
301884508,0.001875,0.000427,0.001888,0.04,-0.32,9.81
301885514,0.002937,0.000427,0.002950,0.06,-0.30,9.80
301886522,0.001870,-0.000638,0.000818,0.05,-0.30,9.81
301887534,0.000804,-0.000637,-0.000247,0.05,-0.28,9.79
301888542,0.000803,-0.000636,-0.001311,0.05,-0.28,9.79
301889554,-0.000262,0.000428,-0.002373,0.05,-0.29,9.81
301890562,-0.002390,-0.000636,-0.003435,0.00,-0.29,9.80
301891574,-0.001323,-0.002764,-0.001303,-0.01,-0.29,9.81
301892583,-0.000258,-0.003825,0.002955,0.01,-0.29,9.80
301893594,-0.000258,-0.001693,0.004016,0.01,-0.28,9.83
301894614,-0.000257,0.001501,0.001884,0.01,-0.29,9.84
301895618,0.000807,0.001500,-0.002375,-0.01,-0.30,9.79
301896631,-0.000258,0.000434,-0.002373,0.02,-0.29,9.84
301897643,-0.001322,-0.001695,-0.002370,0.02,-0.29,9.86
301898646,-0.000256,-0.003822,-0.001304,0.00,-0.28,9.83
301899662,-0.001320,-0.003818,-0.001302,0.00,-0.31,9.88
301900671,-0.002383,-0.001685,-0.002365,0.00,-0.33,9.84
301901682,-0.002381,-0.000619,-0.003427,0.00,-0.31,9.78
301902689,-0.000250,0.000445,-0.001295,0.04,-0.31,9.81
301903703,0.000815,0.000445,0.000834,0.04,-0.31,9.82
301904719,0.001878,-0.000620,0.000834,0.02,-0.32,9.82
301905730,0.000812,-0.000619,-0.001296,0.01,-0.31,9.83
301906737,-0.001317,0.001510,-0.002359,0.01,-0.30,9.81
301907746,0.000812,0.003637,-0.000228,-0.01,-0.33,9.79
301908752,0.000811,0.003633,0.002965,-0.01,-0.33,9.85
301909766,0.001875,0.003629,0.002962,0.03,-0.34,9.87
301910769,0.001873,0.000433,0.002959,0.04,-0.32,9.84
301911780,-0.001322,-0.001696,0.001892,0.04,-0.32,9.82
301912825,-0.003449,-0.000630,0.000826,0.03,-0.32,9.83
301913854,-0.004509,0.001499,-0.001303,0.00,-0.30,9.82
301914870,-0.004505,0.001498,-0.001302,0.04,-0.32,9.79
301915826,-0.003436,-0.000632,-0.001301,0.04,-0.30,9.80
301916869,-0.001304,-0.001696,0.000829,0.01,-0.31,9.79
301917838,0.000826,-0.000630,0.000828,0.01,-0.32,9.76
301918846,0.001889,0.000435,-0.001301,0.02,-0.32,9.78
301919855,0.001887,0.000434,-0.000236,0.01,-0.32,9.85
301920864,0.001885,0.000434,0.000829,0.03,-0.31,9.84
301921878,0.000819,-0.001695,-0.000236,0.02,-0.33,9.81
301922884,-0.001310,-0.001693,-0.002364,0.03,-0.35,9.82
301923895,-0.002373,-0.001691,-0.003426,0.03,-0.30,9.79
301924915,-0.002370,-0.002754,-0.001294,0.01,-0.28,9.76
301925916,-0.000240,-0.003815,0.000835,0.02,-0.34,9.78
301926924,0.001889,-0.003811,0.000835,0.03,-0.34,9.80
301927935,0.000823,-0.001679,-0.000230,0.02,-0.28,9.78
301928944,-0.001306,-0.001677,-0.001294,0.01,-0.26,9.78
301929955,-0.002369,-0.002740,-0.001293,0.04,-0.28,9.81
301930964,-0.001303,-0.000609,0.000837,0.05,-0.29,9.82
301932020,-0.000237,-0.000608,0.000836,0.05,-0.28,9.82
301933021,0.000827,-0.000608,-0.002358,0.07,-0.28,9.81
301934036,0.000827,-0.000607,-0.005548,0.05,-0.28,9.79
301935070,0.000826,-0.001671,-0.004478,0.02,-0.28,9.77
301936043,0.001889,-0.001669,-0.000217,-0.01,-0.29,9.80
301937038,0.002951,-0.001667,0.002976,0.03,-0.29,9.83
301938036,-0.000244,-0.000601,0.002973,0.03,-0.27,9.81
301939049,-0.001308,0.001528,0.001906,0.01,-0.30,9.79
301940058,-0.000243,0.003655,0.001904,0.00,-0.31,9.82
301941069,0.001886,0.003651,0.001902,0.00,-0.30,9.84
301942096,0.001884,0.003647,0.000836,0.00,-0.29,9.84
301943122,0.000818,0.001515,-0.002357,-0.01,-0.30,9.81
301944138,0.000817,-0.000615,-0.003419,0.01,-0.28,9.80
301945155,-0.001312,-0.001678,-0.001287,0.01,-0.26,9.83
301946149,-0.001311,-0.001677,0.000843,0.01,-0.30,9.83
301947147,-0.001309,0.000453,0.004034,0.02,-0.31,9.77
301948135,-0.001308,0.000453,0.005095,0.00,-0.29,9.76
301949159,-0.001307,0.000452,0.004025,0.03,-0.27,9.85
301950155,0.000823,0.001516,0.001893,0.04,-0.29,9.86
301951179,0.002951,0.000450,-0.000238,0.02,-0.33,9.82
301952209,-0.000245,-0.000614,-0.001302,0.04,-0.32,9.78
301953184,-0.001309,0.000451,-0.002364,0.06,-0.30,9.79
301954195,-0.001308,0.000450,-0.001298,0.03,-0.32,9.86
301955215,-0.001306,-0.000614,-0.000232,0.05,-0.32,9.86
301956216,-0.001305,-0.000614,-0.001296,0.07,-0.29,9.82
301957224,-0.002368,0.000451,-0.002359,0.06,-0.32,9.82
301958235,-0.000237,0.001515,-0.000228,0.06,-0.35,9.81
301959268,0.000827,0.001513,0.002964,0.05,-0.32,9.80
301960264,0.000826,0.002576,0.001897,0.02,-0.29,9.80
301961298,-0.000239,0.003638,0.000831,0.04,-0.28,9.84
301962296,-0.000238,0.002570,-0.000234,0.04,-0.28,9.83
301963284,0.001890,-0.000626,0.000831,0.05,-0.29,9.82
301964295,0.002953,-0.001689,0.001894,0.06,-0.31,9.83
301965315,0.001885,-0.002752,0.002956,0.04,-0.32,9.83
301966316,-0.000245,-0.003813,0.002953,0.01,-0.33,9.81
301967324,-0.001309,-0.003809,0.001886,0.02,-0.35,9.73
301968358,-0.000243,-0.002741,0.000820,0.03,-0.31,9.82
301969344,-0.000243,-0.002738,0.000819,0.03,-0.31,9.82
301970355,0.001886,-0.001672,-0.001310,0.05,-0.32,9.79
301971364,-0.002373,-0.000606,0.000820,0.02,-0.34,9.82
301972375,-0.004499,-0.000605,0.000819,-0.01,-0.32,9.85
301973384,-0.004495,-0.000604,-0.000246,0.01,-0.29,9.81
301974395,-0.003426,-0.000604,-0.000246,0.01,-0.28,9.83
301975415,-0.002358,0.000461,-0.000246,0.01,-0.32,9.86
301976416,-0.002356,-0.000604,-0.001310,0.01,-0.35,9.82
301977424,-0.002353,-0.000603,-0.002373,0.00,-0.35,9.80
301978435,-0.001287,0.000462,-0.001306,0.00,-0.32,9.78
301979444,0.000843,0.001526,-0.000241,0.01,-0.30,9.83
301980455,0.000842,0.002588,-0.001305,0.03,-0.31,9.83
301981464,-0.001287,0.001521,-0.002367,0.04,-0.31,9.80
301982475,-0.004479,0.000456,-0.001301,0.03,-0.29,9.79
301983484,-0.005538,-0.002737,-0.000235,0.02,-0.28,9.80
301984495,-0.003404,-0.005927,-0.000235,0.01,-0.30,9.80
301985515,0.000856,-0.004857,-0.000235,0.01,-0.33,9.80
301986516,0.004048,-0.001660,-0.000235,0.02,-0.30,9.78
301987524,0.005108,0.000471,-0.000234,0.00,-0.31,9.82
301988535,0.001910,0.001534,-0.000234,0.01,-0.32,9.83
301989544,-0.002349,0.001533,-0.001298,0.03,-0.28,9.77
301990555,-0.002346,0.000467,-0.001297,0.04,-0.30,9.75
301991564,-0.001280,-0.000598,-0.000231,0.06,-0.32,9.81
301992575,-0.000214,0.000467,0.001897,0.05,-0.33,9.85
301993587,0.000850,0.001531,0.001895,0.01,-0.33,9.88
301994603,0.000849,0.003658,0.001894,0.02,-0.32,9.87
301995615,0.000849,0.002590,0.001892,0.02,-0.30,9.80
301996619,0.001912,-0.001670,0.000826,0.01,-0.32,9.80
301997632,0.004038,-0.002732,-0.002368,0.04,-0.34,9.81
301998639,0.005099,-0.000601,-0.002366,0.04,-0.33,9.80
301999651,0.002965,0.000464,-0.000235,-0.03,-0.32,9.82
302000661,0.000834,0.001527,-0.000235,-0.03,-0.31,9.80
302001675,0.001897,0.001526,-0.001298,0.03,-0.28,9.82
302002684,0.002959,0.001524,-0.002361,0.02,-0.28,9.81
302003692,0.004020,0.001523,-0.001295,0.04,-0.29,9.78
302004708,0.004016,0.000457,0.000835,0.07,-0.30,9.82
302005723,0.001884,-0.000608,-0.000230,0.03,-0.30,9.78
302006721,-0.000246,0.000457,-0.002358,0.02,-0.29,9.75
302007733,0.000818,0.001521,-0.002356,0.00,-0.30,9.78
302008743,0.001881,-0.000609,-0.000225,-0.01,-0.32,9.82
302009752,0.001880,-0.002737,-0.000225,0.01,-0.33,9.79
302010766,0.000813,-0.002734,-0.000225,0.03,-0.31,9.77
302011771,-0.002380,0.000461,-0.000224,0.04,-0.32,9.82
302012780,-0.002378,0.001525,-0.000224,0.02,-0.32,9.82
302013787,-0.002375,0.000459,-0.000224,0.01,-0.29,9.83
302014804,-0.001309,-0.000605,-0.000224,0.02,-0.30,9.88
302015813,-0.001307,0.000460,-0.000224,0.01,-0.30,9.87
302016827,0.000822,0.001523,-0.000223,0.01,-0.34,9.84
302017827,0.000822,-0.000607,-0.001287,0.02,-0.35,9.85
302018838,0.000821,-0.001670,-0.000222,0.01,-0.32,9.83
302019846,0.001884,0.001524,0.001907,0.00,-0.31,9.78
302020855,0.004011,0.003651,0.001905,0.01,-0.29,9.81
302021864,0.005071,0.002583,0.000839,0.01,-0.28,9.82
302022875,0.002937,-0.001676,-0.000226,0.02,-0.28,9.81
302023884,0.002934,-0.003803,-0.001290,0.03,-0.29,9.86
302024907,0.002931,-0.001671,-0.000225,0.04,-0.29,9.87
302025905,0.000800,-0.000605,-0.000224,0.03,-0.31,9.83
302026915,-0.001329,-0.001669,-0.000224,0.04,-0.32,9.84
302027924,-0.000264,-0.003795,-0.000224,0.03,-0.31,9.84
302028935,0.000801,-0.003791,-0.000224,0.03,-0.31,9.83
302029944,0.000800,-0.004852,-0.000224,0.04,-0.31,9.82
302030955,-0.000265,-0.003783,0.000841,0.04,-0.31,9.81
302031964,-0.002393,-0.000586,0.001904,0.07,-0.32,9.80
302032975,-0.001327,0.000479,0.002966,0.03,-0.31,9.79
302034010,0.000803,0.001542,0.002963,0.00,-0.28,9.83
302035068,0.001867,0.004733,-0.001296,-0.01,-0.31,9.84
302036005,0.001865,0.004728,-0.002359,-0.04,-0.32,9.82
302037015,-0.000266,0.002595,-0.001293,-0.03,-0.29,9.82
302038024,0.000799,0.000464,-0.000227,-0.01,-0.28,9.79
302039035,0.000798,0.001528,-0.001291,0.00,-0.28,9.81
302040067,-0.000267,0.002591,-0.002354,0.03,-0.28,9.81
302041055,-0.001331,0.002588,-0.001287,0.02,-0.30,9.76
302042064,-0.003458,0.000457,0.001907,0.02,-0.30,9.75
302043075,-0.003455,0.000456,0.001905,0.03,-0.30,9.78
302044084,-0.001323,0.001520,-0.000226,0.02,-0.30,9.78
302045107,0.000807,0.001519,-0.000225,0.03,-0.33,9.77
302046105,-0.001322,0.002581,-0.001289,0.05,-0.33,9.82
302047115,-0.002385,0.001514,-0.001288,0.04,-0.29,9.83
302048124,-0.001319,0.001513,0.000842,-0.01,-0.32,9.80
302049135,-0.001317,0.001511,0.001905,-0.01,-0.30,9.79
302050144,-0.001316,0.000446,0.002967,0.04,-0.30,9.80
302051155,-0.001315,-0.000619,0.000836,0.01,-0.33,9.81
302052164,-0.000249,0.002574,-0.001293,-0.01,-0.30,9.82
302053203,0.000815,0.003636,-0.001292,0.01,-0.27,9.82
302054337,-0.000250,0.001504,-0.000227,0.04,-0.27,9.81
302055170,0.000816,0.000438,-0.001292,0.04,-0.29,9.79
302056171,-0.014098,0.002569,-0.002357,0.00,-0.35,9.86
302057181,-0.039665,-0.001692,-0.006618,0.00,-0.28,9.90
302058191,-0.025816,-0.003823,-0.009814,0.03,-0.37,9.80
302059201,-0.008772,-0.000627,-0.010879,0.08,-0.52,9.81
302060211,0.000816,-0.000627,-0.011945,0.16,-0.40,9.86
302061221,-0.002380,0.005765,-0.014075,0.11,-0.29,9.80
302062231,-0.003445,0.011091,-0.016206,0.11,-0.08,9.83
302063241,0.007207,0.003634,-0.022597,-0.05,0.22,9.83
302064251,0.001881,-0.001692,-0.028989,-0.34,-0.25,9.77
302065269,0.009338,-0.003823,-0.022597,-0.20,-0.75,9.83
302066273,0.022121,-0.004888,-0.006618,0.25,-0.59,9.90
302067282,0.013599,-0.005953,0.011492,0.52,-0.06,9.90
302068290,-0.013033,0.003634,0.008296,-0.01,0.43,9.93
302069302,-0.018359,0.008961,-0.006618,-0.55,-0.72,9.61
302070310,0.016795,-0.010214,0.015753,0.45,0.70,10.27
302071322,-0.015163,0.007895,0.018949,0.06,-0.20,10.40
302072330,-0.018359,0.018548,0.013622,-0.01,-1.34,9.27
302073342,0.025317,-0.010214,0.013622,-0.15,0.69,9.36
302074350,0.008273,-0.009149,0.017883,-0.06,-0.32,10.11
302075368,-0.036469,0.026005,0.017883,0.19,-1.41,9.60
302076373,0.005077,0.002569,0.009361,-0.26,1.09,9.97
302077382,0.025317,-0.004888,0.004035,0.57,-1.18,9.95
302078390,-0.030077,0.033462,0.007230,-0.42,-0.22,9.30
302079402,-0.018359,0.007895,-0.000227,-0.10,0.19,10.53
302080410,0.015730,-0.011280,-0.002357,0.85,-1.04,9.11
302081422,0.007207,0.021744,-0.003422,-0.69,0.26,10.43
302082430,-0.026882,0.006830,-0.000227,0.33,-0.50,9.75
302083442,-0.021555,-0.029389,-0.009814,-0.03,-0.39,8.73
302084450,0.012534,-0.035781,-0.003422,-0.40,0.10,10.56
302085468,0.014664,-0.004888,-0.007684,0.33,-0.11,9.64
302086473,0.006142,-0.018737,-0.000227,0.14,-0.57,10.21
302087482,-0.011968,0.006830,-0.007684,-0.29,-0.59,9.90
302088490,-0.002380,0.011091,-0.002357,0.12,0.17,9.97
302089502,-0.001315,-0.002757,-0.004488,0.64,-0.84,9.90
302090510,-0.008772,-0.010214,0.004035,-0.48,-0.36,9.55
302091522,-0.008772,-0.001692,-0.002357,-0.15,0.10,9.25
302092530,0.015730,-0.001692,0.000839,0.44,-1.06,9.91
302093542,0.007207,-0.005953,-0.001292,-0.20,0.79,9.81
302094550,-0.007707,-0.011280,0.001904,0.24,-1.36,10.04
302095568,-0.002380,-0.010214,0.004035,0.14,-0.15,10.39
302096573,-0.005576,-0.001692,0.002969,-0.67,0.47,9.11
302097582,0.008273,0.016418,0.000839,0.52,-1.47,10.89
302098594,0.018926,0.012156,0.002969,-0.25,0.34,9.11
302099604,0.015730,0.014287,0.004035,-0.09,-0.23,9.08
302100618,0.012534,0.024940,0.004035,0.82,-0.77,11.28
302101627,-0.019425,0.027070,-0.000227,-0.64,-0.26,7.96
302102636,-0.026882,0.008961,-0.006618,0.05,0.44,9.47
302103651,-0.018359,-0.013410,-0.006618,0.87,-0.72,11.86
302104658,-0.018359,-0.005953,-0.010879,-0.05,-1.21,8.32
302105678,-0.005576,0.002569,-0.013010,-0.80,1.09,9.61
302106682,0.010403,0.000438,-0.014075,0.79,-0.49,11.97
302107689,0.015730,0.003634,-0.007684,0.58,-2.21,9.26
302108700,0.012534,0.007895,-0.006618,-1.21,0.40,8.44
302109709,-0.003445,0.010026,-0.004488,-0.06,0.90,10.26
302110712,-0.026882,0.013222,0.000839,0.99,-1.28,11.05
302111734,-0.031143,0.012156,0.009361,-0.31,-1.79,8.48
302112737,-0.009837,0.014287,0.014687,-1.31,1.08,8.47
302113747,0.001881,0.013222,0.017883,0.09,1.21,10.96
302114761,0.006142,0.012156,0.018949,0.89,-1.27,11.44
302115767,-0.005576,0.010026,0.017883,-0.17,-1.96,8.96
302116776,-0.022620,0.004700,0.021079,-0.79,0.68,8.45
302117785,-0.010902,0.001504,0.015753,-0.05,1.93,11.16
302118794,0.008273,-0.009149,0.014687,1.14,-0.51,10.68
302119804,0.017860,-0.001692,0.012557,0.57,-2.29,9.49
302120813,0.019991,0.022809,0.010426,-0.69,-1.75,7.63
302121821,0.006142,0.010026,0.012557,-0.72,2.04,8.69
302122831,0.010403,0.003634,0.012557,0.06,2.80,11.58
302123841,0.011469,-0.002757,0.011492,1.16,-1.34,10.77
302124857,0.008273,-0.010214,0.007230,1.27,-4.30,9.75
302125864,0.014664,-0.000627,0.004035,-0.32,-2.16,8.06
302126892,0.017860,-0.002757,0.001904,-1.06,2.34,8.72
302127881,0.033839,0.000438,-0.004488,-0.40,4.15,11.46
302128891,0.030644,-0.007019,-0.007684,0.88,0.32,11.73
302129901,0.008273,-0.014476,-0.006618,1.38,-4.05,11.11
302130911,0.007207,0.002569,-0.001292,0.39,-5.90,8.29
302131921,0.001881,0.014287,0.004035,-0.50,-1.47,7.06
302132931,-0.009837,0.017483,0.001904,-0.82,5.62,9.74
302133941,-0.001315,0.001504,0.001904,0.01,5.96,11.48
302134957,0.012534,-0.020867,0.000839,0.91,0.23,11.08
302135964,0.010403,-0.019802,0.005100,1.16,-5.44,9.88
302136980,0.031709,-0.003823,0.015753,0.93,-6.19,9.24
302137981,0.037035,0.014287,0.018949,0.22,-3.80,7.90
302138991,0.000816,0.023875,0.013622,-0.67,1.14,8.31
302140001,-0.013033,0.022809,0.013622,-0.65,6.26,10.75
302141011,-0.014098,0.018548,0.012557,0.19,6.46,11.70
302142021,-0.020490,0.012156,0.008296,0.51,1.66,11.11
302143031,-0.018359,-0.005953,0.006165,0.58,-3.22,10.33
302144041,0.011469,-0.009149,0.010426,0.53,-5.26,9.99
302145057,0.000816,-0.000627,0.014687,0.52,-5.30,9.13
302146064,0.004012,-0.015541,0.010426,0.33,-3.55,7.84
302147071,0.024252,-0.010214,0.008296,0.26,0.00,8.09
302148081,0.037035,0.035593,0.013622,0.07,4.29,9.96
302149091,0.014664,0.065421,0.014687,-0.17,6.20,11.05
302150101,-0.029012,0.052637,0.011492,0.01,4.82,10.94
302151111,-0.046057,0.034527,0.010426,0.12,1.56,10.11
302152121,-0.005576,0.021744,0.014687,0.20,-1.76,9.58
302153131,0.030644,-0.000627,0.014687,0.06,-3.66,9.93
302154141,0.008273,-0.015541,0.010426,0.00,-4.37,10.32
302155157,-0.025816,-0.000627,0.010426,0.10,-4.04,9.88
302156164,-0.010902,-0.002757,0.011492,0.30,-3.16,8.91
302157171,-0.016229,-0.002757,0.013622,0.62,-1.56,8.77
302158181,-0.006641,-0.009149,0.013622,0.72,0.72,9.68
302159191,-0.018359,0.003634,0.016818,0.65,3.02,10.59
302160201,-0.022620,0.017483,0.020014,0.27,4.42,10.87
302161211,-0.030077,0.002569,0.017883,-0.15,4.15,10.47
302162221,-0.013033,-0.013410,0.024275,-0.31,2.81,9.86
302163231,0.037035,-0.013410,0.035993,-0.39,1.03,9.29
302164241,0.077516,-0.005953,0.041319,-0.44,-0.62,9.06
302165257,0.083908,-0.000627,0.040254,-0.44,-2.00,9.37
302166264,0.071124,-0.003823,0.038124,-0.43,-2.70,9.95
302167271,0.049819,-0.007019,0.039189,-0.22,-3.02,10.35
302168294,0.028513,-0.004888,0.040254,0.10,-3.12,10.15
302169306,0.021056,0.005765,0.038124,0.37,-2.86,9.64
302170316,0.013599,-0.007019,0.025340,0.81,-1.54,9.41
302171311,0.005077,-0.001692,0.027471,0.92,-0.79,9.81
302172321,-0.004511,0.006830,0.030667,0.89,0.25,10.27
302173331,-0.008772,0.001504,0.027471,0.75,1.24,10.58
302174341,0.001881,-0.001692,0.027471,0.52,1.97,10.48
302175357,0.004012,-0.008084,0.025340,0.07,2.29,10.30
302176364,0.006142,0.001504,0.029601,-0.34,2.18,9.93
302177371,0.008273,0.003634,0.030667,-0.55,1.80,9.56
302178381,-0.009837,-0.000627,0.028536,-0.78,1.31,9.30
302179391,0.005077,0.007895,0.032797,-0.78,0.75,9.11
302180401,0.031709,0.018548,0.034928,-0.80,0.27,9.30
302181425,0.008273,0.007895,0.025340,-0.73,-0.17,9.41
302182436,-0.046057,-0.015541,0.010426,-0.64,-0.69,9.63
302183444,-0.070558,-0.031520,0.005100,-0.68,-0.98,9.81
302184451,-0.060971,-0.036846,0.006165,-0.48,-1.28,9.73
302185461,-0.043926,-0.032585,0.008296,-0.40,-1.48,9.86
302186466,-0.034339,-0.024063,0.008296,-0.32,-1.55,9.98
302187475,-0.034339,-0.016606,0.005100,-0.16,-1.69,10.03
302188485,-0.049252,-0.004888,-0.002357,-0.21,-1.67,10.05
302189495,-0.056709,0.004700,-0.007684,0.00,-1.66,9.81
302190507,-0.034339,0.012156,-0.002357,0.15,-1.78,9.74
302191541,0.011469,0.024940,0.008296,0.22,-1.65,9.76
302192540,0.035970,0.016418,0.012557,0.40,-1.41,9.79
302193540,0.005077,-0.004888,0.006165,0.26,-1.27,10.03
302194560,-0.023686,-0.009149,-0.003422,0.29,-1.19,10.05
302195576,-0.004511,-0.008084,-0.002357,0.47,-1.25,10.05
302196572,0.008273,-0.016606,-0.001292,0.53,-1.10,10.24
302197571,0.001881,-0.014476,-0.004488,0.59,-0.86,10.25
302198581,0.013599,-0.003823,-0.003422,0.56,-0.80,10.19
302199594,0.007207,0.002569,-0.001292,0.45,-0.68,10.12
302200606,0.000816,0.004700,-0.001292,0.51,-0.56,10.05
302201623,-0.001315,0.003634,0.000839,0.52,-0.42,10.01
302202632,-0.003445,0.010026,0.000839,0.32,-0.23,10.06
302203640,-0.005576,0.017483,0.000839,0.22,-0.25,10.06
302204649,-0.008772,0.016418,-0.000227,0.17,-0.18,9.92
302205673,-0.017294,0.007895,-0.001292,0.13,-0.12,9.95
302206689,-0.006641,0.000438,-0.002357,0.13,-0.13,9.85
302207689,-0.020490,0.002569,-0.004488,0.13,-0.04,9.90
302208694,0.002946,0.005765,0.001904,0.09,0.04,9.99
302209701,-0.000250,0.002569,0.004035,0.02,0.03,9.88
302210705,-0.020490,-0.000627,0.004035,-0.06,0.02,9.87
302211715,0.009338,-0.008084,0.006165,-0.05,0.04,9.74
302212731,0.008273,-0.008084,0.000839,-0.07,0.03,9.73
302213738,-0.022620,0.003634,-0.003422,-0.20,0.02,9.76
302214776,0.001881,0.000438,-0.002357,-0.12,-0.02,9.66
302215758,0.031709,-0.011280,-0.003422,-0.12,0.00,9.72
302216768,-0.001315,-0.014476,-0.010879,-0.14,0.05,9.70
302217782,-0.036469,-0.005953,-0.010879,-0.12,0.06,9.71
302218786,-0.004511,0.000438,-0.001292,-0.26,-0.02,9.71
302219793,0.047688,-0.008084,0.001904,-0.17,-0.09,9.68
302220806,0.050884,-0.017671,-0.007684,-0.19,-0.01,9.78
302221812,-0.008772,-0.011280,-0.017271,-0.19,0.01,9.73
302222822,-0.066297,0.002569,-0.017271,-0.11,-0.06,9.83
302223830,-0.067362,0.008961,-0.008749,-0.24,-0.10,9.83
302224848,-0.017294,0.005765,0.001904,-0.13,-0.13,9.79
302225853,0.050884,0.003634,0.008296,-0.17,-0.09,9.85
302226862,0.094560,0.001504,0.002969,-0.19,-0.10,9.74
302227870,0.089234,-0.000627,-0.008749,-0.10,-0.16,9.80
302228882,0.051949,0.000438,-0.017271,-0.24,-0.22,9.76
302229890,0.006142,-0.000627,-0.023663,-0.11,-0.28,9.60
302230902,-0.030077,-0.002757,-0.027924,-0.11,-0.29,9.72
302231910,-0.055644,0.003634,-0.027924,-0.16,-0.29,9.71
302232922,-0.068428,0.006830,-0.027924,-0.03,-0.25,9.79
302233930,-0.082276,0.008961,-0.028989,-0.15,-0.23,9.84
302234948,-0.092929,0.007895,-0.028989,-0.11,-0.29,9.84
302235953,-0.095060,0.004700,-0.025793,-0.10,-0.27,9.90
302236962,-0.087603,0.010026,-0.020467,-0.08,-0.25,9.77
302237970,-0.079080,0.015352,-0.019402,0.03,-0.34,9.85
302239000,-0.075884,0.020679,-0.020467,-0.11,-0.39,9.93
302240004,-0.080146,0.014287,-0.023663,-0.02,-0.41,9.84
302241002,-0.084407,0.003634,-0.026859,0.03,-0.34,9.88
302242010,-0.087603,0.003634,-0.026859,-0.02,-0.30,9.79
302243022,-0.081211,0.006830,-0.027924,0.04,-0.34,9.87
302244030,-0.070558,0.005765,-0.027924,0.00,-0.42,9.93
302245048,-0.060971,0.001504,-0.027924,0.05,-0.49,9.83
302246053,-0.043926,-0.000627,-0.026859,0.03,-0.47,9.88
302247062,-0.023686,-0.005953,-0.022597,0.02,-0.40,9.86
302248070,0.002946,-0.014476,-0.016206,0.05,-0.46,9.93
302249082,0.030644,-0.015541,-0.010879,0.05,-0.53,9.94
302250090,0.053014,-0.012345,-0.001292,0.08,-0.46,9.95
302251102,0.065798,-0.010214,0.006165,0.08,-0.49,9.91
302252110,0.057276,-0.008084,0.009361,0.01,-0.48,9.87
302253122,0.031709,-0.009149,0.006165,0.00,-0.44,9.87
302254130,-0.010902,-0.008084,-0.000227,0.07,-0.46,9.82
302255148,-0.046057,-0.004888,-0.010879,0.04,-0.51,9.88
302256153,-0.050318,-0.003823,-0.020467,0.05,-0.56,9.83
302257162,-0.029012,-0.003823,-0.022597,0.05,-0.53,9.81
302258170,0.007207,-0.007019,-0.015140,0.02,-0.53,9.89
302259182,0.037035,-0.011280,-0.005553,0.04,-0.56,9.86
302260190,0.043427,-0.008084,0.001904,-0.03,-0.55,9.82
302261202,0.025317,-0.005953,0.002969,-0.04,-0.50,9.81
302262210,-0.010902,-0.008084,-0.005553,0.03,-0.47,9.88
302263222,-0.030077,-0.007019,-0.015140,-0.07,-0.49,9.97
302264230,-0.027947,-0.005953,-0.018336,-0.04,-0.56,9.85
302265248,0.001881,-0.007019,-0.014075,0.06,-0.52,9.80
302266253,0.031709,-0.005953,-0.003422,-0.06,-0.45,9.85
302267262,0.038101,-0.009149,0.005100,-0.07,-0.54,9.79
302268270,0.011469,-0.011280,0.002969,-0.04,-0.48,9.78
302269282,-0.017294,-0.008084,-0.008749,-0.13,-0.40,9.83
302270290,0.002946,-0.001692,-0.010879,-0.03,-0.46,9.77
302271302,0.027448,-0.000627,0.002969,-0.13,-0.38,9.77
302272310,0.015730,-0.001692,0.007230,-0.11,-0.51,9.68
302273322,-0.018359,-0.005953,-0.003422,0.02,-0.50,9.71
302274330,-0.023686,-0.009149,-0.014075,-0.11,-0.42,9.79
302275348,0.001881,-0.008084,-0.010879,-0.08,-0.53,9.74
302276353,0.024252,-0.011280,0.001904,0.00,-0.40,9.76
302277362,0.019991,-0.007019,0.006165,-0.15,-0.33,9.82
302278370,-0.006641,0.005765,-0.003422,-0.13,-0.45,9.78
302279382,-0.029012,0.013222,-0.013010,-0.15,-0.30,9.71
302280390,-0.020490,0.006830,-0.015140,-0.23,-0.32,9.70
302281402,0.015730,-0.008084,-0.008749,-0.06,-0.40,9.71
302282410,0.056210,-0.018737,-0.000227,-0.10,-0.34,9.77
302283422,0.075385,-0.026194,0.010426,-0.13,-0.27,9.78
302284430,0.072190,-0.029389,0.016818,-0.05,-0.32,9.82
302285448,0.056210,-0.026194,0.015753,-0.09,-0.39,9.84
302286453,0.046623,-0.021932,0.013622,-0.02,-0.31,9.83
302287462,0.041296,-0.013410,0.012557,0.04,-0.28,9.79
302288470,0.038101,-0.002757,0.012557,-0.01,-0.29,9.77
302289482,0.038101,0.000438,0.011492,0.02,-0.30,9.84
302290490,0.044492,0.005765,0.010426,0.06,-0.30,9.82
302291502,0.060471,0.005765,0.008296,0.08,-0.34,9.86
302292510,0.073255,-0.000627,0.005100,0.13,-0.31,9.77
302293522,0.076451,-0.008084,-0.001292,0.07,-0.31,9.78
302294530,0.059406,-0.011280,-0.008749,0.06,-0.35,9.77
302295548,0.023187,-0.008084,-0.016206,0.09,-0.34,9.78
302296553,-0.024751,0.002569,-0.019402,0.09,-0.33,9.80
302297562,-0.067362,0.014287,-0.016206,0.15,-0.33,9.90
302298570,-0.070558,0.018548,-0.007684,0.12,-0.30,9.97
302299582,-0.010902,0.008961,0.000839,0.13,-0.27,9.97
302300594,0.054080,-0.002757,0.005100,0.16,-0.21,9.96
302301604,0.050884,-0.003823,-0.003422,0.10,-0.27,9.97
302302618,-0.016229,0.003634,-0.014075,0.14,-0.22,9.86
302303627,-0.060971,0.013222,-0.013010,0.16,-0.21,9.86
302304637,-0.016229,0.006830,-0.003422,0.05,-0.18,9.83
302305656,0.053014,-0.008084,-0.001292,0.06,-0.17,9.75
302306661,0.035970,-0.009149,-0.008749,0.17,-0.13,9.71
302307671,-0.032208,0.000438,-0.013010,0.07,-0.10,9.89
302308683,-0.026882,0.000438,-0.005553,0.06,-0.12,9.87
302309692,0.031709,-0.005953,-0.002357,0.05,-0.01,9.91
302310699,0.011469,-0.002757,-0.010879,0.02,-0.04,9.97
302311706,-0.029012,0.002569,-0.013010,0.08,0.09,10.02
302312714,0.010403,-0.003823,-0.009814,0.01,0.12,10.02
302313734,0.021056,-0.004888,-0.015140,0.00,0.14,9.85
302314744,-0.009837,0.002569,-0.019402,-0.04,0.17,9.91
302315750,0.018926,0.001504,-0.018336,-0.10,0.20,9.72
302316760,0.025317,-0.002757,-0.020467,-0.12,0.21,9.64
302317767,-0.021555,0.003634,-0.019402,-0.09,0.22,9.52
302318771,-0.001315,0.006830,-0.013010,-0.19,0.28,9.62
302319785,0.019991,0.006830,-0.013010,-0.23,0.32,9.58
302320794,-0.011968,0.010026,-0.016206,-0.31,0.40,9.65
302321804,0.006142,0.004700,-0.015140,-0.28,0.29,9.65
302322813,0.001881,0.002569,-0.017271,-0.19,0.32,9.70
302323821,-0.020490,0.012156,-0.014075,-0.26,0.27,9.81
302324837,0.011469,0.015352,-0.010879,-0.23,0.20,9.86
302325844,-0.008772,0.019613,-0.013010,-0.24,0.20,9.77
302326851,-0.030077,0.014287,-0.010879,-0.23,0.10,9.53
302327861,0.015730,-0.001692,-0.005553,-0.28,0.06,9.52
302328871,0.008273,-0.004888,-0.010879,-0.25,-0.02,9.43
302329881,-0.033273,0.003634,-0.016206,-0.21,-0.06,9.54
302330891,-0.001315,0.005765,-0.013010,-0.33,-0.01,9.62
302331909,0.045558,-0.003823,-0.011945,-0.24,-0.11,9.48
302332911,0.015730,-0.012345,-0.017271,-0.17,-0.11,9.52
302333921,-0.036469,-0.009149,-0.018336,-0.13,-0.16,9.58
302334937,-0.024751,-0.005953,-0.007684,-0.06,-0.21,9.70
302335944,0.038101,-0.005953,0.000839,-0.28,-0.13,9.77
302336951,0.072190,-0.009149,-0.003422,-0.16,-0.23,9.60
302337961,0.045558,-0.013410,-0.015140,-0.07,-0.28,9.68
302338971,-0.015163,-0.009149,-0.024728,-0.07,-0.30,9.78
302339981,-0.058840,-0.000627,-0.025793,0.03,-0.28,9.75
302340991,-0.065232,0.006830,-0.018336,-0.16,-0.21,9.79
302342001,-0.041795,0.005765,-0.009814,-0.08,-0.32,9.73
302343011,-0.009837,0.003634,-0.004488,-0.03,-0.34,9.69
302344021,0.029578,0.002569,-0.002357,0.02,-0.33,9.73
302345037,0.058341,0.002569,-0.000227,0.09,-0.37,9.83
302346044,0.074320,0.004700,0.001904,-0.13,-0.32,9.81
302347051,0.072190,-0.000627,0.004035,-0.01,-0.32,9.70
302348061,0.068994,-0.003823,0.006165,0.10,-0.30,9.73
302349071,0.078581,-0.001692,0.005100,0.07,-0.33,9.82
302350081,0.079647,0.003634,0.004035,0.12,-0.34,9.90
302351091,0.075385,0.005765,0.005100,-0.07,-0.28,9.89
302352101,0.060471,0.002569,0.008296,-0.01,-0.39,9.77
302353111,0.034905,0.005765,0.009361,0.06,-0.42,9.79
302354121,0.016795,0.013222,0.007230,0.06,-0.36,9.86
302355137,-0.004511,0.012156,0.001904,0.15,-0.36,9.91
302356144,-0.031143,0.014287,-0.005553,0.03,-0.37,9.91
302357151,-0.053514,0.016418,-0.013010,0.05,-0.41,9.89
302358161,-0.063101,0.016418,-0.017271,0.08,-0.36,9.93
302359171,-0.052448,0.017483,-0.021532,0.09,-0.31,9.95
302360181,-0.034339,0.015352,-0.022597,0.19,-0.36,9.95
302361191,-0.007707,0.012156,-0.017271,0.07,-0.41,9.89
302362201,0.019991,0.004700,-0.006618,0.07,-0.44,9.90
302363211,0.035970,0.003634,0.002969,0.13,-0.43,9.97
302364221,0.037035,0.004700,0.008296,0.07,-0.39,9.92
302365237,0.008273,0.003634,0.006165,0.18,-0.42,9.94
302366244,-0.030077,0.012156,-0.003422,0.13,-0.48,10.02
302367251,-0.053514,0.020679,-0.014075,0.05,-0.49,10.02
302368261,-0.044991,0.016418,-0.020467,0.20,-0.45,9.93
302369271,-0.004511,0.007895,-0.014075,0.17,-0.43,9.98
302370281,0.035970,-0.010214,0.010426,0.15,-0.54,9.93
302371291,0.008273,-0.003823,0.007230,0.17,-0.47,10.06
302372301,-0.022620,0.007895,-0.004488,0.15,-0.51,10.08
302373311,-0.032208,0.012156,-0.013010,0.22,-0.59,9.90
302374321,-0.007707,0.004700,-0.009814,0.17,-0.57,9.97
302375337,0.026382,-0.003823,0.001904,0.11,-0.64,9.97
302376344,0.030644,-0.007019,0.011492,0.25,-0.68,9.98
302377351,0.005077,0.000438,0.008296,0.22,-0.57,10.11
302378361,-0.029012,0.012156,-0.004488,0.13,-0.64,9.99
302379371,-0.034339,0.010026,-0.013010,0.23,-0.64,9.89
302380381,0.006142,0.004700,-0.004488,0.19,-0.56,9.99
302381391,0.038101,0.005765,0.010426,0.09,-0.69,10.00
302382401,0.022121,0.002569,0.012557,0.18,-0.67,9.97
302383411,-0.013033,0.002569,-0.000227,0.16,-0.53,10.02
302384421,-0.035404,0.010026,-0.013010,0.18,-0.70,9.96
302385437,-0.009837,0.007895,-0.009814,0.23,-0.72,9.90
302386444,0.030644,0.000438,0.006165,0.13,-0.51,9.95
302387451,0.035970,-0.002757,0.013622,0.14,-0.67,9.87
302388461,0.006142,-0.002757,0.004035,0.15,-0.65,9.85
302389471,-0.007707,-0.004888,-0.008749,0.06,-0.47,9.93
302390481,0.008273,-0.010214,-0.007684,0.08,-0.65,9.88
302391491,0.025317,-0.011280,0.007230,0.05,-0.70,9.87
302392501,0.015730,-0.003823,0.011492,-0.02,-0.52,9.89
302393511,-0.011968,0.004700,0.001904,0.01,-0.61,9.77
302394521,-0.014098,0.002569,-0.004488,0.04,-0.62,9.78
302395537,0.015730,-0.003823,0.001904,-0.08,-0.47,9.86
302396544,0.024252,-0.010214,0.009361,-0.03,-0.59,9.72
302397551,0.002946,-0.014476,0.006165,0.06,-0.54,9.69
302398561,-0.005576,-0.015541,-0.003422,-0.12,-0.40,9.82
302399571,0.007207,-0.018737,-0.003422,-0.07,-0.59,9.75
302400581,0.012534,-0.021932,0.006165,0.04,-0.49,9.64
302401594,0.000816,-0.012345,0.010426,-0.07,-0.41,9.73
302402603,-0.024751,0.005765,0.001904,-0.05,-0.53,9.74
302403618,-0.031143,0.012156,-0.007684,-0.04,-0.35,9.78
302404625,-0.014098,0.005765,-0.010879,-0.07,-0.31,9.87
302405641,0.015730,-0.010214,-0.004488,-0.04,-0.44,9.77
302406654,0.046623,-0.022998,0.005100,-0.07,-0.41,9.77
302407658,0.060471,-0.029389,0.013622,-0.05,-0.24,9.72
302408669,0.049819,-0.024063,0.020014,-0.03,-0.38,9.71
302409683,0.016795,-0.012345,0.018949,-0.06,-0.40,9.79
302410690,-0.006641,-0.003823,0.013622,-0.04,-0.36,9.81
302411700,-0.020490,-0.002757,0.010426,0.00,-0.38,9.72
302412705,-0.017294,-0.004888,0.010426,-0.01,-0.31,9.80
302413715,-0.015163,-0.002757,0.010426,0.01,-0.32,9.85
302414758,-0.005576,-0.000627,0.009361,0.03,-0.31,9.83
302415765,0.015730,-0.004888,0.010426,0.04,-0.32,9.87
302416758,0.048753,-0.008084,0.012557,0.04,-0.28,9.88
302417769,0.079647,-0.015541,0.011492,0.08,-0.31,9.87
302418767,0.090299,-0.016606,0.006165,0.14,-0.29,9.86
302419771,0.072190,-0.017671,-0.005553,0.08,-0.32,9.90
302420786,0.024252,-0.017671,-0.018336,0.10,-0.29,9.82
302421793,-0.037534,-0.010214,-0.023663,0.06,-0.22,9.84
302422806,-0.072689,0.003634,-0.016206,0.06,-0.23,9.78
302423812,-0.048187,0.010026,-0.002357,0.14,-0.25,9.77
302424828,0.023187,0.006830,0.005100,0.10,-0.21,9.77
302425833,0.072190,-0.009149,0.000839,0.15,-0.27,9.88
302426842,0.048753,-0.013410,-0.010879,0.13,-0.18,9.91
302427850,-0.027947,0.003634,-0.018336,0.05,-0.14,9.98
302428871,-0.058840,0.021744,-0.013010,0.11,-0.16,9.91
302429877,0.009338,0.015352,-0.005553,0.09,-0.13,9.90
302430905,0.057276,-0.002757,-0.006618,0.06,-0.08,9.86
302431896,0.002946,0.000438,-0.015140,0.06,-0.05,9.84
302432915,-0.041795,0.013222,-0.011945,-0.01,-0.01,9.78
302433917,0.009338,0.006830,-0.001292,0.00,0.01,9.78
302434931,0.033839,-0.009149,-0.004488,0.01,0.00,9.74
302435937,-0.021555,-0.011280,-0.015140,-0.07,0.11,9.78
302436946,-0.025816,-0.010214,-0.011945,-0.02,0.10,9.75
302437965,0.025317,-0.010214,-0.008749,-0.10,0.20,9.82
302438978,0.005077,-0.003823,-0.016206,-0.12,0.20,9.91
302439977,-0.018359,0.002569,-0.015140,-0.08,0.26,9.86
302440990,0.017860,-0.008084,-0.015140,-0.17,0.27,9.94
302442008,-0.007707,-0.011280,-0.022597,-0.14,0.24,9.78
302443012,-0.025816,-0.004888,-0.017271,-0.17,0.20,9.71
302444028,0.024252,-0.010214,-0.010879,-0.26,0.20,9.64
302445030,0.008273,-0.015541,-0.016206,-0.24,0.25,9.69
302446051,-0.016229,-0.005953,-0.016206,-0.25,0.29,9.60
302447042,0.021056,-0.004888,-0.015140,-0.21,0.23,9.58
302448060,0.001881,0.000438,-0.021532,-0.20,0.19,9.48
302449062,-0.011968,0.010026,-0.015140,-0.25,0.13,9.54
302450073,0.031709,0.000438,-0.005553,-0.27,0.19,9.59
302451082,0.005077,0.007895,-0.007684,-0.29,0.21,9.64
302452090,-0.013033,0.018548,-0.009814,-0.22,0.07,9.56
302453102,0.021056,0.006830,-0.010879,-0.30,0.07,9.63
302454110,-0.007707,0.001504,-0.015140,-0.23,-0.02,9.61
302455128,-0.029012,0.008961,-0.011945,-0.19,-0.07,9.60
302456143,0.015730,0.008961,-0.007684,-0.25,-0.07,9.61
302457164,0.011469,0.003634,-0.011945,-0.15,-0.14,9.56
302458150,-0.043926,0.002569,-0.014075,-0.20,-0.16,9.59
302459162,-0.029012,-0.000627,-0.007684,-0.14,-0.17,9.62
302460181,0.048753,-0.007019,-0.000227,-0.08,-0.18,9.69
302461197,0.066863,-0.007019,-0.005553,-0.24,-0.18,9.68
302462190,-0.002380,-0.003823,-0.019402,-0.19,-0.24,9.62
302463210,-0.068428,-0.004888,-0.024728,-0.17,-0.21,9.67
302464210,-0.059905,-0.008084,-0.013010,-0.03,-0.23,9.71
302465228,-0.001315,-0.005953,0.005100,0.07,-0.30,9.76
302466233,0.065798,-0.002757,0.011492,-0.16,-0.24,9.82
302467242,0.093495,-0.009149,0.007230,-0.06,-0.34,9.62
302468250,0.079647,-0.021932,-0.002357,-0.06,-0.37,9.69
302469262,0.005077,-0.026194,-0.022597,0.00,-0.34,9.84
302470270,-0.026882,-0.015541,-0.025793,-0.13,-0.26,9.78
302471282,-0.051383,-0.009149,-0.026859,0.04,-0.33,9.66
302472290,-0.064166,-0.010214,-0.026859,0.05,-0.35,9.75
302473302,-0.068428,-0.005953,-0.025793,0.03,-0.40,9.87
302474310,-0.063101,-0.001692,-0.026859,0.11,-0.38,9.92
302475328,-0.058840,0.003634,-0.026859,-0.09,-0.23,9.87
302476333,-0.059905,0.005765,-0.026859,-0.02,-0.28,9.68
302477342,-0.055644,0.002569,-0.026859,0.09,-0.36,9.73
302478350,-0.046057,0.003634,-0.025793,0.10,-0.37,9.83
302479362,-0.026882,0.004700,-0.024728,0.18,-0.36,9.94
302480370,-0.003445,0.001504,-0.020467,-0.02,-0.27,9.94
302481412,0.011469,-0.004888,-0.013010,0.02,-0.40,9.73
302482390,0.026382,-0.004888,-0.004488,0.16,-0.45,9.84
302483402,0.051949,-0.007019,0.001904,0.03,-0.27,9.98
302484410,0.061537,-0.010214,0.009361,0.11,-0.28,9.87
302485428,0.057276,-0.008084,0.011492,-0.01,-0.28,9.78
302486433,0.041296,-0.007019,0.010426,-0.02,-0.38,9.80
302487442,0.037035,-0.009149,0.013622,0.05,-0.32,9.91
302488450,0.043427,-0.007019,0.016818,-0.01,-0.25,9.89
302489462,0.048753,-0.005953,0.016818,0.04,-0.28,9.82
302490470,0.054080,-0.002757,0.015753,0.01,-0.33,9.78
302491482,0.068994,-0.002757,0.014687,-0.01,-0.28,9.85
302492490,0.087103,-0.008084,0.011492,-0.01,-0.26,9.90
302493502,0.093495,-0.009149,0.008296,-0.02,-0.27,9.78
302494510,0.078581,-0.011280,-0.001292,-0.03,-0.21,9.90
302495528,0.035970,-0.015541,-0.010879,-0.03,-0.26,9.81
302496533,-0.015163,-0.010214,-0.017271,-0.13,-0.17,9.73
302497542,-0.058840,0.000438,-0.019402,0.03,-0.26,9.66
302498550,-0.084407,0.013222,-0.011945,-0.01,-0.23,9.73
302499562,-0.062036,0.014287,0.001904,-0.12,-0.24,9.82
302500570,0.006142,0.005765,0.010426,-0.12,-0.20,9.77
302501582,0.064733,-0.009149,0.006165,-0.17,-0.25,9.81
302502594,0.041296,-0.019802,-0.008749,-0.12,-0.27,9.82
302503604,-0.033273,-0.008084,-0.014075,-0.06,-0.29,9.87
302504618,-0.058840,0.005765,-0.005553,-0.08,-0.30,9.86
302505633,0.004012,-0.000627,0.002969,-0.07,-0.38,9.91
302506637,0.058341,-0.016606,-0.000227,-0.12,-0.43,9.87
302507651,0.016795,-0.015541,-0.011945,-0.10,-0.37,9.89
302508657,-0.043926,0.000438,-0.010879,-0.06,-0.40,9.70
302509673,-0.011968,0.004700,-0.002357,-0.09,-0.46,9.70
302510680,0.037035,-0.003823,-0.004488,-0.11,-0.38,9.74
302511689,-0.007707,0.003634,-0.013010,-0.06,-0.46,9.77
302512702,-0.034339,0.015352,-0.010879,-0.06,-0.56,9.89
302513709,0.015730,0.008961,-0.008749,-0.05,-0.52,9.95
302514720,0.007207,0.000438,-0.015140,0.00,-0.57,9.90
302515737,-0.030077,0.003634,-0.014075,-0.02,-0.61,9.96
302516739,0.010403,-0.000627,-0.009814,0.00,-0.64,10.02
302517750,0.015730,-0.000627,-0.010879,-0.01,-0.64,10.04
302518754,-0.024751,0.011091,-0.011945,-0.02,-0.59,10.04
302519764,-0.003445,0.010026,-0.010879,-0.03,-0.63,10.00
302520771,-0.009837,0.007895,-0.016206,-0.01,-0.77,9.98
302521785,-0.033273,0.010026,-0.011945,-0.07,-0.66,9.96
302522794,0.009338,0.003634,-0.004488,0.04,-0.72,9.84
302523804,0.004012,-0.000627,-0.006618,0.04,-0.71,9.86
302524819,-0.035404,0.008961,-0.006618,0.08,-0.70,9.93
302525824,0.004012,0.007895,-0.001292,0.11,-0.71,9.99
302526831,0.031709,-0.000627,-0.004488,0.04,-0.69,10.16
302527841,-0.018359,-0.005953,-0.014075,0.15,-0.65,10.00
302528851,-0.026882,-0.005953,-0.011945,0.11,-0.60,9.92
302529861,0.028513,-0.009149,-0.006618,0.14,-0.63,9.85
302530871,0.051949,-0.018737,-0.011945,0.12,-0.57,9.91
302531881,-0.000250,-0.015541,-0.018336,-0.02,-0.47,10.07
302532891,-0.058840,-0.001692,-0.018336,0.18,-0.49,9.94
302533901,-0.057775,0.004700,-0.008749,0.07,-0.48,9.90
302534941,0.002946,0.003634,0.002969,0.01,-0.46,9.87
302535924,0.068994,-0.005953,0.008296,0.19,-0.41,9.81
302536931,0.091365,-0.014476,0.001904,0.08,-0.31,9.91
302537941,0.062602,-0.017671,-0.009814,0.13,-0.38,9.84
302538951,0.021056,-0.019802,-0.020467,0.09,-0.41,9.87
302539961,-0.013033,-0.014476,-0.024728,0.04,-0.39,9.90
302540971,-0.041795,-0.004888,-0.024728,0.08,-0.38,9.92
302541981,-0.062036,0.008961,-0.023663,-0.13,-0.22,9.94
302542991,-0.080146,0.016418,-0.023663,-0.01,-0.25,9.76
302544001,-0.086537,0.011091,-0.022597,0.12,-0.30,9.77
302545017,-0.084407,0.010026,-0.020467,0.08,-0.34,9.83
302546036,-0.078015,0.011091,-0.018336,0.07,-0.29,9.85
302547031,-0.075884,0.019613,-0.017271,-0.14,-0.13,9.95
302548041,-0.083341,0.026005,-0.018336,-0.07,-0.22,9.82
302549051,-0.083341,0.019613,-0.018336,0.01,-0.27,9.75
302550061,-0.073754,0.013222,-0.018336,-0.02,-0.27,9.78
302551071,-0.068428,0.014287,-0.019402,0.04,-0.19,9.86
302552081,-0.056709,0.014287,-0.020467,-0.21,-0.05,9.90
302553091,-0.042861,0.012156,-0.021532,-0.16,-0.19,9.74
302554101,-0.025816,0.007895,-0.018336,-0.01,-0.29,9.79
302555123,0.007207,0.001504,-0.009814,-0.20,-0.09,9.86
302556122,0.035970,-0.004888,-0.001292,-0.07,-0.04,9.75
302557128,0.048753,-0.003823,0.007230,-0.04,-0.07,9.68
302558138,0.045558,0.002569,0.013622,-0.18,-0.14,9.73
302559148,0.030644,0.008961,0.013622,-0.11,-0.13,9.78
302560158,0.008273,0.015352,0.008296,-0.14,0.05,9.73
302561168,-0.016229,0.014287,-0.001292,-0.02,-0.05,9.66
302562178,-0.036469,0.007895,-0.009814,-0.02,-0.10,9.67
302563188,-0.027947,0.003634,-0.011945,-0.21,0.01,9.70
302564198,-0.000250,0.003634,-0.006618,0.04,-0.08,9.65
302565225,0.019991,0.008961,0.005100,0.01,-0.13,9.76
302566224,0.025317,0.016418,0.011492,-0.23,0.01,9.84
302567231,0.012534,0.013222,0.008296,-0.01,-0.02,9.70
302568241,-0.014098,0.004700,-0.003422,0.02,-0.10,9.71
302569251,-0.010902,-0.003823,-0.005553,-0.01,-0.11,9.58
302570261,0.017860,0.002569,0.008296,0.02,-0.13,9.68
302571271,0.027448,0.010026,0.014687,-0.15,0.08,9.71
302572281,0.005077,0.010026,0.008296,0.00,-0.12,9.56
302573291,-0.014098,0.001504,-0.004488,0.12,-0.27,9.72
302574301,-0.009837,-0.005953,-0.008749,0.01,-0.03,9.76
302575323,0.013599,-0.014476,-0.001292,0.04,-0.11,9.61
302576322,0.031709,-0.020867,0.011492,-0.02,-0.10,9.67
302577328,0.017860,-0.016606,0.015753,0.08,-0.20,9.71
302578338,-0.016229,-0.004888,0.011492,0.12,-0.29,9.75
302579348,-0.035404,0.011091,0.001904,0.00,-0.12,9.83
302580358,-0.050318,0.017483,-0.008749,0.04,-0.12,9.73
302581368,-0.057775,0.018548,-0.016206,0.07,-0.32,9.77
302582378,-0.049252,0.016418,-0.018336,0.06,-0.29,9.74
302583388,-0.031143,0.005765,-0.017271,0.09,-0.23,9.69
302584398,-0.021555,0.001504,-0.016206,-0.02,-0.23,9.79
302585425,-0.015163,0.003634,-0.017271,0.02,-0.23,9.79
302586424,-0.009837,-0.003823,-0.017271,0.04,-0.28,9.73
302587431,-0.008772,-0.012345,-0.014075,-0.02,-0.33,9.73
302588441,-0.013033,-0.018737,-0.013010,0.03,-0.34,9.75
302589451,-0.021555,-0.016606,-0.014075,0.03,-0.32,9.83
302590461,-0.041795,-0.005953,-0.015140,-0.01,-0.32,9.93
302591471,-0.058840,0.003634,-0.016206,0.00,-0.43,9.95
302592481,-0.067362,0.007895,-0.014075,0.04,-0.43,9.94
302593491,-0.059905,0.006830,-0.007684,0.02,-0.37,9.97
302594501,-0.044991,0.008961,0.000839,0.03,-0.44,9.92
302595523,-0.017294,0.007895,0.008296,0.01,-0.36,9.93
302596522,0.027448,0.000438,0.009361,0.06,-0.46,9.83
302597528,0.064733,-0.011280,0.007230,-0.06,-0.39,9.82
302598538,0.068994,-0.017671,-0.001292,0.09,-0.48,9.77
302599548,0.024252,-0.013410,-0.013010,0.06,-0.46,9.81
302600558,-0.041795,0.003634,-0.019402,-0.04,-0.53,9.96
302601568,-0.065232,0.018548,-0.011945,0.07,-0.52,9.91
302602578,-0.008772,0.015352,0.001904,0.05,-0.50,10.00
302603593,0.060471,-0.001692,0.005100,0.04,-0.56,10.04
302604601,0.047688,-0.004888,-0.008749,0.14,-0.66,10.07
302605630,-0.025816,0.006830,-0.018336,0.11,-0.60,10.05
302606629,-0.050318,0.019613,-0.010879,0.09,-0.60,10.02
302607637,0.013599,0.014287,0.002969,0.13,-0.67,10.08
302608652,0.051949,0.000438,0.000839,0.13,-0.63,10.07
302609658,-0.010902,0.002569,-0.009814,0.17,-0.71,9.85
302610669,-0.040730,0.011091,-0.008749,0.18,-0.68,9.82
302611682,0.017860,0.000438,-0.005553,0.13,-0.63,9.88
302612690,0.024252,-0.009149,-0.008749,0.17,-0.74,9.87
302613699,-0.032208,0.001504,-0.010879,0.22,-0.78,9.90
302614712,-0.015163,0.004700,-0.007684,0.23,-0.70,9.95
302615722,0.006142,-0.007019,-0.011945,0.23,-0.75,9.98
302616723,-0.026882,-0.015541,-0.014075,0.18,-0.74,10.03
302617738,-0.003445,-0.017671,-0.007684,0.28,-0.70,10.02
302618745,0.028513,-0.015541,-0.007684,0.28,-0.69,9.97
302619752,-0.007707,-0.003823,-0.010879,0.23,-0.72,9.97
302620764,-0.001315,0.000438,-0.009814,0.25,-0.72,9.90
302621767,0.007207,-0.001692,-0.016206,0.16,-0.75,9.86
302622783,-0.023686,0.003634,-0.018336,0.21,-0.71,9.83
302623791,0.012534,-0.000627,-0.011945,0.31,-0.66,9.78
302624810,0.021056,-0.007019,-0.011945,0.25,-0.65,9.77
302625822,-0.005576,0.001504,-0.011945,0.24,-0.64,9.80
302626822,0.018926,0.003634,-0.008749,0.30,-0.65,9.80
302627830,-0.005576,0.007895,-0.011945,0.27,-0.64,9.85
302628842,-0.025816,0.018548,-0.009814,0.30,-0.62,9.78
302629850,0.001881,0.016418,-0.008749,0.37,-0.62,9.79
302630862,-0.022620,0.018548,-0.011945,0.33,-0.53,9.85
302631870,-0.011968,0.016418,-0.008749,0.39,-0.49,9.93
302632882,0.017860,0.005765,-0.009814,0.28,-0.40,9.91
302633890,-0.017294,0.006830,-0.013010,0.25,-0.35,9.86
302634909,-0.019425,0.011091,-0.006618,0.26,-0.33,9.85
302635918,0.029578,0.006830,-0.003422,0.11,-0.32,9.88
302636920,0.023187,0.001504,-0.009814,0.14,-0.35,9.93
302637927,-0.032208,-0.000627,-0.015140,0.14,-0.20,9.94
302638952,-0.031143,-0.004888,-0.007684,0.16,-0.26,9.89
302639947,0.035970,-0.014476,0.002969,0.14,-0.21,9.77
302640960,0.073255,-0.015541,0.001904,0.09,-0.23,9.79
302641967,0.031709,-0.010214,-0.011945,0.15,-0.27,9.87
302642980,-0.034339,-0.005953,-0.021532,0.07,-0.20,10.02
302643987,-0.058840,-0.001692,-0.015140,0.03,-0.25,9.99
302645007,-0.032208,-0.002757,-0.004488,0.05,-0.21,9.86
302646020,0.012534,-0.000627,0.005100,0.05,-0.26,9.75
302647022,0.053015,-0.001692,0.009361,0.09,-0.27,9.76
302648030,0.076451,-0.005953,0.006165,0.02,-0.23,9.85
302649052,0.079647,-0.011280,-0.002357,0.01,-0.29,9.86
302650050,0.068994,-0.015541,-0.007684,0.03,-0.29,9.88
302651062,0.058341,-0.018737,-0.010879,0.01,-0.31,9.81
302652070,0.046623,-0.020867,-0.014075,0.00,-0.32,9.75
302653082,0.039166,-0.020867,-0.015140,-0.05,-0.28,9.77
302654090,0.028513,-0.019802,-0.016206,-0.01,-0.31,9.75
302655109,0.022121,-0.017671,-0.017271,-0.01,-0.27,9.87
302656118,0.022121,-0.012345,-0.018336,-0.08,-0.34,9.87
302657120,0.023187,-0.007019,-0.018336,-0.01,-0.38,9.86
302658127,0.033839,-0.002757,-0.014075,-0.07,-0.25,9.87
302659140,0.047688,-0.002757,-0.005553,-0.07,-0.29,9.75
302660147,0.055145,-0.000627,0.002969,0.08,-0.36,9.77
302661160,0.054080,0.007895,0.006165,-0.03,-0.34,9.88
