time_us,gyro_x_rad_s,gyro_y_rad_s,gyro_z_rad_s,acc_x_m_s2,acc_y_m_s2,acc_z_m_s2
2623714239,-0.002267,0.003324,-0.000616,0.03,-0.33,9.81
2623715565,-0.001037,0.003788,-0.001451,0.06,-0.31,9.83
2623716772,-0.001036,0.002719,0.000678,0.07,-0.32,9.81
2623717803,0.000030,0.002716,0.002806,0.05,-0.31,9.81
2623718845,0.001094,0.002713,0.002803,0.05,-0.32,9.83
2623719826,0.001093,0.000582,0.000671,0.07,-0.30,9.84
2623720836,0.002156,-0.000483,-0.000393,0.05,-0.28,9.83
2623721843,0.002154,-0.000483,-0.000393,0.03,-0.30,9.82
2623722852,0.002151,-0.001546,0.000672,0.03,-0.32,9.82
2623723893,0.004278,-0.001545,0.000671,0.04,-0.32,9.84
2623724869,0.003209,-0.000479,0.000670,0.05,-0.31,9.83
2623725879,0.000013,0.001650,0.001734,0.02,-0.29,9.83
2623726888,-0.001051,0.001648,0.001732,0.03,-0.29,9.85
2623727903,-0.001050,0.000582,0.001730,0.04,-0.32,9.82
2623728911,0.000015,-0.000482,0.000664,0.01,-0.33,9.83
2623729919,-0.001049,-0.001546,-0.000401,0.02,-0.34,9.84
2623730928,-0.001048,-0.000480,-0.000400,0.04,-0.35,9.82
2623731939,0.001082,-0.001544,-0.001464,0.04,-0.36,9.82
2623732948,0.001080,-0.001543,-0.001463,0.01,-0.33,9.80
2623733959,0.001079,-0.001541,-0.000397,0.03,-0.33,9.79
2623734968,0.000014,-0.001539,0.001732,0.06,-0.34,9.74
2623735990,0.001078,0.000591,0.001730,0.08,-0.34,9.77
2623736988,0.002141,0.001654,0.001728,0.07,-0.33,9.84
2623738003,0.001075,-0.001540,0.002791,0.02,-0.32,9.80
2623739011,0.001074,-0.004731,0.000660,0.03,-0.30,9.76
2623740019,0.001073,-0.004726,-0.001469,0.06,-0.30,9.83
2623741071,0.000008,-0.004722,-0.001468,0.06,-0.34,9.83
2623742076,-0.001057,-0.003653,0.000662,0.05,-0.35,9.81
2623743080,0.000009,-0.002585,0.001726,0.02,-0.32,9.83
2623744086,0.001073,-0.002582,0.001724,0.02,-0.30,9.80
2623745102,0.000008,-0.000451,0.001722,0.06,-0.32,9.77
2623746079,0.000008,0.000614,0.001720,0.04,-0.32,9.79
2623747088,0.001072,0.002741,0.000654,0.03,-0.32,9.78
2623748103,0.001071,0.002739,0.001718,0.02,-0.35,9.78
2623749111,0.001070,-0.000457,0.001716,0.05,-0.37,9.80
2623750119,0.000004,-0.001520,0.000650,0.10,-0.36,9.78
2623751128,-0.001060,-0.001519,-0.002543,0.09,-0.36,9.78
2623752139,-0.001059,-0.003646,-0.005733,0.07,-0.35,9.80
2623753179,0.000006,-0.002578,-0.006791,0.04,-0.32,9.79
2623754169,0.001071,-0.001511,-0.002528,0.04,-0.33,9.78
2623755168,0.002134,-0.000445,-0.001461,0.06,-0.32,9.83
2623756179,0.003196,-0.000445,-0.001460,0.05,-0.31,9.85
2623757188,0.003193,-0.001509,0.000670,0.05,-0.32,9.85
2623758222,0.002125,-0.001507,0.001734,0.06,-0.34,9.84
2623759211,0.001059,-0.001506,0.001732,0.08,-0.32,9.79
2623760219,-0.001071,-0.001504,0.001730,0.09,-0.31,9.80
2623761228,-0.001070,-0.000438,0.000664,0.06,-0.34,9.81
2623762239,-0.001068,-0.001502,-0.001465,0.04,-0.34,9.81
2623763248,-0.001067,-0.002565,-0.000399,0.05,-0.35,9.80
2623764259,-0.001066,-0.002562,-0.000399,0.05,-0.34,9.78
2623765268,-0.001065,-0.002560,-0.002527,0.03,-0.31,9.76
2623766279,0.000000,-0.002557,-0.002524,0.02,-0.29,9.79
2623767288,0.000000,-0.002554,-0.001457,0.02,-0.30,9.84
2623768303,0.000000,-0.002552,0.000673,0.02,-0.36,9.88
2623769311,-0.001064,-0.003613,-0.000392,0.04,-0.37,9.86
2623770319,-0.002127,-0.005738,-0.002520,0.04,-0.32,9.79
2623771328,-0.002125,-0.005732,-0.002518,0.03,-0.32,9.81
2623772339,-0.001059,-0.003598,-0.002515,0.06,-0.34,9.82
2623773348,0.000006,-0.000402,-0.000384,0.06,-0.34,9.81
2623774359,0.000006,0.001727,0.000680,0.06,-0.34,9.82
2623775368,-0.002122,0.001725,0.001744,0.07,-0.32,9.82
2623776391,-0.004248,-0.000405,0.000678,0.05,-0.34,9.80
2623777388,-0.001051,-0.002533,-0.000387,0.03,-0.34,9.81
2623778403,0.003207,-0.001466,0.001742,0.05,-0.33,9.84
2623779411,0.005332,-0.001465,0.001740,0.07,-0.34,9.84
2623780419,0.003198,-0.001463,0.000674,0.05,-0.34,9.82
2623781428,0.002131,0.000667,0.000673,0.04,-0.34,9.82
2623782439,0.001064,0.001730,0.000673,0.04,-0.34,9.81
2623783448,-0.000001,0.000664,-0.000392,0.04,-0.34,9.83
2623784460,0.002127,-0.000401,0.000672,0.02,-0.33,9.81
2623785468,0.002125,-0.000400,-0.000392,0.01,-0.33,9.79
2623786479,0.002123,-0.000400,0.000672,0.03,-0.31,9.81
2623787488,0.001057,-0.001464,0.001736,0.03,-0.30,9.84
2623788503,0.002120,-0.001462,0.000670,0.01,-0.33,9.83
2623789511,0.001053,-0.002525,0.000669,0.03,-0.34,9.81
2623790519,-0.001076,-0.002522,-0.000396,0.04,-0.32,9.80
2623791529,-0.002139,0.000673,-0.001460,0.01,-0.30,9.79
2623792539,-0.001073,0.003865,-0.001458,0.05,-0.30,9.80
2623793548,0.002121,0.001732,-0.001457,0.07,-0.29,9.81
2623794559,0.003183,-0.000398,-0.000391,0.02,-0.30,9.81
2623795568,0.001051,-0.001462,-0.001455,0.04,-0.33,9.79
2623796579,-0.001078,-0.000396,-0.001453,0.07,-0.33,9.79
2623797588,-0.000013,0.000669,-0.002516,0.10,-0.34,9.83
2623798610,-0.000013,-0.000396,-0.002514,0.11,-0.36,9.81
2623799629,-0.000013,-0.000396,0.000682,0.09,-0.31,9.85
2623800625,0.001051,0.000669,0.001745,0.05,-0.27,9.86
2623801637,0.002115,-0.000396,0.000679,0.06,-0.31,9.82
2623802652,0.001048,-0.002524,0.000678,0.10,-0.33,9.81
2623803647,-0.000017,-0.004650,0.000678,0.07,-0.34,9.79
2623804685,-0.001081,-0.003581,0.000677,0.04,-0.34,9.81
2623805670,-0.001080,-0.001449,0.001741,0.04,-0.34,9.83
2623806687,0.001049,0.000681,-0.000390,0.03,-0.36,9.86
2623807693,0.001048,0.001744,-0.001453,0.05,-0.34,9.86
2623808717,-0.000017,0.001743,-0.001452,0.05,-0.31,9.83
2623809729,-0.002145,0.002805,-0.000386,0.04,-0.31,9.81
2623810731,-0.001079,0.002802,0.001743,0.02,-0.29,9.82
2623811753,0.001051,0.000671,0.000677,0.00,-0.29,9.82
2623812768,0.002114,0.000670,-0.000388,0.06,-0.29,9.82
2623813760,0.001047,-0.000395,-0.002516,0.02,-0.30,9.74
2623814785,-0.001082,0.000670,-0.001450,0.00,-0.31,9.73
2623815805,-0.003209,0.001734,-0.000384,0.02,-0.29,9.82
2623816795,-0.003206,0.002796,0.000681,0.02,-0.30,9.82
2623817811,-0.000010,0.001729,0.000680,0.03,-0.34,9.86
2623818809,0.001054,-0.000401,0.000679,0.02,-0.35,9.81
2623819812,0.001053,-0.002529,-0.000386,0.03,-0.36,9.74
2623820874,0.002116,-0.000398,-0.001449,0.05,-0.33,9.80
2623821879,0.001050,0.000666,-0.001448,0.03,-0.32,9.82
2623822846,-0.001080,0.000666,-0.000382,0.01,-0.33,9.85
2623823853,-0.001079,-0.002528,-0.001446,0.03,-0.31,9.85
2623824862,0.001051,-0.003589,-0.001445,0.05,-0.32,9.81
2623825868,-0.000015,-0.004650,-0.000379,0.05,-0.34,9.78
2623826903,-0.001079,-0.004645,0.001750,0.07,-0.34,9.78
2623827892,-0.003206,-0.003576,0.002812,0.06,-0.32,9.83
2623828902,-0.004267,-0.003573,0.001745,0.04,-0.30,9.86
2623829908,-0.003198,-0.002505,0.000679,0.04,-0.29,9.80
2623830919,-0.003195,-0.001438,0.000679,0.04,-0.30,9.78
2623831928,-0.003192,-0.001437,0.000678,0.02,-0.31,9.83
2623832939,-0.002125,-0.000371,-0.000387,0.01,-0.30,9.81
2623833948,-0.002122,0.002822,0.000678,0.04,-0.32,9.78
2623834959,-0.001056,0.003883,0.002805,0.04,-0.31,9.84
2623835968,-0.001055,0.002815,0.002802,0.02,-0.28,9.84
2623836979,-0.001054,0.000684,0.002800,0.02,-0.31,9.81
2623837992,0.000011,-0.000381,0.001733,0.07,-0.34,9.78
2623839046,0.001075,-0.002509,-0.000398,0.10,-0.33,9.79
2623840008,0.001074,-0.003571,-0.001461,0.09,-0.31,9.84
2623841019,0.003202,-0.003567,-0.001460,0.06,-0.33,9.83
2623842064,0.005327,-0.002499,-0.001458,0.02,-0.35,9.82
2623843069,0.004257,-0.000368,0.000671,0.04,-0.34,9.81
2623844048,0.003189,-0.000368,0.001735,0.03,-0.35,9.81
2623845059,0.002121,-0.000368,0.000669,0.04,-0.31,9.86
2623846068,0.001055,-0.001432,-0.000396,0.05,-0.31,9.85
2623847079,-0.000010,-0.002494,-0.000395,0.06,-0.33,9.82
2623848092,-0.002139,-0.002492,-0.001459,0.07,-0.33,9.84
2623849102,-0.003201,0.000703,-0.002522,0.06,-0.35,9.85
2623850148,-0.003197,0.002831,-0.002519,0.07,-0.37,9.83
2623851119,-0.003194,0.003892,-0.002517,0.07,-0.33,9.89
2623852128,-0.002127,0.002824,-0.002514,0.07,-0.32,9.91
2623853171,-0.001060,-0.000371,-0.002512,0.07,-0.32,9.85
2623854190,0.002133,-0.003563,-0.002509,0.08,-0.31,9.80
2623855159,0.003195,-0.004624,-0.002507,0.09,-0.32,9.77
2623856168,0.002128,-0.002491,-0.000376,0.07,-0.30,9.76
2623857179,-0.000003,-0.001424,0.001753,0.05,-0.30,9.77
2623858192,-0.001067,-0.000359,-0.000377,0.02,-0.30,9.78
2623859202,-0.003194,0.000706,-0.001441,0.03,-0.29,9.80
2623860208,-0.004255,0.001769,-0.001439,0.06,-0.27,9.80
2623861219,-0.002122,0.001768,-0.002502,0.04,-0.31,9.78
2623862228,0.000008,0.001766,-0.002500,0.05,-0.35,9.77
2623863239,0.002137,-0.000364,-0.000369,0.07,-0.34,9.79
2623864265,0.002134,0.000700,0.001760,0.07,-0.34,9.82
2623865259,-0.002125,0.001764,0.001758,0.06,-0.33,9.84
2623866268,-0.004251,0.000698,0.002821,0.04,-0.31,9.88
2623867279,-0.004247,-0.001431,0.001754,0.03,-0.29,9.90
2623868310,-0.001050,-0.003558,-0.001441,0.04,-0.32,9.84
2623869302,0.001080,-0.003555,-0.001439,0.01,-0.36,9.83
2623870308,0.002143,-0.002487,-0.000374,0.01,-0.35,9.85
2623871319,0.002141,-0.003549,-0.000373,0.04,-0.33,9.82
2623872328,0.000010,-0.003545,-0.001437,0.02,-0.31,9.78
2623873339,-0.002118,0.000715,-0.000371,-0.01,-0.31,9.79
2623874348,-0.002116,0.002843,-0.000371,0.03,-0.34,9.80
2623875359,-0.001050,0.000712,-0.001435,0.05,-0.32,9.78
2623876368,-0.001049,-0.000353,-0.003562,0.05,-0.31,9.77
2623877379,0.001081,-0.001417,-0.002494,0.08,-0.33,9.81
2623878392,0.000015,-0.000351,-0.001427,0.07,-0.30,9.82
2623879402,0.000015,-0.000351,-0.001426,0.04,-0.32,9.82
2623880408,0.001080,-0.001415,-0.000360,0.06,-0.34,9.86
2623881419,0.003207,-0.001413,0.000704,0.09,-0.33,9.84
2623882428,0.003204,-0.002476,0.000704,0.06,-0.33,9.79
2623883439,0.002136,-0.000345,0.000703,0.01,-0.30,9.79
2623884448,0.001070,0.001783,0.001766,0.04,-0.32,9.82
2623885487,0.000005,-0.003539,-0.000364,0.07,-0.34,9.82
2623886468,0.000005,-0.003536,-0.002492,0.02,-0.34,9.86
2623887479,0.000005,-0.003532,-0.001425,0.02,-0.33,9.86
2623888492,0.000005,-0.002464,0.000705,0.07,-0.34,9.81
2623889502,0.000005,0.001795,0.000704,0.07,-0.34,9.79
2623890508,0.001069,0.002857,-0.000361,0.05,-0.32,9.83
2623891519,0.001068,0.001790,-0.002489,0.05,-0.31,9.81
2623892528,0.000002,-0.000340,-0.003551,0.07,-0.30,9.81
2623893539,0.000002,-0.001404,-0.001419,0.06,-0.31,9.81
2623894548,0.000002,-0.001402,-0.000353,0.05,-0.33,9.78
2623895559,-0.001062,-0.001401,-0.001417,0.05,-0.31,9.81
2623896568,-0.001061,-0.001400,-0.000351,0.03,-0.29,9.83
2623897579,0.000005,-0.000334,-0.001415,0.04,-0.31,9.80
2623898612,0.002133,0.000731,-0.003542,0.03,-0.32,9.77
2623899603,0.003195,0.000730,-0.001410,0.04,-0.32,9.74
2623900619,0.003192,-0.001399,0.000720,0.06,-0.33,9.79
2623901629,0.001060,-0.000334,0.000719,0.03,-0.31,9.81
2623902630,-0.002134,-0.000333,-0.000346,0.03,-0.33,9.79
2623903687,-0.002131,-0.000333,-0.001410,0.05,-0.33,9.80
2623904653,-0.003193,-0.001397,-0.002472,0.04,-0.34,9.77
2623905667,-0.002126,-0.001396,-0.002470,0.03,-0.33,9.81
2623906674,-0.001060,-0.001394,-0.000339,0.04,-0.31,9.83
2623907692,0.002134,-0.001393,0.001790,0.04,-0.35,9.83
2623908706,0.001068,-0.001391,0.001788,0.06,-0.36,9.82
2623909713,-0.003190,-0.000326,0.000722,0.07,-0.32,9.78
2623910729,-0.004251,0.000739,-0.000343,0.05,-0.33,9.78
2623911739,-0.002118,-0.000326,-0.001407,0.07,-0.34,9.79
2623912774,0.001076,-0.001390,-0.001405,0.08,-0.33,9.80
2623913761,0.003204,-0.000324,0.000724,0.06,-0.28,9.76
2623914779,0.001072,0.001804,0.001788,0.04,-0.28,9.80
2623915775,0.000007,0.001803,0.000722,0.04,-0.32,9.85
2623916794,0.001071,-0.001392,0.000721,0.05,-0.34,9.84
2623917814,0.002134,-0.003519,0.000720,0.04,-0.32,9.88
2623918823,0.003196,-0.002451,-0.000344,0.03,-0.31,9.85
2623919815,0.003193,-0.001384,-0.001408,0.02,-0.29,9.81
2623920824,0.002125,-0.001383,-0.000343,0.06,-0.27,9.81
2623921841,-0.000005,0.000747,-0.000342,0.07,-0.29,9.80
2623922881,-0.001069,0.001810,0.000722,0.04,-0.32,9.79
2623923875,-0.001068,0.001808,0.001786,0.04,-0.32,9.82
2623924854,0.001061,0.001807,0.000720,0.05,-0.30,9.82
2623925863,-0.000004,0.000741,-0.000345,0.05,-0.33,9.79
2623926879,-0.001068,0.000740,0.000719,0.04,-0.33,9.80
2623927896,-0.002131,0.000739,0.000718,0.05,-0.31,9.84
2623928892,-0.001065,-0.000326,0.000718,0.03,-0.32,9.83
2623929907,0.000000,-0.001390,0.001781,0.01,-0.32,9.77
2623930916,0.001065,-0.001388,0.000715,0.04,-0.32,9.76
2623931921,-0.000001,-0.002451,-0.000350,0.05,-0.32,9.80
2623932929,-0.000001,-0.001385,0.000715,0.04,-0.31,9.82
2623933941,-0.001065,-0.000319,0.002843,0.02,-0.32,9.82
2623934966,-0.001064,0.000746,0.006032,0.03,-0.32,9.86
2623935961,0.001066,0.002873,0.006026,0.04,-0.31,9.86
2623936969,0.002129,0.002870,0.004956,0.03,-0.30,9.81
2623937995,0.001062,0.000739,0.002822,0.03,-0.31,9.78
2623938992,-0.001067,-0.002454,0.001755,0.04,-0.32,9.82
2623940007,-0.003194,-0.003516,0.000689,0.06,-0.30,9.87
2623941011,-0.003191,-0.002448,0.001753,0.05,-0.30,9.84
2623942045,-0.002124,-0.002446,0.001751,0.05,-0.32,9.80
2623943029,0.000007,-0.003507,0.000685,0.05,-0.31,9.82
2623944041,0.000007,-0.003504,-0.000380,0.03,-0.31,9.86
2623945049,0.000007,-0.002436,-0.000379,0.01,-0.32,9.84
2623946086,-0.001057,-0.000305,-0.000379,0.00,-0.31,9.79
2623947069,-0.001056,0.000759,0.002814,0.02,-0.35,9.80
2623948084,-0.001055,0.002887,0.003875,0.01,-0.35,9.82
2623949092,-0.002118,0.002884,0.002807,0.01,-0.33,9.81
2623950107,-0.002116,0.000753,0.001740,0.04,-0.32,9.83
2623951111,-0.002114,-0.000312,0.001739,0.06,-0.31,9.85
2623952121,-0.002112,0.001816,0.001737,0.07,-0.33,9.84
2623953129,-0.002110,0.001814,0.000671,0.05,-0.32,9.82
2623954177,0.000021,-0.001380,-0.000394,0.04,-0.32,9.83
2623955185,0.002149,-0.003507,-0.000394,0.05,-0.33,9.83
2623956161,0.003211,-0.002439,0.001735,0.06,-0.34,9.80
2623957169,0.002144,-0.000308,0.002798,0.07,-0.34,9.83
2623958184,0.001077,0.001820,0.001731,0.07,-0.32,9.89
2623959192,0.000012,0.002883,-0.002528,0.06,-0.36,9.85
2623960207,-0.001052,0.002880,-0.003590,0.05,-0.34,9.82
2623961211,-0.001051,0.000749,-0.003586,0.04,-0.31,9.82
2623962221,-0.001050,-0.000316,-0.002518,0.03,-0.34,9.85
2623963229,-0.001049,0.001812,-0.000387,0.06,-0.34,9.88
2623964241,-0.002112,0.002875,0.000677,0.05,-0.33,9.85
2623965249,-0.003174,-0.000321,-0.000387,0.02,-0.31,9.83
2623966261,-0.002107,-0.001385,-0.000387,0.05,-0.32,9.82
2623967269,0.000024,-0.001383,-0.000387,0.10,-0.33,9.80
2623968284,0.001088,-0.000318,0.000678,0.09,-0.34,9.86
2623969292,0.000023,0.003939,0.000677,0.05,-0.33,9.88
2623970307,-0.001042,0.005000,-0.000388,0.04,-0.31,9.87
2623971311,-0.001041,0.003930,0.000677,0.08,-0.30,9.85
2623972321,0.000025,0.001798,-0.000388,0.08,-0.32,9.81
2623973329,0.000025,0.000732,-0.001452,0.06,-0.32,9.83
2623974341,-0.001040,-0.000333,0.000678,0.05,-0.30,9.85
2623975349,0.001090,-0.002461,0.002806,0.04,-0.33,9.83
2623976369,0.002153,-0.001394,0.001739,0.03,-0.36,9.76
2623977369,0.002151,-0.001393,0.000673,0.03,-0.35,9.74
2623978384,0.002149,-0.001391,-0.000392,0.05,-0.32,9.81
2623979392,0.002146,-0.001390,-0.000392,0.09,-0.29,9.81
2623980417,0.000016,-0.001389,-0.000391,0.04,-0.28,9.80
2623981424,-0.002113,0.001805,-0.001455,0.02,-0.32,9.85
2623982421,-0.003175,0.003932,-0.000389,0.03,-0.34,9.82
2623983429,-0.003171,0.001800,0.000675,0.00,-0.31,9.78
2623984441,-0.003168,-0.001395,0.000675,0.01,-0.34,9.82
2623985449,-0.002101,-0.001393,0.001738,0.02,-0.34,9.87
2623986480,-0.002099,0.001801,0.001736,0.05,-0.36,9.85
2623987469,-0.001032,0.001799,0.001735,0.05,-0.34,9.85
2623988484,0.001097,0.001797,0.002797,0.04,-0.33,9.85
2623989492,0.000032,0.001795,0.001730,0.03,-0.32,9.82
2623990507,0.000032,0.000729,0.001728,0.01,-0.31,9.80
2623991511,-0.001033,0.000728,0.001727,0.03,-0.31,9.82
2623992521,0.000033,0.000728,0.001725,0.04,-0.30,9.82
2623993529,0.001097,0.000727,0.001723,0.03,-0.31,9.82
2623994541,0.002160,-0.000338,-0.001471,0.06,-0.31,9.82
2623995549,0.001094,-0.001402,-0.003598,0.01,-0.32,9.79
2623996561,-0.001036,-0.001400,-0.002530,0.02,-0.33,9.74
2623997569,-0.003163,-0.002463,0.002793,0.08,-0.33,9.80
2623998584,-0.002096,-0.003525,0.004919,0.07,-0.32,9.84
2623999592,0.000035,-0.001393,0.001721,0.07,-0.33,9.79
2624000610,0.001099,0.001801,0.001719,0.03,-0.34,9.76
2624001606,0.001098,0.001799,0.001718,0.01,-0.33,9.79
2624002629,0.001097,0.000733,0.000652,0.03,-0.32,9.79
2624003627,0.000031,-0.000332,-0.001477,0.05,-0.31,9.79
2624004648,-0.002097,-0.000331,-0.001476,0.05,-0.34,9.80
2624005658,-0.002095,0.000733,-0.000410,0.04,-0.35,9.80
2624006661,0.000036,0.000732,0.001719,0.05,-0.32,9.80
2624007674,0.002164,0.001796,0.001717,0.07,-0.34,9.79
2624008702,0.005354,0.002858,0.000651,0.07,-0.34,9.86
2624009698,0.005349,0.000727,-0.000414,0.06,-0.31,9.84
2624010715,0.004279,-0.001402,-0.001478,0.04,-0.32,9.81
2624011722,0.001082,-0.002465,-0.000412,0.04,-0.30,9.86
2624012764,-0.002111,-0.002463,-0.000411,0.05,-0.32,9.83
2624013738,-0.002109,-0.001396,0.000653,0.04,-0.34,9.80
2624014767,0.000021,-0.000330,0.002781,0.01,-0.31,9.83
2624015779,0.000021,-0.001394,0.004906,0.02,-0.34,9.85
2624016775,0.002150,-0.002457,0.003837,0.02,-0.33,9.84
2624017792,0.001083,-0.000326,0.000641,0.04,-0.35,9.83
2624018823,0.001082,0.000739,0.000640,0.04,-0.39,9.85
2624019822,0.003209,0.000738,0.001704,0.05,-0.37,9.82
2624020814,0.003206,-0.000327,0.000638,0.07,-0.34,9.77
2624021832,0.001075,-0.000327,-0.000427,0.05,-0.32,9.79
2624022829,-0.001055,0.000738,0.000638,0.04,-0.35,9.79
2624023840,-0.002118,0.001801,0.000637,0.04,-0.31,9.81
2624024850,-0.002116,0.001799,0.000636,0.02,-0.30,9.87
2624025895,-0.001050,-0.001395,-0.001493,0.01,-0.35,9.85
2624026863,0.001080,-0.003522,-0.003620,0.04,-0.35,9.81
2624027909,0.002143,-0.002454,-0.002552,0.05,-0.32,9.80
2624028883,0.000013,-0.002452,0.000643,0.07,-0.30,9.78
2624029895,-0.002116,-0.000321,0.001707,0.07,-0.33,9.78
2624030902,-0.001050,0.000744,0.000641,0.05,-0.36,9.83
2624031909,0.001080,-0.000321,-0.000424,0.04,-0.34,9.87
2624032933,0.000015,-0.000321,-0.000423,0.02,-0.31,9.89
2624033929,0.000015,0.000744,0.000641,0.02,-0.31,9.84
2624034941,0.000015,-0.000321,-0.000424,0.04,-0.32,9.82
2624035949,-0.001050,-0.001385,0.000641,0.07,-0.32,9.85
2624036961,0.000016,-0.002448,0.001705,0.08,-0.33,9.84
2624037973,0.002144,-0.000317,0.002767,0.08,-0.33,9.83
2624038983,0.004270,-0.000317,0.002764,0.07,-0.30,9.81
2624039995,0.005330,-0.001381,0.002761,0.05,-0.28,9.78
2624041002,0.003196,-0.003508,0.000630,0.04,-0.30,9.78
2624042009,0.000000,-0.002440,-0.000435,0.08,-0.34,9.78
2624043021,-0.001064,-0.000309,-0.000434,0.06,-0.34,9.76
2624044029,0.000002,-0.000309,0.000631,0.01,-0.30,9.78
2624045041,0.001066,0.000756,0.000630,0.05,-0.31,9.79
2624046049,0.001065,0.000755,0.002758,0.08,-0.35,9.86
2624047102,0.001064,0.001818,0.004883,0.03,-0.34,9.90
2624048125,-0.001066,0.001816,0.002750,0.02,-0.33,9.83
2624049083,-0.000001,0.000750,-0.000446,0.05,-0.33,9.81
2624050124,-0.000001,-0.001379,0.000619,0.05,-0.34,9.83
2624051102,-0.000001,-0.001377,0.001683,0.06,-0.33,9.84
2624052109,-0.000001,-0.001376,0.000617,0.05,-0.32,9.81
2624053121,-0.000001,-0.002439,0.000616,0.03,-0.36,9.78
2624054129,0.002128,-0.002436,-0.000449,0.03,-0.37,9.84
2624055141,0.002126,-0.001370,-0.001512,0.05,-0.34,9.87
2624056149,0.002124,0.000760,-0.000447,0.07,-0.34,9.82
2624057161,0.001057,0.002888,-0.000446,0.06,-0.35,9.81
2624058173,-0.000008,0.001821,0.000618,0.05,-0.35,9.84
2624059183,-0.000008,0.001819,0.000618,0.05,-0.33,9.81
2624060189,0.001056,0.002881,0.000617,0.07,-0.35,9.83
2624061201,-0.000009,0.002878,-0.000448,0.05,-0.37,9.81
2624062209,0.001055,0.000747,-0.000447,0.04,-0.33,9.78
2624063221,0.002118,-0.000318,0.002746,0.05,-0.31,9.83
2624064229,0.002116,-0.001382,0.004871,0.07,-0.31,9.83
2624065241,-0.000014,-0.001381,0.003802,0.09,-0.33,9.82
2624066249,-0.000014,-0.000315,0.002734,0.06,-0.35,9.77
2624067261,0.003178,-0.001379,0.000603,0.06,-0.34,9.76
2624068273,0.004239,-0.002442,0.000603,0.06,-0.30,9.78
2624069283,0.003171,-0.002439,0.000602,0.06,-0.33,9.76
2624070289,-0.000025,-0.003501,0.000601,0.04,-0.35,9.80
2624071301,-0.002154,-0.002433,0.000601,0.03,-0.34,9.80
2624072309,-0.001087,-0.000302,0.000600,0.04,-0.32,9.78
2624073321,-0.001086,0.001826,0.000599,0.03,-0.33,9.85
2624074329,0.001043,0.001824,0.000599,0.00,-0.34,9.86
2624075341,-0.000022,0.000758,-0.000466,0.01,-0.31,9.78
2624076349,-0.001086,0.000758,-0.000465,0.04,-0.32,9.80
2624077361,-0.003213,-0.000307,0.000599,0.03,-0.34,9.82
2624078373,-0.002146,0.000757,0.000599,0.03,-0.31,9.77
2624079383,-0.001079,0.001821,-0.000466,0.07,-0.34,9.79
2624080389,-0.001078,0.001819,0.000598,0.06,-0.33,9.82
2624081401,-0.001077,0.000753,0.001662,0.06,-0.31,9.80
2624082409,-0.000012,0.000752,0.001660,0.08,-0.31,9.78
2624083421,-0.000012,0.001815,0.001659,0.07,-0.30,9.80
2624084429,-0.000012,0.000749,0.002721,0.04,-0.33,9.81
2624085441,0.001052,-0.002444,0.000590,0.03,-0.34,9.81
2624086449,-0.000013,-0.004570,-0.000475,0.03,-0.36,9.84
2624087461,-0.000013,-0.003501,0.000590,0.06,-0.34,9.82
2624088473,-0.000013,-0.000305,0.000589,0.05,-0.33,9.84
2624089483,-0.002141,0.001824,0.000589,0.02,-0.37,9.82
2624090489,-0.004268,0.000758,0.001652,0.03,-0.36,9.81
2624091501,-0.003199,-0.000307,0.003779,0.03,-0.33,9.84
2624092509,-0.002132,0.000757,0.003775,0.06,-0.34,9.77
2624093521,-0.000001,0.000757,0.002707,0.10,-0.34,9.78
2624094529,0.001063,-0.000308,0.000576,0.06,-0.34,9.83
2624095541,0.001062,-0.001372,-0.000489,0.01,-0.34,9.86
2624096549,0.003189,-0.001371,-0.001552,0.03,-0.32,9.86
2624097561,0.002122,0.000759,-0.002615,0.03,-0.32,9.85
2624098573,0.001056,0.002886,-0.002612,0.02,-0.33,9.84
2624099583,0.002119,0.002884,-0.002610,0.03,-0.34,9.81
2624100589,0.003181,0.001816,-0.002607,0.03,-0.32,9.83
2624101603,-0.000015,0.000750,-0.002604,0.03,-0.31,9.80
2624102610,-0.002143,-0.000315,-0.000473,0.04,-0.34,9.80
2624103628,-0.001077,-0.001378,0.001656,0.03,-0.34,9.87
2624104631,-0.000012,-0.001377,0.000590,0.02,-0.31,9.85
2624105648,-0.001076,-0.001376,0.000589,0.01,-0.33,9.82
2624106653,-0.002139,-0.002438,0.000588,0.04,-0.35,9.83
2624107666,-0.004265,-0.001372,0.000588,0.07,-0.34,9.84
2624108679,-0.003197,-0.001370,-0.000477,0.06,-0.32,9.82
2624109691,-0.000001,-0.000305,0.000588,0.06,-0.32,9.77
2624110692,0.001063,-0.001369,0.001651,0.05,-0.33,9.78
2624111712,-0.001066,-0.000303,0.001650,0.06,-0.34,9.79
2624112722,-0.001065,0.000761,0.002712,0.06,-0.33,9.83
2624113735,0.002128,0.001825,0.004838,0.02,-0.32,9.84
2624114738,0.002126,0.001823,0.004833,0.02,-0.32,9.77
2624115760,0.001060,0.001821,0.003764,0.03,-0.32,9.74
2624116763,-0.001070,0.000755,0.002696,0.02,-0.32,9.80
2624117775,-0.001068,-0.000310,0.001629,0.04,-0.33,9.82
2624118784,-0.000003,-0.001374,-0.000501,0.08,-0.32,9.82
2624119798,0.001061,-0.001372,-0.000501,0.11,-0.34,9.78
2624120798,0.002124,0.000757,0.000564,0.07,-0.34,9.78
2624121821,0.001058,0.000757,0.000564,0.04,-0.33,9.82
2624122814,-0.000007,0.000756,0.000563,0.06,-0.29,9.82
2624123857,-0.001072,0.001819,-0.000502,0.05,-0.28,9.81
2624124907,0.001058,0.001817,-0.000501,0.00,-0.33,9.76
2624125816,0.003188,0.001817,0.000564,0.10,-0.50,9.75
2624126820,0.052191,-0.009901,0.029327,0.05,-0.32,9.84
2624127851,0.104390,-0.023749,0.042110,-0.06,-0.17,9.74
2624128839,0.062844,-0.014162,0.027196,0.00,-0.23,9.72
2624129853,0.006384,-0.001378,0.017608,-0.05,-0.20,9.87
2624130855,-0.029835,-0.002444,0.024000,0.00,-0.19,9.87
2624131867,-0.020248,-0.009901,0.036784,0.14,-0.24,9.95
2624132875,-0.001073,-0.009901,0.046371,0.26,-0.30,10.01
2624133887,0.023429,-0.001378,0.045306,0.24,-0.49,9.81
2624134895,0.018102,0.002883,0.036784,0.05,-0.74,9.37
2624135907,-0.024509,0.005013,0.025065,-0.34,-0.42,9.64
2624136938,-0.042619,0.003948,0.015478,-0.38,0.05,9.85
2624137927,-0.035162,-0.009901,0.020804,0.31,-0.02,9.95
2624138939,-0.007464,-0.021619,0.031457,0.59,-1.02,10.06
2624139953,0.013841,-0.013096,0.026131,-0.16,-0.56,9.78
2624140955,-0.011726,-0.000313,0.012282,-0.56,0.46,10.18
2624141967,-0.056467,-0.015227,0.009086,0.35,-0.87,9.74
2624142975,-0.004269,-0.031206,0.008021,0.59,-1.45,8.70
2624143987,0.059648,-0.010966,-0.003697,-0.77,1.18,10.23
2624144995,0.010645,-0.008835,-0.004762,-0.15,-0.12,9.94
2624146007,-0.036227,-0.025880,-0.003697,0.99,-2.41,8.13
2624147015,-0.008530,0.020992,-0.012219,-0.88,1.40,11.95
2624148030,0.024494,0.013536,-0.017546,-0.13,-0.98,11.40
2624149041,0.054322,-0.058904,-0.034590,1.04,-1.24,7.40
2624150047,0.046865,-0.021619,-0.038851,-0.99,1.81,13.08
2624151071,-0.006399,-0.017358,-0.029264,0.72,-2.53,7.09
2624152067,0.019168,0.010340,-0.035656,0.01,0.84,7.88
2624153075,0.022363,0.050820,-0.027133,-0.70,-0.62,12.75
2624154087,0.020233,-0.022684,-0.036721,0.89,-0.34,5.78
2624155095,0.036212,0.014601,-0.035656,-0.85,0.11,13.44
2624156107,-0.033031,-0.047185,-0.027133,0.97,-0.41,7.75
2624157115,-0.027705,-0.001378,-0.015415,-0.58,-0.21,12.55
2624158130,-0.037292,0.006079,-0.009024,0.37,-0.28,8.48
2624159162,-0.033031,0.003948,-0.000501,-0.02,-0.19,11.29
2624160147,0.030886,0.002883,0.003760,-0.18,-0.56,8.72
2624161155,0.042604,-0.014162,0.009086,0.73,0.04,8.65
2624162167,0.029820,0.012470,0.009086,-0.47,-0.26,11.19
2624163195,-0.018117,0.016731,0.005890,0.86,-0.27,8.00
2624164187,0.009580,0.035906,0.005890,-0.63,-0.71,12.15
2624165195,0.025559,0.023123,0.015478,0.58,0.57,7.65
2624166207,0.042604,0.003948,0.016543,-0.46,-1.44,12.45
2624167215,0.006384,-0.009901,0.022935,0.39,1.23,6.63
2624168241,-0.052206,0.002883,0.022935,0.23,-1.12,11.11
2624169241,-0.056467,0.022058,0.013347,-0.48,-0.43,9.39
2624170247,-0.035162,0.020992,0.008021,0.97,0.97,8.42
2624171256,0.003188,0.006079,0.004825,-0.95,-1.88,12.87
2624172267,0.007449,-0.016292,0.006956,0.35,0.64,9.21
2624173275,-0.009595,-0.023749,0.013347,0.79,0.04,9.55
2624174287,-0.018117,-0.016292,0.012282,-0.84,-1.88,12.21
2624175295,0.002123,0.009274,0.004825,0.46,0.97,6.97
2624176307,-0.000007,0.022058,0.000564,0.70,0.10,8.74
2624177315,-0.050076,-0.005640,0.005890,-1.00,-2.07,11.27
2624178330,-0.043684,-0.014162,0.003760,0.24,0.66,7.46
2624179341,-0.037292,-0.022684,0.003760,1.15,0.82,9.52
2624180347,-0.023444,-0.021619,0.004825,-1.13,-2.19,13.97
2624181355,-0.017052,-0.021619,0.003760,-0.21,-0.49,10.16
2624182367,-0.002138,-0.012031,-0.012219,1.24,1.38,7.78
2624183375,0.002123,-0.004574,-0.023937,-0.24,-1.02,11.24
2624184387,0.002123,0.005013,-0.026068,-1.08,-2.05,10.35
2624185395,-0.026639,0.006079,-0.021807,0.64,0.84,6.10
2624186407,-0.013856,-0.026945,-0.015415,-0.88,-1.90,12.82
2624187415,0.008515,-0.030141,-0.015415,-0.82,-1.72,10.71
2624188430,0.005319,-0.023749,-0.014350,0.98,1.12,7.19
2624189441,-0.029835,-0.005640,-0.013285,0.92,1.39,9.85
2624190447,-0.018117,-0.004574,-0.005828,-0.96,-1.77,13.38
2624191455,0.009580,-0.033337,-0.003697,-1.11,-2.35,10.45
2624192467,0.020233,-0.043990,-0.007958,0.53,0.62,6.63
2624193475,0.017037,-0.028010,-0.010089,1.37,1.76,7.42
2624194487,0.024494,0.018862,-0.002632,-0.11,-0.22,11.95
2624195495,0.002123,0.039102,0.003760,-1.35,-2.49,12.18
2624196507,-0.023444,0.017797,0.002695,-0.54,-1.50,9.21
2624197515,-0.037292,-0.019488,0.004825,0.94,1.33,6.90
2624198530,-0.038358,-0.030141,0.003760,1.09,1.74,9.18
2624199541,-0.019183,0.005013,0.002695,-0.17,-0.71,12.69
2624200547,0.001058,0.015666,0.006956,-1.22,-2.29,12.83
2624201555,0.008515,-0.012031,0.012282,-0.86,-1.61,9.28
2624202567,0.010645,-0.035467,0.010152,0.67,0.34,6.12
2624203575,0.017037,-0.020553,0.006956,1.28,1.57,7.27
2624204587,0.008515,0.003948,0.004825,0.59,0.67,10.18
2624205596,-0.000007,0.032711,0.000564,-0.72,-1.14,13.02
2624206610,-0.000007,0.033776,-0.005828,-1.17,-2.32,11.61
2624207617,-0.018117,0.005013,-0.003697,-0.61,-1.59,9.16
2624208635,-0.028770,-0.023749,0.004825,0.56,0.21,7.58
2624209646,-0.025574,-0.030141,0.010152,1.29,1.55,8.27
2624210652,-0.027705,-0.007770,0.010152,0.78,0.87,11.01
2624211663,-0.033031,0.001817,0.002695,-0.05,-0.36,12.11
2624212679,-0.007464,-0.001378,-0.003697,-1.03,-1.27,12.08
2624213686,-0.005334,-0.016292,-0.004762,-0.95,-1.90,9.17
2624214699,0.011711,-0.012031,-0.010089,-0.21,-1.17,7.15
2624215703,0.014906,0.006079,-0.013285,0.63,-0.06,6.99
2624216720,-0.007464,0.010340,-0.010089,1.24,0.88,7.86
2624217724,-0.025574,0.015666,-0.006893,0.92,1.27,10.96
2624218749,-0.019183,0.000752,-0.005828,0.36,0.64,12.71
2624219756,0.017037,-0.023749,-0.003697,-0.52,-0.31,13.45
2624220769,0.039408,-0.051447,-0.004762,-0.95,-1.21,11.65
2624221773,0.052191,-0.036533,-0.007958,-0.76,-1.87,9.24
2624222779,0.014906,-0.007770,-0.005828,-0.28,-1.71,7.20
2624223795,0.014906,0.003948,0.001629,0.35,-0.77,6.29
2624224791,0.056452,0.015666,-0.015415,0.77,0.24,7.52
2624225805,-0.015987,-0.013096,-0.014350,1.07,0.98,8.78
2624226816,-0.084165,-0.046120,0.014413,0.75,1.34,11.46
2624227820,-0.052206,-0.043990,0.032522,0.31,1.07,12.53
2624228832,0.023429,0.001817,0.027196,-0.31,0.11,13.10
2624229841,0.072432,0.042298,0.012282,-0.79,-1.04,11.90
2624230860,0.047930,0.033776,0.011217,-0.84,-1.79,10.27
2624231856,-0.001073,-0.004574,0.020804,-0.57,-2.10,8.50
2624232867,-0.056467,-0.035467,0.018674,-0.09,-1.80,7.33
2624233875,-0.057533,-0.009901,-0.000501,0.18,-1.18,7.52
2624234887,-0.042619,0.019927,-0.002632,0.66,-0.23,7.29
2624235895,-0.035162,0.020992,0.003760,0.77,0.74,8.91
2624236907,-0.026639,0.008209,0.011217,0.78,1.51,10.05
2624237915,0.007449,-0.004574,0.015478,0.60,1.61,11.72
2624238930,0.012776,-0.002444,0.008021,0.16,1.29,12.33
2624239941,0.024494,-0.018423,0.009086,-0.06,0.80,11.92
2624240947,0.067105,-0.018423,0.004825,-0.32,-0.33,11.38
2624241955,0.051126,0.000752,-0.010089,-0.48,-1.15,10.31
2624242967,-0.020248,0.019927,-0.012219,-0.73,-1.92,9.60
2624243975,-0.069251,0.011405,0.005890,-0.61,-2.47,8.85
2624244987,-0.075642,-0.020553,0.027196,-0.26,-2.20,8.58
2624245995,-0.040488,-0.033337,0.030392,-0.21,-1.90,8.39
2624247007,-0.019183,-0.035467,0.024000,0.00,-1.28,8.35
2624248019,-0.010660,-0.029076,0.017608,0.35,-0.37,8.48
2624249033,-0.019183,-0.032272,0.013347,0.64,0.27,7.93
2624250059,-0.038358,-0.026945,0.009086,0.67,0.98,8.64
2624251048,-0.049010,-0.009901,-0.009024,0.69,1.49,9.24
2624252055,-0.023444,0.028449,-0.032460,0.52,1.72,10.28
2624253067,0.011711,0.054016,-0.030329,0.31,1.57,11.66
2624254075,-0.007464,0.027384,-0.005828,0.31,1.09,12.17
2624255087,-0.038358,-0.006705,0.004825,0.16,0.51,12.77
2624256095,-0.019183,-0.008835,-0.000501,-0.10,-0.39,12.67
2624257107,0.022363,-0.014162,-0.000501,-0.43,-1.22,12.07
2624258141,0.041538,-0.035467,-0.006893,-0.56,-1.54,10.41
2624259133,0.046865,-0.033337,-0.016481,-0.62,-1.86,8.92
2624260135,0.028755,-0.012031,-0.013285,-0.56,-2.18,7.33
2624261147,0.002123,0.015666,-0.009024,-0.50,-2.12,7.15
2624262155,-0.003203,0.028449,0.001629,-0.54,-1.92,7.88
2624263167,0.003188,0.010340,0.003760,-0.30,-1.56,8.39
2624264175,0.023429,-0.000313,0.004825,-0.04,-0.96,9.15
2624265187,0.013841,-0.006705,0.000564,0.24,-0.38,9.11
2624266208,-0.004269,0.009274,0.003760,0.55,0.35,9.04
2624267207,-0.020248,0.034841,0.000564,0.46,0.62,8.96
2624268219,-0.018117,0.023123,0.001629,0.35,0.82,9.46
2624269233,0.028755,-0.013096,-0.000501,0.61,1.26,9.92
2624270235,0.055387,-0.055708,-0.004762,0.75,1.51,10.17
2624271247,0.051126,-0.063165,0.001629,0.69,1.63,10.50
2624272255,0.023429,-0.017358,0.009086,0.58,1.23,10.90
2624273267,-0.005334,0.027384,0.003760,0.29,0.70,11.29
2624274275,-0.008530,0.012470,0.002695,0.04,0.36,11.67
2624275287,0.010645,-0.031206,0.001629,0.06,-0.05,11.44
2624276295,0.020233,-0.032272,-0.002632,0.00,-0.54,10.92
2624277307,-0.003203,0.006079,-0.002632,-0.27,-1.04,11.24
2624278319,-0.027705,0.031645,0.001629,-0.44,-1.58,10.93
2624279333,-0.030901,0.029515,0.005890,-0.59,-1.84,10.93
2624280335,-0.002138,0.013536,-0.001567,-0.59,-1.92,10.18
2624281347,0.025559,0.001817,-0.013285,-0.40,-1.88,8.83
2624282355,0.012776,0.009274,-0.013285,-0.38,-1.70,8.41
2624283367,-0.026639,0.014601,-0.000501,-0.36,-1.74,7.73
2624284375,-0.047945,0.016731,0.008021,-0.38,-1.58,7.80
2624285387,-0.034096,0.008209,0.010152,-0.23,-1.19,8.01
2624286395,0.017037,0.003948,0.001629,0.05,-0.33,8.76
2624287407,0.013841,0.030580,-0.003697,0.14,-0.23,9.38
2624288419,0.011711,0.040168,-0.007958,0.28,0.28,9.96
2624289433,0.018102,0.008209,-0.006893,0.40,0.49,9.62
2624290435,0.018102,-0.032272,-0.001567,0.62,0.76,9.19
2624291447,0.015972,-0.038663,0.003760,0.64,1.22,9.20
2624292455,-0.003203,-0.026945,0.008021,0.61,1.20,9.64
2624293467,-0.020248,-0.018423,0.010152,0.55,1.12,10.47
2624294475,-0.017052,-0.019488,0.006956,0.59,1.12,11.39
2624295487,0.009580,-0.035467,0.000564,0.57,1.01,11.68
2624296495,0.019168,-0.047185,0.001629,0.51,0.92,11.67
2624297507,0.011711,-0.030141,0.000564,0.41,0.64,11.42
2624298519,-0.000007,0.002883,-0.002632,0.23,0.25,10.57
2624299533,-0.000007,0.015666,-0.001567,0.01,-0.04,10.33
2624300535,0.007449,-0.003509,0.002695,0.00,-0.34,10.01
2624301547,0.013841,-0.028010,0.003760,-0.11,-0.52,9.83
2624302555,0.003188,-0.029076,0.002695,-0.36,-0.88,10.94
2624303567,0.002123,-0.031206,0.006956,-0.38,-1.38,11.32
2624304575,0.017037,-0.042924,0.011217,-0.52,-1.55,10.95
2624305587,0.028755,-0.057838,0.006956,-0.55,-1.59,10.31
2624306596,0.019168,-0.053577,0.000564,-0.54,-1.58,8.78
2624307610,-0.000007,-0.025880,0.000564,-0.59,-1.58,7.99
2624308622,-0.010660,0.005013,-0.001567,-0.56,-1.71,7.72
2624309637,-0.000007,0.030580,-0.007958,-0.54,-1.63,8.52
2624310644,0.012776,0.036972,-0.013285,-0.36,-1.47,9.14
2624311652,0.013841,0.039102,-0.014350,-0.19,-1.30,9.59
2624312663,0.006384,0.047625,-0.007958,-0.09,-0.99,10.04
2624313679,-0.006399,0.048690,0.001629,0.04,-0.85,9.56
2624314686,-0.017052,0.033776,0.011217,-0.12,-0.75,9.32
2624315699,-0.012791,-0.008835,0.016543,-0.05,-0.54,8.53
2624316712,0.006384,-0.054642,0.014413,0.27,-0.11,7.64
2624317719,0.014906,-0.058904,0.006956,0.43,0.14,7.74
2624318731,0.013841,-0.013096,-0.002632,0.56,0.29,8.36
2624319747,0.004254,0.047625,-0.006893,0.47,0.45,9.57
2624320747,-0.009595,0.065734,-0.004762,0.65,0.77,10.36
2624321770,-0.008530,0.029515,0.000564,0.46,0.60,11.33
2624322765,0.006384,-0.037598,0.002695,0.25,0.52,11.47
2624323779,0.028755,-0.084470,0.001629,0.51,0.90,11.23
2624324782,0.057518,-0.081274,-0.002632,0.48,1.10,10.64
2624325791,0.058583,-0.043990,-0.009024,0.39,1.00,9.22
2624326822,0.029820,-0.001378,-0.013285,0.27,0.69,9.05
2624327816,0.007449,0.003948,-0.013285,0.16,0.69,9.62
2624328824,0.006384,-0.020553,-0.010089,-0.02,0.58,10.60
2624329840,0.006384,-0.037598,-0.005828,0.08,0.38,11.54
2624330835,-0.004269,-0.030141,-0.001567,0.18,0.18,11.84
2624331847,-0.027705,-0.006705,0.002695,-0.02,0.03,11.61
2624332886,-0.036227,0.012470,0.001629,-0.08,-0.20,11.19
2624333884,-0.015987,0.022058,-0.000501,-0.16,-0.44,10.32
2624334876,0.006384,0.026319,-0.000501,-0.26,-0.58,9.39
2624335887,0.013841,0.031645,-0.001567,-0.25,-0.74,9.34
2624336895,0.007450,0.028449,-0.004762,-0.16,-1.01,9.41
2624337907,-0.003203,0.031645,-0.005828,-0.24,-1.12,10.06
2624338919,-0.027705,0.041233,-0.002632,-0.33,-1.29,11.00
2624339933,-0.045815,0.025254,0.002695,-0.21,-1.51,10.44
2624340935,-0.035162,0.003948,0.002695,-0.16,-1.33,9.55
2624341947,-0.017052,-0.005640,0.010152,-0.37,-1.33,9.64
2624342955,-0.000007,-0.000313,0.019739,-0.31,-1.56,9.09
2624343967,0.008515,-0.018423,0.021870,-0.24,-1.31,8.81
2624344975,0.011711,-0.051447,0.021870,-0.25,-1.35,8.96
2624345987,0.021298,-0.047185,0.022935,-0.07,-1.44,8.65
2624346995,0.005319,-0.016292,0.018674,-0.17,-1.11,9.06
2624348010,-0.022378,-0.010966,0.018674,-0.25,-1.19,9.72
2624349021,-0.019183,-0.013096,0.018674,-0.06,-1.19,9.43
2624350027,-0.019183,-0.020553,0.017608,-0.03,-0.89,9.00
2624351035,-0.020248,-0.031206,0.015478,-0.07,-0.65,9.25
2624352047,-0.011726,-0.024815,0.010152,0.16,-0.56,8.76
2624353055,-0.024509,-0.003509,0.008021,0.18,-0.30,8.61
2624354067,-0.044749,0.005013,0.006956,0.07,-0.08,9.50
2624355075,-0.024509,0.005013,0.001629,0.26,-0.08,9.36
2624356087,-0.007464,0.001817,0.000564,0.34,0.16,9.05
2624357095,-0.018117,-0.006705,0.003760,0.26,0.49,9.63
2624358110,-0.017052,-0.000313,0.002695,0.46,0.42,9.38
2624359121,-0.022378,0.014601,0.000564,0.57,0.71,9.01
2624360127,-0.034096,0.011405,-0.000501,0.28,0.75,10.06
2624361135,-0.006399,-0.005640,-0.004762,0.23,0.42,10.84
2624362157,0.040473,-0.038663,-0.009024,0.32,0.73,10.62
2624363155,0.059648,-0.072752,-0.009024,0.29,0.98,10.66
2624364180,0.052191,-0.067426,-0.007958,0.47,0.76,9.79
2624365175,0.019168,-0.021619,-0.006893,0.38,0.68,9.22
2624366187,-0.010660,0.008209,-0.007958,0.11,0.72,9.65
2624367195,-0.006399,0.001817,-0.005828,0.14,0.45,10.13
2624368210,0.012776,-0.020553,-0.003697,0.25,0.48,10.48
2624369221,0.011711,-0.030141,-0.004762,0.24,0.55,11.15
2624370227,-0.010660,-0.010966,-0.002632,0.25,0.17,11.76
2624371235,-0.038358,0.019927,-0.000501,0.28,-0.03,11.28
2624372247,-0.049010,0.038037,-0.000501,0.08,0.06,10.92
2624373255,-0.046880,0.026319,0.001629,0.09,-0.11,10.21
2624374267,-0.024509,0.009274,-0.000501,0.25,-0.25,9.18
2624375275,-0.019183,0.018862,0.001629,0.14,-0.06,9.26
2624376287,-0.051141,0.048690,0.002695,0.04,-0.31,10.03
2624377295,-0.052206,0.065734,0.002695,0.03,-0.76,10.38
2624378310,-0.031966,0.055081,0.005890,-0.09,-0.60,10.98
2624379321,-0.011726,0.015666,0.006956,-0.23,-0.76,11.85
2624380327,0.027690,-0.033337,0.009086,-0.10,-1.06,10.95
2624381335,0.047930,-0.049316,0.010152,-0.21,-0.76,9.88
2624382347,0.039408,-0.043990,0.011217,-0.38,-0.91,8.84
2624383355,0.007449,-0.018423,0.011217,-0.38,-1.16,7.90
2624384367,-0.008530,0.005013,0.009086,-0.46,-1.09,8.35
2624385375,-0.005334,-0.002444,0.011217,-0.56,-1.26,9.63
2624386387,0.018102,-0.026945,0.009086,-0.29,-1.26,11.09
2624387395,0.002123,-0.009901,0.004825,-0.38,-1.33,11.19
2624388410,-0.009595,0.013536,0.000564,-0.33,-1.44,10.03
2624389421,-0.015987,0.028449,-0.000501,-0.29,-1.31,8.71
2624390430,-0.018117,0.030580,-0.002632,-0.26,-1.14,8.10
2624391435,-0.009595,0.013536,-0.002632,-0.11,-1.17,7.61
2624392460,-0.013856,0.011405,-0.001567,-0.08,-1.04,8.10
2624393455,-0.017052,0.013536,-0.003697,0.00,-0.96,9.40
2624394467,-0.028770,0.019927,-0.004762,0.21,-0.86,10.02
2624395475,-0.033031,0.020992,-0.007958,0.15,-0.65,10.21
2624396487,-0.024509,0.003948,-0.004762,-0.14,-0.81,10.46
2624397495,0.008515,-0.021619,-0.002632,-0.04,-0.69,9.66
2624398510,0.046865,-0.055708,-0.009024,0.08,-0.38,8.41
2624399521,0.048995,-0.057838,-0.012219,0.12,-0.16,7.88
2624400527,0.029820,-0.034402,-0.013285,0.22,-0.07,7.84
2624401535,0.021298,-0.005640,-0.007958,0.06,-0.11,8.47
2624402547,0.020233,0.005013,-0.004762,-0.03,0.03,9.98
2624403555,0.024494,-0.010966,-0.004762,0.17,0.14,10.75
2624404594,0.019168,-0.030141,-0.004762,0.24,0.31,10.54
2624405582,-0.001073,-0.033337,-0.000501,0.18,0.51,10.50
2624406587,-0.015987,-0.009901,0.001629,0.29,0.50,9.94
2624407596,-0.017052,0.012470,-0.002632,0.25,0.52,8.90
2624408614,-0.015987,0.025254,-0.006893,0.19,0.73,9.00
2624409628,-0.018117,0.018862,-0.004762,0.40,0.60,9.31
2624410635,-0.001073,0.014601,-0.000501,0.45,0.52,9.49
2624411640,0.008515,0.030580,0.003760,0.33,0.71,10.62
2624412658,-0.003203,0.049755,0.004825,0.46,0.52,11.17
2624413664,-0.019183,0.048690,0.008021,0.52,0.63,10.90
2624414678,-0.033031,0.020992,0.012282,0.39,0.70,11.00
2624415685,-0.008530,-0.012031,0.013347,0.32,0.25,11.07
2624416697,0.045800,-0.057838,0.011217,0.27,0.30,10.28
2624417708,0.076693,-0.087666,0.008021,0.17,0.58,10.19
2624418719,0.062844,-0.082340,0.003760,0.30,0.37,9.50
2624419735,0.046865,-0.038663,-0.002632,0.30,0.08,8.79
2624420751,0.023429,0.000752,-0.001567,-0.02,0.01,9.57
2624421760,0.013841,-0.000313,-0.000501,-0.09,-0.18,10.60
2624422768,0.033016,-0.033337,0.002695,0.05,-0.27,10.87
2624423777,0.034082,-0.054642,-0.001567,0.09,-0.06,11.20
2624424786,0.009580,-0.035467,-0.002632,-0.01,-0.32,11.60
2624425782,-0.020248,0.008209,-0.006893,-0.04,-0.67,10.70
2624426803,-0.025574,0.035906,-0.010089,-0.19,-0.57,10.38
2624427805,-0.021313,0.035906,-0.013285,-0.22,-0.62,10.11
2624428841,0.004254,0.013536,-0.014350,-0.04,-0.70,9.27
2624429826,-0.000007,0.008209,-0.011154,-0.09,-0.62,9.29
2624430833,-0.013856,0.029515,-0.007958,-0.20,-0.77,10.03
2624431841,-0.031966,0.047625,-0.004762,-0.21,-1.09,9.86
2624432847,-0.033031,0.041233,-0.004762,-0.27,-1.00,9.93
2624433855,-0.026639,0.014601,0.000564,-0.27,-0.90,10.17
2624434868,-0.020248,-0.002444,0.000564,-0.12,-1.06,9.45
2624435875,-0.018117,0.009274,0.003760,-0.12,-0.98,9.22
2624436887,-0.035162,0.035906,0.006956,-0.24,-1.17,9.69
2624437895,-0.020248,0.036972,0.009086,-0.28,-1.31,10.05
2624438910,0.015972,0.005013,0.011217,-0.30,-1.19,10.71
2624439921,0.061779,-0.045055,0.011217,-0.23,-1.04,10.91
2624440927,0.062844,-0.066361,0.009086,-0.10,-0.96,9.50
2624441954,0.033016,-0.038663,0.005890,-0.12,-1.03,8.46
2624442947,-0.007464,0.007144,0.005890,-0.20,-1.07,8.03
2624443955,-0.007464,0.025254,0.003760,-0.23,-1.16,7.82
2624444967,0.010645,0.005013,0.003760,-0.17,-0.93,8.32
2624445975,0.020233,-0.026945,0.001629,0.03,-0.75,9.08
2624446987,0.012776,-0.029076,0.002695,0.09,-0.83,9.67
2624447999,-0.006399,0.008209,0.001629,0.02,-0.83,10.43
2624449013,-0.023444,0.041233,0.001629,-0.02,-0.73,10.70
2624450015,-0.025574,0.035906,0.002695,0.00,-0.70,9.86
2624451027,-0.019183,-0.005640,0.002695,0.08,-0.47,9.00
2624452035,-0.014921,-0.025880,-0.000501,0.21,-0.26,8.41
2624453047,-0.020248,-0.009901,-0.005828,0.25,-0.19,8.16
2624454056,-0.041553,0.031645,-0.007958,0.14,0.01,9.19
2624455067,-0.058598,0.044429,-0.004762,0.18,-0.02,9.90
2624456079,-0.042619,0.023123,-0.000501,0.21,-0.03,9.81
2624457087,-0.022378,-0.013096,0.002695,0.27,0.42,9.95
2624458099,-0.009595,-0.013096,0.001629,0.40,0.50,9.51
2624459113,-0.015987,0.007144,-0.002632,0.43,0.63,8.83
2624460115,-0.028770,0.040168,-0.009024,0.19,0.71,9.34
2624461127,-0.020248,0.038037,-0.007958,0.04,0.26,10.39
2624462135,0.037277,-0.009901,-0.007958,0.13,0.56,10.57
2624463147,0.078823,-0.057838,-0.004762,0.23,0.82,10.89
2624464155,0.062844,-0.054642,-0.002632,0.49,0.53,10.21
2624465167,0.013841,-0.001378,-0.000501,0.35,0.55,9.60
2624466175,-0.026639,0.042298,0.000564,0.08,0.43,9.47
2624467187,-0.022378,0.034841,-0.002632,0.19,0.26,9.60
2624468199,0.010645,-0.000313,-0.007958,0.37,0.43,9.84
2624469213,0.023429,-0.018423,-0.005828,0.41,0.45,10.26
2624470215,-0.006399,0.005013,-0.001567,0.45,0.15,11.19
2624471227,-0.034096,0.043363,0.003760,0.44,0.03,11.44
2624472235,-0.055402,0.055081,0.003760,0.19,0.04,11.50
2624473247,-0.046880,0.026319,0.002695,0.27,0.07,10.88
2624474255,-0.023444,-0.009901,-0.001567,0.37,-0.05,9.87
2624475267,0.011711,-0.028010,-0.004762,0.12,-0.08,9.78
2624476275,0.019168,-0.024815,-0.007958,0.13,0.03,9.94
2624477287,0.019168,-0.013096,-0.003697,0.17,-0.14,9.55
2624478299,-0.000007,0.002883,-0.000501,-0.04,-0.19,9.63
2624479313,-0.006399,0.002883,0.000564,-0.14,-0.34,9.90
2624480315,-0.014921,-0.006705,0.000564,-0.19,-0.32,10.17
2624481327,-0.007464,-0.004574,-0.001567,-0.25,-0.28,10.69
2624482349,-0.006399,0.006079,-0.004762,-0.36,-0.59,11.83
2624483347,0.036212,-0.015227,-0.006893,-0.40,-0.91,11.50
2624484355,0.070301,-0.054642,-0.005828,-0.40,-0.67,10.70
2624485367,0.076693,-0.071687,-0.003697,-0.37,-0.60,9.83
2624486375,-0.003203,0.000752,-0.000501,-0.45,-1.09,8.09
2624487387,-0.022378,0.023123,-0.003697,-0.52,-1.24,8.90
2624488399,0.007449,0.009274,-0.006893,-0.33,-1.22,9.56
2624489413,0.030886,-0.012031,-0.003697,-0.15,-1.19,10.11
2624490425,0.020233,-0.007770,-0.003697,-0.13,-1.33,10.92
2624491427,-0.015987,0.016731,0.002695,-0.08,-1.53,10.51
2624492435,-0.035162,0.034841,0.004825,-0.14,-1.51,9.96
2624493447,-0.033031,0.029515,0.008021,-0.20,-1.38,9.71
2624494474,-0.015987,0.012470,0.000564,-0.02,-1.34,8.68
2624495479,-0.002138,0.003948,-0.001567,0.06,-1.15,8.22
2624496475,-0.011726,0.023123,-0.003697,-0.02,-0.99,9.32
2624497487,-0.028770,0.036972,-0.001567,0.01,-1.12,9.79
2624498499,-0.050076,0.035906,0.002695,-0.05,-0.98,9.95
2624499524,-0.045815,0.005013,0.011217,-0.13,-0.75,10.23
2624500515,-0.023444,-0.014162,0.011217,0.19,-0.61,9.05
2624501527,-0.003203,-0.008835,0.006956,-0.02,-0.35,8.37
2624502535,-0.018117,0.006079,0.005890,-0.35,-0.25,9.10
2624503547,-0.015987,-0.009901,0.009086,-0.10,-0.43,8.87
2624504555,0.021298,-0.033337,0.016543,-0.08,-0.19,8.75
2624505567,0.042604,-0.043990,0.016543,-0.09,0.16,9.22
2624506575,0.035147,-0.021619,0.019739,0.08,-0.03,9.24
2624507587,-0.005334,-0.008835,0.026131,0.04,-0.09,9.40
2624508602,-0.005334,-0.002444,0.024000,-0.06,0.15,9.97
2624509617,0.014906,-0.009901,0.020804,0.25,0.06,9.83
2624510617,0.030886,-0.028010,0.002695,0.46,0.17,9.10
2624511633,0.024494,-0.008835,-0.007958,0.42,0.57,9.62
2624512644,-0.014921,0.013536,-0.003697,0.56,0.29,9.86
2624513652,-0.012791,0.028449,-0.013285,0.59,0.27,9.90
2624514663,-0.008530,0.036972,-0.023937,0.47,0.64,10.45
2624515679,-0.040488,0.011405,-0.013285,0.64,0.48,10.25
2624516686,-0.047945,-0.017358,-0.012219,0.75,0.59,9.74
2624517699,-0.038358,-0.001378,-0.016481,0.67,1.09,10.01
2624518709,-0.037292,0.020992,-0.005828,0.64,0.53,10.47
2624519724,-0.046880,0.002883,0.002695,0.38,0.40,10.67
2624520724,-0.003203,-0.033337,-0.005828,0.14,0.83,11.47
2624521736,0.079889,-0.056773,-0.015415,0.26,0.60,11.42
2624522747,0.088411,-0.057838,-0.004762,0.28,0.57,10.24
2624523760,0.025559,-0.028010,0.006956,-0.01,0.53,9.89
2624524765,-0.035162,0.011405,-0.000501,-0.15,0.03,9.87
2624525779,-0.018117,0.030580,-0.017546,-0.28,-0.19,10.00
2624526782,0.034082,0.015666,-0.022872,-0.38,-0.04,10.75
2624527791,0.028755,-0.003509,-0.013285,-0.31,-0.41,11.28
2624528809,-0.019183,-0.001378,-0.001567,-0.30,-0.86,10.88
2624529822,-0.064990,0.031645,0.001629,-0.45,-0.96,10.78
2624530847,-0.069251,0.060408,-0.010089,-0.59,-1.32,10.82
2624531829,-0.035162,0.055081,-0.014350,-0.49,-1.58,9.74
2624532835,0.008515,0.026319,-0.005828,-0.39,-1.51,8.66
2624533847,0.033016,0.007144,0.006956,-0.35,-1.71,9.04
2624534859,0.051126,0.003948,0.015478,-0.19,-2.07,9.10
2624535867,0.038343,-0.000313,0.026131,-0.34,-1.93,9.51
2624536875,0.015972,-0.026945,0.027196,-0.32,-1.74,9.41
2624537905,-0.006399,-0.045055,0.021870,-0.04,-1.89,8.02
2624538899,-0.031966,-0.028010,0.015478,0.09,-1.37,8.00
2624539913,-0.040488,-0.003509,0.011217,-0.19,-1.39,8.49
2624540915,-0.023444,-0.005640,0.005890,-0.29,-1.43,9.40
2624541927,0.019168,-0.033337,-0.011154,0.00,-0.77,10.10
2624542935,0.050061,-0.069556,-0.020742,0.04,-0.57,9.97
2624543947,0.045800,-0.070622,-0.013285,0.23,-0.08,9.62
2624544955,0.050061,-0.013097,-0.010089,0.31,0.35,9.13
2624545967,0.038343,0.033776,-0.011154,0.17,0.46,8.59
2624546975,0.020233,0.024188,-0.007958,0.23,0.82,8.42
2624547987,0.053257,-0.003509,-0.005828,0.51,1.17,8.47
2624548999,0.086280,-0.013097,-0.010089,0.51,1.34,8.96
2624550022,0.059648,-0.001378,-0.010089,0.48,1.48,10.36
2624551017,0.033016,0.040168,-0.005828,0.54,1.34,11.56
2624552028,0.029820,0.071061,-0.010089,0.36,1.20,11.92
2624553037,0.028755,0.052951,-0.017546,0.13,1.42,11.95
2624554048,0.046865,0.018862,-0.012219,0.39,0.85,11.59
2624555057,0.072432,-0.006705,-0.002632,0.35,0.65,10.82
2624556068,0.091607,-0.020553,0.003760,-0.01,0.47,11.12
2624557077,0.101194,-0.039729,0.009086,0.19,-0.38,10.49
2624558093,0.105455,-0.043990,0.010152,0.10,-0.35,10.29
2624559103,0.109716,-0.029076,0.005890,-0.24,-0.71,10.54
2624560113,0.113978,-0.017358,-0.001567,-0.24,-1.44,9.78
2624561114,0.103325,-0.012031,-0.002632,-0.31,-1.62,9.56
2624562125,0.077758,-0.013097,-0.001567,-0.46,-1.81,9.81
2624563134,0.077758,-0.009901,-0.012219,-0.39,-2.13,9.63
2624564145,0.069236,-0.002444,-0.018611,-0.33,-2.02,9.35
2624565154,0.029820,0.003948,-0.016481,-0.39,-2.02,9.76
2624566165,-0.013856,0.006079,-0.009024,-0.35,-2.14,9.25
2624567174,-0.035162,-0.000313,0.002695,-0.25,-1.75,9.02
2624568190,-0.034096,-0.006705,0.012282,-0.20,-1.38,8.99
2624569200,-0.038358,-0.010966,0.018674,-0.05,-1.07,8.22
2624570215,-0.050076,0.000752,0.015478,0.00,-0.63,8.26
2624571217,-0.082034,0.015666,0.008021,0.07,-0.29,8.44
2624572228,-0.094817,0.024188,-0.001567,0.25,0.07,8.35
2624573237,-0.088426,0.027384,-0.006893,0.38,0.54,8.94
2624574248,-0.054337,0.023123,-0.007958,0.53,0.93,9.22
2624575257,-0.008530,0.020992,-0.009024,0.57,1.15,9.49
2624576268,0.024494,0.016731,-0.007958,0.65,1.35,9.79
2624577277,0.039408,0.012470,-0.001567,0.63,1.41,10.58
2624578293,0.033016,0.000752,0.004825,0.62,1.45,10.78
2624579303,0.025559,0.000752,0.005890,0.57,1.47,11.31
2624580313,0.021298,0.009274,0.004825,0.44,1.23,11.42
2624581314,-0.007464,0.016731,0.003760,0.38,1.06,11.47
2624582325,-0.035162,0.024188,0.004825,0.27,0.71,11.31
2624583334,-0.063924,0.025254,0.006956,0.18,0.24,10.99
2624584345,-0.066055,0.027384,0.002695,0.07,-0.21,10.61
2624585354,-0.045815,0.027384,-0.000501,-0.07,-0.55,10.25
2624586365,0.028755,0.023123,0.002695,-0.34,-1.46,9.86
2624587374,0.029820,0.017797,0.009086,-0.37,-1.84,9.63
2624588390,0.008515,0.010340,0.012282,-0.52,-2.08,9.85
2624589400,0.001058,0.007144,0.009086,-0.58,-2.18,10.54
2624590415,0.007449,-0.006705,-0.001567,-0.47,-2.19,9.60
2624591417,0.006384,-0.017358,-0.007958,-0.21,-1.96,8.71
2624592428,0.006384,-0.008835,-0.011154,-0.28,-1.87,8.20
2624593437,0.020233,0.008209,-0.014350,-0.39,-1.65,8.11
2624594448,0.025559,0.001817,-0.017546,-0.28,-1.23,8.36
2624595457,0.031951,-0.021619,-0.018611,-0.14,-0.84,8.42
2624596468,0.009580,-0.030141,-0.011154,0.16,-0.28,8.34
2624597477,-0.037292,-0.008835,-0.002632,0.23,0.14,8.87
2624598493,-0.069251,0.017797,0.002695,0.50,0.61,9.23
2624599503,-0.071381,0.027384,0.006956,0.45,0.72,9.86
2624600513,-0.029835,0.007144,0.002695,0.33,0.85,10.29
2624601514,0.054322,-0.016292,-0.011154,0.48,1.29,10.56
2624602525,0.095868,-0.028010,-0.019676,0.57,1.45,10.32
2624603534,0.062844,-0.008835,-0.015415,0.57,1.59,10.21
2624604545,-0.007464,0.032711,-0.007958,0.37,1.25,10.55
2624605554,-0.064990,0.050820,-0.002632,0.19,0.95,10.54
2624606565,-0.063924,0.035906,-0.002632,0.15,0.83,11.26
2624607574,-0.009595,-0.001378,-0.004762,0.09,0.29,12.08
2624608590,0.052191,-0.051447,-0.004762,-0.08,-0.24,11.91
2624609603,0.075627,-0.065295,-0.003697,-0.21,-0.42,11.91
2624610618,0.069236,-0.040794,-0.001567,-0.29,-0.98,10.33
2624611618,0.034082,0.003948,0.002695,-0.46,-1.53,8.61
2624612634,-0.029835,0.028449,0.006956,-0.64,-1.74,8.63
2624613643,-0.071381,0.013536,0.006956,-0.70,-2.14,8.59
2624614654,-0.057533,-0.012031,0.006956,-0.58,-2.22,9.15
2624615665,-0.030901,-0.023749,0.008021,-0.41,-2.15,10.10
2624616679,0.001058,-0.009901,0.005890,-0.32,-2.24,10.41
2624617687,0.009580,0.016731,0.006956,-0.17,-1.94,10.14
2624618705,0.004254,0.028449,0.011217,-0.25,-1.67,9.64
2624619710,-0.003203,0.009274,0.016543,-0.17,-1.32,8.64
2624620725,-0.013856,-0.024815,0.018674,0.07,-0.67,7.55
2624621727,-0.013856,-0.047185,0.014413,0.24,-0.13,6.70
2624622739,-0.010660,-0.020553,0.003760,0.36,0.35,7.31
2624623750,-0.002138,0.025254,-0.004762,0.44,0.55,8.24
2624624758,0.009580,0.043363,-0.007958,0.49,0.75,9.49
2624625764,0.009580,0.024188,-0.001567,0.63,1.38,10.78
2624626778,-0.010660,-0.006705,0.009086,0.77,1.49,11.34
2624627781,-0.038358,-0.022684,0.018674,0.52,1.35,11.59
2624628798,-0.028770,-0.038663,0.027196,0.40,1.44,11.76
2624629824,0.031951,-0.064230,0.028261,0.47,1.38,11.13
2624630829,0.093737,-0.075948,0.015478,0.38,1.32,10.23
2624631821,0.107586,-0.051447,-0.001567,0.24,0.88,10.13
2624632830,0.094803,-0.009901,-0.013285,0.09,0.37,10.20
2624633843,0.047930,0.010340,-0.012219,-0.11,-0.01,10.88
2624634853,-0.008530,-0.003509,-0.005828,-0.14,-0.56,11.52
2624635857,-0.042619,-0.033337,-0.000501,-0.19,-1.07,11.07
2624636868,-0.041553,-0.039729,-0.005828,-0.37,-1.39,10.49
2624637877,-0.029835,-0.013096,-0.014350,-0.42,-1.75,10.22
2624638893,-0.003203,0.017797,-0.016481,-0.44,-2.16,9.32
2624639938,0.007449,0.018862,-0.014350,-0.52,-2.16,8.75
2624640905,0.006384,-0.003509,-0.011154,-0.51,-2.20,9.04
2624641914,0.008515,-0.016292,-0.014350,-0.30,-2.22,8.79
2624642925,-0.026639,-0.012031,-0.012219,-0.22,-1.73,9.06
2624643934,-0.084165,0.006079,-0.006893,-0.22,-1.50,9.60
2624644945,-0.106536,0.016731,-0.000501,-0.01,-1.33,8.93
2624645954,-0.076708,0.012470,0.001629,-0.03,-0.76,8.52
2624646965,-0.021313,-0.000313,-0.000501,0.03,-0.18,8.23
2624647974,0.033016,-0.008835,0.001629,0.31,0.20,7.60
2624648990,0.042604,-0.006705,0.005890,0.40,0.66,8.05
2624650010,0.021298,0.008209,0.008021,0.48,0.98,9.23
2624651008,-0.011726,0.017797,0.012282,0.62,1.14,9.80
2624652017,-0.049010,0.016731,0.015478,0.66,1.45,10.86
2624653028,-0.058598,0.019927,0.005890,0.66,1.65,11.30
2624654037,-0.041553,0.030580,-0.000501,0.68,1.58,11.10
2624655048,-0.025574,0.031645,0.002695,0.60,1.48,10.80
2624656057,-0.017052,0.027384,0.011217,0.41,1.31,10.93
2624657068,-0.006399,0.020992,0.017608,0.36,0.91,10.60
2624658081,-0.012791,0.019927,0.021870,0.28,0.57,10.96
2624659094,-0.024509,0.022058,0.026131,0.16,0.09,11.29
2624660101,-0.038358,0.016731,0.027196,0.07,-0.50,11.10
2624661105,-0.028770,0.015666,0.020804,-0.11,-0.92,11.10
2624662114,0.001058,0.016731,0.011217,-0.25,-1.37,10.53
2624663125,0.025559,0.015666,-0.001567,-0.42,-1.82,10.30
2624664150,0.044734,-0.000313,-0.011154,-0.45,-2.15,9.76
2624665145,0.046865,-0.019488,-0.012219,-0.48,-2.18,9.33
2624666154,0.004254,-0.033337,-0.005828,-0.49,-2.01,8.50
2624667165,-0.061794,-0.021619,-0.001567,-0.48,-2.07,8.27
2624668179,-0.089491,-0.001378,-0.001567,-0.47,-2.06,8.24
2624669191,-0.050076,0.003948,-0.005828,-0.44,-1.76,8.53
2624670204,0.020233,-0.006705,-0.011154,-0.21,-1.20,8.87
2624671208,0.045800,-0.016292,-0.011154,-0.16,-0.81,8.90
2624672219,0.040473,-0.005640,-0.011154,-0.24,-0.58,9.69
2624673228,0.028755,-0.000313,-0.013285,0.10,-0.17,9.64
2624674237,0.017037,-0.003509,-0.013285,0.27,0.35,9.01
2624675248,-0.011726,-0.000313,-0.013285,0.39,0.95,8.80
2624676257,-0.023444,0.014601,-0.011154,0.53,1.09,8.27
2624677268,0.004254,0.027384,-0.014350,0.51,1.15,8.48
2624678281,0.040473,0.033776,-0.014350,0.50,1.40,9.89
2624679294,0.054322,0.033776,-0.011154,0.56,1.39,11.03
2624680301,0.023429,0.024188,-0.001567,0.59,1.37,11.83
2624681305,-0.027705,0.015666,0.003760,0.36,1.00,12.90
2624682314,-0.040488,-0.001378,0.001629,0.25,0.65,12.47
2624683325,-0.011726,-0.015227,-0.004762,0.23,0.53,11.36
2624684334,0.026625,-0.006705,-0.007958,0.15,0.20,10.28
2624685345,0.031951,0.012470,-0.000501,-0.07,-0.46,9.48
2624686354,0.029820,-0.015227,0.013347,-0.49,-1.32,10.33
2624687365,0.027690,-0.037598,0.015478,-0.51,-1.59,10.57
2624688379,0.003188,-0.036533,0.017608,-0.44,-2.07,10.04
2624689391,-0.027705,-0.014162,0.018674,-0.55,-2.21,9.97
2624690404,-0.038358,0.002883,0.020804,-0.71,-2.27,9.55
2624691408,-0.010660,-0.002444,0.015478,-0.45,-2.19,8.26
2624692417,0.019168,-0.012031,0.004825,-0.58,-1.86,8.42
2624693428,0.026625,-0.026945,0.000564,-0.49,-1.71,9.18
2624694437,0.020233,-0.037598,0.001629,-0.09,-1.39,9.08
2624695448,-0.006399,-0.035467,0.008021,-0.06,-0.86,9.13
2624696457,-0.040488,-0.016292,0.011217,0.10,-0.45,8.71
2624697468,-0.031966,0.001817,0.010152,0.19,-0.05,7.86
2624698481,0.004254,-0.004574,0.003760,0.30,0.40,7.55
2624699494,0.036212,-0.023749,0.000564,0.49,0.95,8.29
2624700501,0.054322,-0.023749,-0.003697,0.70,1.15,8.94
2624701505,0.025559,-0.001378,-0.004762,0.69,1.29,10.13
2624702514,-0.036227,0.022058,-0.002632,0.60,1.39,11.89
2624703525,-0.051141,0.022058,-0.004762,0.71,1.34,12.24
2624704534,-0.023444,0.011405,-0.012219,0.58,1.43,12.25
2624705545,-0.008530,-0.002444,-0.012219,0.42,1.27,11.68
2624706554,0.003188,-0.017358,-0.001567,0.41,0.85,10.36
2624707565,0.017037,-0.016292,0.010152,0.26,0.65,10.18
2624708579,0.022363,-0.000313,0.008021,0.14,0.32,10.21
2624709591,0.007449,0.013536,0.002695,0.00,-0.27,10.60
2624710595,-0.011726,0.010340,-0.001567,-0.15,-0.82,10.80
2624711610,-0.012791,-0.007770,-0.003697,-0.28,-1.21,10.81
2624712616,0.009580,-0.012031,-0.004762,-0.36,-1.57,10.59
2624713631,0.026625,-0.002444,-0.006893,-0.39,-1.81,9.58
2624714639,0.003188,0.010340,-0.005828,-0.50,-1.94,9.15
2624715653,-0.029835,0.011405,-0.000501,-0.47,-2.15,8.50
2624716662,-0.045815,0.002883,0.005890,-0.39,-2.02,8.80
2624717675,-0.045815,-0.002444,0.010152,-0.33,-1.81,9.22
2624718690,-0.029835,-0.003509,0.009086,-0.18,-1.63,9.42
2624719701,-0.004269,-0.002444,0.008021,-0.09,-1.31,9.52
2624720704,0.031951,-0.004574,0.005890,0.09,-0.89,8.98
2624721719,0.037277,-0.002444,0.001629,0.20,-0.37,8.60
2624722722,-0.018117,0.002883,0.003760,0.35,0.07,7.89
2624723735,-0.075642,0.012470,0.006956,0.48,0.49,7.82
2624724749,-0.073512,0.022058,0.003760,0.59,0.87,8.15
2624725767,-0.044749,0.018862,0.003760,0.69,1.13,9.24
2624726766,-0.015987,0.002883,0.003760,0.66,1.31,10.25
2624727778,0.001058,-0.001378,0.003760,0.72,1.51,11.31
2624728783,-0.001073,0.008209,0.002695,0.69,1.49,11.80
2624729800,0.001058,0.023123,0.000564,0.45,1.18,12.14
2624730805,0.013841,0.006079,-0.004762,0.18,0.99,12.05
2624731814,0.027690,-0.036533,-0.012219,0.14,0.92,11.19
2624732819,0.047930,-0.058904,-0.018611,0.14,0.56,10.18
2624733828,0.062844,-0.029076,-0.023937,0.06,-0.04,9.51
2624734840,0.037277,0.016731,-0.023937,-0.23,-0.64,9.70
2624735857,-0.012791,0.033776,-0.015415,-0.54,-1.05,10.50
2624736854,-0.035162,0.018862,-0.011154,-0.57,-1.47,11.08
2624737865,-0.030901,-0.003509,-0.011154,-0.50,-1.83,10.53
2624738878,-0.031966,-0.006705,-0.009024,-0.54,-1.98,10.53
2624739891,-0.037292,0.012470,-0.005828,-0.42,-2.25,9.45
2624740894,-0.041553,0.032711,0.000564,-0.66,-2.34,9.47
2624741915,-0.026639,0.023123,0.000564,-0.71,-2.27,9.70
2624742918,0.028755,-0.013096,-0.009024,-0.34,-2.00,8.74
2624743925,0.056452,-0.035467,-0.016481,-0.12,-1.47,7.89
2624744934,0.008515,-0.010966,-0.013285,0.00,-1.13,7.59
2624745945,-0.069251,0.033776,-0.002632,-0.06,-0.91,7.69
2624746954,-0.091622,0.047625,0.006956,-0.07,-0.64,7.95
2624747965,-0.033031,0.016731,0.012282,0.23,0.16,9.30
