time_us,gyro_x_rad_s,gyro_y_rad_s,gyro_z_rad_s,acc_x_m_s2,acc_y_m_s2,acc_z_m_s2
292506878,-0.000069,-0.000702,-0.001407,0.04,-0.30,9.77
292507675,-0.000069,0.002491,-0.002469,0.04,-0.30,9.76
292508680,-0.000069,0.002489,-0.000338,0.03,-0.31,9.75
292509691,-0.002197,0.002487,0.001791,0.03,-0.33,9.80
292510702,-0.003259,0.001420,0.001789,0.04,-0.33,9.78
292511734,-0.003256,0.002483,-0.000341,0.04,-0.29,9.81
292512720,-0.001124,0.000352,-0.001405,0.04,-0.29,9.85
292513751,-0.000059,0.000351,-0.000340,0.04,-0.33,9.80
292514778,0.001006,0.001415,-0.000339,0.03,-0.34,9.81
292515778,0.002069,0.002478,0.000725,0.03,-0.32,9.82
292516772,0.002067,0.003540,-0.000340,0.02,-0.28,9.82
292517800,0.001001,0.001408,-0.000339,0.01,-0.28,9.80
292518785,-0.000065,-0.000722,0.000725,0.05,-0.30,9.79
292519792,0.001000,0.000343,0.000724,0.02,-0.29,9.79
292520794,0.002063,0.001407,-0.000341,0.01,-0.31,9.81
292521813,0.000997,0.001405,-0.000340,0.03,-0.33,9.81
292522840,-0.000069,0.001404,-0.001404,0.03,-0.28,9.80
292523837,-0.000069,0.000338,-0.001403,0.01,-0.26,9.84
292524862,-0.000069,0.000338,-0.000337,0.00,-0.29,9.81
292525881,-0.000068,0.001402,0.000728,0.04,-0.33,9.79
292526862,-0.001133,0.002465,0.002855,0.07,-0.35,9.80
292527905,-0.003260,0.001398,0.001788,0.05,-0.35,9.81
292528907,-0.002192,0.002461,-0.000342,0.03,-0.33,9.87
292529920,-0.000062,0.002458,0.000723,0.05,-0.32,9.84
292530890,0.001002,0.002456,0.001786,0.05,-0.33,9.78
292531901,0.002066,0.001389,0.000720,0.03,-0.32,9.78
292532910,0.002064,0.000323,-0.002473,0.00,-0.28,9.79
292533947,-0.000067,-0.000741,-0.003535,0.01,-0.27,9.83
292534971,-0.001131,-0.001804,0.000725,0.01,-0.32,9.82
292535941,-0.002194,-0.002867,0.001789,0.00,-0.34,9.78
292536966,-0.001128,-0.000736,-0.001406,0.06,-0.33,9.75
292537987,-0.000062,0.002458,-0.000340,0.05,-0.35,9.75
292539010,-0.000062,0.002455,0.001789,0.04,-0.34,9.81
292539981,-0.001126,0.002453,0.002851,0.05,-0.29,9.83
292540990,-0.001125,0.003515,0.002848,0.02,-0.27,9.79
292542001,-0.001124,0.002447,0.001781,0.01,-0.28,9.77
292543010,-0.001123,0.000316,0.001779,0.04,-0.31,9.78
292544021,-0.001122,0.000316,0.001778,0.04,-0.29,9.82
292545036,-0.001121,0.000315,0.001776,0.02,-0.29,9.80
292546041,-0.000055,0.000315,0.001774,0.01,-0.31,9.81
292547050,0.001009,-0.000749,0.000708,0.01,-0.32,9.83
292548061,-0.000056,-0.001813,-0.003550,0.03,-0.30,9.83
292549070,-0.000056,-0.002875,-0.004610,0.06,-0.29,9.81
292550081,-0.000056,-0.002872,-0.001413,0.06,-0.32,9.77
292551090,0.001008,-0.000741,0.000717,0.02,-0.35,9.76
292552101,-0.001121,0.000324,-0.000348,0.02,-0.34,9.78
292553110,-0.001120,0.001388,-0.001412,0.04,-0.32,9.79
292554121,-0.001119,0.002451,-0.002475,0.01,-0.31,9.83
292555136,0.001010,0.001384,-0.002472,0.00,-0.30,9.80
292556141,0.002074,0.002447,-0.002470,0.04,-0.31,9.78
292557150,0.002072,0.002444,-0.002467,0.05,-0.32,9.82
292558161,0.003134,0.000313,-0.002465,0.06,-0.30,9.80
292559170,0.002066,-0.000751,-0.002462,0.02,-0.28,9.81
292560181,-0.000064,-0.001815,-0.001395,-0.02,-0.30,9.83
292561190,-0.002193,-0.002877,-0.001394,-0.02,-0.32,9.82
292562201,-0.003255,-0.001810,0.000736,0.01,-0.29,9.84
292563210,-0.003251,0.000320,0.000735,0.04,-0.30,9.82
292564221,-0.002184,0.002448,-0.001394,0.02,-0.31,9.79
292565236,0.001011,0.002446,-0.002457,0.03,-0.29,9.79
292566241,0.003138,0.001379,-0.004583,0.04,-0.30,9.81
292567250,0.002071,0.001378,-0.004578,-0.01,-0.29,9.80
292568261,0.001005,0.002441,-0.002445,-0.01,-0.27,9.84
292569270,-0.000060,0.001374,-0.000314,0.01,-0.27,9.85
292570281,0.001004,-0.000756,-0.000314,0.01,-0.28,9.82
292571290,0.001003,-0.001819,0.000751,0.01,-0.30,9.83
292572301,-0.000062,-0.001817,-0.000314,0.01,-0.32,9.78
292573310,-0.001127,0.000313,-0.000314,0.01,-0.30,9.78
292574321,-0.002190,0.003505,0.000750,0.01,-0.27,9.85
292575336,-0.001123,0.005630,0.001814,0.02,-0.28,9.87
292576341,-0.002186,0.004560,0.001812,0.06,-0.30,9.83
292577350,0.001009,0.001363,-0.000318,0.07,-0.31,9.80
292578361,0.004200,-0.001831,0.000746,0.04,-0.32,9.84
292579370,0.003132,-0.001829,0.000746,0.01,-0.32,9.82
292580381,0.001000,0.001365,0.000745,0.00,-0.32,9.82
292581390,-0.000065,0.003492,0.001808,0.00,-0.31,9.82
292582401,0.000999,0.002425,0.001806,0.02,-0.31,9.80
292583410,0.002062,0.000294,0.001805,0.03,-0.33,9.82
292584421,-0.000068,0.000293,0.000739,0.05,-0.34,9.79
292585436,-0.002196,-0.000771,-0.001391,0.04,-0.31,9.80
292586441,-0.002194,-0.000770,-0.003518,0.04,-0.30,9.82
292587450,-0.000064,-0.001834,-0.005642,0.06,-0.30,9.81
292588461,0.002065,-0.002896,-0.004573,-0.02,-0.30,9.80
292589470,0.002063,-0.003957,-0.001375,-0.04,-0.33,9.82
292590481,0.002061,-0.002889,0.001819,0.02,-0.33,9.82
292591490,0.002059,-0.000758,0.002881,0.07,-0.33,9.83
292592501,-0.000072,-0.002886,0.000750,0.07,-0.33,9.85
292593510,0.000992,-0.001818,-0.001379,0.05,-0.32,9.83
292594527,0.005248,0.000312,0.000750,0.00,-0.31,9.82
292595530,0.002050,0.001376,-0.000315,0.02,-0.30,9.78
292596541,-0.002209,0.001374,-0.000314,0.02,-0.30,9.76
292597550,-0.001142,0.000309,0.001814,0.02,-0.31,9.78
292598561,0.000987,0.000308,0.000748,0.04,-0.30,9.78
292599570,0.003115,-0.001820,-0.000317,0.03,-0.29,9.83
292600582,0.004176,-0.003947,-0.000316,0.04,-0.28,9.82
292601593,0.002043,-0.001814,-0.000316,0.03,-0.29,9.80
292602608,0.002041,-0.000748,-0.000316,0.02,-0.32,9.77
292603627,0.002039,-0.000748,-0.000315,0.01,-0.33,9.75
292604630,0.000973,0.000317,-0.000315,0.04,-0.30,9.79
292605634,-0.001157,0.001381,-0.000315,0.07,-0.30,9.82
292606650,-0.001155,0.001380,0.001814,0.04,-0.30,9.82
292607656,-0.001154,0.001378,0.002876,0.03,-0.29,9.79
292608668,-0.001153,0.002441,0.002874,0.01,-0.31,9.75
292609679,0.002041,0.002439,0.000742,0.03,-0.32,9.79
292610737,0.004167,-0.000756,-0.000323,0.05,-0.28,9.81
292611699,0.003098,-0.002884,-0.001387,0.02,-0.27,9.78
292612715,-0.000097,-0.003945,-0.002449,0.01,-0.30,9.79
292613716,-0.000097,-0.001813,-0.000319,0.07,-0.29,9.82
292614738,-0.000097,0.000317,0.001810,0.06,-0.31,9.88
292615739,0.000967,0.002445,0.000744,0.03,-0.32,9.87
292616750,0.000966,0.004571,-0.002449,0.03,-0.30,9.81
292617761,0.003094,0.003503,-0.003511,0.01,-0.28,9.80
292618768,0.003091,-0.000758,0.000749,0.01,-0.29,9.83
292619776,0.000959,-0.001821,0.003941,0.03,-0.34,9.81
292620785,-0.001170,0.000309,0.005001,0.03,-0.33,9.81
292621790,-0.001169,0.001373,0.001804,-0.02,-0.30,9.86
292622804,-0.000104,0.000307,-0.001391,-0.03,-0.32,9.84
292623814,0.000961,0.000307,-0.002453,-0.01,-0.32,9.83
292624831,0.000960,-0.000758,-0.000323,0.03,-0.31,9.87
292625834,-0.001170,-0.000757,-0.000322,0.04,-0.31,9.86
292626843,-0.001169,-0.001820,-0.002450,0.01,-0.32,9.79
292627850,0.002025,-0.000754,-0.001384,-0.02,-0.32,9.74
292628861,0.003087,0.001375,-0.001382,-0.01,-0.29,9.78
292629870,0.003084,0.000309,-0.001381,0.01,-0.29,9.80
292630881,0.003081,0.000309,-0.000315,0.02,-0.31,9.80
292631890,0.003078,0.001373,0.001814,0.05,-0.32,9.82
292632901,-0.000118,0.001372,0.001812,0.06,-0.32,9.85
292633910,-0.001182,0.001370,0.000746,0.02,-0.31,9.83
292634927,0.000948,-0.001824,0.000745,-0.01,-0.30,9.75
292635930,0.000947,-0.003950,0.000744,0.03,-0.30,9.76
292636941,-0.000118,-0.000754,0.000743,0.05,-0.32,9.79
292637950,-0.000118,0.002440,-0.000322,0.03,-0.31,9.80
292638961,-0.000118,0.001373,0.000743,0.01,-0.31,9.85
292639970,-0.000118,0.000307,0.001806,-0.01,-0.31,9.81
292640981,-0.000118,0.002436,0.001805,0.02,-0.32,9.74
292641990,-0.000118,0.002433,-0.001390,0.02,-0.34,9.76
292643001,0.000947,0.001366,-0.002453,0.00,-0.32,9.79
292644010,0.002010,-0.000763,-0.002450,0.03,-0.30,9.86
292645027,0.000944,-0.000763,-0.001383,0.03,-0.30,9.82
292646030,-0.001186,0.000302,-0.000318,0.02,-0.29,9.74
292647041,-0.001185,0.000302,-0.000318,0.03,-0.30,9.77
292648050,-0.002248,-0.000762,-0.000317,0.03,-0.33,9.85
292649061,0.000947,-0.002890,-0.001381,0.03,-0.33,9.85
292650070,0.004139,-0.003951,-0.002444,0.01,-0.33,9.84
292651081,0.004135,-0.006076,-0.002441,0.00,-0.34,9.80
292652090,0.002002,-0.003941,-0.001375,0.03,-0.35,9.75
292653101,0.000936,-0.000745,0.000755,0.03,-0.32,9.75
292654110,-0.000129,0.003513,0.000754,0.01,-0.33,9.77
292655127,0.000935,0.003509,-0.000311,0.00,-0.35,9.82
292656130,0.001998,0.002442,0.000754,0.03,-0.33,9.81
292657141,-0.000132,0.001375,0.002881,0.04,-0.32,9.83
292658150,-0.003325,0.000309,0.001814,0.04,-0.33,9.87
292659161,-0.005450,0.000309,0.000748,0.04,-0.31,9.88
292660170,-0.005444,0.000309,0.002876,0.04,-0.29,9.83
292661181,-0.004374,-0.000756,0.003937,0.04,-0.30,9.83
292662190,-0.002242,-0.001819,0.002869,0.03,-0.31,9.86
292663201,-0.000111,-0.000753,0.001802,0.02,-0.32,9.80
292664210,-0.000111,0.001376,0.001800,0.03,-0.30,9.81
292665227,-0.000111,0.000310,0.000734,0.03,-0.30,9.83
292666230,-0.000111,-0.000754,-0.000331,0.03,-0.32,9.79
292667241,0.000954,0.002439,-0.000330,0.04,-0.32,9.79
292668250,0.000953,0.003501,-0.000330,0.01,-0.31,9.79
292669261,-0.001177,0.001369,0.001799,0.03,-0.33,9.80
292670270,-0.001175,0.001368,0.002861,0.05,-0.33,9.79
292671281,0.000954,0.002430,0.000730,0.03,-0.30,9.77
292672290,0.003082,0.003492,-0.003528,0.04,-0.30,9.75
292673301,0.002014,0.002424,-0.004589,0.03,-0.32,9.77
292674310,0.000948,-0.000771,-0.002455,0.00,-0.32,9.83
292675327,0.002011,-0.000770,-0.001389,0.01,-0.31,9.81
292676330,0.005202,0.000295,-0.001387,0.01,-0.33,9.81
292677341,0.005197,0.002423,0.000742,0.02,-0.33,9.82
292678350,0.000935,-0.000772,0.000742,0.05,-0.29,9.81
292679361,-0.002259,-0.002899,-0.000323,0.05,-0.28,9.82
292680370,-0.002257,-0.001832,0.000741,0.02,-0.30,9.83
292681381,-0.000126,0.001362,0.001805,0.01,-0.29,9.81
292682390,0.000938,0.003489,0.001803,0.03,-0.31,9.77
292683401,0.000937,0.001357,-0.001392,0.01,-0.30,9.84
292684410,0.000937,-0.000772,-0.004583,0.04,-0.28,9.86
292685427,-0.000129,-0.000772,-0.004578,0.06,-0.27,9.80
292686430,-0.000129,0.000293,-0.003509,0.04,-0.24,9.77
292687441,-0.000128,0.000293,-0.002442,0.06,-0.25,9.79
292688450,-0.001192,0.000293,-0.001375,0.06,-0.30,9.82
292689461,-0.001191,0.000292,-0.001373,0.05,-0.31,9.82
292690470,-0.001190,-0.000772,-0.000308,0.04,-0.29,9.79
292691481,-0.000125,-0.000771,-0.001372,0.03,-0.27,9.80
292692490,0.000940,-0.000771,-0.001370,0.04,-0.30,9.84
292693501,0.002003,-0.001834,0.001824,0.06,-0.32,9.84
292694516,0.000937,0.000296,0.000758,0.03,-0.31,9.84
292695521,-0.000128,0.002424,-0.000307,0.01,-0.33,9.84
292696550,-0.001193,0.003486,-0.001371,0.01,-0.33,9.83
292697579,-0.001191,0.004547,-0.001370,0.02,-0.32,9.82
292698549,0.003067,0.004542,-0.000304,0.03,-0.31,9.82
292699561,0.004128,0.003473,0.001824,0.03,-0.31,9.81
292700570,0.003060,0.000277,0.001823,0.02,-0.32,9.84
292701581,0.001992,-0.002916,0.001821,0.02,-0.31,9.86
292702593,0.001990,-0.001848,0.001819,0.02,-0.32,9.82
292703615,0.003052,0.001346,0.000753,0.02,-0.32,9.78
292704620,0.001985,0.001345,-0.000312,0.01,-0.29,9.80
292705630,-0.000145,0.002408,-0.002440,0.03,-0.31,9.82
292706641,-0.000145,0.002405,-0.001374,0.04,-0.30,9.79
292707654,0.000919,0.001338,0.000756,0.03,-0.28,9.81
292708662,-0.000146,-0.000791,0.002884,0.03,-0.28,9.81
292709685,-0.000146,0.000274,0.001817,0.04,-0.30,9.77
292710673,0.000919,0.002402,-0.001378,0.05,-0.30,9.76
292711696,0.000918,0.002399,-0.002440,0.03,-0.31,9.80
292712695,-0.000147,0.001333,-0.000310,0.03,-0.32,9.83
292713708,-0.001212,0.000267,0.001819,0.01,-0.30,9.81
292714723,-0.001210,0.000267,0.002882,-0.01,-0.30,9.78
292715768,-0.000145,0.002395,0.001814,0.02,-0.30,9.78
292716779,-0.002273,0.001328,-0.000316,0.05,-0.28,9.74
292717760,-0.003335,0.001327,-0.000316,0.02,-0.29,9.71
292718768,-0.001203,0.000262,-0.000315,0.03,-0.32,9.74
292719805,0.000926,-0.000803,0.000749,0.05,-0.33,9.73
292720811,0.003054,-0.000802,0.001813,0.02,-0.34,9.73
292721795,0.003051,0.001327,0.003939,0.01,-0.31,9.80
292722828,0.001983,0.003454,0.006064,0.02,-0.27,9.78
292723852,-0.000147,0.002387,0.004993,0.02,-0.28,9.75
292724871,-0.002275,0.000256,0.000732,0.05,-0.30,9.73
292725825,-0.001209,-0.000809,-0.002462,0.03,-0.31,9.76
292726834,0.000921,0.000256,-0.003524,0.01,-0.34,9.83
292727843,0.000920,0.001320,-0.002456,0.04,-0.37,9.83
292728880,0.000919,-0.000810,-0.001389,0.03,-0.34,9.79
292729861,0.001982,-0.002937,-0.000324,0.01,-0.30,9.83
292730912,0.003045,-0.001870,0.001805,0.02,-0.29,9.86
292731881,0.001977,0.001325,0.001803,0.05,-0.32,9.85
292732890,0.001975,0.002388,0.000737,0.06,-0.35,9.81
292733917,0.003038,0.003449,-0.001392,0.03,-0.33,9.78
292734954,0.003035,0.002382,-0.001390,0.04,-0.30,9.80
292735921,0.003031,0.001315,0.001803,0.04,-0.33,9.82
292736946,0.000900,0.002378,0.002866,0.04,-0.32,9.83
292737982,0.000899,0.002375,0.000735,0.02,-0.31,9.84
292738950,0.000898,0.001309,-0.001394,0.01,-0.30,9.83
292739975,0.001961,0.000243,-0.001393,0.05,-0.31,9.75
292740970,0.001959,-0.000821,-0.000327,0.04,-0.33,9.76
292741981,0.001957,-0.001885,0.000737,0.02,-0.28,9.84
292742990,-0.000173,0.000246,0.001801,0.05,-0.25,9.83
292744001,-0.000173,0.002374,0.002863,0.07,-0.28,9.83
292745016,-0.000173,0.003436,0.002860,0.06,-0.29,9.86
292746021,-0.000172,0.002368,0.000729,0.03,-0.29,9.85
292747070,0.000892,-0.000827,-0.002465,0.02,-0.30,9.80
292748041,-0.000173,-0.001890,-0.002462,0.03,-0.30,9.77
292749050,-0.002301,-0.001888,-0.000331,0.01,-0.30,9.77
292750061,0.000893,-0.000822,0.001798,0.02,-0.30,9.76
292751070,0.004085,-0.000821,0.001796,0.01,-0.30,9.80
292752081,0.001953,-0.001885,0.000730,-0.01,-0.31,9.84
292753090,-0.000178,-0.002947,-0.001399,-0.01,-0.32,9.82
292754101,-0.000178,-0.001880,-0.001398,0.02,-0.30,9.80
292755116,-0.001242,0.001315,-0.001397,0.06,-0.28,9.78
292756121,-0.001240,0.002377,-0.001395,0.05,-0.31,9.75
292757130,-0.002303,0.001311,-0.000330,0.04,-0.31,9.81
292758141,-0.001237,-0.000819,-0.000329,0.04,-0.29,9.85
292759150,-0.001235,-0.001882,0.000735,0.04,-0.27,9.79
292760161,-0.002298,-0.001880,0.000735,0.04,-0.28,9.83
292761170,-0.002296,0.000250,-0.000330,0.02,-0.28,9.85
292762181,-0.002294,0.002378,-0.001394,0.01,-0.28,9.82
292763190,-0.000163,0.002376,-0.002457,0.03,-0.31,9.82
292764201,0.001966,0.001309,-0.003519,0.02,-0.30,9.80
292765216,0.003028,0.001308,-0.002451,0.04,-0.29,9.80
292766221,0.001960,0.002371,-0.001384,0.06,-0.28,9.82
292767230,0.000894,0.002368,-0.001383,0.02,-0.29,9.80
292768241,-0.000171,0.001302,-0.001382,0.01,-0.29,9.76
292769250,-0.000171,0.000236,-0.002444,0.02,-0.27,9.78
292770261,-0.000170,0.000236,-0.002442,0.01,-0.27,9.85
292771270,-0.000170,0.000236,-0.001375,0.00,-0.27,9.83
292772281,-0.001234,-0.000829,-0.001374,0.02,-0.27,9.80
292773290,-0.001233,-0.001892,-0.003501,0.07,-0.29,9.84
292774301,-0.000168,-0.000826,-0.002433,0.03,-0.29,9.85
292775316,-0.002296,0.000239,-0.000302,0.00,-0.32,9.83
292776321,-0.004422,-0.000825,0.000762,0.03,-0.32,9.84
292777330,-0.005482,-0.000825,0.000762,0.04,-0.32,9.85
292778341,-0.003348,0.001305,0.000761,0.04,-0.32,9.80
292779350,-0.001216,0.001303,0.001824,0.03,-0.30,9.79
292780361,-0.000151,0.001302,0.002887,0.03,-0.30,9.80
292781370,-0.000150,0.000236,0.000755,0.04,-0.31,9.83
292782381,0.000914,0.000236,-0.002438,0.04,-0.34,9.86
292783390,0.000913,-0.000828,-0.002436,0.02,-0.34,9.83
292784401,-0.000152,0.000237,-0.002433,0.03,-0.31,9.82
292785416,-0.000152,0.001301,-0.001367,0.02,-0.32,9.80
292786421,0.000912,0.001299,-0.000301,0.01,-0.31,9.77
292787430,-0.000153,0.000234,0.000764,0.03,-0.31,9.78
292788441,-0.002281,-0.000830,0.000763,0.01,-0.32,9.84
292789450,-0.001214,0.000235,-0.001366,-0.01,-0.32,9.84
292790461,0.001979,0.000234,-0.001365,0.01,-0.30,9.78
292791470,0.001977,0.000234,0.000765,0.01,-0.26,9.76
292792481,0.000911,-0.001895,-0.000300,0.00,-0.26,9.74
292793490,0.000910,-0.004021,-0.002428,0.03,-0.29,9.74
292794507,0.000909,0.000240,-0.001362,0.06,-0.29,9.82
292795510,0.000908,0.000240,0.000768,0.06,-0.30,9.81
292796521,-0.000157,-0.000825,0.001832,0.03,-0.31,9.82
292797530,0.000908,-0.001888,0.000766,0.03,-0.28,9.84
292798541,0.001971,-0.001886,0.000765,0.04,-0.28,9.86
292799558,0.000905,0.002372,0.000764,0.05,-0.33,9.83
292800562,-0.001225,0.005563,-0.001365,0.02,-0.34,9.77
292801571,-0.001223,0.002364,-0.000300,-0.02,-0.34,9.77
292802583,0.000906,0.001298,0.000765,0.02,-0.32,9.78
292803594,0.003034,0.000232,0.000764,0.05,-0.33,9.78
292804613,0.001967,-0.000832,0.001828,0.05,-0.34,9.81
292805613,0.000900,0.000233,0.000761,0.07,-0.34,9.82
292806630,0.001964,0.002361,0.000761,0.05,-0.32,9.78
292807635,0.003026,0.001294,0.000760,0.04,-0.30,9.77
292808664,0.001959,0.000229,0.000759,0.01,-0.31,9.79
292809659,-0.001236,0.000229,-0.001370,-0.03,-0.29,9.79
292810670,-0.003363,0.000228,0.000760,0.02,-0.31,9.80
292811680,-0.002296,0.001292,0.001823,0.04,-0.33,9.78
292812699,-0.000165,0.002355,0.000757,0.00,-0.31,9.74
292813707,-0.000165,0.001289,0.000756,-0.01,-0.30,9.79
292814717,-0.000165,0.000223,0.000756,0.00,-0.31,9.79
292815717,-0.000164,-0.000841,-0.000309,0.01,-0.32,9.78
292816731,-0.001228,-0.000840,-0.000309,0.03,-0.32,9.80
292817740,-0.003356,0.001289,0.000756,0.05,-0.30,9.80
292818779,-0.003352,-0.000841,0.000755,0.04,-0.33,9.82
292819776,-0.001220,-0.005097,0.000754,0.06,-0.34,9.81
292820769,-0.001219,-0.004027,0.000753,0.05,-0.31,9.80
292821778,-0.002282,-0.001895,-0.000312,0.03,-0.29,9.81
292822786,-0.001216,-0.000829,-0.001376,0.02,-0.29,9.83
292823802,-0.000150,0.000236,-0.000310,0.02,-0.32,9.82
292824812,-0.001214,0.000236,-0.000310,0.02,-0.32,9.81
292825815,-0.000149,-0.002957,-0.001374,0.00,-0.31,9.81
292826826,0.001980,-0.004018,-0.000308,0.03,-0.30,9.78
292827835,-0.000151,-0.000821,0.000757,0.02,-0.30,9.73
292828845,-0.003343,0.002372,-0.000308,0.02,-0.33,9.74
292829858,-0.004404,0.003434,-0.000308,0.02,-0.35,9.79
292830862,-0.002271,0.003430,0.001821,0.01,-0.33,9.78
292831871,-0.000140,0.002363,0.001819,0.02,-0.34,9.77
292832882,0.001988,0.000232,0.000753,0.02,-0.34,9.77
292833891,-0.000142,-0.000833,-0.001376,0.01,-0.31,9.80
292834908,-0.003335,-0.000832,-0.002439,0.02,-0.32,9.77
292835911,-0.003331,-0.000831,-0.001373,0.04,-0.31,9.78
292836922,-0.001200,0.001298,-0.001371,0.02,-0.30,9.79
292837931,0.000930,0.001297,-0.001370,0.02,-0.32,9.76
292838949,-0.000135,-0.000833,-0.000304,0.02,-0.32,9.82
292839951,-0.001199,-0.000832,-0.001368,0.03,-0.32,9.85
292840962,-0.001198,0.000233,-0.002431,0.04,-0.32,9.84
292841971,-0.000133,0.001297,-0.001364,0.04,-0.31,9.83
292842982,0.000932,0.001296,0.001830,0.04,-0.31,9.78
292843991,-0.001198,-0.000834,0.001828,0.04,-0.32,9.81
292845008,-0.001196,-0.001897,-0.000302,0.04,-0.32,9.84
292846011,-0.000131,-0.000831,-0.001366,0.04,-0.29,9.83
292847022,-0.000131,0.000234,-0.001365,0.03,-0.29,9.82
292848031,-0.000131,0.000234,-0.000299,-0.02,-0.31,9.82
292849049,0.000934,-0.001895,0.000765,-0.02,-0.31,9.84
292850051,0.001997,-0.001893,0.002893,0.01,-0.31,9.82
292851062,0.003059,-0.001891,0.002890,0.02,-0.33,9.83
292852071,0.000928,-0.002953,-0.000306,0.02,-0.30,9.86
292853082,0.001991,-0.004015,-0.003498,0.02,-0.29,9.84
292854091,-0.000140,-0.002946,-0.002430,0.00,-0.32,9.79
292855108,-0.002268,0.001314,0.000765,-0.01,-0.32,9.77
292856111,-0.001201,0.001312,0.002892,0.03,-0.35,9.82
292857122,0.001993,-0.000818,0.001825,0.04,-0.35,9.79
292858131,0.004119,-0.002945,-0.000305,0.03,-0.31,9.74
292859149,0.003051,-0.001878,-0.000305,0.02,-0.30,9.76
292860151,0.000919,-0.000812,-0.000304,0.02,-0.32,9.80
292861162,-0.000146,-0.000811,-0.000304,0.01,-0.31,9.79
292862171,-0.000146,-0.002939,0.001825,0.00,-0.30,9.80
292863182,0.000918,-0.001871,0.002887,0.02,-0.31,9.86
292864191,-0.000147,-0.001870,0.003948,0.05,-0.30,9.86
292865208,-0.001211,-0.000803,0.003944,0.03,-0.31,9.88
292866211,-0.000145,0.001326,0.000748,0.00,-0.29,9.88
292867222,0.001983,0.001324,-0.001381,0.02,-0.27,9.84
292868231,0.003045,0.000259,-0.000316,0.04,-0.29,9.81
292869249,0.000914,-0.000806,0.000749,0.04,-0.27,9.78
292870251,-0.000151,-0.001869,-0.001380,0.01,-0.29,9.77
292871262,-0.001215,0.000261,-0.002443,-0.01,-0.33,9.75
292872271,-0.001214,0.002389,-0.001377,0.00,-0.35,9.75
292873282,-0.001213,0.002387,-0.000311,0.05,-0.33,9.81
292874291,-0.000147,0.002385,0.001818,0.07,-0.32,9.81
292875308,0.000917,0.000254,0.002880,0.05,-0.31,9.80
292876311,0.001980,-0.001875,0.001813,0.02,-0.30,9.85
292877322,0.003043,-0.000809,0.001811,0.02,-0.28,9.83
292878331,0.000911,0.000256,0.001809,0.03,-0.30,9.81
292879349,-0.000154,0.000256,0.000743,0.03,-0.30,9.83
292880351,-0.000154,0.001320,0.001807,0.04,-0.29,9.82
292881362,-0.001218,0.000254,0.004998,0.05,-0.30,9.76
292882371,-0.000153,0.002383,0.003928,0.06,-0.30,9.77
292883382,0.000912,0.005573,0.003924,0.04,-0.33,9.78
292884391,-0.000153,0.004503,0.002856,0.01,-0.33,9.76
292885408,-0.000153,0.000242,0.003917,0.03,-0.30,9.78
292886411,-0.000153,-0.001887,0.002849,0.02,-0.31,9.81
292887422,-0.001217,-0.000821,0.000718,0.03,-0.32,9.84
292888431,-0.000152,0.002373,-0.001411,0.04,-0.28,9.83
292889449,0.001977,0.003434,-0.001410,0.03,-0.29,9.83
292890451,0.001975,0.001302,-0.000344,0.01,-0.30,9.87
292891462,0.001973,-0.001892,-0.000344,-0.01,-0.29,9.86
292892471,0.001971,-0.001890,-0.001408,-0.02,-0.29,9.80
292893482,-0.000159,-0.000823,0.000722,0.04,-0.31,9.84
292894491,0.000905,0.001306,0.000722,0.04,-0.32,9.81
292895508,-0.000160,0.004497,0.001785,0.03,-0.29,9.83
292896511,-0.002288,0.005557,0.000719,0.04,-0.30,9.83
292897522,-0.001222,0.003423,0.000718,0.05,-0.32,9.80
292898531,-0.000157,0.002355,0.000718,0.03,-0.29,9.83
292899549,-0.000156,0.001288,0.000717,0.01,-0.28,9.87
292900551,-0.001220,0.000223,-0.001412,-0.02,-0.28,9.82
292901562,-0.001219,-0.000842,-0.001411,-0.02,-0.30,9.80
292902571,-0.000154,-0.000841,-0.002474,0.02,-0.31,9.82
292903583,0.001975,0.002353,-0.003535,0.04,-0.28,9.81
292904599,0.001973,0.003415,-0.002468,0.08,-0.28,9.80
292905608,-0.000158,0.001283,-0.000337,0.05,-0.29,9.82
292906613,-0.000157,0.001281,0.000728,0.00,-0.32,9.82
292907630,0.000907,-0.000848,0.000727,0.00,-0.31,9.78
292908635,0.001970,-0.001912,0.001791,-0.02,-0.31,9.75
292909658,0.001968,-0.001910,0.003917,-0.01,-0.30,9.74
292910656,0.000902,-0.001908,0.002849,0.02,-0.30,9.75
292911678,-0.000163,-0.000842,-0.000346,-0.01,-0.32,9.84
292912682,-0.000163,0.003416,-0.001410,0.01,-0.32,9.89
292913697,-0.000163,0.003413,-0.000345,0.04,-0.32,9.83
292914707,-0.000163,0.001281,-0.000344,0.04,-0.33,9.80
292915716,0.001966,-0.000849,-0.001408,0.05,-0.31,9.81
292916717,0.001964,-0.004041,-0.001407,0.03,-0.31,9.86
292917731,0.001962,-0.005101,-0.000341,0.00,-0.29,9.83
292918740,0.001960,-0.002967,0.002852,0.01,-0.29,9.78
292919761,0.003022,-0.000836,0.001785,0.01,-0.32,9.78
292920800,0.001955,0.001293,0.000719,0.01,-0.30,9.80
292921767,-0.000175,0.002356,-0.000346,0.02,-0.32,9.82
292922778,-0.002304,-0.000839,0.000718,0.03,-0.31,9.81
292923786,-0.001237,-0.004031,0.002846,0.02,-0.27,9.80
292924801,-0.000172,-0.004027,0.001779,0.02,-0.28,9.82
292925806,-0.000172,-0.004022,-0.000351,0.04,-0.28,9.83
292926815,-0.002300,-0.001890,-0.002479,0.03,-0.28,9.80
292927826,-0.002297,0.000240,-0.001413,0.03,-0.29,9.79
292928835,-0.002295,0.000240,-0.000347,0.02,-0.29,9.83
292929852,-0.000164,0.000240,0.000718,0.02,-0.28,9.85
292930877,-0.000164,0.000240,0.000717,0.02,-0.26,9.82
292932241,0.000900,0.000239,0.001780,0.00,-0.28,9.79
292932865,0.001965,-0.000826,0.000715,-0.01,-0.32,9.79
292933853,0.014749,-0.007218,0.020955,0.01,-0.26,9.81
292934868,0.048838,-0.015740,0.046522,0.07,-0.33,9.79
292935877,0.047772,-0.010413,0.038000,0.04,-0.28,9.79
292936882,0.015814,-0.002957,0.020955,-0.04,-0.18,9.83
292937893,-0.004426,0.000239,0.016694,-0.17,-0.42,9.84
292938902,0.006226,0.002370,0.022021,-0.11,-0.22,9.70
292939917,0.011553,0.000239,0.018825,-0.06,-0.06,9.85
292940918,0.011553,-0.009348,0.012433,0.23,-0.29,9.53
292941930,0.007292,-0.004022,0.007107,0.32,-0.40,9.69
292942948,-0.003361,0.008762,0.004976,0.15,-0.44,10.07
292943964,-0.011883,0.008762,0.012433,-0.11,-0.52,10.12
292944979,-0.019340,0.003435,0.011368,-0.32,-0.15,10.09
292945988,-0.015079,-0.002957,-0.003546,0.23,-0.34,9.44
292946982,-0.000165,-0.008283,-0.017395,0.40,-1.15,9.40
292947993,0.006226,0.001305,-0.014199,-0.09,-0.31,10.19
292949012,-0.007622,0.001305,-0.011003,-0.02,0.67,10.45
292950015,-0.021471,-0.011479,-0.018460,0.39,-0.96,9.37
292951029,0.006226,0.002370,-0.013134,-0.09,-0.91,9.40
292952040,0.006227,0.030067,-0.001416,-0.22,1.16,10.59
292953075,-0.036385,0.001305,-0.007807,0.29,-1.05,9.91
292954072,-0.020406,-0.012544,-0.005677,0.15,-1.09,8.69
292955086,0.034989,0.009827,-0.001416,-0.30,1.28,9.87
292956091,0.020075,-0.028523,-0.013134,0.02,-1.45,9.92
292957092,0.015814,-0.030654,-0.004611,0.09,-0.46,9.46
292958092,0.033924,0.013023,0.003911,-0.59,0.79,10.23
292959101,0.001965,0.002370,0.009237,0.63,-0.65,9.31
292960112,-0.003361,0.016219,0.012433,-0.34,-0.68,10.58
292961121,0.020075,0.010892,0.002846,0.19,0.59,9.60
292962132,0.037120,0.007696,0.008172,-0.08,-0.92,9.65
292963141,0.014749,-0.005087,0.001780,-0.11,-0.25,9.94
292964184,0.008357,-0.017870,-0.003546,0.33,-0.27,9.77
292965183,0.014749,0.011957,-0.004611,-0.24,-0.48,10.46
292966195,-0.007622,0.003435,0.001780,0.19,-0.53,8.77
292967181,0.021140,-0.023197,0.006041,-0.19,-0.43,10.33
292968192,-0.006557,-0.033850,0.000715,0.22,-0.12,8.93
292969201,-0.005492,0.003435,-0.002481,-0.17,-1.01,10.55
292970212,-0.022536,-0.000826,-0.000350,0.28,0.25,10.13
292971221,0.005161,0.005566,0.001780,0.04,-1.59,9.22
292972232,0.001965,0.006631,0.000715,-0.09,1.03,10.52
292973251,-0.010818,0.005566,0.001780,0.53,-0.92,8.78
292974252,-0.019340,-0.009348,0.000715,-0.46,-0.98,9.88
292975276,-0.016144,-0.002957,0.003911,0.12,1.00,10.72
292976300,0.014749,0.004500,0.012433,0.25,-1.31,8.63
292977281,0.016879,-0.008283,0.010303,-0.34,0.34,10.49
292978292,-0.004426,-0.010413,0.004976,0.84,0.28,10.46
292979301,-0.017210,-0.018936,0.004976,-0.95,-0.98,8.35
292980312,-0.023601,-0.006152,-0.000350,0.22,0.48,11.76
292981321,-0.037450,0.016219,0.001780,0.53,-0.14,9.82
292982332,-0.016144,0.016219,0.007107,-0.76,-1.08,8.61
292983341,0.017945,0.008762,0.008172,0.00,0.63,10.74
292984352,0.016879,0.001305,0.003911,0.64,0.03,9.77
292985367,0.011553,0.007696,0.000715,-0.12,-0.96,8.53
292986375,0.020075,0.008762,0.004976,-0.92,-0.25,9.59
292987381,0.036054,0.003435,0.004976,1.06,0.37,10.73
292988392,0.019010,0.006631,0.002846,0.47,-0.29,9.12
292989401,-0.022536,0.014088,0.000715,-1.02,-1.33,9.43
292990429,-0.049168,0.020480,-0.002481,-0.18,-0.39,10.69
292991442,-0.021471,0.004500,-0.003546,1.11,0.26,10.40
292992445,0.007292,-0.011479,-0.005677,0.35,-0.24,9.04
292993441,0.008357,-0.006152,-0.007807,-1.31,-0.95,8.91
292994452,0.000900,0.009827,-0.008872,1.22,0.23,10.14
292995467,-0.004426,0.018349,0.003911,0.41,0.27,9.32
292996475,-0.027862,0.025806,0.012433,-1.21,-0.94,8.88
292997481,-0.026797,0.021545,0.007107,-0.79,-1.01,10.04
292998492,-0.006557,0.005566,-0.001416,0.95,0.10,10.90
292999501,0.007292,-0.011479,-0.003546,0.91,0.29,9.83
293000512,0.001965,-0.018936,-0.002481,-0.18,0.34,9.08
293001537,-0.009753,-0.017870,-0.001416,-1.26,-0.80,9.07
293002550,0.001965,-0.008283,-0.002481,-0.50,-1.04,10.62
293003541,-0.007622,0.008762,-0.002481,0.95,-0.39,10.60
293004573,-0.020406,0.014088,-0.001416,1.06,0.33,9.82
293005576,-0.025732,0.014088,-0.002481,0.23,0.71,9.05
293006583,-0.023601,0.019414,-0.001416,-1.11,-0.27,9.08
293007600,-0.006557,0.019414,0.000715,-0.87,-1.29,9.78
293008615,0.020075,0.001305,0.002846,0.20,-1.13,10.48
293009604,0.034989,-0.011479,0.008172,1.06,-0.51,10.41
293010624,0.012618,-0.014675,0.007107,0.99,0.35,9.75
293011632,-0.021471,-0.008283,-0.001416,0.20,1.17,9.50
293012636,-0.034254,-0.008283,-0.006742,-0.69,0.17,9.20
293013647,-0.024667,-0.012544,-0.005677,-1.09,-1.29,9.65
293014677,-0.000165,-0.012544,-0.000350,-0.33,-1.75,9.89
293015678,0.007292,-0.014675,0.001780,0.48,-1.13,10.42
293016687,0.011553,-0.000826,-0.001416,0.99,-0.40,10.13
293017695,0.023271,0.006631,-0.000350,0.87,0.74,9.80
293018710,0.031793,-0.015740,0.001780,0.14,1.36,9.63
293019709,0.024336,-0.038111,-0.000350,-0.71,0.76,9.43
293020716,0.010488,-0.034915,-0.001416,-1.07,-0.69,9.71
293021732,0.003031,-0.021066,0.000715,-0.66,-1.71,9.64
293022740,0.001965,-0.010413,-0.000350,-0.18,-1.54,10.12
293023753,-0.022536,0.009827,-0.007807,0.33,-1.65,10.18
293024777,0.013683,0.016219,-0.001416,0.84,-0.75,10.07
293025783,0.013683,-0.008283,0.000715,0.87,0.63,9.89
293026804,-0.035319,-0.004022,-0.011003,0.38,1.32,9.55
293027806,-0.025732,0.029002,-0.014199,-0.10,1.15,9.50
293028807,0.037120,0.038589,-0.003546,-0.20,1.07,9.55
293029812,0.086123,0.014088,0.007107,-0.60,0.22,9.81
293030818,0.087188,0.017284,0.002846,-0.72,-1.74,9.83
293031823,0.046707,0.056699,-0.007807,-0.24,-2.41,9.56
293032851,-0.009753,0.039655,-0.009938,-0.15,-1.99,9.65
293033851,-0.019340,-0.027458,0.001780,0.07,-1.97,10.14
293034862,0.013683,-0.035980,0.004976,0.69,-1.17,10.47
293035876,0.034989,-0.012544,0.006041,0.61,0.93,10.33
293036892,0.032859,-0.032784,0.002846,0.29,1.62,9.98
293037890,0.001965,-0.011479,-0.003546,0.39,1.20,9.66
293038902,0.007292,0.017284,0.006041,0.28,1.63,9.58
293039911,0.004096,-0.002957,0.008172,-0.35,1.26,9.66
293040927,-0.016144,-0.022132,-0.007807,-0.86,-0.48,9.71
293041921,-0.001230,-0.000826,-0.019525,-0.52,-1.18,9.59
293042932,0.023271,0.022610,-0.019525,-0.60,-1.71,9.44
293043941,0.028597,0.016219,-0.017395,-0.97,-2.70,9.61
293044958,0.029663,0.010892,-0.016329,-0.45,-2.42,9.48
293045964,0.037120,0.011957,-0.016329,-0.03,-1.63,9.62
293046993,0.023271,0.003435,-0.021656,0.04,-1.61,9.61
293047997,-0.002296,-0.009348,-0.024852,0.32,-0.89,9.74
293049005,0.000900,-0.012544,-0.022721,0.48,0.30,10.29
293050001,0.004096,-0.004022,-0.020591,0.42,0.59,10.21
293051032,-0.017210,0.000239,-0.021656,0.44,0.94,10.30
293052021,-0.003361,-0.006152,-0.019525,0.44,1.39,10.10
293053032,0.012618,-0.013609,-0.022721,0.37,1.04,9.67
293054041,0.029663,-0.009348,-0.021656,0.27,0.63,9.55
293055058,0.012618,-0.005087,-0.024852,0.12,0.66,9.82
293056064,0.007292,-0.000826,-0.024852,-0.02,0.53,10.09
293057072,-0.002296,-0.002957,-0.022721,-0.30,-0.26,9.81
293058081,-0.021471,0.007696,-0.025917,-0.39,-0.68,9.92
293059092,0.016879,-0.001891,-0.019525,-0.35,-0.86,9.60
293060101,0.037120,-0.030654,-0.016329,-0.38,-1.41,9.38
293061112,-0.004426,-0.016805,-0.028048,-0.24,-1.75,9.39
293062121,-0.016144,0.019414,-0.035505,-0.35,-1.75,9.40
293063132,0.030728,0.016219,-0.030178,-0.56,-1.48,9.72
293064141,0.066948,-0.010413,-0.021656,-0.45,-1.40,9.84
293065158,0.044577,-0.018936,-0.020591,-0.18,-1.13,9.70
293066164,-0.009753,-0.015740,-0.028048,-0.12,-0.95,9.50
293067172,-0.048103,-0.021066,-0.036570,-0.04,-0.69,9.86
293068181,-0.060886,-0.007218,-0.046157,0.20,-0.64,9.77
293069192,-0.060886,0.011957,-0.048288,0.12,-0.44,9.63
293070201,-0.048103,0.001305,-0.044027,0.08,0.09,9.83
293071212,-0.029993,-0.017870,-0.038700,0.35,0.01,10.00
293072221,-0.008687,-0.025327,-0.031243,0.51,0.25,10.25
293073232,0.019010,-0.027458,-0.025917,0.26,0.40,10.31
293074241,0.045642,-0.024262,-0.025917,0.15,0.45,10.32
293075258,0.045642,-0.004022,-0.030178,0.35,0.64,10.17
293076264,0.004096,0.021545,-0.037635,0.37,0.61,10.02
293077272,-0.036385,0.026871,-0.039766,0.30,0.39,9.92
293078281,-0.038515,0.002370,-0.030178,0.30,0.44,9.87
293079292,-0.001230,-0.020001,-0.017395,0.28,0.53,9.84
293080301,0.012618,-0.005087,-0.017395,0.17,0.30,9.71
293081312,-0.015079,0.016219,-0.021656,0.11,0.24,9.58
293082321,-0.015079,0.001305,-0.015264,0.05,0.21,9.56
293083332,0.011553,-0.007218,-0.006742,-0.04,0.11,9.69
293084341,0.008357,0.008762,-0.008872,-0.06,-0.04,9.67
293085358,0.009422,0.005566,-0.007807,-0.02,-0.05,9.62
293086364,0.022206,0.001305,-0.009938,0.04,-0.07,9.71
293087372,0.016879,0.002370,-0.017395,0.05,-0.22,9.76
293088381,0.022206,-0.005087,-0.018460,0.01,-0.31,9.81
293089392,0.016879,0.000239,-0.021656,-0.01,-0.40,9.82
293090401,-0.000165,-0.004022,-0.021656,-0.03,-0.41,9.84
293091412,-0.004426,-0.000826,-0.023786,-0.04,-0.46,9.82
293092421,-0.023601,0.003435,-0.022721,-0.07,-0.57,9.84
293093432,-0.034254,0.005566,-0.013134,-0.03,-0.62,9.78
293094441,-0.018275,0.004500,-0.009938,-0.05,-0.58,9.80
293095458,-0.027862,0.008762,-0.008872,-0.08,-0.62,9.78
293096464,-0.015079,0.003435,-0.011003,-0.10,-0.72,9.77
293097472,-0.014014,0.001305,-0.008872,-0.08,-0.69,9.80
293098481,0.007292,0.000239,-0.006742,-0.10,-0.61,9.82
293099492,0.015814,-0.000826,-0.003546,-0.12,-0.66,9.74
293100501,0.015814,0.004500,-0.004611,-0.12,-0.74,9.66
293101512,0.026467,-0.004022,-0.004611,-0.16,-0.68,9.74
293102521,0.007292,-0.002957,-0.013134,-0.09,-0.68,9.88
293103532,0.024336,-0.004022,-0.013134,-0.04,-0.73,9.88
293104541,0.004096,-0.000826,-0.015264,-0.10,-0.64,9.80
293105558,-0.007622,0.004500,-0.020591,-0.07,-0.55,9.75
293106564,0.022206,-0.009348,-0.017395,0.00,-0.65,9.69
293107572,-0.005492,-0.009348,-0.018460,-0.05,-0.60,9.63
293108581,-0.004426,-0.008283,-0.017395,-0.08,-0.42,9.78
293109601,-0.000165,-0.014675,-0.015264,0.03,-0.57,9.72
293110603,-0.040646,-0.000826,-0.019525,0.05,-0.55,9.66
293111618,-0.021471,0.005566,-0.019525,0.02,-0.47,9.85
293112626,-0.004426,-0.002957,-0.014199,0.09,-0.63,9.73
293113637,-0.036385,0.003435,-0.014199,0.05,-0.51,9.62
293114648,-0.012949,0.004500,-0.014199,0.03,-0.41,9.74
293115682,-0.006557,0.001305,-0.015264,0.06,-0.51,9.74
293116677,-0.039581,0.013023,-0.016329,0.05,-0.44,9.62
293117682,-0.003361,0.010892,-0.011003,0.04,-0.28,9.81
293118689,0.013683,-0.002957,-0.006742,0.06,-0.51,9.87
293119702,-0.018275,0.007696,-0.008872,0.10,-0.47,9.78
293120707,0.019010,0.009827,-0.005677,0.09,-0.25,9.89
293121715,0.044577,-0.010413,-0.000350,0.06,-0.34,9.87
293122733,-0.007622,-0.001891,-0.007807,0.07,-0.39,9.77
293123740,0.003031,0.011957,-0.012068,0.10,-0.23,9.85
293124755,0.053099,-0.007218,-0.006742,-0.01,-0.13,9.88
293125783,0.014749,-0.011479,-0.009938,-0.02,-0.23,9.81
293126764,-0.025732,0.010892,-0.018460,0.08,-0.18,9.92
293127772,0.034989,0.000239,-0.016329,0.07,-0.08,9.97
293128808,0.053099,-0.021066,-0.013134,0.06,-0.24,9.95
293129822,-0.025732,-0.004022,-0.019525,0.09,-0.19,9.97
293130804,-0.035319,0.017284,-0.023786,0.09,0.00,10.00
293131830,0.042446,-0.002957,-0.015264,0.12,-0.14,9.94
293132838,0.040315,-0.026393,-0.011003,0.18,-0.05,10.03
293133832,-0.043842,-0.008283,-0.018460,0.10,-0.04,9.98
293134847,-0.048103,0.014088,-0.021656,0.06,-0.12,9.85
293135855,0.027532,0.001305,-0.011003,0.07,-0.10,9.90
293136861,0.020075,-0.018936,-0.004611,0.09,-0.10,9.88
293137872,-0.060886,-0.002957,-0.012068,0.07,0.02,9.87
293138881,-0.050233,0.016219,-0.013134,0.02,-0.07,9.84
293139892,0.042446,-0.002957,0.001780,0.10,-0.07,9.89
293140901,0.052034,-0.028523,0.014564,0.09,0.00,9.91
293141912,-0.040646,-0.009348,0.008172,0.10,-0.11,9.94
293142930,-0.077931,0.031132,-0.002481,0.14,-0.17,9.90
293143952,0.006227,0.033263,0.001780,0.10,-0.07,9.74
293144968,0.075470,-0.001891,0.012433,0.05,-0.06,9.82
293145965,0.025402,-0.016805,0.013498,0.10,-0.18,9.89
293146976,-0.066213,0.005566,0.001780,0.10,-0.12,9.78
293147977,-0.063017,0.031132,-0.008872,0.09,-0.09,9.84
293148984,0.040315,0.022610,-0.003546,0.03,-0.19,9.84
293149996,0.101036,-0.012544,0.008172,0.02,-0.07,9.78
293151012,0.041381,-0.030654,0.006041,0.10,-0.06,9.82
293152020,-0.063017,-0.005087,-0.009938,0.12,-0.22,9.78
293153047,-0.073670,0.026871,-0.023786,0.11,-0.08,9.78
293154052,0.020075,0.022610,-0.019525,0.08,-0.08,9.83
293155066,0.103167,-0.011479,-0.002481,0.07,-0.23,9.74
293156081,0.077600,-0.037046,0.006041,0.07,-0.18,9.69
293157073,-0.031058,-0.024262,-0.006742,-0.01,-0.18,9.77
293158088,-0.105628,0.013023,-0.024852,-0.02,-0.15,9.80
293159081,-0.061951,0.032198,-0.030178,0.08,-0.13,9.76
293160092,0.053099,0.009827,-0.016329,0.14,-0.16,9.75
293161101,0.113820,-0.028523,-0.000350,0.04,-0.26,9.73
293162112,0.060556,-0.041307,0.001780,-0.03,-0.28,9.74
293163121,-0.052364,-0.014675,-0.009938,0.02,-0.18,9.70
293164132,-0.123738,0.020480,-0.024852,0.01,-0.18,9.69
293165147,-0.088583,0.033263,-0.029113,0.03,-0.14,9.82
293166155,0.021140,0.014088,-0.019525,0.09,-0.18,9.86
293167161,0.102102,-0.021066,-0.006742,0.06,-0.24,9.78
293168172,0.080796,-0.031719,0.004976,-0.03,-0.30,9.69
293169191,-0.016144,-0.010413,0.004976,-0.05,-0.28,9.71
293170212,-0.106693,0.021545,-0.005677,0.03,-0.18,9.89
293171219,-0.120542,0.041785,-0.017395,-0.01,-0.26,9.81
293172242,-0.038515,0.037524,-0.019525,0.00,-0.22,9.73
293173232,0.070143,0.008762,-0.009938,0.15,-0.17,9.74
293174232,0.119146,-0.025327,0.001780,0.11,-0.27,9.72
293175247,0.075470,-0.035980,0.009237,-0.04,-0.30,9.75
293176255,-0.023601,-0.014675,0.006041,-0.04,-0.25,9.77
293177261,-0.099236,0.016219,-0.005677,0.07,-0.28,9.80
293178272,-0.106693,0.040720,-0.017395,0.08,-0.27,9.82
293179281,-0.038515,0.034328,-0.020591,0.04,-0.15,9.78
293180292,0.064817,0.006631,-0.012068,0.09,-0.31,9.66
293181322,0.130864,-0.023197,0.000715,0.05,-0.37,9.65
293182312,0.112755,-0.040241,0.009237,-0.06,-0.17,9.81
293183321,0.032859,-0.032784,0.009237,-0.09,-0.25,9.92
293184332,-0.060886,-0.005087,-0.000350,0.05,-0.34,9.93
293185347,-0.116281,0.026871,-0.014199,0.16,-0.12,9.89
293186355,-0.097106,0.033263,-0.022721,0.08,-0.20,9.76
293187361,-0.015079,0.019414,-0.022721,0.00,-0.38,9.68
293188372,0.077600,-0.000826,-0.012068,-0.01,-0.28,9.78
293189381,0.120212,-0.025327,-0.003546,-0.01,-0.20,9.94
293190392,0.086123,-0.038111,0.001780,0.01,-0.27,9.91
293191401,0.004096,-0.028523,-0.000350,0.13,-0.19,9.79
293192412,-0.081127,-0.001891,-0.008872,0.14,-0.23,9.62
293193421,-0.074735,0.035394,-0.024852,0.05,-0.26,9.69
293194432,0.020075,0.021545,-0.021656,-0.01,-0.26,9.79
293195447,0.098906,-0.015740,-0.011003,-0.02,-0.23,9.96
293196455,0.105298,-0.045568,-0.001416,0.01,-0.21,9.96
293197461,0.043511,-0.042372,0.000715,0.11,-0.29,9.79
293198472,-0.050233,-0.010413,-0.004611,0.16,-0.32,9.70
293199481,-0.119477,0.025806,-0.013134,0.05,-0.24,9.70
293200492,-0.121607,0.044981,-0.019525,-0.05,-0.24,9.82
293201501,-0.043842,0.038589,-0.018460,-0.01,-0.21,9.93
293202512,0.055229,0.010892,-0.011003,0.07,-0.14,9.87
293203521,0.107428,-0.020001,-0.002481,0.10,-0.29,9.89
293204532,0.087188,-0.038111,0.002846,0.13,-0.31,9.83
293205547,0.017945,-0.030654,0.004976,0.12,-0.16,9.72
293206555,-0.060886,0.001305,0.002846,0.00,-0.33,9.75
293207561,-0.106693,0.044981,-0.003546,-0.03,-0.34,9.96
293208572,-0.078996,0.053503,-0.006742,0.07,-0.04,10.02
293209581,0.012618,0.024741,-0.006742,0.10,-0.30,9.89
293210599,0.093580,-0.010413,0.000715,0.12,-0.46,9.75
293211603,0.112755,-0.040241,0.012433,0.15,-0.11,9.61
293212618,0.058425,-0.041307,0.017760,0.07,-0.27,9.80
293213625,-0.041711,-0.000826,0.010303,-0.02,-0.48,10.01
293214636,-0.097106,0.039655,-0.000350,0.03,-0.16,9.91
293215655,-0.072604,0.044981,-0.009938,0.08,-0.20,9.93
293216666,0.009422,0.021545,-0.011003,0.05,-0.44,9.86
293217670,0.098906,-0.014675,-0.001416,0.06,-0.14,9.70
293218682,0.126603,-0.040241,0.014564,0.03,-0.27,9.71
293219690,0.070143,-0.041307,0.018825,-0.05,-0.50,9.85
293220701,-0.022536,-0.014675,0.012433,-0.05,-0.21,10.05
293221704,-0.105628,0.019414,-0.003546,0.01,-0.23,9.97
293222717,-0.120542,0.034328,-0.014199,0.00,-0.44,9.83
293223732,-0.052364,0.029002,-0.016329,0.02,-0.35,9.74
293224749,0.052034,0.004500,-0.013134,0.00,-0.36,9.64
293225751,0.113820,-0.027458,-0.002481,-0.07,-0.40,9.78
293226755,0.094645,-0.043437,0.009237,-0.01,-0.28,9.96
293227781,0.016879,-0.031719,0.010303,-0.01,-0.35,9.95
293228772,-0.076865,0.000239,0.000715,-0.02,-0.41,9.94
293229784,-0.134391,0.030067,-0.013134,0.04,-0.37,9.86
293230795,-0.117346,0.042851,-0.021656,0.02,-0.42,9.68
293231804,-0.032124,0.032198,-0.018460,0.03,-0.38,9.79
293232814,0.063752,0.007696,-0.007807,-0.02,-0.32,9.92
293233821,0.114885,-0.021066,0.003911,-0.07,-0.32,9.95
293234838,0.095710,-0.035980,0.010303,-0.04,-0.42,9.78
293235844,0.016879,-0.031719,0.010303,-0.03,-0.52,9.68
293236852,-0.065147,-0.013609,0.002846,-0.01,-0.44,9.73
293237861,-0.115215,0.016219,-0.006742,0.05,-0.39,9.72
293238872,-0.110954,0.043916,-0.014199,0.00,-0.40,9.86
293239881,-0.049168,0.050308,-0.013134,-0.04,-0.40,10.00
293240892,0.046707,0.031132,-0.006742,0.04,-0.43,9.91
293241901,0.115950,-0.005087,0.000715,0.01,-0.37,9.76
293242912,0.126603,-0.037046,0.009237,-0.04,-0.43,9.62
293243921,0.079731,-0.044502,0.014564,0.01,-0.52,9.61
293244938,0.003031,-0.027458,0.014564,0.07,-0.30,9.81
293245944,-0.073670,0.004500,0.004976,-0.01,-0.35,9.88
293246952,-0.113085,0.038589,-0.004611,-0.06,-0.42,9.91
293247961,-0.085388,0.053503,-0.011003,-0.08,-0.45,9.79
293248972,0.004096,0.031132,-0.013134,-0.09,-0.43,9.75
293249981,0.102102,-0.007218,-0.006742,-0.08,-0.43,9.73
293250992,0.142582,-0.037046,0.003911,-0.03,-0.49,9.71
293252001,0.094645,-0.043437,0.009237,0.01,-0.39,9.93
293253012,-0.009753,-0.018936,0.004976,-0.04,-0.38,9.99
293254021,-0.101367,0.020480,-0.005677,-0.02,-0.43,9.85
293255038,-0.106693,0.040720,-0.018460,0.00,-0.51,9.71
293256044,-0.016144,0.026871,-0.024852,-0.04,-0.49,9.66
293257052,0.087188,-0.009348,-0.017395,0.00,-0.47,9.76
293258061,0.114885,-0.038111,-0.003546,0.06,-0.45,9.88
293259072,0.048838,-0.041307,0.002846,-0.02,-0.42,9.88
293260081,-0.063017,-0.011479,-0.003546,-0.07,-0.40,9.86
293261092,-0.132260,0.025806,-0.017395,-0.05,-0.48,9.71
293262101,-0.098171,0.036459,-0.025917,-0.03,-0.55,9.65
293263112,0.006227,0.014088,-0.022721,-0.04,-0.47,9.76
293264121,0.093580,-0.024262,-0.005677,0.00,-0.42,9.83
293265138,0.092514,-0.043437,0.011368,0.03,-0.44,9.85
293266144,0.005161,-0.027458,0.012433,-0.06,-0.50,9.86
293267152,-0.102432,0.011957,-0.000350,-0.08,-0.53,9.87
293268161,-0.130129,0.039655,-0.015264,-0.12,-0.66,9.71
293269172,-0.040646,0.029002,-0.018460,-0.05,-0.49,9.70
293270181,0.069078,-0.002957,-0.009938,0.02,-0.42,9.78
293271192,0.094645,-0.028523,0.004976,0.00,-0.48,9.83
293272201,0.021140,-0.023197,0.010303,0.02,-0.46,9.89
293273212,-0.077931,0.011957,0.000715,-0.05,-0.49,9.88
293274221,-0.094975,0.040720,-0.011003,-0.14,-0.55,9.76
293275238,-0.003361,0.030067,-0.013134,-0.10,-0.52,9.70
293276244,0.097841,-0.008283,-0.003546,-0.02,-0.43,9.71
293277252,0.105298,-0.035980,0.006041,0.02,-0.41,9.72
293278261,0.012618,-0.023197,0.004976,0.00,-0.42,9.70
293279272,-0.089649,0.017284,-0.006742,-0.06,-0.46,9.70
293280281,-0.091779,0.044981,-0.018460,-0.08,-0.50,9.69
293281292,0.010488,0.029002,-0.017395,-0.08,-0.48,9.74
293282301,0.105298,-0.013609,-0.009938,-0.07,-0.44,9.83
293283312,0.093580,-0.035980,-0.004611,0.04,-0.43,9.83
293284321,-0.002296,-0.021066,-0.007807,0.13,-0.39,9.85
293285338,-0.084322,0.011957,-0.016329,0.08,-0.45,9.83
293286344,-0.060886,0.027937,-0.021656,0.01,-0.45,9.75
293287352,0.038185,0.010892,-0.014199,-0.08,-0.50,9.64
293288361,0.093580,-0.023197,-0.003546,-0.09,-0.46,9.71
293289372,0.038185,-0.037046,-0.003546,-0.03,-0.38,9.76
293290381,-0.064082,-0.010413,-0.014199,0.08,-0.42,9.79
293291392,-0.086453,0.021545,-0.022721,0.05,-0.48,9.66
293292401,-0.002296,0.017284,-0.020591,-0.08,-0.44,9.67
293293412,-0.001230,-0.015740,-0.005677,-0.01,-0.37,9.86
293294421,-0.082192,0.003435,-0.013134,-0.05,-0.38,9.87
293295438,-0.053429,0.010892,-0.015264,0.04,-0.38,9.80
293296444,0.043511,-0.006152,-0.004611,0.17,-0.33,9.72
293297452,0.049903,-0.018936,0.006041,0.08,-0.32,9.78
293298461,-0.044907,0.005566,0.000715,-0.05,-0.39,9.88
293299472,-0.080061,0.031132,-0.009938,-0.05,-0.40,9.95
293300481,0.003031,0.014088,-0.007807,0.01,-0.30,9.97
293301492,0.065882,-0.021066,0.002846,0.01,-0.33,9.83
293302501,0.015814,-0.022132,0.004976,0.05,-0.33,9.77
293303512,-0.057690,0.008762,-0.004611,0.10,-0.27,9.75
293304521,-0.029993,0.027937,-0.006742,0.06,-0.30,9.85
293305538,0.059491,0.010892,0.000715,-0.02,-0.31,9.89
293306544,0.064817,-0.015740,0.004976,0.00,-0.29,9.93
293307552,-0.022536,-0.009348,-0.004611,0.08,-0.25,9.87
293308561,-0.060886,0.013023,-0.017395,0.10,-0.25,9.81
293309572,0.016879,0.007696,-0.015264,0.10,-0.24,9.88
293310581,0.080796,-0.018936,-0.003546,0.15,-0.19,9.92
293311601,0.024336,-0.014675,-0.002481,0.10,-0.19,10.02
293312604,-0.057690,0.015153,-0.014199,-0.02,-0.24,10.03
293313617,-0.025732,0.017284,-0.020591,0.00,-0.23,9.91
293314625,0.055229,-0.012544,-0.013134,0.13,-0.15,9.93
293315646,0.032859,-0.024262,-0.009938,0.16,-0.22,9.86
293316652,-0.047038,0.000239,-0.018460,0.15,-0.17,9.88
293317664,-0.037450,0.015153,-0.021656,0.06,0.01,10.11
293318671,0.026467,-0.000826,-0.009938,0.02,-0.04,10.01
293319684,0.007292,-0.007218,-0.007807,0.03,-0.13,9.91
293320692,-0.052364,0.009827,-0.018460,0.01,-0.11,9.82
293321700,-0.019340,0.006631,-0.020591,0.10,-0.09,9.74
293322705,0.028597,-0.015740,-0.009938,0.21,-0.04,9.82
293323717,-0.010818,-0.008283,-0.004611,0.15,0.06,10.03
293324734,-0.041711,0.017284,-0.006742,-0.01,-0.01,10.17
293325743,0.013683,0.014088,-0.004611,0.06,-0.08,10.02
293326747,0.027532,-0.004022,-0.001416,0.12,-0.11,9.80
293327755,-0.032124,0.001305,-0.007807,0.08,-0.10,9.69
293328764,-0.025732,0.013023,-0.013134,0.05,-0.01,9.80
293329772,0.042446,0.001305,-0.004611,0.12,0.06,9.85
293330793,0.031793,-0.005087,0.001780,0.19,0.05,9.94
293331795,-0.023601,0.011957,-0.003546,0.08,-0.05,9.85
293332804,0.012618,0.010892,-0.003546,0.02,-0.13,9.74
293333814,0.048838,-0.008283,0.001780,0.10,-0.08,9.61
293334827,-0.006557,-0.006152,-0.006742,0.16,0.00,9.57
293335835,-0.026797,0.004500,-0.015264,0.19,0.04,9.73
293336841,0.030728,-0.006152,-0.009938,0.19,0.01,9.77
293337852,0.025402,-0.013609,-0.003546,0.13,-0.03,9.81
293338861,-0.027862,0.004500,-0.008872,0.11,-0.17,9.69
293339872,0.003031,0.005566,-0.011003,0.07,-0.18,9.66
293340881,0.024336,-0.013609,-0.008872,0.03,-0.07,9.68
293341892,-0.029993,-0.009348,-0.016329,0.10,-0.10,9.74
293342901,-0.025732,0.003435,-0.016329,0.21,-0.07,9.78
293343912,0.017945,-0.004022,-0.006742,0.14,-0.09,9.79
293344927,-0.018275,-0.002957,-0.003546,-0.06,-0.20,9.72
293345935,-0.042776,0.009827,-0.007807,-0.04,-0.19,9.75
293346954,0.005161,0.000239,-0.006742,0.07,-0.18,9.79
293347980,-0.000165,-0.008283,-0.006742,0.09,-0.17,9.74
293348961,-0.034254,0.004500,-0.011003,0.08,-0.12,9.79
293349972,0.007292,0.003435,-0.004611,0.11,-0.13,9.74
293351004,0.013683,-0.002957,0.002846,0.06,-0.20,9.69
293351992,-0.026797,0.010892,-0.002481,-0.06,-0.19,9.74
293353001,0.008357,0.009827,-0.001416,-0.04,-0.18,9.88
293354012,0.030728,-0.005087,0.001780,0.02,-0.22,9.87
293355027,-0.010818,-0.000826,-0.003546,0.13,-0.22,9.82
293356035,0.013683,0.002370,-0.004611,0.15,-0.26,9.75
293357041,0.031793,-0.006152,-0.002481,0.03,-0.32,9.73
293358052,-0.014014,0.006631,-0.007807,-0.04,-0.35,9.93
293359072,0.003031,0.011957,-0.011003,-0.04,-0.34,10.04
293360082,0.029663,-0.007218,-0.009938,0.00,-0.30,10.02
293361096,-0.014014,-0.009348,-0.015264,-0.01,-0.31,9.91
293362114,-0.002296,-0.006152,-0.017395,0.00,-0.42,9.78
293363110,0.027532,-0.012544,-0.011003,0.01,-0.49,9.75
293364129,-0.017210,-0.002957,-0.011003,-0.05,-0.39,9.88
293365128,-0.019340,0.008762,-0.013134,-0.10,-0.42,9.92
293366139,0.010488,-0.004022,-0.009938,-0.09,-0.54,9.89
293367143,-0.028928,-0.007218,-0.012068,0.02,-0.50,9.87
293368155,-0.027862,0.000239,-0.014199,0.04,-0.51,9.81
293369172,0.010488,-0.002957,-0.005677,-0.02,-0.60,9.76
293370190,-0.022536,0.007696,-0.003546,-0.06,-0.65,9.75
293371202,-0.015079,0.015153,-0.001416,-0.08,-0.51,9.93
293372202,0.011553,0.001305,0.003911,-0.09,-0.55,9.98
293373216,-0.022536,0.006631,0.000715,-0.12,-0.75,9.84
293374238,-0.005492,0.008762,-0.002481,-0.13,-0.69,9.71
293375228,0.015814,-0.000826,-0.001416,-0.12,-0.71,9.68
293376235,-0.006557,0.006631,-0.006742,-0.10,-0.75,9.69
293377242,0.025402,0.007696,-0.004611,-0.15,-0.62,9.82
293378252,0.025402,-0.000826,-0.002481,-0.20,-0.69,9.69
293379261,-0.002296,0.004500,-0.007807,-0.09,-0.74,9.65
293380272,0.022206,-0.006152,-0.009938,-0.13,-0.75,9.74
293381281,0.000900,-0.013609,-0.014199,-0.17,-0.76,9.69
293382292,-0.009753,-0.006152,-0.019525,-0.09,-0.71,9.67
293383310,0.016879,-0.009348,-0.015264,-0.07,-0.62,9.63
293384312,-0.005492,-0.000826,-0.013134,-0.04,-0.56,9.78
293385327,-0.002296,0.007696,-0.012068,-0.06,-0.64,9.78
293386348,0.011553,-0.004022,-0.009938,-0.09,-0.63,9.76
293387341,-0.012949,-0.006152,-0.015264,-0.04,-0.61,9.65
293388372,0.007292,-0.010413,-0.014199,0.05,-0.52,9.64
293389369,0.008357,-0.015740,-0.008872,0.08,-0.44,9.80
293390372,-0.027862,0.000239,-0.009938,0.07,-0.49,9.75
293391381,-0.006557,0.004500,-0.006742,0.03,-0.51,9.69
293392392,-0.006557,-0.000826,-0.002481,-0.02,-0.53,9.64
293393401,-0.000165,0.002370,-0.005677,0.00,-0.40,9.78
293394412,0.014749,-0.010413,-0.002481,0.04,-0.43,9.74
293395427,-0.015079,-0.000826,-0.003546,0.07,-0.34,9.86
293396435,0.012618,0.006631,0.001780,0.04,-0.30,9.85
293397441,0.026467,0.000239,0.007107,0.04,-0.36,9.88
293398452,-0.008687,0.003435,0.002846,0.05,-0.32,9.94
293399461,0.015814,0.001305,-0.000350,0.06,-0.26,9.91
293400472,0.029663,-0.010413,-0.001416,0.07,-0.22,9.84
293401481,-0.008687,-0.002957,-0.005677,0.10,-0.19,9.85
293402492,0.008357,-0.000826,-0.005677,0.13,-0.18,9.86
293403501,0.032859,-0.012544,-0.004611,0.07,-0.14,10.05
293404512,-0.011883,-0.002957,-0.011003,0.06,-0.17,10.12
293405527,-0.014014,0.006631,-0.016329,0.06,-0.15,10.04
293406535,0.021140,-0.009348,-0.011003,0.07,-0.11,9.93
293407541,-0.011883,-0.012544,-0.009938,0.16,-0.06,9.94
293408552,-0.033189,0.001305,-0.012068,0.15,-0.03,9.95
293409561,0.012618,-0.004022,-0.005677,0.04,-0.01,10.02
293410572,0.000900,-0.008283,-0.004611,0.09,0.01,10.23
293411581,-0.033189,0.003435,-0.009938,0.11,-0.07,10.04
293412600,0.006226,0.002370,-0.007807,0.05,-0.12,9.82
293413604,0.008357,-0.002957,-0.003546,0.07,-0.02,9.84
293414617,-0.032124,0.006631,-0.007807,0.18,0.08,9.84
293415634,-0.003361,0.008762,-0.006742,0.20,0.20,9.91
293416640,0.015814,0.000239,-0.001416,0.04,0.08,10.00
293417648,-0.024667,0.008762,-0.002481,0.01,-0.08,9.89
293418661,-0.004426,0.013023,-0.001416,0.15,-0.06,9.81
293419671,0.028597,-0.000826,0.002846,0.19,-0.05,9.72
293420682,-0.010818,-0.000826,-0.002481,0.12,-0.03,9.71
293421687,-0.007622,0.005566,-0.009938,0.12,0.02,9.81
293422705,0.034989,-0.005087,-0.005677,0.18,0.05,9.88
293423714,0.005161,-0.004022,-0.006742,0.15,-0.05,9.77
293424730,-0.015079,0.008762,-0.012068,0.07,-0.13,9.66
293425732,0.025402,-0.000826,-0.008872,0.04,-0.08,9.70
293426740,0.007292,-0.010413,-0.009938,0.10,-0.09,9.63
293427747,-0.020406,-0.001891,-0.016329,0.20,-0.01,9.73
293428755,0.013683,-0.007218,-0.015264,0.16,-0.03,9.75
293429764,0.003031,-0.010413,-0.013134,0.06,-0.10,9.74
293430772,-0.025732,0.003435,-0.013134,0.03,-0.18,9.68
293431784,0.010488,0.000239,-0.008872,0.00,-0.21,9.65
293432822,0.000900,-0.008283,-0.011003,-0.02,-0.09,9.77
293433804,-0.028928,-0.001891,-0.017395,0.04,-0.03,9.86
293434820,0.003031,-0.006152,-0.011003,0.09,-0.12,9.81
293435824,-0.006557,-0.007218,-0.006742,0.08,-0.19,9.69
293436832,-0.024667,0.010892,-0.007807,-0.02,-0.28,9.67
293437841,0.006226,0.007696,-0.003546,-0.11,-0.24,9.73
293438852,-0.011883,0.002370,-0.004611,0.03,-0.13,9.87
293439861,-0.014014,0.005566,-0.009938,0.10,-0.21,9.83
293440872,0.021140,-0.002957,-0.009938,0.05,-0.26,9.74
293441881,-0.002296,-0.001891,-0.008872,0.05,-0.26,9.75
293442900,0.005161,0.007696,-0.005677,-0.01,-0.35,9.87
293443902,0.025402,0.001305,0.000715,-0.07,-0.41,9.94
293444918,-0.009753,0.003435,-0.002481,-0.09,-0.37,9.98
293445924,0.012618,0.002370,-0.003546,-0.08,-0.33,10.05
293446932,0.026467,-0.009348,-0.003546,0.01,-0.35,9.97
293447941,-0.001230,-0.001891,-0.012068,0.03,-0.50,9.74
293448958,0.020075,-0.004022,-0.012068,-0.06,-0.50,9.74
293449958,0.007292,-0.008283,-0.011003,-0.16,-0.46,9.88
293450970,0.003031,0.002370,-0.013134,-0.09,-0.59,9.92
293451978,0.012618,-0.001891,-0.012068,0.00,-0.62,9.95
293452990,-0.018275,0.001305,-0.017395,-0.01,-0.59,9.87
293453998,-0.004426,-0.000826,-0.015264,-0.08,-0.75,9.76
293455015,-0.019340,0.000239,-0.014199,-0.11,-0.75,9.77
293456022,-0.017210,0.008762,-0.012068,-0.03,-0.63,9.90
293457030,-0.003361,0.001305,-0.005677,-0.02,-0.66,9.87
293458038,-0.025732,0.002370,-0.006742,-0.07,-0.70,9.83
293459060,-0.000165,-0.004022,-0.005677,-0.13,-0.75,9.74
293460061,-0.006557,-0.005087,-0.007807,-0.13,-0.81,9.64
293461072,-0.004426,0.003435,-0.008872,-0.11,-0.74,9.67
293462081,0.013683,0.001305,-0.004611,-0.10,-0.68,9.71
293463092,-0.009753,0.010892,-0.003546,-0.12,-0.71,9.70
293464101,0.011553,0.011957,-0.002481,-0.09,-0.71,9.66
293465118,0.009422,0.003435,-0.005677,-0.02,-0.67,9.70
293466124,-0.000165,0.002370,-0.012068,-0.05,-0.68,9.62
293467132,0.024336,-0.007218,-0.011003,-0.11,-0.67,9.63
293468141,0.003031,-0.004022,-0.012068,-0.05,-0.58,9.66
293469186,0.005161,0.001305,-0.012068,0.01,-0.54,9.72
293470158,0.012618,-0.007218,-0.008872,0.02,-0.52,9.78
293471170,-0.018275,0.000239,-0.011003,-0.03,-0.54,9.75
293472201,0.003031,0.002370,-0.009938,-0.11,-0.56,9.65
293473190,0.003031,-0.008283,-0.009938,-0.01,-0.56,9.67
293474198,-0.019340,-0.002957,-0.015264,0.09,-0.52,9.77
293475215,0.008357,-0.005087,-0.011003,0.06,-0.46,9.76
293476222,-0.009753,-0.000826,-0.009938,0.04,-0.48,9.72
293477230,-0.021471,0.008762,-0.009938,0.06,-0.42,9.78
293478238,0.004096,0.003435,-0.005677,0.02,-0.32,9.82
293479260,-0.015079,0.003435,-0.005677,-0.05,-0.32,9.81
293480261,-0.006557,0.003435,-0.005677,-0.01,-0.31,9.84
293481272,0.011553,-0.006152,-0.001416,0.09,-0.28,9.90
293482281,-0.004426,0.001305,-0.001416,0.14,-0.18,9.96
293483292,0.015814,0.007696,0.000715,0.07,-0.18,9.99
293484301,0.007292,0.006631,-0.000350,-0.02,-0.18,10.05
293485318,-0.012949,0.006631,-0.007807,0.05,-0.14,10.12
293486324,0.012618,-0.002957,-0.007807,0.13,-0.14,10.07
293487332,0.001965,-0.004022,-0.004611,0.10,-0.09,9.98
293488341,0.005161,0.001305,-0.004611,0.09,0.01,9.95
293489358,0.027532,-0.002957,-0.003546,0.10,0.01,9.97
293490358,0.003031,0.000239,-0.008872,0.11,0.00,10.09
293491370,0.006226,0.000239,-0.014199,0.09,-0.02,10.10
293492378,0.007292,-0.010413,-0.016329,0.06,-0.01,9.97
293493390,0.003031,-0.000826,-0.016329,0.19,0.12,9.91
293494398,-0.005492,0.001305,-0.014199,0.16,0.16,9.92
293495415,-0.022536,0.009827,-0.014199,0.10,0.13,9.97
293496422,-0.004426,0.004500,-0.011003,0.10,0.04,9.95
293497430,-0.023601,0.001305,-0.011003,0.18,0.02,9.76
293498438,-0.014014,-0.000826,-0.009938,0.22,0.08,9.63
293499460,0.007292,-0.008283,-0.005677,0.20,0.18,9.69
293500461,-0.010818,0.000239,-0.005677,0.18,0.13,9.72
293501472,0.006227,0.008762,-0.005677,0.18,0.08,9.72
293502481,0.000900,0.007696,-0.002481,0.17,0.00,9.75
293503492,-0.006557,0.010892,-0.004611,0.07,-0.07,9.75
293504501,0.011553,0.005566,-0.004611,-0.01,-0.09,9.66
293505518,-0.003361,0.003435,-0.007807,0.08,-0.06,9.64
293506524,0.016879,0.004500,-0.008872,0.16,0.03,9.76
293507532,0.023271,0.002370,-0.006742,0.08,-0.05,9.76
293508541,0.000900,0.010892,-0.009938,-0.03,-0.16,9.74
293509558,0.015814,0.006631,-0.006742,-0.04,-0.18,9.71
293510558,-0.003361,0.001305,-0.006742,-0.01,-0.20,9.74
293511570,-0.008687,0.001305,-0.012068,-0.02,-0.20,9.74
293512578,0.019010,-0.015740,-0.012068,0.01,-0.11,9.72
293513594,-0.004426,-0.014675,-0.014199,0.07,-0.14,9.78
293514600,-0.000165,-0.001891,-0.014199,0.10,-0.20,9.81
293515619,0.014749,-0.001891,-0.008872,0.04,-0.28,9.86
293516627,-0.026797,0.004500,-0.008872,-0.05,-0.33,9.84
293517636,-0.016144,0.007696,-0.009938,-0.04,-0.28,9.90
293518644,0.006226,-0.006152,-0.006742,0.10,-0.25,9.86
293519672,-0.031058,-0.000826,-0.008872,0.11,-0.34,9.82
293520673,-0.020406,0.008762,-0.009938,-0.05,-0.40,9.78
293521682,0.013683,0.002370,-0.003546,-0.13,-0.41,9.80
293522689,-0.017210,0.003435,-0.004611,-0.08,-0.39,9.98
293523702,-0.006557,0.008762,-0.006742,-0.04,-0.41,10.01
293524714,0.025402,-0.001891,-0.002481,-0.05,-0.42,9.92
293525732,-0.008687,0.000239,-0.002481,-0.02,-0.41,9.84
293526724,-0.009753,0.007696,-0.006742,0.02,-0.50,9.78
293527740,0.030728,-0.001891,-0.002481,-0.01,-0.53,9.83
293528747,0.006226,0.001305,-0.002481,-0.08,-0.51,9.93
293529761,-0.005492,0.011957,-0.004611,-0.09,-0.56,9.94
293530762,0.026467,-0.002957,-0.003546,0.01,-0.55,9.91
293531770,0.000900,-0.013609,-0.007807,0.04,-0.55,9.81
293532782,-0.008687,-0.005087,-0.015264,-0.07,-0.68,9.68
293533793,0.031793,-0.010413,-0.013134,-0.08,-0.63,9.78
293534812,0.008357,-0.010413,-0.009938,-0.03,-0.55,9.87
293535821,-0.018275,0.003435,-0.012068,-0.05,-0.63,9.87
293536818,0.014749,-0.001891,-0.008872,-0.10,-0.66,9.87
293537830,0.000900,-0.010413,-0.007807,-0.14,-0.63,9.74
293538838,-0.026797,-0.000826,-0.012068,-0.12,-0.69,9.67
293539860,0.009422,-0.002957,-0.007807,-0.05,-0.66,9.79
