time_us,gyro_x_rad_s,gyro_y_rad_s,gyro_z_rad_s,acc_x_m_s2,acc_y_m_s2,acc_z_m_s2
64458639,0.001401,-0.002604,0.000405,0.02,-0.23,9.81
64459547,0.000335,-0.001538,0.000405,-0.02,-0.21,9.83
64460384,0.000335,-0.002604,-0.000661,-0.03,-0.22,9.86
64461400,0.002466,-0.001538,-0.002791,-0.02,-0.23,9.85
64462464,0.002448,-0.001402,-0.003868,0.00,-0.26,9.83
64463416,0.001382,-0.000337,-0.002803,-0.01,-0.26,9.81
64464425,0.001382,0.000728,-0.002803,-0.01,-0.23,9.85
64465435,0.001382,-0.001402,-0.000672,0.01,-0.25,9.86
64466452,0.002448,-0.002468,-0.000672,0.01,-0.27,9.83
64467455,0.002448,-0.001402,0.000393,-0.01,-0.24,9.80
64468465,0.001382,0.000728,0.000393,0.00,-0.21,9.77
64469488,0.002448,0.002859,0.000393,-0.01,-0.23,9.77
64470485,0.001382,0.001793,-0.000672,-0.04,-0.25,9.77
64471498,0.002448,-0.000337,-0.000672,-0.04,-0.27,9.77
64472526,0.000317,0.000728,-0.001737,-0.01,-0.27,9.81
64473515,0.000317,0.000728,-0.002803,0.01,-0.27,9.85
64474524,0.001382,0.000728,-0.003868,0.03,-0.29,9.82
64475534,0.004578,0.000728,-0.001737,0.02,-0.26,9.81
64476554,0.005644,0.001793,-0.000672,0.01,-0.21,9.80
64477554,0.003513,-0.000337,-0.001737,0.01,-0.23,9.77
64478564,0.000317,-0.002468,-0.003868,0.03,-0.25,9.78
64479587,-0.002879,-0.004598,-0.003868,0.02,-0.24,9.81
64480584,-0.002879,-0.002468,-0.002803,0.02,-0.25,9.81
64481598,0.000317,-0.000337,0.000393,0.03,-0.27,9.79
64482627,0.001382,0.000728,0.002524,0.04,-0.27,9.81
64483616,-0.000748,-0.000337,0.002524,0.03,-0.26,9.80
64484625,-0.003944,-0.000337,0.002524,-0.02,-0.26,9.83
64485635,-0.002879,-0.000337,0.000393,-0.02,-0.24,9.85
64486653,0.000317,-0.000337,-0.000672,-0.01,-0.24,9.85
64487655,0.001382,-0.000337,0.000393,-0.02,-0.24,9.85
64488665,0.001382,-0.000337,0.001458,-0.02,-0.22,9.79
64489690,-0.000748,0.002859,-0.000672,-0.02,-0.24,9.79
64490686,-0.001813,0.003924,-0.002803,0.01,-0.24,9.79
64491710,-0.002879,0.000728,-0.002803,0.04,-0.23,9.76
64492732,-0.002879,-0.001402,-0.000672,0.03,-0.23,9.80
64493722,-0.001813,0.000728,-0.000672,0.02,-0.23,9.83
64494732,0.001382,0.000728,0.000393,0.02,-0.23,9.86
64495739,0.002448,-0.001402,0.002524,0.04,-0.23,9.84
64496770,0.000317,-0.002468,0.003589,0.04,-0.25,9.81
64497772,-0.000748,-0.001402,0.001458,0.02,-0.25,9.83
64498776,0.001382,-0.000337,-0.000672,0.00,-0.26,9.80
64499795,0.002448,-0.000337,-0.000672,0.01,-0.27,9.80
64500797,0.003513,0.001793,-0.001737,0.01,-0.25,9.79
64501804,0.002448,0.001793,-0.002803,0.00,-0.24,9.75
64502838,-0.000748,-0.000337,-0.000672,-0.01,-0.23,9.82
64503824,-0.000748,-0.001402,0.002524,0.00,-0.24,9.84
64504834,0.000317,-0.003533,0.001458,0.01,-0.23,9.79
64505848,0.002448,-0.002468,0.000393,-0.01,-0.23,9.82
64506858,0.002448,-0.000337,0.000393,-0.03,-0.24,9.82
64507868,0.000317,0.000728,0.001458,-0.01,-0.23,9.83
64508881,-0.001813,0.001793,0.001458,0.00,-0.22,9.84
64509879,-0.002879,0.000728,-0.002803,0.01,-0.22,9.81
64510884,-0.002879,-0.001402,-0.001737,0.00,-0.24,9.83
64511902,-0.002879,-0.001402,0.000393,-0.02,-0.27,9.83
64512930,-0.001813,-0.000337,0.001458,-0.02,-0.28,9.82
64513919,-0.000748,-0.000337,-0.000672,0.00,-0.25,9.81
64514926,-0.000748,0.000728,-0.003868,-0.02,-0.22,9.82
64515934,-0.000748,-0.000337,-0.003868,-0.01,-0.27,9.86
64516954,0.000317,-0.000337,-0.002803,0.01,-0.29,9.82
64517954,0.000317,-0.000337,0.000393,-0.01,-0.26,9.81
64518977,-0.000748,0.001793,0.001458,-0.01,-0.24,9.83
64519974,0.000317,0.003924,0.000393,0.00,-0.25,9.82
64520983,-0.000748,0.003924,-0.000672,-0.02,-0.27,9.81
64521998,-0.001813,0.002859,0.000393,-0.01,-0.25,9.79
64523027,-0.000748,0.001793,0.001458,0.01,-0.23,9.82
64524016,0.000317,-0.000337,0.000393,-0.01,-0.24,9.79
64525025,-0.000748,0.000728,-0.000672,0.02,-0.21,9.76
64526035,-0.001813,0.000728,-0.001737,0.03,-0.20,9.83
64527053,-0.000748,0.001793,-0.001737,-0.02,-0.24,9.84
64528055,-0.000748,0.004989,-0.000672,-0.02,-0.24,9.78
64529078,-0.001813,0.006055,0.000393,-0.03,-0.22,9.74
64530075,-0.001813,0.002859,0.001458,-0.01,-0.26,9.78
64531084,-0.000748,-0.000337,0.000393,0.00,-0.28,9.83
64532098,-0.000748,0.000728,-0.000672,-0.01,-0.29,9.81
64533125,-0.000748,0.000728,-0.001737,0.01,-0.27,9.81
64534115,-0.001813,0.000728,-0.000672,0.01,-0.24,9.84
64535124,-0.002879,-0.000337,0.001458,-0.01,-0.24,9.86
64536134,-0.002879,-0.002468,0.002524,-0.03,-0.23,9.77
64537183,-0.002879,-0.004598,0.001458,-0.01,-0.24,9.72
64538154,-0.000748,-0.003533,-0.000672,-0.02,-0.26,9.82
64539177,0.001382,0.000728,-0.000672,0.00,-0.23,9.79
64540174,0.003513,0.002859,0.000393,0.01,-0.23,9.74
64541183,0.002448,0.002859,0.000393,-0.02,-0.23,9.75
64542197,0.001382,0.001793,0.001458,-0.01,-0.23,9.79
64543228,0.000317,-0.001402,0.000393,0.01,-0.26,9.85
64544226,-0.000748,-0.001402,-0.000672,0.00,-0.27,9.81
64545225,-0.000748,-0.002468,-0.001737,-0.02,-0.25,9.76
64546235,0.000317,-0.003533,-0.000672,0.00,-0.24,9.80
64547252,-0.000748,-0.003533,0.000393,0.00,-0.26,9.80
64548255,-0.001813,-0.001402,0.000393,-0.01,-0.25,9.76
64549278,-0.002879,0.000728,-0.000672,0.00,-0.23,9.75
64550275,-0.001813,0.000728,-0.001737,-0.01,-0.22,9.77
64551284,-0.001813,-0.000337,-0.002803,-0.01,-0.20,9.80
64552298,-0.000748,0.000728,0.000393,-0.01,-0.21,9.81
64553326,0.001382,0.000728,0.002524,0.00,-0.25,9.78
64554315,0.002448,0.000728,0.002524,-0.02,-0.26,9.77
64555324,0.000317,0.002859,0.000393,-0.02,-0.26,9.82
64556334,-0.002879,0.003924,-0.001737,0.01,-0.27,9.83
64557354,-0.002879,0.001793,-0.001737,0.03,-0.27,9.80
64558354,0.001382,0.001793,-0.000672,0.04,-0.28,9.79
64559377,0.003513,0.002859,-0.001737,0.01,-0.26,9.80
64560374,0.004578,0.002859,-0.002803,-0.02,-0.22,9.84
64561383,0.000317,0.001793,-0.002803,0.00,-0.21,9.82
64562419,-0.002879,-0.000337,-0.001737,-0.01,-0.24,9.82
64563406,-0.002879,-0.003533,-0.001737,-0.01,-0.28,9.85
64564415,-0.000748,-0.003533,-0.000672,0.00,-0.26,9.85
64565425,-0.000748,-0.002468,-0.000672,0.01,-0.21,9.87
64566435,-0.001813,-0.000337,-0.000672,0.02,-0.25,9.82
64567452,0.000317,0.001793,-0.001737,0.02,-0.30,9.77
64568455,0.001382,0.000728,-0.001737,0.01,-0.28,9.81
64569478,0.000317,0.000728,-0.001737,0.01,-0.24,9.81
64570475,-0.000748,0.000728,-0.001737,0.03,-0.22,9.82
64571484,-0.000748,-0.000337,-0.001737,0.02,-0.21,9.84
64572516,-0.001813,-0.000337,-0.000672,-0.03,-0.23,9.83
64573505,-0.001813,-0.000337,0.000393,-0.03,-0.25,9.83
64574514,0.000317,-0.000337,-0.000672,0.01,-0.23,9.81
64575524,0.001382,-0.000337,-0.000672,0.01,-0.22,9.78
64576534,-0.000748,0.000728,-0.000672,0.02,-0.23,9.79
64577553,-0.002879,0.000728,-0.000672,0.04,-0.23,9.81
64578554,-0.001813,-0.000337,0.001458,0.00,-0.23,9.83
64579577,-0.000748,0.000728,0.002524,0.00,-0.27,9.83
64580574,-0.000748,-0.001402,0.001458,0.00,-0.24,9.77
64581583,-0.001813,-0.002468,-0.000672,-0.05,-0.23,9.80
64582619,-0.000748,-0.000337,-0.001737,-0.03,-0.23,9.82
64583606,0.000317,0.001793,-0.000672,0.01,-0.22,9.77
64584615,0.002448,0.001793,-0.000672,0.01,-0.23,9.85
64585625,0.003513,0.001793,0.000393,-0.01,-0.25,9.88
64586635,0.001382,0.000728,0.000393,0.00,-0.27,9.79
64587652,0.001382,-0.000337,-0.000672,-0.02,-0.25,9.80
64588655,0.000317,0.001793,-0.002803,-0.03,-0.24,9.82
64589683,-0.000748,0.001793,-0.003868,-0.02,-0.24,9.79
64590679,-0.001813,0.001793,-0.002803,0.00,-0.25,9.76
64591720,-0.001799,0.000701,-0.001674,0.01,-0.28,9.77
64592722,-0.000733,-0.000365,-0.001674,0.00,-0.27,9.80
64593712,-0.001799,0.000701,-0.000608,0.00,-0.23,9.81
64594722,-0.001799,0.001766,0.001522,-0.02,-0.22,9.83
64595734,-0.000733,0.000701,0.002588,-0.05,-0.23,9.83
64596740,-0.000733,-0.000365,0.002588,-0.02,-0.22,9.84
64597766,-0.000733,0.000701,0.000457,0.01,-0.23,9.80
64598773,-0.000733,0.000701,0.000457,0.00,-0.25,9.77
64599793,-0.000733,-0.000365,0.001522,0.01,-0.23,9.82
64600781,-0.000733,-0.000365,0.002588,-0.02,-0.22,9.87
64601796,-0.000733,0.000701,0.000457,-0.01,-0.24,9.84
64602832,-0.000733,0.000701,-0.002739,0.00,-0.25,9.78
64603819,-0.001799,0.001766,-0.004869,-0.03,-0.25,9.78
64604824,-0.001799,0.001766,-0.002739,-0.01,-0.24,9.82
64605833,-0.001799,0.002831,-0.001674,0.01,-0.23,9.85
64606848,0.000332,0.001766,0.000457,-0.01,-0.22,9.81
64607861,0.002463,-0.000365,0.001522,-0.04,-0.25,9.79
64608860,0.001397,-0.000365,0.000457,-0.06,-0.30,9.81
64609868,-0.000733,0.000701,0.000457,-0.03,-0.28,9.85
64610879,-0.002864,-0.000365,-0.000608,0.04,-0.28,9.86
64611885,-0.000733,-0.001430,0.000457,0.02,-0.27,9.83
64612915,0.000332,0.000701,-0.000608,-0.01,-0.24,9.80
64613908,0.000332,0.000701,-0.001674,0.00,-0.25,9.81
64614916,0.000332,-0.000365,-0.001674,-0.02,-0.28,9.81
64615925,0.001397,-0.001430,-0.000608,-0.01,-0.25,9.78
64616933,0.000332,-0.000365,-0.000608,-0.01,-0.23,9.79
64617952,0.000332,-0.000365,-0.000608,-0.02,-0.23,9.85
64618953,0.000332,-0.003560,0.000457,-0.02,-0.25,9.82
64619963,0.001397,-0.003560,-0.000608,-0.01,-0.24,9.81
64620973,0.001397,-0.000365,-0.000608,-0.02,-0.25,9.81
64621983,0.000332,-0.000365,-0.001674,-0.01,-0.26,9.79
64623015,-0.001799,-0.001430,-0.002739,0.02,-0.27,9.77
64624006,-0.001799,-0.001430,-0.002739,0.02,-0.26,9.75
64625015,-0.000733,-0.001430,-0.001674,0.01,-0.26,9.79
64626025,0.002463,-0.001430,0.000457,-0.01,-0.28,9.81
64627035,0.003528,-0.002495,0.001522,-0.01,-0.29,9.81
64628052,0.002463,-0.003560,0.002588,-0.01,-0.26,9.75
64629055,0.001397,-0.002495,0.001522,-0.02,-0.24,9.76
64630065,-0.000733,-0.001430,0.000457,-0.01,-0.25,9.82
64631075,-0.000733,-0.000365,-0.000608,-0.02,-0.24,9.83
64632085,-0.000733,0.001766,0.000457,-0.02,-0.20,9.81
64633111,-0.000733,0.002831,0.002588,-0.01,-0.20,9.80
64634104,0.000332,0.002831,0.000457,-0.03,-0.22,9.82
64635113,0.002463,0.001766,-0.000608,-0.02,-0.23,9.78
64636123,0.002463,0.000701,0.000457,0.01,-0.23,9.80
64637133,-0.000733,0.002831,0.001522,0.01,-0.25,9.84
64638152,-0.000733,0.002831,0.001522,0.00,-0.25,9.81
64639153,0.002463,0.000701,0.000457,-0.03,-0.25,9.79
64640163,0.002463,-0.000365,-0.000608,-0.04,-0.25,9.81
64641173,0.000332,0.000701,-0.000608,-0.03,-0.25,9.84
64642183,0.000332,0.002831,-0.000608,-0.01,-0.27,9.83
64643215,0.000332,0.002831,0.000457,0.01,-0.26,9.85
64644206,-0.001799,-0.000365,-0.000608,-0.01,-0.25,9.84
64645215,-0.001799,-0.002495,-0.001674,-0.01,-0.24,9.81
64646261,0.000332,-0.000365,-0.001674,-0.02,-0.24,9.83
64647235,0.003528,0.000701,-0.000608,-0.01,-0.29,9.81
64648252,0.005658,-0.000365,0.000457,0.02,-0.27,9.77
64649255,0.004593,-0.000365,-0.000608,0.03,-0.23,9.79
64650265,0.002463,0.000701,0.000457,-0.01,-0.25,9.84
64651275,0.000332,0.000701,0.001522,0.02,-0.28,9.84
64652285,0.000332,-0.000365,0.002588,0.04,-0.28,9.82
64653311,0.000332,-0.001430,0.002588,0.01,-0.22,9.83
64654304,-0.000733,-0.001430,0.001522,-0.02,-0.22,9.76
64655313,-0.000733,-0.001430,0.000457,-0.04,-0.25,9.74
64656323,0.002463,-0.000365,0.000457,0.00,-0.24,9.77
64657333,0.001397,-0.000365,0.001522,0.00,-0.23,9.78
64658352,0.000332,-0.001430,0.000457,-0.01,-0.23,9.84
64659353,-0.000733,-0.001430,-0.001674,0.01,-0.25,9.86
64660363,-0.001799,0.000701,-0.002739,0.02,-0.26,9.81
64661373,-0.003929,0.002831,-0.001674,0.00,-0.25,9.81
64662383,-0.003929,0.004962,-0.000608,0.01,-0.24,9.79
64663415,-0.000733,0.003897,0.000457,0.01,-0.24,9.78
64664406,0.001397,0.000701,0.000457,-0.02,-0.21,9.81
64665415,0.000332,-0.003560,-0.000608,-0.01,-0.22,9.83
64666425,-0.001799,-0.004626,0.000457,-0.02,-0.24,9.81
64667435,-0.001799,-0.002495,0.001522,-0.02,-0.25,9.82
64668452,0.001397,-0.000365,-0.000608,-0.02,-0.25,9.86
64669455,0.002463,-0.001430,-0.002739,-0.01,-0.24,9.81
64670465,0.000332,-0.003560,-0.002739,-0.01,-0.23,9.80
64671475,-0.001799,-0.003560,-0.000608,-0.02,-0.26,9.85
64672501,-0.001799,-0.002495,-0.000608,0.00,-0.25,9.91
64673501,-0.001799,-0.001430,-0.000608,0.03,-0.22,9.90
64674503,-0.000733,-0.002495,-0.002739,0.01,-0.23,9.86
64675513,-0.000733,-0.003560,-0.001674,0.01,-0.25,9.86
64676523,0.000332,-0.003560,0.000457,0.00,-0.27,9.82
64677533,0.001397,-0.002495,0.001522,-0.02,-0.27,9.77
64678551,0.000332,0.000701,0.002588,-0.01,-0.24,9.78
64679553,-0.000733,0.000701,0.001522,-0.01,-0.24,9.84
64680563,-0.001799,-0.002495,0.000457,0.02,-0.24,9.84
64681573,-0.003929,-0.004626,-0.000608,0.02,-0.25,9.80
64682605,-0.003929,-0.003560,-0.000608,0.00,-0.27,9.80
64683604,-0.000733,-0.000365,-0.001674,-0.01,-0.26,9.78
64684605,0.003528,0.000701,-0.002739,0.02,-0.26,9.84
64685615,0.005658,-0.000365,-0.002739,0.02,-0.26,9.86
64686625,0.003528,-0.002495,-0.001674,0.00,-0.25,9.82
64687635,0.000332,-0.002495,0.000457,0.00,-0.26,9.83
64688650,-0.000733,-0.002495,0.000457,0.00,-0.25,9.82
64689655,-0.000733,-0.000365,0.000457,-0.01,-0.24,9.79
64690665,-0.001799,0.000701,0.001522,0.00,-0.26,9.84
64691679,-0.001799,-0.000365,0.000457,0.01,-0.25,9.85
64692705,-0.001799,-0.000365,-0.001674,0.00,-0.25,9.80
64693710,-0.001799,-0.001430,-0.003804,0.00,-0.27,9.80
64694710,-0.002864,-0.000365,-0.004869,0.00,-0.28,9.82
64695722,-0.003929,0.000701,-0.003804,-0.01,-0.27,9.84
64696732,-0.003929,-0.002495,-0.000608,0.01,-0.26,9.83
64697739,-0.000733,-0.003560,0.000457,0.01,-0.25,9.78
64698756,-0.001799,-0.001430,0.000457,-0.01,-0.27,9.79
64699772,-0.002864,0.001766,0.000457,-0.01,-0.24,9.83
64700778,-0.000733,0.001766,-0.000608,0.00,-0.23,9.82
64701782,0.002463,0.001766,-0.000608,-0.02,-0.23,9.78
64702819,0.002463,-0.000365,-0.001674,-0.05,-0.23,9.77
64703815,0.001397,-0.001430,-0.000608,-0.02,-0.24,9.81
64704818,0.001397,-0.000365,-0.001674,0.01,-0.22,9.82
64705823,-0.000733,0.001766,-0.001674,0.02,-0.22,9.82
64706834,-0.000733,0.002831,-0.002739,0.02,-0.25,9.81
64707845,0.001397,0.000701,-0.003804,0.00,-0.23,9.78
64708855,0.000332,0.000701,-0.001674,0.01,-0.22,9.80
64709860,-0.001799,0.000701,0.000457,0.00,-0.24,9.81
64710868,-0.000733,-0.000365,0.000457,0.01,-0.25,9.83
64711879,0.001397,0.001766,-0.000608,0.00,-0.23,9.90
64712906,0.000332,0.003897,0.002588,-0.01,-0.23,9.84
64713908,-0.000733,0.003897,0.003653,-0.01,-0.20,9.79
64714907,-0.001799,0.002831,0.003653,-0.01,-0.18,9.78
64715916,-0.000733,0.002831,0.003653,0.00,-0.21,9.79
64716925,-0.000733,0.000701,0.001522,0.01,-0.24,9.84
64717933,-0.000733,-0.001430,-0.000608,-0.01,-0.27,9.83
64718951,-0.000733,-0.001430,-0.003804,-0.02,-0.28,9.84
64719953,-0.001799,0.000701,-0.003804,-0.01,-0.23,9.85
64720995,-0.002845,0.002854,-0.001639,0.01,-0.21,9.85
64721973,-0.002845,0.002854,0.000491,0.02,-0.19,9.84
64723005,-0.000714,0.000724,-0.001639,0.02,-0.18,9.82
64724004,0.000351,0.000724,-0.001639,0.00,-0.21,9.85
64725005,0.000351,0.001789,-0.000574,0.03,-0.25,9.79
64726015,-0.000714,0.001789,-0.000574,0.07,-0.23,9.80
64727025,-0.000714,-0.000342,-0.000574,0.06,-0.22,9.86
64728035,0.001416,-0.002472,-0.000574,0.01,-0.26,9.82
64729050,0.002482,-0.002472,0.000491,0.02,-0.26,9.81
64730055,0.000351,-0.002472,0.001556,0.02,-0.26,9.79
64731065,0.000351,-0.001407,0.000491,-0.01,-0.27,9.81
64732075,0.001416,0.000724,0.000491,0.02,-0.25,9.84
64733100,0.001416,0.001789,0.000491,0.00,-0.24,9.89
64734102,-0.000714,0.002854,0.002622,-0.01,-0.26,9.89
64735103,-0.000714,0.003919,0.002622,0.00,-0.27,9.85
64736113,-0.002845,0.002854,0.002622,0.00,-0.25,9.84
64737123,-0.002845,0.002854,-0.000574,0.00,-0.22,9.83
64738133,-0.000714,0.002854,-0.001639,-0.02,-0.21,9.86
64739150,0.000351,0.000724,-0.000574,0.00,-0.22,9.88
64740153,0.000351,0.000724,0.001556,0.00,-0.25,9.83
64741163,0.000351,0.000724,0.001556,-0.02,-0.25,9.79
64742173,0.000351,0.000724,0.001556,-0.02,-0.23,9.80
64743206,0.001416,-0.000342,0.001556,-0.01,-0.23,9.80
64744203,0.002482,-0.000342,0.000491,0.02,-0.23,9.81
64745205,0.000351,0.000724,-0.000574,0.01,-0.23,9.80
64746215,0.000351,0.001789,-0.000574,-0.02,-0.22,9.86
64747225,0.002482,0.000724,-0.001639,0.00,-0.22,9.88
64748235,0.003547,-0.001407,-0.001639,0.00,-0.25,9.80
64749250,0.002482,-0.000342,-0.001639,-0.02,-0.26,9.79
64750255,-0.000714,0.000724,0.000491,0.02,-0.23,9.83
64751265,-0.001779,0.000724,0.003687,0.05,-0.19,9.83
64752275,0.000351,-0.000342,0.003687,0.01,-0.23,9.80
64753301,0.002482,-0.002472,0.001556,-0.02,-0.25,9.81
64754301,0.001416,-0.004603,-0.000574,0.00,-0.24,9.79
64755303,-0.001779,-0.003538,-0.001639,0.01,-0.25,9.75
64756313,-0.001779,-0.002472,-0.000574,-0.01,-0.24,9.79
64757323,-0.000714,-0.001407,0.000491,-0.03,-0.23,9.80
64758333,-0.001779,0.000724,0.000491,-0.03,-0.25,9.77
64759351,-0.001779,-0.000342,-0.000574,-0.01,-0.23,9.80
64760353,0.000351,0.000724,-0.000574,0.01,-0.24,9.79
64761363,0.000351,0.000724,-0.001639,0.01,-0.30,9.77
64762373,-0.002845,0.001789,-0.001639,-0.02,-0.27,9.80
64763405,-0.003910,0.002854,-0.000574,-0.01,-0.20,9.83
64764404,-0.000714,-0.000342,0.001556,0.02,-0.24,9.84
64765405,-0.000714,-0.002472,0.003687,0.03,-0.28,9.85
64766415,-0.001779,-0.002472,0.002622,0.00,-0.26,9.82
64767425,-0.002845,-0.001407,0.001556,-0.02,-0.27,9.81
64768435,-0.002845,-0.000342,-0.000574,-0.01,-0.28,9.82
64769450,-0.002845,-0.000342,-0.001639,0.01,-0.27,9.82
64770455,-0.000714,-0.003538,-0.003770,0.00,-0.25,9.77
64771465,0.000351,-0.004603,-0.001639,-0.03,-0.24,9.75
64772490,-0.001779,-0.004603,0.000491,-0.02,-0.25,9.80
64773484,-0.001779,-0.001407,0.000491,-0.01,-0.24,9.79
64774501,-0.002845,0.000724,-0.000574,0.02,-0.27,9.79
64775503,-0.003910,0.000724,-0.001639,0.04,-0.31,9.84
64776513,-0.001779,0.000724,-0.001639,0.02,-0.30,9.83
64777523,0.002482,0.000724,-0.000574,-0.01,-0.24,9.81
64778533,0.003547,0.001789,0.001556,-0.01,-0.23,9.79
64779550,0.000351,0.000724,0.002622,0.00,-0.24,9.80
64780553,-0.001779,-0.000342,0.002622,0.00,-0.24,9.83
64781563,-0.001779,-0.000342,0.000491,0.01,-0.25,9.83
64782596,-0.000714,-0.001407,-0.001639,0.00,-0.23,9.86
64783586,0.002482,-0.001407,-0.002705,0.00,-0.22,9.82
64784602,0.001416,-0.001407,-0.000574,-0.02,-0.19,9.79
64785605,0.000351,-0.001407,0.002622,-0.02,-0.23,9.77
64786615,-0.000714,0.000724,0.003687,-0.04,-0.25,9.82
64787625,-0.000714,0.001789,0.000491,-0.04,-0.22,9.87
64788635,-0.001779,0.001789,-0.000574,-0.01,-0.23,9.85
64789650,-0.000714,0.001789,0.001556,0.01,-0.25,9.85
64790655,0.001416,-0.000342,0.004752,0.03,-0.26,9.83
64791665,0.000351,-0.001407,0.003687,0.01,-0.26,9.82
64792694,-0.000714,0.000724,0.001556,-0.02,-0.26,9.85
64793684,0.000351,0.002854,0.001556,-0.02,-0.26,9.84
64794711,0.003547,0.004985,0.002622,-0.02,-0.28,9.84
64795710,0.003547,0.003919,0.001556,-0.02,-0.26,9.83
64796721,0.003547,0.003919,0.000491,0.00,-0.25,9.79
64797732,0.001416,0.002854,0.000491,0.01,-0.25,9.81
64798738,0.000351,0.000724,0.001556,0.00,-0.25,9.78
64799760,0.000351,-0.001407,0.000491,0.01,-0.26,9.78
64800775,0.000351,-0.002472,0.000491,0.02,-0.24,9.84
64801774,0.002482,-0.000342,-0.000574,0.00,-0.22,9.85
64802805,0.003547,-0.001407,-0.001639,-0.03,-0.24,9.84
64803796,0.001416,-0.002472,-0.002705,-0.01,-0.25,9.82
64804815,0.001416,-0.001407,-0.002705,-0.01,-0.25,9.79
64805818,0.001416,-0.001407,-0.002705,-0.02,-0.24,9.77
64806824,-0.000714,-0.002472,-0.002705,-0.04,-0.24,9.77
64807850,-0.002845,-0.002472,-0.000574,-0.03,-0.22,9.79
64808848,-0.002845,-0.001407,-0.000574,-0.02,-0.22,9.80
64809855,-0.000714,0.000724,-0.001639,-0.01,-0.24,9.80
64810860,0.002482,0.002854,-0.001639,0.02,-0.22,9.79
64811868,0.005678,0.003919,-0.000574,0.03,-0.23,9.79
64812890,0.003547,0.004985,0.001556,0.02,-0.25,9.81
64813889,0.000351,0.000724,0.001556,0.01,-0.23,9.81
64814904,-0.000714,-0.000342,-0.001639,-0.02,-0.22,9.82
64815907,-0.000714,-0.000342,-0.002705,-0.03,-0.25,9.82
64816916,0.000351,0.000724,-0.000574,-0.02,-0.28,9.75
64817925,-0.001779,0.000724,0.001556,-0.01,-0.26,9.79
64818933,-0.001779,-0.001407,0.002622,0.01,-0.28,9.84
64819950,-0.000714,-0.002472,0.002622,-0.01,-0.28,9.84
64820953,0.000351,-0.000342,0.001556,-0.02,-0.28,9.82
64821963,0.001416,0.002854,0.001556,0.01,-0.25,9.81
64822996,-0.000714,0.004985,0.000491,0.01,-0.22,9.86
64823986,-0.001779,0.004985,0.000491,0.00,-0.23,9.87
64825002,-0.000714,0.002854,-0.000574,0.02,-0.24,9.83
64826005,-0.001779,-0.000342,-0.000574,0.00,-0.23,9.80
64827015,-0.004975,-0.002472,-0.000574,0.02,-0.21,9.82
64828025,-0.001779,-0.002472,-0.000574,0.03,-0.24,9.84
64829035,0.003547,-0.000342,-0.001639,0.00,-0.27,9.85
64830050,0.005678,0.001789,-0.001639,0.01,-0.28,9.82
64831055,0.003547,0.002854,-0.001639,0.01,-0.26,9.84
64832065,0.000351,0.004985,-0.002705,0.02,-0.25,9.85
64833091,-0.001779,0.003919,-0.002705,0.04,-0.27,9.81
64834084,-0.000714,0.002854,0.000491,0.01,-0.26,9.83
64835100,0.001416,0.000724,0.000491,0.00,-0.26,9.85
64836103,-0.000714,0.000724,-0.001639,0.02,-0.26,9.85
64837113,-0.003910,0.001789,-0.002705,0.01,-0.21,9.81
64838123,-0.006041,0.001789,-0.000574,-0.01,-0.21,9.76
64839133,-0.003910,0.001789,0.000491,-0.02,-0.24,9.78
64840151,-0.001779,0.002854,0.002622,-0.01,-0.24,9.81
64841153,-0.000714,0.003919,0.002622,0.02,-0.25,9.81
64842163,0.000351,0.002854,0.000491,0.00,-0.24,9.86
64843195,0.000351,0.002854,-0.002705,0.00,-0.23,9.88
64844186,0.000351,0.002854,-0.004835,0.01,-0.25,9.85
64845240,-0.000714,0.001789,-0.002705,0.01,-0.23,9.85
64846228,-0.000714,0.000724,0.001556,0.02,-0.23,9.82
64847227,0.001416,0.000724,0.002622,0.01,-0.23,9.76
64848225,0.002482,0.001789,0.001556,-0.01,-0.23,9.78
64849235,0.001416,0.000724,-0.000574,0.00,-0.26,9.82
64850278,0.001424,-0.000400,-0.001647,0.03,-0.25,9.87
64851280,0.002490,-0.001465,-0.001647,0.02,-0.21,9.83
64852281,0.002490,-0.000400,-0.001647,0.00,-0.25,9.74
64853274,0.001424,-0.001465,0.000483,-0.01,-0.28,9.75
64854283,0.000359,-0.002530,0.001548,0.00,-0.29,9.81
64855300,-0.000706,-0.000400,0.001548,0.00,-0.30,9.82
64856303,-0.001772,0.001731,0.000483,0.00,-0.29,9.77
64857313,-0.001772,0.002796,-0.000582,0.00,-0.26,9.77
64858323,0.001424,0.002796,-0.001647,0.01,-0.25,9.83
64859333,0.002490,0.001731,-0.002713,0.02,-0.26,9.83
64860351,0.000359,-0.000400,-0.002713,0.01,-0.24,9.78
64861353,-0.001772,0.000665,-0.000582,-0.02,-0.23,9.78
64862363,-0.000706,0.001731,-0.000582,-0.03,-0.27,9.85
64863395,0.000359,0.003861,0.000483,-0.02,-0.27,9.86
64864386,0.000359,0.003861,-0.000582,-0.01,-0.25,9.82
64865403,-0.002837,0.001731,-0.000582,-0.03,-0.24,9.79
64866405,-0.001772,-0.000400,0.000483,0.00,-0.23,9.73
64867415,0.000359,-0.000400,0.001548,0.02,-0.25,9.74
64868554,0.001424,0.001731,0.001548,0.01,-0.28,9.83
64869422,0.000359,0.001731,0.000483,-0.03,-0.30,9.87
64870431,0.019534,0.016645,0.004744,-0.05,-0.32,9.81
64871433,0.029122,0.046473,-0.000582,0.02,-0.22,9.78
64872443,0.012077,0.042211,-0.011235,-0.01,-0.32,9.85
64873477,-0.006033,0.012384,-0.019757,-0.03,-0.35,9.82
64874465,-0.004967,-0.008922,-0.022953,0.01,-0.24,9.81
64875483,0.005685,-0.006791,-0.022953,0.07,-0.39,9.73
64876482,0.000359,-0.000400,-0.025084,0.14,-0.17,9.80
64877492,-0.002837,-0.001465,-0.024018,0.04,-0.05,9.84
64878502,-0.013490,0.000665,-0.025084,-0.22,-0.04,9.83
64879512,-0.024142,-0.002530,-0.021888,-0.31,-0.22,9.84
64880529,-0.017751,-0.014248,-0.010170,0.04,-0.46,9.74
64881532,-0.014555,-0.016379,0.004744,0.33,-0.17,9.75
64882542,-0.016686,0.002796,0.011136,0.01,0.22,9.89
64883575,-0.011359,0.016645,0.006875,-0.42,-0.33,9.98
64884567,0.005685,0.000665,0.005809,0.05,-0.67,9.95
64885584,0.016338,-0.014248,0.017528,0.62,0.21,9.63
64886583,-0.018816,0.005992,0.019658,0.01,-0.07,9.53
64887593,-0.030534,0.018775,0.009005,-0.74,-1.31,9.93
64888603,0.008881,-0.013183,0.011136,0.16,0.29,10.02
64889613,0.015273,-0.031293,0.014332,0.66,0.60,9.73
64890631,-0.029469,-0.004661,0.005809,-0.55,-2.17,9.63
64891633,0.000359,-0.009987,0.007940,-0.08,0.40,9.91
64892667,0.041905,-0.003596,0.005809,0.66,0.71,10.18
64893655,-0.025208,0.023036,0.003679,-0.64,-1.89,9.61
64894665,-0.001772,0.003861,0.007940,0.10,0.73,9.41
64895686,0.030187,-0.004661,0.001548,0.69,-0.28,10.62
64896692,-0.027338,-0.011053,0.004744,-0.71,-0.49,9.31
64897698,0.004620,0.000665,-0.005909,-0.01,0.00,9.93
64898711,-0.022012,0.002796,-0.003778,0.25,-0.17,10.55
64899721,0.024860,-0.014248,-0.009104,-0.13,-0.42,8.68
64900737,0.014208,0.007057,-0.006974,-0.16,0.30,10.74
64901745,0.008881,0.008122,-0.008039,0.37,-0.73,9.30
64902774,0.021665,0.015579,-0.003778,-0.46,-0.01,10.20
64903766,0.021665,-0.005726,-0.008039,0.24,-0.03,9.72
64904777,-0.000706,0.003861,-0.006974,0.24,-0.73,9.92
64905792,-0.031599,0.010253,-0.008039,-0.43,0.26,9.89
64906793,-0.015620,0.005992,-0.000582,0.40,-0.82,9.66
64907801,-0.000706,0.013449,0.002614,-0.25,0.12,10.01
64908811,-0.019881,-0.002530,0.006875,0.14,-0.53,8.63
64909828,0.005685,0.001731,0.003679,0.00,-0.25,10.58
64910837,0.008881,0.014514,0.005809,-0.59,0.36,10.01
64911838,-0.007098,0.008122,0.006875,-0.08,-0.20,10.67
64912869,-0.014555,-0.013183,0.006875,0.21,-0.74,9.22
64913862,-0.006033,-0.006791,0.006875,0.07,-0.19,9.56
64914862,0.019534,0.008122,0.005809,0.52,-0.19,10.07
64915886,-0.012424,0.009188,0.001548,-0.12,-0.79,10.12
64916887,-0.015620,0.000665,-0.001647,0.78,-0.08,10.03
64917896,-0.013490,-0.007857,-0.003778,-0.39,-0.04,9.68
64918904,-0.007098,-0.003596,-0.001647,-0.12,-0.74,10.19
64919912,-0.006033,0.004927,-0.000582,0.75,0.03,9.85
64920929,0.009947,0.011318,0.001548,-0.38,-0.09,9.63
64921932,0.016338,0.013449,0.002614,-0.43,-0.63,10.01
64922965,0.019534,0.002796,0.003679,0.71,0.24,9.78
64923957,0.003555,-0.004661,0.002614,0.07,-0.10,9.27
64924963,-0.007098,0.004927,0.003679,-0.75,-0.64,9.91
64925984,-0.009229,0.005992,0.004744,0.24,0.10,10.31
64926983,-0.010294,-0.007857,0.003679,0.56,-0.20,9.47
64927993,-0.014555,-0.012118,0.001548,-0.57,-0.38,9.48
64929003,-0.012424,0.001731,0.000483,-0.54,-0.27,10.22
64930013,-0.010294,0.010253,0.002614,0.40,0.12,10.37
64931031,-0.012424,0.004927,0.002614,0.33,-0.28,9.46
64932033,-0.004967,0.001731,0.002614,-0.60,-0.54,9.16
64933065,-0.003902,0.009188,0.003679,-0.45,-0.25,9.91
64934055,-0.001772,0.005992,0.001548,0.55,-0.12,10.33
64935062,0.018469,0.007057,0.000483,0.46,-0.34,9.96
64936083,0.018469,0.020906,0.002614,-0.37,-0.43,9.51
64937082,0.011012,0.029428,0.003679,-0.49,-0.21,9.75
64938092,0.018469,0.024102,0.005809,0.34,-0.51,10.16
64939102,0.011012,0.012384,0.004744,0.67,-0.29,9.99
64940112,-0.007098,0.008122,0.003679,0.23,-0.19,9.74
64941129,-0.018816,0.003861,0.001548,-0.43,0.04,9.49
64942132,-0.016686,0.000665,0.001548,-0.27,-0.49,9.58
64943165,-0.017751,-0.001465,0.000483,0.46,-0.70,10.10
64944157,-0.007098,-0.000400,0.001548,0.46,-0.11,10.17
64945163,-0.001772,0.001731,0.002614,0.20,0.20,10.06
64946184,-0.006033,-0.003596,0.004744,-0.48,0.15,9.55
64947183,-0.010294,-0.005726,0.004744,-0.61,-0.72,9.43
64948193,-0.012424,-0.005726,0.001548,0.07,-0.82,9.94
64949203,-0.001772,0.000665,0.000483,0.32,0.07,10.03
64950213,0.003555,0.000665,-0.000582,0.26,0.41,9.94
64951231,0.002490,-0.003596,0.000483,-0.02,0.15,9.88
64952233,0.005685,0.001731,0.001548,-0.49,-0.33,9.58
64953300,0.005685,0.003861,0.000483,-0.57,-0.93,9.40
64954255,0.006751,0.002796,0.000483,-0.18,-0.86,9.74
64955262,0.007816,0.004927,0.001548,0.19,0.06,9.99
64956283,0.000359,0.002796,0.002614,0.36,0.48,10.10
64957282,0.006751,0.000665,0.004744,0.41,0.29,10.32
64958292,0.008881,0.001731,0.004744,0.08,-0.27,9.97
64959302,0.000359,0.004927,0.001548,-0.38,-0.97,9.26
64960312,-0.003902,0.002796,0.000483,-0.44,-1.07,9.12
64961329,0.003555,0.003861,0.003679,-0.21,-0.70,9.50
64962332,0.016338,0.012384,0.004744,0.15,0.16,10.05
64963365,0.013142,0.012384,0.003679,0.45,0.59,10.25
64964357,0.002490,0.005992,0.002614,0.63,0.36,10.43
64965363,-0.006033,-0.001465,0.002614,0.58,-0.09,10.34
64966384,0.000359,-0.001465,0.001548,0.10,-0.69,9.84
64967383,-0.004967,0.002796,0.001548,-0.43,-0.96,9.03
64968393,-0.006033,-0.003596,0.003679,-0.65,-0.94,8.96
64969403,-0.003902,-0.006791,0.001548,-0.52,-0.47,9.51
64970413,-0.006033,0.007057,0.000483,-0.18,0.02,9.68
64971431,-0.006033,0.015579,0.001548,0.10,0.42,10.15
64972433,-0.003902,0.008122,0.002614,0.38,0.57,10.38
64973465,0.004620,0.000665,0.004744,0.58,0.26,10.42
64974455,0.013142,0.007057,0.004744,0.53,-0.21,10.39
64975462,0.009947,0.016645,0.002614,0.19,-0.64,10.09
64976483,-0.002837,0.016645,-0.002713,-0.26,-0.80,9.49
64977482,-0.006033,0.003861,-0.004843,-0.55,-0.77,8.85
64978492,0.001424,-0.005726,-0.001647,-0.71,-0.60,8.93
64979502,0.000359,0.000665,0.000483,-0.60,-0.33,9.34
64980512,0.013142,0.003861,0.001548,-0.32,-0.06,9.71
64981529,-0.004967,-0.000400,0.001548,0.01,0.20,9.98
64982532,-0.003902,-0.006791,0.003679,0.27,0.32,10.26
64983565,0.004620,-0.001465,0.001548,0.45,0.21,10.44
64984557,-0.008163,0.004927,-0.001647,0.56,0.00,10.38
64985563,-0.013490,0.004927,-0.000582,0.59,-0.27,10.29
64986584,0.002490,0.002796,0.000483,0.50,-0.48,10.26
64987583,0.021665,0.002796,0.001548,0.22,-0.61,10.22
64988593,0.032317,0.002796,0.003679,-0.06,-0.69,9.79
64989603,0.036579,0.004927,0.002614,-0.31,-0.66,9.17
64990613,0.040840,0.005992,0.001548,-0.46,-0.55,8.88
64991631,0.039774,0.004927,0.001548,-0.55,-0.43,8.93
64992655,0.023795,-0.001465,0.001548,-0.53,-0.29,9.30
64993645,-0.000706,-0.009987,0.001548,-0.38,-0.14,9.65
64994652,-0.016686,-0.009987,0.001548,-0.21,-0.05,9.88
64995665,-0.010294,-0.005726,0.001548,-0.04,0.02,10.06
64996686,0.002490,-0.004661,0.000483,0.10,0.06,10.15
64997692,0.001424,-0.003596,-0.001647,0.25,0.01,10.19
64998696,0.008881,0.001731,0.000483,0.37,-0.02,10.18
64999711,0.005685,0.001731,0.001548,0.42,-0.08,10.13
65000720,0.002490,-0.001465,0.000483,0.44,-0.20,10.15
65001749,-0.002837,-0.004661,-0.000582,0.45,-0.31,10.19
65002764,-0.000706,-0.006791,0.001548,0.38,-0.35,10.25
65003764,-0.002837,-0.007857,0.003679,0.24,-0.37,10.30
65004763,0.005685,-0.004661,0.003679,0.10,-0.40,10.22
65005775,0.003555,-0.003596,0.002614,-0.02,-0.40,10.00
65006796,-0.000706,-0.000400,0.002614,-0.12,-0.38,9.65
65007796,0.007816,0.003861,0.003679,-0.23,-0.40,9.32
65008798,0.018469,0.008122,0.003679,-0.31,-0.41,9.09
65009813,0.004620,0.007057,0.002614,-0.37,-0.37,9.01
65010823,-0.013490,-0.000400,0.002614,-0.40,-0.34,9.06
65011837,-0.014555,-0.009987,0.004744,-0.40,-0.28,9.25
65012860,-0.009229,-0.009987,0.004744,-0.40,-0.22,9.45
65013857,-0.002837,-0.003596,0.001548,-0.31,-0.17,9.60
65014856,0.006751,0.001731,-0.000582,-0.21,-0.14,9.73
65015862,0.018469,0.005992,-0.001647,-0.14,-0.17,9.88
65016886,0.021665,0.009188,-0.001647,-0.03,-0.15,10.00
65017887,0.024860,0.007057,-0.001647,0.02,-0.17,10.05
65018896,0.030187,0.010253,0.000483,0.10,-0.17,10.06
65019904,0.030187,0.013449,0.001548,0.18,-0.18,10.08
65020912,0.023795,0.013449,0.000483,0.23,-0.19,10.13
65021929,0.012077,0.007057,-0.001647,0.26,-0.23,10.11
65022955,-0.001772,-0.003596,-0.002713,0.30,-0.23,10.08
65023947,-0.011359,-0.011053,-0.002713,0.28,-0.26,10.02
65024953,-0.012424,-0.013183,-0.002713,0.28,-0.30,9.99
65025963,-0.012424,-0.008922,-0.002713,0.33,-0.28,9.99
65026984,-0.009229,-0.001465,-0.003778,0.28,-0.29,10.05
65027983,0.004620,0.007057,-0.001647,0.25,-0.30,10.08
65028993,0.011012,0.003861,-0.000582,0.24,-0.33,10.03
65030003,0.005685,-0.004661,-0.001647,0.18,-0.32,10.06
65031013,0.003555,-0.003596,-0.001647,0.07,-0.27,10.09
65032030,0.007816,0.005992,0.001548,0.06,-0.29,10.08
65033055,0.006751,0.012384,0.003679,0.03,-0.33,10.06
65034045,-0.002837,0.002796,0.003679,-0.02,-0.33,9.95
65035052,-0.003902,-0.002530,0.002614,-0.03,-0.30,9.82
65036062,-0.001772,-0.000400,0.001548,-0.05,-0.32,9.72
65037083,-0.009229,0.001731,0.000483,-0.08,-0.35,9.64
65038082,-0.013490,0.000665,-0.001647,-0.09,-0.33,9.53
65039092,-0.009229,-0.000400,-0.000582,-0.14,-0.37,9.42
65040102,-0.001772,-0.002530,-0.002713,-0.21,-0.40,9.33
65041112,0.006751,-0.003596,-0.003778,-0.20,-0.34,9.29
65042129,0.005685,-0.001465,-0.002713,-0.19,-0.28,9.31
65043155,-0.009229,-0.004661,-0.001647,-0.21,-0.26,9.31
65044147,-0.011359,-0.003596,-0.002713,-0.24,-0.29,9.37
65045153,-0.004967,0.002796,-0.003778,-0.25,-0.30,9.42
65046163,-0.001772,0.004927,-0.005909,-0.22,-0.26,9.45
65047184,-0.000706,0.005992,-0.002713,-0.23,-0.25,9.54
65048183,0.000359,0.001731,-0.000582,-0.23,-0.26,9.59
65049218,0.016338,-0.001465,0.002614,-0.22,-0.26,9.65
65050203,0.023795,0.000665,0.003679,-0.19,-0.20,9.77
65051213,0.022730,-0.002530,0.001548,-0.14,-0.22,9.80
65052230,0.006751,-0.000400,0.001548,-0.14,-0.23,9.83
65053255,-0.012424,-0.002530,0.001548,-0.10,-0.23,9.89
65054245,-0.018816,-0.003596,-0.000582,-0.04,-0.26,9.94
65055252,-0.023077,0.001731,-0.001647,-0.04,-0.28,9.99
65056262,-0.018816,0.005992,-0.000582,-0.03,-0.29,10.01
65057283,-0.015620,0.005992,0.000483,0.01,-0.28,9.97
65058282,0.001424,-0.000400,-0.000582,0.02,-0.26,9.98
65059292,0.007816,0.000665,-0.000582,0.04,-0.24,9.99
65060302,0.011012,-0.000400,0.000483,0.05,-0.22,9.99
65061312,0.005685,-0.000400,0.002614,0.05,-0.20,10.00
65062329,0.006751,-0.003596,0.000483,0.08,-0.20,9.96
65063355,0.000359,-0.001465,-0.001647,0.11,-0.18,9.97
65064347,0.002490,-0.000400,-0.003778,0.12,-0.20,9.98
65065353,0.000359,0.000665,-0.002713,0.16,-0.21,9.97
65066363,0.003555,-0.003596,0.000483,0.16,-0.23,9.95
65067384,-0.000706,-0.007857,-0.000582,0.19,-0.23,9.91
65068383,-0.000706,-0.009987,-0.001647,0.23,-0.24,9.92
65069393,-0.004967,-0.006791,-0.000582,0.22,-0.27,9.92
65070403,-0.007098,0.000665,0.001548,0.25,-0.24,9.88
65071413,-0.004967,0.004927,0.001548,0.27,-0.22,9.96
65072430,-0.008163,0.003861,-0.000582,0.27,-0.22,9.97
65073455,-0.009229,-0.002530,0.000483,0.28,-0.26,9.98
65074445,-0.008163,-0.011053,0.001548,0.27,-0.29,10.06
65075452,-0.009229,-0.013183,0.000483,0.22,-0.32,10.09
65076462,-0.002837,-0.001465,-0.000582,0.18,-0.35,10.11
65077483,0.006751,0.007057,-0.001647,0.13,-0.32,10.09
65078482,0.012077,0.004927,0.002614,0.03,-0.30,10.08
65079492,0.005685,0.002796,0.003679,-0.01,-0.32,10.04
65080502,-0.008163,0.001731,-0.000582,-0.04,-0.30,9.97
65081512,-0.010294,0.001731,-0.004843,-0.07,-0.30,9.79
65082529,-0.002837,0.007057,-0.004843,-0.10,-0.31,9.52
65083555,0.007816,0.008122,-0.000582,-0.17,-0.34,9.33
65084547,0.019534,-0.000400,0.001548,-0.22,-0.35,9.21
65085553,0.026991,-0.012118,0.001548,-0.28,-0.31,9.15
65086563,0.022730,-0.017444,0.002614,-0.31,-0.32,9.12
65087584,0.019534,-0.012118,0.001548,-0.32,-0.30,9.16
65088583,0.017403,-0.003596,0.000483,-0.34,-0.25,9.28
65089593,0.017403,0.001731,0.000483,-0.33,-0.21,9.44
65090603,0.008881,0.003861,-0.001647,-0.33,-0.18,9.60
65091613,0.004620,0.000665,-0.003778,-0.30,-0.17,9.70
65092647,0.007816,-0.000400,-0.003778,-0.20,-0.19,9.75
65093635,0.004620,0.001731,-0.002713,-0.09,-0.21,9.90
65094642,0.005685,0.007057,-0.000582,-0.03,-0.24,10.00
65095652,0.012077,0.009188,-0.000582,-0.04,-0.24,10.00
65096665,0.004620,0.007057,-0.003778,-0.05,-0.22,10.01
65097686,-0.003902,0.000665,-0.005909,0.00,-0.22,10.01
65098692,-0.001772,-0.002530,-0.003778,0.08,-0.25,10.00
65099717,0.007816,-0.003596,0.000483,0.10,-0.24,10.04
65100713,0.013142,-0.007857,0.000483,0.13,-0.24,10.04
65101720,0.002490,-0.004661,-0.001647,0.18,-0.31,10.02
65102759,-0.003902,0.002796,-0.004843,0.19,-0.31,10.05
65103747,-0.007098,0.001731,-0.004843,0.18,-0.28,9.99
65104750,-0.012424,-0.002530,-0.003778,0.18,-0.30,9.92
65105762,-0.004967,-0.002530,-0.001647,0.18,-0.31,9.89
65106773,0.008881,-0.002530,-0.001647,0.22,-0.34,9.91
65107794,0.009947,0.001731,-0.000582,0.23,-0.34,9.98
65108791,0.007816,0.009188,0.001548,0.20,-0.34,9.98
65109821,0.001424,0.010253,0.002614,0.20,-0.32,9.97
65110813,0.001424,0.012384,0.003679,0.22,-0.31,9.98
65111828,0.001424,0.005992,0.002614,0.22,-0.29,10.00
65112860,-0.000706,-0.000400,0.002614,0.17,-0.28,10.02
65113847,0.001424,-0.005726,0.000483,0.15,-0.27,10.04
65114846,-0.004967,-0.007857,-0.001647,0.10,-0.25,10.07
65115856,0.002490,-0.007857,0.000483,0.08,-0.24,10.05
65116862,-0.007098,-0.004661,-0.000582,0.05,-0.22,10.00
65117886,-0.009229,-0.000400,-0.001647,0.03,-0.25,9.99
65118887,-0.001772,0.004927,0.001548,-0.03,-0.25,9.87
65119915,0.002490,0.003861,0.000483,-0.04,-0.30,9.79
65120908,-0.004967,0.000665,-0.001647,-0.08,-0.32,9.68
65121915,-0.003902,-0.000400,-0.003778,-0.12,-0.34,9.55
65122949,0.006751,0.000665,-0.001647,-0.14,-0.35,9.46
65123935,0.004620,0.000665,0.001548,-0.19,-0.36,9.37
65124941,-0.009229,0.002796,0.000483,-0.25,-0.38,9.23
65125951,-0.008163,0.004927,-0.001647,-0.31,-0.39,9.19
65126961,0.007816,0.005992,-0.000582,-0.29,-0.42,9.22
65127982,0.009947,0.004927,0.002614,-0.27,-0.38,9.25
65129000,-0.004967,-0.000400,0.003679,-0.35,-0.34,9.25
65129995,-0.016686,-0.000400,0.002614,-0.35,-0.32,9.41
65131003,-0.017751,0.002796,-0.001647,-0.27,-0.26,9.60
65132013,-0.008163,0.005992,-0.001647,-0.24,-0.25,9.72
65133052,0.008881,0.008122,0.000483,-0.20,-0.24,9.85
65134035,0.022730,0.003861,0.003679,-0.08,-0.26,9.91
65135042,0.028056,-0.001465,0.004744,-0.01,-0.29,9.97
65136052,0.029122,-0.003596,0.003679,0.02,-0.24,10.07
65137062,0.032317,-0.007857,0.000483,0.04,-0.19,10.12
65138083,0.036579,-0.009987,0.001548,0.10,-0.17,10.13
65139101,0.031252,-0.006791,0.002614,0.17,-0.13,10.16
65140096,0.022730,-0.002530,0.002614,0.25,-0.15,10.17
65141105,0.011012,0.001731,-0.000582,0.31,-0.21,10.15
65142115,0.003555,0.001731,-0.004843,0.33,-0.20,10.08
65143149,0.001424,0.002796,-0.006974,0.33,-0.21,10.02
65144135,0.006751,0.002796,-0.004843,0.32,-0.23,10.04
65145141,0.014208,0.000665,-0.002713,0.31,-0.24,10.06
65146151,0.011012,-0.001465,-0.000582,0.30,-0.28,10.10
65147161,0.001424,-0.005726,0.001548,0.31,-0.29,10.06
65148182,0.000359,-0.006791,0.001548,0.25,-0.27,10.07
65149200,0.001424,-0.003596,-0.001647,0.13,-0.22,10.18
65150195,0.004620,0.004927,-0.001647,0.06,-0.24,10.15
65151203,0.011012,0.012384,0.000483,0.02,-0.27,10.03
65152213,0.013142,0.009188,-0.001647,0.00,-0.27,9.96
65153252,0.004620,0.002796,-0.002713,-0.03,-0.30,9.85
65154235,-0.007098,-0.002530,-0.001647,-0.05,-0.35,9.68
65155242,-0.004967,-0.007857,0.002614,-0.10,-0.33,9.54
65156252,0.005685,-0.008922,0.002614,-0.17,-0.32,9.44
65157262,0.013142,-0.005726,0.000483,-0.19,-0.32,9.41
65158313,0.011012,-0.002530,-0.001647,-0.25,-0.35,9.32
65159301,0.000359,-0.003596,-0.001647,-0.29,-0.33,9.28
65160296,-0.002837,-0.003596,-0.001647,-0.29,-0.31,9.30
65161305,0.002490,0.002796,-0.000582,-0.28,-0.33,9.35
65162315,-0.000706,0.003861,0.000483,-0.28,-0.28,9.38
65163349,0.001424,0.002796,0.002614,-0.29,-0.30,9.41
65164335,0.006751,0.002796,0.003679,-0.26,-0.32,9.50
65165341,0.013142,-0.000400,0.001548,-0.26,-0.29,9.55
65166351,0.009947,0.002796,-0.001647,-0.25,-0.27,9.63
65167361,0.000359,0.004927,-0.004843,-0.19,-0.22,9.70
65168382,-0.007098,0.008122,-0.003778,-0.16,-0.23,9.77
65169400,-0.012424,0.008122,-0.003778,-0.13,-0.23,9.80
65170395,-0.006033,0.001731,-0.002713,-0.12,-0.21,9.80
65171403,0.002490,-0.001465,-0.001647,-0.12,-0.25,9.88
65172413,0.005685,-0.001465,-0.000582,-0.06,-0.25,9.90
65173452,0.004620,0.001731,0.002614,-0.04,-0.25,9.94
65174435,0.002490,0.001731,0.002614,-0.02,-0.25,9.98
65175442,-0.004967,0.001731,0.001548,0.02,-0.25,10.01
65176452,-0.007098,-0.000400,0.000483,0.06,-0.28,10.06
65177462,-0.006033,-0.002530,-0.000582,0.08,-0.31,10.09
65178483,-0.007098,0.002796,-0.000582,0.10,-0.29,10.05
65179501,0.002490,0.007057,0.001548,0.15,-0.27,10.07
65180496,0.006751,0.007057,0.000483,0.19,-0.29,10.06
65181505,0.002490,0.004927,-0.001647,0.21,-0.29,10.02
65182515,0.003555,0.004927,-0.002713,0.24,-0.27,10.06
65183549,0.012077,0.003861,-0.000582,0.28,-0.30,10.02
65184535,0.008881,0.001731,0.001548,0.30,-0.28,10.00
65185541,-0.004967,-0.002530,0.003679,0.29,-0.28,10.00
65186551,-0.012424,-0.003596,0.001548,0.31,-0.30,9.98
65187561,-0.008163,-0.000400,-0.002713,0.31,-0.26,9.97
65188582,-0.003902,0.002796,-0.002713,0.29,-0.25,10.07
65189600,0.003555,0.002796,-0.000582,0.25,-0.26,10.18
65190595,0.009947,0.000665,-0.001647,0.16,-0.28,10.14
65191603,0.014208,-0.004661,-0.000582,0.06,-0.29,10.08
65192639,0.021665,-0.006791,0.001548,0.01,-0.33,10.05
65193635,0.029122,-0.007857,0.002614,-0.02,-0.32,9.90
65194632,0.032317,-0.008922,0.000483,-0.08,-0.32,9.66
65195642,0.035513,-0.004661,-0.000582,-0.16,-0.36,9.44
65196652,0.032317,0.002796,-0.000582,-0.26,-0.35,9.27
65197665,0.023795,0.004927,0.001548,-0.31,-0.32,9.21
65198685,0.015273,0.002796,0.000483,-0.31,-0.28,9.17
65199710,0.004620,-0.001465,-0.000582,-0.30,-0.25,9.17
65200701,-0.006033,-0.007857,-0.003778,-0.33,-0.23,9.25
65201715,-0.008163,-0.009987,-0.003778,-0.34,-0.23,9.40
65202745,-0.004967,-0.007857,-0.002713,-0.31,-0.23,9.54
65203743,-0.002837,0.000665,-0.001647,-0.29,-0.17,9.64
65204745,0.003555,0.008122,0.000483,-0.24,-0.18,9.74
65205758,0.004620,0.005992,0.002614,-0.18,-0.21,9.85
65206762,0.005685,-0.001465,0.001548,-0.11,-0.24,9.85
65207777,0.008881,-0.000400,-0.000582,-0.06,-0.25,9.92
65208783,0.011012,0.007057,-0.001647,-0.03,-0.22,10.01
65209814,0.007816,0.005992,-0.000582,0.00,-0.28,10.00
65210799,-0.001772,0.003861,0.001548,0.02,-0.28,10.01
65211813,-0.000706,0.001731,0.001548,0.06,-0.27,9.99
65212853,0.003555,-0.005726,-0.000582,0.08,-0.25,10.05
65213849,-0.003902,-0.002530,0.000483,0.12,-0.28,10.10
65214838,-0.003902,0.001731,-0.001647,0.12,-0.30,10.04
65215847,0.005685,-0.001465,-0.002713,0.13,-0.26,10.04
65216856,0.005685,-0.002530,-0.002713,0.20,-0.30,10.00
65217862,0.003555,-0.003596,-0.002713,0.23,-0.32,9.97
65218883,-0.011359,-0.002530,-0.002713,0.17,-0.27,9.94
65219905,-0.023077,0.003861,-0.002713,0.25,-0.22,9.99
65220899,-0.014555,-0.001465,-0.000582,0.20,-0.27,9.96
65221907,-0.008163,-0.003596,0.001548,0.17,-0.23,9.96
65222937,0.004620,-0.004661,0.001548,0.17,-0.24,9.96
65223935,0.002490,-0.008922,-0.000582,0.20,-0.25,9.96
65224931,0.006751,-0.011053,0.001548,0.20,-0.23,10.00
65225941,0.001424,-0.006791,0.002614,0.16,-0.24,9.98
65226951,-0.002837,-0.003596,0.002614,0.16,-0.20,10.00
65227961,-0.008163,-0.002530,0.003679,0.19,-0.19,10.03
65228997,-0.003902,-0.000400,0.003679,0.18,-0.18,10.02
65229985,-0.002837,0.003861,0.003679,0.16,-0.21,10.03
65230993,-0.006033,0.009188,0.002614,0.13,-0.26,10.03
65232003,-0.004967,0.008122,0.003679,0.08,-0.26,10.02
65233039,-0.007098,-0.001465,0.004744,0.03,-0.27,9.94
65234035,-0.007098,-0.007857,0.004744,-0.02,-0.30,9.83
65235032,0.002490,-0.005726,0.003679,-0.04,-0.34,9.75
65236042,0.008881,-0.001465,0.004744,-0.08,-0.39,9.58
65237052,0.003555,0.001731,0.002614,-0.15,-0.39,9.46
65238062,-0.001772,0.001731,0.000483,-0.19,-0.37,9.40
65239098,0.004620,0.004927,-0.000582,-0.23,-0.40,9.27
65240086,0.017403,0.008122,0.001548,-0.27,-0.39,9.19
65241095,0.011012,0.005992,0.002614,-0.29,-0.38,9.17
65242105,-0.011359,0.002796,-0.000582,-0.33,-0.33,9.21
65243137,-0.023077,0.002796,-0.002713,-0.36,-0.29,9.31
65244135,-0.023077,0.005992,-0.003778,-0.35,-0.28,9.43
65245131,-0.013490,0.004927,-0.004843,-0.34,-0.23,9.55
65246141,-0.002837,0.001731,-0.005909,-0.32,-0.20,9.62
65247151,0.003555,0.001731,-0.003778,-0.24,-0.21,9.75
65248161,0.008881,-0.000400,-0.002713,-0.13,-0.20,9.88
65249197,0.012077,-0.003596,-0.002713,-0.06,-0.19,9.97
65250185,0.012077,-0.004661,-0.001647,0.01,-0.20,10.03
65251193,0.015273,-0.004661,0.000483,0.07,-0.24,10.07
65252203,0.018469,-0.006791,0.002614,0.12,-0.22,10.11
65253239,0.018469,-0.008922,0.003679,0.17,-0.18,10.13
65254235,0.012077,-0.008922,0.001548,0.26,-0.17,10.15
65255232,0.001424,-0.008922,-0.001647,0.33,-0.15,10.12
65256242,-0.008163,-0.006791,-0.004843,0.34,-0.19,10.07
65257252,-0.013490,-0.004661,-0.004843,0.33,-0.22,10.06
65258262,-0.017751,-0.002530,-0.003778,0.35,-0.25,10.03
65259279,-0.014555,-0.000400,-0.002713,0.36,-0.27,10.05
65260293,-0.004967,0.004927,-0.000582,0.35,-0.29,10.10
65261292,0.007816,0.007057,-0.000582,0.28,-0.28,10.11
65262302,0.011012,0.007057,-0.001647,0.19,-0.26,10.13
65263335,0.003555,0.004927,-0.001647,0.14,-0.26,10.15
65264338,-0.003902,-0.000400,-0.001647,0.12,-0.23,10.11
65265333,-0.003902,-0.004661,-0.000582,0.07,-0.24,9.98
65266343,0.007816,0.000665,0.001548,-0.01,-0.28,9.87
65267353,0.015273,0.002796,0.001548,-0.06,-0.31,9.80
65268363,0.001424,-0.000400,0.000483,-0.11,-0.32,9.67
65269380,-0.012424,-0.002530,-0.000582,-0.14,-0.32,9.54
65270383,-0.011359,-0.002530,-0.002713,-0.15,-0.34,9.41
65271393,-0.002837,-0.002530,-0.001647,-0.24,-0.32,9.32
65272403,0.001424,-0.004661,-0.000582,-0.25,-0.31,9.26
65273435,-0.004967,-0.005726,0.000483,-0.24,-0.29,9.25
65274435,-0.014555,-0.008922,-0.000582,-0.25,-0.27,9.28
65275432,-0.002837,-0.004661,0.000483,-0.26,-0.31,9.31
65276442,0.012077,0.007057,-0.000582,-0.25,-0.30,9.37
65277452,0.017403,0.010253,-0.000582,-0.23,-0.24,9.42
65278462,0.008881,0.012384,0.001548,-0.24,-0.29,9.51
65279479,-0.004967,0.013449,0.003679,-0.22,-0.23,9.60
65280482,0.003555,0.013449,0.004744,-0.23,-0.18,9.61
65281492,0.008881,0.010253,0.003679,-0.18,-0.19,9.68
65282502,0.018469,0.005992,0.002614,-0.14,-0.23,9.71
65283535,0.015273,0.001731,0.002614,-0.16,-0.25,9.75
65284538,0.019534,-0.003596,0.002614,-0.14,-0.23,9.80
65285533,0.015273,-0.004661,0.004744,-0.11,-0.25,9.90
65286543,0.017403,-0.001465,0.005809,-0.06,-0.27,9.94
65287553,0.011012,-0.005726,0.004744,-0.04,-0.32,9.93
65288563,0.005685,-0.011053,0.003679,-0.02,-0.28,9.98
65289580,-0.006033,-0.013183,0.000483,0.02,-0.23,9.96
65290583,-0.022012,-0.013183,-0.002713,0.03,-0.23,9.98
65291593,-0.013490,-0.014248,-0.001647,0.04,-0.23,9.93
65292625,-0.003902,-0.007857,-0.000582,0.04,-0.23,9.90
65293615,-0.000706,-0.006791,0.002614,0.05,-0.27,10.01
65294633,-0.004967,-0.002530,0.004744,0.04,-0.25,10.06
65295632,-0.008163,-0.000400,0.003679,0.07,-0.22,10.02
65296642,-0.008163,0.003861,0.000483,0.13,-0.21,9.99
65297652,0.000359,0.004927,-0.001647,0.15,-0.24,9.98
65298665,0.003555,0.007057,-0.000582,0.18,-0.24,10.03
65299685,0.008881,0.009188,-0.000582,0.19,-0.25,10.03
65300692,0.003555,0.005992,0.001548,0.22,-0.28,9.99
65301698,-0.003902,0.000665,0.000483,0.23,-0.26,9.99
65302729,-0.000706,0.004927,0.001548,0.23,-0.24,9.97
65303722,0.001424,0.007057,0.002614,0.26,-0.26,9.98
65304744,-0.000706,0.001731,0.001548,0.29,-0.27,9.99
65305746,-0.003902,-0.002530,0.000483,0.31,-0.31,9.96
65306754,0.004620,-0.000400,0.002614,0.27,-0.35,10.02
65307772,0.009947,-0.001465,0.002614,0.22,-0.35,10.11
65308777,-0.001772,-0.006791,0.003679,0.18,-0.36,10.10
65309786,-0.012424,-0.002530,0.003679,0.12,-0.34,10.14
65310793,-0.011359,0.001731,-0.000582,0.06,-0.32,10.16
65311799,0.000359,0.004927,-0.002713,-0.01,-0.35,9.98
65312835,0.019534,0.004927,-0.001647,-0.03,-0.34,9.82
65313830,0.028056,-0.001465,0.001548,-0.10,-0.34,9.67
65314841,0.018469,-0.007857,0.003679,-0.16,-0.34,9.48
65315838,-0.003902,-0.011053,0.000483,-0.22,-0.34,9.32
65316847,-0.024142,-0.007857,-0.001647,-0.30,-0.38,9.16
65317856,-0.034795,0.000665,-0.001647,-0.33,-0.33,9.09
65318862,-0.031599,0.004927,-0.002713,-0.35,-0.29,9.13
65319883,-0.030534,-0.000400,-0.004843,-0.36,-0.24,9.19
65320887,-0.029469,-0.006791,-0.006974,-0.36,-0.17,9.32
65321896,-0.007098,-0.001465,-0.004843,-0.35,-0.24,9.64
65322927,0.011012,0.001731,-0.001647,-0.27,-0.21,9.74
65323917,0.012077,0.001731,0.000483,-0.18,-0.21,9.85
65324934,0.003555,0.004927,0.001548,-0.13,-0.20,9.93
65325933,0.002490,0.002796,-0.001647,-0.06,-0.21,9.90
65326943,0.007816,0.000665,-0.001647,-0.01,-0.25,9.90
65327953,0.012077,-0.000400,0.000483,0.04,-0.26,9.99
65328963,0.008881,0.000665,0.002614,0.07,-0.24,10.07
65329980,0.003555,0.004927,-0.000582,0.07,-0.20,10.06
65330983,0.003555,0.002796,-0.000582,0.05,-0.21,10.06
65331993,-0.003902,-0.006791,-0.001647,0.07,-0.21,10.08
65333025,-0.013490,-0.011053,-0.000582,0.13,-0.27,10.04
65334015,-0.011359,-0.008922,-0.000582,0.15,-0.31,10.03
65335033,-0.004967,-0.002530,0.000483,0.17,-0.31,10.01
65336032,0.000359,0.005992,0.002614,0.19,-0.28,9.99
65337042,0.002490,0.004927,0.000483,0.20,-0.24,10.00
65338052,-0.009229,0.005992,-0.000582,0.20,-0.25,9.96
65339062,-0.012424,0.007057,-0.000582,0.19,-0.25,9.98
65340079,-0.012424,0.009188,-0.000582,0.20,-0.23,9.96
65341082,-0.003902,0.008122,-0.000582,0.26,-0.24,9.91
65342092,0.000359,0.009188,-0.000582,0.24,-0.26,9.93
65343125,0.001424,0.007057,-0.000582,0.19,-0.26,9.92
65344117,-0.009229,0.004927,-0.000582,0.20,-0.27,9.96
65345134,-0.002837,0.001731,0.001548,0.19,-0.24,10.02
65346133,0.000359,0.001731,0.002614,0.15,-0.22,10.04
65347143,0.007816,-0.000400,0.003679,0.12,-0.24,10.05
65348153,0.012077,-0.002530,0.002614,0.12,-0.23,10.04
65349163,0.016338,-0.001465,-0.001647,0.10,-0.21,10.02
65350217,0.011012,0.001731,-0.000582,0.02,-0.23,9.99
65351185,-0.004967,0.000665,0.000483,-0.02,-0.25,9.95
65352193,-0.004967,-0.004661,0.002614,0.00,-0.27,9.92
65353227,-0.001772,-0.007857,0.002614,-0.02,-0.28,9.80
65354215,-0.003902,-0.008922,0.002614,-0.08,-0.31,9.69
65355232,0.000359,-0.005726,0.002614,-0.10,-0.35,9.62
65356241,0.009947,-0.000400,0.003679,-0.15,-0.36,9.47
65357242,0.007816,0.003861,-0.000582,-0.20,-0.36,9.34
65358252,-0.000706,0.004927,-0.004843,-0.21,-0.38,9.27
65359262,0.006751,0.004927,-0.004843,-0.26,-0.38,9.18
65360279,0.019534,0.005992,0.000483,-0.33,-0.36,9.18
65361282,0.012077,0.002796,0.003679,-0.33,-0.35,9.21
65362292,-0.009229,-0.003596,0.002614,-0.32,-0.32,9.25
65363367,-0.020947,-0.001465,0.001548,-0.33,-0.25,9.38
65364317,-0.015620,0.002796,0.000483,-0.34,-0.22,9.55
65365333,0.002490,-0.000400,0.001548,-0.30,-0.20,9.66
65366333,0.019534,-0.005726,0.003679,-0.23,-0.21,9.73
65367343,0.023795,-0.013183,0.003679,-0.18,-0.24,9.82
65368353,0.014208,-0.017444,0.003679,-0.08,-0.23,9.94
65369363,0.000359,-0.014248,0.001548,-0.02,-0.24,9.97
65370380,-0.012424,-0.005726,-0.000582,0.04,-0.22,9.98
65371383,-0.018816,0.001731,0.001548,0.10,-0.19,10.04
65372393,-0.025208,0.004927,0.001548,0.15,-0.17,10.13
65373426,-0.029469,0.005992,-0.000582,0.22,-0.16,10.17
65374415,-0.028404,0.005992,-0.000582,0.23,-0.17,10.15
65375432,-0.027338,0.004927,0.001548,0.29,-0.18,10.10
65376432,-0.026273,0.001731,0.003679,0.35,-0.21,10.04
65377442,-0.024142,-0.003596,0.003679,0.38,-0.24,9.95
65378452,-0.018816,-0.008922,0.000483,0.36,-0.25,9.98
65379462,-0.009229,-0.008922,-0.002713,0.32,-0.28,10.06
65380479,-0.001772,-0.007857,-0.004843,0.32,-0.28,10.07
65381482,0.004620,-0.005726,-0.004843,0.27,-0.25,10.20
65382492,0.009947,-0.000400,-0.000582,0.18,-0.24,10.24
65383526,0.014208,0.005992,0.002614,0.14,-0.25,10.18
65384517,0.011012,0.009188,0.003679,0.10,-0.28,10.10
65385533,0.000359,0.005992,0.001548,0.03,-0.29,10.02
65386533,-0.007098,0.002796,0.000483,0.00,-0.28,9.90
65387543,-0.006033,0.000665,0.000483,0.00,-0.28,9.75
65388553,-0.002837,-0.000400,0.001548,-0.04,-0.30,9.62
65389563,-0.001772,-0.003596,0.001548,-0.09,-0.30,9.52
65390580,0.005685,-0.004661,0.001548,-0.16,-0.30,9.39
65391583,0.001424,-0.006791,0.000483,-0.21,-0.30,9.30
65392616,-0.017751,-0.008922,-0.002713,-0.19,-0.33,9.27
65393605,-0.020947,-0.009987,-0.004843,-0.21,-0.35,9.25
65394612,-0.022012,-0.007857,-0.004843,-0.28,-0.35,9.29
65395632,-0.004967,0.001731,-0.001647,-0.28,-0.30,9.38
65396632,0.001424,0.010253,-0.000582,-0.26,-0.28,9.44
65397642,0.002490,0.011318,-0.000582,-0.26,-0.26,9.49
65398652,0.000359,0.013449,-0.000582,-0.23,-0.23,9.52
65399665,-0.000706,0.015579,0.001548,-0.20,-0.23,9.57
65400685,0.003555,0.016645,0.002614,-0.20,-0.21,9.64
65401692,0.013142,0.012384,0.002614,-0.21,-0.22,9.70
65402725,0.011012,0.009188,0.001548,-0.19,-0.23,9.79
65403715,0.003555,0.005992,0.001548,-0.14,-0.23,9.84
65404720,-0.001772,0.003861,0.001548,-0.11,-0.22,9.84
65405742,-0.007098,0.002796,0.001548,-0.08,-0.25,9.86
65406748,-0.002837,-0.002530,0.000483,-0.06,-0.26,9.94
65407752,0.000359,-0.003596,0.000483,-0.03,-0.27,9.93
65408763,-0.001772,-0.004661,0.001548,0.00,-0.31,9.94
65409775,-0.007098,-0.002530,0.002614,0.04,-0.30,10.00
65410787,-0.001772,0.000665,0.002614,0.07,-0.27,10.03
65411792,0.002490,-0.001465,0.003679,0.10,-0.28,10.03
65412825,0.000359,-0.001465,0.000483,0.13,-0.31,10.00
65413821,0.002490,0.002796,-0.000582,0.14,-0.30,10.08
65414823,0.003555,0.002796,0.000483,0.20,-0.25,10.12
65415837,0.000359,0.000665,0.002614,0.24,-0.28,10.08
65416838,-0.003902,-0.000400,0.001548,0.26,-0.32,10.03
65417847,0.000359,0.001731,0.002614,0.34,-0.30,10.01
65418856,0.002490,0.001731,0.003679,0.33,-0.30,10.01
65419862,-0.004967,-0.001465,0.002614,0.29,-0.30,9.99
65420883,-0.013490,-0.003596,-0.000582,0.30,-0.28,10.00
65421887,-0.015620,-0.002530,-0.004843,0.31,-0.28,10.03
65422920,0.003555,0.002796,-0.004843,0.22,-0.31,10.11
65423909,0.016338,-0.001465,-0.000582,0.18,-0.31,10.20
65424913,0.016338,-0.007857,0.002614,0.13,-0.28,10.20
65425933,0.004620,-0.011053,0.003679,0.03,-0.25,10.08
65426933,-0.011359,-0.006791,0.000483,-0.06,-0.28,9.93
65427943,-0.024142,0.004927,-0.000582,-0.09,-0.33,9.72
65428953,-0.024142,0.011318,-0.000582,-0.12,-0.35,9.51
65429963,-0.016686,0.011318,-0.000582,-0.20,-0.34,9.38
65430980,-0.006033,0.013449,0.000483,-0.26,-0.33,9.19
65431983,-0.002837,0.017710,-0.001647,-0.32,-0.31,9.08
65433016,-0.013490,0.015579,-0.003778,-0.37,-0.28,9.08
65434005,-0.025208,0.004927,-0.004843,-0.37,-0.28,9.20
65435012,-0.028404,-0.001465,-0.003778,-0.36,-0.26,9.35
65436032,-0.015620,-0.004661,-0.003778,-0.37,-0.23,9.47
65437032,-0.000706,-0.003596,-0.004843,-0.36,-0.19,9.59
65438042,0.011012,-0.001465,-0.003778,-0.28,-0.17,9.66
65439052,0.009947,-0.000400,-0.002713,-0.20,-0.18,9.78
65440062,0.002490,0.001731,-0.002713,-0.13,-0.20,9.89
65441079,0.001424,0.003861,-0.003778,-0.07,-0.24,9.94
65442082,0.007816,0.005992,-0.002713,-0.01,-0.27,10.00
65443116,0.008881,0.007057,0.000483,0.00,-0.28,10.01
65444107,0.002490,0.002796,0.000483,0.03,-0.24,10.03
65445113,-0.002837,0.002796,0.000483,0.07,-0.25,10.05
65446133,-0.000706,0.002796,0.002614,0.08,-0.28,10.03
65447133,-0.000706,-0.000400,0.003679,0.11,-0.27,10.00
65448143,-0.008163,-0.001465,0.004744,0.14,-0.27,10.02
65449153,-0.009229,-0.004661,0.003679,0.17,-0.27,10.04
65450163,-0.001772,-0.008922,-0.000582,0.19,-0.29,10.02
65451180,0.002490,-0.008922,-0.002713,0.20,-0.28,9.99
65452183,0.001424,-0.008922,-0.004843,0.20,-0.28,9.97
65453216,-0.000706,-0.001465,-0.003778,0.19,-0.27,9.93
65454205,-0.000706,0.003861,-0.002713,0.21,-0.24,9.92
65455212,-0.003902,0.011318,-0.002713,0.22,-0.23,9.92
65456232,0.002490,0.013449,0.000483,0.19,-0.26,9.97
65457232,-0.000706,0.016645,0.000483,0.17,-0.24,10.03
65458242,0.000359,0.015579,0.000483,0.20,-0.23,10.02
65459252,-0.006033,0.014514,0.001548,0.22,-0.25,10.03
65460262,-0.006033,0.013449,0.001548,0.22,-0.23,9.99
65461279,-0.003902,0.007057,-0.000582,0.22,-0.24,10.02
65462282,0.004620,0.001731,0.001548,0.17,-0.24,10.03
65463316,0.003555,-0.004661,0.003679,0.09,-0.23,10.07
65464307,-0.009229,-0.005726,0.001548,0.04,-0.25,10.12
65465335,-0.008163,-0.002530,0.000483,0.03,-0.28,10.06
65466333,-0.000706,-0.002530,0.000483,0.03,-0.27,9.99
65467333,-0.010294,-0.007857,0.000483,-0.01,-0.31,9.88
65468343,-0.012424,-0.005726,-0.000582,-0.06,-0.34,9.76
65469353,-0.002837,-0.000400,-0.000582,-0.10,-0.33,9.67
65470363,0.001424,-0.001465,0.000483,-0.12,-0.38,9.58
65471380,-0.006033,-0.005726,-0.002713,-0.17,-0.44,9.42
65472383,-0.007098,-0.004661,-0.004843,-0.25,-0.40,9.30
65473416,0.006751,0.000665,-0.003778,-0.28,-0.36,9.22
65474405,0.015273,0.000665,0.000483,-0.34,-0.35,9.21
65475412,0.000359,-0.000400,0.002614,-0.37,-0.32,9.24
65476432,-0.011359,0.004927,0.002614,-0.35,-0.27,9.30
65477432,-0.011359,0.011318,0.000483,-0.36,-0.26,9.40
65478442,-0.002837,0.007057,-0.001647,-0.35,-0.26,9.50
65479452,0.009947,-0.002530,-0.000582,-0.30,-0.22,9.58
65480462,0.019534,-0.008922,0.001548,-0.28,-0.20,9.67
65481479,0.018469,-0.013183,0.001548,-0.21,-0.20,9.83
65482482,0.002490,-0.014248,0.001548,-0.11,-0.24,9.94
65483516,-0.019881,-0.009987,-0.000582,-0.05,-0.28,10.00
65484507,-0.026273,-0.003596,-0.002713,0.01,-0.26,10.06
65485513,-0.023077,0.004927,-0.001647,0.08,-0.22,10.06
65486533,-0.016686,0.012384,-0.001647,0.16,-0.18,10.09
65487533,-0.001772,0.015579,-0.001647,0.22,-0.19,10.13
65488543,0.008881,0.015579,-0.001647,0.25,-0.19,10.14
65489553,0.004620,0.013449,-0.001647,0.29,-0.20,10.10
65490563,-0.001772,0.005992,-0.003778,0.36,-0.24,10.08
65491580,-0.009229,-0.000400,-0.004843,0.36,-0.23,10.06
