time_us,gyro_x_rad_s,gyro_y_rad_s,gyro_z_rad_s,acc_x_m_s2,acc_y_m_s2,acc_z_m_s2
297891987,-0.000026,-0.000470,-0.001762,0.03,-0.23,9.81
297892744,-0.000026,0.001661,-0.002827,0.07,-0.21,9.76
297893665,-0.000026,0.001661,-0.002827,0.01,-0.18,9.76
297894678,-0.001091,-0.000470,-0.002827,-0.02,-0.19,9.78
297895630,-0.001091,-0.000470,-0.002827,-0.02,-0.19,9.78
297896644,-0.001091,-0.000470,-0.001762,-0.03,-0.27,9.80
297897650,-0.000026,-0.002600,-0.001762,-0.02,-0.28,9.82
297898669,0.001039,-0.003665,-0.000697,0.00,-0.29,9.80
297899673,0.001039,-0.004731,0.000368,0.02,-0.25,9.80
297900696,0.002105,-0.003665,0.000368,0.02,-0.21,9.79
297901698,0.002105,-0.001535,0.001434,0.01,-0.22,9.81
297902705,0.001039,-0.000470,0.002499,0.01,-0.22,9.85
297903719,-0.000026,-0.000470,0.002499,0.00,-0.21,9.85
297904723,-0.000026,0.000596,0.002499,0.00,-0.26,9.86
297905738,-0.000026,0.000596,0.001434,0.03,-0.26,9.86
297906754,-0.000026,-0.000470,0.001434,0.00,-0.24,9.89
297907760,-0.000026,-0.000470,0.001434,-0.03,-0.22,9.86
297908778,-0.000026,-0.002600,0.000368,0.00,-0.20,9.77
297909783,-0.000026,-0.002600,-0.000697,0.03,-0.22,9.76
297910809,-0.000026,-0.000470,0.000368,0.04,-0.23,9.76
297911806,0.002105,-0.000470,0.001434,0.00,-0.24,9.74
297912806,0.002105,-0.000470,-0.000697,0.01,-0.25,9.75
297913820,-0.000026,0.000596,-0.000697,0.02,-0.23,9.77
297914827,-0.002157,0.000596,-0.000697,-0.02,-0.20,9.81
297915839,-0.002157,-0.000470,0.000368,0.01,-0.23,9.83
297916856,-0.001091,-0.000470,0.000368,0.04,-0.23,9.81
297917859,0.001039,-0.000470,0.000368,0.01,-0.21,9.79
297918873,0.001039,-0.000470,0.001434,0.02,-0.22,9.82
297919888,0.002105,0.001661,0.001434,0.02,-0.23,9.82
297920881,0.001039,0.003792,0.000368,0.03,-0.23,9.81
297921892,0.001039,0.002726,-0.000697,0.04,-0.23,9.86
297922897,0.002105,0.000596,-0.000697,0.03,-0.24,9.86
297923909,0.002105,-0.000470,0.000368,0.04,-0.25,9.80
297924921,0.001039,-0.000470,0.001434,0.02,-0.23,9.81
297925930,0.002105,-0.000470,0.000368,0.02,-0.27,9.86
297926943,0.001039,-0.001535,-0.001762,0.01,-0.28,9.82
297927949,-0.001091,-0.003665,-0.002827,-0.01,-0.26,9.79
297928968,-0.003222,-0.003665,-0.001762,0.00,-0.24,9.81
297929982,-0.002157,-0.002600,-0.001762,-0.01,-0.23,9.86
297930977,-0.001091,0.000596,-0.000697,-0.02,-0.25,9.89
297931993,-0.001091,0.003792,0.000368,-0.01,-0.26,9.86
297932997,-0.000026,0.001661,-0.001762,0.02,-0.23,9.82
297934007,-0.000026,-0.001535,-0.001762,0.00,-0.20,9.82
297935017,-0.001091,-0.002600,-0.000697,-0.03,-0.21,9.80
297936027,-0.002157,-0.002600,0.000368,0.00,-0.23,9.75
297937042,-0.002157,-0.001535,0.001434,0.00,-0.25,9.78
297938047,-0.000026,-0.001535,0.003564,0.00,-0.24,9.83
297939068,0.001039,-0.000470,0.003564,-0.02,-0.21,9.84
297940080,0.001039,-0.001535,0.002499,-0.01,-0.24,9.84
297941076,-0.000026,-0.001535,0.002499,0.00,-0.27,9.80
297942092,-0.000026,0.001661,0.003564,0.00,-0.24,9.83
297943096,0.001039,0.001661,0.002499,0.02,-0.24,9.90
297944128,0.001039,-0.000470,0.000368,0.01,-0.26,9.83
297945116,-0.000026,-0.001535,-0.000697,0.04,-0.27,9.81
297946126,0.001039,-0.002600,-0.001762,0.04,-0.24,9.85
297947141,0.001039,-0.003665,-0.002827,0.02,-0.21,9.83
297948146,-0.001091,-0.003665,-0.003893,0.02,-0.22,9.84
297949168,-0.003222,-0.003665,-0.001762,0.04,-0.24,9.86
297950182,-0.003222,-0.003665,0.000368,0.01,-0.27,9.86
297951224,-0.000026,-0.001535,0.001434,-0.01,-0.28,9.83
297952193,0.002105,0.000596,0.001434,0.00,-0.28,9.85
297953197,0.002105,0.002726,0.001434,0.00,-0.27,9.90
297954207,0.001039,0.001661,0.001434,0.02,-0.23,9.88
297955217,-0.000026,0.000596,0.000368,0.02,-0.23,9.82
297956227,-0.000026,-0.000470,-0.000697,0.04,-0.23,9.84
297957237,-0.000026,-0.000470,-0.000697,0.05,-0.23,9.84
297958252,0.001039,-0.000470,-0.000697,0.01,-0.23,9.82
297959268,0.001039,-0.000470,0.000368,-0.02,-0.23,9.83
297960280,0.001039,0.000596,0.001434,0.00,-0.22,9.84
297961276,0.002105,0.000596,0.001434,0.01,-0.23,9.88
297962286,0.003170,0.000596,0.001434,-0.01,-0.27,9.87
297963302,0.003170,0.001661,0.001434,-0.02,-0.25,9.83
297964306,0.001039,0.001661,0.000368,-0.02,-0.23,9.77
297965316,-0.000026,-0.000470,0.000368,0.00,-0.24,9.77
297966326,-0.002157,-0.002600,0.001434,0.04,-0.24,9.79
297967336,-0.005352,-0.002600,0.000368,0.02,-0.25,9.78
297968362,-0.005352,-0.000470,-0.000697,0.01,-0.24,9.76
297969361,-0.002157,0.001661,-0.000697,0.04,-0.23,9.77
297970382,0.002105,0.000596,0.000368,0.04,-0.24,9.82
297971377,0.002105,-0.000470,-0.000697,0.03,-0.25,9.81
297972387,0.001039,-0.000470,-0.002827,0.01,-0.27,9.79
297973403,-0.000026,0.001661,-0.002827,0.00,-0.26,9.81
297974407,-0.001091,0.002726,-0.002827,0.01,-0.25,9.82
297975417,-0.003222,0.001661,-0.002827,-0.01,-0.26,9.84
297976427,-0.003222,-0.001535,-0.002827,0.03,-0.23,9.84
297977437,-0.003222,-0.001535,-0.003893,0.03,-0.23,9.80
297978462,-0.003222,-0.000470,-0.002827,-0.02,-0.27,9.77
297979460,-0.001091,-0.000470,-0.000697,-0.01,-0.27,9.75
297980480,-0.000026,-0.000470,0.001434,0.01,-0.24,9.76
297981476,0.002105,-0.000470,0.001434,-0.01,-0.23,9.79
297982486,0.003170,-0.001535,0.001434,-0.02,-0.23,9.78
297983502,0.003170,-0.002600,0.000368,0.00,-0.21,9.80
297984506,0.001039,-0.002600,-0.000697,0.00,-0.22,9.83
297985516,-0.000026,-0.001535,0.000368,-0.02,-0.23,9.83
297986526,-0.000026,0.001661,0.001434,-0.02,-0.21,9.84
297987536,-0.002157,0.001661,0.001434,-0.01,-0.20,9.83
297988562,-0.001091,0.000596,0.001434,0.01,-0.21,9.82
297989561,-0.000026,0.001661,0.000368,0.00,-0.23,9.80
297990582,0.002105,0.000596,-0.000697,-0.01,-0.23,9.80
297991577,0.002105,0.000596,-0.000697,0.01,-0.26,9.86
297992587,0.001039,-0.000470,0.000368,0.03,-0.25,9.86
297993603,-0.000026,0.000596,0.001434,0.00,-0.24,9.82
297994607,-0.002157,0.000596,0.000368,-0.02,-0.25,9.80
297995617,-0.002157,0.000596,-0.000697,-0.01,-0.27,9.81
297996627,-0.002157,0.000596,-0.000697,-0.02,-0.26,9.85
297997637,0.001039,-0.000470,-0.000697,0.00,-0.25,9.84
297998662,0.001039,0.000596,-0.000697,0.00,-0.25,9.85
297999660,0.002105,0.001661,-0.000697,-0.02,-0.23,9.84
298000684,0.003170,0.002726,-0.000697,0.00,-0.21,9.80
298001681,0.001039,0.001661,-0.001762,0.03,-0.24,9.76
298002687,-0.003222,-0.001535,-0.002827,0.03,-0.27,9.76
298003713,-0.004287,-0.002600,-0.002827,0.02,-0.24,9.79
298004715,-0.003222,-0.003665,-0.001762,0.03,-0.24,9.83
298005724,-0.001091,-0.003665,0.000368,0.07,-0.24,9.82
298006736,0.002105,-0.003665,0.000368,0.05,-0.23,9.82
298007741,0.002105,-0.003665,0.001434,0.03,-0.23,9.81
298008773,-0.001091,-0.002600,0.001434,0.01,-0.24,9.79
298009776,-0.002157,-0.001535,0.000368,-0.01,-0.22,9.75
298010784,-0.000026,-0.000470,-0.001762,0.00,-0.23,9.77
298011788,0.001039,0.001661,-0.002827,0.00,-0.26,9.81
298012801,-0.000026,0.002726,-0.000697,0.01,-0.25,9.81
298013845,-0.001081,0.001715,0.000385,0.01,-0.24,9.78
298014822,-0.001081,0.001715,-0.000680,0.00,-0.23,9.82
298015832,-0.003212,0.000650,-0.001745,0.02,-0.20,9.83
298016838,-0.004277,-0.000415,-0.002811,0.01,-0.23,9.81
298017845,-0.002146,0.000650,-0.003876,-0.02,-0.27,9.85
298018876,-0.000016,0.000650,-0.000680,-0.02,-0.22,9.85
298019870,0.001049,0.000650,0.002516,-0.01,-0.21,9.80
298020872,0.001049,0.001715,0.000385,0.00,-0.24,9.82
298021883,0.001049,0.001715,-0.001745,0.02,-0.25,9.82
298022887,0.001049,-0.001480,-0.001745,0.02,-0.27,9.80
298023908,0.001049,-0.001480,0.000385,0.02,-0.24,9.82
298024909,0.001049,-0.002546,-0.001745,0.01,-0.24,9.79
298025921,0.002115,-0.001480,-0.002811,0.02,-0.26,9.80
298026930,0.003180,0.001715,-0.000680,0.01,-0.25,9.84
298027938,0.004245,0.001715,0.001450,0.00,-0.25,9.82
298028964,0.004245,0.000650,0.001450,0.02,-0.25,9.80
298029961,0.001049,0.001715,0.000385,0.02,-0.22,9.81
298030967,-0.001081,0.000650,-0.001745,0.04,-0.22,9.79
298031977,-0.002146,-0.000415,-0.001745,0.01,-0.24,9.80
298032987,-0.002146,-0.001480,-0.000680,-0.02,-0.25,9.81
298034003,-0.001081,-0.001480,0.000385,-0.01,-0.24,9.78
298035007,-0.001081,-0.000415,0.000385,0.01,-0.23,9.79
298036017,-0.000016,-0.000415,-0.000680,0.00,-0.22,9.79
298037027,0.001049,-0.000415,-0.000680,-0.02,-0.22,9.81
298038037,0.002115,-0.002546,-0.000680,-0.01,-0.23,9.80
298039063,0.001049,-0.001480,0.000385,-0.02,-0.25,9.77
298040060,-0.000016,-0.000415,0.000385,-0.01,-0.25,9.81
298041066,-0.001081,0.000650,0.000385,0.01,-0.22,9.83
298042076,-0.000016,-0.000415,0.001450,0.01,-0.21,9.80
298043086,0.001049,0.001715,0.002516,0.02,-0.22,9.79
298044102,0.002115,0.003846,0.000385,0.01,-0.23,9.79
298045106,-0.000016,0.002781,-0.000680,-0.01,-0.25,9.78
298046116,-0.003212,0.000650,-0.001745,0.00,-0.25,9.82
298047126,-0.002146,0.001715,-0.000680,0.00,-0.25,9.84
298048136,0.002115,0.003846,0.002516,-0.02,-0.25,9.82
298049162,0.004245,0.003846,0.001450,-0.02,-0.23,9.80
298050161,0.003180,0.002781,-0.000680,-0.03,-0.23,9.78
298051167,0.002115,0.000650,-0.000680,-0.01,-0.26,9.79
298052177,0.001049,0.000650,-0.001745,0.02,-0.24,9.82
298053187,0.001049,0.002781,0.000385,0.04,-0.23,9.82
298054203,0.002115,0.003846,0.000385,0.01,-0.22,9.81
298055247,0.002115,0.001715,-0.001745,-0.04,-0.20,9.85
298056217,0.001049,0.001715,-0.002811,-0.02,-0.22,9.83
298057227,0.001049,0.002781,-0.000680,-0.01,-0.25,9.81
298058237,0.003180,0.001715,0.001450,-0.02,-0.22,9.78
298059263,0.003180,-0.001480,0.001450,0.00,-0.20,9.85
298060260,0.001049,-0.004676,0.000385,0.01,-0.22,9.87
298061266,-0.001081,-0.003611,-0.001745,0.01,-0.25,9.82
298062276,-0.001081,-0.002546,-0.004941,0.00,-0.28,9.85
298063286,-0.001081,-0.001480,-0.003876,-0.01,-0.28,9.87
298064302,0.001049,-0.001480,-0.000680,0.00,-0.26,9.84
298065306,0.001049,-0.001480,0.002516,0.00,-0.25,9.81
298066316,-0.000016,-0.002546,0.003581,0.01,-0.25,9.82
298067326,0.001049,-0.002546,0.003581,0.00,-0.24,9.82
298068348,0.003180,-0.002546,0.003581,-0.01,-0.24,9.83
298069356,0.002115,-0.001480,0.003581,0.00,-0.24,9.86
298070357,0.001049,-0.002546,0.004646,-0.03,-0.20,9.83
298071367,0.002115,-0.003611,0.003581,-0.05,-0.18,9.81
298072377,0.001049,-0.004676,0.001450,-0.02,-0.21,9.79
298073387,0.001049,-0.001480,0.000385,-0.01,-0.26,9.82
298074403,-0.000016,0.001715,-0.000680,0.03,-0.26,9.84
298075407,-0.000016,0.001715,-0.000680,0.03,-0.20,9.83
298076417,0.001049,0.001715,0.000385,0.01,-0.19,9.86
298077427,0.001049,0.000650,-0.000680,0.00,-0.23,9.85
298078447,-0.000016,-0.001480,-0.001745,0.00,-0.25,9.84
298079456,-0.000016,-0.001480,-0.001745,-0.01,-0.25,9.85
298080456,-0.000016,0.000650,-0.002811,-0.02,-0.23,9.82
298081466,-0.000016,0.000650,-0.001745,-0.01,-0.23,9.83
298082476,-0.000016,-0.001480,-0.000680,0.00,-0.22,9.82
298083486,0.001049,-0.002546,-0.000680,0.02,-0.22,9.76
298084501,-0.000016,0.000650,-0.001745,0.02,-0.24,9.77
298085506,-0.001081,0.000650,-0.001745,0.02,-0.24,9.78
298086516,-0.002146,-0.002546,-0.000680,0.02,-0.25,9.81
298087526,-0.001081,-0.003611,0.000385,0.00,-0.23,9.83
298088548,0.001049,-0.003611,0.000385,-0.01,-0.22,9.82
298089556,0.002115,-0.004676,0.001450,0.00,-0.24,9.82
298090557,0.001049,-0.004676,0.001450,0.01,-0.23,9.85
298091567,-0.000016,-0.001480,-0.001745,0.00,-0.24,9.88
298092577,-0.000016,0.000650,-0.002811,-0.03,-0.24,9.82
298093587,0.001049,0.000650,-0.000680,-0.04,-0.25,9.82
298094618,0.003180,-0.003611,-0.000680,-0.02,-0.24,9.86
298095607,0.002115,-0.003611,-0.001745,-0.01,-0.21,9.85
298096617,-0.000016,0.001715,-0.000680,-0.03,-0.22,9.85
298097627,-0.000016,0.004911,-0.000680,-0.01,-0.23,9.82
298098647,-0.000016,0.004911,-0.001745,0.00,-0.25,9.84
298099656,0.001049,0.000650,0.000385,-0.02,-0.25,9.80
298100656,-0.001081,0.000650,0.002516,0.01,-0.23,9.80
298101666,-0.002146,-0.000415,0.001450,0.01,-0.24,9.77
298102680,-0.002146,-0.001480,0.000385,0.00,-0.28,9.77
298103690,-0.001081,-0.001480,-0.000680,0.01,-0.27,9.79
298104709,-0.001081,-0.001480,-0.000680,0.03,-0.24,9.81
298105717,-0.000016,-0.001480,-0.000680,0.02,-0.23,9.82
298106723,0.001049,-0.000415,-0.000680,-0.02,-0.25,9.81
298107736,-0.001081,0.000650,-0.001745,-0.04,-0.25,9.80
298108756,-0.002146,-0.000415,-0.000680,-0.03,-0.24,9.86
298109766,-0.002146,-0.002546,0.000385,-0.02,-0.26,9.85
298110769,-0.001081,-0.003611,0.000385,-0.02,-0.27,9.76
298111774,-0.000016,-0.002546,0.001450,-0.01,-0.26,9.76
298112787,0.001049,-0.000415,0.004646,0.02,-0.24,9.83
298113804,-0.001081,-0.000415,0.005712,0.01,-0.24,9.81
298114815,-0.003212,-0.000415,0.003581,0.00,-0.25,9.78
298115817,-0.002146,-0.000415,0.002516,0.00,-0.22,9.83
298116827,0.001049,0.001715,0.001450,0.01,-0.19,9.82
298117838,0.003180,0.001715,-0.000680,0.03,-0.21,9.75
298118857,0.004245,0.000650,-0.000680,0.01,-0.22,9.75
298119869,0.004245,0.000650,0.000385,-0.01,-0.22,9.81
298120863,0.002115,0.000650,0.002516,0.00,-0.23,9.82
298121872,0.001049,-0.000415,0.002516,0.00,-0.22,9.80
298122883,-0.002146,-0.001480,0.000385,0.02,-0.23,9.80
298123889,-0.003212,-0.002546,-0.002811,0.03,-0.24,9.82
298124904,-0.002146,-0.003611,-0.002811,0.05,-0.25,9.83
298125909,-0.001081,-0.002546,-0.001745,0.05,-0.23,9.82
298126921,-0.000016,-0.002546,0.000385,0.02,-0.25,9.80
298127930,-0.000016,-0.001480,0.000385,0.00,-0.26,9.80
298128950,-0.000016,-0.000415,-0.001745,0.00,-0.26,9.82
298129958,-0.000016,0.000650,-0.003876,0.01,-0.28,9.83
298130957,0.003180,0.000650,0.000385,0.02,-0.24,9.82
298131967,0.002115,0.001715,0.003581,0.00,-0.24,9.80
298132977,-0.001081,0.000650,0.002516,-0.03,-0.26,9.83
298133987,-0.001081,-0.001480,0.000385,0.00,-0.23,9.83
298135003,0.002115,-0.001480,-0.001745,0.01,-0.23,9.82
298136007,0.003180,-0.000415,-0.000680,0.01,-0.25,9.80
298137017,0.003180,0.001715,0.001450,0.04,-0.26,9.76
298138027,0.001049,0.001715,0.002516,0.02,-0.26,9.81
298139047,-0.000016,0.000650,0.002516,-0.04,-0.22,9.83
298140056,-0.000016,0.000650,0.000385,-0.04,-0.24,9.80
298141056,-0.000016,0.000650,-0.001745,-0.04,-0.27,9.79
298142066,-0.000016,0.000650,-0.001745,-0.02,-0.25,9.81
298143100,-0.001130,-0.001445,0.000387,-0.02,-0.25,9.83
298144086,-0.001130,-0.001445,0.002517,-0.05,-0.27,9.84
298145101,-0.001130,0.000685,0.002517,-0.02,-0.27,9.83
298146106,-0.002196,0.000685,0.000387,0.00,-0.26,9.82
298147116,-0.003261,0.001750,-0.000678,0.00,-0.24,9.85
298148126,-0.002196,0.001750,-0.000678,0.02,-0.24,9.80
298149148,0.001000,0.000685,-0.000678,0.01,-0.26,9.77
298150156,0.003131,0.000685,0.000387,0.02,-0.27,9.83
298151157,0.001000,0.000685,0.001452,0.06,-0.25,9.84
298152167,-0.000065,0.001750,0.001452,0.08,-0.23,9.81
298153177,0.001000,0.001750,0.001452,0.03,-0.23,9.82
298154187,0.002066,-0.000380,-0.000678,0.01,-0.24,9.80
298155253,0.001000,-0.002511,-0.000678,0.04,-0.26,9.79
298156207,-0.000065,-0.004641,0.000387,0.02,-0.26,9.82
298157217,0.001000,-0.003576,0.001452,0.00,-0.22,9.81
298158227,0.002066,-0.000380,0.001452,0.02,-0.21,9.82
298159247,0.002066,0.000685,-0.000678,0.00,-0.23,9.88
298160256,0.002066,0.000685,-0.001744,-0.01,-0.26,9.83
298161256,0.002066,0.000685,-0.002809,0.01,-0.26,9.79
298162266,0.001000,0.001750,-0.002809,0.04,-0.26,9.83
298163276,0.002066,0.002816,-0.001744,0.06,-0.23,9.85
298164286,-0.000065,0.001750,-0.001744,0.02,-0.24,9.82
298165301,-0.002196,0.000685,-0.001744,-0.01,-0.24,9.79
298166306,-0.003261,-0.001445,0.000387,-0.02,-0.21,9.82
298167316,-0.002196,-0.001445,0.002517,-0.02,-0.24,9.85
298168337,-0.001130,-0.001445,0.002517,-0.03,-0.23,9.86
298169341,-0.000065,-0.000380,0.002517,-0.04,-0.20,9.83
298170352,-0.000065,0.000685,0.000387,-0.01,-0.23,9.82
298171357,0.001000,0.000685,-0.000678,0.00,-0.26,9.83
298172367,0.002066,-0.000380,-0.000678,-0.02,-0.26,9.80
298173377,0.001000,-0.000380,0.000387,0.02,-0.23,9.79
298174387,-0.001130,0.000685,0.001452,0.01,-0.22,9.79
298175403,-0.002196,0.000685,-0.000678,-0.02,-0.24,9.80
298176407,-0.003261,-0.001445,-0.001744,0.00,-0.22,9.83
298177417,-0.001130,-0.002511,-0.000678,0.04,-0.25,9.82
298178438,-0.001130,-0.001445,0.000387,0.05,-0.26,9.87
298179440,-0.001130,-0.000380,-0.001744,0.00,-0.23,9.89
298180452,-0.002196,-0.000380,-0.003874,-0.02,-0.22,9.86
298181456,-0.000065,-0.000380,-0.001744,0.01,-0.23,9.83
298182466,0.001000,-0.000380,0.001452,0.01,-0.21,9.83
298183476,0.001000,-0.000380,0.002517,0.00,-0.22,9.84
298184486,-0.000065,-0.000380,0.001452,0.00,-0.24,9.78
298185501,-0.000065,-0.000380,-0.000678,-0.01,-0.22,9.81
298186506,-0.001130,-0.002511,-0.000678,0.01,-0.22,9.82
298187516,-0.001130,-0.003576,-0.000678,0.02,-0.25,9.83
298188537,-0.000065,-0.002511,0.000387,-0.01,-0.25,9.83
298189541,-0.001130,-0.000380,0.001452,-0.01,-0.25,9.82
298190552,-0.001130,0.000685,0.001452,-0.01,-0.23,9.79
298191557,-0.001130,-0.000380,-0.000678,-0.03,-0.22,9.78
298192567,-0.002196,-0.001445,-0.001744,0.00,-0.24,9.77
298193577,-0.001130,-0.001445,-0.002809,0.01,-0.25,9.78
298194587,-0.000065,-0.000380,-0.002809,0.00,-0.26,9.81
298195603,0.001000,0.000685,-0.000678,0.01,-0.25,9.78
298196607,0.001000,0.000685,0.000387,0.01,-0.22,9.76
298197617,-0.000065,0.001750,-0.000678,0.06,-0.23,9.77
298198638,-0.001130,0.001750,0.000387,0.05,-0.23,9.79
298199640,-0.001130,0.001750,0.001452,0.00,-0.20,9.85
298200652,-0.000065,-0.000380,0.000387,0.01,-0.23,9.86
298201656,-0.001130,-0.002511,0.002517,-0.03,-0.27,9.83
298202666,-0.001130,-0.001445,0.002517,-0.02,-0.27,9.88
298203684,0.001000,-0.001445,0.002517,-0.04,-0.26,9.85
298204686,-0.000065,0.000685,0.001452,-0.02,-0.25,9.77
298205709,-0.003261,0.001750,0.001452,0.00,-0.25,9.78
298206713,-0.004326,-0.000380,0.002517,0.01,-0.24,9.78
298207723,-0.002196,-0.001445,0.003583,0.02,-0.25,9.81
298208751,-0.000065,-0.001445,0.002517,0.00,-0.25,9.85
298209753,0.001000,-0.001445,0.003583,-0.01,-0.24,9.80
298210760,-0.000065,-0.002511,0.002517,-0.01,-0.23,9.79
298211770,-0.001130,-0.001445,-0.000678,-0.01,-0.24,9.85
298212780,-0.000065,0.000685,-0.003874,-0.02,-0.25,9.86
298213785,-0.000065,0.003881,-0.004939,0.01,-0.25,9.86
298214801,-0.001130,0.001750,-0.004939,0.01,-0.21,9.86
298215817,-0.001130,-0.001445,-0.002809,-0.02,-0.19,9.85
298216820,0.001000,-0.001445,0.001452,-0.02,-0.23,9.80
298217826,-0.000065,0.000685,0.003583,-0.01,-0.24,9.79
298218849,-0.000065,0.002816,0.001452,0.01,-0.25,9.81
298219854,-0.002196,0.002816,0.000387,0.02,-0.23,9.83
298220863,-0.000065,-0.000380,0.000387,0.01,-0.23,9.83
298221868,0.001000,-0.001445,-0.000678,0.01,-0.27,9.82
298222872,0.001000,-0.001445,-0.002809,-0.01,-0.24,9.84
298223887,0.002066,-0.001445,-0.003874,-0.04,-0.24,9.83
298224887,0.001000,0.000685,-0.002809,-0.03,-0.24,9.79
298225904,0.001000,0.001750,-0.001744,0.00,-0.24,9.80
298226909,-0.001130,0.001750,-0.000678,0.00,-0.26,9.81
298227921,-0.002196,0.001750,0.000387,0.00,-0.25,9.81
298228941,-0.003261,0.002816,0.000387,0.00,-0.26,9.80
298229943,-0.002196,0.002816,-0.000678,-0.02,-0.27,9.77
298230955,-0.000065,0.000685,0.001452,0.00,-0.25,9.78
298231957,-0.001130,0.000685,0.000387,0.03,-0.23,9.85
298232967,-0.000065,0.000685,-0.000678,0.02,-0.24,9.85
298233977,0.002066,0.001750,-0.000678,-0.03,-0.26,9.80
298234987,0.002066,0.000685,-0.003874,-0.03,-0.26,9.80
298236003,0.001000,0.000685,-0.003874,-0.01,-0.26,9.82
298237007,0.001000,-0.000380,-0.001744,-0.01,-0.26,9.86
298238017,0.001000,-0.001445,-0.000678,-0.02,-0.22,9.85
298239038,0.002066,-0.000380,0.000387,0.00,-0.22,9.80
298240040,0.001000,0.000685,0.000387,0.00,-0.24,9.82
298241052,-0.000065,0.000685,0.000387,-0.01,-0.24,9.84
298242056,0.001000,0.000685,-0.000678,0.00,-0.23,9.79
298243066,0.001000,-0.000380,0.000387,0.00,-0.22,9.75
298244076,-0.001130,0.000685,-0.000678,0.01,-0.23,9.82
298245086,-0.002196,-0.000380,-0.003874,0.03,-0.22,9.86
298246101,-0.002196,-0.002511,-0.004939,0.01,-0.22,9.82
298247106,-0.002196,-0.003576,-0.002809,0.00,-0.24,9.81
298248116,-0.002196,-0.000380,-0.000678,0.03,-0.23,9.82
298249137,-0.002196,0.002816,-0.001744,0.04,-0.24,9.78
298250141,-0.003261,0.002816,-0.002809,0.04,-0.25,9.78
298251179,-0.001130,0.001750,-0.001744,0.05,-0.28,9.83
298252157,0.001000,-0.000380,-0.000678,0.03,-0.26,9.88
298253167,0.002066,-0.001445,-0.000678,0.01,-0.23,9.91
298254177,0.001000,-0.000380,0.000387,0.00,-0.24,9.88
298255187,-0.000065,0.001750,0.001452,-0.01,-0.23,9.82
298256203,-0.000065,0.001750,0.001452,-0.03,-0.26,9.78
298257207,-0.002196,-0.000380,0.001452,-0.03,-0.29,9.77
298258245,-0.004326,0.001750,0.000387,-0.01,-0.25,9.82
298259238,-0.003261,0.002816,-0.002809,-0.02,-0.24,9.83
298260240,-0.002196,0.003881,-0.001744,-0.01,-0.26,9.82
298261252,-0.003261,0.002816,-0.000678,-0.02,-0.25,9.81
298262256,-0.003261,0.001750,0.000387,-0.05,-0.19,9.82
298263266,-0.002196,0.000685,-0.000678,-0.03,-0.18,9.86
298264276,-0.000065,0.000685,-0.001744,-0.01,-0.19,9.77
298265286,-0.000065,0.000685,-0.001744,0.01,-0.20,9.74
298266301,-0.001130,0.000685,0.000387,0.02,-0.26,9.79
298267306,-0.001130,0.001750,0.001452,-0.02,-0.25,9.85
298268328,0.002066,-0.000380,-0.000678,-0.06,-0.23,9.88
298269331,0.004196,-0.000380,-0.001744,-0.01,-0.26,9.79
298270337,0.004196,-0.001445,-0.000678,0.01,-0.28,9.81
298271352,0.004196,-0.004641,0.000387,0.01,-0.23,9.84
298272381,0.003167,-0.003584,0.001485,0.02,-0.22,9.83
298273367,-0.000029,-0.000388,0.001485,-0.01,-0.22,9.82
298274377,-0.003225,0.001742,-0.000646,-0.02,-0.22,9.81
298275387,-0.003225,0.001742,-0.000646,-0.01,-0.23,9.86
298276403,-0.001094,-0.000388,0.000419,-0.02,-0.25,9.86
298277407,-0.000029,-0.001454,-0.000646,-0.01,-0.24,9.82
298278427,-0.000029,-0.000388,-0.001711,0.02,-0.23,9.83
298279430,0.001036,0.001742,0.000419,0.03,-0.24,9.85
298280436,0.001036,0.001742,0.002550,0.01,-0.23,9.82
298281452,-0.001094,0.001742,0.002550,0.00,-0.25,9.80
298282456,-0.001094,0.002807,0.002550,-0.01,-0.24,9.82
298283466,0.002101,0.002807,0.002550,-0.02,-0.25,9.80
298284476,0.003167,0.002807,0.000419,-0.02,-0.28,9.80
298285486,0.002101,0.001742,0.000419,0.00,-0.26,9.83
298286501,0.002101,-0.001454,0.000419,0.01,-0.23,9.81
298287506,0.001036,-0.002519,-0.000646,0.00,-0.19,9.83
298288528,0.002101,-0.002519,0.000419,-0.01,-0.24,9.83
298289531,0.002101,-0.001454,0.001485,-0.03,-0.28,9.84
298290537,0.001036,-0.001454,0.001485,-0.02,-0.23,9.82
298291552,-0.001094,-0.001454,0.002550,0.00,-0.23,9.77
298292557,-0.000029,-0.000388,0.003615,0.00,-0.22,9.80
298293567,0.001036,-0.000388,0.001485,0.03,-0.21,9.82
298294577,-0.001094,-0.000388,0.000419,0.03,-0.24,9.87
298295587,-0.003225,0.000677,0.000419,0.01,-0.28,9.86
298296603,-0.004290,0.002807,0.001485,0.00,-0.24,9.79
298297607,-0.002160,0.002807,0.000419,-0.01,-0.21,9.80
298298627,-0.000029,-0.000388,-0.001711,-0.03,-0.21,9.81
298299630,-0.000029,-0.001454,-0.002776,-0.03,-0.21,9.83
298300636,0.001036,-0.000388,-0.003842,-0.03,-0.26,9.87
298301652,-0.000029,0.001742,-0.002776,-0.02,-0.29,9.83
298302656,-0.001094,0.001742,0.004681,0.04,-0.24,9.81
298303666,0.002101,0.000677,0.003615,0.01,-0.20,9.80
298304682,0.003167,0.001742,-0.000646,-0.01,-0.22,9.81
298305686,0.003167,0.001742,-0.003842,0.00,-0.24,9.83
298306709,0.002101,0.002807,-0.004907,0.02,-0.24,9.82
298307717,-0.001094,0.000677,-0.004907,0.05,-0.23,9.86
298308736,-0.001094,-0.001454,-0.002776,0.02,-0.24,9.85
298309741,-0.000029,-0.000388,0.000419,0.00,-0.27,9.78
298310744,0.002101,0.000677,0.000419,0.01,-0.26,9.79
298311760,0.002101,0.002807,0.001485,0.00,-0.25,9.84
298312767,0.001036,0.002807,0.001485,-0.01,-0.26,9.86
298313781,-0.001094,0.003873,0.001485,0.01,-0.26,9.83
298314785,-0.003225,0.004938,0.001485,0.01,-0.24,9.80
298315801,-0.002160,0.000677,0.000419,0.00,-0.24,9.81
298316816,-0.001094,-0.003584,-0.000646,-0.01,-0.23,9.85
298317820,-0.000029,-0.004650,-0.000646,0.01,-0.20,9.81
298318837,-0.001094,-0.002519,0.001485,0.01,-0.22,9.80
298319843,-0.002160,0.000677,0.002550,-0.01,-0.22,9.81
298320847,-0.002160,0.004938,0.002550,-0.01,-0.22,9.83
298321864,0.001036,0.003873,0.004681,-0.02,-0.23,9.83
298322863,0.003167,-0.000388,0.005746,-0.02,-0.25,9.81
298323898,0.002101,-0.002519,0.003615,0.00,-0.25,9.85
298325014,-0.000029,-0.000388,0.001485,0.00,-0.23,9.84
298325874,0.001036,0.006003,0.002550,-0.05,-0.26,9.81
298326873,0.018081,0.028374,0.004681,0.06,-0.25,9.87
298327884,0.012754,0.034766,0.001485,0.09,-0.23,9.86
298328912,0.001036,0.015591,-0.007037,-0.07,-0.33,9.82
298329907,0.007428,-0.001454,-0.018756,-0.10,-0.24,9.77
298330912,-0.004290,-0.002519,-0.029408,-0.06,-0.29,9.83
298331926,-0.016008,-0.001454,-0.029408,0.00,-0.30,9.89
298332930,-0.010682,0.001742,-0.023017,0.10,-0.29,9.86
298333940,0.002101,0.001742,-0.015560,0.25,-0.26,9.87
298334950,-0.007486,0.004938,-0.012364,0.16,0.00,9.90
298335960,-0.030922,0.002807,-0.012364,-0.11,0.01,9.84
298336972,-0.040510,-0.006780,-0.012364,-0.30,-0.23,9.79
298337980,-0.033053,-0.011041,-0.005972,-0.04,-0.43,9.72
298339010,-0.012813,-0.001454,0.007876,0.35,0.02,9.68
298340004,-0.017074,0.016656,0.013203,-0.03,0.06,9.94
298341010,-0.012813,0.020917,0.005746,-0.39,-0.62,10.18
298342024,0.008493,-0.004650,0.005746,0.03,-0.46,9.86
298343030,0.012754,-0.015302,0.015333,0.44,0.59,9.42
298344040,-0.019204,0.009199,0.010007,-0.14,-0.88,9.66
298345050,-0.006421,0.008134,0.003615,-0.37,-1.05,10.19
298346060,0.035125,-0.014237,0.011072,0.48,1.39,9.93
298347072,-0.006421,0.004938,0.007876,0.14,-1.14,9.65
298348080,-0.051163,0.011330,0.004681,-0.58,-1.49,9.67
298349108,0.007428,-0.019564,0.005746,0.58,1.46,10.02
298350104,-0.000029,-0.012107,0.001485,0.10,-1.18,10.32
298351110,-0.041575,-0.001454,0.005746,-0.90,-0.25,9.07
298352124,0.012754,-0.000388,0.000419,0.66,0.39,10.03
298353130,-0.010682,-0.003584,0.000419,0.09,-0.61,10.10
298354140,0.015950,-0.003584,-0.007037,-0.36,0.00,8.93
298355150,0.005297,0.020917,-0.011299,0.08,-0.14,11.16
298356160,-0.009617,0.007068,-0.011299,0.23,-0.41,9.02
298357172,0.018081,0.009199,-0.010233,-0.43,0.24,10.05
298358180,-0.013878,0.008134,-0.004907,0.41,-0.35,9.76
298359210,0.010624,0.020917,-0.007037,-0.27,-0.20,9.74
298360230,-0.007486,0.008134,-0.002776,-0.09,-0.20,9.83
298361210,0.021276,-0.016368,-0.004907,0.30,-0.14,9.81
298362265,0.004232,-0.003584,-0.000646,-0.22,-0.42,10.04
298363231,0.020211,-0.000388,0.004681,0.25,-0.49,9.40
298364240,0.013819,0.001742,0.007876,-0.38,0.09,10.30
298365250,-0.001094,0.001742,0.010007,0.61,-0.87,9.33
298366260,0.004232,0.013460,0.005746,-0.11,0.01,10.70
298367274,-0.002160,0.001742,0.010007,-0.13,-0.44,9.65
298368280,-0.000029,-0.008911,0.007876,-0.07,0.00,9.77
298369310,-0.010682,-0.003584,0.006811,-0.45,-0.35,8.87
298370304,-0.012813,0.001742,0.008942,0.39,-0.69,9.77
298371310,-0.004290,0.001742,0.005746,0.39,0.22,10.31
298372324,-0.010682,-0.004650,0.001485,-0.60,-0.09,9.49
298373330,-0.008551,0.002807,-0.002776,-0.02,-0.77,10.45
298374340,-0.010682,0.001742,-0.004907,0.43,0.44,10.15
298375350,-0.007486,-0.008911,-0.001711,-0.44,-0.21,9.55
298376360,-0.005356,-0.007845,0.001485,0.09,-0.77,9.63
298377372,0.006363,0.000677,0.000419,0.50,0.26,9.54
298378380,0.003167,0.009199,0.003615,-0.64,-0.19,9.72
298379410,-0.003225,0.006003,0.006811,-0.14,-0.65,9.74
298380404,0.001036,0.003873,0.010007,0.58,0.29,9.72
298381410,-0.002160,0.001742,0.010007,-0.29,-0.11,9.80
298382424,0.004232,-0.002519,0.012138,-0.59,-0.61,10.17
298383430,-0.001094,-0.001454,0.010007,0.40,0.22,10.39
298384440,0.008493,-0.006780,0.011072,0.49,-0.34,9.51
298385450,0.029799,0.001742,0.014268,-0.58,-0.52,9.37
298386460,0.025538,0.009199,0.012138,-0.16,-0.35,9.77
298387472,0.001036,0.011330,0.010007,0.70,-0.04,10.03
298388480,-0.006421,0.008134,0.010007,0.26,-0.31,9.77
298389508,0.002101,0.002807,0.011072,-0.57,-0.62,9.55
298390504,-0.008551,-0.002519,0.005746,-0.12,-0.47,9.87
298391510,0.002101,-0.008911,0.002550,0.81,-0.20,10.18
298392524,0.017015,0.010264,0.000419,0.41,-0.28,10.12
298393530,0.017015,0.028374,0.000419,-0.52,-0.35,9.72
298394540,0.014885,0.031570,0.000419,-0.39,-0.25,9.65
298395550,0.009558,0.018787,-0.001711,0.54,-0.55,9.98
298396560,0.007428,0.001742,-0.002776,0.56,-0.18,9.86
298397572,0.006363,-0.003584,-0.002776,-0.01,0.08,9.71
298398600,-0.004290,-0.011041,-0.002776,-0.66,0.14,9.50
298399594,-0.004290,-0.016368,0.000419,-0.27,-0.67,9.55
298400600,-0.000029,-0.013172,0.002550,0.43,-0.47,10.09
298401610,-0.005356,-0.005715,0.001485,0.28,0.20,10.02
298402624,-0.005356,-0.002519,-0.000646,0.02,0.32,9.89
298403630,-0.003225,-0.007845,-0.001711,-0.61,0.12,9.44
298404640,0.003167,-0.009976,-0.000646,-0.63,-0.80,9.30
298405650,-0.000029,-0.002519,0.003615,0.21,0.21,9.99
298406660,0.004232,-0.001454,0.006811,0.29,0.41,10.12
298407676,0.005297,-0.001454,0.006811,0.11,-0.05,10.08
298408703,0.003167,0.004938,0.006811,-0.48,-0.50,9.56
298409699,-0.000029,0.012395,0.006811,-0.56,-1.04,9.24
298410705,-0.001094,0.012395,0.006811,-0.07,-0.91,9.65
298411719,-0.000029,0.008134,0.003615,0.23,0.07,10.06
298412727,0.001036,0.004938,0.002550,0.39,0.47,10.22
298413737,-0.005356,0.004938,0.003615,0.57,0.15,10.43
298414747,-0.001094,0.001742,0.004681,0.24,-0.34,9.98
298415759,0.008493,0.003873,0.002550,-0.35,-0.87,9.21
298416771,-0.004290,0.004938,-0.000646,-0.46,-1.05,9.10
298417787,-0.025596,-0.000388,-0.001711,-0.20,-0.78,9.52
298418810,-0.030922,-0.001454,-0.001711,0.10,0.09,10.05
298419808,-0.019204,0.004938,-0.000646,0.38,0.59,10.30
298420807,-0.002160,0.008134,-0.001711,0.65,0.41,10.51
298421817,0.002101,-0.002519,-0.003842,0.60,0.05,10.35
298422833,0.003167,-0.006780,-0.001711,0.07,-0.46,9.80
298423841,0.007428,-0.000388,0.000419,-0.45,-0.79,9.01
298424845,0.010624,-0.005715,-0.001711,-0.70,-0.85,8.87
298425856,-0.003225,-0.007845,-0.005972,-0.61,-0.59,9.41
298426864,-0.011747,0.001742,-0.004907,-0.28,-0.15,9.72
298427873,-0.003225,0.014525,-0.000646,-0.03,0.27,10.07
298428902,0.008493,0.013460,0.002550,0.33,0.52,10.32
298429898,0.006363,0.008134,0.001485,0.63,0.41,10.40
298430904,-0.004290,0.004938,-0.000646,0.63,-0.04,10.36
298431912,-0.007486,0.009199,-0.003842,0.34,-0.49,10.26
298432926,0.002101,0.008134,-0.001711,-0.09,-0.73,9.72
298433930,0.010624,0.001742,0.003615,-0.46,-0.81,8.97
298434940,-0.003225,-0.002519,0.005746,-0.65,-0.75,8.79
298435950,-0.007486,-0.001454,0.004681,-0.59,-0.58,9.16
298436960,-0.010682,0.002807,0.006811,-0.37,-0.30,9.63
298437972,0.008493,0.011330,0.008942,-0.07,-0.03,9.90
298439000,0.002101,0.012395,0.006811,0.18,0.14,10.19
298439994,-0.012813,-0.000388,0.003615,0.36,0.24,10.37
298441000,-0.000029,-0.004650,0.002550,0.56,0.16,10.38
298442010,0.019146,0.007068,0.001485,0.66,-0.05,10.31
298443024,0.024472,0.018787,-0.000646,0.64,-0.26,10.18
298444030,0.017015,0.020917,-0.001711,0.42,-0.42,10.25
298445040,0.008493,0.015591,-0.002776,0.11,-0.50,10.10
298446050,0.004232,0.008134,-0.000646,-0.12,-0.51,9.62
298447060,0.007428,0.004938,0.002550,-0.36,-0.49,9.14
298448072,0.011689,0.003873,0.000419,-0.51,-0.50,8.88
298449098,0.011689,0.002807,-0.003842,-0.56,-0.41,9.00
298450094,0.004232,-0.001454,-0.004907,-0.55,-0.26,9.35
298451100,-0.000029,-0.000388,-0.002776,-0.38,-0.19,9.69
298452110,0.005297,0.004938,-0.000646,-0.20,-0.16,9.85
298453124,0.007428,0.001742,-0.001711,-0.05,-0.07,9.93
298454130,0.002101,-0.003584,-0.002776,0.05,0.00,10.05
298455140,-0.000029,-0.003584,-0.000646,0.15,-0.03,10.17
298456150,-0.005356,-0.004650,0.000419,0.28,-0.06,10.23
298457160,-0.000029,0.001742,0.002550,0.36,-0.12,10.22
298458172,0.006363,0.003873,0.002550,0.41,-0.18,10.19
298459200,0.020211,0.007068,0.003615,0.46,-0.26,10.18
298460194,0.010624,0.008134,0.004681,0.43,-0.36,10.16
298461200,0.003167,0.000677,0.004681,0.33,-0.38,10.20
298462210,0.009558,-0.001454,0.003615,0.20,-0.35,10.23
298463231,-0.002160,0.001742,0.001485,0.09,-0.36,10.12
298464230,-0.014943,-0.006780,-0.000646,0.04,-0.39,9.85
298465240,-0.009617,-0.014237,0.000419,-0.09,-0.39,9.55
298466250,0.008493,-0.006780,0.003615,-0.23,-0.35,9.32
298467260,0.013819,0.007068,0.003615,-0.31,-0.34,9.13
298468272,-0.004290,0.013460,0.000419,-0.34,-0.31,9.06
298469298,-0.023465,0.007068,-0.001711,-0.33,-0.26,9.10
298470294,-0.025596,-0.002519,-0.001711,-0.34,-0.23,9.26
298471300,-0.011747,-0.011041,-0.001711,-0.33,-0.16,9.50
298472310,-0.004290,-0.016368,-0.002776,-0.28,-0.16,9.70
298473324,-0.004290,-0.017433,0.000419,-0.22,-0.17,9.81
298474330,-0.007486,-0.017433,0.002550,-0.14,-0.16,9.87
298475340,-0.012813,-0.016368,0.000419,-0.05,-0.17,9.92
298476350,-0.013878,-0.017433,-0.003842,-0.02,-0.21,9.95
298477360,-0.016008,-0.016368,-0.005972,0.06,-0.23,9.99
298478372,-0.016008,-0.009976,-0.004907,0.10,-0.19,10.05
298479400,-0.014943,-0.000388,-0.005972,0.08,-0.18,10.08
298480394,-0.008551,0.009199,-0.005972,0.14,-0.21,10.09
298481400,0.008493,0.016656,-0.003842,0.19,-0.22,10.09
298482410,0.026603,0.016656,-0.001711,0.19,-0.22,10.09
298483424,0.021276,0.007068,0.000419,0.20,-0.21,10.06
298484430,0.002101,-0.004650,0.002550,0.22,-0.23,10.01
298485440,-0.010682,-0.007845,0.003615,0.23,-0.29,9.97
298486450,-0.005356,-0.001454,0.003615,0.26,-0.30,10.02
298487460,0.004232,0.001742,0.003615,0.28,-0.26,10.03
298488472,-0.001094,-0.007845,0.000419,0.26,-0.29,9.97
298489498,-0.014943,-0.009976,-0.002776,0.24,-0.32,10.03
298490494,-0.008551,0.001742,-0.001711,0.19,-0.29,10.10
298491500,0.003167,0.007068,-0.001711,0.15,-0.26,10.12
298492510,0.003167,-0.001454,-0.001711,0.12,-0.25,10.11
298493524,0.007428,-0.001454,0.001485,0.07,-0.26,10.06
298494530,0.007428,0.003873,0.001485,0.04,-0.25,9.96
298495540,0.002101,0.002807,0.001485,0.05,-0.29,9.89
298496550,0.013819,0.003873,0.002550,-0.02,-0.34,9.83
298497560,0.019146,0.003873,0.004681,-0.05,-0.32,9.72
298498592,0.012754,0.003873,0.003615,-0.06,-0.32,9.67
298499584,0.005297,0.006003,0.000419,-0.09,-0.34,9.58
298500609,-0.007486,-0.000388,-0.000646,-0.11,-0.33,9.45
298501600,-0.006421,-0.002519,-0.000646,-0.16,-0.29,9.38
298502610,-0.004290,-0.002519,-0.000646,-0.16,-0.27,9.39
298503624,0.002101,-0.003584,0.000419,-0.17,-0.27,9.42
298504630,-0.000029,-0.004650,-0.000646,-0.21,-0.30,9.39
298505640,-0.002160,-0.006780,-0.001711,-0.18,-0.29,9.38
298506650,-0.013878,-0.002519,0.000419,-0.23,-0.26,9.47
298507660,-0.010682,0.002807,0.001485,-0.23,-0.28,9.52
298508703,-0.009617,0.004938,-0.000646,-0.19,-0.28,9.58
298509691,-0.002160,0.006003,0.000419,-0.20,-0.30,9.60
298510714,-0.002160,0.004938,-0.000646,-0.22,-0.28,9.70
298511705,0.004232,0.004938,0.001485,-0.20,-0.24,9.72
298512716,0.004232,0.007068,0.000419,-0.16,-0.21,9.72
298513729,0.007428,0.007068,0.002550,-0.12,-0.19,9.81
298514739,0.008493,0.008134,0.001485,-0.12,-0.20,9.87
298515752,0.006363,0.011330,0.003615,-0.09,-0.23,9.87
298516758,0.006363,0.011330,0.002550,-0.06,-0.23,9.86
298517773,-0.002160,0.011330,0.001485,-0.04,-0.21,9.91
298518807,0.002101,0.010264,0.003615,-0.05,-0.26,9.92
298519792,-0.009617,0.009199,0.006811,-0.02,-0.25,9.96
298520816,-0.006421,0.003873,0.006811,0.01,-0.27,9.96
298521807,-0.013878,-0.003584,0.004681,0.00,-0.30,9.98
298522817,-0.004290,-0.009976,0.002550,0.01,-0.25,9.96
298523830,-0.007486,-0.009976,0.000419,0.03,-0.26,9.97
298524837,-0.008551,-0.000388,-0.000646,0.08,-0.25,10.00
298525850,-0.010682,0.007068,-0.002776,0.10,-0.26,9.98
298526854,-0.012813,0.008134,-0.003842,0.10,-0.27,9.97
298527864,-0.009617,0.004938,-0.003842,0.13,-0.26,9.96
298528896,-0.008551,0.007068,-0.003842,0.10,-0.25,10.02
298529903,0.002101,0.010264,-0.002776,0.11,-0.26,10.02
298530895,0.008493,0.011330,-0.000646,0.15,-0.26,9.93
298531904,0.008493,0.011330,0.000419,0.14,-0.24,9.91
298532912,0.005297,0.008134,0.000419,0.14,-0.24,9.93
298533926,0.002101,0.008134,0.002550,0.16,-0.24,9.94
298534930,0.005297,0.011330,0.003615,0.19,-0.25,9.93
298535940,0.005297,0.013460,0.002550,0.22,-0.22,9.89
298536950,-0.002160,0.014525,0.001485,0.23,-0.20,9.92
298537960,-0.002160,0.009199,0.002550,0.20,-0.25,9.94
298538998,-0.002160,0.001742,0.003615,0.17,-0.26,10.00
298540000,-0.000029,-0.003584,0.004681,0.21,-0.25,10.02
298540990,0.002101,-0.008911,0.004681,0.25,-0.20,10.02
298542000,-0.006421,-0.012107,0.002550,0.26,-0.19,10.06
298543010,-0.009617,-0.001454,-0.000646,0.23,-0.28,10.09
298544024,-0.000029,0.011330,-0.000646,0.15,-0.33,10.13
298545030,0.002101,0.009199,-0.000646,0.09,-0.34,10.10
298546040,-0.007486,-0.004650,-0.001711,0.10,-0.34,10.03
298547050,-0.008551,-0.005715,-0.001711,0.08,-0.36,9.96
298548060,-0.003225,-0.001454,-0.003842,0.02,-0.35,9.87
298549097,-0.003225,0.001742,-0.002776,-0.02,-0.36,9.78
298550100,0.010624,0.004938,0.000419,-0.06,-0.35,9.69
298551090,0.021276,0.002807,0.001485,-0.08,-0.32,9.65
298552100,0.014885,-0.006780,-0.000646,-0.13,-0.35,9.60
298553110,0.002101,-0.011041,-0.002776,-0.17,-0.32,9.46
298554124,-0.010682,-0.009976,-0.001711,-0.20,-0.34,9.39
298555130,-0.006421,-0.002519,-0.001711,-0.23,-0.34,9.32
298556140,-0.002160,0.002807,-0.001711,-0.22,-0.28,9.26
298557150,-0.000029,0.001742,-0.002776,-0.24,-0.30,9.34
298558167,-0.007486,0.001742,-0.001711,-0.25,-0.30,9.40
298559198,-0.010682,0.000677,0.000419,-0.25,-0.32,9.46
298560200,-0.006421,0.001742,0.001485,-0.25,-0.29,9.53
298561190,-0.003225,0.000677,-0.001711,-0.25,-0.27,9.57
298562200,0.006363,0.002807,-0.001711,-0.24,-0.24,9.61
298563210,0.011689,0.004938,-0.000646,-0.21,-0.22,9.61
298564224,0.019146,0.009199,0.001485,-0.18,-0.23,9.67
298565258,0.015950,0.009199,0.003615,-0.15,-0.22,9.71
298566240,0.017015,0.009199,0.004681,-0.14,-0.24,9.77
298567250,0.015950,0.009199,0.002550,-0.11,-0.22,9.87
298568260,0.018081,0.012395,0.000419,-0.08,-0.23,9.87
298569297,0.014885,0.012395,-0.000646,-0.07,-0.24,9.91
298570300,0.007428,0.013460,0.001485,-0.02,-0.24,9.92
298571290,0.004232,0.014525,0.002550,0.00,-0.29,9.90
298572300,-0.003225,0.011330,0.001485,-0.01,-0.28,9.93
298573310,0.002101,0.003873,-0.001711,-0.02,-0.27,9.89
298574324,-0.003225,-0.000388,-0.003842,0.02,-0.21,9.92
298575330,0.002101,-0.004650,-0.002776,0.04,-0.22,9.95
298576340,0.005297,-0.009976,0.000419,0.04,-0.29,9.90
298577350,0.005297,-0.013172,0.001485,0.06,-0.28,9.95
298578360,-0.001094,-0.013172,-0.000646,0.05,-0.26,10.04
298579398,-0.008551,-0.012107,-0.002776,0.05,-0.25,10.03
298580400,-0.008551,-0.007845,-0.002776,0.08,-0.23,9.96
298581390,-0.014943,-0.002519,-0.001711,0.04,-0.22,9.94
298582400,-0.016008,-0.000388,0.000419,0.06,-0.23,9.94
298583410,-0.008551,-0.000388,0.000419,0.12,-0.23,9.97
298584424,0.002101,0.007068,0.000419,0.13,-0.24,9.98
298585430,0.002101,0.011330,0.001485,0.14,-0.25,9.93
298586440,0.006363,0.010264,0.000419,0.16,-0.23,9.96
298587450,0.010624,0.008134,0.000419,0.19,-0.24,9.97
298588460,0.005297,0.007068,0.000419,0.18,-0.26,9.90
298589497,-0.000029,0.006003,0.001485,0.18,-0.24,9.88
298590500,-0.003225,0.000677,0.003615,0.21,-0.22,9.89
298591490,-0.007486,-0.005715,0.004681,0.24,-0.23,9.99
298592500,-0.005356,-0.007845,0.004681,0.24,-0.24,10.06
298593510,-0.007486,-0.008911,0.003615,0.24,-0.24,10.03
298594524,-0.005356,-0.008911,0.003615,0.23,-0.25,10.03
298595530,-0.007486,-0.007845,0.000419,0.19,-0.25,10.04
298596540,-0.004290,-0.003584,-0.001711,0.14,-0.26,10.02
298597550,-0.002160,-0.002519,-0.003842,0.12,-0.22,10.06
298598586,-0.012813,0.000677,-0.004907,0.10,-0.21,10.08
298599574,-0.011747,0.007068,-0.004907,0.06,-0.22,10.02
298600600,-0.008551,0.009199,-0.001711,0.07,-0.22,10.03
298601590,0.002101,0.011330,-0.000646,0.06,-0.24,10.04
298602600,0.002101,0.011330,-0.001711,-0.02,-0.24,9.98
298603610,0.005297,0.013460,-0.002776,-0.04,-0.26,9.86
298604622,0.001036,0.012395,-0.001711,-0.03,-0.28,9.73
298605630,0.006363,0.014525,-0.001711,-0.08,-0.28,9.67
298606640,0.002101,0.013460,-0.001711,-0.09,-0.28,9.63
298607650,0.006363,0.015591,0.000419,-0.07,-0.28,9.57
298608690,0.002101,0.012395,-0.001711,-0.15,-0.26,9.49
298609677,0.001036,0.007068,0.000419,-0.13,-0.28,9.49
298610704,-0.001094,0.003873,0.001485,-0.12,-0.26,9.51
298611698,0.004232,0.001742,-0.000646,-0.15,-0.24,9.50
298612704,-0.000029,-0.003584,-0.001711,-0.17,-0.24,9.46
298613719,0.007428,-0.003584,0.000419,-0.17,-0.28,9.41
298614728,0.003167,-0.007845,0.000419,-0.16,-0.25,9.45
298615737,-0.005356,-0.009976,0.000419,-0.16,-0.24,9.47
298616747,-0.008551,-0.011041,0.000419,-0.17,-0.26,9.51
298617759,-0.005356,-0.011041,0.002550,-0.18,-0.22,9.56
298618795,0.012754,-0.007845,0.002550,-0.19,-0.23,9.57
298619788,0.008493,-0.004650,0.000419,-0.17,-0.25,9.60
298620815,0.002101,-0.000388,-0.003842,-0.16,-0.26,9.67
298621804,0.004232,-0.001454,-0.004907,-0.18,-0.25,9.72
298622807,0.008493,-0.003584,-0.001711,-0.19,-0.21,9.75
298623823,0.008493,-0.003584,-0.001711,-0.19,-0.27,9.76
298624831,0.005297,-0.002519,-0.000646,-0.20,-0.27,9.74
298625842,0.002101,0.001742,0.000419,-0.19,-0.29,9.77
298626845,-0.002160,0.004938,0.001485,-0.13,-0.32,9.82
298627856,-0.002160,0.008134,0.002550,-0.10,-0.30,9.90
298628889,0.009558,0.013460,0.002550,-0.07,-0.30,9.89
298629897,0.018081,0.014525,0.002550,-0.03,-0.30,9.93
298630884,0.017015,0.012395,0.003615,-0.02,-0.29,10.01
298631895,0.004232,0.003873,0.002550,0.04,-0.27,10.01
298632904,-0.008551,-0.004650,0.000419,0.02,-0.25,10.00
298633912,-0.006421,-0.006780,-0.002776,0.04,-0.26,10.00
298634925,-0.003225,-0.009976,-0.003842,0.13,-0.19,9.97
298635930,-0.005356,-0.014237,-0.003842,0.12,-0.22,10.00
298636940,-0.003225,-0.014237,-0.001711,0.13,-0.27,10.06
298637950,-0.001094,-0.012107,-0.001711,0.19,-0.24,10.03
298638986,0.002101,-0.003584,-0.002776,0.23,-0.22,9.97
298639994,0.003167,0.001742,-0.001711,0.20,-0.22,9.97
298640980,-0.001094,0.006003,-0.001711,0.19,-0.23,10.00
298641990,-0.000029,0.009199,0.000419,0.21,-0.24,9.96
298643000,-0.001094,0.006003,0.003615,0.23,-0.25,9.94
298644010,0.001036,0.001742,0.005746,0.23,-0.23,9.94
298645022,0.006363,-0.004650,0.003615,0.24,-0.26,9.97
298646030,0.003167,-0.007845,-0.001711,0.26,-0.24,9.95
298647040,0.003167,-0.006780,-0.002776,0.26,-0.26,9.95
298648050,0.001036,-0.003584,-0.000646,0.23,-0.27,9.96
298649085,0.005297,0.003873,0.003615,0.20,-0.24,10.00
298650094,0.007428,0.006003,0.004681,0.20,-0.25,10.06
298651080,-0.002160,0.006003,0.003615,0.12,-0.27,10.07
298652090,-0.002160,0.003873,0.003615,0.09,-0.25,10.09
298653100,-0.005356,-0.001454,0.002550,0.10,-0.22,10.09
298654110,-0.008551,-0.004650,0.002550,0.05,-0.22,10.03
298655122,-0.010682,-0.008911,0.002550,0.03,-0.25,9.93
298656130,-0.014943,-0.011041,0.002550,0.01,-0.28,9.93
298657140,-0.007486,-0.011041,0.001485,-0.01,-0.28,9.86
298658150,-0.001094,-0.009976,0.000419,-0.03,-0.27,9.72
298659186,0.008493,-0.003584,-0.000646,-0.04,-0.28,9.65
298660174,0.015950,0.004938,-0.000646,-0.07,-0.31,9.53
298661180,0.018081,0.015591,-0.000646,-0.10,-0.33,9.42
298662190,0.020211,0.021982,-0.000646,-0.17,-0.31,9.38
298663200,0.009558,0.015591,-0.000646,-0.22,-0.28,9.34
298664210,-0.004290,0.007068,-0.001711,-0.21,-0.28,9.25
298665222,-0.007486,-0.000388,-0.000646,-0.20,-0.24,9.28
298666230,-0.008551,-0.007845,-0.000646,-0.23,-0.26,9.39
298667262,-0.005356,-0.009976,0.000419,-0.26,-0.26,9.42
298668265,-0.007486,-0.014237,-0.001711,-0.22,-0.24,9.44
298669281,-0.003225,-0.015302,-0.002776,-0.21,-0.24,9.55
298670274,-0.005356,-0.016368,-0.001711,-0.25,-0.25,9.60
298671280,-0.006421,-0.011041,-0.000646,-0.23,-0.24,9.63
298672290,-0.010682,-0.011041,-0.002776,-0.19,-0.23,9.70
298673300,-0.009617,-0.012107,-0.004907,-0.17,-0.23,9.74
298674310,-0.009617,-0.014237,-0.003842,-0.17,-0.23,9.74
298675322,-0.004290,-0.013172,-0.002776,-0.14,-0.25,9.79
298676330,-0.012813,-0.011041,-0.003842,-0.13,-0.27,9.82
298677340,-0.013878,-0.011041,-0.000646,-0.12,-0.26,9.87
298678350,-0.009617,-0.007845,0.001485,-0.08,-0.19,9.94
298679384,-0.005356,-0.004650,0.001485,-0.02,-0.23,9.91
298680374,-0.003225,-0.003584,0.001485,-0.02,-0.27,9.95
298681380,0.006363,-0.008911,0.002550,-0.03,-0.28,9.94
298682390,0.005297,-0.013172,0.003615,-0.01,-0.29,10.00
298683400,0.005297,-0.014237,0.002550,0.04,-0.25,10.07
298684410,0.007428,-0.009976,0.000419,0.09,-0.24,10.07
298685422,0.006363,-0.004650,-0.002776,0.05,-0.22,10.03
298686430,0.001036,-0.000388,-0.001711,0.09,-0.19,10.00
298687440,-0.000029,0.003873,-0.001711,0.13,-0.22,10.02
298688450,-0.008551,0.009199,-0.000646,0.13,-0.21,10.03
298689481,-0.010682,0.012395,-0.002776,0.16,-0.21,10.05
298690474,-0.011747,0.009199,-0.002776,0.18,-0.24,9.98
298691480,-0.009617,0.006003,-0.004907,0.18,-0.21,9.92
298692490,-0.005356,0.003873,-0.005972,0.18,-0.23,9.92
298693500,-0.000029,0.007068,-0.004907,0.21,-0.23,9.97
298694510,0.005297,0.006003,-0.004907,0.20,-0.24,9.97
298695522,0.009558,0.004938,-0.002776,0.21,-0.24,9.94
298696530,0.008493,0.003873,-0.000646,0.18,-0.22,9.94
298697540,0.009558,0.008134,-0.000646,0.17,-0.24,9.92
298698574,-0.002160,0.011330,-0.003842,0.18,-0.24,9.94
298699560,0.001036,0.015591,-0.005972,0.16,-0.30,9.97
298700574,-0.005356,0.011330,-0.005972,0.16,-0.29,9.94
298701580,0.005297,0.007068,-0.003842,0.16,-0.28,10.01
298702590,0.017015,0.004938,-0.001711,0.16,-0.25,10.05
298703600,0.010624,-0.002519,0.000419,0.14,-0.19,10.02
298704610,0.007428,-0.003584,0.001485,0.12,-0.22,10.01
298705622,-0.009617,-0.006780,-0.000646,0.08,-0.23,9.97
298706630,-0.010682,-0.005715,0.000419,0.04,-0.22,9.98
298707640,-0.000029,-0.001454,0.001485,0.04,-0.20,10.05
298708674,-0.013878,-0.004650,0.001485,0.04,-0.23,10.00
298709660,-0.011747,-0.003584,0.001485,0.02,-0.21,9.93
298710677,-0.005356,-0.008911,-0.002776,0.05,-0.24,9.96
298711685,-0.010682,-0.015302,-0.003842,0.02,-0.23,9.93
298712696,-0.006421,-0.009976,-0.002776,0.02,-0.23,9.93
298713705,-0.012813,0.004938,0.000419,-0.01,-0.22,9.87
298714716,-0.007486,0.012395,0.002550,0.00,-0.20,9.87
298715728,0.010624,0.009199,0.001485,0.01,-0.21,9.85
298716739,0.002101,0.001742,-0.000646,0.00,-0.24,9.76
298717752,-0.006421,-0.005715,0.000419,0.01,-0.24,9.76
298718781,0.004232,-0.001454,0.002550,0.00,-0.24,9.75
298719772,0.001036,0.007068,0.000419,-0.04,-0.26,9.78
298720784,-0.004290,0.001742,-0.004907,-0.03,-0.30,9.76
298721790,0.010624,-0.008911,-0.007037,-0.02,-0.30,9.68
298722801,0.022342,-0.008911,-0.004907,-0.04,-0.25,9.69
298723817,0.006363,-0.004650,-0.001711,-0.07,-0.27,9.69
298724817,-0.002160,-0.001454,-0.000646,-0.08,-0.29,9.63
298725830,0.010624,0.001742,-0.000646,-0.11,-0.28,9.61
298726837,0.009558,0.002807,-0.001711,-0.10,-0.29,9.64
298727850,-0.005356,-0.001454,-0.000646,-0.07,-0.27,9.63
298728874,-0.004290,-0.005715,0.001485,-0.05,-0.21,9.62
298729864,0.010624,-0.002519,0.002550,-0.06,-0.21,9.59
298730874,0.006363,0.000677,0.000419,-0.09,-0.25,9.60
298731884,-0.008551,-0.004650,-0.002776,-0.11,-0.26,9.66
298732895,-0.009617,-0.012107,-0.002776,-0.11,-0.24,9.64
298733904,0.004232,-0.009976,0.001485,-0.08,-0.25,9.62
298734912,0.003167,-0.002519,0.003615,-0.07,-0.28,9.65
298735925,-0.013878,-0.000388,0.000419,-0.06,-0.30,9.69
298736930,-0.018139,-0.004650,0.000419,-0.08,-0.26,9.71
298737940,-0.000029,-0.002519,0.000419,-0.09,-0.22,9.64
298738974,0.009558,0.002807,0.001485,-0.04,-0.24,9.59
298739960,-0.004290,0.001742,0.000419,-0.06,-0.25,9.66
298740974,-0.017074,-0.008911,0.000419,-0.07,-0.24,9.66
298741980,-0.012813,-0.009976,0.000419,-0.08,-0.24,9.65
298742990,0.005297,-0.002519,0.001485,-0.09,-0.22,9.67
298744000,0.007428,-0.002519,0.000419,-0.09,-0.23,9.66
298745010,-0.007486,-0.009976,-0.001711,-0.09,-0.29,9.64
298746022,-0.013878,-0.013172,-0.001711,-0.09,-0.25,9.66
298747030,-0.006421,-0.003584,-0.000646,-0.08,-0.18,9.69
298748040,0.008493,0.009199,0.000419,-0.08,-0.19,9.68
298749071,0.013819,0.011330,-0.000646,-0.11,-0.24,9.71
298750060,-0.001094,0.003873,-0.000646,-0.08,-0.28,9.76
298751074,-0.007486,-0.002519,-0.000646,-0.06,-0.25,9.77
298752080,-0.002160,-0.002519,-0.000646,-0.07,-0.23,9.82
298753090,0.009558,0.004938,-0.000646,-0.08,-0.23,9.86
298754100,0.021276,0.009199,0.000419,-0.04,-0.23,9.80
298755110,0.013819,0.002807,0.001485,-0.02,-0.26,9.76
298756122,-0.001094,-0.002519,-0.000646,-0.03,-0.25,9.79
298757130,-0.005356,-0.001454,-0.003842,-0.01,-0.25,9.79
298758140,-0.002160,0.007068,-0.001711,-0.06,-0.24,9.79
298759174,0.009558,0.014525,0.002550,-0.08,-0.25,9.81
298760160,0.023407,0.014525,0.003615,-0.04,-0.26,9.82
298761174,0.015950,0.006003,0.003615,-0.02,-0.24,9.80
298762180,-0.002160,-0.003584,0.001485,-0.03,-0.21,9.79
298763198,-0.006421,-0.003584,0.000419,-0.04,-0.20,9.81
298764200,-0.005356,0.004938,0.000419,-0.05,-0.22,9.85
298765210,0.003167,0.006003,0.000419,-0.06,-0.21,9.90
298766222,0.010624,-0.004650,-0.000646,-0.07,-0.22,9.90
298767230,-0.000029,-0.013172,0.000419,-0.08,-0.25,9.88
298768240,-0.007486,-0.007845,0.001485,-0.08,-0.27,9.86
298769271,-0.005356,0.001742,0.002550,-0.09,-0.28,9.90
298770260,-0.005356,0.000677,0.001485,-0.05,-0.22,9.91
298771274,-0.007486,-0.004650,0.001485,-0.01,-0.20,9.94
298772280,-0.005356,-0.002519,0.003615,0.00,-0.21,9.94
298773290,-0.003225,0.001742,0.003615,0.01,-0.23,9.95
298774300,0.001036,0.010264,0.000419,0.01,-0.25,9.94
298775310,0.002101,0.010264,-0.002776,0.04,-0.29,9.95
298776322,-0.006421,0.006003,-0.002776,0.03,-0.28,10.06
298777330,-0.004290,0.002807,-0.002776,0.02,-0.24,10.07
298778340,0.001036,-0.002519,-0.000646,0.07,-0.23,9.98
298779374,0.001036,-0.006780,0.000419,0.08,-0.25,9.98
298780360,0.002101,-0.006780,0.002550,0.10,-0.24,10.00
298781374,0.005297,-0.001454,0.003615,0.13,-0.24,9.99
298782380,0.004232,0.006003,0.004681,0.14,-0.26,10.01
298783390,0.008493,0.009199,0.002550,0.17,-0.23,10.02
298784400,0.013819,0.009199,0.001485,0.21,-0.19,10.04
298785410,0.009558,0.009199,0.003615,0.23,-0.19,9.98
298786422,0.001036,0.009199,0.003615,0.22,-0.20,9.97
298787430,-0.005356,0.007068,-0.000646,0.25,-0.24,10.01
298788440,-0.005356,-0.003584,-0.003842,0.25,-0.26,9.99
298789471,-0.006421,-0.011041,-0.005972,0.22,-0.27,9.98
298790460,-0.001094,-0.013172,-0.002776,0.26,-0.26,9.94
298791474,0.005297,-0.007845,-0.000646,0.26,-0.24,9.92
298792480,0.003167,0.002807,-0.000646,0.27,-0.27,10.00
298793490,-0.005356,0.014525,-0.000646,0.28,-0.26,10.09
298794500,-0.011747,0.010264,0.000419,0.20,-0.27,10.11
298795510,-0.008551,-0.002519,0.001485,0.14,-0.29,10.06
298796522,0.006363,-0.004650,0.001485,0.09,-0.33,10.09
298797530,0.020211,0.001742,0.000419,0.05,-0.31,10.08
298798564,0.013819,0.007068,-0.000646,0.05,-0.31,9.97
298799550,0.004232,0.013460,-0.001711,0.02,-0.33,9.89
298800560,-0.003225,0.013460,-0.002776,0.00,-0.32,9.81
298801574,-0.010682,0.010264,-0.001711,-0.04,-0.32,9.76
298802580,-0.012813,0.007068,-0.000646,-0.06,-0.29,9.64
298803590,-0.017074,0.001742,0.001485,-0.08,-0.26,9.57
298804600,-0.016008,-0.004650,0.002550,-0.10,-0.24,9.55
298805610,-0.019204,-0.009976,0.002550,-0.08,-0.28,9.49
298806622,-0.017074,-0.005715,0.002550,-0.15,-0.29,9.44
298807630,-0.020270,0.001742,0.000419,-0.23,-0.28,9.37
298808661,-0.012813,0.003873,-0.000646,-0.21,-0.29,9.43
298809650,-0.007486,-0.000388,0.000419,-0.17,-0.25,9.45
298810660,-0.007486,-0.005715,0.001485,-0.17,-0.24,9.45
298811678,0.002101,0.001742,0.001485,-0.16,-0.27,9.49
298812685,0.006363,0.010264,0.003615,-0.22,-0.26,9.52
298813698,-0.000029,0.010264,0.000419,-0.19,-0.24,9.54
298814704,-0.006421,0.004938,-0.002776,-0.14,-0.23,9.62
298815719,0.013819,0.003873,-0.002776,-0.10,-0.24,9.69
298816728,0.009558,-0.000388,-0.002776,-0.09,-0.27,9.70
298817737,-0.003225,-0.003584,-0.001711,-0.14,-0.29,9.73
298818776,0.012754,-0.004650,0.000419,-0.16,-0.26,9.74
298819759,0.009558,0.000677,0.001485,-0.13,-0.21,9.71
298820771,0.002101,0.007068,0.001485,-0.11,-0.22,9.73
298821788,0.011689,0.006003,0.002550,-0.13,-0.27,9.77
298822788,0.014885,-0.002519,0.001485,-0.09,-0.24,9.80
298823800,0.004232,-0.003584,0.001485,-0.07,-0.27,9.76
298824807,0.002101,-0.002519,0.000419,-0.07,-0.28,9.82
298825817,-0.004290,0.000677,0.001485,-0.08,-0.26,9.85
298826831,0.001036,0.008134,0.003615,-0.10,-0.28,9.83
298827842,-0.000029,0.011330,0.001485,-0.09,-0.29,9.89
298828867,-0.009617,0.006003,-0.000646,-0.08,-0.28,9.94
298829856,-0.008551,-0.000388,-0.003842,-0.06,-0.27,9.92
298830864,-0.009617,-0.007845,-0.003842,-0.03,-0.26,9.92
298831874,-0.006421,-0.011041,-0.001711,0.00,-0.25,9.96
298832884,0.001036,-0.009976,0.000419,0.00,-0.26,9.95
298833895,-0.009617,-0.005715,-0.001711,-0.02,-0.24,10.01
298834904,-0.006421,-0.002519,-0.002776,0.01,-0.23,10.01
298835912,-0.002160,-0.004650,-0.002776,0.08,-0.27,9.96
298836925,-0.013878,-0.007845,-0.002776,0.10,-0.27,9.99
298837930,0.005297,-0.008911,-0.001711,0.10,-0.28,10.03
298838964,0.019146,-0.004650,-0.000646,0.10,-0.31,9.98
298839950,-0.001094,-0.001454,0.001485,0.10,-0.28,9.92
298840960,-0.001094,-0.001454,0.004681,0.06,-0.24,9.93
298841974,0.013819,0.001742,0.003615,0.06,-0.23,9.93
298842980,0.004232,0.002807,-0.000646,0.07,-0.25,9.94
298843990,-0.004290,-0.001454,-0.002776,0.04,-0.23,9.95
298845000,0.003167,-0.004650,-0.000646,0.07,-0.22,9.92
298846010,0.007428,-0.000388,0.000419,0.07,-0.25,9.92
298847022,0.001036,0.004938,0.000419,0.09,-0.26,9.94
298848030,0.001036,0.003873,0.002550,0.13,-0.26,9.88
298849061,-0.007486,0.000677,0.003615,0.16,-0.28,9.86
298850050,-0.003225,-0.001454,0.003615,0.16,-0.27,9.89
298851060,-0.000029,-0.005715,0.002550,0.11,-0.23,9.88
298852074,-0.004290,-0.012107,0.002550,0.13,-0.27,9.87
298853080,-0.007486,-0.011041,0.001485,0.14,-0.26,9.92
298854090,-0.011747,-0.005715,0.000419,0.12,-0.22,10.01
298855100,-0.012813,-0.000388,0.000419,0.16,-0.21,10.02
298856110,-0.016008,0.001742,0.000419,0.20,-0.23,9.93
298857122,-0.014943,0.001742,0.000419,0.23,-0.23,9.92
298858130,-0.017074,0.002807,-0.000646,0.25,-0.23,9.96
298859164,-0.013878,0.003873,-0.000646,0.23,-0.23,9.96
298860150,-0.011747,0.002807,-0.000646,0.21,-0.25,9.97
298861160,-0.006421,-0.003584,-0.000646,0.19,-0.23,10.07
298862174,-0.002160,-0.006780,0.001485,0.15,-0.21,10.13
298863180,0.006363,-0.006780,0.001485,0.13,-0.22,10.11
298864190,0.009558,-0.005715,0.000419,0.11,-0.20,10.07
298865200,0.003167,0.001742,-0.002776,0.07,-0.24,10.01
298866210,0.004232,0.010264,-0.003842,0.04,-0.29,9.98
298867267,0.002101,0.012395,-0.002776,0.00,-0.28,9.91
298868236,-0.000029,0.013460,-0.001711,-0.03,-0.30,9.79
298869262,0.002101,0.009199,0.000419,-0.03,-0.28,9.74
298870250,-0.006421,0.000677,0.000419,-0.07,-0.30,9.61
298871260,-0.010682,-0.006780,-0.001711,-0.12,-0.33,9.53
298872304,-0.013878,-0.015302,-0.001711,-0.13,-0.29,9.47
298873282,-0.010682,-0.012107,-0.000646,-0.15,-0.26,9.44
298874306,-0.006421,-0.014237,-0.002776,-0.18,-0.26,9.43
298875300,-0.003225,-0.013172,-0.003842,-0.18,-0.25,9.41
298876310,-0.005356,-0.013172,-0.003842,-0.17,-0.26,9.39
298877322,-0.005356,-0.006780,-0.002776,-0.15,-0.26,9.43
298878330,-0.011747,-0.004650,-0.002776,-0.15,-0.24,9.50
298879364,-0.010682,-0.003584,-0.002776,-0.18,-0.25,9.53
298880350,-0.004290,-0.005715,-0.001711,-0.19,-0.24,9.57
298881360,0.004232,-0.007845,0.001485,-0.19,-0.26,9.57
298882374,0.019146,-0.005715,0.004681,-0.18,-0.26,9.60
298883380,0.014885,-0.003584,0.005746,-0.14,-0.21,9.60
298884390,0.009558,0.002807,0.005746,-0.14,-0.21,9.61
298885400,0.009558,0.007068,0.004681,-0.11,-0.19,9.71
298886410,0.002101,0.002807,0.002550,-0.08,-0.22,9.77
298887422,0.011689,-0.002519,0.002550,-0.12,-0.26,9.78
298888430,0.017015,-0.007845,0.002550,-0.14,-0.26,9.78
298889461,-0.000029,-0.012107,0.001485,-0.11,-0.24,9.80
298890450,-0.008551,-0.007845,0.000419,-0.09,-0.22,9.78
298891460,-0.009617,-0.002519,0.000419,-0.12,-0.24,9.81
298892474,-0.011747,-0.003584,0.001485,-0.09,-0.24,9.84
298893480,-0.012813,-0.003584,0.003615,-0.07,-0.26,9.84
298894490,-0.012813,-0.001454,0.000419,-0.08,-0.28,9.87
298895500,-0.016008,-0.005715,-0.002776,-0.07,-0.28,9.92
298896510,-0.008551,-0.005715,-0.001711,-0.03,-0.25,9.94
298897522,-0.007486,-0.000388,0.000419,0.02,-0.22,9.94
298898554,-0.005356,0.002807,0.001485,-0.01,-0.25,9.95
298899540,-0.001094,0.003873,-0.001711,-0.03,-0.27,9.91
298900550,0.004232,0.001742,0.000419,0.01,-0.23,9.94
298901560,0.007428,0.000677,0.001485,0.04,-0.25,10.01
298902574,0.007428,-0.002519,0.000419,0.05,-0.24,10.00
298903580,0.007428,-0.001454,-0.000646,0.07,-0.19,10.00
298904590,0.008493,0.002807,0.000419,0.08,-0.21,10.02
298905600,0.012754,0.009199,0.001485,0.12,-0.20,10.00
298906610,0.013819,0.013460,0.002550,0.17,-0.21,9.99
298907622,0.011689,0.015591,0.002550,0.13,-0.25,9.97
298908651,0.005297,0.016656,0.002550,0.14,-0.24,10.00
298909640,-0.001094,0.011330,0.002550,0.21,-0.24,10.03
298910650,-0.003225,0.004938,0.003615,0.22,-0.23,9.96
298911660,-0.007486,-0.001454,0.003615,0.22,-0.26,9.87
298912678,-0.010682,-0.008911,0.003615,0.22,-0.25,9.87
298913684,-0.009617,-0.017433,0.000419,0.24,-0.26,9.99
298914697,0.001036,-0.013172,0.001485,0.19,-0.27,10.02
298915706,0.007428,-0.005715,0.000419,0.18,-0.26,10.00
298916718,0.015950,-0.000388,-0.003842,0.19,-0.23,10.06
298917731,0.012754,0.003873,-0.004907,0.18,-0.16,10.07
298918767,0.011689,0.008134,-0.004907,0.14,-0.19,10.04
298919751,0.006363,0.008134,-0.004907,0.10,-0.19,10.09
298920757,0.009558,0.006003,-0.003842,0.11,-0.18,10.04
298921772,0.007428,0.001742,-0.001711,0.09,-0.21,10.00
298922785,0.008493,-0.000388,0.001485,0.02,-0.20,10.03
298923793,0.008493,-0.000388,0.004681,0.00,-0.26,10.03
298924800,0.008493,0.000677,0.001485,0.02,-0.25,9.95
