time_us,gyro_x_rad_s,gyro_y_rad_s,gyro_z_rad_s,acc_x_m_s2,acc_y_m_s2,acc_z_m_s2
43029478,0.001470,0.000304,0.001490,0.02,-0.25,9.84
43030208,0.000404,-0.000761,0.002556,-0.02,-0.21,9.82
43031215,0.003600,-0.001826,0.003621,-0.01,-0.24,9.78
43032230,0.004665,-0.002892,0.003621,-0.01,-0.27,9.74
43033281,0.003600,-0.005022,0.003621,-0.01,-0.24,9.79
43034257,0.001470,-0.002892,0.002556,0.02,-0.22,9.84
43035255,-0.000661,0.000304,0.000425,-0.02,-0.23,9.83
43036264,-0.001726,0.001369,0.000425,-0.01,-0.24,9.85
43037278,-0.002792,0.001369,0.001490,0.03,-0.25,9.84
43038284,-0.001726,0.000304,0.002556,0.00,-0.27,9.80
43039294,0.000404,0.001369,0.002556,-0.02,-0.28,9.79
43040304,-0.000661,0.002435,0.002556,0.00,-0.26,9.80
43041314,-0.000661,-0.000761,0.003621,-0.01,-0.23,9.82
43042328,0.000404,-0.002892,0.002556,-0.01,-0.26,9.87
43043372,0.000404,-0.002892,-0.000640,0.02,-0.26,9.86
43044358,0.000404,-0.002892,-0.001706,0.01,-0.25,9.81
43045356,-0.001726,-0.001826,-0.001706,-0.01,-0.25,9.81
43046365,-0.001726,-0.000761,-0.000640,-0.01,-0.26,9.82
43047383,-0.000661,0.000304,0.001490,-0.01,-0.27,9.85
43048385,0.000404,0.001369,0.001490,-0.03,-0.22,9.85
43049395,-0.000661,-0.000761,0.001490,-0.03,-0.22,9.79
43050405,-0.000661,-0.001826,0.002556,-0.01,-0.25,9.76
43051415,-0.000661,-0.003957,0.001490,0.01,-0.24,9.78
43052445,-0.000661,-0.005022,0.001490,0.01,-0.26,9.83
43053437,0.000404,-0.003957,0.001490,-0.02,-0.27,9.85
43054455,-0.000661,-0.000761,0.000425,-0.04,-0.25,9.83
43055455,-0.000661,-0.000761,-0.000640,-0.03,-0.25,9.81
43056464,0.001470,0.000304,-0.000640,0.00,-0.24,9.82
43057478,0.001470,0.000304,0.000425,0.01,-0.27,9.83
43058484,0.001470,0.000304,0.000425,0.02,-0.27,9.85
43059494,0.000404,-0.000761,-0.000640,0.07,-0.21,9.84
43060504,-0.000661,-0.000761,0.000425,0.04,-0.21,9.80
43061514,-0.001726,-0.000761,0.000425,-0.03,-0.24,9.81
43062545,0.001470,-0.000761,0.001490,-0.01,-0.25,9.79
43063538,0.003600,-0.000761,-0.000640,0.02,-0.24,9.75
43064557,0.001470,0.000304,-0.000640,0.03,-0.23,9.80
43065556,-0.000661,0.000304,-0.001706,0.03,-0.24,9.86
43066565,-0.001726,0.002435,-0.000640,0.05,-0.26,9.85
43067582,-0.000661,0.000304,0.000425,0.02,-0.24,9.82
43068585,-0.000661,0.001369,0.002556,-0.01,-0.29,9.84
43069595,-0.001726,0.000304,0.002556,0.01,-0.29,9.82
43070605,-0.000661,-0.000761,0.001490,-0.01,-0.24,9.78
43071615,0.000404,-0.001826,0.001490,-0.02,-0.24,9.81
43072645,-0.000661,-0.000761,0.000425,0.00,-0.25,9.79
43073637,-0.002792,0.000304,-0.001706,0.00,-0.23,9.80
43074655,-0.003857,0.002435,-0.000640,0.01,-0.25,9.87
43075655,-0.002792,0.002435,0.001490,0.01,-0.27,9.87
43076664,-0.000661,0.003500,0.000425,0.02,-0.27,9.83
43077682,-0.000661,0.003500,-0.002771,-0.01,-0.26,9.84
43078685,-0.000661,0.001369,-0.002771,-0.02,-0.26,9.89
43079700,-0.001726,-0.001826,-0.001706,-0.02,-0.26,9.89
43080713,-0.000661,-0.002892,-0.000640,-0.04,-0.24,9.83
43081719,-0.002792,-0.001826,0.000425,-0.03,-0.26,9.86
43082754,-0.003857,0.001369,-0.000640,0.00,-0.26,9.88
43083747,-0.000661,0.002435,0.000425,-0.03,-0.23,9.86
43084775,0.003600,0.000304,0.000425,-0.04,-0.23,9.86
43085771,0.003600,0.000304,-0.000640,-0.01,-0.23,9.82
43086777,0.000404,0.000304,-0.000640,0.01,-0.22,9.80
43087795,-0.000661,0.000304,0.000425,0.03,-0.23,9.82
43088799,0.001470,0.000304,0.002556,0.04,-0.22,9.81
43089807,0.001470,-0.001826,0.000425,0.02,-0.20,9.81
43090819,0.000404,-0.001826,-0.002771,-0.01,-0.22,9.82
43091823,-0.000661,0.000304,-0.005967,0.00,-0.27,9.82
43092856,-0.001726,0.002435,-0.004901,0.00,-0.28,9.83
43093856,-0.001726,0.003500,-0.002771,-0.02,-0.25,9.82
43094853,-0.003857,0.000304,-0.001706,-0.01,-0.27,9.83
43095858,-0.003857,-0.001826,0.000425,-0.02,-0.27,9.84
43096867,-0.001726,-0.002892,0.001490,-0.02,-0.23,9.80
43097881,0.000404,-0.001826,0.000425,0.00,-0.22,9.79
43098884,0.002535,-0.001826,0.000425,-0.02,-0.23,9.81
43099897,0.001470,-0.000761,0.001490,-0.02,-0.27,9.84
43100908,0.000404,0.001369,0.000425,-0.01,-0.26,9.86
43101917,0.001470,0.002435,-0.001706,-0.01,-0.23,9.87
43102947,0.001470,0.002435,-0.000640,0.02,-0.25,9.85
43103948,0.002535,0.003500,-0.000640,0.03,-0.25,9.83
43104946,0.003600,0.004565,-0.000640,0.04,-0.25,9.79
43105955,0.003600,0.003500,0.001490,0.04,-0.26,9.81
43106965,0.003600,0.001369,0.001490,0.01,-0.27,9.84
43107982,0.001470,0.000304,-0.000640,0.00,-0.27,9.83
43108985,0.001470,-0.000761,-0.002771,-0.01,-0.26,9.87
43109995,0.000404,0.000304,-0.001706,0.00,-0.27,9.84
43111005,0.000404,-0.000761,0.001490,0.01,-0.26,9.81
43112015,0.000404,-0.001826,0.002556,0.01,-0.25,9.81
43113045,-0.001726,0.000304,0.000425,0.01,-0.23,9.78
43114047,-0.002792,0.001369,-0.002771,-0.02,-0.22,9.82
43115045,-0.001726,0.001369,-0.001706,-0.06,-0.23,9.86
43116054,0.000404,0.001369,0.000425,-0.05,-0.25,9.82
43117064,0.000404,-0.001826,0.001490,-0.02,-0.24,9.79
43118078,0.001470,-0.003957,0.000425,-0.01,-0.24,9.78
43119084,0.001470,-0.003957,-0.000640,0.02,-0.25,9.77
43120094,0.001470,-0.002892,-0.000640,0.01,-0.27,9.80
43121104,0.001470,-0.000761,-0.000640,-0.02,-0.28,9.82
43122114,0.001470,-0.000761,-0.000640,-0.02,-0.24,9.79
43123145,0.001470,-0.001826,-0.000640,-0.02,-0.26,9.79
43124148,0.001470,-0.001826,0.001490,-0.04,-0.29,9.82
43125146,0.001470,-0.001826,0.000425,-0.04,-0.26,9.85
43126155,0.000404,-0.001826,0.000425,0.00,-0.26,9.87
43127165,0.001470,-0.000761,-0.000640,0.01,-0.27,9.83
43128182,0.001470,-0.000761,-0.000640,0.02,-0.28,9.80
43129185,0.001470,-0.001826,-0.000640,0.00,-0.27,9.80
43130195,0.000404,-0.001826,-0.001706,-0.01,-0.26,9.81
43131205,-0.001726,0.001369,0.000425,-0.01,-0.25,9.82
43132215,-0.001726,0.004565,0.002556,0.00,-0.23,9.84
43133245,0.000404,0.003500,0.001490,0.00,-0.24,9.87
43134247,0.001470,0.001369,-0.000640,0.00,-0.25,9.84
43135245,0.001470,0.000304,-0.000640,-0.01,-0.25,9.79
43136254,-0.001726,-0.000761,0.000425,-0.04,-0.25,9.78
43137264,-0.002792,-0.001826,0.000425,-0.02,-0.23,9.77
43138278,-0.001726,-0.000761,0.001490,-0.02,-0.24,9.82
43139284,-0.001726,0.000304,0.001490,-0.03,-0.26,9.83
43140294,-0.000661,0.000304,0.001490,-0.02,-0.24,9.79
43141304,0.001470,0.001369,0.000425,-0.06,-0.26,9.79
43142343,0.001470,0.001369,0.000425,-0.05,-0.24,9.81
43143345,-0.000661,0.001369,-0.002771,0.04,-0.23,9.82
43144348,-0.002792,0.000304,-0.003836,0.04,-0.23,9.82
43145346,-0.003857,0.000304,-0.002771,0.00,-0.21,9.85
43146355,-0.001726,-0.000761,-0.001706,-0.02,-0.23,9.86
43147365,0.000404,0.000304,-0.000640,0.00,-0.24,9.82
43148414,0.001464,0.001387,-0.000651,0.03,-0.21,9.78
43149385,0.001464,0.001387,-0.001717,0.01,-0.21,9.80
43150395,0.001464,0.000322,-0.001717,0.02,-0.23,9.82
43151405,0.001464,0.000322,-0.000651,0.00,-0.24,9.82
43152436,0.002529,0.000322,0.000414,0.00,-0.25,9.79
43153432,0.001464,0.000322,0.001479,-0.01,-0.25,9.80
43154433,0.000399,0.000322,0.000414,-0.01,-0.24,9.83
43155443,0.000399,0.002452,-0.001717,-0.01,-0.24,9.81
43156453,0.002529,0.003517,-0.001717,0.00,-0.25,9.81
43157463,0.003595,0.001387,0.000414,0.03,-0.25,9.84
43158477,0.000399,0.000322,0.001479,0.03,-0.25,9.88
43159483,0.000399,-0.000744,0.002545,0.00,-0.25,9.85
43160493,0.001464,-0.000744,0.002545,0.02,-0.24,9.82
43161503,0.002529,-0.000744,0.001479,0.01,-0.26,9.85
43162531,0.001464,-0.002874,0.000414,0.00,-0.26,9.85
43163534,0.001464,-0.003940,-0.000651,0.01,-0.25,9.83
43164535,0.001464,-0.000744,-0.001717,-0.02,-0.25,9.77
43165545,0.001464,0.001387,-0.000651,-0.03,-0.25,9.78
43166555,0.002529,0.001387,-0.000651,-0.01,-0.24,9.82
43167565,0.002529,0.001387,-0.001717,0.00,-0.26,9.80
43168583,0.000399,-0.002874,0.001479,-0.02,-0.26,9.77
43169585,-0.000667,-0.005005,0.002545,-0.03,-0.25,9.81
43170595,0.000399,-0.002874,0.001479,-0.03,-0.25,9.84
43171605,0.000399,-0.000744,-0.000651,-0.05,-0.23,9.81
43172630,-0.000667,0.000322,-0.001717,-0.02,-0.24,9.79
43173633,-0.000667,-0.000744,-0.000651,0.02,-0.23,9.78
43174633,-0.000667,-0.000744,-0.000651,0.03,-0.25,9.79
43175643,-0.000667,-0.000744,-0.001717,-0.01,-0.27,9.85
43176653,0.000399,0.000322,-0.001717,-0.05,-0.25,9.89
43177663,-0.001732,0.001387,-0.000651,-0.03,-0.25,9.84
43178681,-0.002797,0.000322,0.000414,-0.03,-0.26,9.78
43179683,-0.000667,-0.000744,0.000414,-0.01,-0.24,9.78
43180699,0.000399,-0.000744,-0.000651,0.02,-0.22,9.78
43181710,-0.001732,0.002452,-0.000651,0.01,-0.21,9.77
43182738,-0.002797,0.003517,0.000414,0.01,-0.25,9.76
43183742,-0.001732,0.001387,0.002545,0.01,-0.25,9.81
43184739,-0.000667,0.000322,0.003610,0.01,-0.24,9.85
43185751,-0.000667,-0.000744,0.002545,-0.05,-0.24,9.79
43186770,-0.001732,-0.002874,-0.000651,-0.04,-0.25,9.80
43187779,-0.001732,-0.005005,-0.001717,-0.01,-0.27,9.84
43188796,-0.001732,-0.003940,0.000414,-0.02,-0.26,9.79
43189796,0.000399,-0.000744,0.001479,-0.01,-0.25,9.82
43190801,0.001464,0.002452,0.000414,-0.01,-0.27,9.84
43191818,-0.000667,0.000322,0.000414,0.00,-0.26,9.78
43192842,-0.001732,-0.000744,0.001479,0.03,-0.23,9.81
43193839,-0.001732,-0.001809,0.000414,0.02,-0.24,9.82
43194845,-0.001732,-0.000744,-0.000651,0.00,-0.26,9.77
43195853,-0.000667,0.001387,0.000414,0.01,-0.24,9.81
43196859,0.001464,-0.000744,0.001479,-0.01,-0.23,9.85
43197866,0.001464,-0.001809,0.000414,-0.03,-0.23,9.77
43198879,0.001464,-0.000744,-0.001717,-0.02,-0.24,9.80
43199883,0.001464,-0.000744,-0.002782,-0.02,-0.26,9.83
43200896,0.001464,0.000322,-0.003847,-0.04,-0.24,9.78
43201907,0.000399,0.001387,-0.002782,-0.06,-0.24,9.81
43202935,-0.001732,-0.000744,-0.001717,-0.02,-0.26,9.85
43203936,-0.002797,-0.000744,0.000414,0.03,-0.28,9.83
43204935,-0.001732,-0.000744,0.000414,0.05,-0.25,9.82
43205945,0.000399,-0.000744,0.000414,0.05,-0.23,9.82
43206955,0.000399,-0.000744,0.000414,0.01,-0.24,9.80
43207965,0.001464,0.000322,0.002545,0.01,-0.25,9.79
43208983,0.000399,0.000322,0.002545,0.01,-0.25,9.78
43209985,-0.001732,0.000322,0.002545,-0.02,-0.24,9.79
43210995,-0.000667,0.000322,-0.000651,-0.02,-0.26,9.79
43212005,0.000399,0.001387,-0.000651,0.01,-0.27,9.82
43213030,-0.001732,0.001387,-0.000651,-0.02,-0.28,9.84
43214066,-0.002797,0.001387,-0.001717,-0.02,-0.29,9.82
43215059,-0.001732,0.000322,-0.000651,0.01,-0.25,9.81
43216043,-0.000667,0.001387,0.000414,-0.03,-0.23,9.80
43217053,-0.001732,0.002452,0.001479,-0.03,-0.24,9.78
43218063,-0.002797,0.004583,0.002545,-0.01,-0.23,9.78
43219077,-0.002797,0.005648,0.003610,-0.02,-0.23,9.76
43220083,0.000399,0.003517,0.001479,-0.03,-0.23,9.79
43221093,0.001464,0.000322,-0.000651,-0.02,-0.24,9.88
43222103,-0.002797,-0.001809,-0.000651,-0.01,-0.23,9.82
43223131,-0.004928,0.000322,-0.001717,-0.01,-0.23,9.82
43224134,-0.003862,0.001387,-0.002782,-0.02,-0.23,9.85
43225135,-0.001732,0.000322,-0.002782,-0.05,-0.23,9.83
43226145,-0.000667,-0.000744,-0.000651,-0.05,-0.24,9.86
43227155,0.000399,-0.000744,-0.000651,-0.03,-0.25,9.86
43228165,0.001464,-0.000744,0.000414,-0.01,-0.23,9.85
43229183,0.002529,-0.001809,0.001479,-0.01,-0.25,9.82
43230185,0.001464,-0.000744,0.001479,0.02,-0.26,9.80
43231195,0.000399,0.001387,-0.000651,0.03,-0.25,9.82
43232205,-0.000667,0.000322,-0.003847,0.02,-0.23,9.86
43233230,-0.000667,-0.001809,-0.003847,0.02,-0.23,9.88
43234233,0.001464,-0.003940,-0.003847,0.01,-0.25,9.84
43235233,0.002529,-0.001809,-0.004912,0.02,-0.27,9.80
43236243,0.001464,0.001387,-0.002782,0.03,-0.28,9.83
43237253,0.000399,0.002452,0.001479,0.01,-0.26,9.80
43238263,0.000399,0.002452,0.003610,0.01,-0.22,9.72
43239277,0.002529,0.001387,0.004675,0.01,-0.24,9.75
43240283,0.003595,-0.000744,0.002545,0.00,-0.26,9.81
43241293,0.001464,-0.000744,0.003610,0.00,-0.27,9.84
43242303,-0.001732,0.000322,0.004675,0.02,-0.26,9.89
43243330,-0.002797,0.000322,0.004675,0.00,-0.22,9.87
43244336,-0.001732,0.000322,0.001479,-0.02,-0.22,9.84
43245353,0.000399,-0.002874,-0.001717,0.00,-0.27,9.84
43246345,0.001464,-0.003940,-0.002782,0.02,-0.30,9.83
43247355,0.000399,-0.002874,-0.000651,0.00,-0.25,9.78
43248365,-0.000667,-0.000744,0.000414,-0.02,-0.25,9.77
43249382,-0.001732,0.000322,0.000414,-0.01,-0.28,9.79
43250385,-0.000667,0.001387,0.000414,0.02,-0.26,9.85
43251395,-0.000667,-0.000744,-0.000651,0.00,-0.23,9.87
43252421,-0.002797,-0.001809,-0.001717,0.00,-0.23,9.86
43253417,-0.003862,0.000322,-0.001717,0.03,-0.25,9.81
43254427,-0.003862,0.002452,-0.000651,0.02,-0.24,9.76
43255433,-0.003862,0.002452,-0.000651,0.02,-0.23,9.78
43256443,-0.002797,0.003517,-0.000651,0.02,-0.22,9.81
43257453,0.000399,0.001387,-0.000651,-0.01,-0.22,9.86
43258463,0.001464,0.002452,-0.001717,-0.02,-0.23,9.88
43259477,0.002529,0.001387,0.000414,0.00,-0.24,9.85
43260483,0.001464,-0.001809,0.001479,0.04,-0.25,9.81
43261493,0.000399,-0.005005,0.000414,0.04,-0.25,9.83
43262521,-0.000667,-0.002874,-0.001717,0.01,-0.25,9.84
43263520,-0.001732,0.000322,-0.001717,0.00,-0.24,9.86
43264530,0.001464,0.002452,-0.000651,0.00,-0.25,9.82
43265535,0.002529,0.003517,-0.000651,-0.01,-0.24,9.78
43266545,0.001464,0.001387,-0.000651,0.01,-0.21,9.83
43267555,-0.000667,0.000322,0.000414,0.03,-0.23,9.81
43268565,-0.002797,-0.000744,0.000414,-0.03,-0.24,9.80
43269583,0.000399,-0.001809,0.002545,0.02,-0.23,9.84
43270585,0.001464,0.002452,0.002545,-0.04,-0.24,9.87
43271595,0.002529,0.002452,0.002545,-0.04,-0.22,9.90
43272620,0.002529,0.002452,0.001479,-0.03,-0.23,9.89
43273617,0.001464,-0.000744,0.003610,-0.01,-0.23,9.84
43274628,-0.000667,-0.002874,0.004675,0.02,-0.22,9.78
43275633,-0.001732,-0.002874,0.002545,0.02,-0.23,9.81
43276643,-0.001732,-0.000744,0.000414,0.01,-0.24,9.84
43277683,-0.000653,-0.000743,0.000398,0.02,-0.24,9.76
43278663,-0.002784,0.000322,0.001463,0.04,-0.25,9.71
43279682,-0.004915,0.001387,0.001463,0.02,-0.27,9.77
43280684,-0.002784,-0.000743,0.000398,-0.01,-0.26,9.79
43281700,0.001477,-0.001809,-0.000667,-0.01,-0.24,9.81
43282730,0.003608,-0.001809,-0.001732,-0.01,-0.25,9.86
43283729,0.002542,-0.000743,-0.002798,0.03,-0.25,9.86
43284737,0.000412,-0.000743,-0.000667,0.06,-0.23,9.84
43285741,0.000412,-0.001809,0.000398,0.01,-0.25,9.82
43286755,0.000412,-0.002874,0.003594,-0.01,-0.25,9.83
43287768,0.000412,-0.001809,0.005725,-0.01,-0.23,9.78
43288775,0.000412,-0.000743,0.003594,-0.02,-0.24,9.75
43289790,-0.000653,-0.000743,0.000398,-0.01,-0.23,9.77
43290795,-0.000653,-0.000743,0.000398,-0.02,-0.19,9.79
43291807,-0.001719,-0.000743,0.001463,-0.02,-0.21,9.79
43292830,0.000412,0.000322,0.002529,0.00,-0.23,9.80
43293826,0.002542,0.001387,0.003594,0.00,-0.23,9.81
43294836,0.001477,0.000322,0.004659,0.02,-0.25,9.82
43295842,-0.000653,-0.000743,0.005725,-0.01,-0.23,9.82
43296848,-0.002784,-0.001809,0.002529,-0.03,-0.24,9.77
43297857,-0.002784,-0.000743,0.000398,0.00,-0.25,9.79
43298866,-0.001719,0.001387,0.002529,0.00,-0.22,9.84
43299879,-0.000653,0.001387,0.002529,-0.01,-0.24,9.86
43300883,-0.000653,0.000322,0.000398,-0.02,-0.25,9.84
43301896,-0.002784,0.000322,0.000398,-0.05,-0.27,9.80
43302925,-0.004915,0.000322,0.002529,-0.02,-0.26,9.77
43303923,-0.003849,0.001387,0.001463,0.01,-0.26,9.77
43304932,-0.000653,0.000322,-0.000667,0.00,-0.29,9.78
43305935,0.001477,0.000322,-0.002798,-0.01,-0.22,9.78
43306953,0.002542,-0.000743,-0.001732,0.02,-0.21,9.81
43307955,0.003608,-0.002874,0.000398,0.03,-0.24,9.84
43308965,0.002542,-0.001809,0.001463,0.02,-0.25,9.81
43309983,0.001477,-0.000743,0.002529,-0.02,-0.26,9.82
43310985,0.000412,-0.003939,0.002529,-0.02,-0.25,9.77
43311995,0.001477,-0.003939,0.001463,-0.01,-0.26,9.73
43313020,0.001477,-0.000743,0.000398,-0.02,-0.27,9.75
43314017,0.002542,0.001387,0.000398,-0.01,-0.25,9.79
43315028,0.003608,0.001387,0.000398,0.04,-0.24,9.84
43316033,0.002542,0.001387,0.001463,0.03,-0.26,9.85
43317043,0.000412,0.002452,0.001463,0.03,-0.26,9.81
43318053,-0.000653,0.000322,0.002529,0.02,-0.24,9.75
43319063,0.000412,-0.001809,0.003594,0.00,-0.25,9.79
43320077,0.001477,-0.001809,0.003594,0.00,-0.24,9.85
43321083,0.000412,0.000322,0.001463,0.02,-0.22,9.83
43322093,0.001477,0.000322,-0.000667,0.04,-0.22,9.81
43323120,0.002542,-0.000743,0.000398,0.01,-0.22,9.77
43324120,0.000412,-0.002874,0.000398,0.00,-0.23,9.79
43325131,0.001477,-0.002874,-0.001732,0.02,-0.25,9.83
43326135,0.001477,-0.000743,-0.002798,0.00,-0.24,9.84
43327145,-0.000653,0.001387,-0.002798,0.00,-0.23,9.81
43328155,0.000412,0.003518,-0.002798,-0.01,-0.24,9.81
43329165,0.003608,0.002452,-0.000667,0.02,-0.22,9.80
43330182,0.002542,-0.000743,0.001463,0.04,-0.22,9.77
43331185,0.000412,-0.002874,0.002529,0.02,-0.21,9.79
43332195,0.001477,-0.003939,0.000398,-0.01,-0.23,9.79
43333221,0.001477,-0.001809,-0.001732,0.01,-0.25,9.77
43334217,0.001477,0.002452,-0.002798,0.00,-0.24,9.78
43335227,0.000412,0.004583,-0.003863,-0.01,-0.23,9.78
43336233,0.001477,0.004583,-0.003863,0.04,-0.22,9.83
43337243,0.002542,0.002452,-0.002798,0.04,-0.25,9.88
43338253,0.001477,0.001387,-0.001732,0.03,-0.26,9.84
43339263,0.001477,0.001387,-0.000667,0.01,-0.24,9.83
43340277,0.001477,0.001387,-0.001732,0.00,-0.23,9.84
43341283,-0.001719,0.001387,-0.000667,-0.02,-0.25,9.87
43342293,-0.002784,0.000322,0.000398,-0.01,-0.25,9.90
43343321,-0.000653,-0.001809,0.001463,0.02,-0.26,9.83
43344320,0.001477,-0.003939,0.001463,0.00,-0.26,9.79
43345330,0.001477,-0.005004,0.000398,-0.01,-0.22,9.82
43346335,0.000412,-0.003939,0.000398,0.00,-0.23,9.82
43347367,-0.000653,-0.001809,0.001463,0.00,-0.24,9.85
43348355,-0.000653,0.001387,0.001463,0.01,-0.22,9.87
43349365,0.000412,0.000322,0.000398,-0.01,-0.22,9.83
43350383,0.000412,-0.002874,0.000398,-0.01,-0.25,9.81
43351385,-0.000653,-0.001809,0.001463,-0.01,-0.24,9.79
43352395,-0.001719,0.001387,0.001463,-0.04,-0.23,9.79
43353420,0.000412,0.002452,0.000398,-0.04,-0.24,9.85
43354417,0.003608,-0.000743,0.000398,-0.04,-0.24,9.86
43355428,0.005738,-0.002874,-0.000667,-0.03,-0.26,9.82
43356433,0.004673,-0.001809,-0.000667,-0.03,-0.24,9.82
43357443,0.002542,0.000322,-0.000667,-0.01,-0.22,9.80
43358453,-0.000653,0.001387,0.001463,0.01,-0.22,9.74
43359463,-0.001719,0.001387,0.000398,-0.04,-0.23,9.78
43360477,-0.000653,0.001387,-0.000667,-0.02,-0.24,9.82
43361483,0.001477,0.001387,-0.000667,0.01,-0.24,9.79
43362510,0.001477,0.000322,0.000398,0.00,-0.24,9.82
43363510,0.000412,0.000322,-0.000667,0.01,-0.23,9.83
43364515,0.000412,0.001387,0.000398,-0.01,-0.21,9.85
43365531,0.003608,0.001387,0.001463,-0.02,-0.21,9.84
43366535,0.003608,0.001387,0.000398,0.02,-0.23,9.82
43367545,0.001477,0.001387,-0.001732,0.00,-0.23,9.80
43368555,0.000412,0.000322,-0.001732,-0.02,-0.22,9.80
43369565,0.000412,0.000322,0.000398,-0.01,-0.22,9.82
43370582,-0.000653,-0.000743,0.001463,0.02,-0.23,9.80
43371585,0.000412,-0.002874,0.001463,-0.02,-0.23,9.82
43372611,0.001477,-0.001809,0.001463,0.02,-0.24,9.79
43373607,0.002542,-0.001809,0.001463,0.02,-0.24,9.77
43374613,0.002542,-0.002874,0.000398,-0.02,-0.25,9.78
43375627,-0.000653,-0.001809,0.001463,0.00,-0.24,9.82
43376633,-0.002784,0.000322,0.001463,0.00,-0.24,9.78
43377643,-0.001719,0.001387,0.001463,-0.03,-0.23,9.78
43378653,-0.002784,0.002452,0.001463,-0.04,-0.26,9.80
43379663,-0.003849,0.002452,0.001463,0.00,-0.27,9.78
43380683,-0.004915,0.001387,0.001463,0.04,-0.26,9.79
43381683,-0.003849,-0.000743,0.002529,0.03,-0.23,9.83
43382721,-0.002784,-0.001809,0.003594,0.01,-0.20,9.84
43383713,-0.001719,-0.002874,0.001463,0.02,-0.23,9.86
43384722,-0.002784,-0.002874,-0.000667,0.01,-0.25,9.83
43385737,-0.001719,-0.001809,-0.000667,-0.01,-0.24,9.78
43386746,-0.001719,0.001387,0.000398,0.01,-0.24,9.77
43387752,-0.000653,0.003518,0.001463,0.00,-0.26,9.79
43388770,0.000412,0.005648,0.002529,-0.03,-0.24,9.81
43389786,0.000412,0.003518,0.001463,-0.02,-0.25,9.80
43390797,0.000412,0.001387,-0.001732,-0.02,-0.25,9.75
43391797,-0.001719,0.000322,-0.003863,-0.02,-0.25,9.77
43392822,-0.001719,-0.001809,-0.003863,0.02,-0.26,9.77
43393819,0.000412,-0.001809,-0.001732,0.02,-0.25,9.77
43394822,0.001477,-0.000743,-0.000667,-0.01,-0.23,9.82
43395837,0.002542,0.002452,-0.000667,-0.01,-0.23,9.80
43396847,0.000412,0.003518,-0.000667,-0.02,-0.23,9.76
43397850,-0.000653,0.003518,0.000398,-0.03,-0.20,9.81
43398859,-0.001719,0.001387,0.001463,-0.02,-0.19,9.84
43399866,-0.002784,-0.000743,0.001463,0.03,-0.21,9.82
43400879,-0.002784,-0.001809,0.000398,0.03,-0.25,9.82
43401883,-0.001719,-0.002874,-0.000667,-0.05,-0.26,9.79
43402913,0.001477,-0.001809,-0.000667,-0.05,-0.27,9.82
43403913,0.003608,-0.000743,-0.001732,0.01,-0.28,9.85
43404919,0.003608,-0.001809,-0.000667,-0.01,-0.25,9.83
43405933,0.002542,-0.002874,-0.000667,-0.04,-0.25,9.81
43406964,0.001445,-0.000722,-0.000720,-0.02,-0.25,9.84
43407945,-0.000686,-0.001787,-0.001785,-0.01,-0.26,9.86
43408955,-0.000686,-0.000722,-0.002851,0.00,-0.29,9.86
43409965,-0.001751,0.000343,-0.001785,0.00,-0.25,9.83
43410982,-0.002817,-0.000722,-0.000720,0.02,-0.24,9.77
43411985,-0.002817,-0.000722,-0.000720,0.04,-0.26,9.74
43413011,-0.002817,0.000343,0.001411,0.02,-0.28,9.79
43414007,-0.001751,0.001409,0.002476,0.02,-0.27,9.79
43415013,-0.000686,-0.000722,0.002476,0.03,-0.24,9.81
43416027,0.001445,-0.000722,0.001411,0.00,-0.24,9.83
43417033,0.003575,-0.002853,0.000345,0.03,-0.22,9.84
43418043,0.003575,-0.003918,-0.000720,0.06,-0.23,9.88
43419053,0.000379,-0.002853,-0.000720,0.03,-0.25,9.87
43420063,-0.001751,-0.001787,-0.000720,0.00,-0.24,9.83
43421077,-0.001751,0.000343,0.002476,-0.02,-0.22,9.83
43422083,0.000379,0.000343,0.001411,-0.03,-0.23,9.81
43423111,0.002510,0.000343,0.000345,-0.05,-0.22,9.79
43424110,0.002510,0.000343,-0.000720,-0.06,-0.23,9.83
43425115,0.001445,0.001409,-0.001785,-0.04,-0.25,9.83
43426130,0.000379,0.001409,-0.003916,0.00,-0.25,9.82
43427135,-0.000686,0.002474,-0.002851,0.02,-0.25,9.82
43428145,-0.001751,0.000343,-0.000720,0.01,-0.24,9.80
43429155,-0.000686,-0.002853,0.001411,-0.01,-0.25,9.82
43430165,0.000379,-0.001787,0.003541,-0.02,-0.27,9.83
43431183,0.001445,0.001409,0.002476,0.00,-0.25,9.80
43432185,0.003575,0.003539,0.000345,0.00,-0.23,9.76
43433210,0.004640,0.000343,-0.001785,-0.03,-0.23,9.78
43434207,0.002510,-0.001787,-0.003916,-0.03,-0.21,9.82
43435213,-0.000686,-0.001787,-0.002851,-0.01,-0.23,9.84
43436228,-0.001751,0.000343,-0.000720,-0.02,-0.27,9.82
43437233,0.000379,-0.000722,-0.000720,-0.02,-0.26,9.81
43438243,0.001445,-0.001787,-0.000720,0.02,-0.24,9.82
43439253,0.001445,-0.002853,0.000345,0.01,-0.27,9.87
43440263,0.000379,-0.001787,0.001411,-0.02,-0.27,9.90
43441277,-0.000686,0.000343,-0.000720,-0.04,-0.23,9.86
43442283,0.000379,0.001409,-0.001785,0.00,-0.23,9.81
43443596,0.001445,0.001409,-0.000720,0.03,-0.24,9.81
43444295,0.000379,0.001409,0.002476,0.00,-0.26,9.82
43445295,-0.004947,-0.002853,0.000345,0.00,-0.32,9.85
43446313,-0.006012,-0.018832,-0.011373,-0.01,-0.40,9.86
43447315,0.000379,-0.020962,-0.016699,-0.01,-0.34,9.71
43448325,-0.000686,-0.004983,-0.016699,0.04,-0.38,9.72
43449335,-0.003882,0.005670,-0.017765,0.11,-0.18,9.80
43450345,-0.001751,0.004604,-0.019895,0.01,-0.05,9.86
43451362,0.002510,0.002474,-0.016699,-0.17,0.11,10.00
43452365,0.003575,-0.001787,-0.009242,-0.39,-0.15,9.90
43453432,0.007836,-0.002853,-0.006046,-0.31,-0.76,9.77
43454385,0.014228,0.001409,-0.008177,0.17,-0.77,9.64
43455391,0.007836,0.006735,-0.019895,0.60,-0.20,9.68
43456409,-0.010274,0.012061,-0.020960,0.48,0.62,9.88
43457411,-0.012404,0.008866,0.001411,-0.63,0.08,9.96
43458421,0.017424,-0.010310,0.021651,-0.80,-1.16,9.88
43459431,0.033403,-0.024158,0.009933,0.62,-0.44,9.61
43460441,-0.007078,0.005670,-0.001785,1.21,1.13,9.67
43461458,-0.045428,0.042955,0.017390,-0.78,-0.86,10.14
43462461,-0.000686,0.006735,0.026977,-1.02,-1.89,10.05
43463496,0.056839,-0.050790,0.003541,1.40,2.21,9.58
43464487,-0.018796,-0.003918,0.004606,0.44,0.24,10.10
43465495,-0.066733,0.041889,0.020586,-1.49,-4.06,9.63
43466513,0.057904,-0.018832,0.001411,0.34,3.10,9.55
43467515,0.047252,-0.019897,0.006737,0.85,0.24,10.95
43468525,-0.098692,0.024845,0.013129,-1.55,-4.22,8.64
43469535,0.009967,-0.028419,-0.011373,0.25,4.00,8.46
43470545,0.051513,-0.019897,-0.001785,1.20,-2.59,12.49
43471562,-0.059276,0.009931,-0.009242,-0.93,-0.29,8.67
43472582,-0.001751,-0.004983,0.007802,0.36,-1.37,11.52
43473575,0.013163,-0.038007,-0.006046,0.32,1.38,7.57
43474581,-0.011339,0.039759,0.001411,-0.97,-1.33,11.85
43475591,-0.041167,0.002474,-0.018830,1.04,-0.08,8.26
43476609,0.049382,-0.008179,-0.007112,-0.81,-0.11,10.26
43477611,0.003575,-0.008179,-0.015634,0.40,0.01,9.39
43478621,-0.004947,0.009931,-0.002851,0.02,-0.72,10.17
43479631,-0.024122,0.025910,-0.017765,-0.53,-0.66,10.50
43480641,0.020620,-0.026289,-0.015634,0.47,0.59,9.67
43481658,-0.018796,-0.006048,-0.023091,-0.42,-1.52,10.72
43482693,-0.014535,-0.006048,-0.020960,0.45,0.58,8.71
43483683,-0.034775,0.005670,-0.017765,-0.30,-1.59,11.48
43484691,0.011032,0.016322,-0.020960,0.45,0.10,6.97
43485699,0.002510,0.021649,-0.014569,-1.02,0.66,11.39
43486723,-0.001751,0.020584,-0.025221,0.38,-2.42,8.31
43487721,0.001445,-0.008179,-0.017765,-0.68,3.34,10.93
43488733,0.019554,0.007800,-0.023091,0.39,-2.84,10.50
43489747,0.030207,0.012061,-0.019895,0.98,0.86,7.60
43490752,0.000379,-0.001787,-0.016699,-0.38,1.15,12.98
43491771,-0.003882,-0.004983,-0.016699,0.77,-4.11,6.33
43492792,0.017424,0.001409,-0.012438,-0.22,3.66,10.89
43493786,0.001445,0.012061,-0.008177,-0.01,-0.72,13.13
43494791,-0.013469,0.001409,-0.007112,0.87,-3.19,6.42
43495796,-0.002817,-0.004983,-0.006046,-0.80,3.83,11.34
43496818,0.012097,0.000343,-0.007112,0.05,-1.53,11.80
43497821,-0.018796,0.004604,-0.009242,0.75,-3.26,6.79
43498828,-0.047558,-0.009244,-0.007112,-0.53,3.33,10.94
43499836,-0.020926,-0.009244,-0.003916,-0.39,-0.34,11.61
43500845,0.029142,0.002474,0.001411,0.43,-4.06,6.33
43501860,0.007836,-0.009244,0.006737,0.07,2.04,9.42
43502890,-0.020926,-0.015636,0.008868,-1.20,2.56,12.48
43503881,0.006771,0.010996,0.010998,0.05,-4.22,7.17
43504889,0.018489,0.022714,0.013129,1.14,-1.50,6.73
43505898,0.001445,0.006735,0.013129,-0.90,4.38,12.85
43506915,-0.010274,-0.002853,0.013129,-0.46,-0.14,12.96
43507915,-0.001751,-0.010310,0.008868,0.90,-4.38,8.04
43508925,0.018489,-0.020962,0.004606,0.57,0.25,8.12
43509935,0.004640,-0.006048,0.008868,-0.53,4.73,12.03
43510945,-0.016665,0.014192,0.012063,-0.23,-2.00,10.79
43511962,0.000379,0.005670,0.009933,0.59,-5.09,7.34
43512982,0.016358,-0.018832,0.003541,0.35,1.39,8.11
43513975,0.015293,-0.017766,0.003541,-0.82,5.15,12.65
43514981,0.002510,-0.013505,-0.004981,-0.57,-0.63,12.74
43515991,-0.003882,-0.014571,-0.009242,0.80,-6.07,8.31
43517009,-0.007078,-0.017766,-0.008177,0.46,-0.75,6.34
43518011,0.009967,-0.016701,-0.008177,-0.96,5.02,10.82
43519021,0.004640,-0.020962,0.001411,-1.24,3.78,13.06
43520031,-0.003882,-0.013505,0.013129,0.13,-5.21,9.97
43521041,0.016358,-0.002853,0.010998,0.63,-4.56,7.40
43522058,0.001445,-0.015636,0.003541,1.05,1.52,6.65
43523086,0.000379,-0.020962,0.001411,-0.90,4.34,12.01
43524077,0.002510,-0.004983,0.009933,-1.54,3.50,14.52
43525085,0.013163,-0.003918,0.018455,0.48,-5.87,10.01
43526095,0.005706,-0.004983,0.022716,0.44,-4.77,6.34
43527113,-0.010274,-0.002853,0.022716,0.81,1.02,5.89
43528115,-0.028383,-0.019897,0.020586,0.52,3.46,11.22
43529125,-0.006012,-0.028419,0.020586,-2.05,5.18,15.47
43530135,0.006771,-0.018832,0.025912,-0.45,-2.17,10.71
43531145,-0.009208,-0.015636,0.033369,0.47,-6.98,5.38
43532162,0.009967,0.015257,0.035500,-0.19,-2.34,5.71
43533182,0.001445,0.003539,0.031238,2.14,1.45,7.24
43534175,0.018489,0.000343,0.025912,-0.17,3.65,14.11
43535181,0.038729,0.008866,0.021651,-1.78,5.36,16.23
43536191,0.014228,-0.004983,0.022716,0.09,-1.11,10.87
43537209,-0.003882,-0.006048,0.025912,-0.31,-7.33,7.48
43538211,0.002510,-0.006048,0.026977,0.66,-3.95,5.55
43539221,-0.008143,-0.001787,0.024847,1.70,-0.35,6.36
43540231,0.012097,0.003539,0.020586,0.54,1.77,10.12
43541241,0.019554,-0.002853,0.009933,-0.06,4.77,14.92
43542258,-0.002817,-0.006048,0.010998,-0.90,3.64,15.08
43543286,-0.002817,0.006735,0.017390,-0.90,-1.36,10.55
43544277,0.000379,0.006735,0.017390,0.16,-5.19,6.98
43545301,0.006771,0.007800,0.015259,-0.30,-4.91,5.67
43546295,0.013163,0.014192,0.016324,0.35,-1.24,5.26
43547313,-0.000686,0.025910,0.013129,1.64,0.46,7.83
43548315,-0.027318,0.009931,-0.000720,1.40,1.41,11.54
43549325,-0.009208,-0.018832,-0.012438,-0.31,3.86,15.12
43550335,0.017424,0.004604,-0.002851,-1.48,3.82,14.68
43551345,-0.015600,0.018453,-0.001785,-1.19,0.69,10.82
43552362,0.004640,-0.015636,-0.017765,-0.99,-3.15,8.61
43553382,0.031272,-0.031615,-0.020960,-0.74,-4.16,6.92
43554375,0.006771,0.018453,-0.007112,0.22,-3.15,6.53
43555381,-0.051819,0.069587,0.008868,0.93,-1.19,6.80
43556391,-0.090170,0.091957,0.017390,0.70,-0.44,7.41
43557409,-0.092300,0.080239,0.015259,1.35,0.32,9.63
43558411,-0.055015,0.056803,0.004606,0.78,2.74,14.18
43559421,-0.015600,0.018453,-0.010308,-0.34,3.48,15.73
43560431,0.013163,-0.025223,-0.017765,-1.10,2.37,13.24
43561441,0.018489,-0.003918,-0.011373,-1.39,1.39,9.73
43562458,0.003575,0.033367,0.000345,-0.78,-1.69,8.47
43563486,-0.000686,0.034432,0.001411,-0.70,-3.22,9.71
43564477,-0.031579,0.006735,0.004606,0.00,-2.13,7.77
43565485,-0.030514,-0.013505,-0.000720,0.74,-3.29,6.87
43566495,-0.017731,0.003539,0.001411,0.51,-1.31,6.04
43567513,0.021685,0.030171,0.000345,0.47,-1.08,7.11
43568515,0.001445,0.015257,-0.014569,2.08,-0.48,7.58
43569525,-0.013469,0.006735,-0.024156,1.02,0.71,10.20
43570535,-0.009208,0.025910,-0.022026,0.07,1.25,13.28
43571545,-0.017731,-0.017766,-0.014569,0.63,2.78,14.95
43572575,-0.009208,-0.018832,-0.007112,-0.65,2.12,14.42
43573565,0.024881,0.029106,-0.002851,-0.99,1.84,12.19
43574571,0.000379,0.055738,-0.003916,-0.85,1.24,10.75
43575581,-0.032644,0.017388,-0.019895,-0.80,-1.47,8.07
43576591,-0.002817,-0.006048,-0.025221,-0.79,-1.37,6.68
43577609,0.039795,-0.030550,-0.030548,-1.00,-3.59,8.22
43578611,-0.002817,-0.038007,-0.031613,0.28,-1.28,6.59
43579621,-0.025187,0.012061,-0.023091,-0.04,-2.92,8.61
43580631,-0.017731,0.046150,-0.018830,0.28,-1.67,8.71
43581641,0.027011,-0.000722,-0.020960,0.59,-0.97,8.13
43582685,0.021685,-0.023093,-0.020960,1.12,-1.21,8.44
43583669,-0.010274,-0.016701,-0.020960,0.49,0.35,8.91
43584678,-0.013469,0.018453,-0.024156,0.55,-0.58,10.21
43585692,-0.003882,0.013127,-0.028417,0.88,1.78,11.49
43586700,0.007836,0.007800,-0.031613,0.09,0.97,13.06
43587718,-0.017731,-0.008179,-0.029483,0.38,1.21,11.84
43588722,0.004640,-0.001787,-0.029483,-0.73,1.63,12.42
43589733,0.011032,0.008866,-0.030548,-0.32,1.10,12.54
43590745,-0.013469,0.021649,-0.031613,-1.02,1.58,12.11
43591760,-0.020926,0.012061,-0.039070,-1.35,0.25,11.36
43592790,-0.010274,-0.008179,-0.040135,-0.78,0.46,10.24
43593778,-0.014535,-0.012440,-0.043331,-1.11,-0.07,9.15
43594778,0.007836,-0.019897,-0.045462,-0.29,-1.34,8.57
43595790,0.011032,0.010996,-0.046527,-1.14,-0.52,8.04
43596798,-0.024122,0.025910,-0.045462,-0.27,-2.78,7.64
43597817,-0.040101,0.018453,-0.049723,-0.29,-1.27,7.72
43598822,-0.001751,-0.019897,-0.051853,0.32,-2.56,7.69
43599831,0.036599,-0.010310,-0.050788,0.08,-1.39,8.23
43600838,0.024881,0.009931,-0.043331,0.13,-1.36,8.46
43601845,-0.023057,0.019518,-0.042266,0.94,-1.79,8.58
43602878,-0.031579,0.006735,-0.047592,0.39,-0.58,8.52
43603867,-0.015600,-0.018832,-0.055049,1.07,-1.43,8.36
43604878,0.022750,-0.017766,-0.055049,0.60,0.11,9.08
43605889,0.019554,-0.030550,-0.052919,1.24,-0.83,9.08
43606898,0.028077,-0.022028,-0.046527,0.91,0.53,10.11
43607915,0.015293,-0.016701,-0.035874,0.77,0.17,10.62
43608915,0.022750,0.005670,-0.028417,0.75,0.98,11.35
43609925,0.009967,0.014192,-0.016699,0.43,1.25,12.13
43610935,0.006771,0.036563,-0.015634,0.28,1.12,12.37
43611945,-0.027318,0.021649,-0.019895,-0.19,1.81,12.43
43612975,-0.024122,0.013127,-0.031613,-0.24,1.17,12.72
43613965,-0.025187,-0.004983,-0.034809,-0.60,1.95,11.90
43614971,0.006771,-0.013505,-0.041201,-1.01,1.16,12.37
43615981,0.015293,-0.023093,-0.034809,-0.90,1.34,9.99
43616991,0.020620,-0.000722,-0.024156,-1.33,0.82,10.31
43618009,-0.013469,0.019518,-0.009242,-1.00,-0.02,10.66
43619011,-0.029449,-0.002853,-0.015634,-1.06,0.20,9.32
43620021,-0.002817,-0.019897,-0.018830,-0.25,-2.29,7.16
43621031,0.012097,0.006735,-0.017765,-0.79,-0.58,6.67
43622041,0.008902,0.012061,-0.014569,-0.72,-2.33,8.22
43623078,0.002510,-0.019897,-0.016699,0.11,-1.90,7.76
43624067,0.007836,-0.009244,-0.011373,0.43,-2.80,8.59
43625075,0.023815,0.025910,-0.012438,0.86,-1.53,8.74
43626085,0.025946,0.033367,-0.009242,0.24,-1.27,8.50
43627095,-0.020926,0.009931,-0.013503,1.10,-2.25,7.54
43628113,-0.015600,-0.010310,-0.018830,0.98,0.06,7.98
43629115,-0.000686,0.006735,-0.020960,1.45,-1.44,8.64
43630125,0.019554,0.003539,-0.030548,1.28,0.79,10.18
43631135,-0.000686,-0.009244,-0.030548,0.77,0.27,11.56
43632145,-0.014535,0.007800,-0.029483,0.91,0.97,12.28
43633175,-0.008143,-0.010310,-0.032678,0.23,1.83,13.10
43634165,0.021685,-0.007114,-0.025221,0.11,1.08,13.40
43635171,-0.015600,0.008866,-0.013503,-0.41,2.26,11.91
43636181,-0.010274,0.035498,-0.018830,-1.11,1.20,12.00
43637191,0.000379,0.015257,-0.017765,-0.67,1.29,10.87
43638209,-0.025187,-0.020962,-0.017765,-0.91,0.59,10.90
43639211,-0.043297,-0.017766,-0.015634,-0.90,0.06,8.09
43640221,-0.003882,0.007800,-0.025221,-1.49,0.54,8.28
43641231,0.020620,-0.009244,-0.029483,-1.12,-1.28,10.23
43642241,-0.004947,-0.035876,-0.022026,-0.90,-0.33,9.02
43643278,-0.018796,-0.022028,-0.011373,0.19,-2.92,7.73
43644276,0.011032,0.008866,-0.015634,-0.35,-1.00,7.74
43645275,0.034468,0.009931,-0.011373,-0.24,-2.45,7.34
43646282,0.014228,0.007800,-0.003916,0.31,-2.07,7.86
43647292,-0.000686,0.015257,0.000345,0.10,-1.37,9.01
43648311,0.004640,-0.003918,-0.008177,1.07,-2.05,8.61
43649312,0.038729,-0.032680,-0.015634,0.51,-0.40,8.57
43650322,0.038729,-0.031615,-0.013503,1.35,-1.69,8.44
43651332,0.030207,0.016322,-0.004981,0.77,0.23,11.29
43652342,-0.003882,-0.002853,-0.004981,1.11,-0.07,10.22
43653383,0.002510,-0.039072,-0.011373,0.97,0.55,9.64
43654410,0.029142,-0.016701,-0.010308,0.32,0.61,10.75
43655373,0.030207,0.045085,-0.006046,0.26,1.92,12.12
43656381,-0.001751,0.026975,-0.007112,0.03,1.56,12.87
43657391,-0.002817,-0.027354,-0.012438,0.26,0.44,12.51
43658409,0.014228,-0.013505,-0.008177,-0.99,2.74,12.07
43659411,0.016358,0.030171,-0.010308,-0.95,1.32,12.58
43660421,-0.011339,0.010996,-0.013503,-0.56,0.77,10.25
43661431,0.004640,-0.008179,-0.018830,-1.30,0.50,10.38
43662441,0.008902,-0.001787,-0.010308,-0.61,-0.19,9.57
43663485,-0.024122,0.005670,-0.012438,-1.10,0.02,9.43
43664476,-0.036906,-0.010310,-0.019895,-0.12,-2.57,8.11
43665475,0.000379,-0.002853,-0.023091,-0.69,-0.51,7.66
43666482,0.015293,0.016322,-0.009242,-0.70,-2.31,8.08
43667492,-0.001751,-0.011375,-0.009242,-0.02,-1.49,7.28
43668511,0.002510,-0.035876,-0.017765,0.32,-2.42,8.25
43669512,0.020620,-0.003918,-0.018830,0.71,-1.52,8.60
43670522,0.017424,0.036563,-0.007112,-0.03,-1.15,8.29
43671532,0.008902,0.008866,-0.007112,0.97,-2.22,7.99
43672542,0.032338,-0.015636,-0.004981,0.95,-0.47,9.98
43673583,0.007836,-0.007114,0.001411,1.25,-1.31,9.02
43674576,-0.028383,0.018453,-0.000720,0.62,0.57,9.03
43675573,-0.027318,0.010996,-0.006046,0.95,-0.42,9.66
43676581,-0.014535,0.004604,0.004606,0.43,1.22,12.42
43677591,-0.018796,-0.013505,-0.004981,0.46,1.01,12.70
43678609,0.009967,-0.023093,-0.012438,-0.66,2.64,13.05
43679611,0.028077,0.017388,-0.008177,-0.65,1.57,13.09
43680621,0.003575,0.015257,-0.003916,-0.56,1.65,10.82
43681631,0.014228,-0.002853,-0.010308,-1.23,0.97,11.07
43682674,0.007836,0.002474,-0.001785,-0.78,1.01,9.39
43683670,-0.014535,0.023779,-0.002851,-1.37,0.41,9.95
43684680,-0.011339,0.003539,-0.007112,-0.53,-1.41,8.51
43685678,0.020620,-0.004983,-0.010308,-1.11,-0.06,8.09
43686691,0.014228,0.007800,-0.001785,-0.72,-2.46,8.83
43687697,0.001445,-0.010310,-0.009242,-0.11,-1.29,8.03
43688720,0.016358,-0.018832,-0.010308,0.27,-3.42,8.55
43689721,0.011032,0.013127,-0.010308,0.19,-1.37,8.24
43690727,0.009967,0.024845,-0.011373,-0.21,-1.66,7.85
43691742,-0.004947,-0.013505,-0.012438,0.98,-2.48,7.08
43692781,-0.009208,-0.013505,-0.007112,0.44,-0.38,8.41
43693773,0.005706,0.010996,-0.009242,1.35,-1.56,8.38
43694786,0.032338,0.017388,-0.007112,1.07,0.28,10.18
43695783,-0.012404,0.003539,-0.002851,1.11,-0.80,10.30
43696791,-0.017731,-0.006048,-0.009242,1.13,0.91,10.90
43697796,-0.003882,-0.016701,-0.013503,0.69,0.78,11.44
43698817,-0.007078,-0.000722,-0.010308,0.63,1.09,12.29
43699821,-0.021992,-0.000722,-0.011373,-0.21,2.02,12.65
43700828,0.006771,0.017388,-0.012438,-0.29,1.32,12.82
43701836,-0.012404,0.017388,-0.003916,-0.63,2.19,11.55
43702877,-0.013469,-0.015636,-0.013503,-1.06,1.00,11.84
43703865,-0.001751,-0.028419,-0.008177,-0.98,1.46,9.52
43704877,0.007836,0.010996,-0.006046,-1.73,0.76,9.98
43705879,0.012097,0.008866,-0.004981,-0.96,-0.68,10.50
43706887,-0.001751,-0.017766,-0.004981,-1.06,0.24,8.92
43707896,-0.012404,-0.010310,-0.000720,-0.08,-3.07,6.91
43708911,0.013163,0.016322,-0.007112,-0.57,-0.83,7.18
43709912,0.014228,0.029106,-0.001785,-0.31,-2.93,7.64
43710922,-0.030514,0.019518,-0.000720,0.21,-1.89,8.03
43711932,-0.025187,-0.001787,-0.003916,0.19,-2.00,9.25
43712972,0.003575,-0.018832,-0.007112,1.01,-2.08,8.52
43713975,0.015293,-0.006048,-0.001785,0.32,-0.77,8.83
43714963,-0.025187,0.002474,-0.004981,1.24,-1.87,8.29
43715971,-0.009208,0.005670,-0.013503,0.71,0.20,10.35
43716981,-0.009208,-0.016701,-0.012438,1.24,-0.88,9.25
43717991,-0.015600,-0.010310,-0.004981,0.98,0.75,9.42
43719042,-0.024122,0.009931,0.000345,0.71,0.01,10.11
43720012,0.018489,0.022714,-0.001785,0.58,1.50,11.76
43721021,0.008902,-0.000722,0.005672,0.13,1.66,12.94
43722031,-0.021992,-0.016701,0.006737,0.32,0.54,12.84
43723075,-0.021992,-0.003918,0.003541,-0.86,2.74,12.39
43724072,0.028077,0.010996,-0.010308,-0.76,1.57,12.57
43725065,0.030207,-0.006048,-0.007112,-0.65,1.30,10.48
43726072,0.006771,0.000343,0.000345,-1.30,0.75,10.94
43727082,-0.027318,0.012061,0.005672,-0.66,0.56,9.11
43728092,-0.012404,0.003539,-0.004981,-1.28,0.28,9.45
43729109,0.008902,-0.015636,-0.008177,-0.42,-1.62,8.34
43730112,0.006771,0.006735,-0.006046,-0.92,-0.10,8.18
43731122,-0.017731,0.034432,0.004606,-0.72,-2.44,9.02
43732132,-0.040101,-0.000722,-0.004981,-0.07,-1.19,7.96
43733174,-0.004947,-0.045464,-0.016699,0.29,-3.22,8.65
43734172,0.030207,-0.019897,-0.016699,0.24,-1.29,8.33
43735163,0.020620,0.030171,-0.004981,-0.15,-1.47,7.85
43736171,-0.015600,0.010996,-0.007112,0.79,-2.55,7.31
43737181,-0.004947,-0.018832,-0.008177,0.55,-0.66,8.53
43738191,0.013163,-0.002853,-0.003916,1.28,-1.73,8.49
43739208,0.009967,0.034432,-0.002851,0.89,0.14,9.63
43740211,-0.008143,0.009931,-0.011373,1.19,-1.00,9.60
43741221,0.017424,-0.003918,-0.010308,1.10,0.78,11.11
43742231,-0.014535,-0.001787,-0.001785,0.83,0.69,11.62
43743274,-0.015600,-0.011375,-0.010308,0.67,0.87,12.22
43744272,0.012097,-0.022028,-0.014569,-0.26,1.90,12.68
43745265,0.030207,0.018453,-0.011373,-0.30,1.59,12.53
43746272,-0.008143,0.013127,-0.008177,-0.56,1.92,11.35
43747282,-0.009208,-0.020962,-0.012438,-0.81,0.92,11.99
43748292,-0.001751,-0.014571,-0.004981,-1.07,1.94,10.27
43749309,0.003575,0.032302,-0.008177,-1.55,0.95,10.88
43750312,0.000379,0.018453,-0.012438,-0.76,-0.15,9.91
43751322,0.012097,-0.012440,-0.014569,-1.31,0.47,9.36
43752332,0.002510,-0.010310,-0.001785,-0.26,-2.27,7.72
43753374,-0.008143,0.004604,-0.006046,-0.75,-0.75,7.96
43754372,0.003575,-0.006048,-0.012438,-0.13,-3.05,8.19
43755363,0.018489,-0.008179,-0.013503,-0.01,-1.27,7.84
43756371,0.000379,0.019518,-0.002851,-0.24,-2.39,8.00
43757392,-0.037971,0.005670,-0.007112,0.69,-2.13,7.61
43758391,-0.014535,-0.019897,-0.013503,0.18,-1.29,9.12
43759408,0.013163,-0.013505,-0.010308,1.10,-1.77,8.83
43760411,0.014228,0.025910,-0.001785,0.64,-0.28,9.88
43761421,-0.029449,0.010996,-0.004981,1.11,-1.45,8.70
43762431,-0.016665,-0.022028,-0.014569,0.88,0.60,8.82
43763474,0.007836,-0.030550,-0.014569,1.12,-0.84,9.29
43764472,0.025946,0.010996,-0.004981,1.05,0.73,11.08
43765465,-0.008143,0.018453,0.000345,0.45,1.03,11.93
43766472,0.011032,0.009931,-0.006046,0.36,1.11,12.35
43767482,0.016358,-0.011375,-0.007112,-0.02,1.92,12.49
43768492,0.006771,-0.000722,-0.006046,-0.16,0.93,13.17
43769509,-0.020926,0.008866,-0.001785,-0.97,2.57,12.00
43770512,0.011032,0.007800,-0.009242,-1.24,1.48,12.25
43771522,0.021685,-0.012440,-0.006046,-0.83,0.93,10.55
43772532,-0.003882,-0.016701,-0.002851,-1.26,0.85,9.88
43773574,-0.025187,-0.004983,0.000345,-0.71,-0.49,7.28
43774572,0.013163,0.009931,-0.008177,-1.46,0.09,8.14
43775563,0.041925,0.006735,-0.002851,-0.60,-2.14,8.74
43776571,0.019554,0.015257,-0.001785,-0.54,-0.69,8.46
43777581,-0.023057,0.024845,-0.001785,0.11,-3.09,8.58
43778591,0.016358,-0.001787,-0.007112,0.16,-2.54,8.70
43779608,0.001445,-0.002853,-0.008177,0.92,-1.99,8.18
43780611,0.009967,-0.000722,-0.010308,0.10,-1.04,8.88
43781621,0.007836,-0.024158,-0.011373,1.19,-2.01,7.62
43782666,-0.004947,-0.011375,-0.006046,0.54,0.27,8.26
43783646,-0.014535,0.009931,-0.003916,1.28,-1.63,8.37
43784674,0.014228,0.029106,-0.001785,1.08,0.76,11.39
43785670,-0.023057,0.016322,0.000345,0.77,0.61,12.04
43786674,-0.034775,-0.010310,-0.006046,0.95,0.87,11.31
43787691,-0.020926,-0.001787,-0.002851,-0.02,1.46,11.78
43788697,0.006771,0.028041,-0.002851,0.06,1.58,12.56
43789720,0.012097,0.003539,-0.004981,-0.45,2.12,11.99
43790723,0.005706,0.003539,-0.007112,-0.80,0.86,12.69
43791733,-0.010274,-0.002853,-0.009242,-0.87,1.88,10.94
43792774,0.012097,0.002474,-0.011373,-1.55,0.87,11.21
43793755,-0.013469,0.003539,-0.006046,-0.67,0.03,8.84
43794785,-0.019861,0.005670,-0.011373,-1.44,0.32,8.94
43795774,-0.010274,0.002474,-0.002851,-0.64,-2.18,8.76
43796778,-0.019861,-0.008179,-0.009242,-0.63,-0.54,8.24
43797790,-0.008143,-0.025223,-0.013503,-0.02,-3.43,8.15
43798798,0.015293,-0.006048,-0.011373,0.01,-1.31,7.79
43799816,0.012097,0.019518,-0.007112,-0.21,-2.33,7.55
43800822,0.001445,-0.008179,-0.011373,0.73,-2.26,7.42
43801831,0.004640,-0.013505,-0.003916,0.30,-1.03,9.11
43802872,-0.010274,0.009931,-0.001785,1.21,-1.93,8.49
43803849,0.011032,0.017388,-0.006046,0.78,0.03,9.27
43804864,0.006771,-0.001787,-0.007112,1.31,-1.43,9.03
43805865,-0.006012,0.005670,-0.009242,1.06,0.67,10.37
43806898,-0.015600,-0.015636,-0.013503,1.00,0.00,10.71
43807889,0.021685,-0.013505,-0.011373,0.90,0.96,11.79
43808898,-0.002817,0.003539,-0.000720,0.18,1.49,12.32
43809914,-0.003882,0.020584,-0.004981,0.02,1.26,12.65
43810915,0.006771,-0.002853,-0.003916,-0.47,2.24,12.09
43811925,0.011032,-0.000722,-0.001785,-0.63,1.05,12.63
43812953,-0.016665,0.002474,0.002476,-0.98,2.19,10.93
43813943,0.004640,0.006735,-0.002851,-1.50,1.14,11.39
43814958,0.007836,0.006735,0.007802,-0.80,0.44,9.78
43815961,-0.008143,0.007800,0.000345,-1.35,0.67,9.49
43816971,-0.009208,-0.012440,-0.008177,-0.47,-1.75,8.00
43817981,0.018489,-0.014571,-0.011373,-0.94,-0.42,8.26
43818991,0.009967,0.008866,0.001411,-0.23,-3.01,8.14
43820008,-0.001751,0.017388,-0.000720,-0.19,-1.17,7.77
43821011,0.012097,0.008866,-0.000720,-0.21,-2.77,8.32
43822021,-0.004947,-0.001787,-0.000720,0.58,-2.04,8.01
43823057,-0.023057,0.000343,-0.002851,0.19,-1.64,8.87
43824046,-0.010274,-0.006048,-0.011373,1.11,-1.88,8.35
43825062,0.016358,0.002474,-0.007112,0.54,-0.43,9.47
43826065,-0.019861,-0.002853,-0.002851,1.16,-1.72,8.38
43827075,-0.019861,-0.013505,-0.008177,0.87,0.55,8.90
43828085,0.003575,-0.020962,-0.010308,1.21,-0.98,9.24
43829095,0.021685,0.012061,-0.003916,1.15,0.73,10.90
43830112,-0.011339,0.014192,-0.003916,0.49,0.91,11.89
43831115,0.005706,0.006735,-0.010308,0.49,1.09,12.46
43832125,-0.001751,0.001409,-0.002851,-0.09,2.01,12.64
43833153,-0.013469,0.005670,-0.004981,-0.28,1.03,13.29
43834143,-0.009208,-0.015636,-0.008177,-0.89,2.43,11.79
43835158,0.023815,-0.003918,-0.010308,-1.25,1.34,12.11
43836161,-0.008143,0.005670,-0.006046,-0.86,1.17,9.97
43837171,-0.020926,-0.006048,-0.012438,-1.48,0.74,9.92
43838181,-0.007078,-0.023093,-0.009242,-0.67,-0.72,8.19
43839191,0.009967,0.003539,-0.006046,-1.34,0.20,8.56
43840208,-0.008143,0.016322,-0.003916,-0.50,-2.42,8.40
43841211,-0.006012,-0.004983,-0.009242,-0.50,-0.79,8.19
43842221,0.004640,-0.006048,-0.000720,-0.15,-3.13,8.24
43843257,-0.010274,0.005670,-0.002851,0.18,-1.53,8.00
43844246,-0.008143,-0.000722,-0.012438,0.10,-2.20,8.61
43845262,0.003575,-0.018832,-0.016699,0.87,-2.10,8.21
43846265,-0.003882,0.000343,-0.010308,0.25,-0.82,9.01
43847275,-0.033710,-0.001787,-0.011373,1.23,-1.95,8.06
43848285,-0.006012,-0.006048,-0.009242,0.75,0.18,8.95
43849295,-0.002817,-0.000722,-0.002851,1.36,-1.43,8.77
43850312,-0.007078,0.020584,-0.003916,1.09,0.60,10.48
43851315,-0.013469,-0.001787,-0.009242,0.78,0.32,11.07
43852332,0.018489,-0.006048,-0.006046,0.82,0.97,11.94
43853353,-0.000686,0.002474,0.004606,0.14,1.53,12.41
43854343,0.005706,0.005670,-0.002851,-0.04,1.25,12.85
43855358,0.013163,-0.013505,-0.006046,-0.57,2.33,12.04
43856361,0.008902,0.001409,-0.004981,-0.77,1.13,12.58
43857371,-0.029449,0.001409,-0.004981,-0.96,1.94,10.76
43858381,-0.004947,-0.000722,-0.009242,-1.51,1.04,11.09
43859391,0.007836,0.007800,0.004606,-0.81,0.30,9.26
43860408,-0.003882,0.020584,0.000345,-1.42,0.56,9.23
43861411,-0.007078,0.001409,-0.004981,-0.51,-1.95,8.13
43862421,0.016358,-0.010310,-0.006046,-0.86,-0.41,8.26
43863457,0.005706,-0.000722,0.001411,-0.19,-3.04,7.96
43864446,-0.001751,-0.001787,-0.007112,-0.02,-1.30,7.76
43865462,0.014228,0.001409,-0.002851,-0.09,-2.79,8.22
43866465,-0.006012,0.005670,-0.001785,0.60,-2.05,7.98
43867475,-0.024122,0.004604,-0.008177,0.25,-1.46,8.99
43868485,-0.016665,-0.012440,-0.013503,1.24,-2.01,8.34
43869495,0.001445,0.009931,-0.004981,0.65,-0.25,9.24
43870512,-0.026253,0.012061,-0.003916,1.25,-1.66,8.50
43871515,0.002510,-0.002853,-0.007112,0.90,0.62,9.54
43872525,0.016358,-0.015636,-0.003916,1.14,-0.61,9.68
43873553,0.015293,0.002474,-0.007112,1.03,0.84,11.19
43874543,-0.000686,-0.017766,-0.012438,0.39,1.14,12.01
43875558,0.017424,-0.004983,-0.010308,0.30,1.15,12.82
43876561,-0.018796,0.008866,-0.001785,-0.32,2.30,12.58
43877571,-0.010274,0.005670,-0.008177,-0.52,1.23,13.03
43878581,0.001445,-0.009244,-0.004981,-0.92,2.28,11.30
43879591,-0.013469,0.001409,-0.006046,-0.85,1.00,9.79
43880608,0.015293,-0.009244,-0.009242,-1.49,0.75,9.73
43881611,0.011032,0.000343,0.001411,-0.70,-1.24,8.14
43882647,0.005706,0.005670,-0.006046,-1.20,-0.03,8.20
43883636,0.017424,-0.000722,-0.003916,-0.41,-2.76,8.11
43884645,0.005706,0.005670,-0.003916,-0.25,-1.03,8.07
43885665,-0.018796,0.007800,-0.008177,-0.04,-3.14,8.34
43886670,-0.010274,-0.004983,-0.010308,0.37,-1.74,8.00
43887679,0.006771,0.009931,0.002476,0.10,-1.81,8.56
43888693,-0.011339,0.009931,0.001411,1.09,-2.22,7.98
43889699,0.012097,-0.003918,-0.001785,0.45,-0.58,9.12
43890723,0.017424,-0.011375,-0.002851,1.30,-1.84,8.27
43891721,0.005706,0.003539,-0.008177,1.02,0.43,9.46
43892750,-0.004947,-0.013505,-0.013503,1.33,-1.00,9.45
43893743,0.009967,0.004604,-0.007112,1.06,0.72,10.75
43894750,-0.024122,0.012061,-0.002851,0.59,0.65,11.42
43895770,-0.002817,0.005670,-0.006046,0.60,1.12,12.42
43896772,0.005706,-0.003918,0.000345,-0.11,2.03,12.54
43897781,0.004640,0.009931,-0.004981,-0.32,1.15,13.07
43898791,-0.002817,-0.013505,-0.011373,-0.80,2.36,11.75
43899796,0.017424,-0.010310,-0.011373,-1.19,1.22,12.11
43900817,-0.012404,0.000343,-0.004981,-0.87,1.43,10.01
43901821,0.000379,0.002474,-0.009242,-1.51,0.87,10.24
43902854,0.012097,0.004604,0.002476,-0.78,-0.66,8.79
43903841,-0.003882,0.015257,0.000345,-1.33,0.23,8.71
43904849,-0.011339,0.000343,-0.003916,-0.38,-2.66,7.89
43905864,0.002510,-0.004983,-0.008177,-0.49,-0.90,7.89
43906865,-0.007078,0.006735,-0.008177,-0.19,-3.15,8.04
43907878,-0.003882,-0.006048,-0.013503,0.28,-1.64,7.94
43908889,0.016358,-0.002853,-0.002851,0.12,-2.18,8.76
43909898,-0.000686,0.003539,-0.000720,1.01,-2.13,8.09
43910914,0.006771,0.000343,-0.002851,0.39,-0.73,9.06
43911915,0.005706,-0.009244,-0.003916,1.28,-1.88,8.27
43912943,-0.004947,0.006735,-0.006046,0.88,0.30,9.40
43913933,-0.017731,-0.004983,-0.008177,1.35,-1.28,9.17
43914941,0.008902,0.005670,-0.002851,1.07,0.78,10.52
43915958,-0.012404,0.007800,0.000345,0.69,0.51,11.16
43916961,0.013163,0.000343,-0.007112,0.67,1.11,12.26
43917971,0.015293,-0.009244,-0.001785,-0.04,1.91,12.57
43918981,0.004640,0.002474,-0.006046,-0.25,1.24,13.11
43919991,-0.003882,-0.016701,-0.008177,-0.78,2.52,11.88
43921008,0.002510,-0.001787,-0.006046,-1.07,1.27,12.27
43922011,-0.023057,0.004604,-0.003916,-0.95,1.58,10.21
43923047,-0.001751,0.002474,-0.004981,-1.63,0.84,10.38
43924036,0.000379,0.007800,0.008868,-0.88,-0.39,8.71
43925045,0.000379,0.006735,-0.001785,-1.34,0.41,8.70
43926062,0.013163,-0.006048,-0.003916,-0.34,-2.60,8.09
43927065,0.005706,-0.002853,-0.008177,-0.55,-0.80,8.13
43928075,-0.006012,-0.004983,-0.013503,-0.18,-3.21,8.05
43929085,0.004640,-0.013505,-0.015634,0.28,-1.53,7.89
43930095,-0.004947,0.007800,-0.007112,0.11,-2.25,8.52
43931112,-0.019861,0.006735,-0.007112,0.95,-2.21,7.94
43932115,0.005706,0.010996,0.002476,0.36,-0.83,9.03
43933143,-0.006012,0.013127,0.003541,1.30,-2.00,8.33
43934133,0.009967,0.004604,-0.000720,0.90,0.28,9.52
43935141,0.008902,-0.010310,-0.000720,1.36,-1.28,9.22
43936158,0.000379,-0.000722,-0.006046,1.07,0.80,10.44
43937161,-0.004947,-0.016701,-0.010308,0.72,0.42,10.95
43938171,0.009967,0.006735,-0.004981,0.72,1.17,12.16
43939181,-0.021992,0.007800,-0.001785,-0.05,1.93,12.63
43940191,-0.000686,0.002474,-0.003916,-0.27,1.14,13.20
43941208,-0.003882,0.003539,0.007802,-0.87,2.65,12.02
43942211,0.003575,0.005670,-0.000720,-1.16,1.35,12.34
43943247,0.012097,-0.012440,-0.001785,-0.89,1.51,10.27
43944236,0.007836,-0.003918,-0.009242,-1.63,0.89,10.37
43945245,-0.003882,-0.012440,-0.013503,-0.84,-0.44,8.50
43946262,0.014228,-0.003918,-0.012438,-1.37,0.32,8.63
43947265,-0.002817,0.009931,-0.003916,-0.41,-2.62,8.15
43948275,-0.004947,0.005670,-0.006046,-0.51,-0.89,8.13
43949285,0.000379,0.009931,0.005672,-0.14,-3.33,8.09
43950295,-0.009208,0.008866,-0.000720,0.26,-1.59,7.94
43951312,0.008902,-0.001787,-0.000720,0.11,-2.24,8.40
43952315,0.001445,-0.004983,-0.002851,1.06,-2.32,7.93
43953343,-0.004947,-0.000722,-0.007112,0.38,-0.71,9.03
43954333,-0.001751,-0.013505,-0.006046,1.31,-1.96,8.20
43955341,0.002510,0.006735,-0.003916,0.93,0.30,9.52
43956358,-0.010274,-0.004983,-0.007112,1.35,-1.15,9.33
43957361,0.008902,0.006735,-0.002851,1.04,0.83,10.67
43958371,-0.015600,0.010996,0.000345,0.58,0.57,11.33
43959381,0.008902,0.008866,-0.002851,0.60,1.25,12.36
43960391,0.001445,0.006735,0.005672,-0.13,2.11,12.56
43961432,0.003575,0.003539,-0.003916,-0.36,1.19,13.12
43962411,0.005706,-0.015636,-0.003916,-0.93,2.61,11.82
43963447,-0.000686,-0.002853,-0.006046,-1.31,1.30,12.07
43964436,-0.006012,-0.010310,-0.008177,-0.93,1.37,9.98
43965445,0.005706,0.003539,-0.006046,-1.61,0.84,10.08
43966462,-0.012404,0.007800,-0.004981,-0.79,-0.91,8.64
43967465,-0.000686,0.003539,-0.009242,-1.29,0.20,8.61
43968475,-0.008143,0.005670,0.000345,-0.31,-2.88,7.95
43969485,-0.007078,0.002474,-0.006046,-0.32,-1.13,7.92
43970495,0.011032,-0.002853,0.001411,-0.07,-3.27,8.07
43971512,0.004640,-0.004983,-0.002851,0.46,-1.80,7.98
43972515,0.009967,-0.006048,-0.003916,0.15,-1.88,8.64
43973543,0.002510,-0.001787,-0.003916,1.10,-2.25,8.00
43974533,-0.006012,0.012061,-0.004981,0.49,-0.50,8.97
43975541,-0.004947,-0.000722,-0.004981,1.43,-1.89,8.30
43976558,-0.001751,0.013127,-0.004981,1.06,0.57,9.66
43977561,-0.012404,-0.003918,-0.009242,1.26,-0.81,9.78
43978571,0.007836,-0.001787,-0.010308,1.07,0.85,11.15
43979581,-0.013469,-0.007114,-0.007112,0.42,0.96,11.81
43980591,0.014228,-0.006048,-0.004981,0.37,1.26,12.72
43981608,0.006771,0.005670,-0.001785,-0.63,1.18,13.08
43982637,0.003575,0.001409,0.003541,-1.02,2.38,11.35
43983626,-0.004947,0.014192,-0.003916,-1.52,1.26,11.61
43984635,-0.002817,-0.003918,-0.003916,-0.92,0.88,9.62
43985645,-0.000686,-0.001787,-0.004981,-1.54,0.65,9.56
43986665,-0.010274,-0.011375,-0.007112,-0.66,-1.62,8.28
43987671,0.006771,-0.012440,-0.008177,-1.09,-0.11,8.24
43988680,-0.000686,-0.008179,-0.004981,-0.24,-3.05,7.83
43989692,0.001445,-0.010310,-0.008177,-0.06,-1.34,7.88
43990701,-0.000686,0.002474,0.001411,0.03,-3.09,8.25
43991720,-0.012404,0.007800,-0.001785,0.63,-1.93,8.01
43992741,0.004640,0.009931,0.004606,0.23,-1.33,8.70
43993729,-0.008143,0.009931,0.005672,1.29,-2.17,8.00
43994743,0.001445,0.003539,0.001411,0.66,-0.10,9.09
43995750,-0.001751,-0.008179,-0.002851,1.38,-1.75,8.54
43996772,-0.001751,-0.002853,-0.009242,1.12,0.72,9.86
43997773,0.002510,-0.015636,-0.008177,1.05,-0.14,10.32
43998779,0.003575,0.006735,-0.004981,0.93,1.03,11.63
43999791,-0.006012,-0.006048,-0.006046,0.13,1.47,12.37
44000797,0.006771,0.007800,-0.004981,0.01,1.33,13.15
44001818,-0.011339,-0.000722,-0.003916,-0.57,2.70,12.41
44002852,0.011032,0.001409,-0.004981,-0.97,1.23,12.78
44003834,-0.010274,0.000343,0.001411,-1.01,1.97,10.71
44004841,0.005706,-0.003918,-0.006046,-1.60,1.00,10.90
44005849,0.004640,-0.001787,0.001411,-0.86,0.13,9.12
44006864,0.006771,0.002474,-0.007112,-1.48,0.53,8.99
44007865,0.006771,0.000343,0.000345,-0.51,-2.44,8.07
44008878,-0.003882,0.004604,-0.004981,-0.73,-0.67,8.08
44009889,-0.001751,0.005670,-0.000720,-0.14,-3.33,7.88
44010898,-0.003882,0.009931,-0.002851,0.24,-1.58,7.94
44011914,-0.001751,0.005670,-0.006046,0.14,-2.47,8.33
44012933,0.003575,-0.011375,-0.009242,0.97,-2.24,7.95
44013923,0.004640,-0.003918,-0.010308,0.32,-0.84,8.86
44014931,0.006771,-0.015636,-0.011373,1.36,-2.01,8.22
44015941,0.011032,-0.000722,-0.008177,0.91,0.29,9.45
44016958,-0.003882,-0.010310,-0.007112,1.36,-1.31,9.13
44017961,0.005706,0.004604,-0.004981,1.10,0.86,10.65
44018971,-0.016665,0.001409,-0.002851,0.66,0.58,11.35
44019981,0.006771,0.003539,-0.000720,0.59,1.24,12.47
44020991,-0.013469,0.002474,0.003541,-0.14,2.18,12.73
44022008,0.008902,-0.000722,-0.003916,-0.37,1.20,13.29
44023037,0.002510,0.000343,0.003541,-0.90,2.62,11.76
44024026,0.008902,0.004604,-0.003916,-1.35,1.29,12.05
44025035,0.004640,-0.002853,0.001411,-0.92,1.28,9.84
44026045,-0.004947,0.006735,-0.002851,-1.63,0.77,9.92
44027062,-0.003882,0.004604,0.000345,-0.72,-1.16,8.30
44028065,-0.003882,0.010996,-0.002851,-1.26,0.06,8.32
44029075,-0.004947,0.000343,-0.006046,-0.35,-2.98,7.96
44030085,0.001445,-0.008179,-0.009242,-0.18,-1.20,8.04
44031095,-0.000686,-0.004983,-0.012438,0.00,-3.29,8.31
44032112,0.003575,-0.009244,-0.011373,0.55,-1.85,7.96
44033133,0.003575,0.002474,-0.008177,0.18,-1.60,8.46
44034123,-0.000686,-0.004983,-0.008177,1.31,-2.21,7.92
44035131,0.002510,0.007800,-0.001785,0.64,-0.23,8.98
44036141,-0.017731,0.006735,-0.000720,1.39,-1.90,8.39
44037158,0.001445,0.007800,0.000345,1.08,0.67,9.85
44038161,-0.015600,0.002474,0.001411,1.15,-0.38,10.16
44039171,0.008902,0.003539,-0.000720,0.96,1.02,11.68
44040181,-0.006012,0.001409,0.004606,0.18,1.40,12.40
44041191,0.007836,0.000343,0.001411,0.06,1.26,13.13
44042208,0.002510,-0.001787,0.005672,-0.61,2.74,12.43
44043237,0.004640,0.007800,-0.000720,-0.91,1.33,12.82
44044226,0.000379,0.004604,0.006737,-0.98,2.06,10.63
44045235,-0.006012,0.008866,0.002476,-1.67,1.04,10.90
44046245,-0.004947,-0.004983,0.001411,-0.90,0.19,9.02
44047262,-0.003882,-0.001787,-0.007112,-1.48,0.50,9.03
44048265,-0.000686,-0.012440,-0.011373,-0.42,-2.51,7.96
44049275,0.006771,-0.012440,-0.012438,-0.66,-0.69,8.03
44050285,0.005706,-0.010310,-0.014569,-0.18,-3.34,8.01
44051295,0.008902,-0.011375,-0.012438,0.23,-1.53,8.00
44052312,0.003575,0.002474,-0.009242,0.13,-2.46,8.34
44053333,0.001445,-0.002853,-0.007112,1.08,-2.31,7.87
44054323,0.007836,0.006735,-0.003916,0.33,-0.81,8.79
44055331,0.000379,-0.009244,-0.004981,1.34,-1.98,8.07
44056341,0.009967,-0.007114,-0.004981,0.96,0.42,9.40
44057367,-0.012404,-0.012440,-0.007112,1.45,-1.29,9.17
44058361,0.007836,-0.000722,-0.007112,1.15,0.87,10.86
44059371,-0.014535,0.003539,-0.003916,0.57,0.77,11.52
44060381,0.005706,0.008866,-0.004981,0.52,1.23,12.65
44061391,-0.013469,0.010996,0.004606,-0.22,2.33,12.78
44062408,-0.000686,0.010996,0.001411,-0.45,1.28,13.29
