time_us,gyro_x_rad_s,gyro_y_rad_s,gyro_z_rad_s,acc_x_m_s2,acc_y_m_s2,acc_z_m_s2
2867351682,-0.002671,0.002165,0.001593,0.04,-0.31,9.81
2867352855,-0.000467,0.001869,0.000456,0.04,-0.28,9.80
2867353389,0.000598,-0.000262,0.000455,0.05,-0.27,9.81
2867355019,-0.000467,-0.000262,0.000455,0.06,-0.32,9.86
2867356057,0.000597,-0.000261,-0.000609,0.02,-0.33,9.91
2867357068,0.000597,0.002932,-0.002737,0.01,-0.33,9.91
2867358120,0.000596,0.005057,-0.002734,0.04,-0.32,9.83
2867359122,0.001660,0.001859,-0.002732,0.01,-0.31,9.81
2867360097,0.000594,-0.001335,-0.000600,0.01,-0.33,9.83
2867361108,-0.001535,-0.001334,0.001529,0.02,-0.30,9.80
2867362117,-0.000470,0.000796,0.000463,0.04,-0.30,9.85
2867363135,0.000595,0.002923,-0.000602,0.01,-0.29,9.86
2867364137,0.000595,0.001856,0.000463,0.01,-0.26,9.82
2867365148,-0.001534,0.000790,0.000463,0.04,-0.27,9.81
2867366157,-0.003661,-0.000275,-0.001666,0.03,-0.29,9.87
2867367168,-0.002593,-0.002403,-0.001665,0.04,-0.32,9.88
2867368182,-0.000462,-0.003465,0.000466,0.03,-0.31,9.82
2867369189,0.002731,-0.003461,0.002593,0.04,-0.31,9.81
2867370197,0.001664,-0.002393,0.000462,0.06,-0.34,9.85
2867371208,0.000598,-0.000263,-0.000602,0.02,-0.33,9.86
2867372217,0.000597,0.001866,0.000463,0.01,-0.31,9.82
2867373235,-0.000468,0.001864,0.001526,0.03,-0.31,9.80
2867374237,-0.002596,0.001862,0.003653,0.02,-0.30,9.77
2867375248,-0.001529,0.000796,0.004714,0.03,-0.29,9.75
2867376257,0.000601,-0.000269,0.003645,0.06,-0.31,9.79
2867377268,-0.001528,-0.001333,0.000448,0.06,-0.32,9.84
2867378282,-0.001526,-0.001331,-0.000616,0.05,-0.31,9.82
2867379289,-0.001525,-0.002394,0.000449,-0.01,-0.28,9.81
2867380297,-0.002587,-0.003456,0.000448,0.02,-0.29,9.80
2867381308,0.000608,-0.002388,0.000448,0.04,-0.31,9.81
2867382317,0.002736,0.000807,0.000447,0.01,-0.30,9.81
2867383335,0.001669,0.002934,0.000447,0.02,-0.30,9.80
2867384337,0.000603,0.002931,-0.000618,0.04,-0.31,9.83
2867385348,0.000602,0.001864,-0.000617,0.03,-0.29,9.82
2867386357,-0.000463,-0.001330,0.000448,0.05,-0.29,9.80
2867387368,-0.000462,-0.001329,0.000447,0.03,-0.31,9.79
2867388382,-0.001526,-0.000263,0.000447,0.01,-0.31,9.75
2867389389,-0.000460,0.000801,-0.000618,0.05,-0.29,9.76
2867390397,0.002733,0.001864,-0.001682,0.05,-0.26,9.78
2867391408,0.003794,0.001862,-0.001680,0.00,-0.26,9.81
2867392417,0.003791,0.000796,-0.000614,-0.02,-0.27,9.85
2867393428,0.002723,-0.002397,0.000451,0.03,-0.26,9.86
2867394437,0.001656,-0.003459,-0.000614,0.05,-0.25,9.83
2867395448,-0.001539,-0.002391,-0.000613,0.03,-0.27,9.81
2867396457,-0.003666,-0.001324,-0.000613,0.01,-0.31,9.81
2867397468,-0.002598,-0.000259,0.001516,0.01,-0.31,9.79
2867398482,-0.001531,0.002934,0.001515,0.02,-0.30,9.81
2867399489,0.000599,0.001867,0.001513,0.03,-0.31,9.78
2867400497,0.000599,-0.001328,0.001512,0.03,-0.29,9.77
2867401508,0.000598,-0.001326,-0.000618,0.01,-0.31,9.82
2867402517,0.000597,-0.001325,-0.001682,0.02,-0.33,9.82
2867403528,0.000597,-0.002388,-0.000616,0.03,-0.31,9.84
2867404537,0.000596,-0.001321,0.000449,0.01,-0.29,9.86
2867405548,0.001660,0.000808,0.001513,0.00,-0.29,9.82
2867406557,0.002722,0.000808,0.002576,0.00,-0.31,9.79
2867407568,0.003784,-0.001322,0.002573,0.00,-0.29,9.78
2867408582,0.002716,-0.003449,0.001506,0.03,-0.28,9.78
2867409589,0.001649,-0.002381,-0.000624,0.04,-0.27,9.82
2867410598,0.001647,-0.000250,-0.001687,0.04,-0.28,9.83
2867411609,0.000581,0.004007,0.000443,0.04,-0.31,9.82
2867412622,-0.000484,0.004003,0.000442,0.03,-0.32,9.79
2867413632,0.000581,0.000806,0.000442,0.04,-0.29,9.79
2867414656,0.002709,0.000805,-0.000623,0.01,-0.30,9.83
2867415677,0.001642,0.001869,0.000442,0.02,-0.30,9.86
2867416660,-0.001552,0.001867,0.000442,0.03,-0.32,9.84
2867417674,-0.003679,0.001865,-0.000623,0.00,-0.33,9.84
2867418691,-0.002611,0.001863,-0.002751,-0.01,-0.30,9.81
2867419698,0.001648,-0.000267,-0.003812,0.01,-0.32,9.74
2867420705,0.003775,-0.001331,-0.002744,0.03,-0.31,9.79
2867421716,0.003771,-0.001330,-0.000613,0.01,-0.30,9.88
2867422729,0.003767,-0.002393,0.000452,-0.01,-0.28,9.85
2867423750,0.002699,-0.002390,-0.000613,0.01,-0.28,9.81
2867424747,0.001632,-0.002388,-0.000612,0.05,-0.29,9.77
2867425757,-0.000498,-0.000257,-0.000612,0.06,-0.29,9.80
2867426766,-0.000497,0.001872,-0.000611,0.05,-0.29,9.82
2867427779,-0.000497,0.000806,0.000454,0.05,-0.30,9.80
2867428788,-0.001560,-0.001324,0.000453,0.04,-0.31,9.83
2867429843,-0.001559,-0.001322,-0.000611,0.04,-0.31,9.79
2867430806,-0.000493,-0.000257,-0.000611,0.04,-0.33,9.78
2867431809,-0.000493,0.000808,-0.000610,0.05,-0.32,9.78
2867432821,-0.001556,0.001871,-0.001674,0.02,-0.33,9.76
2867433833,-0.000491,-0.000259,-0.000608,0.02,-0.35,9.81
2867434840,0.000574,-0.001323,-0.001671,0.05,-0.31,9.82
2867435869,0.002702,-0.001322,-0.000606,0.01,-0.27,9.80
2867436904,0.001635,-0.000256,-0.001669,0.01,-0.31,9.81
2867437903,0.000569,-0.001320,-0.001667,0.06,-0.33,9.84
2867438897,-0.000496,-0.003447,-0.000601,0.03,-0.28,9.88
2867439902,-0.002624,-0.003444,-0.000601,-0.02,-0.27,9.85
2867440899,-0.000493,-0.001312,-0.000600,-0.01,-0.28,9.83
2867441911,0.001636,0.000818,0.001529,0.02,-0.29,9.84
2867442959,0.000571,-0.000247,0.001527,0.02,-0.32,9.78
2867443933,-0.002623,-0.003439,0.000461,0.02,-0.32,9.77
2867444946,-0.004749,-0.003436,-0.001667,0.08,-0.32,9.79
2867445957,-0.003680,-0.002368,-0.003794,0.06,-0.29,9.82
2867446998,-0.001547,-0.001302,-0.002726,0.01,-0.29,9.84
2867448018,0.000583,-0.000236,-0.000595,0.02,-0.31,9.78
2867448993,0.000582,-0.000236,0.001534,0.00,-0.28,9.81
2867450025,-0.001547,-0.001300,0.002597,0.02,-0.25,9.86
2867451037,-0.002610,-0.000234,0.000466,0.05,-0.28,9.83
2867452047,-0.000479,0.004023,0.000465,0.05,-0.29,9.82
2867453017,0.000586,0.005083,0.000465,0.07,-0.28,9.81
2867454028,-0.001543,0.004014,0.000464,0.07,-0.28,9.81
2867455071,-0.001541,-0.001312,0.000464,0.05,-0.28,9.79
2867456048,-0.001540,-0.004503,0.001528,0.04,-0.29,9.81
2867457057,0.001654,-0.002370,0.000462,0.04,-0.30,9.83
2867458073,0.003781,-0.000239,-0.000603,0.03,-0.30,9.85
2867459104,0.001649,0.000825,-0.001666,0.03,-0.29,9.86
2867460129,0.000583,-0.001304,0.000464,0.05,-0.30,9.86
2867461097,0.000582,-0.002367,-0.000601,0.02,-0.31,9.80
2867462119,0.000582,-0.001300,-0.001665,0.00,-0.30,9.78
2867463159,-0.000483,-0.002363,-0.002727,0.01,-0.30,9.87
2867464167,0.000582,-0.003425,-0.001660,0.00,-0.30,9.88
2867465167,0.000581,-0.001293,-0.001659,-0.02,-0.28,9.87
2867466148,0.000581,-0.001291,-0.002721,-0.01,-0.26,9.87
2867467157,0.001644,-0.001290,-0.001654,0.00,-0.28,9.82
2867468208,0.001643,-0.000225,0.000476,0.04,-0.35,9.80
2867469178,0.000577,-0.000224,0.000475,0.04,-0.36,9.82
2867470188,0.000576,-0.000224,0.000475,0.03,-0.32,9.86
2867471197,0.001640,-0.000224,0.000474,0.03,-0.31,9.83
2867472208,0.000574,-0.000224,-0.001654,0.02,-0.33,9.82
2867473217,0.000573,-0.000224,-0.000589,0.02,-0.32,9.81
2867474228,0.001637,0.000841,0.001540,0.03,-0.30,9.78
2867475237,0.001635,0.000840,-0.000590,0.03,-0.30,9.76
2867476263,-0.000495,-0.001289,-0.000589,0.00,-0.30,9.80
2867477271,-0.001558,-0.001288,0.001540,0.01,-0.26,9.83
2867478273,-0.000493,-0.000222,0.003667,0.02,-0.25,9.86
2867479278,0.000572,-0.000222,0.002599,0.01,-0.27,9.84
2867480288,-0.002621,0.001906,0.000468,0.00,-0.28,9.88
2867481297,-0.003683,0.001905,-0.001661,0.01,-0.26,9.86
2867482308,-0.000486,0.000838,-0.000595,0.04,-0.28,9.77
2867483317,0.002707,-0.000227,0.001534,0.07,-0.29,9.79
2867484328,0.002704,-0.000226,0.001532,0.06,-0.27,9.85
2867485337,0.000573,-0.001290,0.000467,0.04,-0.29,9.84
2867486348,-0.000492,-0.003418,-0.000598,0.03,-0.32,9.81
2867487357,0.001637,-0.003414,0.002595,-0.01,-0.29,9.77
2867488373,0.001635,-0.002346,0.003657,-0.03,-0.28,9.80
2867489378,0.000569,-0.001280,0.000461,0.01,-0.31,9.86
2867490388,-0.000495,-0.000214,-0.001668,0.05,-0.31,9.82
2867491397,0.000569,-0.000214,-0.001667,0.03,-0.33,9.79
2867492408,-0.000495,-0.000214,0.000463,0.02,-0.34,9.78
2867493417,-0.001559,-0.001278,0.001527,0.01,-0.32,9.83
2867494428,-0.000493,-0.000212,0.000461,0.00,-0.33,9.89
2867495437,0.000571,0.001916,-0.001667,0.01,-0.33,9.79
2867496448,0.000571,0.001914,-0.002730,0.01,-0.32,9.75
2867497457,-0.000494,0.000848,-0.001663,0.00,-0.33,9.84
2867498473,-0.001558,-0.000217,0.000467,0.01,-0.32,9.84
2867499478,-0.003684,-0.001281,0.002595,-0.01,-0.31,9.79
2867500488,-0.003681,-0.000215,0.001528,0.00,-0.30,9.79
2867501518,-0.001549,0.000849,0.002591,0.02,-0.31,9.81
2867502508,0.000581,0.000848,0.004717,-0.02,-0.33,9.80
2867503517,0.002709,0.000847,0.003648,0.00,-0.32,9.87
2867504528,0.003771,0.000846,0.001516,0.00,-0.32,9.84
2867505537,0.003767,0.001910,-0.001679,0.00,-0.31,9.82
2867506548,0.002699,-0.000221,-0.002741,0.05,-0.30,9.88
2867507557,0.000568,-0.000220,-0.000610,0.04,-0.29,9.86
2867508573,-0.000497,-0.000220,0.001519,0.03,-0.27,9.82
2867509578,-0.000497,-0.001284,0.001518,0.03,-0.28,9.81
2867510588,0.000568,-0.002347,-0.000612,0.01,-0.31,9.80
2867511598,0.002696,-0.002345,-0.001676,0.04,-0.30,9.81
2867512609,0.000565,-0.003406,-0.000610,0.03,-0.31,9.81
2867513623,-0.001564,-0.003403,0.000455,0.03,-0.32,9.79
2867514630,-0.001563,-0.002335,0.000454,0.02,-0.30,9.81
2867515645,-0.001561,-0.000205,-0.000610,0.00,-0.30,9.80
2867516652,-0.001559,0.000860,-0.000610,0.03,-0.31,9.76
2867517664,-0.001558,-0.000205,0.000455,0.03,-0.31,9.77
2867518679,-0.001556,-0.001269,0.001519,0.02,-0.31,9.81
2867519684,0.000574,-0.002332,0.002581,0.02,-0.28,9.82
2867520698,0.001637,-0.001266,0.003643,0.00,-0.28,9.77
2867521704,0.002700,-0.001264,0.001511,0.01,-0.32,9.73
2867522715,0.002697,-0.001263,-0.000619,0.00,-0.31,9.76
2867523731,-0.000498,-0.000198,0.000446,-0.01,-0.28,9.82
2867524734,-0.001562,-0.000197,0.000445,0.00,-0.27,9.85
2867525756,0.000568,-0.000197,0.000445,0.03,-0.29,9.86
2867526760,0.001632,-0.001261,-0.002748,0.01,-0.31,9.85
2867527766,0.002694,-0.002324,-0.002745,0.01,-0.31,9.79
2867528786,0.001627,-0.002322,0.000450,0.06,-0.29,9.76
2867529788,0.002690,-0.001255,0.002578,0.08,-0.31,9.78
2867530795,0.002687,-0.002318,0.001511,0.04,-0.34,9.79
2867531846,0.002685,-0.002316,0.000445,0.01,-0.31,9.78
2867532820,0.001618,-0.001249,-0.000619,0.03,-0.28,9.81
2867533821,-0.000512,0.000880,-0.000619,0.03,-0.25,9.82
2867534839,-0.003705,-0.001249,0.000446,-0.01,-0.28,9.79
2867535840,-0.002637,-0.004440,0.000446,-0.03,-0.33,9.82
2867536869,-0.000506,-0.005500,0.000445,-0.02,-0.32,9.86
2867537864,-0.000505,-0.003366,0.001509,0.01,-0.33,9.82
2867538869,-0.002633,-0.001234,0.001508,0.02,-0.35,9.79
2867539877,-0.003695,-0.001233,0.001506,0.01,-0.34,9.81
2867540888,-0.003691,-0.001232,0.000440,0.03,-0.31,9.80
2867541897,-0.003687,-0.002295,-0.000624,0.04,-0.29,9.81
2867542908,-0.002619,-0.001228,-0.001688,-0.01,-0.30,9.82
2867543917,-0.001552,0.000902,-0.000622,0.00,-0.31,9.83
2867544928,0.000578,0.001965,-0.000621,0.00,-0.29,9.84
2867545937,0.002706,0.000899,0.000444,0.01,-0.27,9.82
2867546948,0.004831,0.000898,0.000443,0.04,-0.28,9.80
2867547962,0.004826,-0.000167,-0.001686,0.05,-0.29,9.79
2867548969,0.004821,-0.001231,-0.002748,0.06,-0.29,9.80
2867549977,0.003752,-0.001230,-0.001681,0.04,-0.31,9.83
2867550988,0.001620,-0.001229,-0.000615,0.03,-0.28,9.83
2867551997,0.000554,-0.000163,0.000449,0.01,-0.27,9.84
2867553008,-0.000510,-0.000163,0.000449,0.03,-0.31,9.82
2867554017,-0.002638,-0.001227,0.000449,0.04,-0.32,9.78
2867555028,-0.002636,-0.000162,0.001512,0.01,-0.28,9.81
2867556037,0.000560,-0.001226,0.002575,0.02,-0.27,9.84
2867557048,0.002687,-0.000160,0.001508,0.02,-0.32,9.83
2867558062,0.002685,0.001968,0.000442,0.00,-0.32,9.87
2867559069,0.002682,0.001966,-0.000622,0.02,-0.32,9.86
2867560077,0.001615,-0.000164,-0.000622,0.04,-0.33,9.82
2867561088,0.001613,-0.002292,-0.000621,0.02,-0.31,9.78
2867562097,0.000548,-0.002290,-0.000620,0.01,-0.33,9.77
2867563108,-0.001581,-0.000159,-0.001684,0.00,-0.33,9.81
2867564117,-0.002644,0.000905,-0.002746,0.00,-0.32,9.83
2867565128,0.000551,-0.000160,-0.002744,-0.01,-0.30,9.85
2867566137,0.002679,-0.000160,-0.000612,0.00,-0.32,9.85
2867567148,0.002676,-0.003352,0.001517,0.01,-0.33,9.84
2867568162,0.000545,-0.003349,0.001515,-0.01,-0.29,9.86
2867569169,-0.001584,-0.001217,0.001513,0.01,-0.29,9.84
2867570177,-0.000518,0.000912,0.001512,0.02,-0.28,9.81
2867571188,0.001611,0.000911,0.000446,0.00,-0.26,9.83
2867572197,0.001610,-0.000154,-0.001683,0.00,-0.29,9.83
2867573208,0.001608,-0.000154,-0.002745,0.01,-0.33,9.80
2867574217,0.002670,-0.000153,-0.000614,0.00,-0.31,9.80
2867575228,0.001604,-0.000153,0.001515,-0.01,-0.29,9.82
2867576237,0.000538,-0.001217,0.001514,0.01,-0.30,9.84
2867577248,-0.001591,-0.002280,0.001512,0.00,-0.33,9.83
2867578262,-0.002654,-0.001214,0.000446,0.00,-0.35,9.86
2867579269,0.000541,0.000916,-0.001683,0.04,-0.31,9.86
2867580277,0.002669,0.000915,-0.003809,-0.01,-0.32,9.82
2867581288,0.002667,0.003042,-0.001677,-0.02,-0.31,9.80
2867582297,0.003728,0.004104,0.000453,-0.01,-0.32,9.79
2867583308,0.002660,0.000907,-0.000612,0.00,-0.34,9.82
2867584317,0.000529,-0.000158,-0.000611,-0.01,-0.32,9.81
2867585343,-0.001600,0.003034,-0.000610,0.02,-0.31,9.81
2867586375,0.000530,0.004096,0.000454,0.05,-0.31,9.80
2867587348,0.002658,0.003027,-0.000610,0.04,-0.29,9.84
2867588362,0.004784,0.001960,-0.001674,0.01,-0.28,9.84
2867589369,0.003715,0.001958,-0.001672,-0.01,-0.29,9.79
2867590377,0.001583,0.003020,-0.000606,0.00,-0.31,9.78
2867591388,0.000517,0.003017,-0.001670,0.03,-0.30,9.80
2867592397,0.000516,0.000886,-0.000604,0.06,-0.30,9.79
2867593408,0.001580,0.000885,0.001525,0.04,-0.31,9.80
2867594417,0.001578,-0.000180,0.001524,0.01,-0.30,9.88
2867595428,-0.000552,-0.001244,-0.000606,0.01,-0.29,9.91
2867596437,-0.001615,-0.000179,-0.002734,0.04,-0.29,9.86
2867597448,-0.000549,0.000886,-0.001667,0.06,-0.30,9.86
2867598462,0.000515,0.000885,-0.001666,0.03,-0.30,9.83
2867599494,0.000515,-0.000180,-0.002728,0.00,-0.28,9.80
2867600514,-0.001614,-0.002309,-0.001661,0.03,-0.30,9.83
2867601508,-0.001612,-0.003371,-0.000595,0.02,-0.32,9.87
2867602516,0.001582,-0.002303,-0.002723,0.01,-0.29,9.85
2867603523,0.002645,-0.000172,-0.003785,0.02,-0.28,9.80
2867604520,0.000513,-0.000172,-0.002716,-0.01,-0.28,9.82
2867605532,-0.002680,-0.002300,-0.000585,-0.01,-0.30,9.83
2867606552,-0.002677,-0.002298,0.001544,0.03,-0.32,9.83
2867607553,-0.000546,-0.003360,-0.000586,0.03,-0.34,9.81
2867608583,0.000519,-0.004421,-0.002714,0.03,-0.34,9.76
2867609573,0.000518,-0.002288,-0.001647,0.01,-0.31,9.76
2867610623,0.002646,0.000907,0.000483,-0.01,-0.32,9.76
2867611605,0.002644,-0.001222,0.001547,-0.01,-0.31,9.80
2867612604,0.000512,-0.002285,0.001545,0.01,-0.31,9.88
2867613633,-0.000552,-0.002283,-0.001649,0.03,-0.28,9.90
2867614645,-0.001616,-0.004409,-0.002712,0.02,-0.29,9.86
2867615662,0.000514,-0.003340,-0.002709,0.01,-0.28,9.83
2867616642,0.000514,-0.001208,-0.002706,0.01,-0.28,9.85
2867617655,-0.000551,0.000921,-0.001639,0.05,-0.30,9.84
2867618672,0.001578,0.000920,0.000491,0.04,-0.25,9.82
2867619678,0.003705,0.000919,0.001555,-0.01,-0.24,9.81
2867620684,0.001572,-0.001210,0.000489,0.02,-0.28,9.82
2867621698,-0.000558,-0.001209,-0.000576,0.04,-0.29,9.81
2867622734,-0.002685,-0.001207,0.001553,0.04,-0.33,9.76
2867623732,-0.003747,-0.002270,0.002616,0.03,-0.32,9.80
2867624728,-0.002679,-0.004397,0.002613,0.01,-0.29,9.86
2867625735,-0.000548,-0.001200,0.001546,-0.02,-0.30,9.86
2867626750,0.002646,0.001994,0.000480,-0.01,-0.31,9.82
2867627791,0.002643,0.001992,-0.001648,0.03,-0.33,9.78
2867628804,0.001576,0.001990,-0.002711,0.05,-0.32,9.77
2867629820,-0.000554,0.000924,-0.000580,0.04,-0.28,9.78
2867630807,-0.000554,0.001987,0.000485,0.00,-0.29,9.80
2867631803,0.000511,0.003049,0.001549,0.01,-0.31,9.80
2867632800,-0.001618,0.003046,-0.000581,0.02,-0.34,9.84
2867633809,-0.000552,0.003043,-0.002709,0.03,-0.34,9.85
2867634881,-0.000551,0.000912,-0.003771,0.03,-0.31,9.85
2867635833,-0.002679,0.000911,-0.001638,0.05,-0.32,9.87
2867636881,-0.003741,0.000910,0.000492,0.04,-0.31,9.83
2867637857,-0.001608,-0.000155,0.000491,0.03,-0.28,9.80
2867638861,-0.001607,-0.002283,-0.001638,0.02,-0.26,9.82
2867639868,-0.000541,-0.004410,-0.002700,0.06,-0.27,9.85
2867640877,0.000524,-0.003341,-0.002697,0.08,-0.30,9.87
2867641888,0.000523,-0.002273,-0.000566,0.04,-0.29,9.85
2867642897,0.000523,-0.000143,0.000498,0.03,-0.28,9.83
2867643908,0.000522,-0.000142,0.001562,0.05,-0.30,9.84
2867644917,0.000522,-0.000142,0.001561,0.07,-0.31,9.85
2867645928,0.000521,-0.000142,0.001559,0.08,-0.30,9.84
2867646937,0.002649,0.000922,0.000493,0.07,-0.28,9.81
2867647953,0.003710,-0.000143,-0.000571,0.04,-0.29,9.86
2867648958,0.003707,-0.001207,-0.001635,0.02,-0.31,9.85
2867649968,-0.000554,0.000923,-0.000569,-0.01,-0.30,9.83
2867650977,-0.001618,0.003050,0.001560,0.00,-0.30,9.84
2867651988,-0.000552,0.000919,0.001558,0.03,-0.30,9.82
2867652997,-0.001615,-0.002275,-0.000572,-0.01,-0.30,9.80
2867654008,-0.002678,-0.002273,-0.001635,-0.02,-0.29,9.85
2867655017,-0.000547,-0.000142,-0.002698,-0.01,-0.31,9.88
2867656028,0.000518,0.000922,-0.002695,0.01,-0.28,9.87
2867657037,0.001582,-0.000143,-0.000564,0.04,-0.26,9.84
2867658053,0.003708,0.000922,0.001565,0.03,-0.27,9.86
2867659058,0.003705,0.001985,0.001563,0.02,-0.31,9.91
2867660068,0.003701,0.003047,-0.000567,0.01,-0.33,9.88
2867661077,0.001569,0.001980,-0.001630,0.01,-0.29,9.86
2867662088,0.001567,0.001978,-0.000565,0.01,-0.30,9.85
2867663127,0.001566,0.003040,0.000500,0.01,-0.31,9.82
2867664108,0.001564,0.001973,0.000500,0.03,-0.30,9.81
2867665117,0.001562,0.000907,0.000499,0.05,-0.33,9.84
2867666128,0.001561,-0.000159,0.001563,0.02,-0.33,9.86
2867667137,-0.001633,-0.000158,0.001561,0.00,-0.32,9.82
2867668153,-0.001632,-0.001222,0.000496,0.01,-0.31,9.82
2867669158,0.000498,-0.002285,-0.000569,0.01,-0.30,9.82
2867670168,0.002626,-0.000155,0.000496,0.02,-0.28,9.78
2867671177,0.002624,-0.000155,0.001559,0.02,-0.31,9.79
2867672188,0.002621,-0.001219,0.001558,0.02,-0.31,9.81
2867673197,0.000490,-0.002282,0.001556,-0.02,-0.26,9.81
2867674208,-0.001639,-0.001215,0.001555,0.00,-0.28,9.79
2867675217,-0.003766,-0.000150,0.000489,0.04,-0.30,9.81
2867676228,-0.001633,0.000915,-0.000576,0.01,-0.30,9.80
2867677237,0.001561,0.001978,-0.001639,0.02,-0.30,9.80
2867678253,0.002623,0.001976,-0.000574,0.04,-0.32,9.76
2867679258,0.000492,0.001974,0.000491,0.03,-0.32,9.75
2867680268,-0.000572,0.000908,0.001555,0.05,-0.31,9.85
2867681277,0.000492,-0.000157,-0.000575,0.05,-0.28,9.84
2867682288,-0.000572,-0.002286,-0.001639,0.02,-0.26,9.80
2867683297,-0.000572,-0.004412,-0.001637,0.04,-0.29,9.80
2867684308,0.001557,-0.003343,-0.002700,0.05,-0.29,9.82
2867685317,-0.000573,-0.001211,-0.000568,0.04,-0.29,9.83
2867686328,-0.001636,-0.000146,0.001561,0.03,-0.30,9.80
2867687337,-0.000570,-0.000146,0.002623,0.03,-0.28,9.84
2867688353,0.002623,0.001983,0.002620,0.05,-0.31,9.92
2867689358,0.003684,0.000917,0.001554,0.05,-0.32,9.86
2867690368,0.002616,-0.003341,0.001552,0.07,-0.29,9.81
2867691377,0.001549,-0.003338,-0.000578,0.04,-0.30,9.85
2867692388,0.001548,-0.001206,-0.002706,-0.01,-0.29,9.86
2867693397,0.001546,-0.000140,-0.002703,0.02,-0.26,9.86
2867694408,0.001545,-0.000140,-0.000572,0.01,-0.25,9.83
2867695417,0.000479,-0.002269,0.000493,0.01,-0.28,9.81
2867696428,0.001543,-0.002266,0.002621,0.04,-0.31,9.84
2867697437,0.002605,-0.002264,0.002618,0.03,-0.29,9.89
2867698453,-0.000590,-0.002262,0.000487,0.00,-0.31,9.84
2867699458,-0.002718,-0.002259,-0.002706,0.03,-0.31,9.79
2867700468,-0.002715,-0.002257,-0.003767,0.05,-0.30,9.82
2867701477,-0.000584,-0.002255,-0.002699,0.05,-0.30,9.80
2867702488,0.000481,-0.001188,-0.001633,0.03,-0.27,9.77
2867703497,-0.000584,-0.001187,0.001562,0.00,-0.28,9.78
2867704508,-0.001647,0.000942,0.001560,0.02,-0.30,9.79
2867705517,-0.001646,0.000941,0.001559,0.04,-0.31,9.79
2867706528,-0.000580,0.000940,0.000493,0.03,-0.28,9.81
2867707537,-0.000579,0.000940,0.000492,0.02,-0.26,9.81
2867708553,0.000486,-0.000126,0.000492,0.02,-0.28,9.81
2867709558,0.002614,-0.000125,0.000491,0.01,-0.28,9.81
2867710568,0.004739,-0.001190,0.000491,0.04,-0.29,9.80
2867711577,0.002606,-0.001188,-0.000574,0.03,-0.31,9.80
2867712588,-0.000589,0.002005,-0.000573,0.02,-0.32,9.83
2867713598,-0.000589,0.004132,-0.001637,0.04,-0.29,9.84
2867714609,-0.000588,0.001999,-0.001635,0.04,-0.28,9.84
2867715622,0.000477,0.001997,-0.001634,0.03,-0.31,9.82
2867716632,0.001541,0.000931,-0.002696,0.01,-0.32,9.82
2867717645,0.001539,-0.001198,-0.001629,0.01,-0.32,9.81
2867718660,-0.001655,-0.002261,0.000501,0.05,-0.35,9.81
2867719664,-0.003782,-0.002259,0.000500,0.03,-0.34,9.82
2867720677,-0.003778,-0.002257,0.000500,-0.01,-0.34,9.85
2867721684,-0.003774,-0.003319,-0.000565,0.03,-0.31,9.84
2867722698,-0.003770,-0.004380,-0.002693,0.04,-0.30,9.78
2867723705,-0.002702,-0.004375,-0.001626,0.03,-0.33,9.77
2867724718,-0.002700,0.000950,0.000504,0.03,-0.32,9.78
2867725723,-0.002697,0.003078,0.000504,0.01,-0.31,9.77
2867726734,-0.001630,0.002010,-0.000561,0.04,-0.33,9.77
2867727750,-0.000564,-0.000120,-0.001625,0.04,-0.33,9.82
2867728764,-0.000564,-0.000120,-0.000559,0.02,-0.31,9.83
2867729766,0.000501,-0.000120,-0.000558,0.01,-0.31,9.84
2867730789,0.001565,-0.001184,-0.000558,0.01,-0.31,9.82
2867731788,0.002627,-0.000118,0.000507,0.02,-0.29,9.76
2867732794,0.001561,0.000946,0.001571,0.03,-0.30,9.79
2867733800,-0.000569,0.000945,0.001569,0.03,-0.32,9.81
2867734808,-0.001633,-0.000120,-0.000561,0.01,-0.30,9.82
2867735821,-0.001631,-0.001184,-0.001624,0.02,-0.26,9.87
2867736879,0.000499,-0.001183,-0.001623,0.04,-0.27,9.87
2867737845,0.003691,-0.001182,-0.001621,0.06,-0.29,9.86
2867738853,0.003687,-0.000116,0.000509,0.04,-0.27,9.84
2867739859,0.002619,0.000948,0.001573,0.02,-0.29,9.82
2867740868,0.001552,0.000947,0.001571,0.02,-0.31,9.82
2867741877,-0.000578,0.000946,0.001570,0.05,-0.30,9.81
2867742888,0.002616,0.000945,0.003696,0.05,-0.30,9.80
2867743897,0.004741,0.000944,0.004757,0.01,-0.31,9.83
2867744908,0.003672,-0.000121,0.002624,0.02,-0.30,9.82
2867745917,0.001540,-0.003314,-0.001636,0.05,-0.30,9.78
2867746928,-0.002718,-0.004374,-0.002698,0.05,-0.30,9.79
2867747942,-0.002715,-0.001177,-0.001631,0.05,-0.28,9.81
2867748949,-0.000584,0.002016,0.000499,0.04,-0.30,9.83
2867749957,0.000481,0.000950,-0.000566,0.01,-0.31,9.80
2867750968,-0.002713,-0.002243,-0.000566,0.03,-0.31,9.81
2867751977,-0.001646,-0.004370,0.000499,0.03,-0.30,9.83
2867752988,-0.001644,-0.003301,0.002627,0.02,-0.31,9.82
2867753997,-0.002707,0.000959,0.001560,0.02,-0.33,9.82
2867755008,-0.002704,0.003087,0.000495,0.02,-0.31,9.84
2867756017,-0.001637,0.002019,-0.000570,0.02,-0.30,9.86
2867757028,-0.000571,-0.001175,-0.000570,0.01,-0.30,9.83
2867758042,-0.001635,-0.002238,-0.001633,0.03,-0.29,9.82
2867759049,-0.003761,-0.000108,-0.001632,0.03,-0.30,9.84
2867760057,-0.001629,0.000957,-0.002694,-0.01,-0.30,9.87
2867761068,0.001565,-0.000109,-0.002691,-0.02,-0.31,9.88
2867762077,0.002628,-0.001173,-0.002689,0.01,-0.33,9.87
2867763088,0.001561,-0.000107,-0.000558,0.01,-0.32,9.85
2867764097,0.000495,0.002021,0.000507,-0.01,-0.29,9.84
2867765108,0.000495,0.003083,0.001571,0.01,-0.32,9.80
2867766118,-0.000570,0.002016,0.001569,0.03,-0.33,9.80
2867767171,-0.002698,-0.000114,0.000503,0.05,-0.30,9.85
2867768139,-0.002698,-0.002245,0.000503,0.05,-0.29,9.84
2867769150,-0.001633,-0.003310,-0.009084,0.01,-0.30,9.87
2867770128,-0.009090,-0.015028,-0.034651,0.01,-0.30,9.89
2867771139,-0.021873,-0.016094,-0.021867,-0.05,-0.24,9.83
2867772148,-0.021873,-0.006506,0.005830,-0.02,-0.17,9.68
2867773159,-0.010155,0.000951,0.022874,0.04,-0.22,9.83
2867774168,-0.000567,0.008408,0.028201,0.21,-0.33,9.78
2867775179,0.004759,0.010538,0.028201,0.19,-0.42,9.77
2867776188,0.006890,0.005212,0.032462,-0.10,-0.65,9.99
2867777199,-0.004829,0.003082,0.037788,-0.31,-0.63,9.81
2867778213,-0.002698,-0.003310,0.039919,-0.45,-0.15,9.73
2867779224,0.006890,-0.010767,0.029266,-0.16,-0.08,9.65
2867780242,0.046305,-0.025681,-0.002692,0.13,-0.85,9.68
2867781254,0.034587,-0.034203,0.004765,-0.59,-0.09,10.08
2867782268,-0.021873,-0.024616,0.011156,-0.33,-0.48,9.92
2867783271,-0.046374,-0.022485,0.003699,0.62,-1.52,9.51
2867784274,-0.009090,-0.013963,0.009026,0.02,-0.43,10.69
2867785283,-0.018677,0.008408,0.025005,-0.83,0.77,10.82
2867786291,-0.057027,-0.005441,0.025005,0.38,-1.54,8.69
2867787311,-0.026134,-0.012898,0.029266,0.70,-0.39,10.19
2867788320,0.009020,0.015865,0.040984,-0.45,1.87,10.94
2867789342,-0.010155,-0.006506,0.042049,0.38,-2.15,8.12
2867790347,-0.038917,0.002016,0.053768,-0.08,0.12,10.13
2867791356,-0.034656,0.037171,0.058029,-0.20,1.16,10.55
2867792352,-0.012285,-0.009702,0.048441,0.82,-1.55,8.50
2867793374,-0.035722,0.002016,0.052702,-0.45,1.27,11.75
2867794379,-0.004829,-0.017159,0.055898,0.96,-0.79,8.45
2867795403,0.013281,-0.010767,0.058029,-0.47,-0.18,9.21
2867796410,0.005824,0.013734,0.047376,0.11,0.37,12.45
2867797413,0.009020,-0.007571,0.040984,0.51,-0.66,7.36
2867798434,0.042044,0.002016,0.033527,-0.19,0.15,11.99
2867799424,0.038848,-0.013963,0.029266,0.56,-0.49,7.89
2867800428,0.040979,0.009473,0.025005,-0.10,-0.02,11.43
2867801439,0.018608,-0.011832,0.027136,0.33,-0.66,8.95
2867802448,0.016477,-0.010767,0.017548,0.32,0.02,10.11
2867803459,-0.028265,0.014800,0.006895,-0.02,-0.63,10.14
2867804468,-0.043179,0.010538,-0.008019,-0.25,-0.33,8.49
2867805479,-0.066615,0.015865,-0.015476,0.37,-0.52,11.95
2867806488,-0.028265,-0.002245,-0.014410,-0.93,-0.72,7.00
2867807509,-0.015481,0.013734,-0.018672,0.26,0.07,12.71
2867808522,0.011151,0.003082,-0.021867,-0.04,-0.66,7.77
2867809531,0.009020,0.002016,-0.026129,-0.11,0.40,11.17
2867810548,-0.000567,0.006277,-0.028259,0.56,-0.23,9.96
2867811544,0.011151,0.003082,-0.027194,-1.31,-0.69,7.65
2867812551,0.038848,-0.011832,-0.027194,0.15,0.82,11.60
2867813580,0.014347,-0.005441,-0.029324,0.76,-0.60,9.19
2867814587,-0.011220,0.017995,-0.028259,-1.28,-1.06,8.52
2867815582,-0.021873,0.017995,-0.027194,0.39,0.70,11.40
2867816593,-0.016547,0.005212,-0.029324,0.74,-0.49,9.98
2867817610,-0.012285,0.011604,-0.027194,-1.41,-1.32,8.32
2867818618,0.009020,0.012669,-0.020802,0.31,0.33,11.67
2867819641,0.032456,0.006277,-0.010149,1.18,-0.09,10.39
2867820645,0.032456,-0.001180,-0.004823,-0.98,-1.44,7.69
2867821659,-0.003763,-0.002245,-0.006953,-0.65,-0.41,9.66
2867822669,-0.018677,-0.004375,-0.008019,1.40,0.57,10.89
2867823666,0.021804,-0.017159,-0.005888,0.49,-0.51,8.57
2867824692,0.027130,-0.022485,-0.000562,-1.28,-1.38,9.19
2867825701,0.021804,-0.028877,0.001569,0.09,-0.12,11.78
2867826697,0.006890,-0.015028,0.000503,1.59,0.46,10.86
2867827711,0.006890,-0.011832,-0.000562,0.12,-0.49,8.27
2867828713,0.009020,-0.009702,0.003699,-1.32,-1.18,8.82
2867829728,0.006890,-0.004375,0.000503,-0.10,-0.10,11.36
2867830732,0.021804,-0.010767,-0.002692,1.48,0.78,10.86
2867831768,0.035652,-0.019289,0.005830,0.54,-0.21,8.78
2867832780,0.024999,-0.023551,0.011156,-1.28,-1.15,8.72
2867833777,0.002628,-0.029942,0.011156,-1.00,-0.61,10.12
2867834782,-0.031461,-0.010767,0.011156,0.81,0.57,10.80
2867835826,-0.026134,0.013734,0.009026,1.39,0.39,10.29
2867836819,-0.005894,0.026518,0.006895,0.01,-0.22,9.09
2867837816,0.005824,0.023322,0.003699,-1.54,-1.11,8.43
2867838843,-0.003763,0.011604,0.006895,-1.04,-0.84,9.75
2867839853,-0.011220,0.006277,0.006895,0.74,0.29,11.00
2867840844,0.013281,-0.006506,-0.000562,1.51,0.43,10.70
2867841863,0.039913,-0.026746,-0.008019,0.59,0.09,9.28
2867842871,0.043109,-0.027812,-0.011215,-1.21,-0.99,8.50
2867843859,0.015412,-0.002245,-0.010149,-1.67,-1.44,9.17
2867844868,0.009020,0.002016,-0.005888,-0.37,-0.61,10.68
2867845879,-0.015481,-0.010767,-0.010149,1.19,0.11,11.12
2867846888,-0.051701,0.002016,-0.017606,1.65,0.51,10.51
2867847899,-0.043179,0.020126,-0.018672,0.55,0.27,9.24
2867848913,-0.016547,0.030779,-0.019737,-1.01,-0.72,8.47
2867849924,-0.015481,0.032909,-0.020802,-1.65,-1.37,9.05
2867850928,-0.018677,0.022257,-0.016541,-0.91,-1.02,10.05
2867851939,-0.001633,0.007343,-0.010149,0.46,-0.33,10.93
2867852948,-0.011220,0.009473,-0.003758,1.50,0.41,10.72
2867853959,-0.025069,0.014800,0.001569,1.42,0.60,9.78
2867854993,-0.009090,0.004147,0.003699,0.37,-0.04,8.87
2867855998,0.017542,-0.017159,0.007960,-0.66,-0.40,8.89
2867857005,0.018608,-0.025681,0.015417,-1.27,-0.88,9.62
2867858030,0.001563,-0.010767,0.021809,-1.14,-1.26,10.11
2867859013,-0.013351,0.010538,0.025005,-0.25,-0.79,10.67
2867860019,-0.010155,0.012669,0.028201,0.82,-0.14,10.67
2867861028,-0.014416,-0.002245,0.029266,1.37,0.53,10.12
2867862039,-0.024004,-0.000114,0.030331,1.19,0.61,9.52
2867863048,0.006890,-0.016094,0.035658,0.58,0.07,8.96
2867864059,-0.050636,-0.000114,0.022874,-0.17,-0.18,9.30
2867865068,-0.077268,0.031844,0.007960,-0.93,-0.18,9.89
2867866079,-0.000567,0.019061,0.011156,-1.25,-0.58,9.89
2867867088,0.100634,-0.021420,0.023940,-1.02,-1.09,9.88
2867868104,0.147507,-0.050183,0.033527,-0.49,-1.03,10.03
2867869113,0.128332,-0.050183,0.030331,0.16,-0.61,10.13
2867870119,0.092112,-0.033138,0.019679,0.98,-0.30,10.31
2867871128,0.040979,0.009473,0.002634,1.30,0.29,10.09
2867872139,-0.022938,0.047823,-0.011215,0.89,0.56,9.47
2867873148,-0.026134,0.020126,-0.008019,0.44,-0.06,8.83
2867874159,0.012216,-0.022485,-0.000562,-0.02,-0.13,9.30
2867875168,0.011151,-0.012898,-0.005888,-0.50,0.48,10.11
2867876179,0.012216,-0.011832,-0.011215,-0.84,0.17,10.09
2867877188,0.000498,0.003082,-0.017606,-0.99,-0.80,9.89
2867878204,0.006890,0.009473,-0.012280,-1.13,-1.12,9.62
2867879213,0.003694,-0.002245,-0.011215,-0.81,-1.16,9.58
2867880219,0.003694,-0.010767,-0.019737,-0.04,-1.15,9.83
2867881228,0.024999,0.004147,-0.011215,0.79,-0.25,10.18
2867882239,-0.016547,0.008408,-0.009084,0.92,-0.03,10.09
2867883251,-0.057027,0.010538,-0.010149,0.92,0.28,9.64
2867884255,-0.062354,0.013734,-0.009084,0.85,0.21,9.09
2867885264,-0.055962,0.022257,-0.006953,0.53,0.08,9.35
2867886275,-0.055962,0.025452,-0.004823,0.15,0.26,9.92
2867887284,-0.045309,0.013734,-0.000562,-0.13,0.38,10.27
2867888301,-0.017612,-0.006506,0.005830,-0.41,0.30,10.47
2867889309,0.013281,-0.018224,0.012222,-0.56,0.05,10.22
2867890315,0.022869,-0.013963,0.013287,-0.61,-0.46,9.78
2867891324,-0.005894,0.003082,0.010091,-0.72,-0.98,9.57
2867892335,-0.012285,0.003082,0.010091,-0.87,-1.40,9.49
2867893354,0.012216,-0.008637,0.011156,-0.72,-1.56,9.62
2867894358,0.005824,-0.010767,0.007960,-0.34,-1.57,9.76
2867895367,0.021804,-0.015028,0.007960,-0.07,-1.38,9.83
2867896378,0.003694,-0.006506,0.006895,0.15,-1.10,9.84
2867897387,0.009020,0.003082,0.011156,0.32,-0.84,9.91
2867898404,0.001563,0.004147,0.012222,0.33,-0.46,9.89
2867899411,-0.021873,0.013734,0.005830,0.33,-0.15,9.70
2867900418,0.030326,-0.008637,0.011156,0.34,0.01,9.42
2867901427,-0.002698,-0.015028,0.010091,0.35,0.15,9.25
2867902438,-0.048505,0.009473,0.003699,0.27,0.21,9.43
2867903451,0.029260,-0.006506,0.017548,0.12,0.26,9.78
2867904455,0.062284,-0.039530,0.035658,-0.02,0.35,10.23
2867905464,-0.038917,-0.015028,0.029266,-0.13,0.37,10.53
2867906475,-0.119879,0.042497,0.013287,-0.17,0.42,10.64
2867907484,-0.054897,0.055280,0.016483,-0.23,0.44,10.46
2867908501,0.089981,0.009473,0.038854,-0.36,0.30,10.21
2867909509,0.169878,-0.054444,0.060159,-0.46,-0.05,9.94
2867910515,0.141115,-0.088533,0.067616,-0.49,-0.37,9.68
2867911524,0.049501,-0.082141,0.063355,-0.55,-0.66,9.46
2867912535,-0.033591,-0.057639,0.056963,-0.58,-0.91,9.31
2867913554,-0.075137,-0.035269,0.053768,-0.53,-1.00,9.31
2867914558,-0.083659,-0.025681,0.052702,-0.50,-1.16,9.29
2867915567,-0.069811,-0.028877,0.056963,-0.39,-1.26,9.34
2867916578,-0.042113,-0.037399,0.064420,-0.31,-1.21,9.43
2867917587,-0.005894,-0.050183,0.074008,-0.24,-1.17,9.46
2867918608,0.033522,-0.066162,0.080400,-0.13,-1.11,9.52
2867919617,0.071872,-0.073619,0.081465,0.03,-1.00,9.70
2867920620,0.091047,-0.061901,0.076138,0.17,-0.85,9.85
2867921634,0.063349,-0.022485,0.065486,0.23,-0.67,9.90
2867922644,-0.006959,0.028648,0.053768,0.30,-0.47,9.95
2867923655,-0.070876,0.057411,0.048441,0.35,-0.36,10.02
2867924665,-0.071941,0.031844,0.056963,0.38,-0.22,10.01
2867925672,-0.010155,-0.028877,0.070812,0.38,-0.08,9.98
2867926684,0.047370,-0.058705,0.075073,0.40,0.04,9.98
2867927697,0.022869,-0.017159,0.065486,0.41,0.10,9.89
2867928710,-0.042113,0.036105,0.055898,0.42,0.10,9.78
2867929717,-0.035722,0.017995,0.060159,0.45,0.15,9.81
2867930720,0.029260,-0.035269,0.069747,0.46,0.31,9.82
2867931729,0.022869,-0.021420,0.066551,0.46,0.36,9.76
2867932747,-0.017612,0.017995,0.060159,0.38,0.29,9.78
2867933760,0.005824,-0.002245,0.063355,0.30,0.30,9.85
2867934763,0.026065,-0.016094,0.064420,0.27,0.28,9.96
2867935782,0.002628,0.004147,0.059094,0.24,0.27,10.02
2867936782,0.004759,-0.011832,0.060159,0.18,0.28,10.03
2867937788,0.006890,-0.017159,0.056963,0.15,0.29,10.09
2867938808,-0.018677,0.007343,0.049506,0.10,0.23,10.19
2867939815,-0.008024,-0.001180,0.052702,0.05,0.19,10.30
2867940822,-0.010155,0.007343,0.051637,0.05,0.19,10.26
2867941848,-0.024004,0.008408,0.050572,0.04,0.14,10.13
2867942838,-0.006959,-0.006506,0.052702,0.00,0.02,10.06
2867943851,-0.010155,0.004147,0.050572,-0.06,-0.05,10.00
2867944855,0.011151,-0.003310,0.053768,-0.06,-0.02,9.98
2867945864,0.012216,0.004147,0.050572,-0.05,-0.15,9.90
2867946875,0.007955,0.000951,0.050572,-0.05,-0.25,9.79
2867947884,0.010085,0.000951,0.049506,-0.10,-0.31,9.75
2867948901,0.001563,-0.000114,0.047376,-0.10,-0.37,9.67
2867949909,0.014347,-0.004375,0.042049,-0.07,-0.43,9.61
2867950915,-0.004829,-0.000114,0.038854,-0.09,-0.50,9.64
2867951924,0.006890,-0.004375,0.033527,-0.10,-0.54,9.66
2867952945,-0.012285,0.000951,0.030331,-0.15,-0.59,9.66
2867953947,0.004759,-0.006506,0.023940,-0.15,-0.58,9.57
2867954958,-0.013351,-0.002245,0.022874,-0.15,-0.66,9.46
2867955967,0.001563,-0.006506,0.022874,-0.16,-0.72,9.46
2867956978,-0.019742,0.000951,0.026070,-0.13,-0.71,9.52
2867957993,-0.006959,-0.000114,0.025005,-0.13,-0.71,9.51
2867959003,-0.013351,0.003082,0.025005,-0.14,-0.68,9.57
2867960007,-0.010155,0.004147,0.020744,-0.15,-0.68,9.62
2867961018,-0.002698,-0.001180,0.021809,-0.11,-0.71,9.55
2867962027,-0.014416,0.003082,0.020744,-0.10,-0.72,9.52
2867963043,0.006890,-0.004375,0.028201,-0.13,-0.74,9.53
2867964044,-0.019742,0.006277,0.030331,-0.11,-0.65,9.64
2867965055,0.009020,-0.002245,0.032462,-0.07,-0.61,9.75
2867966064,-0.013351,0.003082,0.032462,-0.02,-0.67,9.75
2867967075,0.009020,-0.003310,0.028201,0.02,-0.59,9.76
2867968090,0.016477,-0.004375,0.031397,0.05,-0.53,9.81
2867969100,0.017542,-0.001180,0.027136,0.06,-0.59,9.80
2867970104,0.043109,-0.006506,0.026070,0.05,-0.54,9.79
2867971115,0.010085,0.003082,0.021809,0.05,-0.49,9.85
2867972124,0.024999,-0.006506,0.015417,0.10,-0.45,9.91
2867973145,0.000498,-0.003310,0.015417,0.11,-0.36,9.88
2867974147,-0.012285,-0.004375,0.009026,0.10,-0.35,9.89
2867975158,0.006890,-0.008637,0.010091,0.15,-0.34,9.90
2867976167,-0.022938,0.003082,0.007960,0.15,-0.33,9.85
2867977178,-0.002698,0.000951,0.004765,0.17,-0.28,9.98
2867978193,-0.014416,0.006277,0.007960,0.22,-0.18,10.04
2867979203,-0.029330,0.009473,0.005830,0.21,-0.17,9.96
2867980207,0.001563,0.002016,0.010091,0.17,-0.15,9.96
2867981218,-0.002698,-0.001180,0.009026,0.21,-0.11,9.91
2867982227,0.010085,-0.005441,0.010091,0.24,-0.06,9.93
2867983243,-0.018677,0.000951,0.004765,0.21,-0.05,9.94
2867984244,0.013281,-0.002245,0.004765,0.21,-0.01,9.94
2867985255,0.007955,0.004147,0.014352,0.22,0.02,9.81
2867986264,-0.009090,0.009473,0.013287,0.23,0.01,9.79
2867987275,0.022869,0.004147,0.013287,0.25,0.01,9.84
2867988290,0.002628,0.003082,0.013287,0.26,0.04,9.83
2867989300,0.005824,-0.003310,0.006895,0.28,0.09,9.88
2867990304,0.021804,-0.006506,0.010091,0.23,0.01,9.81
2867991315,-0.015481,0.000951,0.006895,0.22,-0.04,9.78
2867992324,0.006890,-0.004375,0.000503,0.22,-0.01,9.82
2867993345,0.019673,-0.007571,0.005830,0.22,0.00,9.85
2867994347,-0.015481,-0.001180,0.003699,0.22,-0.03,9.83
2867995358,0.011151,-0.005441,0.001569,0.20,-0.10,9.82
2867996367,0.002628,-0.004375,0.007960,0.18,-0.08,9.88
2867997378,-0.032526,0.005212,0.004765,0.16,-0.01,9.93
2867998393,0.003694,-0.001180,0.003699,0.18,-0.05,9.91
2867999403,-0.005894,-0.001180,0.006895,0.16,-0.05,9.99
2868000407,-0.034656,0.005212,0.002634,0.10,-0.09,10.02
2868001418,0.012216,-0.004375,0.001569,0.11,-0.09,9.98
2868002427,0.003694,-0.003310,0.007960,0.09,-0.02,9.98
2868003443,-0.025069,0.006277,0.005830,0.05,-0.08,9.94
2868004444,0.019673,0.002016,0.006895,0.02,-0.06,9.94
2868005455,0.012216,0.002016,0.013287,0.03,-0.11,9.99
2868006464,-0.030395,0.010538,0.009026,0.09,-0.14,10.04
2868007475,0.017542,-0.001180,0.007960,0.03,-0.05,9.93
2868008490,0.031391,-0.008637,0.015417,-0.01,-0.06,9.90
2868009500,-0.013351,0.002016,0.013287,-0.04,-0.10,10.05
2868010504,0.016477,-0.003310,0.009026,-0.02,-0.11,10.11
2868011515,0.034587,-0.011832,0.012222,0.01,-0.13,10.01
2868012524,-0.020808,-0.000114,0.007960,-0.05,-0.17,9.92
2868013545,-0.005894,-0.000114,-0.000562,-0.05,-0.16,9.95
2868014547,0.034587,-0.015028,0.002634,-0.07,-0.26,9.90
2868015558,-0.011220,-0.009702,0.007960,-0.04,-0.22,9.96
2868016567,-0.035722,0.002016,0.003699,-0.06,-0.20,9.94
2868017578,0.021804,-0.008637,0.005830,-0.09,-0.32,9.86
2868018593,0.016477,-0.012898,0.007960,-0.03,-0.26,9.82
2868019616,-0.030395,0.007343,0.002634,-0.06,-0.30,9.83
2868020623,0.004759,0.004147,-0.001627,-0.08,-0.32,9.88
2868021620,0.020738,-0.008637,0.003699,-0.09,-0.34,9.86
2868022633,-0.035722,0.007343,0.002634,-0.10,-0.36,9.85
2868023647,-0.020808,0.009473,0.000503,-0.13,-0.41,9.72
2868024650,0.031391,-0.011832,0.007960,-0.07,-0.35,9.73
2868025665,-0.011220,-0.001180,0.011156,-0.07,-0.35,9.75
2868026673,-0.037852,0.017995,0.007960,-0.18,-0.48,9.64
2868027687,0.021804,-0.001180,0.009026,-0.06,-0.44,9.66
2868028701,0.016477,-0.009702,0.011156,-0.06,-0.48,9.70
2868029707,-0.044244,0.014800,0.010091,-0.28,-0.56,9.58
2868030714,-0.002698,0.009473,0.007960,-0.09,-0.41,9.65
2868031722,0.038848,-0.008637,0.011156,-0.04,-0.59,9.62
2868032753,-0.017612,0.008408,0.010091,-0.36,-0.61,9.57
2868033775,-0.018677,0.015865,0.003699,-0.08,-0.35,9.69
2868034773,0.047370,-0.008637,0.006895,0.03,-0.74,9.59
2868035776,0.016477,-0.003310,0.012222,-0.43,-0.65,9.56
2868036787,-0.037852,0.017995,0.005830,-0.13,-0.43,9.62
2868037792,0.015412,0.003082,0.003699,0.09,-0.83,9.54
2868038807,0.033522,-0.007571,0.007960,-0.36,-0.55,9.43
2868039815,-0.029330,0.008408,0.001569,-0.14,-0.37,9.63
2868040819,-0.011220,0.005212,-0.003758,0.04,-0.88,9.83
2868041827,0.040979,-0.015028,0.003699,-0.31,-0.56,9.74
2868042835,-0.000567,-0.011832,0.003699,-0.10,-0.48,9.54
2868043873,-0.032526,0.005212,-0.003758,0.02,-0.88,9.69
2868044861,0.022869,-0.003310,-0.000562,-0.21,-0.48,9.79
2868045863,0.029260,-0.017159,0.003699,0.00,-0.57,9.50
2868046879,-0.032526,0.003082,-0.001627,0.07,-0.89,9.66
2868047893,-0.010155,0.009473,-0.002692,-0.17,-0.44,9.72
2868048912,0.039913,-0.012898,0.004765,0.00,-0.57,9.57
2868049903,-0.012285,-0.004375,0.007960,0.10,-0.79,9.81
2868050920,-0.039983,0.016930,0.005830,-0.10,-0.38,9.82
2868051918,0.024999,-0.000114,0.006895,-0.02,-0.54,9.64
2868052927,0.027130,-0.013963,0.011156,0.10,-0.70,9.81
2868053938,-0.038917,0.010538,0.010091,-0.03,-0.36,9.83
2868054947,-0.021873,0.017995,0.004765,-0.06,-0.51,9.65
2868055958,0.044174,-0.006506,0.006895,0.03,-0.67,9.79
2868056967,0.017542,-0.005441,0.012222,-0.01,-0.35,9.83
2868057978,-0.046374,0.017995,0.007960,0.01,-0.39,9.74
2868058991,-0.005894,0.010538,0.003699,0.08,-0.57,9.85
2868060003,0.064415,-0.019289,0.009026,-0.06,-0.34,9.89
2868061007,0.027130,-0.020355,0.013287,-0.06,-0.36,9.71
2868062018,-0.045309,0.007343,0.006895,0.14,-0.53,9.88
2868063041,-0.012285,0.013734,0.000503,0.01,-0.25,10.02
2868064038,0.068676,-0.017159,0.003699,-0.01,-0.28,9.77
2868065047,0.035652,-0.021420,0.006895,0.23,-0.47,9.90
2868066058,-0.059158,0.015865,0.000503,0.07,-0.16,10.05
2868067067,-0.036787,0.020126,-0.006953,-0.06,-0.29,9.66
2868068094,0.053762,-0.018224,-0.003758,0.23,-0.40,9.90
2868069108,0.032456,-0.026746,0.002634,0.11,-0.09,10.12
2868070120,-0.062354,0.009473,-0.004823,-0.01,-0.26,9.69
2868071107,-0.048505,0.019061,-0.012280,0.24,-0.34,9.91
2868072118,0.046305,-0.010767,-0.004823,0.08,-0.07,10.12
2868073127,0.045240,-0.026746,0.001569,0.06,-0.17,9.74
2868074138,-0.044244,0.000951,-0.003758,0.28,-0.35,9.80
2868075147,-0.050636,0.023322,-0.008019,0.08,-0.05,10.15
2868076158,0.043109,-0.004375,-0.002692,0.02,-0.12,9.83
2868077167,0.054827,-0.023551,0.004765,0.28,-0.34,9.82
2868078183,-0.044244,0.009473,0.003699,0.15,-0.07,10.04
2868079191,-0.082594,0.039301,-0.003758,0.09,-0.08,9.78
2868080198,0.003694,0.012669,-0.002692,0.24,-0.21,9.78
2868081207,0.006890,-0.013963,0.014352,0.10,-0.08,9.90
2868082218,-0.066615,0.016930,0.007960,0.16,-0.35,9.75
2868083227,-0.031461,0.021191,0.003699,0.10,-0.04,9.96
2868084238,0.072937,-0.017159,0.010091,0.12,-0.05,9.86
2868085247,0.082525,-0.038464,0.015417,0.17,-0.31,9.87
2868086258,-0.019742,-0.003310,0.015417,0.08,-0.11,10.01
2868087267,-0.080463,0.038236,0.007960,0.07,-0.13,9.82
2868088283,-0.016547,0.025452,0.002634,0.18,-0.17,9.81
2868089291,0.079329,-0.020355,0.007960,0.13,-0.08,9.87
2868090298,0.075068,-0.039530,0.016483,0.08,-0.16,9.85
2868091307,-0.020808,-0.010767,0.015417,0.13,-0.20,9.86
2868092318,-0.080463,0.026518,0.006895,0.12,-0.05,9.96
2868093327,-0.016547,0.022257,0.000503,0.11,-0.12,9.82
2868094338,0.078263,-0.018224,0.002634,0.14,-0.26,9.66
2868095347,0.064415,-0.037399,0.006895,0.12,-0.12,9.79
2868096358,-0.043179,-0.006506,0.004765,0.10,-0.10,9.81
2868097367,-0.101769,0.029714,-0.002692,0.12,-0.21,9.77
2868098383,-0.034656,0.025452,-0.004823,0.07,-0.13,9.93
2868099391,0.074002,-0.017159,0.002634,0.09,-0.07,9.93
2868100398,0.080394,-0.042726,0.009026,0.13,-0.17,9.76
2868101407,-0.025069,-0.012898,0.005830,0.13,-0.08,9.87
2868102418,-0.110291,0.035040,-0.001627,0.10,-0.12,9.88
2868103427,-0.076202,0.040366,-0.005888,0.08,-0.28,9.81
2868104438,0.039913,-0.001180,-0.001627,0.06,-0.17,9.87
2868105447,0.099569,-0.041660,0.007960,0.08,-0.08,9.89
2868106458,0.035652,-0.036334,0.012222,0.09,-0.24,9.83
2868107467,-0.079398,0.011604,0.007960,0.09,-0.15,9.88
2868108483,-0.109226,0.048889,-0.003758,0.07,-0.10,9.84
2868109491,-0.013351,0.029714,-0.005888,0.04,-0.29,9.76
2868110498,0.098504,-0.022485,0.004765,0.11,-0.16,9.91
2868111507,0.093177,-0.045921,0.019679,0.10,-0.17,9.86
2868112518,-0.014416,-0.016094,0.021809,0.10,-0.30,9.82
2868113527,-0.093247,0.032909,0.011156,0.12,-0.09,10.00
2868114538,-0.042113,0.038236,0.000503,0.09,-0.03,9.94
2868115547,0.072937,-0.004375,0.002634,0.09,-0.22,9.81
2868116558,0.094243,-0.036334,0.012222,0.09,-0.18,9.89
2868117567,-0.000567,-0.013963,0.017548,0.06,-0.09,10.00
2868118583,-0.081529,0.023322,0.009026,0.05,-0.20,9.97
2868119591,-0.037852,0.027583,-0.000562,0.09,-0.14,9.89
2868120598,0.077198,-0.012898,0.004765,0.06,-0.09,9.84
2868121610,0.104895,-0.042726,0.014352,0.05,-0.23,9.86
2868122620,0.002628,-0.020355,0.014352,0.04,-0.17,9.96
2868123634,-0.095377,0.026518,0.002634,0.00,-0.13,9.93
2868124643,-0.063419,0.032909,-0.009084,0.09,-0.21,9.86
2868125651,0.052697,-0.010767,-0.004823,0.04,-0.11,9.90
2868126667,0.081459,-0.044856,0.006895,-0.03,-0.06,9.91
2868127674,-0.005894,-0.025681,0.009026,0.06,-0.23,9.88
2868128692,-0.091116,0.022257,0.000503,0.06,-0.15,9.95
2868129702,-0.055962,0.033975,-0.004823,0.02,-0.05,9.92
2868130704,0.052697,-0.001180,-0.003758,0.08,-0.27,9.88
2868131718,0.078263,-0.032073,0.003699,0.00,-0.22,9.98
2868132724,-0.018677,-0.011832,0.003699,-0.07,-0.07,9.83
2868133729,-0.103900,0.027583,-0.003758,0.06,-0.32,9.77
2868134749,-0.061288,0.032909,-0.006953,0.04,-0.20,10.05
2868135754,0.063349,-0.004375,0.000503,-0.09,-0.05,9.85
2868136767,0.109157,-0.039530,0.013287,0.02,-0.40,9.74
2868137770,0.010085,-0.018224,0.015417,0.02,-0.26,10.06
2868138784,-0.093247,0.036105,0.004765,-0.13,-0.15,9.90
2868139830,-0.066615,0.045693,-0.005888,0.06,-0.40,9.75
2868140801,0.056958,-0.002245,0.000503,0.02,-0.22,9.95
2868141810,0.093177,-0.038464,0.011156,-0.14,-0.09,9.86
2868142822,0.005824,-0.021420,0.014352,0.05,-0.45,9.78
2868143829,-0.077268,0.023322,0.006895,0.00,-0.32,10.02
2868144838,-0.027199,0.029714,0.001569,-0.14,-0.16,9.88
2868145847,0.078263,-0.010767,0.005830,-0.07,-0.42,9.77
2868146879,0.077198,-0.033138,0.016483,-0.09,-0.37,9.86
2868147867,-0.028265,-0.002245,0.015417,-0.10,-0.27,9.75
2868148883,-0.081529,0.032909,0.002634,-0.02,-0.40,9.72
2868149891,-0.004829,0.020126,-0.002692,-0.04,-0.34,9.87
2868150898,0.086786,-0.023551,0.005830,-0.11,-0.28,9.83
2868151907,0.054827,-0.034203,0.011156,-0.08,-0.35,9.66
2868152918,-0.058093,0.000951,0.005830,-0.03,-0.37,9.66
2868153927,-0.081529,0.029714,-0.004823,-0.11,-0.40,9.76
2868154938,0.020738,0.005212,-0.004823,-0.13,-0.41,9.76
2868155947,0.093177,-0.037399,0.005830,-0.02,-0.40,9.69
2868156958,0.017542,-0.027812,0.007960,-0.05,-0.38,9.75
2868157967,-0.088986,0.021191,-0.000562,-0.16,-0.46,9.69
2868158983,-0.070876,0.035040,-0.010149,-0.07,-0.41,9.72
2868159991,0.042044,-0.005441,-0.006953,-0.06,-0.40,9.74
2868160998,0.067611,-0.038464,0.003699,-0.15,-0.43,9.68
2868162007,-0.027199,-0.020355,0.005830,-0.01,-0.41,9.66
2868163018,-0.097508,0.023322,-0.002692,-0.05,-0.59,9.69
2868164027,-0.027199,0.024387,-0.003758,-0.24,-0.52,9.76
2868165038,0.079329,-0.019289,0.002634,-0.02,-0.40,9.74
2868166047,0.054827,-0.033138,0.009026,-0.02,-0.58,9.62
2868167058,-0.065550,0.010538,0.005830,-0.23,-0.47,9.64
2868168071,-0.103900,0.046758,-0.003758,-0.04,-0.43,9.76
2868169083,0.004759,0.021191,-0.003758,-0.02,-0.67,9.78
2868170087,0.098504,-0.029942,0.011156,-0.23,-0.48,9.69
2868171098,0.047370,-0.039530,0.019679,-0.04,-0.50,9.55
2868172107,-0.068745,0.006277,0.013287,0.03,-0.65,9.66
2868173118,-0.066615,0.035040,0.003699,-0.21,-0.55,9.60
2868174127,0.048436,0.004147,0.004765,-0.03,-0.50,9.59
2868175138,0.097438,-0.033138,0.012222,0.01,-0.57,9.70
2868176147,0.004759,-0.015028,0.012222,-0.21,-0.48,9.58
2868177158,-0.086855,0.028648,-0.000562,-0.03,-0.54,9.57
2868178171,-0.039983,0.030779,-0.005888,0.01,-0.66,9.67
2868179183,0.077198,-0.012898,0.003699,-0.19,-0.38,9.72
2868180187,0.092112,-0.045921,0.013287,-0.11,-0.49,9.68
2868181198,-0.100704,0.035040,-0.004823,-0.08,-0.42,9.77
2868182207,-0.030395,0.035040,-0.011215,-0.07,-0.48,9.70
2868183218,0.084655,-0.015028,-0.003758,-0.04,-0.66,9.73
2868184227,0.072937,-0.042726,0.006895,-0.09,-0.43,9.72
2868185238,-0.048505,-0.012898,0.003699,-0.03,-0.49,9.58
2868186247,-0.106030,0.029714,-0.008019,0.04,-0.63,9.64
2868187258,-0.012285,0.025452,-0.009084,-0.13,-0.39,9.79
2868188271,0.101700,-0.021420,0.002634,-0.09,-0.47,9.78
2868189283,0.063349,-0.039530,0.009026,0.09,-0.57,9.92
2868190287,-0.078333,0.005212,0.000503,-0.08,-0.42,9.85
2868191298,-0.120944,0.046758,-0.011215,-0.03,-0.47,9.71
2868192307,-0.006959,0.023322,-0.005888,0.09,-0.53,9.89
2868193318,0.100634,-0.028877,0.011156,-0.11,-0.35,9.87
2868194327,0.058023,-0.043791,0.018613,-0.05,-0.45,9.66
2868195338,-0.069811,-0.000114,0.007960,0.10,-0.61,9.82
2868196347,-0.100704,0.045693,-0.004823,-0.04,-0.38,9.86
2868197358,0.007955,0.032909,-0.004823,-0.03,-0.45,9.59
2868198371,0.104895,-0.018224,0.006895,0.14,-0.55,9.84
2868199383,0.056958,-0.033138,0.016483,0.00,-0.27,9.90
2868200387,-0.065550,0.002016,0.010091,-0.03,-0.41,9.58
2868201398,-0.095377,0.036105,-0.000562,0.14,-0.50,9.88
2868202407,0.017542,0.020126,-0.000562,-0.02,-0.26,10.02
2868203418,0.132593,-0.031007,0.009026,-0.01,-0.41,9.75
2868204427,0.087851,-0.043791,0.015417,0.14,-0.48,9.88
2868205438,-0.057027,0.004147,0.007960,0.02,-0.25,9.89
2868206447,-0.108161,0.046758,-0.006953,0.04,-0.33,9.78
2868207458,-0.008024,0.028648,-0.011215,0.11,-0.43,9.91
2868208471,0.102765,-0.022485,0.000503,0.09,-0.27,9.94
2868209483,0.066545,-0.042726,0.009026,0.05,-0.33,9.92
2868210487,-0.067680,-0.005441,0.001569,0.02,-0.36,9.91
2868211498,-0.108161,0.037171,-0.011215,0.10,-0.24,9.90
2868212507,0.010085,0.022257,-0.010149,0.07,-0.28,9.92
2868213518,0.125136,-0.031007,0.004765,0.05,-0.28,9.83
2868214527,0.070806,-0.043791,0.012222,0.16,-0.23,9.84
2868215538,-0.079398,0.009473,0.002634,0.07,-0.19,9.97
2868216547,-0.124140,0.056346,-0.011215,0.04,-0.28,9.81
2868217558,-0.011220,0.031844,-0.010149,0.17,-0.30,9.89
2868218571,0.107026,-0.031007,0.004765,0.11,-0.17,9.99
2868219583,0.063349,-0.053378,0.014352,0.10,-0.23,9.74
2868220587,-0.075137,-0.009702,0.006895,0.17,-0.30,9.82
2868221598,-0.122009,0.043562,-0.006953,0.09,-0.13,9.97
2868222621,-0.005894,0.032909,-0.010149,0.11,-0.11,9.88
2868223639,0.115548,-0.020355,0.002634,0.13,-0.17,9.92
2868224649,0.072937,-0.038464,0.014352,0.04,-0.07,9.94
2868225643,-0.078333,0.008408,0.009026,0.09,-0.13,9.86
2868226651,-0.133727,0.055280,-0.003758,0.09,-0.24,9.87
2868227666,-0.021873,0.035040,-0.003758,0.09,-0.07,9.91
2868228681,0.117679,-0.028877,0.012222,0.16,-0.10,9.88
2868229690,0.100634,-0.056574,0.022874,0.13,-0.30,9.81
2868230696,-0.042113,-0.017159,0.014352,0.15,-0.15,9.81
2868231703,-0.128401,0.040366,-0.004823,0.12,-0.11,9.87
2868232716,-0.043179,0.041432,-0.011215,0.11,-0.17,9.84
2868233723,0.107026,-0.012898,0.004765,0.15,-0.17,9.78
2868234730,0.127266,-0.050183,0.022874,0.11,-0.12,9.89
2868235749,-0.011220,-0.020355,0.020744,0.10,-0.16,9.75
2868236774,-0.125205,0.035040,0.000503,0.14,-0.21,9.76
2868237785,-0.067680,0.042497,-0.014410,0.15,-0.11,9.85
2868238802,0.089981,-0.010767,-0.002692,0.16,-0.17,9.73
2868239793,0.136854,-0.055509,0.016483,0.16,-0.22,9.83
2868240795,0.021804,-0.035269,0.017548,0.16,-0.11,9.74
2868241809,-0.114552,0.025452,0.000503,0.13,-0.07,9.74
2868242823,-0.097508,0.049954,-0.015476,0.10,-0.09,9.90
2868243826,0.043109,0.011604,-0.014410,0.15,-0.17,9.82
2868244834,0.130462,-0.041660,0.001569,0.14,-0.17,9.80
2868245854,0.040979,-0.039530,0.011156,0.11,-0.09,9.84
2868246863,-0.113487,0.014800,0.000503,0.09,-0.12,9.86
2868247872,-0.140119,0.054215,-0.016541,0.07,-0.14,9.78
2868248883,-0.001633,0.027583,-0.015476,0.14,-0.17,9.80
2868249908,0.129397,-0.036334,0.000503,0.12,-0.14,9.88
2868250902,0.100634,-0.058705,0.015417,0.11,-0.20,9.78
2868251910,-0.045309,-0.013963,0.010091,0.12,-0.12,9.94
2868252907,-0.132662,0.045693,-0.006953,0.08,-0.07,9.85
2868253941,-0.063419,0.049954,-0.014410,0.13,-0.27,9.76
2868254930,0.076133,0.002016,-0.001627,0.11,-0.17,9.91
2868255938,0.109157,-0.042726,0.013287,0.11,-0.13,9.80
2868256947,-0.004829,-0.032073,0.014352,0.09,-0.17,9.82
2868257958,-0.117748,0.017995,0.004765,0.12,-0.18,9.85
2868258971,-0.093247,0.047823,-0.004823,0.14,-0.20,9.87
2868259983,0.047370,0.019061,0.000503,0.02,-0.10,9.89
2868260987,0.145376,-0.033138,0.014352,0.09,-0.23,9.71
2868261998,0.093177,-0.046987,0.023940,0.12,-0.17,9.85
2868263007,-0.057027,-0.003310,0.014352,0.03,-0.09,9.87
2868264018,-0.142250,0.048889,-0.005888,0.07,-0.29,9.81
2868265027,-0.073006,0.052084,-0.013345,0.07,-0.17,9.95
2868266038,0.089981,-0.003310,0.000503,0.05,-0.12,9.89
2868267056,0.158159,-0.056574,0.017548,0.01,-0.20,9.91
2868268087,0.064415,-0.052313,0.020744,0.03,-0.23,9.90
2868269088,-0.088986,0.004147,0.007960,0.11,-0.21,9.91
2868270078,-0.142250,0.054215,-0.010149,0.05,-0.15,9.97
2868271098,-0.057027,0.049954,-0.017606,0.06,-0.25,9.88
2868272098,0.084655,-0.001180,-0.010149,0.06,-0.22,9.90
2868273107,0.142180,-0.051248,0.005830,0.06,-0.08,9.94
2868274118,0.043109,-0.046987,0.013287,0.02,-0.14,9.88
2868275127,-0.100704,0.002016,0.004765,0.01,-0.24,9.91
2868276138,-0.150772,0.048889,-0.011215,0.10,-0.18,9.92
2868277147,-0.061288,0.048889,-0.018672,0.01,-0.16,9.89
2868278163,0.078263,0.003082,-0.011215,0.06,-0.23,9.86
2868279171,0.141115,-0.042726,0.005830,0.06,-0.24,9.94
2868280178,0.053762,-0.041660,0.013287,0.00,-0.13,10.03
2868281187,-0.102834,0.004147,0.003699,0.01,-0.18,9.92
2868282198,-0.086855,0.048889,-0.017606,0.08,-0.15,9.99
2868283207,0.074002,-0.000114,-0.006953,-0.03,-0.15,9.96
2868284218,0.154964,-0.051248,0.007960,0.07,-0.33,9.82
2868285227,0.088916,-0.054444,0.019679,0.12,-0.20,9.92
2868286238,-0.064484,-0.001180,0.014352,-0.01,-0.06,9.89
2868287247,-0.156098,0.055280,-0.002692,-0.02,-0.31,9.79
2868288263,-0.094312,0.057411,-0.014410,-0.03,-0.28,9.94
2868289271,0.074002,-0.001180,-0.005888,0.01,-0.18,9.86
2868290278,0.154964,-0.058705,0.014352,-0.04,-0.31,9.82
2868291287,0.072937,-0.058705,0.025005,0.00,-0.29,9.95
2868292298,-0.069811,-0.004375,0.017548,0.06,-0.22,9.94
2868293307,-0.120944,0.047823,0.000503,-0.05,-0.23,9.93
2868294318,-0.032526,0.047823,-0.008019,0.04,-0.30,9.81
2868295327,0.100634,0.002016,0.001569,0.07,-0.28,9.85
2868296338,0.131527,-0.040595,0.016483,-0.03,-0.25,9.95
2868297347,0.016477,-0.031007,0.018613,-0.08,-0.34,9.84
2868298363,-0.112422,0.015865,0.004765,0.02,-0.29,9.83
2868299371,-0.119879,0.046758,-0.009084,0.04,-0.27,9.87
2868300378,0.011151,0.020126,-0.008019,-0.14,-0.29,9.90
2868301387,0.141115,-0.036334,0.004765,0.00,-0.31,9.83
2868302398,0.145376,-0.065096,0.016483,0.04,-0.39,9.82
2868303407,0.014347,-0.034203,0.014352,-0.10,-0.21,9.80
2868304418,-0.125205,0.024387,-0.001627,-0.03,-0.34,9.69
2868305427,-0.149707,0.056346,-0.017606,-0.06,-0.42,9.86
2868306438,-0.036787,0.037171,-0.020802,-0.04,-0.26,9.82
2868307447,0.110222,-0.019289,-0.008019,-0.03,-0.28,9.78
2868308463,0.145376,-0.058705,0.006895,-0.07,-0.33,9.78
2868309471,0.047370,-0.045921,0.013287,-0.02,-0.35,9.68
2868310478,-0.096443,0.011604,0.001569,-0.04,-0.33,9.84
2868311487,-0.149707,0.058476,-0.014410,-0.11,-0.40,9.86
2868312498,-0.068745,0.055280,-0.021867,0.02,-0.34,9.74
2868313507,0.076133,0.004147,-0.011215,0.04,-0.37,9.72
2868314518,0.138984,-0.048052,0.006895,-0.15,-0.37,9.75
2868315527,0.065480,-0.056574,0.015417,-0.01,-0.37,9.72
2868316538,-0.067680,-0.015028,0.009026,0.04,-0.49,9.73
2868317547,-0.147576,0.041432,-0.006953,-0.14,-0.37,9.73
2868318563,-0.103900,0.057411,-0.016541,-0.06,-0.42,9.66
2868319571,0.024999,0.025452,-0.012280,0.00,-0.40,9.79
2868320578,0.134723,-0.028877,0.003699,-0.03,-0.32,9.75
2868321587,0.124070,-0.057639,0.020744,-0.05,-0.46,9.69
2868322598,0.009020,-0.037399,0.025005,-0.04,-0.50,9.70
2868323610,-0.110291,0.012669,0.015417,-0.03,-0.42,9.67
2868324620,-0.139054,0.053150,0.000503,-0.11,-0.37,9.76
2868325633,-0.050636,0.046758,-0.006953,-0.10,-0.43,9.72
2868326644,0.083590,0.005212,0.000503,-0.05,-0.40,9.75
2868327652,0.157094,-0.041660,0.016483,-0.04,-0.46,9.75
2868328670,0.099569,-0.054444,0.026070,-0.10,-0.47,9.72
2868329679,-0.039983,-0.020355,0.021809,-0.11,-0.48,9.71
2868330687,-0.140119,0.027583,0.004765,-0.01,-0.46,9.74
2868331699,-0.117748,0.049954,-0.012280,-0.03,-0.46,9.79
2868332706,0.013281,0.025452,-0.014410,-0.12,-0.50,9.77
2868333715,0.137919,-0.024616,-0.002692,-0.08,-0.41,9.72
2868334722,0.147507,-0.054444,0.012222,-0.02,-0.46,9.67
2868335731,0.028195,-0.037399,0.017548,-0.13,-0.46,9.72
2868336748,-0.111357,0.013734,0.006895,-0.07,-0.49,9.76
2868337754,-0.153968,0.053150,-0.011215,0.00,-0.51,9.73
2868338772,-0.058093,0.045693,-0.019737,-0.05,-0.42,9.67
2868339776,0.089981,-0.005441,-0.010149,-0.07,-0.44,9.69
2868340782,0.150702,-0.051248,0.006895,-0.02,-0.44,9.74
2868341787,0.069741,-0.048052,0.014352,0.02,-0.54,9.74
2868342801,-0.081529,-0.000114,0.005830,-0.14,-0.50,9.77
2868343810,-0.159294,0.044627,-0.011215,-0.05,-0.38,9.75
2868344830,-0.092182,0.044627,-0.019737,-0.01,-0.51,9.69
2868345829,0.065480,-0.002245,-0.009084,-0.13,-0.43,9.80
2868346838,0.152833,-0.050183,0.009026,-0.06,-0.52,9.73
2868347847,0.083590,-0.053378,0.020744,-0.02,-0.56,9.70
2868348863,-0.069811,-0.003310,0.013287,-0.05,-0.49,9.70
2868349871,-0.157164,0.052084,-0.003758,-0.05,-0.52,9.67
2868350886,-0.093247,0.056346,-0.016541,-0.05,-0.42,9.74
2868351887,0.060154,0.009473,-0.009084,-0.01,-0.55,9.62
2868352898,0.148572,-0.041660,0.010091,-0.12,-0.47,9.70
2868353907,0.084655,-0.051248,0.022874,-0.07,-0.45,9.65
2868354918,-0.060223,-0.005441,0.016483,0.10,-0.59,9.68
2868355927,-0.141184,0.048889,0.000503,-0.06,-0.42,9.83
2868356938,-0.076202,0.056346,-0.010149,-0.01,-0.46,9.70
2868357947,0.067611,0.010538,-0.003758,0.07,-0.52,9.78
2868358963,0.142180,-0.040595,0.015417,-0.06,-0.38,9.88
2868359999,0.059088,-0.044856,0.025005,-0.05,-0.45,9.82
2868360978,-0.077268,-0.001180,0.014352,-0.01,-0.54,9.80
2868361987,-0.116683,0.040366,-0.003758,-0.02,-0.44,9.74
2868362998,-0.009090,0.028648,-0.010149,-0.08,-0.41,9.72
2868364007,0.123005,-0.025681,0.002634,-0.05,-0.52,9.73
2868365018,0.124070,-0.056574,0.017548,0.04,-0.53,9.77
2868366027,-0.012285,-0.022485,0.015417,0.01,-0.44,9.85
2868367050,-0.125205,0.035040,-0.002692,-0.03,-0.48,9.78
2868368051,-0.079398,0.043562,-0.015476,-0.02,-0.48,9.73
2868369063,0.064415,-0.004375,-0.010149,0.06,-0.43,9.86
2868370067,0.117679,-0.051248,0.005830,-0.02,-0.40,9.89
2868371078,0.012216,-0.043791,0.009026,-0.02,-0.40,9.73
2868372087,-0.110291,0.007343,-0.004823,0.13,-0.42,9.87
2868373098,-0.100704,0.041432,-0.016541,-0.03,-0.35,9.93
2868374107,0.036717,0.013734,-0.012280,-0.04,-0.43,9.70
2868375118,0.125136,-0.034203,0.004765,0.07,-0.51,9.79
2868376127,0.055892,-0.036334,0.014352,0.00,-0.30,9.92
2868377138,-0.092182,0.009473,0.004765,0.01,-0.32,9.85
2868378151,-0.144380,0.047823,-0.012280,-0.01,-0.39,9.81
2868379163,-0.039983,0.032909,-0.017606,0.07,-0.31,9.90
2868380167,0.104895,-0.020355,-0.003758,0.04,-0.31,9.92
2868381178,0.110222,-0.049117,0.013287,-0.01,-0.31,9.82
2868382187,-0.120944,0.035040,-0.001627,0.04,-0.24,9.96
2868383198,-0.077268,0.048889,-0.012280,0.02,-0.28,9.86
2868384207,0.058023,0.007343,-0.002692,0.16,-0.38,9.90
2868385218,0.115548,-0.034203,0.016483,0.05,-0.22,9.95
