time_us,gyro_x_rad_s,gyro_y_rad_s,gyro_z_rad_s,acc_x_m_s2,acc_y_m_s2,acc_z_m_s2
26392020,0.001147,-0.000608,0.002536,-0.06,-0.27,9.78
26392775,0.000082,-0.001673,0.003601,-0.05,-0.29,9.84
26393791,0.000082,-0.001673,0.003601,-0.06,-0.30,9.80
26394791,0.002212,-0.000608,0.001471,-0.05,-0.32,9.79
26395801,0.002212,-0.001673,0.000405,-0.02,-0.31,9.80
26396811,0.001147,-0.000608,0.000405,0.00,-0.32,9.80
26397821,0.002212,0.001523,0.001471,-0.01,-0.33,9.82
26398836,0.002212,0.002588,0.002536,-0.04,-0.31,9.81
26399859,0.001147,0.000457,-0.000660,-0.05,-0.31,9.82
26400852,0.000082,-0.000608,-0.000660,-0.03,-0.34,9.82
26401861,0.000082,-0.001673,0.000405,0.00,-0.34,9.78
26402871,0.001147,-0.001673,0.002536,-0.02,-0.29,9.78
26403889,0.001147,0.000457,0.003601,-0.05,-0.30,9.85
26404891,0.001147,0.002588,0.002536,-0.05,-0.30,9.81
26405901,-0.000984,0.001523,0.001471,-0.07,-0.29,9.80
26406911,-0.004179,-0.001673,0.000405,-0.05,-0.27,9.81
26407925,-0.005245,-0.002738,0.001471,-0.02,-0.29,9.81
26408945,-0.000984,-0.002738,0.002536,0.00,-0.31,9.84
26409963,-0.000984,-0.001673,0.002536,0.00,-0.30,9.83
26410962,-0.003114,-0.001673,0.002536,0.00,-0.27,9.82
26411970,-0.003114,-0.001673,0.001471,-0.01,-0.28,9.82
26412977,-0.002049,0.000457,0.000405,-0.04,-0.32,9.80
26414002,-0.000984,0.002588,-0.000660,-0.06,-0.31,9.78
26414999,-0.000984,0.005784,-0.000660,-0.05,-0.28,9.82
26416011,-0.000984,0.004718,-0.001725,-0.01,-0.28,9.82
26417024,-0.000984,0.001523,-0.001725,0.00,-0.29,9.79
26418030,0.002212,0.002588,-0.002791,-0.02,-0.28,9.84
26419045,0.004343,0.001523,-0.000660,-0.03,-0.30,9.88
26420071,0.005408,-0.000608,0.001471,-0.02,-0.29,9.85
26421059,0.003278,-0.000608,0.003601,0.01,-0.30,9.83
26422095,0.002212,-0.000608,0.000405,-0.02,-0.33,9.81
26423079,0.003278,0.000457,-0.001725,-0.04,-0.32,9.79
26424105,0.004343,0.000457,-0.002791,-0.04,-0.28,9.78
26425098,0.002212,0.000457,-0.001725,-0.02,-0.28,9.77
26426105,0.000082,-0.000608,-0.001725,-0.02,-0.29,9.80
26427119,-0.000984,0.000457,-0.002791,-0.04,-0.28,9.79
26428121,0.000082,0.004718,-0.003856,-0.03,-0.27,9.83
26429146,0.001147,0.004718,-0.002791,-0.02,-0.28,9.89
26430164,0.004343,0.001523,-0.001725,-0.05,-0.30,9.83
26431156,0.002212,0.000457,-0.000660,-0.03,-0.30,9.82
26432163,0.002212,-0.000608,-0.000660,-0.02,-0.29,9.82
26433173,0.003278,-0.001673,-0.000660,-0.04,-0.31,9.78
26434191,0.001147,-0.000608,-0.000660,-0.04,-0.33,9.76
26435191,-0.000984,-0.000608,-0.000660,-0.04,-0.34,9.78
26436201,-0.000984,-0.000608,-0.000660,-0.02,-0.34,9.80
26437211,0.001147,-0.000608,0.000405,0.02,-0.34,9.82
26438221,0.003278,0.000457,-0.000660,0.02,-0.31,9.84
26439237,0.002212,0.001523,0.000405,-0.02,-0.32,9.83
26440257,0.001147,0.000457,0.000405,0.00,-0.32,9.85
26441252,-0.000984,-0.002738,0.000405,-0.01,-0.27,9.83
26442261,-0.003114,-0.002738,0.000405,-0.02,-0.28,9.79
26443271,-0.000984,0.000457,0.001471,0.00,-0.31,9.81
26444289,0.001147,0.001523,0.002536,0.01,-0.33,9.82
26445291,0.000082,-0.000608,0.002536,0.03,-0.32,9.83
26446301,-0.002049,-0.001673,0.000405,0.00,-0.30,9.88
26447311,-0.003114,-0.000608,-0.001725,-0.02,-0.29,9.87
26448321,-0.002049,0.001523,-0.000660,-0.02,-0.28,9.81
26449335,0.000082,0.001523,0.000405,-0.01,-0.29,9.78
26450358,0.000082,-0.000608,0.001471,-0.02,-0.32,9.87
26451352,0.000082,-0.001673,0.000405,-0.03,-0.28,9.86
26452361,0.001147,-0.000608,-0.000660,-0.04,-0.28,9.82
26453371,0.000082,-0.000608,0.001471,-0.06,-0.30,9.86
26454392,-0.000984,-0.002738,0.000405,-0.05,-0.30,9.80
26455391,0.000082,-0.002738,-0.000660,-0.04,-0.31,9.78
26456401,-0.002049,-0.001673,0.000405,-0.05,-0.28,9.81
26457411,-0.000984,-0.000608,0.000405,-0.03,-0.27,9.83
26458421,0.001147,0.000457,-0.001725,-0.02,-0.29,9.85
26459435,0.003278,0.000457,-0.000660,0.00,-0.28,9.85
26460458,0.004343,0.000457,-0.000660,0.00,-0.28,9.82
26461452,0.005408,0.000457,-0.000660,-0.01,-0.25,9.81
26462461,0.003278,0.000457,-0.000660,-0.02,-0.26,9.81
26463471,0.002212,0.000457,-0.000660,-0.02,-0.29,9.78
26464488,0.001147,-0.000608,-0.002791,-0.01,-0.32,9.80
26465491,0.000082,-0.000608,-0.001725,0.00,-0.30,9.82
26466501,-0.000984,-0.000608,0.000405,0.00,-0.28,9.82
26467511,-0.000984,0.000457,0.002536,-0.04,-0.30,9.79
26468521,0.000082,0.000457,0.003601,-0.02,-0.32,9.82
26469535,0.001147,-0.000608,0.002536,0.01,-0.34,9.87
26470559,0.002212,0.000457,0.001471,-0.02,-0.33,9.85
26471552,0.001147,0.002588,0.001471,-0.04,-0.32,9.82
26472561,0.001147,0.001523,0.001471,-0.05,-0.30,9.83
26473571,0.003278,0.001523,0.003601,-0.02,-0.30,9.84
26474591,0.003278,0.000457,0.001471,0.01,-0.33,9.81
26475591,0.002212,-0.001673,-0.001725,0.00,-0.28,9.84
26476601,0.003278,-0.002738,-0.002791,0.02,-0.27,9.89
26477611,0.003278,-0.000608,-0.002791,0.00,-0.29,9.82
26478621,0.003278,0.001523,-0.000660,-0.01,-0.29,9.77
26479637,0.003278,0.003653,0.001471,-0.02,-0.30,9.78
26480657,0.002212,0.003653,0.001471,-0.03,-0.31,9.82
26481652,0.000082,0.002588,0.000405,-0.01,-0.31,9.84
26482693,-0.001085,-0.000634,0.000367,-0.01,-0.32,9.82
26483671,-0.003215,-0.002764,0.001432,-0.02,-0.33,9.85
26484689,-0.003215,-0.002764,0.002497,-0.03,-0.32,9.88
26485691,-0.004280,0.000431,0.001432,0.00,-0.30,9.88
26486701,-0.002150,0.002562,0.002497,0.01,-0.30,9.87
26487711,-0.000019,0.002562,0.001432,0.00,-0.30,9.86
26488721,-0.001085,0.000431,-0.000699,-0.02,-0.29,9.79
26489748,-0.003215,-0.001699,-0.001764,-0.04,-0.30,9.78
26490742,-0.001085,-0.001699,-0.001764,-0.04,-0.29,9.83
26491751,0.002111,-0.003830,-0.001764,-0.05,-0.28,9.83
26492761,0.002111,-0.002764,-0.000699,-0.02,-0.28,9.82
26493771,0.001046,-0.000634,0.000367,-0.01,-0.30,9.79
26494791,-0.000019,0.000431,0.000367,-0.01,-0.31,9.80
26495791,-0.001085,0.000431,-0.000699,0.00,-0.30,9.81
26496801,-0.002150,-0.001699,-0.000699,0.01,-0.30,9.81
26497811,-0.002150,-0.003830,-0.001764,-0.03,-0.29,9.81
26498821,-0.002150,-0.003830,-0.001764,-0.07,-0.28,9.80
26499848,-0.002150,-0.000634,-0.001764,-0.03,-0.28,9.78
26500842,-0.001085,0.000431,-0.001764,-0.02,-0.28,9.75
26501851,0.001046,-0.000634,0.000367,-0.01,-0.29,9.75
26502861,0.003177,-0.000634,0.002497,0.01,-0.29,9.82
26503871,0.003177,0.000431,0.001432,0.01,-0.30,9.86
26504888,0.001046,0.001497,0.001432,0.01,-0.32,9.84
26505891,0.001046,0.000431,0.000367,-0.01,-0.32,9.84
26506901,-0.001085,0.001497,0.000367,-0.04,-0.29,9.88
26507911,-0.001085,0.001497,0.000367,-0.04,-0.29,9.87
26508925,-0.001085,0.003627,0.002497,-0.01,-0.29,9.83
26509955,-0.000019,0.002562,0.002497,-0.03,-0.30,9.81
26510951,0.001046,0.000431,0.000367,-0.03,-0.32,9.81
26511955,0.002111,-0.000634,-0.001764,0.01,-0.32,9.82
26512969,0.002111,-0.001699,-0.002829,-0.01,-0.28,9.84
26513976,0.002111,-0.003830,-0.001764,-0.02,-0.28,9.88
26514998,0.001046,-0.003830,0.000367,-0.02,-0.30,9.87
26515999,-0.000019,-0.002764,0.000367,-0.02,-0.29,9.83
26517012,0.001046,-0.001699,0.000367,0.00,-0.31,9.87
26518021,-0.000019,-0.000634,0.002497,-0.01,-0.32,9.87
26519031,-0.000019,-0.000634,0.002497,-0.01,-0.29,9.85
26520061,0.002111,0.000431,0.001432,-0.01,-0.29,9.84
26521055,0.002111,0.000431,0.000367,-0.04,-0.31,9.80
26522064,-0.000019,0.000431,-0.001764,-0.07,-0.32,9.80
26523070,-0.000019,-0.001699,-0.001764,-0.02,-0.29,9.81
26524078,0.002111,-0.002764,-0.001764,-0.02,-0.29,9.84
26525097,0.002111,-0.000634,-0.000699,-0.01,-0.29,9.83
26526097,0.002111,-0.001699,-0.000699,0.00,-0.29,9.76
26527109,0.002111,-0.000634,0.001432,-0.02,-0.28,9.78
26528115,0.001046,0.001497,0.001432,-0.05,-0.30,9.78
26529121,-0.000019,0.002562,0.000367,-0.07,-0.28,9.78
26530153,-0.002150,0.000431,-0.000699,-0.07,-0.29,9.79
26531182,-0.004280,-0.000634,-0.000699,-0.02,-0.29,9.81
26532154,-0.002150,-0.000634,0.000367,0.03,-0.28,9.82
26533163,-0.001085,-0.000634,0.000367,0.02,-0.28,9.85
26534173,-0.001085,0.002562,-0.000699,-0.02,-0.28,9.83
26535190,-0.002150,0.004692,0.000367,-0.05,-0.28,9.82
26536191,-0.001085,0.003627,0.003562,-0.02,-0.30,9.83
26537201,-0.001085,0.001497,0.004628,-0.01,-0.27,9.84
26538211,-0.000019,0.000431,0.003562,-0.03,-0.24,9.84
26539221,0.002111,0.000431,0.000367,-0.02,-0.29,9.80
26540248,0.002111,0.000431,-0.002829,-0.02,-0.29,9.84
26541242,0.001046,-0.000634,-0.001764,0.01,-0.28,9.85
26542251,0.001046,-0.001699,0.001432,0.00,-0.28,9.84
26543261,0.001046,-0.001699,0.004628,-0.03,-0.29,9.85
26544271,0.002111,-0.002764,0.003562,-0.02,-0.30,9.84
26545288,0.003177,-0.001699,0.001432,-0.02,-0.29,9.79
26546291,0.002111,-0.000634,-0.000699,-0.03,-0.31,9.79
26547301,0.001046,0.001497,-0.002829,-0.02,-0.34,9.83
26548311,-0.000019,0.002562,-0.002829,0.00,-0.30,9.81
26549321,-0.001085,0.002562,-0.001764,-0.03,-0.26,9.81
26550349,-0.003215,0.003627,-0.001764,-0.03,-0.23,9.80
26551342,-0.002150,0.001497,-0.001764,0.00,-0.25,9.82
26552351,-0.000019,0.000431,0.000367,-0.02,-0.32,9.80
26553361,-0.000019,0.001497,0.001432,-0.02,-0.32,9.81
26554371,-0.001085,0.002562,0.001432,-0.02,-0.31,9.84
26555390,-0.000019,0.001497,0.001432,-0.01,-0.29,9.83
26556391,0.002111,0.000431,0.002497,-0.01,-0.29,9.84
26557401,0.002111,0.000431,0.004628,-0.06,-0.32,9.83
26558411,0.001046,0.001497,0.003562,-0.07,-0.34,9.81
26559421,-0.000019,0.004692,0.000367,-0.04,-0.32,9.80
26560448,-0.000019,0.002562,-0.001764,-0.01,-0.30,9.80
26561442,-0.000019,0.001497,-0.000699,0.02,-0.28,9.82
26562451,0.001046,0.000431,0.001432,0.01,-0.28,9.84
26563461,0.002111,0.000431,0.002497,-0.02,-0.30,9.85
26564471,0.001046,-0.000634,0.001432,-0.03,-0.31,9.83
26565488,-0.000019,-0.001699,0.000367,-0.02,-0.33,9.80
26566491,0.001046,-0.001699,0.000367,-0.05,-0.31,9.86
26567501,0.001046,-0.001699,0.000367,-0.05,-0.28,9.87
26568511,-0.000019,0.000431,0.001432,-0.02,-0.26,9.84
26569521,-0.002150,0.002562,0.000367,-0.02,-0.29,9.86
26570549,-0.002150,0.000431,-0.000699,-0.03,-0.30,9.88
26571542,-0.003215,-0.000634,-0.000699,-0.01,-0.28,9.85
26572551,-0.002150,0.001497,0.000367,-0.01,-0.30,9.85
26573561,-0.001085,0.002562,0.000367,-0.01,-0.30,9.86
26574571,0.001046,0.001497,0.000367,-0.02,-0.27,9.82
26575590,0.003177,0.000431,0.001432,-0.03,-0.27,9.78
26576591,0.003177,0.000431,0.002497,-0.02,-0.27,9.82
26577601,0.002111,0.001497,0.001432,-0.02,-0.26,9.85
26578611,-0.000019,0.001497,0.000367,-0.02,-0.30,9.82
26579621,-0.000019,0.001497,-0.000699,-0.04,-0.31,9.84
26580648,0.002111,0.001497,-0.000699,-0.03,-0.28,9.85
26581642,0.003177,0.001497,0.000367,-0.01,-0.30,9.85
26582651,0.001046,-0.000634,0.000367,0.00,-0.32,9.83
26583661,-0.001085,-0.001699,-0.000699,0.00,-0.30,9.78
26584671,-0.003215,0.001497,-0.001764,-0.03,-0.28,9.82
26585688,-0.003215,0.003627,-0.001764,-0.02,-0.28,9.80
26586691,-0.002150,0.002562,-0.001764,-0.01,-0.29,9.77
26587701,0.001046,-0.000634,-0.001764,-0.02,-0.30,9.82
26588711,0.003177,-0.000634,-0.001764,-0.01,-0.28,9.86
26589739,0.003177,0.002562,-0.001764,-0.04,-0.26,9.89
26590739,0.001046,0.004692,-0.001764,-0.04,-0.27,9.88
26591741,-0.002150,0.003627,-0.001764,-0.04,-0.28,9.86
26592751,-0.001085,0.001497,-0.000699,-0.03,-0.27,9.79
26593761,0.001046,-0.001699,-0.000699,0.00,-0.27,9.74
26594771,0.003177,-0.002764,0.000367,0.03,-0.30,9.74
26595789,0.002111,-0.001699,0.000367,0.04,-0.32,9.78
26596791,0.001046,-0.001699,0.000367,-0.02,-0.32,9.83
26597801,-0.000019,0.000431,-0.000699,-0.04,-0.32,9.79
26598811,-0.000019,0.000431,-0.000699,-0.01,-0.31,9.77
26599838,0.001046,0.001497,0.000367,0.02,-0.32,9.82
26600840,-0.000019,0.001497,0.000367,0.04,-0.32,9.85
26601841,-0.001085,0.001497,0.000367,0.02,-0.28,9.83
26602851,-0.001085,0.002562,0.001432,-0.01,-0.30,9.81
26603861,-0.001085,0.002562,0.002497,-0.02,-0.31,9.81
26604871,-0.000019,0.004692,0.001432,-0.02,-0.28,9.82
26605885,0.002111,0.004692,0.001432,-0.03,-0.29,9.82
26606891,0.001046,0.001497,0.002497,-0.02,-0.31,9.86
26607901,-0.002150,-0.001699,0.001432,0.02,-0.30,9.86
26608911,-0.003215,-0.001699,0.000367,-0.02,-0.27,9.83
26609945,-0.000019,-0.000634,0.000367,-0.08,-0.25,9.85
26610945,0.002111,-0.000634,0.000367,-0.07,-0.28,9.83
26611980,0.001030,-0.001738,-0.000730,-0.05,-0.29,9.78
26612957,-0.002166,-0.001738,-0.000730,-0.04,-0.31,9.80
26613970,-0.001100,-0.001738,0.000335,-0.02,-0.28,9.83
26614977,-0.000035,0.000392,0.000335,-0.01,-0.30,9.87
26615997,-0.001100,0.002523,0.000335,-0.02,-0.30,9.84
26616999,-0.000035,0.002523,-0.000730,-0.03,-0.28,9.84
26618014,0.002096,-0.001738,-0.001795,-0.03,-0.30,9.86
26619022,0.002096,-0.004934,-0.001795,-0.02,-0.30,9.85
26620047,-0.000035,-0.003869,-0.000730,-0.02,-0.32,9.83
26621055,-0.001100,-0.001738,0.001401,-0.02,-0.32,9.84
26622056,-0.001100,0.001458,0.001401,-0.01,-0.31,9.85
26623061,-0.001100,0.002523,0.000335,-0.01,-0.33,9.85
26624072,0.002096,0.002523,0.000335,-0.01,-0.29,9.83
26625080,0.003161,0.001458,-0.000730,-0.02,-0.28,9.81
26626095,0.003161,-0.000673,-0.002860,-0.02,-0.30,9.81
26627116,0.001030,-0.000673,-0.001795,-0.03,-0.31,9.79
26628105,-0.000035,0.001458,0.000335,-0.03,-0.30,9.78
26629115,0.001030,0.000392,-0.001795,-0.02,-0.31,9.81
26630140,-0.000035,0.000392,-0.001795,-0.02,-0.31,9.79
26631142,-0.001100,0.000392,0.000335,-0.02,-0.29,9.78
26632145,-0.001100,0.000392,0.002466,-0.02,-0.28,9.84
26633154,0.001030,-0.001738,0.002466,-0.04,-0.29,9.84
26634163,0.002096,-0.002803,0.001401,-0.06,-0.31,9.82
26635173,0.003161,-0.001738,0.002466,-0.03,-0.31,9.82
26636189,0.002096,0.000392,0.004597,-0.03,-0.34,9.83
26637191,0.001030,-0.000673,0.004597,-0.03,-0.32,9.86
26638201,0.001030,-0.000673,0.002466,-0.01,-0.29,9.84
26639211,0.001030,-0.001738,0.000335,-0.02,-0.30,9.82
26640238,0.002096,-0.001738,0.000335,-0.03,-0.30,9.79
26641240,0.002096,-0.001738,-0.000730,-0.02,-0.30,9.79
26642241,-0.000035,-0.000673,-0.000730,-0.03,-0.32,9.82
26643251,-0.000035,0.000392,0.001401,-0.06,-0.33,9.86
26644261,-0.000035,0.002523,0.000335,-0.07,-0.30,9.87
26645271,-0.000035,0.002523,-0.000730,-0.06,-0.31,9.82
26646285,-0.001100,-0.000673,-0.000730,-0.01,-0.33,9.77
26647291,-0.001100,-0.001738,0.000335,0.01,-0.31,9.76
26648301,-0.001100,-0.000673,-0.000730,-0.02,-0.29,9.80
26649311,0.001030,0.000392,-0.000730,-0.03,-0.31,9.82
26650338,-0.000035,0.000392,0.000335,-0.03,-0.32,9.82
26651340,-0.000035,-0.001738,0.001401,0.02,-0.27,9.81
26652341,0.001030,-0.002803,0.002466,-0.01,-0.26,9.78
26653351,0.003161,-0.002803,0.001401,-0.05,-0.28,9.78
26654361,0.004226,-0.001738,-0.000730,-0.03,-0.28,9.82
26655371,0.002096,-0.000673,0.000335,-0.01,-0.30,9.77
26656388,-0.000035,0.000392,0.001401,-0.01,-0.30,9.74
26657391,-0.000035,-0.000673,-0.000730,-0.03,-0.30,9.78
26658401,0.001030,-0.001738,-0.001795,-0.02,-0.30,9.82
26659411,0.002096,-0.000673,-0.000730,-0.02,-0.31,9.83
26660439,0.001030,0.000392,0.000335,0.00,-0.29,9.81
26661439,-0.000035,-0.001738,-0.000730,-0.01,-0.26,9.80
26662441,-0.001100,-0.002803,-0.001795,-0.02,-0.28,9.81
26663451,-0.001100,-0.001738,0.000335,-0.01,-0.28,9.82
26664461,0.001030,-0.002803,0.001401,-0.02,-0.27,9.85
26665471,0.003161,-0.002803,0.000335,-0.02,-0.29,9.87
26666485,0.002096,-0.000673,-0.000730,-0.01,-0.32,9.82
26667491,0.002096,0.001458,-0.000730,-0.04,-0.31,9.78
26668501,0.001030,0.000392,0.001401,-0.08,-0.31,9.77
26669511,-0.000035,-0.000673,0.001401,-0.07,-0.33,9.81
26670539,-0.001100,0.000392,0.000335,-0.04,-0.31,9.86
26671539,-0.002166,0.000392,-0.001795,-0.04,-0.29,9.90
26672541,-0.002166,-0.001738,-0.000730,-0.03,-0.29,9.92
26673551,-0.001100,-0.000673,0.001401,0.01,-0.26,9.84
26674561,-0.000035,0.000392,0.001401,0.02,-0.25,9.80
26675571,-0.000035,-0.001738,0.000335,-0.02,-0.28,9.83
26676589,0.001030,-0.002803,-0.000730,-0.05,-0.31,9.81
26677591,-0.000035,-0.002803,-0.000730,-0.05,-0.31,9.74
26678601,-0.001100,-0.001738,0.000335,-0.04,-0.29,9.74
26679611,-0.002166,0.000392,0.000335,-0.03,-0.30,9.79
26680638,-0.002166,0.002523,0.001401,-0.07,-0.30,9.84
26681640,-0.000035,0.003588,0.002466,-0.07,-0.31,9.83
26682641,-0.000035,0.003588,0.002466,-0.02,-0.31,9.78
26683651,-0.001100,-0.000673,0.002466,-0.02,-0.28,9.82
26684661,-0.001100,-0.001738,0.000335,-0.03,-0.29,9.84
26685671,-0.000035,-0.001738,-0.000730,0.00,-0.30,9.85
26686685,0.001030,-0.000673,-0.000730,0.01,-0.29,9.87
26687691,0.002096,0.000392,0.000335,-0.03,-0.32,9.83
26688701,0.001030,0.001458,-0.000730,-0.04,-0.34,9.82
26689711,-0.002166,0.000392,-0.000730,-0.02,-0.30,9.83
26690738,-0.003231,-0.001738,-0.001795,-0.04,-0.30,9.82
26691740,-0.003231,-0.004934,-0.000730,-0.01,-0.28,9.81
26692741,-0.000035,-0.002803,0.000335,0.02,-0.28,9.82
26693751,0.003161,0.002523,0.001401,-0.03,-0.30,9.85
26694761,0.004226,0.003588,-0.000730,-0.04,-0.27,9.90
26695771,0.002096,0.001458,-0.001795,-0.04,-0.29,9.87
26696788,-0.001100,-0.001738,0.000335,-0.03,-0.32,9.82
26697791,-0.001100,-0.004934,0.003531,0.00,-0.31,9.79
26698801,-0.000035,-0.004934,0.004597,0.01,-0.30,9.78
26699829,0.002096,-0.001738,0.002466,0.01,-0.32,9.79
26700822,0.002096,-0.000673,0.000335,0.00,-0.31,9.82
26701882,0.002096,0.000392,0.000335,0.01,-0.31,9.83
26702864,0.003161,0.000392,0.001401,-0.02,-0.32,9.84
26703851,0.004226,0.001458,0.000335,-0.05,-0.30,9.80
26704861,0.001030,0.001458,-0.001795,-0.01,-0.29,9.80
26705871,-0.001100,-0.000673,-0.000730,0.00,-0.28,9.80
26706886,-0.003231,-0.000673,0.000335,0.00,-0.30,9.77
26707891,-0.004296,0.000392,-0.000730,0.02,-0.32,9.81
26708901,-0.003231,-0.000673,-0.002860,-0.02,-0.31,9.83
26709929,-0.001100,-0.003869,-0.002860,-0.04,-0.28,9.79
26710926,-0.000035,-0.004934,-0.001795,-0.04,-0.27,9.78
26711945,-0.003231,-0.003869,-0.000730,-0.02,-0.30,9.80
26712952,-0.004296,-0.000673,-0.000730,0.00,-0.30,9.79
26713955,-0.002166,0.001458,-0.002860,-0.01,-0.28,9.82
26714973,0.001030,-0.000673,-0.003926,-0.03,-0.28,9.86
26715976,0.002096,0.000392,-0.003926,-0.05,-0.31,9.85
26716995,-0.000035,0.003588,-0.001795,-0.02,-0.34,9.81
26718001,-0.002166,0.003588,0.000335,0.01,-0.33,9.82
26719017,-0.003231,0.001458,0.000335,0.02,-0.30,9.82
26720040,-0.002166,-0.000673,0.000335,0.02,-0.26,9.77
26721033,-0.001100,0.000392,0.000335,0.01,-0.27,9.80
26722059,-0.002166,0.000392,0.000335,0.03,-0.28,9.84
26723053,-0.001100,-0.000673,0.000335,0.03,-0.29,9.87
26724060,-0.001100,-0.001738,-0.000730,-0.01,-0.30,9.89
26725072,-0.001100,-0.002803,-0.000730,-0.04,-0.30,9.78
26726079,0.002096,-0.002803,-0.001795,0.00,-0.31,9.79
26727098,0.001030,-0.000673,-0.000730,0.02,-0.34,9.78
26728098,-0.001100,0.000392,0.000335,0.01,-0.32,9.82
26729105,-0.003231,0.000392,0.000335,0.00,-0.29,9.87
26730132,-0.002166,-0.000673,-0.000730,-0.01,-0.31,9.82
26731123,-0.001100,-0.003869,-0.001795,-0.02,-0.29,9.81
26732141,0.002096,-0.003869,-0.000730,-0.05,-0.30,9.80
26733145,0.003161,-0.002803,0.000335,-0.03,-0.31,9.80
26734154,0.003161,-0.000673,-0.001795,0.00,-0.30,9.79
26735163,-0.000035,0.001458,-0.003926,-0.01,-0.29,9.81
26736206,-0.001100,0.000392,-0.004991,-0.01,-0.30,9.83
26737189,-0.000035,-0.002803,-0.003926,-0.01,-0.29,9.81
26738191,0.001030,-0.000673,-0.000730,-0.01,-0.27,9.81
26739201,0.001030,0.002523,0.001401,-0.02,-0.30,9.75
26740228,0.002096,0.004654,0.002466,-0.03,-0.32,9.79
26741251,0.002078,0.003649,-0.000720,-0.02,-0.30,9.86
26742239,0.003143,0.001519,-0.000720,0.00,-0.30,9.80
26743241,0.002078,-0.000612,0.001410,-0.02,-0.30,9.80
26744251,0.001012,-0.000612,0.001410,-0.02,-0.29,9.82
26745261,-0.000053,0.000453,-0.000720,-0.02,-0.30,9.81
26746271,-0.001118,-0.000612,-0.000720,-0.03,-0.31,9.80
26747285,-0.000053,-0.001677,-0.001785,-0.01,-0.30,9.81
26748291,0.001012,-0.000612,-0.002851,0.01,-0.34,9.83
26749301,0.001012,-0.000612,-0.001785,0.03,-0.34,9.86
26750328,0.001012,-0.002742,-0.000720,0.04,-0.31,9.87
26751322,-0.001118,-0.002742,0.000345,-0.01,-0.32,9.85
26752339,-0.002183,-0.002742,0.000345,-0.03,-0.30,9.83
26753341,-0.002183,-0.001677,0.000345,-0.05,-0.28,9.85
26754351,-0.001118,-0.000612,0.001410,-0.06,-0.31,9.86
26755361,-0.001118,-0.000612,0.000345,-0.04,-0.31,9.81
26756371,-0.002183,-0.001677,-0.000720,0.00,-0.32,9.85
26757388,-0.000053,-0.001677,0.000345,0.00,-0.35,9.88
26758391,-0.000053,-0.001677,0.000345,-0.02,-0.32,9.84
26759401,-0.002183,0.000453,0.000345,0.01,-0.29,9.85
26760429,-0.004314,0.001519,-0.000720,0.01,-0.27,9.85
26761422,-0.003249,0.002584,-0.000720,0.01,-0.27,9.84
26762438,-0.002183,0.001519,-0.000720,0.00,-0.29,9.86
26763441,-0.001118,-0.000612,0.001410,-0.02,-0.29,9.86
26764451,-0.002183,-0.001677,0.001410,-0.02,-0.32,9.85
26765461,-0.003249,-0.003808,0.001410,-0.03,-0.33,9.82
26766471,-0.003249,-0.002742,0.001410,-0.03,-0.33,9.84
26767485,-0.001118,-0.000612,0.001410,-0.03,-0.34,9.86
26768491,-0.000053,-0.000612,-0.000720,-0.04,-0.33,9.84
26769501,-0.000053,-0.003808,-0.001785,-0.02,-0.31,9.84
26770529,0.001012,-0.003808,0.001410,-0.01,-0.29,9.83
26771522,0.001012,-0.001677,0.001410,-0.02,-0.30,9.84
26772538,-0.001118,-0.001677,-0.000720,-0.03,-0.28,9.85
26773541,-0.004314,-0.001677,-0.000720,-0.03,-0.29,9.84
26774551,-0.005379,-0.001677,-0.000720,-0.02,-0.31,9.82
26775561,-0.005379,-0.003808,0.000345,-0.02,-0.28,9.78
26776571,-0.004314,-0.004873,0.002476,-0.01,-0.28,9.73
26777589,-0.003249,-0.000612,0.002476,0.00,-0.30,9.76
26778591,-0.001118,0.002584,0.000345,-0.01,-0.31,9.80
26779601,-0.000053,0.003649,-0.001785,-0.01,-0.32,9.82
26780628,-0.002183,0.000453,-0.001785,-0.01,-0.31,9.85
26781622,-0.003249,-0.000612,-0.002851,-0.03,-0.30,9.86
26782639,-0.001118,0.001519,-0.001785,-0.04,-0.30,9.84
26783641,-0.000053,0.000453,-0.000720,-0.05,-0.28,9.82
26784651,-0.000053,-0.001677,-0.001785,-0.05,-0.30,9.83
26785661,-0.001118,-0.002742,-0.000720,-0.04,-0.33,9.89
26786671,-0.002183,-0.002742,0.000345,-0.04,-0.32,9.88
26787685,-0.003249,0.001519,0.000345,-0.03,-0.29,9.85
26788691,-0.002183,0.003649,0.000345,-0.01,-0.30,9.81
26789701,0.002078,0.002584,-0.000720,-0.04,-0.34,9.82
26790728,0.002078,0.000453,-0.001785,-0.05,-0.32,9.86
26791722,-0.000053,-0.000612,-0.002851,-0.04,-0.31,9.84
26792739,-0.001118,-0.001677,-0.001785,-0.03,-0.33,9.84
26793741,-0.001118,-0.002742,0.000345,-0.02,-0.32,9.84
26794751,-0.001118,-0.002742,0.001410,-0.04,-0.31,9.81
26795761,-0.001118,-0.000612,0.000345,-0.05,-0.32,9.83
26796771,-0.001118,-0.000612,-0.000720,-0.01,-0.33,9.83
26797788,-0.001118,0.000453,0.001410,0.00,-0.32,9.81
26798791,-0.002183,-0.000612,0.002476,-0.02,-0.28,9.85
26799819,-0.002183,-0.003808,0.000345,-0.05,-0.29,9.88
26800812,-0.001118,-0.002742,-0.000720,-0.07,-0.32,9.83
26801821,-0.000053,-0.001677,0.000345,-0.04,-0.30,9.81
26802858,0.001012,-0.000612,0.002476,-0.01,-0.28,9.84
26803964,0.002078,-0.002742,0.001410,-0.02,-0.29,9.85
26804836,0.002078,-0.003808,-0.000720,-0.06,-0.31,9.81
26805838,0.014861,-0.005938,0.006737,0.01,-0.27,9.76
26806848,0.081974,-0.020852,0.021651,0.01,-0.22,9.84
26807865,0.075582,-0.018722,0.021651,-0.02,-0.24,9.85
26808868,0.029775,-0.003808,0.016324,-0.08,-0.28,9.90
26809878,0.004208,0.000453,0.016324,-0.16,-0.18,9.78
26810924,-0.009640,-0.001677,0.024847,0.01,0.02,9.87
26811907,-0.010706,-0.002742,0.032304,0.16,-0.09,9.85
26812928,0.004208,-0.001677,0.034434,0.18,-0.44,9.74
26813928,0.005274,0.002584,0.025912,0.24,-0.87,9.77
26814935,0.010600,-0.001677,0.005672,-0.16,-0.80,9.66
26815951,0.004208,-0.010199,-0.009242,-0.64,-0.15,9.74
26816955,-0.010706,-0.014461,-0.008177,-0.21,0.13,9.69
26817976,-0.005379,-0.010199,0.001410,0.49,-0.46,9.69
26818978,0.024449,0.007910,0.004606,0.40,-1.05,10.09
26820005,0.028710,0.018563,-0.011373,-0.50,-0.01,10.35
26821004,-0.018163,-0.001677,-0.019895,-0.56,0.42,9.48
26822011,-0.037338,-0.027244,-0.009242,0.57,-1.27,9.14
26823025,0.020188,-0.003808,-0.007112,0.17,-0.68,10.28
26824025,0.038297,0.021759,-0.017765,-0.85,1.79,10.59
26825032,-0.059709,-0.005938,-0.009242,0.13,-1.57,8.65
26826043,-0.046925,0.002584,-0.003916,0.59,-1.58,9.88
26827063,0.020188,-0.014461,0.001410,-0.14,-2.50,8.03
26828073,-0.032011,-0.015526,0.000345,0.36,-1.05,10.23
26829077,0.064929,0.027085,-0.002851,-0.39,2.60,10.61
26830107,0.018057,-0.021917,0.008867,-0.11,-2.99,8.15
26831098,-0.018163,-0.014461,-0.000720,0.49,0.90,11.69
26832102,0.021253,0.004715,0.006737,0.24,-0.48,8.54
26833124,-0.019228,0.005780,0.000345,-0.31,-0.51,10.49
26834126,-0.005379,-0.008069,-0.000720,-0.07,-0.04,10.08
26835135,-0.029881,-0.042158,0.000345,0.79,-0.16,8.64
26836144,-0.025620,0.003649,0.002476,-0.75,-0.77,11.16
26837154,0.003143,-0.026179,0.004606,0.27,-0.23,8.79
26838194,-0.008575,0.003649,0.003541,-0.28,0.24,11.38
26839171,-0.006444,-0.017656,0.002476,-0.05,-1.08,9.53
26840199,0.004208,-0.005938,0.005672,-0.01,0.31,9.81
26841191,0.023383,-0.009134,0.007802,-0.72,-0.68,11.06
26842198,0.007404,-0.013395,0.019520,0.31,-0.17,8.72
26843217,0.016992,-0.008069,0.017390,-0.72,-1.15,10.23
26844218,0.022318,0.002584,0.007802,0.04,0.03,7.54
26845228,-0.008575,0.007910,0.004606,-0.78,-1.53,9.41
26846238,-0.033076,0.008976,0.005672,0.16,0.37,9.87
26847248,-0.050121,0.019628,0.000345,0.82,0.37,9.26
26848265,-0.038403,0.020694,-0.003916,-0.22,-0.86,12.82
26849268,-0.026685,0.008976,-0.004981,0.61,0.69,8.53
26850304,0.001012,-0.018722,-0.003916,0.03,-0.55,10.84
26851294,0.009535,-0.009134,-0.003916,-0.13,-0.19,10.51
26852301,0.009535,0.020694,-0.004981,1.07,0.83,7.53
26853321,0.009535,0.014302,-0.003916,-0.27,-0.84,10.90
26854321,0.008469,-0.000612,-0.003916,-0.23,-0.55,9.19
26855331,-0.006444,0.008976,-0.001785,0.96,0.94,8.01
26856341,-0.024554,0.005780,0.002476,-0.45,-0.84,12.25
26857351,-0.032011,-0.010199,0.008867,-0.36,-1.13,10.48
26858368,-0.013901,-0.017656,0.014194,0.77,0.71,7.81
26859371,0.031906,-0.015526,0.009933,-0.37,-0.35,11.63
26860399,0.040428,-0.012330,0.006737,-0.87,-1.83,10.62
26861391,0.030840,-0.003808,0.008867,0.40,0.15,6.44
26862398,0.014861,-0.001677,0.007802,0.31,0.78,9.64
26863417,0.004208,-0.003808,0.007802,-1.14,-1.89,12.42
26864418,0.026579,-0.002742,0.005672,-0.46,-1.30,9.21
26865428,0.041493,-0.017656,0.002476,0.83,1.03,8.18
26866438,0.032971,-0.018722,0.002476,-0.22,0.09,11.72
26867448,0.004208,-0.008069,0.003541,-1.16,-2.00,11.81
26868483,0.002078,-0.015526,0.001410,-0.02,-0.81,7.92
26869470,0.010600,-0.020852,0.000345,1.04,1.04,7.62
26870509,0.016992,-0.022983,0.003541,0.09,0.40,11.02
26871491,-0.002183,-0.016591,0.002476,-1.15,-1.37,11.65
26872499,-0.038403,0.007910,-0.000720,-0.34,-1.59,8.58
26873518,-0.047990,0.026020,-0.006047,1.00,0.54,7.77
26874519,-0.014967,0.021759,-0.007112,0.69,1.71,10.70
26875529,0.009535,-0.005938,-0.001785,-0.51,-0.20,12.78
26876539,-0.008575,-0.024048,0.005672,-0.82,-2.11,10.24
26877549,-0.018163,-0.020852,0.014194,0.19,-1.02,7.54
26878584,-0.026685,-0.014461,0.016324,1.05,0.83,7.60
26879571,-0.020293,-0.014461,0.008867,0.52,1.76,10.43
26880606,-0.006444,-0.013395,0.003541,-0.60,-0.14,12.45
26881591,-0.009640,-0.011265,0.004606,-0.87,-2.34,10.52
26882598,-0.023489,0.004715,0.006737,-0.23,-1.72,8.49
26883617,-0.025620,0.016433,0.004606,0.81,0.13,8.11
26884618,-0.004314,0.008976,0.001410,0.90,1.61,9.29
26885628,0.006339,-0.012330,-0.000720,-0.18,1.14,11.48
26886638,-0.007510,-0.022983,0.002476,-0.89,-0.85,11.88
26887648,0.002078,-0.014461,0.005672,-0.93,-2.17,10.36
26888683,0.014861,0.004715,0.005672,-0.17,-2.52,8.47
26889670,0.024449,0.015367,0.001410,0.49,-0.62,7.15
26890709,0.005274,0.013237,-0.000720,0.68,1.77,8.84
26891691,-0.001118,0.002584,-0.006047,0.81,1.54,10.61
26892699,0.005274,-0.010199,-0.009242,-0.40,0.72,11.44
26893718,-0.005379,0.004715,-0.007112,-1.12,-1.38,11.54
26894719,-0.004314,0.015367,-0.008177,-0.65,-2.43,10.31
26895729,-0.009640,0.003649,-0.011373,-0.39,-1.75,9.47
26896739,-0.006444,-0.016591,-0.012438,0.26,-1.03,7.93
26897749,-0.009640,-0.017656,-0.010308,0.83,1.12,8.07
26898784,-0.013901,0.007910,-0.006047,0.83,1.69,9.02
26899771,0.001012,0.019628,-0.006047,0.26,1.75,10.23
26900806,-0.019228,0.017498,0.001410,-0.37,0.75,11.66
26901791,-0.004314,0.011106,0.003541,-0.57,-1.36,11.48
26902798,0.035101,0.002584,0.000345,-0.82,-2.09,11.18
26903817,-0.002183,-0.011265,-0.001785,-0.49,-2.10,10.28
26904818,-0.065035,-0.020852,0.005672,0.28,-1.91,8.69
26905828,-0.075688,-0.013395,0.014194,0.14,-1.00,7.49
26906838,-0.056513,-0.002742,0.015259,0.51,1.19,8.39
26907848,-0.044795,-0.009134,0.009933,0.92,1.21,8.51
26908883,-0.056513,-0.012330,0.001410,0.32,1.24,9.41
26909899,-0.040533,-0.000612,-0.008177,0.33,1.47,11.05
26910881,-0.001118,0.001519,-0.009242,-0.16,0.26,11.24
26911889,0.010600,-0.007004,-0.000720,-0.55,-0.78,11.71
26912899,0.012731,-0.000612,-0.002851,-0.55,-1.40,11.29
26913927,0.004208,0.005780,-0.001785,-0.69,-2.02,10.57
26914927,0.007404,0.002584,-0.006047,-0.46,-1.81,9.52
26915935,-0.021358,0.004715,-0.001785,-0.17,-1.33,9.04
26916948,-0.032011,0.004715,0.006737,-0.14,-1.19,7.74
26917972,-0.009640,0.001519,0.012063,0.22,0.18,8.30
26918975,0.035101,-0.005938,0.009933,0.54,0.28,8.22
26920008,0.058538,-0.007004,0.006737,0.49,0.86,8.85
26920994,0.067060,-0.004873,0.010998,0.60,1.22,9.81
26922005,0.067060,-0.009134,0.014194,0.54,0.88,10.34
26923007,0.040428,-0.013395,0.016324,0.23,1.20,10.76
26924026,-0.009640,-0.015526,0.013129,0.19,0.37,10.96
26925027,-0.037338,-0.011265,-0.000720,-0.02,0.10,11.08
26926035,-0.021358,-0.002742,-0.006047,-0.33,-0.28,10.87
26927048,-0.003249,0.005780,0.001410,-0.37,-1.13,10.99
26928073,0.001012,0.000453,-0.000720,-0.47,-1.29,10.75
26929077,0.010600,-0.013395,-0.002851,-0.40,-1.82,9.85
26930107,-0.000053,-0.007004,-0.000720,-0.36,-1.46,9.27
26931085,-0.009640,0.007910,0.002476,-0.29,-1.20,9.30
26932093,-0.004314,0.007910,0.003541,-0.14,-1.33,8.68
26933100,-0.000053,0.002584,0.001410,-0.11,-0.43,8.80
26934145,-0.004314,-0.000612,-0.000720,0.09,-0.61,8.51
26935123,-0.013901,-0.001677,-0.000720,0.05,-0.17,8.52
26936133,-0.011771,0.004715,-0.000720,0.34,0.24,9.00
26937141,-0.006444,0.005780,-0.000720,0.24,-0.05,8.95
26938169,-0.007510,0.000453,-0.000720,0.16,0.82,9.89
26939168,-0.007510,-0.013395,0.005672,0.42,0.43,9.34
26940196,-0.003249,-0.015526,0.010998,0.16,0.58,9.43
26941181,0.010600,-0.000612,0.010998,0.29,0.68,9.51
26942188,0.015926,0.016433,0.005672,0.31,0.45,9.93
26943198,0.005274,0.024955,0.001410,0.04,0.76,10.62
26944217,0.008469,0.019628,-0.000720,0.05,0.18,10.91
26945218,0.018057,0.004715,-0.004981,0.16,0.40,11.63
26946228,0.016992,-0.008069,-0.010308,-0.10,-0.19,11.27
26947238,0.010600,-0.015526,-0.010308,-0.05,-0.33,11.02
26948266,-0.005379,-0.010199,-0.007112,-0.06,-0.07,10.68
26949267,-0.017097,0.007910,-0.006047,-0.33,-0.85,10.12
26950299,0.001012,0.012172,-0.007112,-0.16,-0.73,9.68
26951281,0.023383,0.003649,-0.004981,-0.42,-0.72,10.13
26952289,0.045754,-0.014461,-0.001785,-0.22,-1.45,10.20
26953299,0.050015,-0.027244,-0.001785,-0.17,-0.55,10.09
26954318,-0.005379,-0.018722,-0.002851,-0.31,-0.67,10.22
26955319,-0.053317,0.005780,-0.007112,-0.02,-1.57,9.39
26956329,-0.054382,0.029216,-0.012438,-0.49,-0.68,10.60
26957339,-0.014967,0.014302,-0.012438,-0.24,-1.33,10.15
26958367,0.022318,-0.025113,-0.012438,0.13,-0.99,8.76
26959368,-0.008575,-0.024048,-0.011373,-0.19,-0.25,9.04
26960396,-0.041599,0.011106,-0.003916,0.18,-1.36,8.29
26961381,-0.041599,0.033477,0.003541,-0.14,-0.57,9.22
26962388,-0.026685,0.018563,0.007802,-0.19,-0.57,10.18
26963398,-0.000053,-0.013395,0.008867,0.26,-0.92,9.43
26964417,0.025514,-0.028309,0.006737,0.08,-0.06,9.51
26965418,0.029775,-0.026179,0.007802,0.00,-0.88,8.77
26966428,0.021253,-0.008069,0.004606,0.22,-0.21,8.99
26967438,0.003143,0.010041,0.001410,0.33,0.18,8.79
26968466,-0.013901,0.008976,-0.001785,-0.15,-0.57,8.33
26969467,-0.005379,0.000453,-0.000720,0.09,0.27,9.42
26970499,0.011665,-0.011265,-0.001785,0.46,0.09,9.31
26971481,0.005274,-0.009134,-0.008177,-0.10,0.13,9.34
26972489,-0.006444,0.007910,-0.010308,0.14,0.40,9.65
26973499,-0.010706,0.019628,-0.009242,0.45,0.26,9.89
26974518,-0.021358,0.034542,-0.010308,-0.15,0.59,10.30
26975519,-0.006444,0.024955,-0.008177,-0.09,0.33,9.95
26976529,0.016992,-0.003808,-0.004981,0.32,0.38,10.06
26977539,0.008469,-0.019787,-0.002851,-0.01,1.04,9.54
26978567,-0.000053,-0.003808,0.001410,-0.19,0.01,9.35
26979568,0.009535,0.016433,0.005672,0.28,0.23,10.79
26980596,0.002078,0.020694,0.006737,-0.12,1.17,10.92
26981581,0.001012,0.010041,0.010998,-0.15,-0.31,10.51
26982588,0.016992,-0.001677,0.009933,0.46,0.19,11.01
26983598,0.008469,-0.005938,0.007802,0.05,0.76,10.84
26984617,-0.001118,-0.003808,0.008867,-0.22,-0.80,10.15
26985618,0.005274,-0.001677,0.007802,0.21,-0.12,11.19
26986628,-0.003249,-0.010199,0.001410,0.09,0.30,10.13
26987638,-0.025620,-0.005938,-0.000720,-0.25,-0.99,9.30
26988666,-0.035207,0.010041,-0.004981,0.07,-0.52,10.53
26989667,-0.028815,0.019628,-0.004981,-0.06,-0.07,10.41
26990699,-0.035207,0.002584,-0.002851,-0.33,-1.06,10.26
26991681,-0.020293,-0.014461,-0.002851,0.07,-0.98,10.98
26992689,0.018057,-0.021917,-0.004981,0.01,-0.28,10.02
26993699,0.001012,-0.010199,-0.001785,-0.42,-1.02,9.66
26994718,-0.007510,0.011106,0.002476,-0.13,-1.18,10.04
26995719,0.006339,0.017498,0.004606,-0.16,-0.30,9.52
26996729,0.015926,0.011106,0.006737,-0.49,-0.87,9.70
26997739,0.034036,-0.003808,0.008867,-0.13,-1.23,9.50
26998767,0.016992,-0.003808,0.006737,-0.10,-0.20,9.91
26999768,-0.011771,-0.003808,0.007802,-0.48,-0.91,10.17
27000796,-0.017097,-0.002742,0.008867,-0.13,-1.56,10.12
27001781,0.011665,-0.005938,0.001410,0.01,-0.33,9.89
27002788,0.001012,-0.010199,-0.003916,-0.41,-0.80,9.79
27003798,-0.010706,0.003649,-0.006047,-0.05,-1.45,8.95
27004817,0.010600,0.017498,-0.004981,0.07,-0.28,9.09
27005818,0.012731,0.021759,-0.002851,-0.42,-0.83,9.29
27006828,0.006339,0.015367,0.000345,0.02,-1.32,9.04
27007838,-0.016032,0.006845,-0.001785,0.18,-0.11,9.59
27008866,-0.039468,0.000453,0.000345,-0.30,-0.66,9.55
27009891,-0.042664,0.000453,0.003541,0.09,-0.92,9.41
27010871,-0.008575,-0.002742,0.001410,0.19,-0.03,9.41
27011879,-0.004314,-0.010199,0.001410,-0.33,-0.56,9.05
27012889,-0.004314,-0.014461,0.000345,0.14,-0.56,8.98
27013899,0.012731,-0.008069,0.000345,0.26,0.08,8.97
27014927,0.024449,-0.000612,0.002476,-0.35,-0.33,8.82
27015927,0.023383,0.008976,0.005672,0.12,-0.23,9.23
27016935,0.025514,0.007910,0.003541,0.32,0.22,9.47
27017972,0.007404,-0.007004,0.003541,-0.38,-0.12,9.45
27018956,-0.011771,-0.019787,0.003541,-0.02,0.10,10.01
27020002,0.011665,-0.017656,-0.002851,0.32,0.20,9.85
27020980,0.013796,-0.010199,-0.007112,-0.27,0.13,9.23
27021987,-0.016032,0.006845,-0.007112,0.00,0.15,9.50
27023001,-0.018163,0.015367,-0.006047,0.29,-0.02,9.59
27024006,-0.032011,0.007910,-0.004981,-0.23,0.73,9.48
27025028,-0.043729,0.005780,0.000345,0.06,-0.03,9.31
27026024,-0.018163,0.013237,-0.000720,0.42,0.21,10.14
27027038,-0.005379,0.017498,-0.000720,-0.10,1.00,10.67
27028045,-0.002183,0.010041,-0.000720,-0.02,-0.17,10.22
27029058,0.008469,0.002584,0.000345,0.38,0.40,10.87
27030094,-0.025620,-0.007004,0.007802,-0.06,-0.22,9.64
27031083,-0.006444,-0.003808,0.008867,0.34,0.24,10.41
27032085,0.021253,-0.003808,0.004606,0.04,0.74,10.10
27033096,0.015926,-0.008069,0.003541,-0.15,-0.43,9.82
27034102,0.025514,-0.009134,0.005672,0.31,-0.01,11.08
27035124,0.008469,-0.011265,0.004606,0.09,0.67,10.84
27036126,-0.014967,-0.013395,0.004606,-0.22,-0.53,10.36
27037135,-0.013901,-0.007004,0.001410,0.25,-0.17,11.17
27038144,0.011665,0.001519,-0.006047,0.06,0.42,10.22
27039154,-0.001118,0.008976,-0.006047,-0.30,-0.74,9.55
27040181,-0.000053,0.010041,-0.006047,0.14,-0.39,10.35
27041171,-0.021358,0.006845,-0.007112,-0.06,0.19,9.85
27042178,-0.043729,-0.002742,-0.002851,-0.33,-0.86,9.63
27043201,-0.028815,0.003649,-0.000720,0.03,-0.57,10.56
27044198,0.008469,0.007910,-0.002851,-0.09,-0.06,10.28
27045217,0.005274,0.016433,-0.000720,-0.30,-0.99,10.10
27046218,0.012731,0.018563,0.000345,-0.04,-0.74,10.52
27047228,0.008469,0.014302,0.001410,-0.07,-0.26,10.06
27048238,-0.019228,-0.001677,0.003541,-0.33,-1.10,9.78
27049248,-0.009640,-0.010199,0.004606,-0.12,-1.18,10.17
27050286,0.011665,-0.011265,0.004606,-0.03,-0.43,9.25
27051274,0.007404,-0.004873,0.006737,-0.38,-0.91,9.50
27052281,-0.004314,0.003649,0.007802,-0.15,-1.52,9.99
27053291,0.026579,-0.002742,0.000345,0.01,-0.47,9.72
27054301,0.016992,-0.009134,-0.003916,-0.43,-0.74,10.22
27055321,0.016992,-0.012330,-0.004981,-0.14,-1.56,9.63
27056321,0.002078,-0.007004,-0.001785,0.00,-0.24,9.75
27057331,-0.020293,-0.013395,0.002476,-0.46,-0.76,9.98
27058341,-0.018163,-0.010199,0.002476,-0.09,-1.50,9.35
27059351,0.013796,0.000453,-0.002851,0.00,-0.09,9.57
27060381,0.020188,0.011106,-0.002851,-0.49,-0.78,9.75
27061371,0.009535,0.014302,0.000345,-0.10,-1.38,9.27
27062378,0.013796,0.012172,-0.002851,0.07,-0.05,9.50
27063388,-0.019228,0.005780,-0.002851,-0.49,-0.72,9.67
27064398,-0.020293,0.002584,-0.002851,-0.11,-1.28,9.43
27065417,-0.018163,0.003649,-0.001785,0.16,-0.08,9.35
27066418,-0.032011,-0.000612,0.000345,-0.50,-0.63,9.26
27067428,-0.036272,0.004715,0.006737,0.03,-1.10,9.12
27068438,-0.001118,0.008976,0.004606,0.22,-0.04,9.23
27069448,0.020188,0.007910,0.002476,-0.49,-0.47,9.27
27070486,0.016992,0.006845,0.005672,0.18,-0.85,9.09
27071474,0.030840,0.000453,0.001410,0.24,0.10,9.42
27072481,0.011665,-0.004873,0.000345,-0.43,-0.19,9.38
27073491,0.002078,-0.010199,0.001410,0.21,-0.54,9.37
27074501,0.005274,-0.007004,0.002476,0.27,0.15,9.57
27075521,-0.008575,-0.014461,0.003541,-0.35,-0.07,9.25
27076521,-0.013901,-0.012330,0.004606,0.16,-0.24,9.32
27077531,0.014861,-0.001677,-0.000720,0.23,0.18,9.46
27078541,0.028710,0.005780,-0.003916,-0.29,0.06,9.18
27079551,0.013796,0.008976,-0.001785,0.15,-0.06,9.39
27080581,0.014861,0.003649,-0.004981,0.25,0.17,9.71
27081571,-0.002183,0.003649,-0.008177,-0.23,0.20,9.60
27082578,-0.024554,0.002584,-0.009242,0.09,0.02,9.78
27083588,-0.021358,0.005780,-0.008177,0.30,0.17,10.10
27084598,-0.029881,-0.002742,-0.008177,-0.14,0.48,9.82
27085617,-0.033076,-0.007004,-0.003916,0.03,0.07,9.61
27086618,-0.006444,0.005780,-0.001785,0.33,0.07,9.99
27087628,0.009535,0.012172,-0.000720,-0.09,0.63,9.95
27088638,-0.003249,0.014302,0.002476,-0.07,-0.07,9.75
27089648,-0.001118,0.004715,-0.000720,0.33,0.10,10.45
27090686,0.006339,0.003649,-0.003916,-0.01,0.82,10.37
27091674,-0.002183,-0.000612,0.000345,-0.13,-0.17,9.91
27092681,0.014861,-0.004873,0.004606,0.26,0.05,10.68
27093691,0.010600,-0.013395,0.007802,-0.05,0.82,10.38
27094701,-0.000053,-0.020852,0.008867,-0.26,-0.37,9.74
27095721,0.013796,-0.005938,0.005672,0.22,-0.11,10.58
27096721,0.019122,-0.000612,0.001410,0.04,0.78,10.38
27097731,0.002078,-0.002742,0.003541,-0.21,-0.53,9.85
27098741,0.003143,-0.003808,0.002476,0.25,-0.16,10.86
27099751,0.023383,0.002584,-0.006047,0.02,0.65,10.44
27100781,0.008469,0.011106,-0.004981,-0.30,-0.66,9.90
27101771,0.009535,0.007910,-0.003916,0.19,-0.28,10.91
27102778,0.001012,-0.001677,-0.007112,0.02,0.43,10.25
27103788,-0.025620,-0.010199,-0.006047,-0.31,-0.73,9.74
27104798,-0.024554,0.000453,-0.003916,0.14,-0.48,10.55
27105817,-0.027750,0.007910,-0.001785,0.02,0.15,10.10
27106818,-0.040533,0.002584,0.002476,-0.28,-0.86,9.76
27107828,-0.029881,0.001519,0.001410,0.03,-0.67,10.56
27108838,0.006339,0.004715,-0.001785,-0.06,-0.03,10.20
27109848,0.012731,0.011106,0.002476,-0.31,-0.89,9.91
27110886,0.020188,0.006845,0.003541,-0.04,-0.85,10.55
27111874,0.024449,-0.000612,0.000345,-0.06,-0.21,9.90
27112881,-0.001118,-0.009134,0.002476,-0.31,-0.87,9.68
27113891,-0.000053,-0.009134,0.006737,-0.03,-1.00,10.14
27114902,-0.002183,-0.009134,0.008867,0.02,-0.29,9.80
27115926,-0.009640,-0.020852,0.012063,-0.37,-0.84,9.88
27116927,0.003143,-0.014461,0.010998,-0.16,-1.25,10.13
27117934,0.036167,-0.003808,0.004606,0.00,-0.42,9.71
27118953,0.035101,0.005780,0.001410,-0.38,-0.85,9.83
27119975,0.013796,0.008976,0.000345,-0.16,-1.40,9.82
27120978,0.020188,0.004715,-0.004981,-0.01,-0.36,9.62
27121974,-0.003249,0.004715,-0.006047,-0.42,-0.79,9.89
27122989,-0.008575,0.001519,-0.006047,-0.10,-1.52,9.55
27124002,-0.009640,-0.001677,-0.006047,0.06,-0.23,9.48
27125007,-0.026685,-0.012330,-0.004981,-0.47,-0.71,9.86
27126026,-0.027750,-0.007004,-0.004981,-0.05,-1.59,9.64
27127030,-0.011771,0.003649,-0.004981,0.16,-0.16,9.58
27128035,-0.018163,0.003649,-0.003916,-0.51,-0.64,9.80
27129043,-0.034142,0.007910,-0.000720,-0.07,-1.54,9.28
27130082,-0.005379,0.008976,-0.003916,0.15,-0.09,9.30
27131082,0.010600,0.007910,0.003541,0.03,-1.33,9.08
27132080,0.022318,-0.002742,0.004606,0.21,0.04,9.29
27133085,0.001012,-0.013395,0.005672,-0.50,-0.45,9.40
27134096,-0.010706,-0.017656,0.005672,0.10,-1.01,9.25
27135102,-0.004314,-0.011265,0.003541,0.21,0.12,9.44
27136123,-0.005379,-0.017656,0.004606,-0.45,-0.38,9.23
27137126,-0.002183,-0.012330,0.008867,0.20,-0.76,9.07
27138135,0.029775,-0.001677,0.006737,0.26,0.22,9.37
27139152,0.043624,0.002584,0.004606,-0.40,-0.13,9.18
27140172,0.025514,0.004715,0.004606,0.21,-0.46,9.17
27141171,0.024449,0.000453,-0.001785,0.27,0.24,9.50
27142168,0.004208,-0.002742,-0.004981,-0.30,0.02,9.30
27143178,-0.012836,-0.005938,-0.003916,0.18,-0.22,9.35
27144188,-0.011771,-0.001677,-0.003916,0.26,0.23,9.64
27145198,-0.023489,-0.007004,-0.003916,-0.22,0.13,9.41
27146215,-0.026685,-0.010199,-0.001785,0.16,-0.01,9.51
27147218,-0.006444,0.001519,-0.002851,0.28,0.17,9.77
27148228,-0.001118,0.010041,-0.002851,-0.18,0.23,9.57
27149238,-0.013901,0.018563,0.002476,0.09,0.05,9.52
27150274,-0.008575,0.014302,-0.000720,0.31,0.13,9.84
27151273,0.004208,0.010041,-0.001785,-0.09,0.50,9.90
27152271,0.004208,0.008976,0.003541,-0.02,0.08,9.91
27153281,0.022318,0.003649,0.005672,0.31,0.05,10.28
27154291,0.012731,-0.007004,0.003541,-0.04,0.66,10.10
27155301,-0.010706,-0.015526,0.003541,-0.16,-0.06,9.85
27156318,-0.001118,-0.010199,0.003541,0.25,-0.09,10.48
27157321,-0.000053,-0.010199,0.003541,0.01,0.81,10.25
27158331,-0.003249,-0.009134,0.008867,-0.21,-0.23,9.75
27159341,0.018057,-0.000612,0.007802,0.28,-0.11,10.62
27160369,0.046820,0.000453,0.001410,0.00,0.88,10.44
27161371,0.032971,0.004715,0.000345,-0.19,-0.41,9.85
27162368,0.024449,0.001519,-0.002851,0.30,-0.11,10.71
27163378,0.018057,0.001519,-0.007112,-0.02,0.80,10.51
27164388,-0.016032,-0.002742,-0.008177,-0.18,-0.54,9.93
27165398,-0.014967,-0.001677,-0.008177,0.27,-0.15,10.80
27166415,-0.021358,-0.001677,-0.007112,0.01,0.63,10.36
27167418,-0.035207,-0.010199,-0.002851,-0.16,-0.55,9.81
27168434,-0.023489,0.001519,-0.000720,0.18,-0.17,10.62
27169438,-0.021358,0.008976,-0.000720,-0.02,0.34,10.22
27170474,-0.033076,0.007910,0.001410,-0.24,-0.73,9.86
27171473,-0.026685,0.004715,0.001410,0.06,-0.38,10.69
27172471,0.006339,0.001519,-0.000720,0.01,0.08,10.10
27173481,0.013796,0.006845,0.003541,-0.24,-0.82,9.75
27174491,0.021253,0.006845,0.004606,0.01,-0.62,10.53
27175501,0.015926,0.000453,0.003541,-0.02,-0.16,9.95
27176518,-0.017097,-0.014461,0.004606,-0.29,-0.89,9.79
27177521,-0.010706,-0.018722,0.006737,-0.05,-0.94,10.43
27178531,-0.002183,-0.017656,0.007802,-0.02,-0.27,9.78
27179541,-0.002183,-0.020852,0.009933,-0.37,-0.83,9.84
27180569,0.008469,-0.009134,0.009933,-0.13,-1.20,10.32
27181571,0.035101,0.001519,0.002476,-0.04,-0.31,9.69
27182568,0.029775,0.006845,-0.002851,-0.44,-0.77,9.87
27183578,0.010600,0.003649,-0.004981,-0.13,-1.34,9.90
27184588,0.021253,0.000453,-0.009242,0.00,-0.29,9.74
27185598,-0.002183,0.002584,-0.008177,-0.42,-0.78,9.97
27186615,-0.006444,0.001519,-0.008177,-0.14,-1.44,9.74
27187618,-0.006444,0.002584,-0.011373,-0.04,-0.25,9.79
27188628,-0.027750,-0.007004,-0.010308,-0.44,-0.83,10.00
27189638,-0.025620,-0.004873,-0.007112,-0.10,-1.51,9.50
27190674,-0.021358,0.005780,-0.004981,0.02,-0.20,9.57
27191673,-0.029881,0.006845,-0.000720,-0.38,-0.82,9.75
27192671,-0.028815,0.011106,0.001410,-0.05,-1.40,9.36
27193681,0.003143,0.012172,0.000345,0.06,-0.16,9.51
27194691,0.020188,0.014302,0.004606,-0.39,-0.79,9.67
27195701,0.025514,0.011106,0.007802,-0.05,-1.26,9.44
27196718,0.029775,-0.001677,0.003541,0.11,-0.10,9.50
27197721,-0.004314,-0.009134,0.001410,-0.43,-0.65,9.51
27198731,-0.011771,-0.010199,0.001410,-0.03,-1.16,9.15
27199741,-0.002183,-0.007004,0.003541,0.15,-0.09,9.22
27200769,-0.004314,-0.014461,0.006737,-0.49,-0.52,9.30
27201771,-0.000053,-0.011265,0.010998,0.04,-0.97,9.23
27202768,0.022318,-0.001677,0.006737,0.21,0.01,9.34
27203778,0.023383,0.002584,0.000345,-0.48,-0.36,9.24
27204788,0.003143,0.008976,0.000345,0.11,-0.67,9.17
27205798,0.014861,0.005780,-0.003916,0.19,0.18,9.42
27206852,0.006339,0.005780,-0.006047,-0.48,-0.16,9.36
27207829,-0.009640,0.002584,-0.004981,0.18,-0.39,9.35
27208828,-0.002183,0.002584,-0.008177,0.29,0.19,9.48
27209838,-0.018163,-0.002742,-0.007112,-0.36,-0.02,9.29
27210874,-0.026685,-0.003808,-0.003916,0.19,-0.13,9.41
27211874,-0.014967,0.011106,-0.002851,0.28,0.23,9.58
27212871,-0.016032,0.011106,-0.002851,-0.23,0.24,9.40
27213881,-0.024554,0.010041,0.000345,0.19,-0.04,9.52
27214891,-0.005379,0.007910,-0.002851,0.28,0.13,9.87
27215902,0.011665,0.010041,-0.002851,-0.17,0.37,9.70
27216925,0.013796,0.006845,0.002476,0.15,0.05,9.62
27217927,0.025514,-0.001677,0.004606,0.30,0.24,10.07
27218937,0.015926,-0.010199,0.003541,-0.14,0.60,9.96
27219965,-0.003249,-0.018722,0.003541,0.04,0.04,9.77
27220958,-0.002183,-0.009134,0.003541,0.30,0.17,10.23
27221975,-0.008575,-0.009134,0.005672,-0.05,0.74,10.13
27222975,-0.006444,-0.009134,0.009933,-0.04,-0.05,9.77
27223985,0.021253,-0.005938,0.006737,0.25,0.08,10.39
27225000,0.047885,-0.000612,-0.000720,-0.01,0.78,10.29
27226007,0.034036,0.007910,-0.000720,-0.12,-0.17,9.86
27227030,0.024449,0.004715,-0.002851,0.21,0.01,10.65
27228029,0.009535,-0.002742,-0.008177,-0.03,0.75,10.39
27229033,-0.023489,-0.010199,-0.009242,-0.22,-0.35,9.81
27230074,-0.022424,-0.000612,-0.007112,0.20,-0.07,10.72
27231063,-0.032011,0.000453,-0.007112,-0.03,0.71,10.49
27232085,-0.019228,0.003649,0.000345,0.18,-0.20,10.79
27233079,0.010600,0.011106,0.000345,0.00,0.57,10.36
27234085,0.005274,0.018563,0.002476,-0.26,-0.67,9.79
27235096,0.004208,0.012172,0.002476,0.17,-0.33,10.77
27236102,0.005274,0.000453,0.000345,-0.02,0.35,10.26
27237123,-0.025620,-0.011265,0.002476,-0.33,-0.84,9.76
27238126,-0.019228,-0.012330,0.003541,0.05,-0.59,10.61
27239135,-0.011771,-0.010199,0.004606,-0.02,0.08,10.03
27240160,-0.006444,-0.014461,0.007802,-0.29,-0.89,9.72
27241154,0.014861,-0.005938,0.007802,-0.04,-0.76,10.53
27242169,0.046820,0.000453,0.005672,-0.09,-0.12,10.02
27243168,0.044689,0.006845,0.005672,-0.33,-0.87,9.74
27244178,0.028710,0.000453,0.001410,-0.05,-0.86,10.28
27245188,0.025514,-0.004873,-0.004981,-0.06,-0.23,9.88
27246198,-0.007510,-0.008069,-0.004981,-0.34,-0.98,9.73
27247215,-0.012836,-0.005938,-0.002851,-0.10,-1.15,10.13
27248238,-0.016032,-0.002742,-0.002851,-0.03,-0.31,9.83
27249228,-0.029881,-0.009134,-0.001785,-0.36,-0.90,9.84
27250263,-0.022424,-0.000612,-0.003916,-0.19,-1.27,9.84
27251254,0.007404,0.011106,-0.009242,-0.06,-0.40,9.61
27252272,0.009535,0.020694,-0.008177,-0.37,-0.88,9.82
27253271,-0.000053,0.015367,-0.002851,-0.17,-1.40,9.77
27254281,0.006339,0.002584,-0.003916,-0.04,-0.37,9.62
27255291,-0.024554,-0.004873,-0.004981,-0.42,-0.76,9.87
27256301,-0.033076,-0.003808,-0.002851,-0.11,-1.50,9.57
27257318,-0.026685,0.002584,0.001410,0.06,-0.27,9.46
27258321,-0.024554,-0.009134,0.006737,-0.47,-0.68,9.76
27259331,-0.007510,-0.009134,0.008867,-0.06,-1.54,9.31
27260358,0.030840,-0.000612,0.005672,0.14,-0.16,9.33
27261351,0.039363,0.008976,0.002476,-0.54,-0.55,9.57
27262369,0.023383,0.010041,0.004606,-0.05,-1.35,9.17
27263368,0.025514,-0.003808,0.000345,0.16,-0.05,9.26
27264378,-0.002183,-0.009134,0.000345,-0.52,-0.49,9.45
27265388,-0.016032,-0.010199,0.000345,0.04,-1.14,9.17
27266398,-0.009640,-0.003808,0.001410,0.13,0.06,9.38
27267415,-0.014967,-0.008069,0.000345,-0.54,-0.45,9.31
27268418,-0.012836,-0.002742,0.000345,0.12,-0.89,9.16
27269428,0.018057,0.008976,-0.006047,0.24,0.14,9.39
27270463,0.029775,0.015367,-0.011373,-0.44,-0.23,9.20
27271454,0.011665,0.014302,-0.009242,0.19,-0.53,9.18
27272472,0.007404,0.004715,-0.009242,0.36,0.18,9.35
27273471,-0.022424,-0.001677,-0.004981,-0.31,0.03,9.19
27274481,-0.047990,-0.004873,-0.000720,0.16,-0.28,9.29
27275491,-0.038403,0.003649,0.002476,0.29,0.19,9.62
27276501,-0.036272,0.000453,0.002476,-0.24,0.23,9.51
27277518,-0.029881,0.000453,0.003541,0.16,-0.05,9.45
27278521,0.008469,0.006845,0.002476,0.32,0.26,9.74
27279531,0.036167,0.008976,0.003541,-0.15,0.40,9.64
27280558,0.029775,0.007910,0.006737,0.11,0.07,9.61
27281551,0.026579,-0.002742,0.004606,0.29,0.19,10.00
27282569,0.018057,-0.010199,0.003541,-0.12,0.58,9.86
27283568,-0.003249,-0.017656,0.005672,0.05,0.12,9.72
27284578,-0.002183,-0.011265,0.006737,0.31,0.11,10.19
27285588,-0.007510,-0.011265,0.004606,-0.06,0.68,10.09
27286598,-0.008575,-0.009134,0.004606,-0.09,0.01,9.76
27287615,0.014861,0.000453,0.001410,0.30,0.03,10.41
27288618,0.035101,0.007910,-0.003916,0.05,0.76,10.28
27289628,0.020188,0.012172,-0.004981,-0.13,-0.12,9.85
27290663,0.014861,0.003649,-0.007112,0.29,-0.03,10.65
27291654,-0.000053,-0.003808,-0.008177,0.06,0.83,10.36
27292672,-0.034142,-0.007004,-0.007112,-0.26,-0.38,9.78
27293671,-0.029881,0.004715,-0.008177,0.20,-0.20,10.73
27294681,-0.027750,0.008976,-0.008177,0.04,0.79,10.48
27295691,-0.034142,0.004715,-0.001785,-0.28,-0.54,9.75
27296701,-0.014967,0.005780,-0.000720,0.20,-0.26,10.83
27297718,0.020188,0.007910,-0.004981,0.03,0.69,10.45
27298721,0.016992,0.010041,0.000345,-0.30,-0.69,9.70
27299731,0.021253,0.000453,0.006737,0.17,-0.42,10.73
27300758,0.016992,-0.008069,0.007802,-0.01,0.44,10.23
27301751,-0.014967,-0.019787,0.008867,-0.35,-0.73,9.69
27302769,-0.007510,-0.012330,0.005672,0.04,-0.56,10.63
27303768,0.005274,-0.004873,0.001410,-0.08,0.12,10.22
27304778,0.001012,-0.009134,0.002476,-0.35,-0.87,9.80
27305788,0.001012,-0.009134,0.005672,-0.02,-0.75,10.43
27306798,0.025514,-0.003808,0.002476,-0.05,-0.13,10.05
27307815,0.014861,0.001519,0.002476,-0.29,-0.97,9.74
27308818,0.012731,0.000453,-0.001785,-0.08,-0.84,10.23
27309828,0.002078,0.000453,-0.006047,-0.02,-0.31,9.98
27310863,-0.020293,-0.005938,-0.003916,-0.29,-1.00,9.87
27311854,-0.010706,-0.003808,-0.003916,-0.14,-1.11,10.32
27312872,-0.001118,-0.003808,-0.007112,-0.02,-0.43,9.74
27313871,-0.010706,0.003649,-0.007112,-0.37,-0.92,9.82
27314881,-0.021358,0.011106,-0.004981,-0.20,-1.46,10.04
27315891,-0.000053,0.008976,-0.008177,0.03,-0.47,9.46
27316902,-0.026685,0.002584,-0.007112,-0.46,-0.71,9.98
27317924,-0.028815,-0.001677,-0.002851,-0.23,-1.56,9.82
27318927,-0.020293,-0.003808,0.001410,0.00,-0.39,9.55
27319952,-0.020293,-0.014461,0.005672,-0.55,-0.68,9.98
27320951,-0.003249,-0.010199,0.007802,-0.14,-1.62,9.39
27321954,0.032971,-0.000612,0.004606,0.02,-0.17,9.59
27322974,0.036167,0.005780,0.005672,-0.53,-0.61,9.84
27323978,0.027645,0.001519,0.007802,-0.07,-1.51,9.17
27324985,0.030840,-0.007004,0.004606,0.03,-0.13,9.58
27326005,0.003143,-0.007004,0.005672,-0.45,-0.68,9.53
27327008,0.001012,-0.009134,0.005672,-0.04,-1.25,9.05
27328027,0.004208,-0.003808,0.001410,0.12,-0.13,9.26
27329028,-0.000053,-0.005938,-0.000720,-0.43,-0.72,9.25
27330065,-0.016032,-0.005938,0.001410,-0.01,-0.97,9.30
27331053,0.003143,-0.005938,-0.001785,0.28,0.00,9.25
27332059,-0.005379,0.001519,-0.004981,-0.45,-0.57,9.08
27333082,-0.023489,0.011106,-0.003916,0.07,-0.68,9.32
27334083,-0.027750,-0.004873,-0.004981,-0.43,-0.20,8.99
27335085,-0.030946,-0.002742,-0.001785,0.24,-0.34,9.25
27336096,-0.008575,0.012172,-0.000720,0.34,0.16,9.46
27337102,0.008469,0.014302,-0.000720,-0.40,0.14,9.49
27338123,0.001012,0.005780,0.002476,0.21,-0.13,9.49
27339126,0.018057,-0.003808,0.000345,0.32,0.26,9.61
27340152,0.007404,-0.003808,0.000345,-0.29,0.40,9.45
27341144,-0.003249,-0.008069,0.004606,0.16,-0.04,9.38
27342151,0.005274,-0.001677,0.006737,0.27,0.26,9.86
27343169,-0.000053,-0.003808,0.007802,-0.17,0.65,9.72
27344168,-0.013901,-0.001677,0.010998,0.16,-0.09,9.44
27345178,0.012731,0.003649,0.006737,0.29,0.32,10.09
27346188,0.025514,0.002584,0.001410,-0.05,0.80,10.18
27347198,0.015926,-0.000612,0.001410,0.05,-0.05,9.89
27348215,0.015926,0.000453,-0.001785,0.27,0.33,10.44
27349218,-0.006444,-0.000612,-0.002851,0.04,0.57,10.21
27350289,-0.021358,-0.008069,-0.003916,-0.05,0.01,9.85
27351244,-0.005379,-0.000612,-0.006047,0.22,0.21,10.53
27352251,0.015926,0.007910,-0.009242,0.04,0.60,10.13
27353272,-0.002183,0.023890,-0.004981,-0.11,-0.09,9.81
27354271,-0.007510,0.019628,-0.003916,0.20,-0.04,10.57
27355281,-0.009640,0.011106,-0.004981,-0.03,0.69,10.51
27356291,-0.024554,-0.002742,-0.006047,-0.19,-0.26,10.25
27357301,-0.016032,-0.007004,-0.004981,0.21,-0.14,10.87
27358318,-0.018163,-0.007004,-0.003916,0.02,0.59,10.52
27359321,-0.026685,-0.004873,0.002476,-0.35,-0.66,9.81
27360348,-0.011771,-0.007004,0.005672,0.06,-0.45,10.82
27361341,0.029775,-0.012330,0.002476,-0.04,0.47,10.05
27362348,0.010600,-0.007004,0.002476,-0.44,-0.76,9.52
27363368,0.010600,-0.003808,0.004606,-0.01,-0.70,10.67
27364368,0.009535,-0.007004,0.004606,-0.11,0.24,10.16
27365378,-0.003249,-0.016591,0.005672,-0.41,-0.79,9.85
27366388,0.006339,-0.007004,0.003541,-0.02,-0.89,10.67
27367398,0.031906,0.004715,-0.004981,-0.14,-0.02,10.37
27368415,0.024449,0.008976,-0.007112,-0.43,-0.99,9.89
27369418,0.023383,0.004715,-0.004981,-0.05,-1.13,10.40
27370453,0.024449,0.000453,-0.006047,-0.05,-0.16,9.92
27371444,-0.010706,-0.011265,-0.006047,-0.32,-0.98,9.48
27372451,-0.016032,-0.003808,-0.003916,-0.08,-1.22,9.61
27373472,-0.016032,0.010041,-0.001785,-0.05,-0.27,9.83
27374471,-0.023489,0.011106,-0.001785,-0.33,-0.93,10.02
27375481,-0.022424,0.004715,0.000345,-0.12,-1.29,10.17
27376491,0.006339,-0.002742,-0.001785,0.04,-0.36,9.90
27377501,-0.012836,-0.004873,-0.001785,-0.33,-0.86,9.90
27378518,-0.017097,-0.000612,0.001410,-0.18,-1.47,9.76
27379521,-0.021358,0.004715,0.003541,0.01,-0.40,9.37
27380548,-0.019228,-0.003808,0.006737,-0.44,-0.78,9.63
27381541,-0.008575,-0.008069,0.012063,-0.12,-1.49,9.24
27382548,0.031906,-0.008069,0.008867,0.09,-0.22,9.37
27383568,0.032971,-0.002742,0.003541,-0.49,-0.64,9.76
27384568,0.023383,-0.005938,0.002476,-0.12,-1.45,9.53
27385578,0.020188,-0.009134,0.000345,0.09,-0.17,9.57
27386588,0.004208,-0.017656,-0.001785,-0.50,-0.57,9.60
27387598,-0.001118,-0.013395,-0.001785,-0.05,-1.27,9.11
27388615,0.013796,0.001519,-0.006047,0.14,-0.04,9.17
27389618,0.020188,0.010041,-0.009242,-0.45,-0.50,9.11
27390653,0.008469,0.010041,-0.007112,0.08,-1.09,8.85
27391644,0.018057,0.008976,-0.010308,0.18,0.06,9.34
27392651,-0.009640,0.005780,-0.010308,-0.44,-0.34,9.41
27393672,-0.025620,-0.000612,-0.007112,0.11,-0.75,9.40
27394671,-0.025620,0.002584,-0.003916,0.26,0.09,9.56
27395681,-0.028815,-0.001677,-0.001785,-0.34,-0.23,9.22
27396691,-0.039468,0.000453,0.002476,0.19,-0.32,9.13
27397701,-0.010706,0.001519,0.001410,0.32,0.21,9.21
27398718,0.002078,0.004715,0.000345,-0.36,0.02,9.09
27399721,0.001012,0.000453,0.003541,0.11,-0.13,9.41
27400748,0.004208,-0.004873,0.006737,0.31,0.15,9.75
27401741,-0.009640,-0.013395,0.009933,-0.25,0.32,9.68
27402748,-0.012836,-0.018722,0.012063,0.11,0.10,9.75
27403768,0.014861,-0.010199,0.008867,0.26,0.16,9.99
27404768,0.041493,-0.001677,0.004606,-0.17,0.54,9.76
27405778,0.031906,0.000453,0.005672,0.10,0.11,9.59
27406788,0.029775,0.000453,0.000345,0.30,0.23,9.97
27407798,0.008469,-0.001677,-0.002851,-0.11,0.67,10.12
27408815,-0.009640,-0.011265,-0.001785,-0.06,0.06,9.92
27409818,0.004208,-0.007004,-0.000720,0.32,0.24,10.49
27410853,0.012731,-0.001677,-0.002851,0.04,0.78,10.22
27411844,-0.009640,0.012172,-0.000720,-0.19,-0.07,9.82
27412851,-0.010706,0.017498,-0.003916,0.23,-0.04,10.64
27413872,-0.008575,0.012172,-0.007112,0.03,0.91,10.30
27414871,-0.037338,0.002584,-0.004981,-0.26,-0.26,9.82
27415881,-0.028815,0.001519,-0.003916,0.28,-0.13,10.75
27416891,-0.029881,0.000453,-0.003916,0.08,0.92,10.46
27417902,-0.039468,0.000453,0.001410,-0.19,-0.46,9.78
27418925,-0.019228,0.005780,0.003541,0.30,-0.16,10.89
27419942,0.018057,0.011106,0.002476,0.00,0.74,10.72
27420935,0.018057,0.005780,0.005672,-0.24,-0.60,10.03
27421950,0.026579,-0.007004,0.006737,0.21,-0.24,10.81
27422953,0.011665,-0.010199,0.005672,0.06,0.43,10.40
27423976,-0.002183,-0.016591,0.007802,-0.22,-0.70,9.70
27424975,0.010600,-0.005938,0.007802,0.06,-0.38,10.60
