time_us,gyro_x_rad_s,gyro_y_rad_s,gyro_z_rad_s,acc_x_m_s2,acc_y_m_s2,acc_z_m_s2
56801458,0.000006,0.001771,-0.002735,0.04,-0.29,9.80
56802481,-0.001060,0.000705,-0.000604,0.02,-0.28,9.82
56803322,0.000006,0.000705,-0.000604,0.01,-0.27,9.79
56804341,0.001071,0.001771,-0.001670,0.01,-0.26,9.84
56805299,0.001071,0.001771,-0.001670,0.01,-0.26,9.84
56806314,0.003201,0.001771,-0.000604,-0.03,-0.28,9.84
56807319,0.002136,-0.001425,0.000461,0.01,-0.28,9.82
56808329,0.000006,-0.004621,0.001526,0.04,-0.30,9.80
56809339,-0.002125,-0.003556,0.000461,0.01,-0.28,9.81
56810349,-0.002125,-0.000360,-0.000604,0.01,-0.22,9.85
56811314,0.001071,0.000705,-0.000604,0.02,-0.22,9.88
56812329,0.003201,-0.000360,0.000461,0.01,-0.23,9.83
56813339,0.002136,-0.001425,0.000461,-0.02,-0.23,9.76
56814337,0.003201,-0.000360,-0.000604,-0.01,-0.23,9.79
56815347,0.004267,0.000705,-0.001670,0.00,-0.22,9.82
56816305,0.004267,0.000705,-0.001670,0.00,-0.21,9.80
56817323,0.002136,-0.000360,0.000461,-0.01,-0.19,9.80
56818325,0.000006,-0.000360,0.000461,0.00,-0.21,9.81
56819335,0.000006,-0.000360,0.000461,0.03,-0.25,9.82
56820340,0.001071,-0.002491,-0.000604,0.04,-0.27,9.83
56821295,0.001071,-0.002491,-0.000604,0.04,-0.27,9.83
56822317,-0.001060,-0.003556,-0.002735,0.01,-0.26,9.84
56823334,0.001071,0.000705,-0.002735,-0.01,-0.26,9.85
56824325,0.002136,0.002836,-0.002735,0.02,-0.25,9.84
56825335,0.000006,-0.000360,-0.001670,0.03,-0.23,9.84
56826345,-0.001060,-0.002491,-0.001670,0.03,-0.24,9.81
56827355,-0.002125,-0.001425,0.000461,0.04,-0.28,9.80
56828371,-0.003190,0.000705,0.000461,-0.01,-0.29,9.82
56829375,-0.003190,0.002836,0.000461,-0.04,-0.29,9.83
56830385,-0.002125,0.003901,0.001526,0.00,-0.29,9.85
56831395,-0.001060,0.003901,0.001526,0.02,-0.26,9.84
56832417,-0.003190,0.006032,0.001526,0.00,-0.25,9.82
56833434,-0.003190,0.006032,-0.000604,0.01,-0.23,9.82
56834425,0.000006,0.003901,-0.001670,0.02,-0.22,9.83
56835435,0.002136,0.001771,-0.001670,0.02,-0.25,9.80
56836445,0.003201,0.000705,0.000461,0.01,-0.23,9.79
56837455,0.002136,-0.002491,0.001526,0.01,-0.22,9.79
56838474,0.000006,-0.000360,-0.000604,0.02,-0.26,9.82
56839475,-0.001060,0.002836,-0.003800,0.02,-0.29,9.85
56840485,0.000006,0.002836,-0.001670,0.02,-0.29,9.84
56841495,0.000006,0.001771,0.000461,-0.01,-0.28,9.82
56842527,0.000006,0.000705,-0.000604,0.00,-0.27,9.82
56843524,-0.001060,0.000705,-0.000604,0.03,-0.25,9.86
56844525,0.000006,-0.001425,0.001526,0.04,-0.25,9.87
56845535,0.001071,-0.003556,0.002592,0.02,-0.26,9.84
56846545,-0.001060,-0.003556,0.001526,0.00,-0.27,9.81
56847555,-0.004256,-0.002491,0.001526,0.02,-0.26,9.82
56848573,-0.004256,-0.001425,0.001526,0.02,-0.28,9.84
56849578,-0.001060,-0.002491,0.001526,0.01,-0.30,9.81
56850586,0.001071,-0.003556,0.000461,-0.02,-0.29,9.80
56851599,0.001071,-0.000360,-0.000604,0.01,-0.26,9.83
56852634,0.000006,0.002836,0.000461,0.03,-0.24,9.82
56853628,-0.001060,0.002836,0.001526,-0.01,-0.26,9.84
56854634,-0.003190,0.002836,0.002592,0.01,-0.27,9.82
56855641,-0.002125,0.000705,0.001526,0.03,-0.27,9.80
56856659,0.000006,-0.000360,0.001526,0.01,-0.28,9.81
56857663,0.001071,-0.000360,0.001526,0.01,-0.28,9.81
56858689,-0.001060,-0.002491,0.003657,0.04,-0.30,9.86
56859689,-0.003190,-0.004621,0.002592,0.04,-0.28,9.81
56860699,-0.002125,-0.003556,0.001526,0.00,-0.26,9.75
56861710,0.000006,-0.000360,0.002592,-0.01,-0.27,9.82
56862742,0.000006,0.002836,0.002592,0.01,-0.25,9.87
56863731,0.000006,0.002836,0.002592,0.02,-0.28,9.83
56864736,0.000006,0.001771,0.002592,0.03,-0.28,9.81
56865749,0.001071,0.001771,0.002592,0.04,-0.25,9.82
56866759,0.000006,0.001771,0.002592,0.01,-0.23,9.86
56867763,0.001071,0.002836,0.000461,0.00,-0.25,9.85
56868778,0.001071,0.001771,0.000461,0.02,-0.28,9.81
56869780,-0.001060,-0.000360,0.001526,0.04,-0.24,9.81
56870788,-0.001060,-0.000360,-0.000604,0.03,-0.23,9.82
56871796,-0.001060,0.002836,-0.001670,0.01,-0.24,9.84
56872830,-0.001060,0.002836,-0.001670,0.00,-0.26,9.82
56873828,-0.001060,-0.000360,-0.001670,-0.01,-0.28,9.81
56874829,0.000006,-0.001425,-0.000604,-0.01,-0.24,9.82
56875838,0.001071,-0.001425,0.002592,-0.02,-0.24,9.81
56876845,0.002136,-0.001425,0.002592,-0.01,-0.24,9.81
56877855,0.002136,-0.000360,0.001526,-0.02,-0.24,9.87
56878874,-0.001060,-0.000360,0.000461,-0.01,-0.24,9.89
56879875,-0.004256,-0.000360,0.001526,0.00,-0.23,9.88
56880885,-0.004256,0.000705,0.002592,-0.02,-0.21,9.85
56881907,-0.003190,0.000705,0.000461,-0.01,-0.19,9.81
56882957,0.000006,0.000705,-0.000604,0.02,-0.21,9.79
56883924,0.003201,-0.000360,-0.000604,0.01,-0.21,9.79
56884925,0.001071,-0.001425,-0.000604,-0.01,-0.23,9.83
56885935,-0.001060,-0.000360,-0.000604,-0.01,-0.24,9.86
56886945,0.000006,-0.001425,0.001526,-0.01,-0.23,9.86
56887955,0.003201,-0.002491,0.001526,0.02,-0.25,9.86
56888965,0.003201,-0.001425,0.000461,0.04,-0.25,9.83
56889981,0.000006,0.000705,0.000461,0.01,-0.24,9.81
56890985,-0.001060,0.001771,0.000461,0.02,-0.25,9.80
56892007,-0.001060,0.001771,0.000461,0.05,-0.24,9.79
56893016,0.000006,0.000705,-0.001670,0.01,-0.24,9.85
56894015,0.000006,0.000705,-0.001670,-0.03,-0.24,9.86
56895034,0.001071,0.000705,-0.000604,-0.01,-0.23,9.80
56896035,0.002136,0.000705,-0.000604,0.02,-0.26,9.80
56897045,0.002136,-0.000360,-0.000604,0.00,-0.27,9.82
56898055,0.001071,-0.001425,-0.001670,0.01,-0.25,9.79
56899065,0.001071,-0.000360,-0.001670,0.00,-0.23,9.78
56900084,0.001071,0.001771,-0.001670,-0.02,-0.23,9.81
56901085,0.000006,0.000705,-0.002735,-0.02,-0.22,9.85
56902107,-0.002125,-0.001425,-0.003800,0.00,-0.23,9.85
56903115,0.000006,-0.001425,-0.004865,0.02,-0.27,9.79
56904115,0.001071,-0.001425,-0.002735,0.01,-0.26,9.80
56905134,0.001071,-0.002491,0.000461,0.01,-0.24,9.85
56906135,0.000006,-0.001425,0.003657,0.03,-0.23,9.87
56907145,-0.001060,-0.000360,0.004722,0.03,-0.22,9.87
56908155,0.000006,-0.000360,0.002592,0.03,-0.24,9.85
56909165,0.000006,-0.001425,0.000461,0.04,-0.23,9.84
56910181,0.001071,-0.002491,-0.000604,0.01,-0.23,9.82
56911185,0.002136,-0.000360,-0.000604,0.02,-0.26,9.79
56912207,0.003201,0.001771,-0.000604,0.04,-0.28,9.79
56913216,0.003201,0.000705,0.000461,0.04,-0.24,9.80
56914215,0.001071,-0.000360,0.001526,0.02,-0.25,9.85
56915234,0.000006,-0.000360,0.001526,0.02,-0.28,9.85
56916235,-0.002125,0.000705,0.001526,0.03,-0.25,9.82
56917245,-0.002125,0.002836,0.000461,0.02,-0.25,9.82
56918285,-0.002121,0.004952,-0.000625,0.00,-0.29,9.78
56919265,-0.002121,0.004952,-0.000625,0.00,-0.28,9.82
56920284,0.000010,0.001756,-0.000625,0.00,-0.26,9.86
56921285,0.001075,-0.000375,-0.000625,0.01,-0.24,9.86
56922307,0.001075,-0.001440,-0.001690,0.03,-0.23,9.83
56923316,0.000010,-0.000375,0.001506,0.00,-0.23,9.80
56924315,0.001075,-0.000375,0.002571,0.02,-0.26,9.81
56925334,0.000010,0.000690,0.002571,-0.02,-0.27,9.82
56926335,0.000010,-0.000375,0.001506,-0.01,-0.25,9.86
56927345,0.000010,-0.000375,-0.000625,0.03,-0.24,9.84
56928355,-0.002121,-0.001440,0.000441,0.04,-0.23,9.82
56929365,-0.002121,-0.001440,0.000441,0.05,-0.27,9.85
56930381,-0.001055,-0.002505,0.000441,0.03,-0.29,9.84
56931385,-0.002121,-0.002505,-0.001690,0.02,-0.28,9.79
56932395,-0.002121,-0.001440,-0.002755,0.02,-0.27,9.79
56933416,-0.002121,-0.001440,0.000441,0.02,-0.28,9.81
56934415,-0.001055,-0.001440,0.001506,0.02,-0.28,9.82
56935434,0.000010,-0.000375,0.001506,0.01,-0.27,9.82
56936435,0.000010,0.000690,0.000441,0.00,-0.26,9.83
56937445,0.000010,-0.001440,-0.000625,0.00,-0.24,9.83
56938455,0.001075,-0.001440,0.000441,0.02,-0.23,9.79
56939465,0.002140,-0.000375,-0.000625,0.04,-0.23,9.78
56940484,0.000010,-0.000375,-0.001690,0.00,-0.21,9.80
56941485,-0.003186,-0.001440,-0.001690,-0.04,-0.23,9.80
56942495,-0.003186,-0.000375,-0.001690,-0.02,-0.24,9.81
56943515,-0.002121,0.000690,-0.001690,-0.01,-0.24,9.83
56944515,-0.001055,0.001756,-0.000625,0.01,-0.27,9.82
56945534,0.000010,0.000690,0.001506,0.04,-0.24,9.80
56946535,0.000010,-0.000375,0.002571,0.03,-0.23,9.78
56947545,-0.001055,-0.000375,0.003636,0.01,-0.28,9.86
56948555,-0.001055,-0.000375,0.003636,0.00,-0.28,9.90
56949565,-0.001055,-0.001440,0.001506,0.01,-0.25,9.80
56950586,-0.001055,-0.000375,0.001506,0.01,-0.26,9.80
56951586,-0.001055,0.000690,0.002571,0.03,-0.28,9.83
56952615,0.000010,-0.000375,0.005767,0.04,-0.28,9.81
56953613,0.000010,-0.001440,0.006832,0.01,-0.26,9.84
56954621,0.000010,-0.001440,0.003636,-0.02,-0.26,9.88
56955647,-0.002121,0.000690,-0.000625,0.01,-0.28,9.85
56956642,-0.003186,0.002821,-0.000625,0.03,-0.25,9.82
56957659,-0.003186,0.002821,0.001506,0.03,-0.26,9.85
56958664,-0.001055,0.001756,0.003636,0.03,-0.28,9.81
56959684,-0.002121,0.002821,0.001506,0.01,-0.28,9.82
56960698,-0.002121,0.002821,-0.000625,0.00,-0.25,9.82
56961697,0.000010,-0.002505,0.000441,0.02,-0.22,9.80
56962720,0.001075,-0.006766,0.001506,0.01,-0.24,9.88
56963716,0.000010,-0.003571,-0.000625,0.00,-0.26,9.88
56964729,0.001075,-0.001440,-0.002755,0.02,-0.24,9.84
56965748,0.002140,-0.001440,-0.001690,0.03,-0.25,9.87
56966748,0.003206,0.000690,0.001506,0.01,-0.28,9.85
56967759,0.003206,0.002821,0.004702,0.01,-0.29,9.84
56968763,0.003206,0.000690,0.004702,0.02,-0.28,9.86
56969772,0.002140,-0.000375,0.001506,0.02,-0.28,9.82
56970786,-0.001055,-0.001440,-0.001690,0.03,-0.27,9.78
56971788,0.000010,-0.001440,-0.002755,0.03,-0.24,9.78
56972805,0.002140,0.000690,-0.001690,0.00,-0.26,9.81
56973808,0.003206,0.002821,-0.000625,0.02,-0.29,9.84
56974820,0.003206,0.002821,0.000441,0.02,-0.28,9.87
56975837,0.000010,0.001756,-0.000625,0.00,-0.28,9.83
56976838,-0.003186,-0.000375,-0.001690,0.01,-0.28,9.84
56977845,-0.003186,-0.001440,0.000441,-0.02,-0.26,9.84
56978881,-0.001055,-0.001440,0.001506,-0.03,-0.23,9.86
56979865,-0.001055,-0.001440,0.000441,-0.01,-0.24,9.90
56980884,-0.001055,-0.002505,-0.000625,0.02,-0.25,9.80
56981885,0.000010,-0.001440,-0.002755,0.03,-0.22,9.78
56982906,0.001075,-0.000375,-0.001690,0.04,-0.21,9.89
56983905,0.002140,-0.001440,0.000441,0.02,-0.25,9.86
56984915,0.002140,-0.003571,0.000441,-0.01,-0.25,9.79
56985974,0.001075,-0.001440,-0.000625,0.00,-0.20,9.82
56986970,0.002140,-0.000375,-0.001690,0.00,-0.21,9.85
56987945,0.004271,-0.000375,-0.001690,0.01,-0.23,9.83
56988956,0.004271,-0.000375,-0.000625,0.01,-0.27,9.82
56989965,0.004271,0.000690,0.000441,-0.01,-0.29,9.81
56990981,0.003206,0.001756,0.000441,-0.02,-0.25,9.81
56991985,0.001075,0.001756,0.000441,-0.01,-0.24,9.83
56993004,0.000010,0.000690,0.001506,0.00,-0.26,9.86
56994005,0.001075,-0.000375,0.000441,0.00,-0.25,9.86
56995015,0.000010,0.000690,-0.001690,0.01,-0.24,9.86
56996034,-0.001055,0.000690,-0.001690,0.00,-0.23,9.83
56997035,-0.001055,0.001756,-0.001690,0.02,-0.26,9.77
56998045,-0.001055,0.000690,0.000441,0.04,-0.28,9.76
56999055,-0.001055,-0.000375,0.002571,0.01,-0.29,9.77
57000065,-0.002121,-0.001440,0.001506,-0.01,-0.28,9.79
57001084,-0.002121,-0.003571,-0.000625,0.01,-0.28,9.82
57002085,-0.001055,-0.004636,-0.000625,0.00,-0.28,9.86
57003105,0.001075,-0.002505,0.000441,-0.02,-0.28,9.85
57004105,0.000010,-0.001440,0.001506,0.00,-0.28,9.80
57005115,0.000010,0.000690,0.001506,0.03,-0.27,9.83
57006134,0.000010,0.000690,0.000441,0.00,-0.25,9.86
57007135,0.000010,0.000690,-0.000625,-0.01,-0.24,9.82
57008145,-0.001055,0.002821,-0.002755,0.02,-0.24,9.79
57009155,-0.002121,0.004952,-0.003821,0.02,-0.24,9.79
57010165,-0.003186,0.003886,-0.002755,0.02,-0.25,9.84
57011181,-0.003186,0.002821,-0.000625,0.03,-0.28,9.86
57012185,-0.001055,0.001756,-0.000625,0.03,-0.27,9.82
57013204,0.001075,0.000690,0.000441,0.02,-0.24,9.78
57014205,0.003206,-0.000375,0.001506,0.01,-0.22,9.78
57015215,0.004271,-0.001440,0.002571,0.00,-0.23,9.82
57016234,0.003206,0.000690,0.001506,0.01,-0.24,9.84
57017235,0.002140,0.003886,0.001506,0.03,-0.22,9.84
57018245,0.000010,0.006017,0.000441,0.01,-0.23,9.86
57019255,0.000010,0.002821,-0.001690,0.01,-0.21,9.87
57020265,0.000010,-0.001440,-0.001690,0.02,-0.22,9.83
57021284,-0.001055,-0.003571,-0.000625,0.00,-0.27,9.85
57022285,-0.002121,-0.003571,-0.000625,-0.02,-0.27,9.87
57023305,-0.001055,-0.003571,-0.001690,0.01,-0.26,9.82
57024305,0.000010,-0.003571,0.000441,-0.01,-0.25,9.82
57025315,0.000010,0.002821,0.002571,0.02,-0.26,9.86
57026334,0.000010,0.001756,-0.000625,0.03,-0.27,9.83
57027335,0.001075,0.001756,-0.000625,-0.01,-0.25,9.81
57028345,0.001075,0.003886,-0.000625,0.01,-0.24,9.83
57029355,0.000010,0.004952,-0.000625,0.03,-0.25,9.82
57030365,-0.001055,0.003886,-0.000625,0.03,-0.26,9.79
57031381,-0.001055,0.001756,-0.000625,0.03,-0.24,9.81
57032385,0.000010,0.000690,-0.000625,0.04,-0.25,9.79
57033404,-0.001055,0.000690,-0.002755,0.01,-0.28,9.79
57034405,-0.002121,0.000690,-0.002755,-0.01,-0.27,9.82
57035415,-0.001055,0.000690,-0.000625,-0.03,-0.25,9.84
57036434,0.000010,0.001756,0.001506,-0.01,-0.25,9.82
57037435,0.002140,0.000690,0.001506,0.02,-0.28,9.82
57038445,0.002140,-0.001440,0.001506,0.01,-0.26,9.85
57039455,0.002140,-0.002505,-0.000625,0.00,-0.23,9.86
57040465,0.001075,-0.001440,-0.000625,0.03,-0.24,9.85
57041484,0.000010,-0.000375,-0.000625,0.02,-0.23,9.84
57042485,-0.001055,0.000690,0.000441,0.01,-0.24,9.82
57043505,-0.001055,0.001756,0.000441,0.05,-0.27,9.85
57044505,0.000010,0.000690,-0.000625,0.01,-0.26,9.87
57045515,0.001075,-0.000375,-0.000625,-0.04,-0.23,9.86
57046534,0.001075,-0.001440,0.000441,-0.02,-0.27,9.87
57047561,-0.001053,-0.000380,0.000422,0.01,-0.28,9.85
57048545,-0.002118,-0.000380,-0.000644,-0.02,-0.26,9.84
57049555,-0.004248,0.000686,-0.001709,-0.05,-0.27,9.83
57050565,-0.002118,0.001751,-0.003840,-0.01,-0.28,9.84
57051585,0.001078,0.000686,-0.001709,0.02,-0.28,9.84
57052596,0.002143,0.000686,0.001487,-0.01,-0.26,9.86
57053599,0.000013,-0.000380,0.001487,-0.02,-0.25,9.83
57054614,-0.001053,-0.000380,0.000422,-0.01,-0.25,9.80
57055622,0.000013,-0.002510,-0.000644,0.03,-0.27,9.79
57056650,-0.001053,-0.000380,-0.000644,0.04,-0.29,9.80
57057642,-0.002118,0.001751,-0.000644,0.02,-0.27,9.82
57058652,-0.003183,-0.000380,0.000422,0.04,-0.28,9.78
57059665,-0.002118,-0.000380,0.001487,0.03,-0.28,9.80
57060682,0.000013,0.000686,-0.000644,0.00,-0.22,9.87
57061698,-0.001053,-0.000380,-0.002774,-0.02,-0.21,9.86
57062705,-0.001053,-0.000380,-0.001709,-0.02,-0.25,9.79
57063707,-0.001053,0.001751,0.000422,0.00,-0.29,9.74
57064719,0.000013,0.002816,0.001487,0.02,-0.30,9.77
57065726,0.001078,0.001751,0.000422,0.01,-0.25,9.81
57066748,0.001078,-0.000380,-0.001709,-0.02,-0.23,9.81
57067742,0.001078,-0.000380,-0.001709,0.00,-0.24,9.86
57068755,0.000013,0.000686,-0.000644,0.02,-0.25,9.85
57069762,-0.001053,0.001751,-0.001709,0.03,-0.26,9.84
57070775,0.001078,0.001751,-0.001709,0.01,-0.27,9.89
57071786,0.004274,-0.000380,-0.000644,0.00,-0.26,9.89
57072796,0.004274,0.000686,0.001487,0.00,-0.24,9.86
57073796,0.001078,-0.000380,0.001487,-0.01,-0.26,9.81
57074808,-0.001053,0.000686,0.002552,-0.02,-0.27,9.81
57075820,-0.001053,0.000686,0.000422,-0.04,-0.28,9.83
57076837,0.001078,0.001751,-0.001709,-0.03,-0.28,9.78
57077838,0.002143,-0.000380,-0.001709,-0.02,-0.27,9.78
57078845,0.003209,-0.002510,-0.000644,0.02,-0.29,9.79
57079855,0.003209,-0.002510,-0.000644,0.02,-0.28,9.78
57080865,0.003209,-0.001445,-0.001709,0.00,-0.25,9.82
57081884,0.002143,-0.001445,-0.000644,0.01,-0.24,9.82
57082892,0.002143,-0.001445,0.000422,-0.01,-0.26,9.77
57083895,0.001078,-0.001445,0.000422,-0.02,-0.26,9.74
57084905,0.001078,-0.003576,-0.000644,0.00,-0.26,9.80
57085915,0.002143,-0.002510,0.000422,-0.02,-0.25,9.81
57086934,0.001078,-0.001445,0.001487,-0.03,-0.22,9.79
57087974,0.000013,0.000686,0.000422,-0.01,-0.25,9.80
57088945,0.000013,0.000686,-0.000644,0.00,-0.27,9.79
57089955,0.000013,0.000686,-0.000644,0.00,-0.25,9.83
57090965,0.001078,-0.000380,-0.000644,-0.03,-0.25,9.79
57091981,0.002143,-0.000380,-0.001709,-0.02,-0.25,9.77
57092994,-0.001053,0.000686,-0.000644,0.03,-0.26,9.84
57093995,-0.004248,0.001751,0.001487,0.03,-0.26,9.86
57095005,-0.004248,0.002816,0.000422,0.02,-0.26,9.86
57096015,0.000013,0.003881,-0.000644,0.02,-0.26,9.86
57097034,0.002143,0.002816,-0.001709,0.01,-0.26,9.80
57098035,0.000013,0.001751,0.000422,0.03,-0.27,9.79
57099045,-0.003183,0.002816,0.001487,0.02,-0.28,9.84
57100055,-0.003183,0.002816,0.002552,0.01,-0.25,9.87
57101065,-0.001053,0.002816,0.002552,0.01,-0.23,9.88
57102084,0.001078,0.002816,0.000422,0.02,-0.24,9.85
57103092,0.002143,0.000686,-0.000644,0.04,-0.25,9.83
57104095,0.000013,-0.000380,-0.000644,0.01,-0.25,9.77
57105105,0.000013,-0.001445,0.000422,-0.03,-0.28,9.79
57106115,0.000013,-0.000380,0.001487,-0.02,-0.29,9.83
57107134,0.001078,0.001751,0.002552,0.02,-0.28,9.81
57108135,0.000013,0.002816,0.002552,0.02,-0.25,9.85
57109145,-0.002118,0.003881,0.001487,0.01,-0.25,9.90
57110155,-0.004248,0.004947,0.001487,0.02,-0.25,9.86
57111165,-0.003183,0.001751,0.002552,0.04,-0.24,9.83
57112181,-0.002118,-0.000380,0.002552,0.02,-0.27,9.87
57113194,0.000013,-0.000380,0.002552,0.03,-0.27,9.86
57114195,0.003209,0.000686,0.000422,0.03,-0.24,9.81
57115205,0.003209,0.001751,-0.001709,0.02,-0.25,9.80
57116215,-0.001053,0.001751,-0.001709,0.02,-0.28,9.81
57117234,-0.002118,0.002816,0.000422,0.01,-0.28,9.83
57118235,-0.001053,0.003881,-0.000644,0.03,-0.28,9.85
57119245,-0.001053,0.003881,-0.001709,0.02,-0.27,9.85
57120255,0.000013,0.002816,-0.000644,-0.01,-0.29,9.86
57121265,0.000013,0.001751,0.001487,-0.02,-0.28,9.90
57122284,-0.001053,0.000686,-0.000644,-0.03,-0.23,9.84
57123292,-0.002118,0.000686,-0.001709,0.01,-0.22,9.76
57124295,0.001078,0.000686,-0.001709,0.03,-0.24,9.80
57125305,0.002143,0.000686,-0.003840,0.03,-0.27,9.87
57126315,-0.001053,-0.003576,-0.000644,0.00,-0.27,9.86
57127334,-0.003183,-0.003576,0.003617,0.01,-0.24,9.89
57128335,0.000013,-0.001445,0.003617,0.00,-0.21,9.85
57129345,0.002143,-0.000380,0.000422,-0.01,-0.25,9.79
57130355,0.002143,0.000686,-0.000644,0.05,-0.27,9.78
57131365,0.002143,0.001751,0.000422,0.04,-0.27,9.81
57132381,0.003209,0.000686,0.000422,0.00,-0.25,9.84
57133394,0.001078,-0.000380,-0.000644,0.01,-0.23,9.85
57134395,-0.001053,-0.000380,-0.000644,0.00,-0.24,9.81
57135405,-0.001053,0.000686,0.000422,0.00,-0.27,9.78
57136415,0.001078,0.002816,0.002552,-0.01,-0.28,9.86
57137434,0.001078,0.003881,0.002552,0.02,-0.28,9.88
57138435,0.001078,0.002816,0.002552,0.04,-0.27,9.83
57139445,0.001078,0.000686,0.001487,0.02,-0.25,9.78
57140455,0.000013,-0.000380,-0.000644,0.00,-0.23,9.76
57141465,-0.001053,-0.001445,-0.002774,-0.01,-0.24,9.78
57142484,0.000013,-0.000380,-0.002774,-0.01,-0.26,9.79
57143492,0.000013,0.000686,-0.002774,0.01,-0.24,9.76
57144495,0.000013,0.000686,-0.001709,0.00,-0.26,9.75
57145505,0.000013,0.000686,0.000422,-0.03,-0.26,9.78
57146515,0.000013,0.001751,0.000422,0.00,-0.25,9.79
57147534,0.001078,0.000686,-0.000644,0.03,-0.24,9.80
57148535,0.000013,0.001751,-0.001709,0.03,-0.21,9.83
57149545,-0.002118,0.002816,-0.001709,0.02,-0.22,9.85
57150555,-0.002118,0.002816,-0.001709,0.03,-0.24,9.84
57151565,0.000013,0.000686,-0.001709,0.01,-0.25,9.85
57152588,0.001078,-0.001445,0.000422,-0.01,-0.27,9.89
57153586,0.000013,-0.000380,0.001487,0.00,-0.28,9.84
57154598,-0.001053,0.000686,0.000422,0.02,-0.28,9.77
57155611,0.001078,0.000686,-0.001709,0.01,-0.27,9.81
57156620,0.002143,-0.000380,-0.002774,-0.01,-0.24,9.82
57157645,0.001078,0.000686,-0.002774,0.01,-0.23,9.81
57158642,0.000013,0.000686,-0.000644,0.03,-0.26,9.79
57159658,-0.001053,-0.001445,0.001487,0.03,-0.25,9.83
57160671,-0.002118,-0.002510,0.001487,0.01,-0.23,9.85
57161680,-0.001053,-0.002510,0.001487,0.00,-0.26,9.80
57162704,0.000013,-0.002510,0.000422,0.00,-0.28,9.80
57163694,0.000013,0.000686,-0.000644,-0.01,-0.27,9.83
57164709,-0.001053,0.001751,0.001487,0.01,-0.25,9.82
57165712,-0.002118,0.000686,0.003617,0.02,-0.25,9.80
57166734,-0.003183,-0.001445,0.002552,0.04,-0.25,9.88
57167744,-0.005314,-0.002510,0.001487,0.05,-0.28,9.87
57168746,-0.003183,-0.003576,0.000422,0.02,-0.27,9.80
57169758,0.001078,-0.001445,-0.000644,0.04,-0.25,9.82
57170764,0.001078,0.000686,-0.001709,0.01,-0.25,9.83
57171771,-0.001053,0.001751,-0.002774,-0.01,-0.27,9.88
57172793,0.000013,0.001751,-0.002774,0.03,-0.26,9.86
57173788,0.002143,0.001751,-0.000644,0.02,-0.26,9.83
57174796,0.004274,0.002816,0.000422,0.01,-0.26,9.85
57175808,0.003209,0.002816,0.000422,0.02,-0.26,9.83
57176846,0.001078,0.002750,-0.000635,-0.01,-0.25,9.88
57177837,0.000013,0.001684,-0.000635,-0.02,-0.23,9.88
57178838,0.001078,0.002750,-0.000635,0.02,-0.26,9.83
57179845,0.001078,0.002750,-0.001701,0.02,-0.26,9.81
57180855,-0.001052,0.003815,-0.001701,0.00,-0.26,9.80
57181865,-0.001052,0.002750,0.000430,0.01,-0.25,9.84
57182891,0.000013,0.000619,0.001495,0.01,-0.24,9.87
57183893,0.001078,-0.001512,0.001495,0.00,-0.26,9.87
57184895,0.001078,-0.000446,0.002561,-0.02,-0.25,9.84
57185905,-0.001052,0.001684,0.003626,-0.02,-0.24,9.84
57186915,-0.003183,0.002750,0.001495,-0.01,-0.22,9.86
57187934,-0.003183,0.000619,-0.002766,0.01,-0.21,9.83
57188935,0.000013,0.000619,-0.002766,0.00,-0.25,9.82
57189963,0.002144,0.000619,-0.000635,-0.04,-0.28,9.80
57190955,0.000013,0.000619,0.002561,-0.03,-0.28,9.80
57191965,-0.003183,-0.001512,0.002561,0.00,-0.27,9.82
57192987,-0.002117,-0.002577,-0.000635,0.00,-0.24,9.85
57193985,-0.003183,-0.002577,-0.000635,0.01,-0.25,9.81
57194995,-0.003183,-0.003642,0.001495,0.00,-0.26,9.78
57196005,0.000013,-0.001512,0.000430,-0.04,-0.24,9.82
57197015,0.002144,0.001684,0.000430,-0.01,-0.24,9.81
57198034,0.001078,0.001684,0.002561,-0.02,-0.23,9.79
57199035,0.001078,0.000619,0.003626,-0.02,-0.25,9.83
57200045,0.000013,-0.001512,0.000430,0.02,-0.28,9.83
57201055,0.000013,-0.001512,-0.000635,0.04,-0.28,9.80
57202065,0.000013,0.000619,-0.001701,0.00,-0.25,9.79
57203091,0.000013,0.000619,-0.003831,-0.04,-0.26,9.80
57204085,0.001078,-0.000446,-0.005962,-0.04,-0.24,9.80
57205095,0.002144,-0.001512,-0.004896,0.00,-0.24,9.76
57206105,0.000013,-0.001512,-0.002766,0.03,-0.26,9.73
57207115,-0.001052,-0.002577,-0.001701,0.01,-0.24,9.78
57208134,0.001078,-0.002577,-0.002766,0.01,-0.24,9.84
57209135,0.003209,-0.002577,-0.001701,-0.01,-0.27,9.84
57210145,0.003209,-0.001512,0.000430,0.00,-0.27,9.90
57211155,0.002144,-0.002577,0.000430,0.02,-0.24,9.92
57212165,0.002144,-0.003642,0.001495,-0.02,-0.26,9.87
57213187,0.001078,-0.002577,0.001495,-0.03,-0.27,9.82
57214185,0.000013,-0.001512,-0.000635,-0.01,-0.24,9.80
57215195,0.000013,0.000619,-0.001701,-0.01,-0.24,9.78
57216205,0.000013,0.000619,-0.002766,-0.02,-0.27,9.75
57217215,0.000013,0.001684,-0.002766,-0.02,-0.28,9.77
57218234,0.002144,0.001684,-0.002766,-0.03,-0.27,9.82
57219235,0.002144,-0.000446,-0.001701,0.00,-0.25,9.79
57220245,0.002144,-0.001512,0.000430,0.03,-0.24,9.78
57221255,0.002144,-0.001512,0.001495,0.02,-0.25,9.82
57222265,0.003209,-0.000446,0.001495,0.02,-0.24,9.85
57223291,0.001078,0.000619,0.001495,0.00,-0.22,9.81
57224285,0.000013,0.000619,0.000430,0.01,-0.25,9.74
57225295,0.000013,-0.000446,-0.000635,0.01,-0.28,9.77
57226305,0.000013,-0.000446,-0.000635,0.00,-0.26,9.85
57227315,-0.004248,-0.000446,0.001495,-0.02,-0.26,9.84
57228334,-0.004248,-0.000446,0.000430,-0.02,-0.26,9.82
57229335,-0.001052,-0.000446,0.000430,0.01,-0.23,9.81
57230345,0.000013,-0.000446,0.001495,0.02,-0.23,9.77
57231355,-0.002117,-0.000446,0.001495,0.00,-0.27,9.76
57232365,-0.001052,-0.001512,0.001495,0.01,-0.26,9.76
57233387,-0.001052,-0.002577,0.001495,0.03,-0.25,9.79
57234385,-0.001052,-0.002577,0.000430,0.03,-0.27,9.80
57235395,0.000013,-0.000446,0.001495,0.03,-0.27,9.80
57236405,0.002144,-0.001512,0.001495,0.01,-0.27,9.82
57237415,0.003209,-0.004707,0.000430,0.02,-0.28,9.81
57238434,0.003209,-0.006838,0.001495,0.00,-0.26,9.86
57239435,0.003209,-0.004707,0.000430,-0.02,-0.22,9.89
57240445,0.003209,-0.001512,0.000430,0.00,-0.23,9.81
57241455,0.002144,-0.000446,0.001495,0.00,-0.26,9.82
57242464,0.001078,-0.000446,0.000430,0.01,-0.27,9.84
57243752,-0.001052,-0.001512,0.000430,-0.01,-0.25,9.84
57244463,-0.007444,0.002750,-0.000635,0.01,-0.17,9.78
57245466,-0.050055,0.027251,0.005756,-0.03,-0.14,9.80
57246476,-0.057512,0.028316,0.005756,0.01,-0.22,9.75
57247486,-0.034076,0.015533,0.011083,0.14,-0.28,9.88
57248504,-0.011705,0.002750,0.020670,0.09,-0.21,9.91
57249506,-0.001052,-0.003642,0.022801,0.05,-0.38,9.80
57250516,0.005340,-0.007903,0.019605,-0.12,-0.47,9.81
57251526,0.000013,-0.006838,0.017474,-0.36,-0.25,9.69
57252536,-0.001052,-0.004707,0.014279,-0.39,-0.06,9.81
57253568,-0.008509,-0.000446,0.021736,0.01,0.12,9.88
57254558,-0.011705,0.005945,0.027062,0.50,-0.36,9.85
57255567,0.000013,0.010207,0.017474,0.43,-0.95,9.92
57256581,0.004274,0.009141,-0.003831,-0.27,-0.52,9.94
57257598,-0.014901,-0.001512,-0.019810,-0.52,0.49,9.92
57258617,-0.019162,-0.014295,-0.012353,0.26,-0.02,9.48
57259624,0.013862,-0.004707,-0.000635,0.56,-1.33,9.53
57260624,0.037298,0.017664,-0.010223,-0.30,0.19,10.61
57261634,-0.010640,0.004880,-0.016615,-0.41,0.81,9.88
57262652,-0.041533,-0.028144,-0.002766,0.72,-2.10,8.76
57263678,0.031972,-0.004707,-0.004896,0.24,0.19,10.62
57264678,0.040494,0.007011,-0.014484,-0.63,2.22,10.31
57265676,-0.071361,-0.034535,-0.000635,0.16,-3.43,8.03
57266690,-0.018097,0.001684,-0.004896,0.17,0.43,11.00
57267694,0.091627,0.026186,-0.007027,-0.53,2.48,10.30
57268712,0.002144,-0.033470,0.007887,0.13,-3.84,8.01
57269717,0.006405,0.000619,-0.000635,0.51,1.74,11.85
57270728,0.058604,0.018729,0.010017,-0.33,-0.28,9.06
57271736,-0.010640,-0.004707,0.003626,-0.16,-1.27,10.16
57272746,0.010666,-0.007903,-0.001701,0.19,0.52,9.73
57273771,-0.039402,-0.005773,0.003626,0.33,-0.84,8.95
57274762,-0.008509,0.025120,0.003626,-0.88,-0.30,11.27
57275767,0.008535,-0.028144,0.011083,0.63,0.29,8.71
57276781,-0.004248,-0.014295,0.008952,-0.12,-0.97,10.38
57277791,0.028776,-0.003642,0.013213,-0.02,-0.23,9.63
57278809,0.037298,0.002750,0.001495,0.15,0.27,9.89
57279809,0.010666,-0.002577,0.002561,0.04,-0.70,9.82
57280817,-0.012770,0.003815,-0.000635,0.32,0.12,9.29
57281827,-0.023423,0.012337,0.000430,-0.02,0.26,10.95
57282849,-0.024488,-0.000446,-0.008092,0.74,0.21,8.57
57283856,-0.031945,-0.001512,-0.005962,-0.96,-1.01,10.42
57284857,-0.026619,0.021925,-0.001701,0.17,0.47,9.09
57285867,-0.012770,-0.005773,-0.001701,-0.42,-1.13,11.09
57286877,0.026645,-0.033470,-0.003831,0.39,0.52,10.50
57287887,0.012797,-0.026013,-0.001701,0.66,-0.17,8.29
57288905,-0.003183,-0.005773,0.001495,-0.80,-1.10,12.03
57289907,-0.013835,-0.001512,0.002561,0.20,0.42,6.76
57290917,-0.012770,-0.005773,0.004691,-0.28,-0.82,10.55
57291927,-0.011705,-0.000446,0.005756,-0.34,-0.83,11.23
57292971,-0.011705,0.004880,0.006822,0.64,0.62,7.54
57293956,-0.015966,0.003815,0.002561,-0.53,-0.83,12.29
57294957,-0.033011,0.002750,0.002561,-0.23,-0.87,10.72
57295967,-0.015966,0.011272,0.004691,0.70,0.79,7.21
57296977,0.012797,0.011272,0.007887,-0.44,-0.48,11.08
57297987,-0.008509,0.002750,0.008952,-0.52,-1.43,10.48
57299005,-0.057512,-0.000446,0.003626,0.76,0.73,7.04
57300007,-0.067100,0.002750,-0.005962,0.20,0.61,10.74
57301017,-0.022358,-0.001512,-0.009158,-0.92,-1.75,12.33
57302027,0.009601,-0.003642,-0.003831,0.51,-0.07,8.43
57303049,0.040494,0.004880,-0.000635,1.00,1.28,8.73
57304056,0.057538,-0.011099,-0.003831,-0.54,-0.48,12.16
57305057,0.049016,-0.037731,-0.005962,-0.67,-1.70,10.17
57306067,0.029841,-0.032405,-0.003831,0.90,0.24,6.87
57307077,0.022384,-0.010034,-0.001701,0.94,1.54,9.11
57308087,0.014927,0.017664,0.000430,-0.95,-0.72,12.45
57309105,0.008535,0.042165,-0.002766,-0.83,-2.05,10.43
57310107,0.014927,0.049622,-0.005962,0.91,0.19,7.47
57311117,0.030906,0.010207,-0.004896,0.87,1.54,9.22
57312127,0.047951,-0.023882,-0.000635,-0.63,0.07,12.35
57313150,0.063930,-0.019621,0.006822,-1.20,-1.73,11.02
57314156,0.041559,-0.003642,0.008952,0.23,-1.36,7.66
57315157,-0.013835,-0.011099,0.003626,0.97,0.59,7.42
57316167,-0.035141,-0.021752,0.004691,0.13,1.73,10.67
57317177,-0.024488,-0.024948,0.011083,-0.93,-0.18,12.72
57318187,-0.017031,-0.029209,0.015344,-1.19,-3.01,10.69
57319205,-0.007444,-0.017491,0.012148,0.38,-1.39,8.09
57320207,0.000013,0.002750,0.012148,0.98,0.93,7.52
57321217,0.003209,0.012337,0.014279,0.46,1.67,9.89
57322227,0.005340,0.011272,0.012148,-0.30,0.56,12.33
57323249,0.006405,0.009141,0.011083,-1.04,-2.43,11.38
57324256,0.009601,0.001684,0.006822,-0.66,-2.99,8.97
57325257,0.005340,-0.008968,0.002561,0.54,-0.30,8.00
57326267,0.003209,-0.007903,0.000430,1.15,1.23,8.22
57327277,0.006405,0.008076,0.002561,0.83,1.49,10.22
57328287,0.020254,0.015533,-0.001701,-0.24,1.27,12.19
57329305,0.005340,-0.008968,-0.000635,-0.40,-2.77,9.89
57330307,-0.008509,-0.012164,0.000430,0.25,-1.62,8.47
57331317,-0.009574,-0.001512,-0.000635,0.35,-0.38,8.06
57332327,-0.011705,-0.003642,-0.008092,1.06,1.75,8.64
57333350,-0.007444,-0.013230,-0.010223,0.94,1.88,10.07
57334356,0.006405,-0.017491,-0.012353,-0.35,1.25,11.53
57335357,0.018123,-0.024948,-0.008092,-0.91,-0.21,11.50
57336367,0.008535,-0.013230,-0.008092,-0.67,-2.55,11.03
57337377,-0.007444,0.001684,-0.013419,-0.45,-2.71,9.00
57338387,-0.001052,0.000619,-0.014484,-0.29,-1.51,8.62
57339405,-0.010640,0.000619,-0.011288,0.63,0.26,8.95
57340407,0.047951,0.005945,-0.011288,0.95,0.87,7.69
57341417,-0.008509,0.008076,-0.010223,0.29,1.75,9.19
57342427,-0.095862,-0.001512,0.002561,0.16,2.17,10.66
57343449,-0.094797,-0.007903,0.017474,0.11,1.02,11.82
57344456,-0.051120,-0.004707,0.021736,-0.55,-0.81,11.72
57345457,-0.022358,-0.010034,0.022801,-1.00,-2.24,10.47
57346467,-0.050055,-0.013230,0.016409,-0.37,-2.08,10.77
57347477,-0.056447,-0.006838,0.003626,0.01,-2.22,9.27
57348487,0.001078,0.003815,0.001495,-0.37,-1.96,8.36
57349505,0.017058,0.007011,0.006822,0.45,-0.28,8.93
57350507,0.021319,-0.012164,0.006822,0.62,-0.12,7.59
57351517,-0.017031,-0.000446,0.004691,0.19,1.50,8.41
57352527,-0.018097,0.011272,0.003626,0.76,1.58,9.50
57353550,0.008535,0.007011,-0.001701,0.26,1.57,10.86
57354556,0.002144,0.001684,-0.002766,-0.02,1.69,11.54
57355557,-0.022358,0.009141,-0.004896,0.13,0.08,11.31
57356567,-0.051120,0.017664,-0.003831,-0.37,-0.41,10.90
57357582,-0.051120,0.003815,-0.000635,-0.58,-1.59,9.71
57358596,-0.055381,0.005945,0.000430,-0.39,-1.35,10.50
57359610,-0.057512,0.016598,-0.001701,-0.34,-1.61,9.83
57360620,-0.047924,0.008076,-0.005962,-0.18,-1.91,9.24
57361620,-0.021292,-0.001512,-0.010223,-0.30,-1.40,10.31
57362631,0.043690,-0.004707,-0.007027,0.33,-1.16,10.30
57363661,0.047951,-0.012164,0.002561,0.38,-0.57,8.75
57364674,-0.036206,-0.000446,0.000430,-0.07,0.09,8.16
57365675,-0.045794,0.017664,-0.000635,0.61,0.13,7.41
57366682,-0.023423,0.016598,0.001495,-0.02,0.39,8.75
57367690,0.006405,-0.011099,-0.003831,0.08,1.46,9.75
57368693,0.021319,-0.029209,-0.002766,0.70,0.92,9.56
57369709,-0.005313,0.000619,-0.008092,-0.05,1.09,10.62
57370717,-0.014901,0.020859,-0.005962,-0.01,1.14,10.45
57371727,-0.001052,0.010207,-0.003831,0.23,0.58,10.80
57372736,-0.008509,-0.005773,-0.001701,-0.35,0.21,10.94
57373758,0.011731,-0.027078,0.000430,0.03,-0.41,10.40
57374760,0.034102,-0.019621,-0.001701,-0.01,-0.04,10.71
57375761,0.015992,0.015533,-0.003831,-0.55,-1.13,9.67
57376767,-0.004248,0.034708,-0.005962,-0.26,-1.06,10.37
57377781,-0.020227,0.020859,-0.009158,-0.27,-0.92,11.31
57378791,0.000013,-0.024948,-0.004896,0.05,-1.70,10.12
57379809,0.009601,-0.022817,0.001495,0.01,-0.87,10.75
57380809,-0.006378,0.014468,0.003626,-0.21,-1.27,10.13
57381817,0.001078,0.024055,0.005756,-0.13,-1.73,8.92
57382839,0.005340,0.005945,0.005756,-0.25,-0.63,10.16
57383838,0.028776,-0.028144,0.002561,0.27,-1.28,9.36
57384855,0.036233,-0.031339,-0.000635,0.23,-0.81,8.82
57385857,0.003209,0.000619,-0.002766,-0.07,0.00,9.43
57386867,0.002144,0.025120,0.000430,0.22,-0.81,8.55
57387877,0.009601,0.031512,0.002561,-0.48,-0.43,9.17
57388887,0.020254,0.005945,0.005756,0.07,0.11,9.25
57389905,0.025580,-0.023882,0.010017,0.42,-0.09,8.71
57390907,-0.007444,-0.017491,0.006822,-0.20,0.48,9.15
57391917,-0.024488,-0.000446,0.003626,0.31,0.34,8.71
57392940,-0.017031,0.007011,0.000430,-0.18,-0.17,9.04
57393938,0.012797,-0.007903,0.000430,-0.12,0.90,9.74
57394981,0.034102,-0.026013,0.002561,0.44,0.24,9.23
57395957,0.000013,-0.011099,-0.002766,-0.11,0.45,9.94
57396967,-0.023423,0.017664,-0.003831,0.14,0.62,9.72
57397977,-0.006378,0.035773,-0.000635,0.21,-0.01,10.02
57398987,0.008535,0.018729,-0.002766,-0.27,0.86,10.89
57400005,0.024515,-0.022817,-0.004896,0.32,0.03,9.86
57401007,0.010666,-0.018556,-0.005962,0.25,0.24,10.02
57402017,-0.020227,0.015533,-0.008092,-0.44,0.13,9.92
57403039,0.003209,0.014468,-0.009158,0.32,-0.31,10.25
57404038,0.006405,-0.010034,-0.011288,0.25,0.93,10.69
57405055,-0.026619,-0.016425,-0.011288,-0.54,-0.57,9.42
57406057,-0.005313,-0.015360,-0.010223,0.52,-0.41,10.38
57407067,0.010666,-0.006838,-0.010223,0.37,1.26,11.23
57408077,-0.008509,0.014468,-0.008092,-0.59,-0.72,9.59
57409087,-0.014901,0.005945,-0.004896,0.44,-0.36,10.43
57410105,-0.007444,-0.014295,-0.004896,0.34,0.89,11.06
57411107,-0.010640,-0.020687,-0.001701,-0.28,-0.66,9.33
57412117,-0.001052,0.002750,0.000430,0.37,-0.13,10.25
57413140,0.002144,0.025120,-0.002766,0.08,0.19,10.87
57414138,0.001078,0.021925,0.000430,-0.26,-0.86,9.47
57415155,0.025580,-0.012164,0.005756,0.25,0.02,10.37
57416157,0.017058,-0.007903,0.007887,0.09,-0.12,10.70
57417167,0.008535,0.019794,0.008952,-0.23,-1.19,9.67
57418177,0.010666,0.011272,0.011083,0.03,-0.62,10.50
57419187,-0.002117,0.003815,0.007887,0.01,-0.52,10.14
57420205,-0.013835,0.005945,0.003626,-0.42,-1.17,9.78
57421207,-0.015966,-0.001512,0.005756,-0.10,-1.22,10.66
57422231,0.020254,-0.017491,0.005756,0.15,-0.72,9.47
57423241,-0.011705,0.010207,0.008952,-0.66,-0.99,9.81
57424238,-0.026619,0.024055,0.006822,-0.27,-1.77,10.56
57425255,0.003209,-0.014295,-0.004896,0.21,-0.55,9.44
57426257,-0.011705,-0.010034,-0.007027,-0.74,-0.61,10.05
57427267,0.001078,0.001684,-0.007027,-0.09,-1.90,10.41
57428277,0.019188,-0.008968,-0.010223,0.42,-0.13,9.55
57429287,-0.002117,-0.014295,-0.012353,-0.81,-0.50,9.94
57430305,0.031972,-0.016425,-0.017680,0.63,0.51,9.28
57431307,-0.008509,-0.017491,-0.017680,-0.78,-0.24,9.77
57432331,-0.026619,0.007011,-0.013419,0.07,-1.79,9.18
57433341,0.002144,-0.000446,-0.012353,0.66,0.85,9.53
57434338,-0.022358,-0.006838,-0.009158,-0.87,-0.31,9.89
57435355,-0.009574,-0.011099,-0.007027,0.22,-1.41,9.42
57436357,0.017058,-0.001512,-0.009158,0.91,1.07,9.30
57437367,-0.009574,0.012337,-0.009158,-1.00,-0.42,9.18
57438377,-0.030880,0.021925,-0.003831,0.03,-1.33,8.95
57439387,0.013862,-0.011099,-0.004896,0.97,1.08,9.43
57440405,-0.008509,-0.018556,0.001495,-0.97,-0.47,9.07
57441407,-0.011705,0.012337,0.008952,0.03,-1.01,9.11
57442431,0.029841,0.009141,0.013213,0.92,1.05,9.71
57443441,0.015992,-0.001512,0.015344,-1.19,-0.69,9.16
57444438,-0.002117,0.003815,0.017474,-0.05,-0.96,9.34
57445455,0.039429,-0.016425,0.012148,1.03,0.85,9.79
57446457,0.023449,-0.024948,0.011083,-0.99,-0.58,8.98
57447467,-0.003183,0.010207,0.013213,-0.04,-0.57,9.13
57448477,0.029841,0.007011,0.007887,0.79,0.73,9.83
57449487,0.008535,-0.012164,0.004691,-0.97,-0.47,8.97
57450505,-0.015966,-0.004707,0.004691,-0.11,-0.15,9.54
57451507,0.021319,-0.000446,-0.000635,0.93,0.74,10.04
57452531,0.002144,-0.003642,-0.008092,-0.69,-0.09,9.53
57453541,-0.036206,0.013402,-0.009158,-0.30,-0.22,9.52
57454538,0.007470,-0.004707,-0.013419,0.81,0.56,10.24
57455555,0.005340,-0.022817,-0.015549,-0.42,0.54,9.70
57456557,-0.026619,-0.000446,-0.011288,-0.25,-0.12,9.22
57457567,-0.002117,0.016598,-0.013419,0.90,0.53,10.37
57458581,-0.006378,0.005945,-0.014484,-0.12,1.03,10.10
57459598,-0.042598,0.018729,-0.010223,-0.47,-0.31,9.39
57460610,0.004274,0.003815,-0.007027,0.98,0.44,10.78
57461622,0.012797,-0.020687,-0.003831,0.16,1.42,10.57
57462636,-0.017031,0.000619,0.002561,-0.60,-0.76,8.96
57463648,0.014927,0.010207,0.000430,0.87,0.27,10.97
57464656,0.034102,-0.012164,-0.002766,0.23,1.50,10.67
57465669,-0.002117,-0.003642,0.003626,-0.74,-1.21,8.92
57466673,0.026645,0.000619,0.007887,0.89,0.12,11.17
57467678,0.024515,-0.014295,0.007887,0.43,1.40,10.93
57468691,-0.005313,-0.003642,0.012148,-0.86,-1.61,9.03
57469694,0.022384,-0.003642,0.006822,0.67,-0.23,11.38
57470711,0.045820,-0.024948,-0.002766,0.33,1.11,10.97
57471717,-0.014901,-0.001512,-0.001701,-0.89,-1.80,9.00
57472761,-0.003183,0.022990,-0.000635,0.48,-0.63,11.19
57473737,0.000013,0.012337,-0.005962,0.25,0.53,10.43
57474746,-0.031945,0.009141,-0.004896,-1.02,-1.90,9.05
57475759,-0.015966,0.011272,-0.005962,0.29,-0.83,10.99
57476761,0.008535,-0.016425,-0.007027,0.29,0.47,10.69
57477767,-0.047924,-0.000446,-0.003831,-0.87,-1.63,9.72
57478781,-0.028749,0.011272,-0.002766,0.27,-1.30,10.92
57479791,0.002144,-0.001512,-0.004896,0.32,0.07,10.12
57480809,-0.030880,-0.001512,-0.002766,-0.91,-1.33,9.42
57481809,-0.017031,0.012337,-0.000635,0.03,-1.48,10.22
57482844,0.019188,-0.014295,-0.003831,0.49,0.11,9.76
57483828,-0.009574,-0.014295,0.000430,-0.86,-1.14,9.75
57484837,-0.004248,0.000619,0.003626,-0.04,-1.83,10.05
57485855,0.039429,-0.008968,0.000430,0.62,0.33,9.61
57486857,-0.007444,0.000619,0.001495,-0.88,-0.75,9.90
57487867,-0.004248,0.015533,0.000430,0.07,-1.97,9.52
57488877,0.015992,0.002750,-0.008092,0.79,0.59,9.41
57489887,-0.009574,-0.006838,-0.009158,-0.94,-0.58,9.53
57490931,-0.025554,0.011272,-0.004896,-0.02,-1.92,9.10
57491929,0.015992,-0.007903,-0.011288,0.81,0.86,9.34
57492932,-0.027684,-0.005773,-0.008092,-1.11,-0.60,9.35
57493928,-0.031945,0.013402,-0.003831,0.06,-1.69,9.09
57494937,0.010666,0.010207,-0.003831,1.10,1.08,9.54
57495955,-0.021292,0.004880,-0.003831,-1.08,-0.57,9.32
57496957,-0.035141,0.028316,0.000430,0.04,-1.36,8.82
57497977,0.004274,0.013402,0.001495,0.91,1.09,9.59
57498977,-0.003183,-0.005773,0.004691,-1.04,-0.54,8.84
57499987,-0.011705,0.000619,0.007887,0.20,-0.45,9.14
57501005,0.034102,-0.015360,0.002561,1.01,1.27,9.54
57502022,0.003209,-0.017491,0.003626,-1.11,-0.58,8.78
57503032,-0.015966,0.002750,0.006822,-0.03,-0.36,9.32
57504028,0.029841,0.000619,0.005756,1.12,1.00,10.08
57505037,0.015992,-0.016425,0.000430,-0.69,-0.15,9.13
57506055,-0.015966,0.003815,0.000430,-0.05,-0.06,9.19
57507057,0.019188,-0.001512,-0.003831,0.86,0.77,10.22
57508067,0.014927,-0.018556,-0.004896,-0.54,0.35,9.39
57509077,-0.018097,0.000619,-0.001701,-0.23,0.23,9.63
57510087,0.014927,-0.000446,-0.007027,0.98,0.60,10.25
57511105,0.003209,-0.006838,-0.009158,-0.25,0.63,9.96
57512122,-0.039402,0.015533,-0.007027,-0.41,-0.38,9.31
57513132,-0.001052,0.016598,-0.009158,0.93,0.34,10.77
57514128,0.001078,-0.001512,-0.012353,-0.03,1.25,10.47
57515137,-0.029815,0.012337,-0.004896,-0.58,-0.59,9.17
57516155,0.005340,0.012337,-0.000635,0.91,0.30,10.98
57517157,0.009601,-0.012164,0.003626,0.25,1.43,10.56
57518167,-0.023423,-0.001512,0.011083,-0.82,-1.21,9.07
57519177,0.012797,-0.005773,0.006822,0.84,0.05,11.24
57520187,0.044755,-0.028144,0.000430,0.39,1.47,11.08
57521205,-0.002117,-0.007903,0.004691,-0.74,-1.54,9.10
57522222,0.012797,0.009141,0.003626,0.75,-0.14,11.47
57523232,0.021319,-0.004707,-0.003831,0.32,1.12,10.70
57524228,-0.017031,-0.001512,-0.003831,-0.94,-1.78,8.93
57525237,0.013862,0.009141,-0.002766,0.54,-0.39,11.17
57526255,0.018123,-0.003642,-0.004896,0.36,0.85,10.74
57527257,-0.029815,0.010207,-0.003831,-0.93,-1.77,9.34
57528267,-0.018097,0.015533,-0.004896,0.39,-0.91,11.24
57529277,0.019188,-0.015360,-0.010223,0.31,0.36,10.66
57530287,-0.020227,-0.004707,-0.002766,-0.87,-1.52,9.56
57531305,0.022384,0.002750,-0.003831,0.36,-0.01,10.00
57532322,-0.015966,0.003815,-0.000635,-0.85,-1.42,9.51
57533332,0.010666,0.013402,0.003626,-0.02,-1.65,10.17
57534328,0.036233,0.002750,0.005756,0.37,0.09,9.81
57535337,-0.008509,0.004880,0.006822,-0.90,-1.11,9.87
57536355,-0.004248,0.014468,0.007887,0.10,-1.97,9.96
57537357,0.034102,-0.014295,0.002561,0.69,0.21,9.62
57538367,0.013862,-0.020687,0.004691,-0.92,-0.85,9.65
57539377,-0.002117,-0.001512,0.006822,-0.04,-2.08,9.17
57540387,0.039429,-0.017491,-0.001701,0.77,0.56,9.34
57541405,0.001078,-0.017491,-0.001701,-1.01,-0.78,9.37
57542422,-0.002117,0.002750,-0.000635,-0.04,-1.95,9.13
57543432,0.035167,0.004880,-0.002766,0.86,0.89,9.35
57544428,-0.013835,0.008076,-0.007027,-1.15,-0.64,9.40
57545437,-0.027684,0.022990,-0.007027,0.09,-1.59,8.97
57546455,0.005340,0.012337,-0.010223,1.02,1.08,9.54
57547457,-0.012770,-0.002577,-0.010223,-1.02,-0.52,9.04
57548467,-0.034076,0.015533,-0.002766,0.14,-0.88,9.02
57549477,0.004274,-0.007903,-0.003831,0.93,1.25,9.50
57550487,-0.012770,-0.022817,0.000430,-1.06,-0.47,8.62
57551505,-0.029815,-0.004707,0.006822,0.10,-0.42,9.15
57552522,0.027710,-0.012164,0.003626,1.11,1.18,9.90
57553532,0.018123,-0.018556,0.001495,-0.80,-0.16,9.16
57554528,-0.003183,0.001684,0.002561,0.03,-0.08,9.33
57555537,0.036233,0.007011,0.002561,0.96,0.91,10.18
57556555,0.015992,-0.007903,-0.001701,-0.61,0.16,9.20
57557557,-0.011705,0.007011,0.001495,-0.11,0.13,9.36
57558567,0.017058,0.002750,-0.000635,1.00,0.71,10.17
57559580,0.004274,-0.014295,-0.003831,-0.31,0.57,9.72
57560596,-0.034076,0.005945,-0.000635,-0.33,-0.17,9.44
57561611,0.000013,0.001684,-0.004896,0.91,0.48,10.87
57562635,0.007470,-0.017491,-0.008092,-0.10,1.06,10.44
57563639,-0.031945,0.000619,-0.003831,-0.54,-0.59,9.25
57564632,0.005340,0.012337,-0.004896,0.86,0.30,10.90
57565654,0.014927,-0.001512,-0.004896,0.15,1.42,10.57
57566666,-0.023423,0.009141,0.000430,-0.71,-1.08,9.01
57567668,0.017058,0.017664,0.000430,0.78,0.14,11.17
57568676,0.017058,0.008076,-0.001701,0.28,1.42,10.83
57569693,-0.024488,0.017664,0.001495,-0.80,-1.49,9.15
57570699,0.004274,0.015533,0.004691,0.72,-0.03,11.53
57571708,0.021319,-0.016425,0.004691,0.35,1.24,10.86
57572745,-0.008509,-0.010034,0.010017,-0.79,-1.60,9.09
57573725,0.006405,-0.004707,0.005756,0.59,-0.36,11.21
57574732,0.030906,-0.019621,0.000430,0.18,0.62,10.61
57575748,-0.005313,-0.010034,0.002561,-0.98,-1.85,9.09
57576759,0.019188,0.007011,-0.000635,0.28,-0.62,11.15
57577761,0.041559,0.001684,-0.007027,0.26,0.53,10.86
57578767,-0.018097,0.009141,-0.007027,-0.79,-1.69,9.81
57579781,0.003209,0.013402,-0.003831,0.32,-1.24,10.95
57580791,0.017058,0.002750,-0.004896,0.38,0.11,9.97
57581809,-0.041533,0.009141,-0.004896,-0.90,-1.40,9.35
57582823,-0.042598,0.025120,-0.000635,0.03,-1.69,10.25
57583818,-0.003183,-0.007903,-0.000635,0.50,0.00,9.74
57584827,-0.017031,-0.017491,0.005756,-0.82,-1.16,9.69
57585837,-0.014901,-0.002577,0.007887,-0.10,-2.05,9.71
57586855,0.028776,-0.022817,0.000430,0.52,0.22,9.62
57587857,-0.007444,-0.015360,0.001495,-0.94,-0.87,10.06
57588867,-0.001052,-0.002577,0.002561,0.05,-2.19,9.67
57589877,0.042624,-0.012164,-0.002766,0.85,0.44,9.44
57590887,0.006405,-0.012164,-0.002766,-0.97,-0.68,9.35
57591905,0.004274,0.009141,-0.000635,-0.03,-1.99,8.79
57592922,0.024515,0.008076,0.000430,0.83,0.84,9.33
57593918,-0.019162,0.001684,-0.000635,-1.05,-0.60,9.33
57594927,-0.026619,0.017664,-0.000635,0.04,-1.50,9.15
57595937,0.017058,-0.005773,-0.005962,0.96,1.16,9.48
57596955,-0.004248,-0.012164,-0.004896,-1.14,-0.57,9.14
57597957,-0.031945,0.011272,0.000430,0.05,-1.05,9.16
57598967,0.015992,-0.006838,-0.005962,1.06,1.18,9.61
57599993,0.005340,-0.019621,-0.005962,-0.94,-0.37,8.72
57600987,-0.021292,0.002750,-0.003831,0.17,-0.31,8.90
57602005,0.013862,0.011272,-0.007027,0.92,1.16,9.90
57603021,-0.009574,0.002750,-0.003831,-0.88,-0.18,8.92
57604018,-0.013835,0.012337,0.002561,0.05,0.23,9.50
57605027,0.040494,0.010207,0.008952,1.06,1.05,10.03
57606037,0.025580,0.001684,0.006822,-0.64,0.03,9.51
57607055,-0.005313,0.014468,0.007887,-0.27,-0.04,9.56
57608057,0.025580,-0.003642,0.003626,0.98,0.62,10.26
57609067,0.025580,-0.022817,-0.000635,-0.21,0.51,9.63
57610077,-0.018097,-0.003642,0.001495,-0.19,-0.23,8.93
57611087,0.002144,-0.001512,-0.007027,0.87,0.45,10.61
57612105,0.003209,-0.016425,-0.012353,-0.09,1.15,10.24
57613122,-0.029815,0.002750,-0.007027,-0.59,-0.32,9.64
57614118,0.014927,0.015533,-0.004896,0.95,0.31,11.10
57615127,0.017058,0.010207,-0.007027,0.28,1.32,10.93
57616137,-0.029815,0.022990,-0.004896,-0.69,-1.02,9.24
57617155,-0.002117,0.017664,-0.005962,0.77,0.04,11.06
57618157,0.002144,-0.002577,-0.008092,0.20,1.37,10.60
57619167,-0.030880,0.004880,-0.001701,-0.84,-1.40,8.88
57620177,-0.013835,0.007011,0.000430,0.70,-0.01,11.58
57621187,0.000013,-0.023882,-0.001701,0.39,1.28,11.02
57622205,-0.033011,-0.014295,0.005756,-0.88,-1.71,9.24
57623221,0.001078,-0.010034,0.004691,0.61,-0.49,11.30
57624218,0.042624,-0.026013,-0.000635,0.37,0.85,10.83
57625227,0.002144,-0.006838,0.001495,-0.86,-1.56,9.46
57626237,0.018123,0.010207,0.000430,0.37,-0.74,11.20
57627255,0.029841,-0.003642,-0.005962,0.25,0.28,10.18
57628257,-0.014901,-0.006838,-0.004896,-0.88,-1.67,9.17
57629267,-0.004248,0.011272,-0.001701,0.15,-1.10,10.67
57630277,0.004274,0.003815,-0.002766,0.27,0.22,10.32
57631287,-0.030880,0.007011,-0.003831,-0.85,-1.48,9.84
57632305,0.027710,-0.024948,-0.007027,0.50,0.04,9.82
57633322,-0.011705,-0.011099,-0.001701,-0.89,-1.11,9.58
57634318,-0.022358,0.014468,-0.000635,-0.07,-1.99,9.60
57635327,0.015992,0.005945,-0.005962,0.57,0.12,9.57
57636337,-0.013835,-0.000446,-0.001701,-0.81,-0.84,9.72
57637355,0.005340,0.011272,0.003626,-0.10,-2.07,9.13
57638357,0.034102,0.010207,0.007887,0.53,0.42,9.32
57639367,0.004274,0.005945,0.006822,-1.02,-0.76,9.80
57640377,0.004274,0.004880,0.006822,0.09,-1.94,9.63
57641387,0.043690,-0.027078,0.000430,0.98,0.73,9.52
57642405,0.023449,-0.030274,-0.000635,-1.07,-0.60,9.17
57643421,-0.011705,0.000619,0.000430,0.00,-1.62,8.43
57644418,0.019188,-0.003642,-0.007027,0.70,0.82,9.49
57645427,-0.005313,-0.008968,-0.008092,-0.90,-0.16,9.29
57646437,-0.015966,0.008076,-0.004896,0.32,-0.68,8.48
57647455,0.009601,0.029382,-0.004896,0.63,1.09,9.77
57648457,-0.013835,0.028316,-0.004896,-0.98,-0.38,9.47
57649467,-0.002117,0.016598,0.000430,0.14,-0.26,9.76
57650477,0.027710,-0.010034,0.004691,0.95,1.04,9.84
57651487,-0.001052,-0.019621,0.003626,-0.72,-0.39,8.35
57652505,-0.035141,0.004880,0.007887,-0.14,0.04,9.04
57653522,0.004274,-0.006838,0.002561,0.77,0.50,9.53
57654518,0.013862,-0.013230,0.000430,-0.53,-0.01,8.74
57655527,-0.020227,0.005945,0.005756,-0.08,0.25,9.45
57656537,0.019188,0.001684,0.003626,0.91,0.30,10.26
57657555,0.024515,-0.002577,0.002561,-0.35,0.53,10.26
57658557,-0.003183,0.017664,0.003626,-0.38,0.09,10.26
57659567,0.026645,0.003815,0.002561,0.89,0.13,10.40
57660580,0.021319,-0.024948,-0.002766,-0.04,0.93,9.83
57661595,-0.009574,-0.007903,-0.003831,-0.39,-0.34,8.67
57662611,0.001078,0.008076,-0.005962,0.79,0.21,10.43
57663638,-0.006379,0.002750,-0.012353,-0.07,1.34,10.42
57664626,-0.029815,0.005945,-0.010223,-0.49,-0.38,9.25
57665638,0.003209,0.010207,-0.011288,0.90,0.40,11.25
57666657,0.002144,0.004880,-0.011288,0.28,1.21,11.40
57667671,-0.034076,0.004880,-0.008092,-0.65,-0.99,9.96
57668674,0.011731,-0.002577,-0.001701,0.69,0.07,11.31
57669681,0.022384,-0.004707,0.000430,0.39,1.13,10.69
57670688,-0.022358,0.013402,0.004691,-0.66,-1.41,8.70
57671695,-0.007444,0.011272,0.003626,0.46,-0.39,10.81
57672710,0.012797,-0.015360,0.000430,0.21,0.60,10.09
57673731,-0.011705,-0.012164,0.006822,-0.91,-1.63,9.12
57674727,-0.003183,-0.003642,0.008952,0.29,-0.70,11.51
57675737,0.026645,-0.019621,0.005756,0.33,0.46,11.19
57676743,-0.009574,-0.001512,0.008952,-0.79,-1.52,10.18
57677759,0.011731,-0.003642,0.007887,0.28,-1.28,11.09
57678761,0.046886,-0.022817,-0.000635,0.28,0.08,9.97
57679767,-0.005313,-0.005773,-0.004896,-0.77,-1.18,9.28
57680781,-0.007444,0.020859,-0.005962,0.17,-1.59,9.73
57681791,-0.001052,0.017664,-0.010223,0.24,-0.19,10.01
57682822,-0.021292,-0.003642,-0.010223,-0.46,-1.14,9.30
57683810,-0.023423,0.005945,-0.005962,0.12,-1.19,8.94
57684817,-0.039402,0.016598,-0.005962,0.02,0.09,10.48
57685827,-0.047924,0.015533,-0.000635,-0.62,-1.28,10.77
57686837,-0.007444,-0.006838,0.004691,0.05,-1.35,10.71
57687855,0.051147,-0.031339,0.003626,0.56,0.11,9.58
57688857,0.026645,-0.002577,0.006822,-0.55,-0.70,8.83
57689867,0.013862,0.026186,0.008952,-0.22,-1.72,8.11
57690877,0.028776,0.029382,0.011083,0.40,0.10,8.81
57691887,0.006405,0.015533,0.013213,-0.76,-0.35,9.59
57692919,0.001078,0.001684,0.017474,0.04,-1.53,9.35
57693908,0.014927,-0.012164,0.014279,0.68,0.29,10.18
57694917,0.011731,-0.006838,0.007887,-0.95,-0.51,9.99
57695927,-0.003183,0.002750,0.005756,-0.05,-1.14,9.82
57696937,0.020254,-0.031339,-0.002766,0.87,0.49,8.94
57697955,0.006405,-0.034535,-0.008092,-0.90,-0.56,7.87
57698957,-0.020227,-0.004707,-0.007027,0.11,-0.74,8.20
57699967,0.003209,0.011272,-0.011288,0.76,0.65,9.29
57700977,-0.018097,0.017664,-0.015549,-0.89,-0.11,9.06
57702014,-0.031945,0.029382,-0.012353,0.23,0.20,9.75
57703018,0.002144,0.016598,-0.011288,0.92,0.90,10.32
57704008,-0.008509,-0.003642,-0.012353,-0.70,0.17,9.76
57705017,-0.026619,0.002750,-0.005962,-0.17,0.33,9.86
57706027,0.010666,-0.014295,-0.007027,0.91,0.75,9.57
57707037,0.017058,-0.024948,-0.008092,-0.33,0.45,8.79
57708055,-0.011705,-0.005773,-0.003831,-0.02,0.01,8.36
57709057,0.019188,0.001684,-0.002766,0.76,0.49,10.30
57710067,0.020254,0.002750,0.001495,-0.31,1.09,10.51
57711077,0.004274,0.014468,0.006822,0.15,0.14,9.50
57712087,0.017058,0.030447,0.007887,0.84,0.79,10.89
57713119,-0.001052,0.024055,0.006822,-0.03,1.02,11.00
57714108,0.003209,-0.002577,0.010017,-0.25,-0.29,10.39
57715117,0.034102,-0.036666,0.011083,0.62,0.47,11.19
57716127,0.036233,-0.041992,0.006822,0.21,0.64,9.71
57717137,0.001078,-0.001512,0.010017,-0.54,-0.63,8.77
57718155,0.006405,0.020859,0.011083,0.55,-0.16,10.67
57719157,0.017058,0.016598,0.008952,0.15,0.61,10.59
57720167,-0.015966,0.015533,0.010017,-0.70,-1.04,9.63
57721177,0.002144,0.004880,0.011083,0.61,-0.62,11.50
57722187,0.011731,0.001684,0.006822,0.35,0.54,11.46
57723218,-0.018097,0.013402,0.004691,-0.77,-1.38,9.96
57724208,-0.010640,0.001684,0.005756,0.27,-1.01,10.95
57725217,0.011731,-0.033470,0.000430,0.23,0.28,9.78
57726227,-0.003183,-0.026013,-0.000635,-0.76,-1.29,8.91
57727237,0.001078,-0.008968,-0.004896,0.15,-1.12,10.74
57728255,0.025580,-0.013230,-0.012353,0.15,-0.11,10.14
57729257,-0.009574,0.003815,-0.010223,-0.84,-1.47,9.86
57730267,0.011731,0.009141,-0.011288,0.05,-1.38,11.18
57731277,0.042624,-0.008968,-0.017680,0.31,0.25,10.46
57732287,-0.009574,-0.003642,-0.021941,-0.76,-1.01,9.95
57733319,-0.014901,0.009141,-0.020876,0.06,-1.69,9.96
57734308,-0.010640,-0.010034,-0.017680,-0.79,-0.75,9.18
57735317,-0.021292,0.010207,-0.013419,0.03,-1.84,9.35
57736327,0.011731,0.000619,-0.017680,0.66,0.38,9.63
57737337,-0.030880,0.004880,-0.011288,-0.71,-0.60,10.12
57738355,-0.021292,0.019794,-0.003831,0.02,-1.96,9.66
57739357,0.025580,0.016598,0.000430,0.63,0.62,9.59
57740367,-0.008509,0.004880,0.005756,-0.90,-0.68,9.64
57741377,-0.007444,0.000619,0.013213,0.19,-1.91,9.02
57742387,0.026645,-0.011099,0.018540,0.98,0.80,9.03
57743418,0.012797,-0.010034,0.019605,-1.01,-0.61,8.93
57744408,-0.009574,0.010207,0.021736,0.07,-1.58,8.70
57745417,0.026645,-0.008968,0.013213,0.82,0.80,9.79
57746427,0.010666,-0.018556,0.011083,-0.98,-0.49,9.46
57747437,-0.003183,-0.002577,0.012148,0.17,-0.72,9.25
57748455,0.042624,0.005945,0.003626,0.81,1.00,9.65
57749457,0.013862,0.007011,-0.002766,-1.10,-0.59,8.92
57750467,-0.004248,0.009141,-0.002766,-0.03,-0.52,9.32
57751477,0.020254,-0.002577,-0.002766,1.04,0.89,9.63
57752487,-0.010640,-0.012164,-0.005962,-0.71,-0.26,8.56
57753519,-0.053251,0.015533,-0.004896,-0.05,-0.12,8.90
57754508,-0.026619,0.010207,-0.009158,0.70,0.58,10.21
57755517,-0.020227,-0.006838,-0.010223,-0.61,0.18,9.45
57756527,-0.029815,0.000619,-0.005962,-0.01,0.42,9.49
57757537,0.022384,-0.006838,-0.009158,0.90,0.59,10.11
57758555,0.018123,-0.007903,-0.007027,-0.36,0.67,10.06
57759557,-0.008509,0.009141,0.000430,-0.43,0.16,10.00
57760567,0.031972,0.003815,0.002561,0.88,0.34,10.49
57761580,0.028776,-0.014295,0.000430,0.06,1.05,10.03
57762596,-0.013835,0.000619,0.001495,-0.32,-0.36,8.79
57763625,-0.005313,0.009141,0.001495,0.78,0.30,10.81
57764619,-0.008509,-0.000446,-0.003831,-0.04,1.41,10.61
57765622,-0.026619,0.001684,-0.002766,-0.49,-0.41,9.25
57766636,-0.002117,0.002750,-0.004896,0.86,0.25,11.03
57767655,0.001078,-0.005773,-0.004896,0.29,1.14,11.04
57768671,-0.022358,-0.002577,0.002561,-0.60,-0.87,9.90
57769668,0.018123,-0.001512,0.002561,0.70,-0.08,11.36
57770676,0.038363,-0.002577,0.000430,0.40,0.90,10.62
57771693,-0.010640,0.016598,0.003626,-0.65,-1.37,8.97
57772699,0.001078,0.019794,0.004691,0.48,-0.53,11.07
57773727,0.004274,0.001684,0.001495,0.23,0.47,10.10
57774711,-0.037272,0.004880,0.001495,-0.92,-1.67,9.06
57775724,-0.029815,0.010207,0.003626,0.27,-0.95,11.25
57776732,-0.001052,-0.014295,0.000430,0.32,0.35,10.87
57777748,-0.019162,-0.002577,0.003626,-0.86,-1.47,10.12
57778759,-0.001052,0.000619,0.002561,0.16,-1.42,11.03
57779761,0.040494,-0.024948,-0.002766,0.29,0.08,10.06
57780767,0.002144,-0.016425,-0.001701,-0.77,-1.13,9.45
57781781,0.010666,0.007011,-0.001701,0.09,-1.63,9.87
57782791,0.026645,0.007011,-0.005962,0.30,-0.11,9.61
57783822,-0.007444,-0.002577,-0.009158,-0.60,-1.03,9.34
57784810,-0.005313,0.011272,-0.007027,-0.05,-1.61,9.18
57785817,-0.009574,0.011272,-0.007027,0.20,0.22,10.23
57786827,-0.030880,0.005945,-0.004896,-0.65,-0.93,10.56
57787837,-0.018097,-0.003642,-0.002766,0.05,-1.76,10.09
57788855,0.026645,-0.018556,-0.005962,0.56,0.30,9.47
57789857,-0.009574,0.001684,-0.002766,-0.90,-0.80,9.09
57790867,-0.024488,0.013402,0.000430,-0.11,-1.92,8.87
57791877,0.006405,0.005945,-0.001701,0.81,0.46,9.08
57792902,-0.020227,0.008076,0.003626,-0.87,-0.59,9.16
57793906,-0.018097,0.027251,0.012148,-0.05,-1.67,9.16
57794907,0.014927,0.008076,0.012148,0.81,0.65,9.55
57795917,0.002144,-0.011099,0.008952,-1.08,-0.59,9.43
57796927,-0.014901,-0.002577,0.012148,0.04,-1.28,9.43
57797940,0.027710,-0.031339,0.004691,1.04,0.87,9.37
57798955,0.026645,-0.037731,0.000430,-0.91,-0.34,8.67
57799957,0.001078,-0.006838,-0.002766,0.16,-0.59,8.56
57800967,0.031972,0.004880,-0.010223,0.71,0.87,9.61
57801977,0.000013,-0.004707,-0.011288,-0.84,-0.02,8.92
57803001,-0.024488,0.005945,-0.008092,0.35,0.24,8.81
57804006,-0.005313,0.028316,-0.005962,0.78,0.99,10.11
57805007,-0.025554,0.028316,-0.008092,-0.72,0.15,10.01
57806017,-0.030880,0.016598,-0.004896,-0.06,0.32,9.89
57807027,0.000013,-0.015360,-0.002766,0.87,0.75,9.95
57808037,-0.004248,-0.022817,0.001495,-0.31,0.33,9.14
57809055,-0.026619,-0.001512,0.006822,-0.29,0.09,9.06
57810057,0.011731,-0.005773,0.003626,0.69,0.29,10.23
57811067,0.027710,-0.008968,0.003626,-0.10,0.83,9.75
57812077,-0.003183,0.016598,0.008952,-0.43,-0.07,9.53
57813102,0.028776,0.016598,0.007887,0.83,0.06,11.05
57814106,0.033037,-0.004707,0.004691,0.10,1.19,10.91
57815107,-0.007444,0.008076,0.004691,-0.72,-0.68,9.76
57816117,0.011731,0.000619,0.002561,0.80,-0.23,10.84
57817127,0.020254,-0.024948,-0.000635,0.30,1.37,10.44
57818137,-0.006379,-0.008968,0.001495,-0.59,-1.02,8.79
57819155,0.003209,0.010207,-0.003831,0.69,-0.09,10.92
57820157,0.000013,0.001684,-0.011288,0.11,1.21,10.46
57821167,-0.038337,0.003815,-0.008092,-0.72,-1.17,9.08
57822177,-0.001052,0.018729,-0.009158,0.63,0.01,11.47
57823201,0.014927,0.021925,-0.009158,0.30,0.86,11.49
57824206,-0.021292,0.014468,-0.003831,-0.62,-1.55,9.66
57825207,0.006405,-0.003642,0.002561,0.43,-0.52,11.11
57826217,0.014927,-0.013230,0.002561,0.28,0.48,10.52
57827227,-0.022358,0.001684,0.004691,-0.67,-1.50,9.18
57828237,-0.022358,0.005945,0.004691,0.21,-1.09,10.77
57829255,0.015992,-0.023882,0.001495,0.28,-0.11,9.80
57830257,-0.005313,-0.016425,0.005756,-0.82,-1.45,9.52
57831267,-0.002117,-0.001512,0.004691,0.00,-1.55,10.84
57832277,0.041559,-0.012164,-0.000635,0.40,-0.06,10.33
57833302,0.003209,0.003815,0.002561,-0.81,-1.08,10.36
57834306,0.014927,0.015533,0.006822,0.02,-1.97,10.39
