time_us,gyro_x_rad_s,gyro_y_rad_s,gyro_z_rad_s,acc_x_m_s2,acc_y_m_s2,acc_z_m_s2
283354703,-0.001190,-0.001641,-0.000276,0.06,-0.29,9.76
283355746,-0.001188,-0.002702,-0.001339,0.03,-0.32,9.84
283357031,-0.000123,-0.001635,-0.001338,0.01,-0.31,9.75
283358070,-0.001187,0.001559,-0.000272,-0.01,-0.27,9.70
283359079,-0.002250,0.002622,0.000792,-0.02,-0.26,9.79
283360090,-0.001183,0.001555,0.000792,0.03,-0.29,9.85
283361099,-0.000118,0.000489,0.001855,0.05,-0.28,9.85
283362110,0.000946,-0.001640,0.000789,0.04,-0.27,9.85
283363119,0.002010,-0.002703,0.002917,0.05,-0.28,9.82
283364130,0.000943,0.001557,0.003978,0.06,-0.28,9.78
283365142,0.000943,0.005812,0.001845,0.03,-0.28,9.81
283366152,-0.001187,0.003678,-0.001349,0.03,-0.27,9.80
283367159,-0.001186,0.001546,-0.003476,0.06,-0.28,9.80
283368170,-0.001184,-0.000584,-0.001344,0.05,-0.32,9.83
283369179,-0.001183,-0.000584,0.001850,0.07,-0.34,9.85
283370190,-0.002246,0.002610,0.002912,0.05,-0.30,9.86
283371199,-0.003308,0.001543,0.001845,0.02,-0.27,9.83
283372210,-0.001176,-0.000587,-0.001350,-0.01,-0.30,9.83
283373219,-0.001175,0.000478,-0.002412,0.00,-0.31,9.77
283374230,-0.003302,0.002606,-0.001346,0.04,-0.30,9.73
283375242,-0.001171,0.000474,-0.000280,0.01,-0.31,9.75
283376252,0.002023,-0.002719,0.000784,0.01,-0.30,9.81
283377259,0.002021,-0.002716,0.000783,0.02,-0.34,9.85
283378270,0.000955,-0.001649,0.000783,0.02,-0.34,9.79
283379279,0.000954,0.000481,0.000782,0.06,-0.31,9.79
283380290,-0.000111,0.001545,0.001845,0.06,-0.30,9.85
283381299,-0.000111,0.002608,0.002908,0.03,-0.30,9.82
283382310,0.000953,0.001541,0.002905,0.05,-0.30,9.80
283383319,0.002016,-0.000589,0.001838,0.04,-0.28,9.85
283384330,0.003078,-0.001653,-0.000293,0.01,-0.31,9.86
283385342,0.002011,-0.001651,-0.001357,0.04,-0.31,9.84
283386352,0.000945,-0.000585,-0.001355,0.05,-0.32,9.79
283387359,0.002008,-0.000585,-0.001354,0.02,-0.34,9.76
283388370,0.003070,-0.000584,0.000776,0.03,-0.30,9.80
283389379,0.003067,-0.000584,0.001839,0.08,-0.30,9.84
283390390,0.003064,-0.001647,0.002902,0.05,-0.33,9.84
283391399,0.003061,-0.004838,0.000770,0.05,-0.31,9.83
283392410,0.003058,-0.004833,-0.000295,0.05,-0.30,9.79
283393461,0.000926,-0.001636,-0.001359,0.01,-0.34,9.78
283394437,-0.000139,-0.001634,-0.001357,0.01,-0.31,9.81
283395440,-0.001203,-0.001632,-0.000292,0.04,-0.29,9.82
283396450,-0.001202,-0.001631,0.000773,0.04,-0.30,9.82
283397495,-0.001200,-0.002693,0.000772,0.04,-0.29,9.81
283398498,-0.000135,-0.001626,-0.001357,0.04,-0.31,9.83
283399479,0.000929,0.001568,-0.002420,0.04,-0.31,9.81
283400490,0.001993,-0.000562,-0.001353,0.03,-0.31,9.81
283401499,0.001991,-0.001626,0.000777,0.03,-0.30,9.86
283402510,-0.000140,0.002633,0.002904,0.01,-0.31,9.82
283403519,-0.001204,0.004758,0.002901,-0.01,-0.32,9.82
283404535,-0.002267,0.001561,0.000770,0.00,-0.31,9.86
283405540,0.000928,-0.000569,-0.000295,0.02,-0.31,9.84
283406550,0.001991,-0.002697,0.001834,0.05,-0.31,9.79
283407559,0.001989,-0.001630,0.003960,0.04,-0.32,9.76
283408570,0.001987,0.000500,0.002892,0.02,-0.34,9.78
283409579,0.004114,0.002628,0.001825,0.00,-0.32,9.82
283410592,0.001981,0.001561,-0.000305,0.01,-0.31,9.79
283411602,-0.000149,-0.000569,-0.001369,0.02,-0.32,9.76
283412612,-0.001213,-0.001632,-0.002432,0.00,-0.32,9.82
283413629,-0.000148,-0.001631,-0.001365,-0.01,-0.26,9.86
283414641,0.000917,-0.001629,-0.000300,0.02,-0.25,9.84
283415649,-0.000149,0.000501,-0.000300,0.05,-0.26,9.86
283416657,-0.002277,0.003693,-0.000299,0.02,-0.26,9.84
283417667,-0.001210,0.002625,-0.001363,-0.02,-0.29,9.80
283418680,-0.000145,-0.001634,-0.002426,0.03,-0.31,9.84
283419686,-0.000145,-0.001633,-0.002423,0.04,-0.32,9.86
283420698,0.001984,-0.002695,-0.002421,0.04,-0.32,9.82
283421712,0.001982,-0.004821,-0.002419,0.04,-0.28,9.83
283422716,0.001980,-0.003752,-0.001352,0.02,-0.32,9.84
283423724,0.001978,-0.001620,-0.000286,0.03,-0.35,9.84
283424743,0.001976,0.000510,-0.001350,0.03,-0.36,9.86
283425749,-0.000155,0.001574,-0.000285,0.01,-0.33,9.84
283426782,-0.002283,0.000508,-0.000284,0.01,-0.28,9.82
283427766,-0.003345,-0.000556,-0.000284,-0.01,-0.29,9.79
283428784,-0.002277,-0.002684,-0.000284,0.01,-0.28,9.80
283429782,-0.001211,-0.000553,-0.000284,0.03,-0.28,9.81
283430790,-0.000145,0.002640,-0.001347,0.02,-0.28,9.81
283431802,0.000919,0.004766,-0.002410,0.02,-0.26,9.80
283432815,0.000918,0.002633,-0.002408,0.03,-0.25,9.76
283433822,-0.000147,0.000502,-0.001341,0.02,-0.28,9.77
283434838,-0.002275,-0.000563,-0.000276,0.03,-0.29,9.78
283435842,-0.003337,0.001566,-0.000275,0.04,-0.31,9.78
283436850,-0.003334,0.003693,-0.002404,0.01,-0.32,9.79
283437859,-0.002266,0.003689,-0.004530,-0.01,-0.29,9.80
283438870,-0.000135,0.000493,-0.003461,0.03,-0.29,9.78
283439879,-0.000135,0.000492,-0.000265,0.05,-0.32,9.75
283440890,-0.000135,0.002620,0.000800,0.03,-0.29,9.79
283441899,-0.001199,0.001553,-0.000265,0.03,-0.28,9.81
283442910,-0.003326,-0.000577,-0.001329,0.03,-0.29,9.79
283443919,-0.003323,-0.002705,-0.000264,0.04,-0.30,9.81
283444935,-0.001191,-0.001638,-0.001328,0.02,-0.31,9.84
283445940,0.000938,-0.000572,-0.001326,-0.03,-0.31,9.85
283446950,0.003066,-0.000571,-0.001325,-0.05,-0.29,9.82
283447959,0.001998,0.000493,-0.000259,-0.01,-0.28,9.76
283448970,-0.002260,0.000493,0.000805,0.03,-0.31,9.76
283449979,-0.004387,-0.000572,-0.000260,0.02,-0.33,9.80
283450990,-0.003318,-0.000571,-0.001324,0.02,-0.32,9.83
283451999,-0.000122,0.002622,-0.001322,0.01,-0.30,9.84
283453010,0.000942,0.003684,0.000807,0.01,-0.34,9.82
283454019,0.000941,0.002616,0.000806,0.05,-0.35,9.80
283455035,0.000941,-0.000580,-0.000259,0.05,-0.31,9.81
283456040,0.002004,-0.003772,-0.000258,0.01,-0.32,9.82
283457050,-0.000127,-0.002704,0.000806,0.01,-0.35,9.81
283458059,-0.002255,0.001556,0.001870,0.00,-0.34,9.81
283459070,-0.002253,0.004747,0.002932,0.01,-0.32,9.84
283460079,0.000942,0.003678,0.001865,0.02,-0.29,9.85
283461090,0.000941,0.000482,-0.000266,0.03,-0.25,9.81
283462099,-0.001188,-0.000583,-0.000265,0.05,-0.29,9.81
283463110,-0.001187,0.000482,0.000799,0.06,-0.34,9.80
283464119,-0.000121,0.000481,0.000798,0.03,-0.30,9.79
283465135,-0.000121,0.000481,-0.000267,0.03,-0.29,9.84
283466140,0.000943,0.000480,-0.001331,0.05,-0.33,9.83
283467150,0.000942,0.001544,-0.001329,0.00,-0.31,9.86
283468159,-0.000123,0.001542,0.001865,0.00,-0.29,9.89
283469170,-0.000123,0.001541,0.001863,0.05,-0.29,9.83
283470179,-0.000123,0.001539,0.000797,0.04,-0.32,9.82
283471190,-0.000123,0.002602,0.001860,0.00,-0.32,9.81
283472199,-0.000123,0.003664,0.002922,0.01,-0.29,9.79
283473210,-0.002251,0.002596,-0.000273,0.06,-0.28,9.82
283474219,-0.005441,-0.000600,-0.001337,0.06,-0.31,9.80
283475235,-0.004372,-0.003792,0.000793,0.01,-0.31,9.77
283476240,-0.001175,-0.004852,0.000792,0.01,-0.31,9.79
283477250,0.000955,-0.000590,0.000791,0.00,-0.31,9.82
283478259,0.000954,0.001539,0.002919,0.03,-0.30,9.82
283479270,-0.001175,0.000473,0.003980,0.05,-0.29,9.78
283480279,-0.002238,-0.001656,0.001848,0.04,-0.28,9.77
283481290,-0.001172,-0.002718,-0.000283,0.04,-0.30,9.77
283482299,-0.000106,-0.001651,0.000782,0.01,-0.31,9.80
283483310,-0.000106,0.000479,0.001845,0.03,-0.28,9.83
283484319,0.000958,0.002607,0.000779,0.03,-0.29,9.80
283485335,0.003085,0.003668,-0.001350,0.03,-0.32,9.82
283486340,0.002018,0.003664,-0.001349,0.06,-0.31,9.85
283487350,0.002016,0.004725,-0.000283,0.04,-0.28,9.82
283488359,0.000950,0.004720,0.000781,0.03,-0.30,9.82
283489370,0.002013,0.003651,0.001845,0.05,-0.32,9.84
283490379,0.005204,0.002583,0.001843,0.04,-0.28,9.82
283491390,0.006263,0.003645,0.000777,0.03,-0.29,9.79
283492399,0.006256,0.005770,-0.000288,0.03,-0.30,9.80
283493410,0.006250,0.003635,-0.000288,0.04,-0.32,9.80
283494419,0.003051,-0.000625,-0.001352,0.02,-0.32,9.78
283495435,-0.000145,-0.002753,-0.001350,0.04,-0.28,9.82
283496440,-0.001209,-0.001686,-0.001349,0.03,-0.28,9.82
283497450,-0.001208,-0.001684,-0.001348,-0.01,-0.32,9.82
283498459,-0.000142,-0.003811,-0.000282,0.00,-0.30,9.82
283499470,0.001986,-0.001679,0.002911,0.01,-0.29,9.87
283500493,0.005177,0.001516,0.003972,0.02,-0.34,9.87
283501490,0.005172,0.001514,0.001840,0.02,-0.33,9.81
283502499,0.001974,0.000448,-0.000291,0.03,-0.28,9.86
283503510,-0.001221,-0.000616,-0.003483,0.00,-0.29,9.85
283504524,-0.002284,0.000449,-0.004544,0.02,-0.30,9.80
283505531,-0.004410,0.002577,-0.003475,0.03,-0.30,9.78
283506539,-0.006534,0.001510,-0.003471,0.01,-0.33,9.83
283507550,-0.006527,0.002572,-0.002404,0.04,-0.32,9.88
283508559,-0.003328,0.003634,-0.002401,0.04,-0.32,9.82
283509570,-0.000132,0.002566,-0.003463,-0.01,-0.31,9.82
283510579,0.001997,0.000435,-0.004524,0.00,-0.28,9.80
283511592,0.000930,-0.001694,-0.004519,0.03,-0.33,9.78
283512602,-0.000135,-0.003820,-0.003450,0.02,-0.36,9.84
283513611,-0.001199,-0.003817,0.000810,-0.01,-0.36,9.82
283514633,-0.002262,-0.003813,0.004002,-0.01,-0.35,9.79
283515637,-0.001195,-0.001680,0.003998,0.00,-0.32,9.80
283516646,-0.001194,-0.000615,0.002929,-0.02,-0.27,9.80
283517656,-0.001193,-0.000614,0.000798,-0.01,-0.26,9.81
283518666,-0.001192,-0.000613,0.002926,0.01,-0.34,9.79
283519680,-0.001190,0.000452,0.002923,0.03,-0.31,9.83
283520686,-0.001189,-0.001677,0.000791,0.04,-0.29,9.82
283521699,0.000940,-0.001676,-0.001338,0.05,-0.30,9.79
283522712,0.002004,-0.000610,-0.002401,0.04,-0.31,9.83
283523718,0.000937,0.000455,-0.001334,0.03,-0.34,9.84
283524733,0.000936,0.001519,0.000796,0.03,-0.36,9.76
283525740,-0.001193,0.002582,0.002923,0.02,-0.35,9.76
283526748,-0.001192,0.003643,0.001856,0.02,-0.31,9.81
283527762,0.000938,0.002575,-0.000274,0.03,-0.28,9.82
283528777,0.003065,0.000444,-0.001338,0.04,-0.27,9.82
283529775,0.003062,-0.001685,-0.002401,0.04,-0.30,9.80
283530782,0.003059,-0.000619,-0.001334,0.04,-0.33,9.82
283531790,0.001992,-0.000618,-0.000269,0.02,-0.33,9.81
283532802,-0.000139,-0.002746,0.000796,-0.01,-0.32,9.82
283533815,-0.001203,-0.002743,0.000795,0.00,-0.29,9.85
283534827,-0.001201,-0.001676,0.000794,0.03,-0.28,9.81
283535835,0.000928,0.000454,0.001858,0.03,-0.28,9.82
283536841,0.003056,-0.000611,0.001856,0.04,-0.28,9.82
283537850,0.004117,-0.001674,-0.000275,0.05,-0.31,9.79
283538859,0.000920,-0.001673,-0.002403,0.04,-0.32,9.78
283539870,-0.001209,0.001522,-0.001336,0.05,-0.31,9.82
283540879,-0.001208,0.003649,-0.001335,0.03,-0.28,9.86
283541890,-0.002271,0.003645,-0.002398,0.01,-0.27,9.86
283542899,-0.002269,0.001513,-0.000267,0.03,-0.31,9.82
283543910,-0.001202,-0.000617,-0.000267,0.04,-0.31,9.82
283544924,-0.000137,-0.000617,-0.001330,0.04,-0.30,9.84
283545931,-0.000137,-0.000616,0.000799,0.05,-0.30,9.77
283546939,0.000928,-0.000615,0.000798,0.04,-0.33,9.77
283547950,-0.001202,0.001514,-0.001331,0.02,-0.32,9.83
283548959,-0.002265,0.002576,-0.002394,0.02,-0.30,9.80
283549970,-0.001198,0.004702,-0.002391,0.01,-0.30,9.77
283550979,-0.000133,0.002569,-0.002389,0.00,-0.30,9.79
283551990,-0.001197,-0.001690,-0.001322,0.02,-0.32,9.77
283552999,-0.000131,-0.000624,0.000808,0.02,-0.30,9.77
283554010,0.000933,0.002569,0.002935,0.03,-0.27,9.81
283555024,0.000932,0.003630,0.001868,0.04,-0.29,9.80
283556031,0.001995,0.000434,0.001866,0.05,-0.31,9.77
283557039,-0.000135,-0.001695,0.001864,0.06,-0.32,9.81
283558050,-0.000135,-0.001693,0.001862,0.01,-0.33,9.83
283559059,-0.001199,-0.001691,-0.000268,0.03,-0.33,9.79
283560070,-0.002262,-0.001690,-0.001332,0.04,-0.34,9.79
283561079,-0.002260,-0.001688,-0.001331,0.00,-0.32,9.80
283562090,-0.000129,-0.000622,0.000799,0.02,-0.29,9.81
283563125,-0.000129,0.000443,-0.001330,0.05,-0.32,9.82
283564150,-0.001193,0.000442,-0.001329,0.06,-0.33,9.79
283565143,-0.002256,0.002570,0.000801,0.06,-0.32,9.78
283566164,-0.001190,0.002568,0.003993,0.03,-0.31,9.81
283567139,0.002004,0.001501,0.003989,0.01,-0.30,9.83
283568150,0.003067,0.000435,0.001857,0.01,-0.31,9.85
283569159,0.003063,0.000435,-0.000274,0.03,-0.31,9.86
283570170,0.001996,0.000434,-0.002402,0.03,-0.31,9.84
283571179,0.000930,-0.000630,-0.002399,0.02,-0.30,9.82
283572190,-0.000135,-0.000630,-0.001333,0.04,-0.31,9.79
283573199,-0.001199,0.000435,-0.000267,0.03,-0.32,9.78
283574210,-0.001198,0.002563,-0.000267,0.02,-0.31,9.82
283575266,-0.001197,0.005753,-0.002395,0.01,-0.32,9.80
283576262,-0.003324,0.005747,-0.003457,-0.02,-0.31,9.76
283577261,-0.003321,0.002549,-0.001325,-0.01,-0.28,9.79
283578260,-0.000125,0.000418,0.000805,0.03,-0.33,9.81
283579270,-0.000125,0.001482,0.001868,0.03,-0.35,9.78
283580286,-0.000124,0.002544,0.000802,0.02,-0.29,9.81
283581281,0.000940,0.002542,0.001866,0.01,-0.27,9.85
283582293,0.000939,0.002539,0.001864,0.04,-0.30,9.82
283583302,-0.000126,0.002537,0.001862,0.06,-0.30,9.84
283584314,-0.000126,0.001470,0.000796,0.04,-0.31,9.86
283585345,-0.000126,0.001468,0.000795,0.04,-0.31,9.83
283586350,0.002003,0.002531,0.000794,0.03,-0.32,9.82
283587378,0.002001,0.002528,-0.000271,0.00,-0.33,9.80
283588359,0.001999,0.003590,-0.002399,-0.01,-0.33,9.82
283589391,0.000932,0.002522,-0.003461,0.00,-0.30,9.82
283590383,0.001996,0.001456,-0.002393,-0.01,-0.30,9.81
283591412,0.003058,0.001454,-0.000262,0.02,-0.32,9.82
283592421,0.003055,-0.000676,0.000802,0.04,-0.31,9.84
283593399,0.000923,-0.001739,-0.000263,0.02,-0.28,9.79
283594410,-0.000142,-0.000673,-0.000263,0.02,-0.27,9.77
283595424,-0.000142,0.000392,0.000802,0.03,-0.29,9.83
283596431,-0.000142,0.000391,0.001865,0.03,-0.34,9.80
283597439,0.000923,-0.000673,0.000799,0.03,-0.34,9.79
283598450,0.001986,-0.000673,0.001863,0.04,-0.29,9.82
283599459,-0.000145,0.000392,0.002925,0.04,-0.30,9.80
283600470,-0.000144,0.000392,0.001858,0.04,-0.33,9.80
283601479,0.000920,-0.000673,0.000792,0.07,-0.33,9.73
283602528,-0.000145,-0.000672,-0.000273,0.07,-0.31,9.75
283603513,-0.002273,-0.000672,-0.000273,0.03,-0.33,9.82
283604527,-0.002271,-0.000671,-0.000273,0.01,-0.33,9.81
283605554,-0.001205,-0.000670,0.000792,0.02,-0.31,9.82
283606530,-0.001203,0.000395,0.001855,0.00,-0.30,9.82
283607539,-0.001202,0.000394,0.000789,0.01,-0.30,9.83
283608550,-0.000137,0.001458,-0.000276,0.03,-0.33,9.84
283609559,0.000928,0.002521,-0.000276,0.01,-0.33,9.81
283610570,0.000927,0.001454,0.000789,0.03,-0.32,9.82
283611579,-0.000138,-0.000676,0.000788,0.05,-0.34,9.82
283612592,-0.000138,-0.000675,-0.001341,0.05,-0.32,9.74
283613602,-0.000138,0.001454,-0.003468,0.02,-0.30,9.75
283614618,-0.000138,0.002517,-0.002401,-0.01,-0.30,9.82
283615627,-0.000138,0.000386,-0.001334,0.03,-0.33,9.83
283616634,0.000926,-0.000679,0.000796,0.06,-0.34,9.85
283617646,0.000925,-0.001742,0.000795,0.03,-0.33,9.86
283618654,-0.000140,0.003580,-0.001334,0.08,-0.31,9.86
283619665,-0.001204,0.002513,-0.000269,0.03,-0.29,9.87
283620680,-0.002267,-0.001747,0.000796,0.01,-0.28,9.87
283621685,-0.002264,-0.000681,-0.000269,0.02,-0.33,9.84
283622699,-0.002262,0.000384,-0.000269,0.04,-0.33,9.84
283623712,-0.001196,0.001448,0.000796,0.00,-0.32,9.82
283624720,-0.000130,0.001446,0.001859,-0.02,-0.31,9.77
283625730,-0.000130,0.000381,0.000793,0.00,-0.30,9.79
283626738,-0.002258,0.000380,-0.000272,0.00,-0.30,9.84
283627748,-0.002256,0.000380,-0.000272,0.00,-0.33,9.83
283628760,-0.001190,0.000380,-0.000272,0.01,-0.32,9.81
283629766,-0.001188,-0.001749,-0.001335,0.01,-0.29,9.82
283630780,-0.001187,-0.002812,0.001859,0.01,-0.32,9.82
283631782,-0.001186,-0.002809,0.003985,0.03,-0.32,9.78
283632790,0.002008,-0.001742,0.005045,0.04,-0.30,9.82
283633802,0.005198,-0.000676,0.006104,0.04,-0.32,9.86
283634819,0.003065,0.000389,0.006098,0.03,-0.31,9.84
283635824,-0.000131,-0.000675,0.002899,0.03,-0.31,9.82
283636834,-0.002259,-0.001739,-0.002425,0.06,-0.31,9.82
283637841,-0.002257,0.000391,-0.002422,0.05,-0.31,9.88
283638850,-0.001190,0.002519,-0.001355,0.01,-0.32,9.89
283639859,-0.000125,0.000388,0.000774,0.01,-0.30,9.84
283640870,-0.002253,-0.001741,0.000774,0.05,-0.29,9.79
283641879,-0.001187,0.000390,0.000773,0.04,-0.29,9.80
283642890,-0.000121,0.000389,0.001836,0.01,-0.28,9.82
283643899,-0.000121,0.000389,0.000770,0.01,-0.29,9.80
283644915,-0.000121,0.002517,-0.000295,0.03,-0.27,9.80
283645920,0.000943,0.003578,0.000770,0.04,-0.28,9.80
283646930,0.000942,0.003575,0.000769,0.05,-0.29,9.76
283647939,0.002005,0.001443,0.000768,0.03,-0.28,9.80
283648950,0.002003,-0.001751,0.001831,0.00,-0.32,9.81
283649959,0.000937,-0.001749,0.000765,-0.01,-0.33,9.78
283650970,0.000936,-0.001748,-0.000300,-0.02,-0.33,9.83
283651979,0.000935,-0.003874,-0.003492,0.02,-0.28,9.83
283652990,0.000934,-0.003870,-0.002424,0.04,-0.24,9.82
283653999,0.001998,-0.001738,-0.001357,0.01,-0.27,9.81
283655015,0.001996,-0.001736,-0.000292,0.03,-0.29,9.81
283656020,-0.000135,-0.001735,0.000773,0.05,-0.30,9.82
283657030,-0.001199,0.001460,-0.000292,0.04,-0.30,9.81
283658039,-0.000134,0.002523,-0.000292,0.04,-0.32,9.82
283659050,-0.000133,0.002520,0.000772,0.01,-0.32,9.81
283660059,-0.001197,0.000389,0.002900,0.01,-0.31,9.83
283661070,-0.000132,-0.000676,0.002897,0.03,-0.31,9.81
283662079,0.000932,-0.001739,-0.000298,0.04,-0.31,9.76
283663090,0.000931,-0.001737,-0.001362,0.01,-0.32,9.81
283664099,0.000930,-0.002800,-0.001361,0.00,-0.30,9.85
283665115,0.000929,-0.001733,-0.000295,0.01,-0.27,9.85
283666120,0.000929,0.001462,0.001833,-0.01,-0.28,9.80
283667130,0.000928,0.003589,0.001831,0.02,-0.31,9.79
283668139,0.001991,0.001457,-0.001363,0.02,-0.32,9.81
283669150,0.001989,0.002519,-0.002426,0.02,-0.33,9.79
283670159,0.000923,0.003581,-0.000295,0.03,-0.33,9.80
283671170,0.000922,0.002513,0.001834,0.02,-0.31,9.84
283672179,-0.000143,-0.001746,0.003960,0.03,-0.31,9.83
283673190,-0.000143,-0.001745,0.003956,0.03,-0.32,9.82
283674199,-0.000143,-0.000679,0.001824,0.03,-0.32,9.80
283675215,-0.000143,0.000386,-0.000306,0.03,-0.29,9.79
283676220,-0.001207,0.000386,-0.002434,0.04,-0.29,9.83
283677230,-0.002270,0.000386,-0.000304,0.04,-0.30,9.81
283678239,-0.003332,-0.000679,-0.001367,0.05,-0.28,9.76
283679250,-0.001200,-0.001743,-0.001366,0.04,-0.30,9.81
283680259,-0.001199,-0.001741,-0.001365,0.02,-0.31,9.84
283681270,-0.002262,-0.000675,-0.000299,0.02,-0.28,9.81
283682279,-0.002260,0.000390,0.002894,0.01,-0.29,9.78
283683290,-0.000129,0.000390,0.003955,-0.02,-0.30,9.75
283684299,0.000935,0.000389,0.000758,0.01,-0.28,9.75
283685315,0.000934,0.000389,-0.001371,0.03,-0.31,9.80
283686327,-0.001195,0.001453,-0.001369,0.04,-0.32,9.84
283687332,-0.001194,0.001451,-0.001368,0.05,-0.29,9.81
283688340,-0.001193,0.000386,-0.001367,0.04,-0.28,9.76
283689351,-0.002256,0.000385,-0.000301,0.01,-0.28,9.78
283690360,-0.002253,-0.000679,-0.000301,-0.01,-0.27,9.83
283691371,0.000942,-0.002807,-0.001365,0.01,-0.27,9.80
283692380,0.000941,-0.003869,-0.000299,0.03,-0.30,9.80
283693391,-0.000124,-0.002800,0.001830,0.06,-0.31,9.82
283694400,-0.000124,-0.000669,-0.000301,0.03,-0.30,9.82
283695416,-0.002253,0.001460,-0.001364,-0.01,-0.30,9.78
283696427,-0.002250,0.002523,-0.002427,0.03,-0.30,9.78
283697432,0.000945,0.001456,-0.002425,0.03,-0.31,9.86
283698440,0.003072,0.000390,-0.002422,-0.03,-0.31,9.84
283699451,0.000940,-0.001739,-0.000292,-0.01,-0.33,9.79
283700460,-0.001189,-0.001737,0.000773,0.03,-0.33,9.80
283701471,-0.001188,-0.002799,0.002901,0.02,-0.29,9.83
283702480,-0.001186,-0.001732,0.001833,0.02,-0.28,9.84
283703491,-0.000121,-0.000666,-0.001361,0.04,-0.30,9.80
283704547,-0.001185,-0.000666,-0.001360,0.07,-0.32,9.81
283705527,-0.002248,0.001463,-0.001358,0.03,-0.34,9.82
283706526,-0.000117,0.001462,-0.000293,0.00,-0.33,9.81
283707532,0.003075,0.001460,0.000772,0.03,-0.31,9.78
283708540,0.002008,-0.001734,0.001835,0.01,-0.29,9.77
283709551,-0.001187,-0.005989,0.001833,0.02,-0.29,9.81
283710560,-0.003314,-0.004918,0.000767,0.05,-0.30,9.85
283711571,-0.000118,-0.000657,-0.000298,0.03,-0.30,9.84
283712580,0.003075,0.001472,-0.000297,0.02,-0.28,9.81
283713592,0.002008,0.003599,-0.001361,0.00,-0.30,9.81
283714611,0.002006,0.003596,-0.001360,-0.01,-0.31,9.86
283715614,0.000939,0.002528,-0.000294,0.02,-0.33,9.88
283716634,0.000938,0.002525,0.000770,0.01,-0.35,9.85
283717637,-0.002255,0.000394,0.001834,-0.01,-0.30,9.78
283718648,-0.002253,0.001458,0.000768,-0.01,-0.32,9.78
283719657,-0.002251,0.001457,-0.000297,-0.01,-0.30,9.77
283720669,-0.001184,0.001455,-0.001361,0.00,-0.29,9.83
283721681,0.002010,0.001454,-0.000296,0.01,-0.32,9.83
283722689,0.003072,-0.000676,0.001833,0.02,-0.31,9.80
283723702,0.000940,-0.000675,0.002895,0.04,-0.30,9.82
283724719,-0.001189,0.000389,0.001828,0.04,-0.33,9.83
283725719,-0.002252,0.000389,0.000762,0.02,-0.33,9.79
283726737,-0.001186,0.000389,-0.000303,0.02,-0.32,9.80
283727740,-0.000120,-0.001740,-0.002431,0.02,-0.33,9.85
283728749,0.002008,-0.002803,-0.001364,0.06,-0.30,9.82
283729765,0.003071,-0.002800,0.000766,0.09,-0.29,9.83
283730770,0.002003,-0.002797,0.000765,0.05,-0.32,9.86
283731777,0.000937,-0.002794,-0.000300,0.04,-0.31,9.85
283732784,-0.000128,-0.002791,-0.001364,0.04,-0.30,9.81
283733792,-0.001192,-0.001724,-0.000298,0.03,-0.31,9.79
283734808,-0.001191,0.000406,-0.000298,0.01,-0.34,9.81
283735817,-0.001190,-0.000659,-0.001362,0.01,-0.33,9.80
283736829,-0.001189,-0.000658,0.000768,0.03,-0.27,9.78
283737836,0.000941,-0.000657,0.000767,0.04,-0.30,9.83
283738842,0.003069,-0.000657,0.000766,0.05,-0.35,9.87
283739851,0.002001,0.000408,0.001830,0.08,-0.31,9.85
283740860,0.000935,-0.000657,0.001828,0.07,-0.26,9.80
283741871,-0.000130,-0.003848,0.000762,0.02,-0.28,9.77
283742880,-0.003323,-0.004909,-0.000303,0.01,-0.31,9.76
283743891,-0.003319,-0.003840,-0.001367,-0.01,-0.31,9.76
283744905,-0.002252,-0.001707,0.000763,-0.02,-0.30,9.78
283745918,-0.002249,-0.000641,0.000762,0.00,-0.29,9.78
283746921,-0.003311,-0.000641,-0.000303,0.02,-0.27,9.81
283747931,-0.003308,0.000424,-0.001367,0.03,-0.32,9.81
283748940,-0.000112,0.000424,-0.000301,0.03,-0.30,9.78
283749951,0.002016,0.001487,0.000763,0.03,-0.25,9.81
283750960,0.003079,0.000422,0.001827,0.01,-0.28,9.82
283751971,0.003076,-0.000643,0.001825,0.00,-0.31,9.81
283752980,0.003072,-0.000642,0.000759,0.04,-0.31,9.79
283753991,0.002005,0.000423,-0.000306,0.04,-0.29,9.80
283755005,-0.001190,-0.000642,-0.000306,0.01,-0.28,9.83
283756018,-0.002253,-0.000641,0.000758,0.01,-0.29,9.80
283757021,-0.000122,0.001488,-0.000307,0.05,-0.28,9.78
283758031,0.002007,0.002550,-0.001370,0.04,-0.28,9.81
283759040,0.002005,0.002548,-0.001369,0.01,-0.28,9.79
283760051,0.002003,0.000417,0.000761,0.01,-0.28,9.81
283761060,0.000936,-0.000648,0.001824,0.02,-0.30,9.89
283762071,0.002000,0.000417,0.002887,0.04,-0.31,9.85
283763080,0.001998,0.000417,0.000755,0.07,-0.32,9.75
283764091,0.001996,0.000416,-0.001374,0.06,-0.32,9.78
283765105,0.000929,0.001480,-0.003501,0.05,-0.30,9.78
283766118,-0.001200,-0.000650,-0.003497,0.04,-0.28,9.76
283767121,-0.000135,0.000415,-0.000301,0.04,-0.31,9.81
283768131,0.001994,0.000415,0.000763,0.04,-0.32,9.80
283769140,0.003056,0.001478,0.000762,0.02,-0.31,9.77
283770151,0.000925,0.002541,0.000762,0.04,-0.32,9.81
283771160,-0.000140,0.001474,0.000761,0.05,-0.31,9.80
283772171,0.000924,-0.000656,-0.000304,0.04,-0.28,9.79
283773180,0.003051,-0.001719,-0.000304,0.02,-0.29,9.82
283774191,0.000920,-0.001717,0.000761,0.01,-0.31,9.84
283775205,-0.000145,-0.000651,0.001824,0.01,-0.29,9.85
283776218,-0.001209,0.001478,0.001822,0.03,-0.27,9.82
283777221,-0.000144,0.001476,0.001821,0.03,-0.26,9.80
283778231,0.000921,-0.000654,0.001819,0.03,-0.28,9.82
283779240,0.001984,0.000411,0.001817,0.01,-0.32,9.83
283780251,0.000918,0.002539,-0.000313,0.01,-0.32,9.79
283781260,0.000917,0.001472,-0.002441,0.04,-0.31,9.78
283782271,0.001980,-0.000658,-0.001375,0.05,-0.30,9.83
283783280,0.001978,-0.002785,-0.001373,0.02,-0.31,9.86
283784291,0.000912,-0.002783,-0.001372,0.01,-0.31,9.82
283785305,-0.000153,-0.000651,-0.000306,0.04,-0.29,9.78
283786318,0.000911,0.000414,-0.001370,0.03,-0.31,9.80
283787321,0.001974,-0.000651,-0.001369,0.04,-0.32,9.85
283788331,0.000908,0.001478,-0.001368,0.04,-0.33,9.84
283789340,0.000907,0.004669,-0.001366,0.04,-0.34,9.80
283790351,-0.000158,0.004664,-0.000301,0.04,-0.29,9.82
283791360,-0.003350,0.003595,-0.000300,0.02,-0.27,9.85
283792371,-0.005475,0.002528,-0.000300,0.04,-0.32,9.83
283793380,-0.004406,0.002525,-0.001364,0.03,-0.35,9.79
283794524,-0.001209,0.003587,0.001830,0.03,-0.31,9.79
283795372,0.001987,0.002521,0.000765,0.04,-0.28,9.78
283796387,0.029685,-0.007066,0.013548,0.05,-0.21,9.76
283797392,0.130886,-0.030502,0.033788,-0.02,-0.17,9.84
283798398,0.111711,-0.023045,0.030593,0.05,-0.28,9.81
283799406,0.046729,-0.004936,0.017809,0.16,-0.32,9.80
283800418,0.008379,0.003587,0.012483,0.08,-0.27,9.86
283801426,-0.002274,0.001456,0.014613,-0.03,-0.50,9.71
283802438,0.000922,0.000391,0.012483,-0.11,-0.54,9.67
283803446,-0.004404,0.003587,0.007156,-0.22,-0.32,9.81
283804458,-0.002274,0.002521,0.007156,-0.24,-0.08,9.86
283805473,-0.020384,-0.000675,0.017809,0.10,-0.02,9.74
283806491,-0.022514,0.000391,0.025266,0.52,-0.56,9.62
283807490,-0.007600,0.007848,0.016744,0.27,-0.99,9.88
283808500,-0.010796,0.007848,-0.002431,-0.37,-0.31,10.29
283809510,-0.024645,-0.007066,-0.012019,-0.28,0.42,9.97
283810520,-0.032102,-0.016654,-0.005627,0.44,-0.75,8.90
283811530,0.006248,0.002521,-0.008823,0.31,-1.11,9.26
283812540,0.027554,0.021696,-0.022671,-0.60,1.05,11.05
283813561,-0.013992,-0.009197,-0.014149,0.06,0.10,10.49
283814578,-0.029971,-0.029437,0.001830,0.84,-2.27,8.41
283815575,0.025423,0.020631,-0.008823,-0.21,1.14,10.06
283816593,0.011575,0.019566,-0.009888,-0.49,0.39,10.73
283817591,-0.033167,-0.034763,-0.001366,0.34,-2.72,8.53
283818599,-0.007600,0.014239,-0.000301,-0.31,-0.83,9.86
283819614,-0.051277,-0.025176,0.002895,0.51,-1.64,9.57
283820622,-0.009731,0.015305,0.001830,-0.29,1.97,11.04
283821632,-0.036363,-0.008131,0.008222,-0.23,-1.73,8.58
283822648,-0.013992,-0.025176,0.001830,0.40,-0.20,10.30
283823656,-0.040624,0.003587,0.008222,-0.23,-0.01,9.15
283824672,-0.037428,0.016370,0.001830,0.52,-0.43,10.79
283825690,0.004118,0.005717,0.010352,-0.62,-0.42,9.53
283826706,-0.000143,-0.028372,0.013548,0.59,-0.02,9.39
283827702,0.000922,0.004652,0.015679,0.09,-0.45,10.33
283828704,0.015836,0.007848,0.007156,-0.25,-0.86,9.98
283829715,0.046729,-0.012393,-0.004562,0.53,0.79,8.86
283830738,-0.006535,0.005717,-0.005627,-0.65,-1.54,9.19
283831742,-0.022514,0.025958,-0.010953,0.64,0.44,10.40
283832769,0.007314,-0.001740,-0.009888,-0.08,-0.37,9.89
283833781,0.011575,-0.012393,-0.012019,0.15,-0.47,11.08
283834795,-0.005470,-0.015588,-0.006692,0.30,-0.01,8.33
283835788,0.020097,-0.013458,-0.010953,-0.31,-1.24,11.33
283836821,0.030750,-0.001740,-0.008823,0.36,1.01,8.00
283837809,0.024358,-0.002805,-0.004562,-0.58,-1.35,10.39
283838816,0.010509,-0.008131,-0.006692,0.28,0.03,10.43
283839828,-0.011861,-0.004936,-0.004562,0.32,0.64,7.79
283840840,-0.004404,0.008913,0.000765,-0.94,-2.11,12.07
283841826,0.012640,0.008913,0.008222,0.59,0.62,8.78
283842838,0.022228,-0.001740,0.006091,0.08,0.21,9.01
283843846,0.012640,-0.011327,-0.001366,-0.83,-2.00,12.24
283844864,0.028619,-0.004936,-0.013084,0.60,0.43,8.39
283845871,0.026489,0.007848,-0.019476,0.31,1.06,8.51
283846878,-0.009731,0.020631,-0.021606,-0.86,-2.48,12.63
283847886,-0.053407,0.022762,-0.020541,0.36,-0.19,8.34
283848898,-0.058734,0.011044,-0.006692,0.79,1.91,7.73
283849906,-0.019318,0.004652,-0.000301,-0.73,-1.87,12.96
283850918,0.014771,0.001456,0.002895,-0.24,-1.68,10.27
283851934,0.031815,-0.012393,0.008222,1.04,1.69,6.54
283852946,0.025423,-0.018784,0.000765,-0.02,0.23,11.13
283853963,0.012640,-0.018784,-0.012019,-0.77,-2.98,12.55
283854963,0.007314,-0.019850,-0.018410,0.37,0.51,7.17
283855971,-0.010796,-0.011327,-0.014149,1.00,1.69,7.57
283856978,0.010509,-0.019850,-0.005627,-0.19,-0.73,12.72
283857986,0.044598,-0.024111,-0.000301,-1.10,-1.60,11.44
283858998,0.048860,-0.006001,-0.004562,0.38,-0.28,7.28
283860006,0.046729,-0.009197,-0.005627,1.13,1.21,8.71
283861018,0.003053,-0.004936,-0.003496,-0.31,0.63,11.85
283862026,-0.042755,0.003587,-0.003496,-1.26,-1.36,11.26
283863038,-0.037428,0.001456,-0.005627,-0.11,-2.53,8.71
283864046,-0.007600,-0.000675,-0.000301,1.15,0.95,7.69
283865063,0.003053,-0.008131,0.005026,0.54,2.25,9.41
283866071,-0.001209,-0.010262,0.009287,-0.65,-0.86,12.39
283867078,0.004118,-0.012393,0.014613,-1.16,-2.71,11.02
283868086,-0.006535,-0.009197,0.008222,0.02,-0.97,7.86
283869098,-0.008666,0.006782,0.000765,1.06,0.68,8.25
283870106,0.001987,0.013174,-0.000301,0.66,1.15,10.16
283871118,0.004118,0.013174,0.006091,-0.48,0.69,12.03
283872126,0.010509,0.001456,0.007156,-1.13,-1.95,11.67
283873138,0.010509,-0.004936,0.001830,-0.44,-2.85,8.55
283874146,0.003053,0.003587,0.000765,0.85,-0.53,7.25
283875163,0.006248,0.020631,-0.001366,1.08,0.99,8.46
283876171,-0.017188,0.020631,-0.002431,0.39,1.46,10.72
283877178,-0.022514,0.001456,0.003961,-0.53,1.40,11.89
283878186,-0.008666,-0.015588,0.010352,-1.19,-1.46,11.55
283879198,-0.005470,-0.025176,0.008222,-0.35,-3.20,9.78
283880206,-0.008666,-0.026241,0.002895,0.60,-1.50,7.88
283881218,-0.003339,-0.010262,-0.003496,0.80,-0.09,8.02
283882226,0.004118,0.001456,-0.008823,0.86,1.54,9.05
283883238,-0.005470,0.005717,-0.002431,0.35,2.33,10.67
283884246,0.006248,0.003587,0.001830,-0.61,1.27,11.56
283885263,0.026489,-0.001740,0.003961,-1.15,-1.36,11.05
283886271,0.035011,-0.003870,0.003961,-0.37,-3.31,9.69
283887278,0.042468,-0.003870,0.003961,0.24,-2.47,8.99
283888286,0.041403,-0.007066,0.005026,0.49,-1.11,8.88
283889298,0.029685,-0.015588,-0.000301,0.85,0.71,8.55
283890306,-0.003339,-0.011327,-0.000301,0.43,1.52,9.10
283891318,0.013705,-0.001740,-0.003496,0.08,2.80,10.49
283892326,0.003053,0.001456,-0.003496,-0.33,1.79,11.58
283893338,-0.019318,0.002521,0.006091,-0.78,-1.10,10.85
283894346,0.023293,0.007848,0.001830,-0.84,-2.95,10.07
283895363,0.030750,0.014239,-0.012019,-0.19,-3.40,9.87
283896371,-0.027841,-0.002805,-0.013084,0.40,-2.50,9.06
283897378,-0.085366,-0.020915,0.005026,0.21,-1.33,8.63
283898419,-0.103476,-0.037959,0.017809,0.60,0.72,8.36
283899415,-0.088562,-0.042220,0.021005,0.58,1.57,9.01
283900406,-0.064060,-0.032633,0.007156,0.28,3.10,10.19
283901418,-0.028906,-0.011327,-0.008823,0.25,2.73,11.27
283902426,0.010509,0.019566,-0.014149,-0.35,0.90,11.03
283903438,0.021162,0.016370,-0.001366,-0.70,-0.77,10.90
283904446,-0.004404,-0.001740,0.006091,-0.49,-3.04,10.26
283905463,0.011575,-0.011327,0.000765,-0.33,-3.47,9.35
283906471,-0.004404,0.000391,0.000765,-0.05,-2.69,9.75
283907478,0.012640,-0.002805,-0.001366,0.29,-2.10,9.01
283908486,0.001987,-0.004936,-0.004562,0.13,-1.05,8.79
283909518,-0.037428,-0.003870,0.000765,0.42,0.84,8.49
283910515,-0.017188,-0.014523,0.012483,0.48,1.02,8.90
283911518,0.038207,-0.010262,0.001830,0.29,2.46,9.74
283912526,0.032880,0.006782,-0.013084,0.44,2.40,10.30
283913538,-0.020384,0.018501,-0.021606,0.10,2.13,10.80
283914546,-0.069387,0.012109,-0.014149,-0.01,1.43,10.99
283915563,-0.085366,0.001456,0.000765,-0.26,-0.53,10.74
283916571,-0.077909,-0.012393,0.013548,-0.52,-1.44,10.38
283917578,-0.062995,-0.018784,0.019940,-0.32,-2.70,10.23
283918591,-0.058734,-0.016654,0.002895,-0.15,-2.54,9.94
283919602,-0.047016,-0.009197,-0.010953,0.06,-2.42,9.28
283920615,-0.016123,0.008913,-0.015214,-0.05,-1.66,9.33
283921623,0.027554,0.020631,-0.013084,0.17,-0.70,9.12
283922632,0.028619,0.014239,0.002895,0.16,-0.41,8.94
283923649,-0.019318,-0.006001,0.008222,0.29,1.11,9.23
283924654,-0.043820,-0.016654,-0.004562,0.34,0.86,8.87
283925672,-0.006535,-0.007066,-0.014149,0.24,1.88,9.27
283926679,0.003053,-0.006001,-0.002431,0.42,2.03,9.60
283927694,-0.008666,-0.006001,-0.001366,0.10,1.91,10.30
283928699,0.007314,0.001456,0.000765,0.11,1.78,10.80
283929704,-0.005470,0.007848,0.003961,0.00,0.47,10.84
283930717,-0.010796,0.006782,-0.001366,-0.05,0.04,10.71
283931731,0.009444,0.006782,0.002895,-0.05,-1.25,10.25
283932732,0.022228,0.002521,0.006091,-0.30,-1.61,10.03
283933744,0.023293,-0.000675,0.009287,-0.21,-2.08,9.98
283934756,0.011575,-0.010262,0.007156,-0.25,-2.38,9.94
283935764,-0.003339,-0.007066,0.002895,-0.16,-2.10,10.10
283936767,-0.007600,0.001456,-0.003496,-0.11,-2.11,9.70
283937781,-0.016123,0.011044,-0.003496,-0.10,-1.63,9.83
283938791,-0.001209,0.009978,0.001830,0.08,-1.22,9.58
283939801,0.008379,0.007848,0.008222,0.01,-1.01,9.11
283940809,0.022228,0.001456,0.009287,0.16,0.12,9.20
283941817,0.019032,0.003587,0.001830,0.22,0.19,8.71
283942827,-0.002274,0.006782,-0.003496,0.27,1.35,8.90
283943837,-0.007600,0.006782,-0.002431,0.38,1.35,8.96
283944852,-0.024645,0.009978,-0.004562,0.35,2.08,9.58
283945862,-0.010796,0.004652,0.002895,0.46,1.99,10.01
283946867,0.009444,0.003587,0.000765,0.24,1.30,10.21
283947877,-0.001209,0.005717,-0.001366,0.27,1.33,10.40
283948887,0.003053,-0.004936,0.003961,0.26,0.37,10.44
283949897,0.012640,-0.009197,0.003961,0.21,0.05,10.50
283950907,0.009444,-0.008131,-0.000301,0.10,-0.75,10.38
283951917,0.009444,-0.008131,-0.003496,-0.04,-1.25,10.53
283952927,-0.003339,0.005717,-0.006692,-0.02,-1.73,10.20
283953937,-0.019318,0.020631,-0.009888,-0.24,-1.95,10.33
283954952,-0.017188,0.007848,-0.001366,-0.15,-1.98,10.13
283955962,-0.001209,-0.006001,0.008222,-0.16,-2.07,9.82
283956967,-0.007600,0.001456,0.010352,-0.04,-1.96,9.71
283957977,-0.009731,0.007848,0.005026,0.06,-1.50,9.73
283958987,0.005183,-0.008131,0.003961,-0.03,-1.39,9.55
283959997,0.016901,-0.010262,-0.000301,0.07,-0.56,9.71
283961007,-0.002274,-0.001740,-0.004562,-0.02,-0.25,9.72
283962017,-0.025710,-0.002805,0.006091,0.09,-0.43,8.68
283963027,-0.020384,0.001456,0.015679,0.04,0.53,8.95
283964037,-0.000143,0.003587,0.015679,-0.10,1.11,9.31
283965052,0.001987,0.011044,0.012483,0.39,0.98,8.82
283966062,-0.007600,0.025958,0.008222,0.25,1.15,9.38
283967067,-0.006535,0.007848,0.012483,-0.20,1.44,9.70
283968077,0.013705,-0.018784,0.023136,0.24,1.40,9.14
283969087,0.035011,-0.008131,0.021005,0.33,0.79,10.04
283970097,0.023293,0.002521,0.008222,-0.13,1.07,10.58
283971107,-0.027841,-0.002805,0.012483,-0.07,0.96,9.85
283972117,-0.058734,0.005717,0.024201,0.34,-0.24,10.44
283973127,-0.026775,0.005717,0.028462,-0.06,0.17,10.71
283974137,0.024358,-0.016654,0.033788,-0.24,-0.43,10.43
283975152,0.046729,-0.013458,0.032723,0.25,-1.33,10.48
283976162,0.037142,0.015305,0.022070,-0.16,-1.02,10.12
283977167,0.010509,0.005717,0.022070,-0.34,-1.90,10.47
283978177,-0.015057,-0.002805,0.025266,-0.03,-1.59,10.44
283979187,-0.025710,0.007848,0.022070,-0.22,-1.46,9.98
283980197,-0.022514,-0.006001,0.029527,-0.19,-2.33,10.06
283981207,-0.003339,-0.018784,0.036984,0.04,-1.55,9.60
283982217,0.011575,-0.004936,0.033788,-0.20,-0.87,9.98
283983227,0.014771,-0.007066,0.031658,-0.12,-1.67,9.87
283984237,0.035011,-0.007066,0.028462,0.27,-1.37,8.66
283985252,0.027554,0.018501,0.021005,-0.22,0.03,9.77
283986262,0.019032,0.009978,0.021005,-0.23,-0.51,9.97
283987267,0.029685,-0.009197,0.021005,0.51,-0.52,8.49
283988277,0.015836,0.012109,0.009287,-0.13,0.59,9.20
283989287,-0.002274,0.008913,0.008222,-0.20,0.63,9.58
283990297,-0.003339,-0.016654,0.016744,0.81,0.66,8.76
283991307,-0.015057,0.003587,0.012483,-0.04,0.83,9.25
283992317,-0.028906,0.015305,0.010352,-0.28,1.17,9.51
283993327,-0.024645,-0.007066,0.015679,0.85,1.05,9.10
283994337,-0.020384,0.003587,0.015679,0.21,0.71,9.89
283995352,-0.031036,0.015305,0.019940,-0.37,1.16,10.20
283996362,-0.025710,-0.006001,0.029527,0.55,0.51,9.55
283997367,-0.025710,0.001456,0.026331,0.47,0.37,9.93
283998377,-0.042755,0.017435,0.021005,-0.41,0.69,10.54
283999387,-0.039559,-0.003870,0.026331,0.11,-0.36,10.48
284000397,-0.024645,-0.003870,0.022070,0.55,-0.19,10.29
284001407,-0.038493,0.013174,0.017809,-0.35,-0.44,10.25
284002417,-0.041689,-0.001740,0.023136,-0.07,-1.34,10.62
284003427,-0.025710,0.000391,0.017809,0.44,-0.61,10.66
284004437,-0.026775,0.022762,0.009287,-0.40,-1.20,10.19
284005452,-0.033167,0.006782,0.015679,-0.35,-2.02,10.37
284006462,-0.021449,0.000391,0.018875,0.11,-0.96,10.36
284007467,-0.020384,0.020631,0.012483,-0.42,-1.44,10.02
284008477,-0.024645,0.012109,0.013548,-0.36,-2.34,9.96
284009487,-0.017188,0.000391,0.012483,0.17,-1.21,9.47
284010497,-0.013992,0.015305,0.007156,-0.31,-0.80,10.02
284011507,-0.001209,0.001456,0.009287,-0.36,-1.95,9.96
284012517,0.026489,-0.016654,0.012483,0.28,-1.17,8.78
284013527,0.023293,0.000391,0.009287,-0.20,0.04,9.81
284014537,0.019032,0.000391,0.015679,-0.36,-0.89,9.91
284015552,0.044598,-0.013458,0.022070,0.39,-0.53,8.57
284016562,0.043533,-0.003870,0.022070,-0.27,0.46,9.39
284017567,0.031815,-0.019850,0.029527,0.65,0.38,8.87
284018577,0.011575,0.001456,0.023136,-0.15,0.62,9.31
284019591,-0.028906,0.006782,0.022070,-0.40,0.69,9.55
284020599,-0.032102,-0.009197,0.027397,0.80,0.90,9.08
284021615,-0.022514,0.008913,0.017809,0.10,0.65,9.70
284022621,-0.032102,0.020631,0.012483,-0.36,1.01,9.86
284023632,-0.024645,-0.003870,0.016744,0.62,0.70,9.38
284024647,-0.017188,-0.002805,0.016744,0.30,0.57,9.86
284025661,-0.013992,0.009978,0.016744,-0.34,0.84,10.24
284026671,0.028619,-0.009197,0.019940,0.40,0.01,9.94
284027679,0.054186,-0.015588,0.015679,0.58,0.26,10.01
284028690,0.031815,-0.004936,0.013548,-0.28,0.27,10.51
284029698,0.014771,-0.014523,0.016744,0.20,-0.82,10.56
284030708,0.011575,-0.008131,0.012483,0.67,-0.29,10.30
284031710,-0.013992,0.019566,0.001830,-0.27,-0.47,10.38
284032730,-0.023580,0.014239,-0.001366,0.11,-1.42,10.46
284033733,-0.010796,0.003587,-0.004562,0.71,-0.63,10.33
284034748,-0.007600,0.015305,-0.007757,-0.25,-1.01,10.20
284035755,0.003053,-0.001740,-0.002431,-0.04,-1.89,10.37
284036762,0.021162,-0.020915,-0.001366,0.55,-1.01,10.30
284037766,0.017966,-0.009197,-0.010953,-0.16,-1.20,10.11
284038782,0.020097,-0.011327,-0.015214,-0.07,-2.12,9.89
284039790,0.021162,-0.003870,-0.016280,0.50,-1.22,9.33
284040802,-0.018253,0.038741,-0.027998,-0.21,-0.66,10.12
284041808,-0.048081,0.033414,-0.030128,-0.32,-1.89,9.98
284042818,-0.027841,-0.007066,-0.024802,0.47,-1.36,8.55
284043826,0.000922,-0.011327,-0.024802,-0.20,-0.10,9.92
284044843,0.025423,-0.016654,-0.020541,-0.38,-1.12,10.08
284045851,0.039272,-0.019850,-0.020541,0.62,-0.84,8.32
284046858,0.003053,0.015305,-0.030128,-0.26,0.41,9.47
284047866,-0.047016,0.027023,-0.024802,-0.54,-0.26,9.89
284048878,-0.044885,-0.004936,-0.014149,0.74,-0.15,8.61
284049886,-0.018253,-0.006001,-0.006692,-0.28,0.57,9.36
284050898,0.007314,-0.003870,-0.002431,-0.53,0.52,9.58
284051906,0.042468,-0.023045,-0.001366,0.88,0.52,8.87
284052918,0.035011,0.000391,-0.010953,0.00,0.72,9.57
284053926,-0.017188,0.031284,-0.015214,-0.30,0.88,9.60
284054943,-0.035298,0.016370,-0.009888,0.85,0.42,9.09
284055951,-0.008666,-0.000675,-0.004562,0.17,0.57,9.86
284056958,0.020097,-0.012393,0.001830,-0.27,0.98,9.96
284057966,0.040337,-0.033698,0.005026,0.79,0.13,9.32
284058978,0.023293,-0.013458,-0.002431,0.54,0.39,9.99
284059986,-0.025710,0.017435,-0.005627,-0.29,0.81,10.46
284060998,-0.045950,0.001456,-0.003496,0.48,-0.41,9.96
284062019,-0.018253,-0.015588,-0.003496,0.74,-0.11,10.04
284063033,0.016901,-0.011327,-0.001366,-0.33,0.37,10.59
284064026,0.031815,-0.017719,0.005026,0.23,-0.92,10.48
284065043,0.021162,0.000391,0.005026,0.74,-0.34,10.09
284066051,-0.020384,0.034480,-0.002431,-0.38,-0.13,10.34
284067058,-0.020384,0.014239,-0.002431,0.11,-1.45,10.67
284068066,0.023293,-0.009197,-0.006692,0.59,-0.61,10.34
284069078,0.023293,0.006782,-0.012019,-0.50,-0.63,10.11
284070086,-0.010796,0.005717,-0.007757,-0.20,-1.85,10.35
284071098,-0.024645,-0.004936,-0.003496,0.32,-0.98,10.13
284072106,-0.019318,-0.002805,-0.000301,-0.46,-0.91,10.17
284073118,0.003053,-0.017719,0.002895,-0.31,-1.98,10.10
284074126,0.022228,-0.019850,-0.000301,0.28,-1.09,9.47
284075143,-0.013992,0.023827,-0.012019,-0.37,-0.65,10.04
284076151,-0.042755,0.029153,-0.010953,-0.40,-1.85,9.88
284077170,-0.002274,0.000391,-0.007757,0.29,-1.25,8.89
284078178,0.032880,-0.003870,-0.009888,-0.31,-0.11,10.18
284079179,0.022228,-0.008131,-0.004562,-0.43,-1.30,10.02
284080192,0.010509,-0.016654,0.000765,0.40,-0.98,8.43
284081203,-0.004404,-0.000675,-0.003496,-0.34,0.30,9.86
284082210,-0.004404,0.002521,-0.006692,-0.57,-0.63,10.17
284083223,0.014771,-0.007066,-0.009888,0.52,-0.48,8.60
284084231,-0.003339,0.018501,-0.017345,-0.38,0.42,9.43
284085249,-0.040624,0.020631,-0.015214,-0.60,0.10,9.89
284086257,-0.013992,-0.010262,-0.008823,0.75,0.19,8.85
284087288,0.013705,-0.000675,-0.012019,-0.31,0.56,9.42
284088281,-0.007600,0.012109,-0.005627,-0.60,0.63,9.69
284089288,-0.011861,-0.010262,0.000765,0.87,0.42,8.97
284090302,0.008379,-0.016654,0.001830,0.01,0.49,9.60
284091314,0.013705,-0.008131,0.001830,-0.43,0.87,9.76
284092312,0.013705,-0.014523,0.007156,0.71,0.25,9.24
284093318,-0.001209,-0.000675,0.006091,0.12,0.47,9.90
284094326,-0.020384,0.009978,0.003961,-0.41,0.93,10.02
284095353,-0.004404,-0.011327,0.007156,0.55,-0.04,9.49
284096351,0.005183,0.000391,0.000765,0.42,0.38,9.87
284097368,-0.034232,0.025958,-0.000301,-0.31,0.75,10.30
284098366,-0.029971,0.002521,0.003961,0.34,-0.49,9.97
284099393,-0.000143,-0.001740,-0.002431,0.51,0.18,10.03
284100386,-0.015057,0.022762,-0.005627,-0.33,0.39,10.48
284101415,-0.022514,0.009978,0.001830,0.20,-0.82,10.41
284102424,0.000922,-0.006001,-0.003496,0.60,-0.03,10.21
284103439,0.010509,0.004652,-0.006692,-0.37,-0.12,10.40
284104436,0.009444,0.005717,0.000765,-0.01,-1.12,10.50
284105445,0.021162,-0.006001,0.002895,0.44,-0.44,10.28
284106451,0.026489,-0.004936,0.001830,-0.40,-0.63,10.22
284107458,0.014771,-0.007066,0.005026,-0.14,-1.55,10.40
284108466,0.013705,-0.011327,0.003961,0.26,-0.90,10.22
284109478,0.020097,-0.010262,-0.000301,-0.43,-0.97,10.10
284110486,0.020097,-0.010262,-0.001366,-0.25,-1.85,10.07
284111498,0.015836,-0.008131,0.000765,0.23,-0.98,9.74
284112506,0.004118,-0.002805,0.000765,-0.31,-0.78,9.99
284113518,-0.000143,-0.010262,0.000765,-0.34,-1.75,9.88
284114541,0.007314,-0.012393,0.001830,0.16,-1.12,9.38
284115543,-0.011861,0.003587,0.002895,-0.26,-0.53,10.11
284116551,-0.013992,-0.001740,0.007156,-0.38,-1.58,9.73
284117558,0.003053,0.021696,-0.001366,-0.24,-0.05,10.07
284118566,-0.018253,0.017435,-0.001366,-0.42,-1.03,9.90
284119579,-0.002274,-0.000675,-0.003496,0.21,-0.80,8.81
284120591,-0.004404,0.022762,-0.013084,-0.29,0.19,9.78
284121601,-0.018253,0.024892,-0.010953,-0.43,-0.36,9.85
284122615,-0.001209,-0.001740,-0.009888,0.36,-0.43,8.72
284123623,0.006248,0.003587,-0.016280,-0.33,0.34,9.51
284124630,-0.006535,0.008913,-0.012019,-0.48,0.26,9.84
284125651,-0.002274,-0.007066,-0.003496,0.57,0.08,8.91
284126659,0.009444,-0.007066,-0.006692,-0.28,0.32,9.43
284127668,0.006248,-0.003870,-0.003496,-0.46,0.72,9.76
284128681,0.001987,-0.020915,0.001830,0.81,0.41,9.03
284129687,0.004118,-0.018784,0.000765,-0.04,0.26,9.59
284130697,0.008379,-0.007066,0.001830,-0.48,0.91,9.77
284131705,0.010509,-0.019850,0.006091,0.71,0.35,9.05
284132709,0.003053,-0.013458,0.005026,0.16,0.22,9.74
284133731,-0.006535,0.003587,0.002895,-0.45,0.95,10.15
284134739,-0.005470,-0.010262,0.006091,0.57,-0.04,9.49
284135747,-0.011861,-0.009197,0.002895,0.42,0.20,9.78
284136752,-0.025710,0.007848,-0.003496,-0.41,0.84,10.37
284137761,-0.012927,-0.006001,-0.000301,0.39,-0.49,10.08
284138767,-0.008666,-0.002805,-0.002431,0.54,0.04,9.91
284139781,-0.035298,0.013174,-0.001366,-0.43,0.49,10.41
284140791,-0.028906,-0.003870,0.002895,0.26,-0.86,10.43
284141801,-0.009731,-0.002805,0.000765,0.66,-0.12,10.22
284142809,-0.027841,0.023827,-0.000301,-0.42,0.00,10.49
284143817,-0.022514,0.007848,0.006091,0.06,-1.20,10.54
284144832,0.004118,0.002521,0.003961,0.61,-0.40,10.37
284145842,-0.010796,0.028088,-0.001366,-0.36,-0.56,10.27
284146847,-0.007600,0.012109,0.002895,-0.09,-1.56,10.44
284147857,0.015836,-0.004936,0.000765,0.44,-0.78,10.31
284148867,0.000922,0.013174,-0.008823,-0.37,-0.80,10.08
284149877,-0.012927,0.005717,-0.007757,-0.23,-1.76,10.21
284150887,0.007314,-0.006001,-0.012019,0.33,-0.99,9.90
284151897,0.004118,0.013174,-0.016280,-0.30,-0.72,10.08
284152907,-0.012927,0.007848,-0.007757,-0.33,-1.86,9.97
284153917,0.001987,-0.010262,-0.008823,0.27,-1.12,9.18
284154932,-0.003339,0.004652,-0.013084,-0.32,-0.42,10.11
284155942,-0.020384,-0.000675,-0.003496,-0.46,-1.71,10.00
284156947,0.005183,-0.017719,-0.000301,0.35,-1.15,8.69
284157957,0.015836,0.004652,-0.001366,-0.32,-0.01,10.12
284158967,-0.004404,0.006782,0.005026,-0.52,-1.23,10.18
284159977,0.007314,-0.017719,0.008222,0.45,-0.99,8.47
284160987,0.020097,-0.000675,-0.000301,-0.41,0.27,9.77
284161997,0.000922,0.005717,-0.000301,-0.65,-0.63,10.13
284163007,0.016901,-0.016654,-0.002431,0.59,-0.54,8.71
284164017,0.031815,-0.002805,-0.007757,-0.39,0.41,9.48
284165032,0.007314,0.012109,-0.005627,-0.70,-0.08,9.75
284166042,0.003053,-0.007066,-0.002431,0.63,-0.04,8.85
284167047,0.016901,-0.006001,-0.006692,-0.28,0.49,9.50
284168057,0.004118,0.004652,-0.002431,-0.60,0.44,9.70
284169067,0.003053,-0.010262,0.001830,0.67,0.26,8.99
284170077,0.012640,-0.010262,-0.002431,-0.08,0.49,9.52
284171087,0.000922,0.002521,0.000765,-0.43,0.74,9.58
284172097,-0.000143,-0.009197,0.006091,0.63,0.28,9.07
284173107,0.014771,-0.010262,0.003961,0.05,0.36,9.68
284174117,0.008379,0.000391,0.007156,-0.36,0.81,9.75
284175132,0.004118,-0.009197,0.009287,0.55,0.12,9.28
284176142,0.017966,-0.007066,0.001830,0.28,0.33,9.86
284177147,0.010509,0.005717,0.001830,-0.30,0.67,10.07
284178157,0.005183,-0.004936,0.005026,0.42,-0.20,9.77
284179167,0.022228,-0.008131,-0.005627,0.46,0.34,9.95
284180177,0.017966,0.002521,-0.007757,-0.24,0.64,10.26
284181187,0.005183,-0.006001,-0.003496,0.27,-0.51,10.09
284182197,0.011575,-0.007066,-0.007757,0.46,0.05,10.02
284183207,-0.001209,0.008913,-0.007757,-0.23,0.26,10.49
284184217,-0.015057,0.001456,-0.000301,0.21,-0.76,10.45
284185232,-0.004404,-0.002805,-0.003496,0.55,-0.24,10.20
284186242,-0.007600,0.008913,-0.004562,-0.19,-0.26,10.32
284187247,-0.005470,-0.001740,0.000765,0.05,-1.04,10.40
284188257,0.010509,-0.003870,0.001830,0.43,-0.63,10.29
284189267,0.003053,0.016370,-0.002431,-0.24,-0.64,10.18
284190277,0.004118,0.004652,-0.000301,-0.07,-1.32,10.44
284191287,0.021162,-0.000675,-0.001366,0.29,-0.86,10.28
284192297,0.010509,0.019566,-0.007757,-0.33,-0.91,9.98
284193307,0.005183,0.006782,-0.004562,-0.20,-1.66,10.14
284194317,0.016901,-0.002805,-0.004562,0.28,-0.95,9.88
284195332,-0.001209,0.017435,-0.010953,-0.28,-0.75,10.02
284196342,-0.004404,0.006782,-0.008823,-0.31,-1.74,9.93
284197347,0.012640,-0.002805,-0.006692,0.22,-1.14,9.24
284198357,-0.004404,0.019566,-0.010953,-0.28,-0.43,10.13
284199367,-0.002274,0.006782,-0.007757,-0.35,-1.57,10.10
284200377,0.013705,-0.007066,-0.005627,0.31,-1.21,8.72
284201387,-0.003339,0.017435,-0.008823,-0.34,-0.05,9.98
284202397,-0.001209,0.015305,-0.006692,-0.48,-1.21,10.13
284203407,0.020097,-0.001740,-0.002431,0.46,-1.02,8.40
284204417,0.007314,0.018501,-0.006692,-0.32,0.28,9.77
284205432,-0.000143,0.018501,-0.005627,-0.60,-0.64,10.16
284206442,0.022228,0.000391,-0.000301,0.57,-0.65,8.60
284207447,0.014771,0.016370,-0.005627,-0.41,0.34,9.58
284208457,-0.007600,0.018501,-0.005627,-0.71,-0.09,9.90
284209467,0.006248,-0.001740,-0.002431,0.62,-0.20,8.73
284210477,0.003053,0.011044,-0.008823,-0.28,0.39,9.44
284211487,-0.015057,0.016370,-0.007757,-0.57,0.42,9.70
284212497,0.000922,-0.004936,-0.003496,0.68,0.25,8.98
284213507,-0.006535,0.008913,-0.006692,-0.12,0.42,9.60
284214517,-0.027841,0.019566,-0.003496,-0.43,0.81,9.62
284215532,-0.015057,0.002521,0.003961,0.74,0.36,9.00
284216562,-0.024645,0.024892,0.003961,-0.37,0.83,9.81
284217547,-0.012927,0.003587,0.010352,0.61,0.19,9.27
284218557,-0.007600,0.007848,0.006091,0.30,0.29,9.87
284219567,-0.013992,0.021696,0.001830,-0.31,0.83,10.14
284220577,-0.001209,0.003587,0.006091,0.48,-0.04,9.66
284221592,0.005183,0.005717,0.005026,0.46,0.19,9.87
284222599,-0.012927,0.019566,0.000765,-0.29,0.71,10.35
284223615,-0.002274,0.001456,0.001830,0.29,-0.36,10.09
284224621,0.007314,0.001456,-0.001366,0.54,0.00,10.02
284225636,-0.013992,0.017435,-0.001366,-0.30,0.31,10.51
284226650,-0.008666,0.001456,0.005026,0.22,-0.80,10.47
284227655,-0.004404,0.000391,0.005026,0.65,-0.29,10.12
284228669,-0.025710,0.020631,0.001830,-0.29,-0.14,10.30
284229679,-0.013992,0.004652,0.006091,0.09,-1.14,10.49
284230689,0.003053,-0.000675,0.007156,0.54,-0.56,10.29
284231697,-0.016123,0.022762,0.003961,-0.31,-0.56,10.23
284232703,-0.005470,0.008913,0.008222,-0.09,-1.45,10.38
284233710,0.020097,0.000391,0.009287,0.32,-0.86,10.18
284234737,0.000922,0.023827,0.007156,-0.40,-0.87,10.12
284235738,-0.005470,0.012109,0.008222,-0.22,-1.66,10.14
284236744,0.012640,0.001456,0.003961,0.31,-1.08,9.78
284237750,-0.006535,0.022762,-0.001366,-0.23,-0.87,9.98
284238762,-0.022514,0.014239,-0.001366,-0.29,-1.60,9.86
284239766,-0.009731,-0.000675,-0.000301,0.17,-1.13,9.39
284240782,-0.022514,0.018501,-0.003496,-0.20,-0.58,10.04
284241790,-0.032102,0.013174,0.002895,-0.32,-1.38,9.78
284242802,-0.015057,-0.001740,0.005026,0.15,-1.15,8.95
284243808,-0.020384,0.016370,0.000765,-0.27,-0.27,9.98
284244823,-0.025710,0.012109,0.002895,-0.37,-0.98,9.90
284245831,-0.007600,-0.004936,0.007156,0.32,-0.88,8.77
284246838,-0.005470,0.013174,0.002895,-0.24,0.18,9.82
284247846,-0.012927,0.012109,0.008222,-0.45,-0.40,9.95
284248858,0.001987,-0.009197,0.009287,0.34,-0.56,8.73
284249866,0.008379,0.003587,0.000765,-0.37,0.23,9.47
284250878,-0.004404,0.006782,0.000765,-0.50,0.13,9.76
284251886,0.003053,-0.010262,0.003961,0.56,0.02,8.93
284252898,0.013705,-0.000675,-0.004562,-0.28,0.29,9.46
284253906,0.000922,0.005717,-0.002431,-0.45,0.61,9.72
284254923,0.005183,-0.012393,-0.001366,0.71,0.35,9.02
284255931,0.017966,-0.006001,-0.006692,-0.06,0.20,9.54
284256938,0.000922,0.003587,-0.000301,-0.31,0.83,9.77
284257946,-0.008666,-0.012393,0.008222,0.75,0.38,9.14
284258958,0.001987,-0.010262,0.002895,0.12,0.12,9.72
284259966,-0.000143,0.002521,0.003961,-0.32,0.90,9.94
284260978,-0.002274,-0.015588,0.009287,0.72,0.22,9.31
284261986,0.014771,-0.016654,0.009287,0.46,0.04,9.79
284262998,0.012640,0.000391,0.008222,-0.31,0.83,10.26
284264006,0.008379,-0.014523,0.007156,0.54,-0.12,9.74
284265023,0.025423,-0.016654,-0.002431,0.62,-0.12,9.86
284266031,0.013705,0.004652,-0.003496,-0.47,0.57,10.46
284267038,-0.009731,-0.011327,-0.000301,0.30,-0.52,10.26
284268046,0.001987,-0.018784,-0.004562,0.73,-0.28,10.03
284269058,-0.005470,0.003587,-0.004562,-0.43,0.17,10.42
284270066,-0.023580,-0.010262,0.001830,0.20,-1.00,10.55
284271078,-0.007600,-0.027307,-0.000301,0.76,-0.38,10.27
284272086,-0.006535,-0.004936,-0.001366,-0.43,-0.26,10.27
284273098,-0.011861,-0.010262,0.006091,0.02,-1.43,10.58
284274106,-0.004404,-0.027307,0.008222,0.60,-0.67,10.40
284275123,-0.006535,-0.008131,0.007156,-0.49,-0.75,10.16
284276131,-0.004404,-0.004936,0.009287,-0.16,-1.75,10.31
284277138,0.005183,-0.013458,0.007156,0.44,-0.86,10.00
284278146,0.005183,0.002521,0.003961,-0.43,-0.76,10.09
284279158,0.004118,0.002521,0.003961,-0.32,-1.81,10.11
284280166,0.003053,-0.010262,0.002895,0.35,-1.03,9.56
284281178,-0.007600,0.001456,0.000765,-0.26,-0.59,10.12
284282186,-0.009731,0.002521,0.002895,-0.32,-1.65,9.94
284283198,-0.007600,-0.006001,0.001830,0.34,-1.09,9.13
284284206,-0.017188,0.002521,0.001830,-0.30,-0.37,10.04
284285223,-0.016123,0.000391,0.000765,-0.46,-1.36,9.81
284286231,-0.001209,-0.009197,-0.000301,0.34,-0.93,8.79
284287238,-0.012927,0.005717,-0.000301,-0.25,0.07,9.98
284288246,-0.024645,0.005717,0.002895,-0.50,-0.81,9.91
284289258,-0.011861,-0.006001,0.003961,0.36,-0.69,8.68
284290266,-0.012927,0.014239,-0.000301,-0.33,0.31,9.70
284291278,-0.010796,0.017435,0.000765,-0.55,-0.15,9.87
284292286,0.012640,-0.003870,0.002895,0.46,-0.24,8.80
284293298,-0.000143,0.013174,-0.004562,-0.29,0.32,9.51
284294306,-0.011861,0.021696,-0.003496,-0.46,0.38,9.86
284295323,0.013705,0.002521,-0.000301,0.66,0.26,9.01
284296331,0.006248,0.014239,-0.006692,-0.13,0.34,9.39
284297338,-0.023580,0.019566,-0.008823,-0.40,0.78,9.60
284298346,-0.009731,-0.004936,-0.003496,0.73,0.44,9.00
284299358,0.007314,0.000391,-0.009888,0.02,0.24,9.66
284300366,-0.006535,0.008913,-0.007757,-0.39,0.93,9.86
284301378,0.000922,-0.011327,-0.001366,0.69,0.43,9.18
284302386,0.016901,-0.009197,-0.003496,0.22,0.18,9.80
284303398,0.004118,0.003587,-0.002431,-0.41,0.94,10.21
284304406,0.001987,-0.017719,0.001830,0.59,0.05,9.57
284305423,0.025423,-0.019850,-0.001366,0.56,0.00,9.83
284306431,0.021162,0.002521,0.000765,-0.41,0.72,10.48
284307438,0.003053,-0.012393,0.006091,0.36,-0.46,10.16
284308446,0.000922,-0.019850,0.003961,0.68,-0.20,9.89
284309458,-0.009731,0.002521,0.000765,-0.43,0.28,10.38
284310466,-0.009731,-0.003870,0.001830,0.24,-0.89,10.52
284311478,-0.008666,-0.009197,-0.000301,0.73,-0.35,10.12
284312500,-0.016123,0.008913,-0.005627,-0.44,-0.19,10.25
284313517,-0.011861,0.000391,-0.002431,0.08,-1.37,10.57
284314506,-0.016123,-0.007066,-0.001366,0.60,-0.54,10.35
284315523,-0.036363,0.013174,-0.003496,-0.46,-0.57,10.23
284316531,-0.027841,0.002521,-0.000301,-0.11,-1.68,10.44
284317538,-0.019318,0.021696,-0.001366,-0.41,-0.86,10.14
284318546,-0.012927,0.014239,0.002895,-0.25,-1.83,9.96
284319576,0.012640,0.001456,0.000765,0.37,-1.06,9.54
284320566,-0.000143,0.025958,-0.006692,-0.28,-0.67,10.06
284321578,-0.006535,0.018501,-0.003496,-0.37,-1.69,9.86
284322591,0.014771,0.000391,-0.003496,0.25,-1.15,9.07
284323601,0.008379,0.018501,-0.010953,-0.28,-0.39,10.10
284324615,-0.011861,0.016370,-0.006692,-0.38,-1.43,9.89
284325628,0.000922,-0.006001,-0.004562,0.38,-1.08,8.73
284326635,0.009444,-0.001740,-0.007757,-0.28,-0.02,10.04
284327648,-0.005470,0.001456,-0.000301,-0.49,-0.86,10.01
284328655,-0.000143,-0.015588,0.005026,0.41,-0.77,8.64
284329669,0.010509,-0.013458,0.002895,-0.31,0.29,9.67
284330675,0.001987,-0.008131,0.006091,-0.58,-0.13,9.89
284331697,-0.000143,-0.018784,0.009287,0.46,-0.25,8.79
284332702,0.016901,-0.017719,0.008222,-0.33,0.31,9.44
284333709,0.021162,-0.008131,0.008222,-0.53,0.37,9.72
284334719,0.014771,-0.011327,0.008222,0.61,0.30,8.98
284335723,0.000922,-0.001740,0.006091,-0.11,0.42,9.47
284336751,-0.009731,0.005717,0.003961,-0.31,0.75,9.69
284337767,-0.000143,-0.006001,0.003961,0.72,0.41,9.14
284338778,-0.007600,0.003587,-0.000301,0.05,0.34,9.60
284339773,-0.023580,0.013174,-0.003496,-0.26,0.86,9.72
284340777,-0.004404,-0.003870,-0.004562,0.71,0.35,9.27
284341813,-0.007600,0.007848,-0.007757,0.31,0.35,9.83
284342811,-0.034232,0.023827,-0.006692,-0.26,0.81,10.07
284343807,-0.019318,0.002521,0.001830,0.51,0.00,9.58
284344841,-0.001209,0.003587,-0.002431,0.49,0.19,9.81
284345838,-0.013992,0.023827,-0.005627,-0.25,0.57,10.25
284346851,-0.005470,0.006782,-0.001366,0.34,-0.34,10.18
284347838,0.025423,-0.004936,-0.004562,0.56,-0.02,10.06
284348847,0.020097,0.006782,-0.002431,-0.26,0.17,10.38
284349857,-0.003339,-0.001740,0.003961,0.21,-0.76,10.47
284350881,0.006248,-0.016654,0.001830,0.59,-0.38,10.26
284351877,0.029685,-0.016654,0.003961,-0.22,-0.32,10.45
284352887,0.019032,-0.016654,0.006091,0.08,-1.16,10.59
284353897,-0.003339,-0.014523,0.003961,0.41,-0.80,10.44
284354913,-0.011861,-0.006001,0.001830,-0.29,-0.85,10.33
284355947,-0.002274,-0.009197,0.001830,-0.10,-1.52,10.42
284356934,0.003053,-0.002805,0.000765,0.28,-1.15,10.19
284357952,-0.025710,0.027023,-0.003496,-0.26,-1.10,10.09
284358966,-0.025710,0.015305,-0.000301,-0.22,-1.80,10.06
284359960,0.010509,-0.001740,-0.003496,0.21,-1.30,9.68
284360970,0.013705,0.014239,-0.006692,-0.21,-0.78,10.05
284361980,-0.002274,0.008913,-0.000301,-0.34,-1.66,9.80
284362995,0.003053,-0.012393,0.003961,0.14,-1.35,8.85
284364012,0.024358,-0.013458,0.003961,-0.27,-0.38,9.95
284365015,0.023293,-0.011327,0.007156,-0.37,-1.27,9.98
284366029,-0.004404,-0.011327,0.005026,0.33,-1.22,8.46
284367027,-0.042755,0.015305,-0.007757,-0.34,0.13,9.79
284368037,-0.035298,0.014239,-0.010953,-0.50,-0.49,10.18
284369047,0.010509,-0.003870,-0.006692,0.55,-0.75,8.53
284370057,0.010509,0.012109,-0.007757,-0.41,0.25,9.46
284371085,-0.016123,0.012109,-0.001366,-0.59,0.25,9.99
284372077,-0.002274,-0.020915,0.002895,0.71,0.06,8.78
284373087,0.027554,-0.012393,-0.001366,-0.34,0.39,9.46
284374097,0.027554,0.003587,0.000765,-0.58,0.84,9.80
284375113,0.009444,-0.011327,0.009287,0.88,0.55,8.87
284376131,-0.017188,0.002521,0.003961,-0.01,0.39,9.51
284377130,-0.027841,0.019566,-0.003496,-0.48,1.10,9.78
284378140,0.007314,0.002521,-0.006692,0.81,0.55,9.09
284379150,0.021162,0.011044,-0.016280,0.25,0.35,9.66
284380160,-0.011861,0.030219,-0.014149,-0.39,1.07,9.93
284381170,-0.016123,0.003587,-0.007757,0.62,0.11,9.53
284382180,0.015836,-0.015588,-0.006692,0.48,0.30,9.87
284383190,0.025423,-0.009197,-0.000301,-0.33,0.78,10.22
284384200,0.012640,-0.016654,0.009287,0.37,-0.43,9.95
284385215,-0.007600,-0.010262,0.009287,0.54,0.05,9.94
284386229,-0.028906,0.011044,0.007156,-0.36,0.26,10.41
284387227,-0.004404,0.002521,0.008222,0.23,-0.84,10.43
284388237,0.015836,0.007848,0.001830,0.65,-0.25,10.30
