time_us,gyro_x_rad_s,gyro_y_rad_s,gyro_z_rad_s,acc_x_m_s2,acc_y_m_s2,acc_z_m_s2
20317242,-0.000359,-0.000676,-0.000940,0.03,-0.29,9.74
20318118,0.001771,-0.000676,-0.003071,0.02,-0.28,9.73
20318999,0.000706,-0.000676,-0.005201,0.04,-0.30,9.80
20320013,-0.002490,-0.002806,-0.006266,0.05,-0.32,9.83
20321021,-0.002490,-0.002806,-0.005201,0.02,-0.29,9.82
20322026,-0.001425,-0.000676,-0.003071,0.02,-0.31,9.87
20323059,0.000706,0.000390,-0.002005,0.04,-0.33,9.88
20324050,0.002837,-0.000676,-0.000940,0.03,-0.33,9.86
20325053,0.003902,-0.000676,0.001190,0.01,-0.30,9.86
20326065,0.001771,0.001455,0.001190,0.01,-0.30,9.85
20327076,-0.000359,0.002520,0.001190,0.02,-0.28,9.85
20328087,-0.001425,0.001455,0.001190,0.01,-0.28,9.78
20329113,-0.001425,0.002520,0.000125,0.01,-0.25,9.81
20330104,0.000706,0.001455,-0.002005,0.03,-0.26,9.86
20331107,0.000706,0.001455,-0.000940,0.02,-0.31,9.85
20332124,-0.001425,0.001455,0.001190,-0.01,-0.30,9.85
20333143,-0.003555,0.001455,0.002256,0.02,-0.30,9.83
20334146,-0.002490,-0.000676,0.000125,0.03,-0.32,9.85
20335148,-0.001425,-0.001741,0.000125,0.03,-0.35,9.84
20336157,-0.001425,-0.001741,-0.000940,0.02,-0.31,9.82
20337165,-0.001425,-0.000676,-0.003071,0.00,-0.29,9.87
20338175,-0.000359,0.000390,-0.003071,0.00,-0.30,9.86
20339211,0.000706,0.001455,-0.002005,0.00,-0.29,9.80
20340201,-0.000359,0.001455,0.000125,0.00,-0.28,9.79
20341208,-0.000359,-0.000676,0.000125,0.02,-0.31,9.83
20342218,0.001771,-0.000676,0.000125,0.03,-0.32,9.88
20343240,0.001771,0.000390,0.000125,0.03,-0.29,9.85
20344241,0.001771,0.000390,0.001190,0.04,-0.30,9.84
20345247,0.002837,-0.001741,0.001190,0.02,-0.34,9.81
20346257,0.003902,-0.001741,0.001190,-0.01,-0.31,9.80
20347267,0.003902,0.000390,0.001190,0.00,-0.27,9.86
20348277,0.001771,0.001455,0.002256,0.00,-0.30,9.84
20349309,0.000706,0.003585,0.002256,-0.03,-0.31,9.78
20350300,0.000706,0.003585,0.001190,0.00,-0.30,9.81
20351307,0.002837,0.000390,0.000125,0.03,-0.30,9.82
20352317,0.002837,-0.002806,-0.002005,0.01,-0.31,9.82
20353338,0.000706,-0.001741,-0.000940,0.01,-0.31,9.85
20354342,-0.001425,0.001455,0.000125,0.01,-0.32,9.88
20355345,-0.002490,0.000390,0.002256,0.01,-0.31,9.89
20356355,-0.001425,0.000390,0.002256,-0.01,-0.29,9.88
20357365,-0.000359,0.000390,0.002256,-0.01,-0.32,9.88
20358408,0.000684,0.000402,0.002254,0.00,-0.32,9.84
20359411,-0.000381,0.001467,0.004384,0.01,-0.31,9.80
20360401,-0.001446,0.001467,0.004384,0.04,-0.33,9.78
20361408,-0.002512,-0.000664,0.003319,0.01,-0.34,9.76
20362418,-0.001446,-0.003859,0.001188,-0.02,-0.32,9.77
20363440,-0.001446,-0.002794,0.001188,0.00,-0.33,9.81
20364441,-0.001446,0.000402,0.001188,-0.01,-0.32,9.82
20365447,0.000684,0.001467,0.002254,-0.01,-0.29,9.80
20366457,0.000684,0.003598,0.001188,0.02,-0.28,9.77
20367467,0.001749,0.002532,0.000123,0.01,-0.29,9.82
20368499,0.003880,0.002532,0.000123,0.00,-0.32,9.89
20369495,0.002815,0.002532,0.000123,0.00,-0.30,9.84
20370497,0.000684,0.001467,0.001188,0.01,-0.28,9.85
20371507,-0.001446,0.001467,0.001188,0.05,-0.26,9.85
20372517,-0.001446,0.000402,0.000123,0.03,-0.27,9.81
20373538,-0.001446,-0.002794,0.001188,0.00,-0.31,9.81
20374544,-0.000381,-0.002794,0.001188,0.00,-0.31,9.78
20375545,-0.000381,-0.000664,0.001188,-0.01,-0.29,9.80
20376555,-0.000381,0.002532,-0.000942,-0.03,-0.32,9.85
20377565,0.000684,0.001467,0.000123,-0.03,-0.31,9.87
20378601,-0.001446,-0.000664,0.000123,-0.02,-0.28,9.85
20379597,-0.002512,-0.002794,0.002254,-0.01,-0.26,9.83
20380598,-0.001446,-0.000664,0.003319,0.01,-0.25,9.83
20381608,-0.000381,-0.000664,0.002254,0.01,-0.27,9.81
20382618,-0.000381,-0.001729,-0.000942,0.03,-0.27,9.81
20383640,0.000684,-0.002794,-0.002007,0.00,-0.27,9.80
20384641,0.000684,-0.003859,-0.002007,0.00,-0.26,9.84
20385647,-0.000381,-0.001729,-0.000942,-0.01,-0.27,9.86
20386657,-0.001446,0.000402,0.000123,0.00,-0.30,9.83
20387667,-0.003577,0.000402,0.002254,0.04,-0.30,9.85
20388698,-0.003577,-0.000664,0.002254,0.02,-0.30,9.83
20389696,-0.001446,-0.000664,0.000123,0.02,-0.31,9.81
20390697,-0.000381,0.000402,-0.000942,0.00,-0.33,9.82
20391707,0.000684,0.001467,-0.002007,0.00,-0.33,9.81
20392717,0.000684,-0.000664,-0.002007,-0.01,-0.31,9.82
20393738,0.000684,-0.001729,0.001188,0.01,-0.30,9.82
20394742,0.002815,-0.000664,0.003319,0.03,-0.28,9.83
20395745,0.002815,0.000402,0.003319,0.03,-0.27,9.85
20396755,0.002815,0.001467,0.001188,0.05,-0.29,9.83
20397765,0.000684,0.000402,-0.000942,0.04,-0.31,9.84
20398803,-0.001446,0.000402,-0.000942,0.03,-0.31,9.85
20399796,-0.002512,0.002532,-0.000942,0.02,-0.30,9.86
20400798,0.002815,0.000402,0.001188,0.05,-0.34,9.82
20401808,0.004945,-0.001729,0.001188,0.03,-0.32,9.81
20402818,0.002815,-0.000664,0.000123,0.01,-0.35,9.82
20403828,0.001749,0.000402,-0.000942,0.00,-0.30,9.86
20404843,0.001749,0.000402,-0.002007,0.01,-0.30,9.83
20405848,0.002815,0.000402,-0.003073,0.04,-0.33,9.80
20406858,0.003880,0.001467,-0.004138,0.02,-0.33,9.84
20407868,0.000684,0.000402,-0.003073,0.02,-0.33,9.85
20408893,-0.002512,0.000402,-0.000942,0.04,-0.34,9.86
20409894,-0.001446,0.000402,0.000123,0.02,-0.31,9.84
20410895,-0.000381,0.000402,0.000123,0.01,-0.27,9.83
20411909,-0.001446,-0.000664,0.001188,0.01,-0.28,9.86
20412918,-0.001446,-0.001729,0.002254,0.01,-0.30,9.82
20413932,-0.000381,-0.001729,0.002254,0.03,-0.30,9.81
20414949,-0.000381,-0.002794,0.000123,0.01,-0.27,9.85
20415956,0.000684,-0.002794,-0.002007,-0.01,-0.29,9.87
20416960,0.000684,-0.000664,-0.005203,-0.03,-0.34,9.88
20417972,-0.001446,-0.000664,-0.006269,-0.03,-0.32,9.82
20419006,-0.001446,-0.002794,-0.004138,0.00,-0.31,9.80
20420005,-0.000381,-0.002794,-0.003073,0.02,-0.33,9.89
20421016,-0.000381,-0.001729,-0.000942,0.01,-0.30,9.86
20422020,-0.002512,0.000402,0.001188,0.00,-0.29,9.84
20423025,-0.004642,0.002532,0.000123,0.01,-0.30,9.87
20424043,-0.003577,0.002532,0.000123,0.01,-0.29,9.86
20425051,-0.002512,0.002532,0.000123,0.01,-0.27,9.82
20426057,-0.001446,0.002532,0.000123,0.01,-0.29,9.80
20427066,-0.002512,0.001467,0.001188,-0.01,-0.30,9.83
20428076,-0.003577,-0.001729,0.002254,0.01,-0.30,9.83
20429099,-0.003577,-0.002794,0.001188,0.02,-0.29,9.79
20430099,-0.000381,-0.000664,0.002254,0.02,-0.29,9.79
20431100,-0.000381,0.002532,0.002254,0.01,-0.30,9.78
20432113,-0.001446,0.003598,0.001188,-0.01,-0.30,9.80
20433116,-0.000381,-0.000664,0.000123,0.00,-0.28,9.81
20434130,0.000684,-0.001729,0.001188,0.02,-0.27,9.84
20435146,-0.000381,-0.001729,0.001188,0.01,-0.28,9.88
20436148,-0.001446,-0.002794,0.000123,0.01,-0.30,9.89
20437157,-0.001446,-0.000664,0.000123,0.01,-0.33,9.88
20438165,-0.003577,0.000402,0.001188,0.00,-0.37,9.84
20439198,-0.004642,0.001467,0.002254,0.00,-0.34,9.82
20440196,-0.003577,0.000402,0.000123,0.01,-0.31,9.83
20441198,-0.001446,0.000402,-0.002007,0.01,-0.32,9.80
20442208,0.001749,0.001467,-0.003073,0.01,-0.31,9.81
20443218,0.003880,0.000402,-0.002007,0.01,-0.33,9.81
20444228,0.002815,-0.001729,-0.002007,0.02,-0.34,9.82
20445243,-0.000381,0.000402,-0.002007,0.04,-0.29,9.84
20446248,-0.002512,0.002532,0.000123,0.01,-0.28,9.84
20447258,-0.003577,0.000402,0.002254,0.02,-0.29,9.86
20448268,-0.004642,0.000402,0.001188,0.02,-0.28,9.83
20449293,-0.003577,-0.001729,-0.000942,0.02,-0.29,9.78
20450294,-0.001446,-0.002794,-0.002007,0.02,-0.33,9.81
20451295,0.000684,-0.000664,-0.003073,0.02,-0.34,9.80
20452305,0.000684,0.000402,-0.004138,0.05,-0.31,9.75
20453315,-0.000381,-0.000664,-0.002007,0.01,-0.30,9.79
20454325,-0.000381,-0.001729,0.002254,0.00,-0.31,9.78
20455344,-0.000381,0.000402,0.003319,0.00,-0.32,9.81
20456345,-0.000381,0.002532,0.001188,-0.02,-0.30,9.84
20457355,-0.001446,0.001467,-0.002007,-0.01,-0.28,9.79
20458365,-0.000381,-0.001729,-0.003073,0.03,-0.28,9.82
20459397,0.001749,-0.001729,0.000123,0.04,-0.30,9.85
20460397,0.001749,0.000402,0.001188,0.03,-0.31,9.81
20461398,-0.000381,0.001467,0.001188,0.03,-0.32,9.83
20462408,-0.000381,-0.000664,0.000123,0.02,-0.30,9.87
20463418,-0.000381,-0.002794,0.000123,0.01,-0.32,9.85
20464428,0.000684,-0.002794,-0.000942,0.00,-0.35,9.85
20465443,0.001749,-0.001729,0.000123,0.01,-0.33,9.82
20466448,0.000684,-0.001729,0.001188,0.00,-0.28,9.80
20467458,-0.001446,0.000402,0.001188,0.00,-0.25,9.84
20468482,-0.003577,0.001467,-0.000942,0.02,-0.28,9.84
20469479,-0.003577,0.001467,-0.002007,0.01,-0.31,9.86
20470491,-0.001446,0.002532,-0.002007,0.01,-0.34,9.88
20471495,-0.000381,0.000402,-0.002007,0.00,-0.31,9.85
20472505,-0.001446,-0.002794,-0.000942,-0.02,-0.28,9.82
20473515,-0.002512,-0.002794,0.001188,0.04,-0.28,9.81
20474525,-0.002512,-0.000664,0.001188,0.06,-0.29,9.82
20475542,-0.001446,0.001467,0.001188,0.02,-0.30,9.86
20476545,-0.000381,0.001467,0.000123,0.00,-0.29,9.89
20477555,-0.001446,0.000402,-0.000942,0.02,-0.30,9.87
20478588,-0.001446,0.001467,0.001188,0.03,-0.30,9.83
20479581,-0.000381,0.001467,0.001188,0.04,-0.31,9.86
20480592,-0.000381,0.001467,-0.000942,0.02,-0.31,9.88
20481598,-0.000381,-0.000664,-0.000942,-0.01,-0.30,9.83
20482608,0.000684,-0.000664,0.000123,0.00,-0.28,9.81
20483618,-0.000381,-0.000664,-0.000942,0.00,-0.31,9.78
20484628,-0.002512,-0.002794,-0.002007,0.02,-0.32,9.78
20485643,-0.003577,-0.000664,-0.003073,0.02,-0.28,9.79
20486648,-0.001446,0.000402,-0.002007,0.02,-0.30,9.81
20487690,0.000756,0.002546,-0.002003,0.00,-0.32,9.87
20488683,0.001821,0.002546,-0.003068,0.00,-0.33,9.89
20489713,0.000756,0.000416,-0.002003,0.02,-0.31,9.86
20490690,0.000756,-0.000650,-0.000938,0.02,-0.32,9.83
20491695,0.000756,-0.000650,-0.000938,0.01,-0.34,9.82
20492705,0.000756,0.000416,-0.000938,0.01,-0.33,9.79
20493715,0.000756,-0.000650,0.001193,0.01,-0.30,9.80
20494731,-0.001375,-0.002780,0.001193,0.00,-0.30,9.82
20495744,-0.000309,-0.003846,-0.000938,-0.01,-0.32,9.81
20496745,0.001821,-0.003846,0.000127,0.00,-0.29,9.81
20497755,0.001821,-0.003846,0.000127,0.02,-0.28,9.83
20498787,-0.000309,-0.000650,0.000127,0.01,-0.29,9.85
20499781,-0.001375,0.003611,0.001193,0.00,-0.32,9.90
20500794,0.000756,0.004677,0.000127,0.02,-0.29,9.83
20501798,0.001821,0.000416,0.001193,0.04,-0.29,9.89
20502808,0.000756,-0.001715,0.001193,0.06,-0.30,9.87
20503818,-0.000309,-0.001715,0.000127,0.01,-0.30,9.81
20504828,-0.000309,-0.001715,0.000127,0.00,-0.30,9.83
20505843,0.001821,-0.001715,-0.002003,0.01,-0.32,9.86
20506848,0.001821,-0.002780,-0.002003,-0.02,-0.31,9.88
20507858,0.001821,-0.002780,0.000127,-0.02,-0.31,9.87
20508882,0.000756,-0.002780,0.001193,0.02,-0.31,9.83
20509879,0.002887,-0.001715,0.000127,0.02,-0.29,9.81
20510891,0.005017,-0.000650,0.000127,0.01,-0.32,9.80
20511895,0.002887,0.000416,0.001193,0.02,-0.34,9.82
20512910,0.000756,0.000416,0.000127,0.02,-0.29,9.84
20513917,0.000756,-0.001715,-0.000938,0.01,-0.29,9.83
20514931,0.000756,-0.001715,-0.000938,-0.01,-0.31,9.81
20515947,-0.000309,-0.000650,-0.000938,-0.01,-0.31,9.84
20516957,-0.001375,-0.000650,-0.002003,0.01,-0.32,9.87
20517966,-0.000309,-0.000650,-0.002003,0.00,-0.32,9.87
20518998,-0.000309,-0.000650,-0.003068,0.01,-0.33,9.84
20519996,-0.001375,-0.000650,-0.003068,0.01,-0.32,9.79
20521046,-0.002440,-0.002780,-0.002003,0.02,-0.33,9.82
20522013,-0.002440,-0.005976,-0.002003,0.03,-0.32,9.84
20523031,-0.001375,-0.007041,-0.003068,0.03,-0.32,9.83
20524030,-0.000309,-0.003846,-0.004134,0.01,-0.34,9.84
20525035,0.000756,-0.000650,-0.004134,0.04,-0.32,9.83
20526051,-0.000309,0.000416,-0.004134,0.06,-0.31,9.81
20527058,-0.001375,-0.000650,-0.000938,0.04,-0.33,9.81
20528066,-0.001375,0.001481,0.002258,0.00,-0.31,9.83
20529089,-0.000309,0.002546,0.001193,0.01,-0.29,9.84
20530088,-0.000309,0.002546,0.001193,0.03,-0.30,9.85
20531095,-0.002440,0.000416,0.001193,0.03,-0.26,9.86
20532105,-0.003505,-0.002780,0.000127,0.02,-0.26,9.84
20533106,-0.002440,-0.004911,0.000127,0.01,-0.30,9.84
20534116,-0.000309,-0.004911,0.000127,0.00,-0.32,9.86
20535130,-0.001375,-0.001715,0.000127,-0.02,-0.29,9.86
20536146,-0.002440,0.000416,0.000127,-0.02,-0.29,9.82
20537148,-0.002440,-0.000650,0.000127,0.02,-0.33,9.79
20538157,0.000756,-0.000650,0.000127,0.03,-0.32,9.78
20539188,0.002887,-0.000650,-0.000938,0.04,-0.32,9.82
20540181,0.000756,-0.000650,-0.000938,0.06,-0.33,9.84
20541192,-0.003505,-0.000650,0.001193,0.02,-0.31,9.78
20542198,-0.004570,-0.001715,0.002258,0.01,-0.28,9.80
20543208,-0.004570,-0.000650,0.002258,0.02,-0.28,9.82
20544218,-0.002440,0.001481,0.001193,0.04,-0.28,9.80
20545228,-0.001375,0.001481,-0.000938,0.03,-0.28,9.81
20546243,-0.000309,0.000416,-0.000938,0.00,-0.30,9.83
20547248,-0.000309,-0.000650,0.001193,0.00,-0.32,9.83
20548258,-0.001375,-0.003846,0.002258,0.03,-0.30,9.79
20549283,-0.001375,-0.003846,0.002258,0.02,-0.29,9.79
20550279,-0.000309,-0.001715,0.002258,0.03,-0.30,9.81
20551290,0.000756,0.000416,0.002258,0.04,-0.30,9.77
20552295,0.000756,0.002546,0.000127,0.04,-0.32,9.79
20553305,0.000756,0.001481,0.001193,0.06,-0.31,9.84
20554315,-0.000309,-0.000650,0.003323,0.03,-0.29,9.82
20555325,-0.000309,-0.000650,0.002258,-0.01,-0.32,9.83
20556344,0.000756,0.000416,0.000127,0.02,-0.31,9.84
20557345,0.000756,0.001481,0.000127,0.02,-0.30,9.82
20558355,0.000756,0.002546,0.001193,0.01,-0.29,9.83
20559387,-0.000309,0.002546,0.001193,0.01,-0.30,9.87
20560381,-0.002440,0.001481,0.000127,0.03,-0.30,9.93
20561394,-0.001375,-0.001715,-0.000938,0.04,-0.29,9.90
20562398,-0.001375,-0.002780,-0.002003,0.02,-0.31,9.82
20563408,-0.000309,-0.000650,-0.000938,0.00,-0.31,9.84
20564418,0.000756,0.000416,-0.000938,0.03,-0.29,9.78
20565428,0.000756,0.001481,0.001193,0.03,-0.30,9.74
20566443,-0.000309,0.001481,0.001193,0.01,-0.30,9.76
20567448,-0.000309,0.000416,0.000127,0.01,-0.29,9.81
20568472,0.002887,0.000416,0.000127,0.02,-0.27,9.79
20569469,0.002887,-0.000650,0.000127,0.01,-0.26,9.76
20570475,-0.000309,-0.000650,-0.002003,0.04,-0.30,9.83
20571491,-0.001375,-0.000650,-0.002003,0.05,-0.31,9.86
20572495,0.001821,-0.000650,0.000127,0.01,-0.30,9.83
20573505,0.003952,0.000416,0.001193,0.01,-0.30,9.84
20574515,0.002887,0.001481,0.001193,0.02,-0.29,9.78
20575525,0.001821,0.000416,0.000127,-0.01,-0.28,9.80
20576542,-0.000309,-0.001715,0.000127,-0.01,-0.30,9.86
20577545,-0.000309,-0.001715,0.000127,0.03,-0.28,9.89
20578578,0.000756,-0.000650,0.001193,0.03,-0.27,9.85
20579571,0.000756,0.000416,0.002258,-0.01,-0.28,9.79
20580578,0.001821,0.001481,0.002258,-0.02,-0.28,9.84
20581592,0.001821,0.000416,-0.000938,-0.03,-0.29,9.87
20582598,0.001821,-0.000650,-0.002003,-0.03,-0.31,9.85
20583608,0.000756,0.000416,-0.000938,-0.01,-0.32,9.84
20584618,-0.000309,0.000416,0.001193,-0.01,-0.32,9.81
20585654,-0.000309,-0.000650,0.002258,-0.03,-0.31,9.79
20586643,0.000756,-0.000650,0.002258,0.01,-0.31,9.84
20587648,0.001821,-0.000650,0.000127,0.02,-0.33,9.85
20588673,-0.001375,-0.000650,0.000127,0.00,-0.33,9.83
20589669,-0.002440,-0.001715,0.000127,-0.01,-0.35,9.84
20590675,-0.002440,-0.002780,-0.000938,-0.01,-0.34,9.80
20591690,-0.002440,-0.001715,-0.000938,0.02,-0.31,9.77
20592725,-0.002440,-0.002780,0.000127,0.05,-0.32,9.80
20593705,-0.000309,-0.003846,-0.000938,0.04,-0.31,9.86
20594715,0.002887,-0.002780,-0.002003,0.02,-0.31,9.86
20595725,0.001821,-0.000650,-0.002003,0.03,-0.28,9.84
20596744,-0.000309,-0.001715,-0.000938,0.04,-0.29,9.82
20597745,-0.001375,-0.002780,-0.002003,0.02,-0.31,9.84
20598777,-0.002440,-0.003846,-0.002003,0.02,-0.32,9.86
20599771,-0.001375,0.000416,-0.000938,0.03,-0.33,9.84
20600778,0.000756,0.002546,-0.000938,0.02,-0.30,9.86
20601794,0.000756,0.000416,-0.002003,0.03,-0.32,9.76
20602798,-0.001375,-0.000650,-0.003068,0.02,-0.30,9.86
20603808,-0.003505,-0.001715,-0.003068,-0.04,-0.28,9.87
20604818,-0.003505,-0.002780,-0.002003,-0.03,-0.29,9.85
20605828,-0.003505,-0.002780,-0.000938,0.02,-0.29,9.86
20606843,-0.002440,0.000416,-0.000938,0.02,-0.27,9.82
20607848,-0.001375,0.001481,-0.002003,-0.01,-0.27,9.84
20608872,0.000756,0.001481,-0.002003,0.00,-0.28,9.85
20609869,0.001821,0.000416,0.000127,0.00,-0.31,9.80
20610875,0.001821,-0.001715,0.003323,0.02,-0.33,9.81
20611891,-0.000309,-0.001715,0.006519,0.04,-0.32,9.80
20612895,-0.000309,0.001481,0.007584,0.03,-0.30,9.79
20613911,0.000756,0.002546,0.003323,-0.01,-0.29,9.82
20614918,0.001821,0.001481,-0.000938,-0.02,-0.29,9.80
20615932,0.003952,-0.002780,-0.000938,0.01,-0.32,9.81
20616982,0.003957,-0.004824,0.001203,0.00,-0.32,9.83
20617953,0.001826,-0.002693,-0.000927,-0.01,-0.32,9.82
20618984,-0.000304,-0.000563,-0.004123,0.00,-0.32,9.82
20619978,-0.001369,-0.001628,-0.004123,0.01,-0.30,9.83
20620995,-0.000304,-0.001628,-0.000927,0.02,-0.29,9.83
20621997,0.001826,0.000503,0.002269,0.02,-0.31,9.81
20623007,0.000761,0.000503,0.002269,0.00,-0.31,9.79
20624019,-0.000304,-0.000563,0.000138,-0.01,-0.31,9.85
20625027,0.000761,-0.003758,-0.003058,-0.01,-0.33,9.87
20626043,0.000761,-0.002693,-0.005188,0.01,-0.32,9.85
20627051,-0.000304,0.000503,-0.003058,0.03,-0.28,9.86
20628057,-0.001369,0.000503,-0.000927,0.02,-0.27,9.87
20629084,-0.002435,0.000503,0.001203,0.02,-0.31,9.82
20630077,-0.001369,-0.002693,0.002269,0.03,-0.32,9.79
20631083,-0.001369,-0.002693,0.001203,0.01,-0.31,9.79
20632100,-0.002435,-0.001628,0.001203,-0.01,-0.29,9.77
20633100,-0.002435,-0.001628,0.001203,-0.03,-0.29,9.79
20634106,-0.002435,-0.001628,-0.000927,-0.03,-0.29,9.80
20635116,-0.001369,0.000503,-0.000927,0.00,-0.26,9.80
20636130,-0.000304,0.001568,-0.000927,0.02,-0.26,9.81
20637147,0.000761,0.001568,0.000138,-0.01,-0.28,9.83
20638148,0.000761,0.000503,0.001203,-0.03,-0.30,9.89
20639178,-0.000304,-0.001628,0.000138,-0.02,-0.32,9.90
20640171,-0.000304,-0.003758,-0.000927,-0.01,-0.31,9.89
20641178,0.001826,-0.004824,-0.001992,0.03,-0.28,9.86
20642194,0.002892,-0.005889,-0.001992,0.03,-0.26,9.82
20643198,0.002892,-0.004824,0.000138,0.00,-0.27,9.80
20644208,0.000761,-0.001628,0.001203,0.01,-0.32,9.82
20645218,-0.001369,0.000503,0.000138,0.01,-0.33,9.82
20646228,-0.001369,0.000503,-0.000927,-0.01,-0.34,9.86
20647243,-0.001369,0.000503,-0.001992,-0.01,-0.30,9.84
20648248,-0.001369,0.001568,-0.000927,0.01,-0.27,9.82
20649272,-0.000304,0.002633,-0.000927,0.03,-0.33,9.78
20650269,-0.000304,0.001568,0.000138,0.01,-0.31,9.73
20651275,-0.000304,-0.000563,0.000138,-0.01,-0.28,9.82
20652291,0.000761,-0.001628,0.000138,0.00,-0.31,9.84
20653295,0.002892,-0.000563,-0.000927,0.01,-0.30,9.83
20654305,0.002892,0.001568,-0.001992,0.02,-0.28,9.80
20655315,0.002892,0.000503,-0.000927,0.04,-0.31,9.73
20656325,0.002892,-0.000563,0.002269,0.03,-0.31,9.73
20657342,0.001826,-0.000563,0.001203,0.00,-0.29,9.80
20658345,0.002892,-0.000563,0.000138,0.00,-0.29,9.82
20659378,0.002892,-0.002693,-0.000927,0.03,-0.30,9.82
20660371,0.000761,-0.002693,-0.001992,0.06,-0.31,9.85
20661378,-0.003500,-0.000563,-0.003058,0.04,-0.31,9.83
20662392,-0.003500,0.001568,-0.000927,0.00,-0.31,9.78
20663398,0.001826,0.001568,0.000138,0.00,-0.31,9.83
20664408,0.006088,-0.000563,-0.001992,-0.01,-0.30,9.85
20665418,0.006088,-0.001628,-0.003058,0.00,-0.34,9.83
20666428,0.003957,-0.001628,0.000138,0.03,-0.36,9.82
20667443,0.000761,-0.002693,0.001203,0.03,-0.30,9.85
20668463,-0.001369,-0.002693,-0.001992,0.02,-0.28,9.83
20669459,-0.001369,-0.001628,-0.003058,0.03,-0.30,9.82
20670465,-0.000304,-0.000563,-0.000927,0.04,-0.30,9.81
20671475,0.000761,0.001568,0.001203,0.04,-0.29,9.80
20672490,0.000761,0.000503,0.002269,0.00,-0.25,9.86
20673495,0.000761,0.000503,0.001203,-0.01,-0.25,9.89
20674505,0.002892,-0.001628,0.001203,0.03,-0.28,9.87
20675515,0.005022,-0.000563,0.001203,0.02,-0.29,9.84
20676525,0.002892,0.001568,0.000138,0.03,-0.30,9.83
20677544,-0.000304,0.001568,-0.003058,0.04,-0.31,9.82
20678567,-0.000304,0.000503,-0.001992,0.02,-0.32,9.80
20679561,-0.000304,-0.000563,0.000138,-0.01,-0.32,9.85
20680568,0.000761,-0.000563,0.000138,-0.02,-0.32,9.89
20681578,0.000761,0.000503,0.000138,-0.02,-0.29,9.85
20682594,0.002892,0.001568,0.000138,-0.01,-0.29,9.83
20683598,0.002892,0.001568,0.001203,-0.01,-0.31,9.81
20684608,0.001826,0.001568,0.000138,0.00,-0.32,9.81
20685618,0.000761,0.002633,-0.000927,0.01,-0.32,9.81
20686628,-0.000304,0.002633,0.000138,-0.02,-0.29,9.81
20687643,0.000761,0.001568,0.001203,0.00,-0.29,9.84
20688662,0.000761,0.001568,0.002269,0.04,-0.31,9.85
20689659,0.000761,0.001568,0.000138,0.03,-0.30,9.84
20690665,0.001826,0.001568,-0.001992,0.03,-0.27,9.86
20691675,0.000761,-0.001628,-0.000927,0.02,-0.31,9.84
20692691,0.001826,-0.002693,-0.000927,0.01,-0.34,9.80
20693695,0.001826,-0.001628,-0.001992,0.02,-0.32,9.84
20694728,0.001826,-0.000563,-0.000927,0.00,-0.30,9.88
20695715,0.000761,-0.001628,0.002269,0.01,-0.31,9.83
20696725,-0.000304,-0.002693,0.003334,0.02,-0.31,9.80
20697742,0.000761,-0.003758,0.002269,0.04,-0.30,9.80
20698768,-0.000304,-0.003758,0.002269,0.02,-0.28,9.81
20699761,-0.002435,-0.001628,0.002269,0.02,-0.28,9.87
20700768,-0.002435,-0.000563,0.002269,0.02,-0.28,9.91
20701778,0.001826,0.001568,-0.001992,-0.02,-0.28,9.85
20702792,0.001826,0.002633,0.000138,0.00,-0.29,9.87
20703798,0.002892,0.001568,0.002269,0.01,-0.29,9.86
20704808,0.001826,0.001568,0.004399,-0.02,-0.29,9.81
20705818,-0.000304,0.001568,0.004399,-0.04,-0.30,9.79
20706828,-0.002435,0.000503,0.001203,-0.02,-0.29,9.83
20707843,-0.002435,0.000503,-0.000927,0.02,-0.28,9.87
20708863,-0.001369,0.001568,-0.003058,0.04,-0.29,9.87
20709859,-0.000304,0.002633,-0.004123,0.05,-0.29,9.84
20710865,0.000761,0.002633,-0.000927,0.06,-0.29,9.84
20711877,0.000761,0.001568,0.003334,0.05,-0.30,9.81
20712890,-0.000304,0.002633,0.004399,-0.02,-0.30,9.81
20713895,-0.001369,0.000503,0.002269,-0.02,-0.33,9.85
20714911,-0.001369,-0.002693,-0.000927,0.01,-0.36,9.90
20715918,-0.001369,-0.002693,-0.001992,0.00,-0.35,9.94
20716931,0.000761,-0.000563,-0.001992,0.00,-0.30,9.87
20717950,0.000761,-0.000563,0.000138,0.01,-0.28,9.81
20718977,0.000761,-0.001628,0.001203,0.02,-0.34,9.81
20719966,-0.001369,-0.003758,0.003334,0.01,-0.35,9.83
20720975,-0.002435,-0.004824,0.003334,0.01,-0.34,9.84
20721991,-0.004565,-0.002693,0.002269,0.00,-0.32,9.84
20722998,-0.003500,-0.001628,0.000138,0.00,-0.29,9.86
20724009,0.000761,-0.001628,0.000138,0.01,-0.28,9.89
20725020,0.002892,-0.001628,0.002269,0.00,-0.31,9.86
20726027,0.000761,-0.000563,0.000138,0.01,-0.31,9.84
20727039,-0.000304,0.000503,-0.001992,0.00,-0.29,9.81
20728050,0.000761,-0.000563,-0.000927,0.01,-0.28,9.74
20729074,0.001826,-0.003758,0.001203,0.02,-0.30,9.79
20730201,0.000761,-0.002693,0.002269,0.01,-0.31,9.88
20731061,-0.001369,0.002633,0.003334,0.08,-0.35,9.84
20732066,0.008218,0.010090,0.027835,0.03,-0.28,9.91
20733077,0.026328,0.007960,0.035292,-0.06,-0.25,9.87
20734078,0.022067,0.001568,0.025705,0.04,-0.29,9.87
20735084,0.011414,-0.000563,0.016117,0.02,-0.21,9.93
20736094,0.006088,-0.002693,0.015052,-0.15,-0.30,9.78
20737109,-0.001369,-0.001628,0.019313,-0.12,-0.19,9.89
20738125,-0.007761,-0.001628,0.025705,-0.01,-0.04,9.89
20739156,-0.007761,-0.004824,0.033162,0.19,-0.02,9.80
20740141,-0.005631,-0.003758,0.032097,0.46,-0.53,9.84
20741148,0.015675,-0.002693,0.017183,0.21,-1.10,9.88
20742157,0.026328,-0.004824,-0.005188,-0.35,-0.74,9.81
20743176,0.022067,-0.012281,-0.019037,-0.43,0.17,9.78
20744177,0.011414,-0.013346,-0.013711,0.24,0.05,9.72
20745188,0.013545,0.002633,-0.003058,0.52,-1.26,9.60
20746197,0.013545,0.019678,-0.010515,-0.29,-0.53,10.20
20747208,-0.018414,0.006894,-0.024363,-0.56,0.92,10.10
20748224,-0.033328,-0.017607,-0.015841,0.52,-0.97,8.94
20749246,0.030589,0.003699,-0.008384,0.54,-1.16,9.94
20750237,0.057221,0.025004,-0.016906,-0.83,1.97,10.88
20751244,-0.058895,-0.016542,-0.009449,-0.09,-1.24,8.63
20752254,-0.072743,-0.015476,0.001203,0.72,-2.11,9.80
20753272,0.055091,0.031396,-0.003058,-0.46,3.41,11.75
20754274,0.005022,-0.020803,0.006530,-0.03,-2.04,8.03
20755284,-0.059960,-0.028260,0.001203,0.60,-1.55,10.03
20756294,0.044438,0.030331,-0.005188,-0.69,2.36,10.67
20757304,0.024197,-0.021868,0.007595,-0.03,-2.69,7.96
20758321,-0.014153,-0.029325,-0.000927,0.69,1.20,11.93
20759351,0.011414,0.000503,0.005464,0.16,-0.88,8.39
20760340,0.002892,0.017547,-0.001992,-0.25,-0.08,10.46
20761348,0.017806,0.006894,-0.000927,0.04,-0.39,10.43
20762357,-0.001369,-0.032521,0.003334,0.88,-0.32,8.24
20763376,-0.004565,0.028200,0.011856,-0.86,-0.10,11.65
20764377,-0.010957,-0.020803,0.011856,0.69,-0.44,8.77
20765388,-0.032263,-0.011215,0.011856,-0.29,0.41,11.00
20766397,-0.017349,-0.017607,0.013987,-0.02,-0.99,9.75
20767408,0.047634,0.012221,0.026770,0.23,0.34,9.17
20768424,0.057221,-0.003758,0.024640,-0.49,-0.52,10.97
20769446,0.017806,-0.002693,0.022509,0.54,-0.30,7.62
20770437,0.021002,0.003699,0.012921,-0.90,-1.01,11.23
20771444,-0.010957,-0.010150,0.005464,0.51,0.62,8.68
20772454,-0.014153,-0.020803,0.001203,-0.54,-1.54,10.44
20773472,0.018871,-0.006954,0.001203,0.05,0.25,10.49
20774474,0.031654,0.012221,0.000138,0.59,-0.10,8.49
20775484,0.023132,0.009025,-0.004123,-0.47,-1.54,12.42
20776494,-0.000304,0.007960,-0.008384,0.48,0.75,6.87
20777504,-0.009892,0.009025,-0.011580,-0.20,-1.16,10.65
20778521,0.002892,0.013286,-0.015841,-0.41,-0.78,11.12
20779551,0.011414,0.016482,-0.013711,0.78,1.01,7.28
20780540,0.002892,0.006894,-0.011580,-0.36,-1.34,11.76
20781548,-0.001369,0.001568,-0.011580,-0.27,-0.63,10.73
20782557,-0.014153,-0.002693,-0.009449,0.94,1.27,7.31
20783576,-0.053568,-0.013346,-0.004123,-0.52,-1.17,11.68
20784577,-0.074874,-0.019738,0.000138,-0.45,-1.12,10.54
20785588,-0.067417,-0.020803,0.004399,0.86,1.29,6.85
20786597,-0.016283,-0.011215,0.004399,-0.22,-0.30,11.25
20787608,0.014610,-0.006954,0.007595,-0.81,-1.72,12.00
20788639,0.001826,-0.001628,0.009726,0.57,0.71,7.55
20789627,0.001826,0.001568,0.009726,0.63,0.96,9.40
20790634,-0.006696,0.000503,0.008660,-0.81,-1.61,12.81
20791644,0.013545,0.004764,0.005464,-0.36,-1.40,9.37
20792654,0.041242,0.014351,0.002269,1.03,1.16,6.58
20793672,0.042307,0.025004,-0.000927,0.40,0.69,10.66
20794674,0.015675,0.016482,-0.001992,-1.08,-2.10,12.84
20795684,-0.009892,-0.002693,-0.001992,-0.25,-1.34,8.78
20796702,-0.031197,-0.019738,-0.000927,1.17,1.58,6.95
20797704,-0.039719,-0.025064,-0.004123,0.41,0.73,10.83
20798743,-0.005631,-0.019738,-0.006254,-1.02,-1.94,13.06
20799730,0.017806,-0.005889,-0.003058,-0.58,-1.79,9.47
20800737,0.029524,-0.004824,-0.004123,1.00,0.93,6.42
20801748,0.031654,-0.004824,-0.000927,0.89,1.49,9.03
20802757,-0.018414,-0.008020,-0.003058,-1.19,-2.00,11.59
20803776,-0.029067,-0.018672,-0.003058,-0.04,-1.39,7.58
20804777,-0.028001,-0.017607,-0.004123,1.14,1.57,7.42
20805788,-0.012022,-0.000563,-0.006254,0.63,1.53,10.38
20806797,-0.000304,0.007960,-0.003058,-0.40,-0.07,12.51
20807808,0.005022,0.011156,0.006530,-1.11,-2.01,11.29
20808839,0.017806,0.005829,0.013987,-0.69,-1.92,8.27
20809827,0.018871,0.000503,0.020378,0.40,0.48,7.48
20810834,0.015675,-0.001628,0.023574,1.16,1.40,8.37
20811844,0.003957,0.011156,0.026770,0.68,0.67,11.16
20812854,-0.006696,0.020743,0.025705,-0.80,-0.47,12.41
20813872,0.000761,0.007960,0.026770,-1.39,-2.31,10.99
20814874,0.013545,0.000503,0.022509,-0.06,-2.21,9.50
20815884,0.024197,-0.003758,0.016117,0.89,0.14,7.89
20816898,0.003957,0.002633,0.018248,0.47,0.11,7.94
20817913,-0.009892,0.004764,0.013987,0.50,1.31,10.11
20818953,0.013545,-0.013346,0.008660,0.31,0.84,11.25
20819939,0.003957,-0.006954,0.003334,-0.70,-1.53,11.16
20820943,-0.006696,0.013286,-0.004123,-1.20,-2.32,9.76
20821956,-0.005631,0.014351,-0.006254,-0.54,-2.02,9.16
20822969,-0.008826,0.006894,-0.009449,0.27,-0.39,9.38
20823985,-0.000304,-0.010150,-0.013711,0.89,0.47,8.55
20824987,-0.008826,-0.010150,-0.016906,0.78,0.90,9.24
20826001,0.009283,-0.000563,-0.021168,0.27,1.72,10.44
20827007,-0.004565,-0.006954,-0.014776,0.20,0.99,11.17
20828017,0.018871,0.006894,-0.019037,-0.55,-1.00,11.57
20829049,-0.017349,-0.010150,-0.020102,-1.00,-2.00,10.50
20830033,-0.065286,-0.029325,-0.014776,-0.44,-1.72,9.76
20831044,-0.014153,-0.003758,-0.012645,-0.03,-1.43,8.65
20832056,0.096636,0.038853,-0.010515,-0.11,-1.05,7.93
20833063,0.153096,0.051636,-0.012645,0.47,0.91,9.05
20834077,0.156292,0.020743,-0.012645,0.77,0.54,8.87
20835078,0.124334,-0.001628,-0.008384,0.49,1.69,9.78
20836084,0.038046,-0.009085,0.002269,0.79,1.70,10.53
20837094,-0.030132,-0.001628,0.004399,-0.06,0.05,11.23
20838109,-0.009892,0.000503,0.006530,-0.40,-0.09,11.49
20839147,0.011414,-0.016542,0.007595,-0.14,-1.59,10.44
20840132,-0.010957,-0.002693,0.006530,-0.68,-1.80,9.40
20841139,-0.009892,0.017547,0.010791,-0.47,-1.83,9.55
20842148,0.013545,0.019678,0.009726,-0.17,-0.85,11.05
20843157,0.000761,-0.011215,0.009726,0.22,-0.90,9.56
20844176,-0.038654,-0.019738,0.012921,-0.12,-0.97,8.54
20845177,-0.054633,-0.006954,0.011856,0.28,0.58,8.37
20846188,-0.040785,-0.004824,0.015052,0.62,0.12,7.45
20847197,-0.035458,0.003699,0.016117,0.12,0.93,8.41
20848208,-0.034393,0.011156,0.015052,0.64,0.88,9.04
20849239,-0.049307,0.012221,0.009726,0.24,0.77,10.59
20850227,-0.065286,-0.006954,0.003334,0.01,1.10,11.85
20851234,-0.052503,-0.018672,-0.005188,0.22,-0.41,11.91
20852244,0.007153,0.002633,-0.009449,-0.34,-0.33,11.84
20853254,0.043372,0.000503,0.000138,-0.56,-1.30,10.54
20854272,0.006088,-0.009085,0.002269,-0.44,-1.34,10.41
20855274,-0.007761,-0.002693,-0.010515,-0.54,-0.96,9.81
20856284,-0.007761,0.003699,-0.013711,-0.53,-1.68,9.13
20857294,-0.026936,0.001568,-0.019037,-0.28,-1.09,10.11
20858304,-0.004565,-0.010150,-0.012645,0.05,-1.17,9.64
20859343,0.006088,-0.010150,-0.004123,-0.12,-0.87,9.44
20860330,-0.007761,0.010090,-0.008384,-0.05,-0.23,9.73
20861337,-0.018414,0.014351,-0.011580,0.24,-0.75,8.13
20862348,0.000761,0.006894,-0.011580,-0.39,-0.65,8.46
20863357,0.017806,-0.017607,-0.007319,0.29,0.13,8.56
20864376,0.033785,-0.030390,-0.005188,0.80,0.48,8.04
20865377,0.009283,-0.005889,-0.009449,0.00,0.23,8.91
20866388,-0.025871,0.014351,-0.007319,0.39,0.73,9.35
20867397,-0.034393,0.011156,-0.000927,0.44,0.51,10.23
20868408,-0.001369,0.004764,0.000138,0.06,0.81,11.16
20869439,0.045503,-0.002693,0.002269,0.37,0.61,10.86
20870427,0.045503,-0.006954,0.000138,0.29,0.45,10.97
20871434,0.025263,-0.001628,0.000138,0.04,0.48,10.76
20872444,-0.009892,0.002633,0.004399,-0.01,-0.20,10.44
20873454,-0.032263,-0.004824,0.006530,-0.13,0.06,10.67
20874472,-0.043981,-0.014411,0.010791,-0.08,-0.51,10.59
20875474,-0.040785,-0.010150,0.013987,-0.11,-0.65,10.38
20876484,-0.031197,-0.012281,0.013987,-0.16,-0.87,10.32
20877494,-0.026936,0.001568,0.011856,-0.19,-0.90,10.84
20878504,-0.026936,0.019678,0.007595,-0.20,-0.79,10.68
20879543,-0.039719,0.001568,0.005464,-0.11,-1.39,9.87
20880530,-0.048242,-0.010150,0.004399,-0.15,-1.09,9.48
20881537,-0.061025,0.007960,-0.000927,-0.20,-0.59,9.94
20882548,-0.055699,0.006894,-0.004123,-0.10,-1.23,9.42
20883557,-0.041850,-0.003758,-0.005188,-0.13,-1.12,8.98
20884576,-0.006696,-0.000563,-0.006254,-0.24,-0.48,9.85
20885577,0.028458,-0.008020,-0.005188,0.00,-0.97,9.57
20886588,0.031654,-0.017607,-0.004123,0.03,-0.88,8.89
20887597,0.001826,-0.002693,-0.004123,-0.36,-0.47,9.21
20888626,-0.025871,0.000503,-0.006254,0.05,-0.68,9.06
20889626,-0.024806,-0.014411,-0.010515,0.32,-0.26,8.61
20890624,0.011414,0.000503,-0.016906,-0.63,-0.53,8.77
20891634,0.023132,0.014351,-0.014776,-0.06,-0.47,9.08
20892649,0.010349,0.003699,-0.009449,0.75,0.26,8.97
20893673,0.002892,0.002633,-0.013711,-0.50,-0.33,9.22
20894673,-0.007761,0.010090,-0.010515,-0.18,-0.02,10.07
20895676,-0.002435,-0.010150,-0.005188,0.84,0.32,9.39
20896686,-0.006696,-0.012281,-0.004123,-0.31,-0.15,9.03
20897696,-0.021610,0.015417,-0.000927,-0.08,0.06,9.77
20898733,0.000761,0.009025,-0.001992,0.75,0.03,9.93
20899726,0.010349,-0.016542,-0.003058,-0.11,0.38,9.47
20900725,-0.012022,-0.000563,-0.001992,0.15,0.18,9.70
20901735,-0.009892,0.005829,-0.006254,0.69,-0.13,10.60
20902745,-0.020544,-0.004824,-0.003058,-0.10,-0.05,10.11
20903774,0.022067,0.009025,-0.004123,0.72,-0.15,10.63
20904775,0.042307,-0.014411,-0.007319,0.31,1.25,10.33
20905777,-0.000304,-0.000563,-0.005188,-0.25,-0.59,9.03
20906788,0.025263,0.028200,-0.001992,0.65,-0.28,10.68
20907797,0.021002,0.018613,-0.003058,0.28,1.59,10.94
20908831,-0.015218,0.006894,-0.000927,-0.47,-0.83,9.63
20909826,-0.013087,0.007960,-0.006254,0.55,-0.42,11.42
20910824,0.009283,-0.014411,-0.008384,0.37,1.48,11.06
20911834,-0.049307,-0.003758,-0.001992,-0.62,-1.27,9.39
20912844,-0.028001,0.014351,0.002269,0.38,-0.61,11.13
20913873,-0.003500,0.002633,0.003334,0.26,1.08,10.63
20914873,-0.018414,0.002633,0.007595,-0.67,-1.36,9.09
20915876,0.005022,0.019678,0.008660,0.31,-0.67,11.29
20916886,0.003957,-0.006954,0.007595,0.12,0.44,10.31
20917899,-0.026936,-0.017607,0.010791,-0.80,-1.53,9.42
20918940,-0.008826,0.002633,0.010791,0.07,-0.82,11.32
20919930,0.050829,-0.014411,0.000138,0.13,0.15,10.02
20920934,0.000761,-0.015476,-0.000927,-0.76,-1.44,9.34
20921939,0.006088,0.001568,-0.000927,0.01,-1.15,10.63
20922970,0.021002,-0.003758,0.000138,0.09,-0.08,9.36
20923969,-0.003500,-0.002693,0.000138,-0.80,-1.12,9.48
20924983,0.001826,0.026069,-0.001992,-0.11,-1.42,10.40
20925989,0.002892,-0.000563,-0.004123,0.18,-0.30,9.15
20926996,-0.039719,-0.026129,-0.000927,-0.71,-0.91,9.75
20928007,-0.046111,-0.002693,0.001203,-0.15,-1.46,10.05
20929042,0.015675,-0.003758,-0.003058,0.30,0.06,9.21
20930030,-0.016283,-0.005889,-0.000927,-0.64,-0.66,9.79
20931030,-0.024806,0.004764,0.002269,0.03,-1.61,9.36
20932049,0.010349,0.011156,0.005464,0.38,0.32,9.13
20933068,0.017806,0.004764,0.007595,-0.68,-0.50,9.70
20934065,0.036981,0.014351,0.009726,0.10,-1.44,9.05
20935077,0.029524,0.007960,0.012921,0.52,0.64,9.56
20936081,-0.008826,-0.010150,0.013987,-0.58,-0.53,9.51
20937087,-0.019479,-0.006954,0.015052,0.17,-1.17,8.74
20938096,0.003957,-0.014411,0.008660,0.64,0.71,9.39
20939137,-0.010957,-0.016542,0.003334,-0.64,-0.85,9.08
20940129,-0.015218,-0.003758,0.001203,0.12,-0.78,8.94
20941127,0.039111,-0.009085,-0.001992,0.92,0.79,9.16
20942136,0.031654,-0.009085,-0.003058,-0.52,-0.77,8.83
20943164,0.006088,0.015417,-0.003058,-0.03,-0.38,9.59
20944157,0.024197,0.012221,-0.001992,0.91,0.57,9.50
20945175,-0.003500,-0.003758,-0.005188,-0.43,-0.51,8.85
20946177,-0.025871,0.021808,-0.004123,-0.05,-0.13,9.84
20947188,0.003957,0.014351,-0.005188,0.72,0.18,9.99
20948197,-0.008826,-0.027195,-0.005188,-0.36,-0.03,9.19
20949231,-0.035458,-0.008019,-0.000927,-0.13,0.16,10.05
20950226,-0.005631,0.001568,-0.005188,0.60,0.01,10.30
20951224,0.010349,-0.028260,-0.009449,-0.18,0.56,9.79
20952234,-0.016283,-0.013346,-0.008384,-0.29,0.23,10.00
20953263,0.009283,0.003699,-0.010515,0.58,-0.13,10.47
20954256,0.038046,-0.004824,-0.012645,0.04,1.00,10.54
20955273,-0.005631,0.002633,-0.009449,-0.39,-0.06,9.84
20956276,0.015675,0.012221,-0.007319,0.67,-0.21,10.68
20957286,0.026328,0.005829,-0.006254,0.33,1.38,10.98
20958296,-0.004565,0.013286,-0.004123,-0.48,-0.37,9.74
20959333,0.024197,0.025004,0.003334,0.58,-0.28,10.93
20960326,0.001826,0.007960,0.006530,0.45,1.33,11.31
20961325,-0.025871,0.005829,0.009726,-0.44,-0.77,9.53
20962335,-0.000304,0.018613,0.012921,0.53,-0.47,10.82
20963364,-0.014153,-0.003758,0.017183,0.38,0.86,11.02
20964357,-0.031197,-0.003758,0.021444,-0.53,-1.10,9.31
20965375,-0.016283,0.006894,0.021444,0.39,-0.58,10.95
20966377,-0.005631,-0.016542,0.017183,0.29,0.30,10.97
20967388,-0.033328,-0.017607,0.017183,-0.58,-1.37,9.39
20968397,-0.020544,-0.012281,0.015052,0.12,-0.90,10.70
20969431,0.028458,-0.028260,0.007595,0.16,-0.04,10.21
20970426,-0.005631,-0.017607,0.001203,-0.69,-1.28,9.46
20971424,-0.006696,-0.003758,-0.005188,-0.15,-1.31,10.65
20972434,0.031654,-0.017607,-0.010515,0.10,-0.46,9.29
20973463,-0.007761,-0.000563,-0.011580,-0.75,-1.02,9.48
20974456,-0.010957,0.017547,-0.014776,-0.30,-1.58,10.34
20975473,-0.006696,0.001568,-0.019037,0.11,-0.64,8.81
20976476,-0.032263,0.000503,-0.019037,-0.83,-0.76,9.62
20977486,0.000761,0.027135,-0.017972,-0.36,-1.79,9.94
20978496,0.009283,0.016482,-0.014776,0.24,-0.19,8.90
20979533,-0.034393,-0.005889,-0.009449,-0.90,-0.56,9.72
20980526,-0.025871,0.021808,-0.006254,-0.26,-1.75,9.60
20981525,0.003957,0.011156,-0.007319,0.41,0.41,8.70
20982535,-0.019479,-0.022933,-0.004123,-1.00,-0.56,9.26
20983564,-0.030132,-0.001628,0.002269,-0.06,-1.68,9.19
20984557,0.013545,-0.004824,-0.000927,0.65,0.73,8.97
20985575,0.008218,-0.021868,0.000138,-0.81,-0.48,9.17
20986577,-0.015218,-0.002693,0.007595,0.25,-1.16,9.04
20987588,0.029524,0.000503,0.008660,0.93,0.99,9.21
20988621,0.029524,-0.008020,0.007595,-0.54,-0.43,9.09
20989607,-0.006696,0.002633,0.007595,0.40,-0.47,9.14
20990622,0.021002,0.004764,0.007595,0.98,0.82,9.29
20991624,0.016740,0.007960,0.009726,-0.36,-0.36,9.19
20992634,-0.016283,0.017547,0.012921,0.41,0.11,9.35
20993663,0.006088,0.017547,0.013987,0.94,0.62,9.63
20994656,0.013545,0.018613,0.015052,-0.20,-0.10,9.71
20995673,0.010349,0.017547,0.016117,0.27,0.37,9.61
20996676,0.018871,0.012221,0.015052,0.85,0.31,9.92
20997686,0.002892,0.006894,0.010791,-0.01,0.19,10.14
20998723,0.014610,0.012221,0.009726,-0.08,0.47,10.16
20999707,0.041242,0.009025,0.010791,0.62,0.06,10.44
21000723,0.017806,-0.003758,0.003334,0.19,0.35,10.26
21001725,-0.000304,0.009025,-0.003058,-0.42,-0.08,10.01
21002735,0.009283,0.002633,-0.008384,0.44,-0.37,10.98
21003785,-0.012022,-0.002693,-0.012645,-0.57,-0.57,9.29
21004757,-0.008826,0.014351,-0.015841,0.32,-0.65,11.22
21005775,0.012479,-0.015476,-0.023298,0.17,1.05,11.19
21006777,-0.018414,-0.009085,-0.022233,-0.75,-0.87,9.81
21007788,-0.025871,0.013286,-0.022233,0.24,-0.57,11.54
21008821,0.000761,-0.014411,-0.023298,0.16,1.04,10.91
21009807,-0.029067,-0.009085,-0.014776,-0.88,-1.29,9.40
21010822,-0.020544,0.007960,-0.008384,0.12,-0.82,11.08
21011824,0.034850,-0.004824,-0.007319,0.11,0.68,10.43
21012834,0.003957,0.000503,-0.005188,-0.82,-1.36,9.12
21013863,0.005022,0.013286,0.000138,0.12,-1.05,10.78
21014856,0.048699,0.004764,0.004399,0.15,0.25,10.00
21015873,0.014610,0.002633,0.010791,-0.57,-1.11,9.30
21016876,0.023132,0.014351,0.012921,0.13,-1.06,10.34
21017886,0.041242,0.011156,0.011856,0.19,0.04,9.92
21018927,-0.005631,0.004764,0.010791,-0.43,-0.82,9.67
21019913,0.013545,0.015417,0.011856,0.15,-1.33,9.62
21020931,0.016740,0.016482,0.015052,0.30,-0.17,9.48
21021934,-0.014153,0.007960,0.013987,-0.38,-0.61,9.91
21022959,0.003957,0.010090,0.016117,0.10,-1.40,9.42
21023956,-0.010957,0.004764,0.017183,0.41,-0.12,9.30
21024969,-0.033328,0.002633,0.016117,-0.46,-0.70,9.75
21026007,-0.019479,0.010090,0.017183,-0.08,-1.51,9.38
21026995,-0.008826,-0.006954,0.013987,0.45,0.00,9.07
21028002,-0.013087,-0.015476,0.010791,-0.77,-0.88,9.13
21029035,-0.024806,-0.001628,0.010791,-0.21,-1.45,9.30
21030016,-0.003500,-0.025064,0.002269,0.74,0.24,8.87
21031026,0.003957,-0.033586,-0.004123,-0.80,-0.74,9.03
21032040,-0.018414,-0.001628,-0.001992,-0.02,-1.24,9.06
21033064,0.015675,-0.009085,-0.010515,0.96,0.48,9.00
21034056,0.033785,-0.030390,-0.015841,-0.62,-0.40,8.86
21035064,-0.007761,-0.005889,-0.014776,0.20,-0.68,9.33
21036077,0.005022,0.000503,-0.017972,0.82,0.60,9.75
21037081,0.006088,-0.012281,-0.019037,-0.54,-0.11,8.94
21038087,-0.037589,0.004764,-0.010515,0.12,-0.03,9.96
21039129,-0.002435,0.002633,-0.007319,0.76,0.65,10.01
21040112,0.009283,-0.011215,-0.001992,-0.43,0.42,9.63
21041126,-0.048242,-0.002693,0.006530,-0.13,0.20,10.10
21042127,-0.014153,-0.000563,0.009726,0.73,0.12,10.02
21043154,0.033785,0.003699,0.011856,-0.14,0.84,9.89
21044148,0.000761,0.017547,0.019313,-0.26,0.35,9.84
21045157,0.017806,0.016482,0.020378,0.61,-0.19,10.49
21046175,0.027393,-0.001628,0.015052,0.07,1.19,10.75
21047177,-0.005631,0.001568,0.015052,-0.43,0.12,9.93
21048188,0.028458,0.012221,0.016117,0.56,-0.46,10.63
21049223,0.034850,0.005829,0.011856,0.37,1.31,11.39
21050207,0.000761,0.009025,0.010791,-0.40,-0.26,9.82
21051230,0.022067,0.017547,0.011856,0.48,-0.63,10.77
21052224,0.010349,0.009025,0.010791,0.37,1.09,11.28
21053234,-0.013087,0.009025,0.011856,-0.36,-0.73,9.38
21054244,0.014610,0.017547,0.011856,0.35,-0.80,10.78
21055254,-0.002435,0.009025,0.010791,0.21,0.61,11.08
21056271,-0.020544,0.006894,0.012921,-0.36,-1.14,9.25
21057274,0.001826,0.009025,0.016117,0.24,-1.03,10.75
21058284,-0.005631,-0.001628,0.016117,0.16,0.14,10.80
21059322,-0.017349,-0.001628,0.016117,-0.43,-1.27,9.54
21060310,-0.008826,0.003699,0.016117,0.02,-1.32,10.71
21061324,0.005022,-0.012281,0.009726,0.11,-0.24,9.89
21062328,0.003957,-0.006954,0.007595,-0.56,-1.20,9.66
21063337,-0.004565,0.002633,0.007595,-0.19,-1.67,10.83
21064348,0.017806,-0.022933,-0.003058,0.05,-0.57,8.96
21065357,0.005022,-0.020803,-0.007319,-0.70,-0.84,9.51
21066375,-0.021610,0.011156,-0.005188,-0.22,-1.90,9.91
21067377,0.001826,-0.002693,-0.010515,0.23,-0.39,8.81
21068388,-0.006696,-0.019738,-0.009449,-0.71,-0.57,9.87
21069418,-0.038654,0.006894,-0.008384,-0.29,-2.00,9.80
21070407,-0.003500,-0.005889,-0.010515,0.27,-0.01,8.63
21071421,-0.016283,-0.016542,-0.005188,-0.90,-0.49,9.61
21072424,-0.049307,0.005829,0.004399,-0.16,-1.84,9.76
21073434,0.000761,-0.000563,0.001203,0.59,0.40,8.78
21074444,0.009283,-0.013346,0.000138,-0.94,-0.19,9.45
21075454,-0.026936,-0.001628,0.004399,-0.02,-1.51,8.94
21076471,0.017806,-0.011215,-0.000927,0.73,0.81,8.97
21077474,0.041242,-0.020803,-0.003058,-0.78,-0.01,9.01
21078484,0.010349,0.005829,0.000138,0.10,-0.83,9.07
21079522,0.047634,0.010090,-0.003058,0.77,0.91,9.23
21080510,0.044438,0.003699,-0.005188,-0.62,-0.05,9.22
21081524,-0.008826,0.011156,-0.003058,0.20,-0.13,9.38
21082528,0.017806,0.011156,-0.004123,0.96,0.68,9.46
21083537,0.025263,0.014351,-0.005188,-0.25,0.07,9.74
21084548,-0.017349,0.015417,-0.004123,0.28,0.40,9.69
21085557,0.009283,0.009025,-0.003058,0.90,0.39,9.93
21086575,0.025263,0.011156,-0.004123,0.06,0.37,10.11
21087577,-0.017349,0.015417,0.000138,0.19,0.51,9.81
21088588,0.009283,0.010090,0.006530,0.75,0.00,10.05
21089618,0.032720,0.003699,0.008660,0.33,0.71,10.54
21090607,0.005022,0.006894,0.009726,-0.05,0.31,10.16
21091621,0.028458,-0.000563,0.008660,0.62,-0.28,10.71
21092624,0.035915,-0.009085,0.006530,0.48,0.83,10.95
21093634,0.001826,0.003699,0.005464,-0.34,-0.35,9.91
21094644,0.026328,-0.000563,0.004399,0.48,-0.64,11.06
21095654,0.030589,-0.018672,-0.000927,0.48,1.04,10.90
21096671,-0.024806,-0.002693,-0.003058,-0.52,-0.79,9.14
21097690,-0.014153,0.005829,-0.006254,0.23,-0.97,11.07
21098712,0.008218,0.002633,-0.013711,0.12,0.77,10.75
21099700,-0.018414,0.013286,-0.013711,-0.79,-1.13,9.47
21100707,0.003957,0.022874,-0.010515,0.01,-0.96,11.46
21101725,0.018871,0.004764,-0.009449,0.04,0.61,10.70
21102727,-0.039719,0.001568,-0.003058,-0.74,-1.35,9.59
21103738,0.018871,-0.002693,0.001203,-0.06,0.18,10.05
21104761,-0.008826,0.001568,0.004399,-0.78,-1.09,9.43
21105757,0.001826,0.010090,0.005464,-0.13,-1.70,10.54
21106775,0.038046,0.004764,0.002269,-0.05,-0.20,9.21
21107777,0.007153,-0.001628,0.003334,-0.77,-0.83,9.48
21108808,0.007153,0.007960,0.005464,-0.28,-1.83,10.01
21109797,0.030589,0.002633,0.002269,0.09,-0.10,9.13
21110804,-0.018414,-0.002693,-0.001992,-0.55,-0.51,9.84
21111821,-0.019479,0.012221,-0.001992,-0.03,-1.86,9.60
21112824,0.008218,0.019678,-0.003058,0.28,0.01,9.11
21113834,-0.015218,0.012221,-0.001992,-0.50,-0.34,9.86
21114844,0.001826,0.009025,0.002269,0.10,-1.50,9.27
21115854,0.023132,0.010090,0.007595,0.49,0.39,9.06
21116871,-0.013087,0.010090,0.009726,-0.54,-0.50,9.12
21117874,-0.005631,0.011156,0.012921,0.12,-1.35,8.62
21118915,0.016740,0.007960,0.015052,0.79,0.59,9.02
21119901,0.006088,0.009025,0.012921,-0.43,-0.44,9.01
21120917,0.017806,0.014351,0.012921,0.16,-0.70,8.99
21121930,0.038046,0.002633,0.013987,0.99,0.72,9.17
21122939,0.017806,-0.004824,0.005464,-0.34,-0.38,9.16
21123942,0.021002,0.004764,0.004399,0.04,-0.27,9.74
21124956,0.042307,-0.002693,0.002269,1.01,0.57,9.49
21125969,0.011414,-0.013346,-0.007319,-0.21,-0.02,9.04
21126983,-0.014153,0.005829,-0.009449,0.08,0.06,9.37
21127989,-0.001369,0.012221,-0.010515,0.70,0.06,10.10
21129016,-0.013087,-0.001628,-0.014776,-0.16,0.56,9.61
21130008,-0.013087,0.007960,-0.011580,0.02,0.44,9.80
21131010,0.023132,0.021808,-0.006254,0.64,0.01,10.29
21132040,0.000761,0.012221,-0.003058,0.04,0.91,10.38
21133030,-0.024806,0.010090,0.001203,-0.41,-0.05,10.20
21134043,0.012479,0.002633,0.003334,0.57,-0.34,10.89
21135051,0.017806,-0.012281,0.002269,0.23,1.14,11.09
21136063,-0.008826,-0.005889,0.002269,-0.57,-0.49,9.40
21137075,0.015675,0.002633,0.003334,0.37,-0.63,11.11
21138078,0.017806,-0.004824,-0.000927,0.15,1.51,11.11
21139113,-0.015218,0.001568,0.001203,-0.74,-0.71,9.44
21140100,0.010349,0.014351,0.002269,0.28,-0.84,10.92
21141112,0.016740,-0.003758,-0.001992,0.22,1.08,11.09
21142128,-0.019479,-0.006954,-0.001992,-0.69,-1.12,9.42
21143130,0.003957,0.013286,0.000138,0.19,-1.08,10.87
21144139,0.005022,0.012221,-0.003058,0.10,0.50,11.12
21145148,-0.026936,0.006894,-0.000927,-0.54,-1.27,9.47
21146157,0.003957,0.011156,0.005464,0.13,-1.27,10.56
21147175,0.011414,0.005829,0.008660,0.04,0.14,10.16
21148177,-0.019479,0.005829,0.010791,-0.42,-1.14,9.38
21149208,0.010349,0.013286,0.012921,-0.07,-1.54,10.07
21150197,0.028458,0.009025,0.013987,0.01,-0.22,9.55
21151204,0.009283,0.007960,0.015052,-0.45,-0.89,9.58
21152221,0.028458,0.012221,0.016117,-0.09,-1.70,9.80
21153224,0.028458,0.004764,0.015052,0.27,-0.41,9.17
21154234,0.008218,0.007960,0.008660,-0.46,-0.76,9.84
21155244,0.035915,0.015417,0.005464,-0.13,-1.72,9.92
21156254,0.043372,0.003699,0.001203,0.40,-0.36,8.72
21157271,0.012479,0.000503,-0.001992,-0.65,-0.62,9.46
21158274,0.019936,0.010090,-0.001992,-0.14,-1.65,9.68
21159312,0.026328,-0.003758,-0.005188,0.64,-0.02,8.52
21160300,-0.014153,-0.011215,-0.009449,-0.78,-0.44,8.95
21161308,-0.021610,0.006894,-0.010515,0.04,-1.51,8.63
21162324,-0.004565,0.009025,-0.011580,0.73,0.56,8.97
21163328,-0.012022,-0.001628,-0.009449,-0.72,-0.16,9.02
21164337,0.003957,0.014351,-0.003058,0.16,-0.74,9.32
21165348,0.033785,0.016482,0.003334,0.84,0.98,9.50
21166357,0.005022,-0.000563,0.003334,-0.66,-0.19,9.26
21167375,-0.001369,0.001568,0.004399,0.00,-0.34,10.02
21168377,0.038046,-0.003758,0.003334,0.98,0.66,9.67
21169408,0.024197,-0.009085,-0.004123,-0.44,0.16,9.38
21170397,-0.001369,0.004764,-0.005188,-0.07,0.09,9.62
21171404,0.026328,0.010090,-0.007319,0.76,0.20,10.10
21172421,0.016740,-0.000563,-0.010515,-0.12,0.69,9.54
21173424,-0.021610,0.007960,-0.007319,-0.08,0.41,9.70
21174434,0.003957,0.016482,-0.006254,0.62,-0.09,10.35
21175444,-0.005631,0.003699,-0.007319,0.10,1.01,10.72
21176454,-0.040785,0.009025,-0.000927,-0.26,0.29,10.15
21177471,-0.006696,0.020743,0.003334,0.69,-0.31,10.55
21178474,0.000761,0.017547,0.005464,0.37,1.06,11.24
21179512,-0.015218,0.010090,0.010791,-0.28,-0.13,9.89
21180500,0.031654,0.006894,0.015052,0.58,-0.45,10.93
21181508,0.039111,0.009025,0.012921,0.38,1.07,11.40
21182524,0.009283,0.011156,0.010791,-0.32,-0.56,9.51
21183528,0.039111,0.006894,0.010791,0.35,-0.71,10.79
21184537,0.052960,0.007960,0.008660,0.27,0.64,11.15
21185548,0.027393,0.015417,0.008660,-0.41,-1.03,9.38
21186557,0.047634,0.011156,0.009726,0.13,-1.02,10.88
21187575,0.044438,0.002633,0.005464,0.16,0.18,10.82
21188577,-0.006696,0.012221,0.002269,-0.52,-1.29,9.67
21189608,0.005022,0.011156,0.001203,-0.04,-1.41,10.99
21190597,0.017806,-0.009085,-0.001992,0.06,-0.24,9.68
21191604,-0.035458,-0.001628,-0.004123,-0.61,-1.00,9.44
21192621,-0.031197,0.004764,-0.005188,-0.18,-1.73,10.45
21193624,0.005022,-0.003758,-0.008384,0.06,-0.74,8.75
21194634,-0.012022,0.000503,-0.001992,-0.70,-0.77,9.46
21195644,-0.003500,0.011156,0.000138,-0.33,-1.83,10.08
21196654,0.026328,-0.003758,-0.003058,0.17,-0.39,8.65
21197671,-0.012022,-0.012281,-0.004123,-0.72,-0.56,9.83
21198702,-0.014153,0.002633,-0.004123,-0.23,-1.98,10.08
21199690,0.034850,0.000503,-0.010515,0.32,-0.02,8.66
21200697,0.001826,-0.004824,-0.011580,-0.95,-0.34,9.67
21201708,-0.014153,0.004764,-0.008384,-0.09,-1.85,9.29
21202724,0.039111,0.006894,-0.010515,0.60,0.53,8.81
21203728,-0.025871,0.027135,-0.007319,-0.02,-1.47,8.99
21204737,0.015675,0.025004,-0.008384,0.74,0.90,8.85
21205748,-0.000304,0.009025,-0.006254,-0.71,-0.12,9.01
21206775,-0.039719,0.013286,-0.000927,0.21,-0.66,9.13
21207774,0.013545,0.013286,0.002269,0.92,0.85,9.21
21208798,0.019936,0.012221,0.005464,-0.48,-0.02,9.54
21209787,-0.007761,0.013286,0.010791,0.27,0.06,9.50
21210794,0.034850,0.009025,0.010791,0.89,0.59,9.55
21211804,0.046568,0.011156,0.008660,-0.17,0.23,9.72
21212821,0.010349,0.014351,0.008660,0.28,0.56,9.54
21213824,0.038046,0.007960,0.007595,0.80,0.24,9.82
21214834,0.051895,0.009025,0.000138,0.17,0.55,10.23
21215844,0.011414,0.010090,-0.000927,0.22,0.63,9.80
21216854,0.028458,0.007960,-0.000927,0.71,-0.04,10.31
21217871,0.039111,0.004764,-0.000927,0.40,0.63,10.86
21218903,-0.008826,0.002633,0.003334,-0.09,0.21,10.42
21219893,0.000761,-0.015476,0.005464,0.52,-0.25,10.97
21220900,0.008218,-0.025064,0.003334,0.48,0.73,10.84
21221914,-0.043981,-0.005889,0.003334,-0.44,-0.57,9.71
21222929,-0.029067,-0.014411,0.003334,0.28,-0.77,11.23
21223937,0.019936,-0.038913,0.002269,0.36,0.93,10.95
21224942,-0.020544,-0.013346,0.001203,-0.59,-0.74,9.38
21225956,-0.034393,0.003699,-0.000927,0.08,-1.02,11.04
21226969,0.017806,-0.011215,-0.008384,-0.09,0.36,10.31
21227983,0.006088,-0.011215,-0.008384,-0.78,-1.17,9.37
21229010,0.002892,0.003699,-0.008384,-0.10,-1.00,11.36
21230000,0.036981,-0.010150,-0.009449,-0.15,0.33,10.86
21231006,-0.013087,-0.005889,-0.007319,-0.69,-1.33,9.81
21232017,-0.035458,-0.001628,-0.005188,-0.06,-1.63,10.98
21233027,0.014610,-0.018672,-0.010515,-0.11,-0.09,9.90
21234028,-0.012022,-0.012281,-0.008384,-0.82,-0.93,9.53
21235044,-0.053568,0.003699,-0.003058,-0.23,-1.91,10.15
21236053,-0.008826,-0.008020,-0.005188,0.04,-0.51,8.56
21237062,-0.003500,-0.008020,-0.005188,-0.77,-0.67,9.39
21238075,-0.023740,0.013286,-0.000927,-0.36,-1.93,9.95
21239103,0.021002,-0.010150,-0.005188,0.32,-0.13,8.81
21240090,0.017806,-0.019738,-0.001992,-0.61,-0.51,9.73
21241098,-0.010957,0.009025,0.004399,-0.11,-1.96,9.66
21242112,0.028458,-0.000563,-0.000927,0.47,0.23,8.79
21243128,0.039111,-0.012281,-0.004123,-0.73,-0.43,9.58
21244130,0.012479,0.004764,-0.000927,0.14,-1.65,9.13
21245139,0.030589,-0.001628,-0.006254,0.74,0.61,8.81
21246148,0.027393,-0.010150,-0.007319,-0.59,-0.30,9.10
21247157,-0.014153,0.007960,-0.001992,0.29,-1.06,8.64
21248175,-0.013087,0.005829,-0.003058,0.82,0.82,9.16
21249198,-0.007761,-0.006954,-0.004123,-0.31,-0.11,9.20
21250187,-0.030132,0.006894,0.002269,0.49,-0.22,8.69
21251194,-0.039719,0.004764,0.005464,0.82,0.66,9.47
21252204,-0.035458,-0.016542,0.006530,-0.12,-0.04,9.63
21253221,-0.036524,-0.014411,0.011856,0.46,0.40,9.30
21254224,-0.036524,-0.015476,0.011856,0.82,0.60,9.84
21255234,-0.020544,-0.019738,0.009726,0.08,0.06,10.02
21256244,-0.008826,-0.010150,0.011856,0.09,0.49,10.23
21257254,0.000761,-0.022933,0.009726,0.69,0.26,10.09
21258271,0.009283,-0.034652,0.006530,0.24,0.32,9.73
21259312,-0.005631,-0.001628,0.008660,-0.34,0.15,9.95
21260290,-0.006696,0.001568,0.005464,0.41,-0.39,10.89
21261298,0.009283,-0.025064,-0.001992,0.26,0.81,10.55
21262307,-0.012022,-0.002693,-0.000927,-0.39,-0.16,9.30
21263325,-0.015218,0.017547,-0.004123,0.32,-0.62,10.79
21264327,-0.015218,-0.005889,-0.011580,-0.03,1.14,11.04
21265338,-0.024806,-0.004824,-0.006254,-0.62,-0.41,9.98
21266347,-0.021610,0.017547,0.001203,0.25,-0.64,11.19
21267358,-0.031197,0.006894,0.004399,0.06,0.96,11.40
21268374,-0.033328,-0.001628,0.007595,-0.68,-1.09,9.79
21269398,-0.000304,-0.004824,0.012921,0.03,-1.06,11.36
21270387,0.018871,-0.014411,0.010791,-0.02,0.72,11.37
21271394,0.001826,-0.003758,0.005464,-0.78,-1.28,9.36
21272404,0.010349,0.006894,0.002269,-0.11,-1.59,10.65
21273421,0.019936,-0.011215,-0.004123,-0.06,0.07,9.65
21274424,0.006088,-0.008020,-0.008384,-0.71,-0.96,9.36
21275434,0.012479,0.015417,-0.008384,-0.15,-1.62,10.49
21276444,0.007153,0.004764,-0.012645,0.11,-0.39,9.23
21277454,-0.015218,-0.001628,-0.013711,-0.61,-0.93,9.65
21278471,0.009283,0.028200,-0.012645,-0.25,-1.76,10.41
21279502,0.014610,0.023939,-0.009449,0.20,-0.26,9.18
21280490,-0.031197,0.005829,-0.007319,-0.53,-0.71,9.93
21281498,-0.008826,0.004764,-0.004123,0.04,-1.89,9.99
21282507,0.016740,-0.001628,-0.000927,0.43,-0.06,8.71
21283525,-0.014153,-0.002693,0.001203,-0.66,-0.51,9.50
21284527,-0.004565,0.009025,0.001203,0.00,-1.84,9.28
21285538,0.031654,0.002633,0.001203,0.60,0.39,8.75
21286547,0.010349,-0.008020,0.001203,-0.63,-0.34,9.12
21287558,-0.000304,0.005829,0.003334,0.08,-1.51,8.69
21288574,0.027393,0.010090,0.000138,0.75,0.68,8.85
21289598,0.003957,0.006894,-0.003058,-0.41,-0.19,9.18
21290587,-0.004565,0.016482,-0.004123,0.41,-0.69,8.89
21291594,0.027393,0.026069,-0.004123,0.78,0.73,9.46
21292604,0.006088,0.022874,-0.004123,-0.34,-0.12,9.44
21293621,-0.003500,0.006894,-0.001992,0.49,0.03,8.91
21294624,0.025263,0.009025,0.002269,0.78,0.70,9.64
21295634,0.011414,0.019678,0.003334,-0.19,-0.02,9.73
21296644,-0.003500,0.011156,0.003334,0.26,0.41,9.41
21297654,0.030589,-0.000563,0.008660,0.70,0.53,9.77
21298695,0.017806,0.000503,0.011856,0.01,0.13,9.96
21299680,-0.009892,0.000503,0.013987,-0.20,0.47,10.29
21300687,0.024197,-0.016542,0.012921,0.56,0.06,10.36
21301698,0.030589,-0.018672,0.010791,0.23,0.39,10.22
21302707,-0.017349,0.002633,0.007595,-0.53,0.04,10.00
21303725,-0.000304,-0.008020,0.004399,0.35,-0.48,10.99
21304727,-0.023740,-0.000563,-0.003058,-0.47,-0.31,9.42
21305738,-0.014153,0.013286,-0.005188,0.24,-0.73,11.03
21306747,0.015675,0.007960,-0.008384,-0.07,1.10,11.00
21307758,-0.020544,0.012221,-0.003058,-0.68,-0.58,9.69
21308821,0.001826,0.018613,-0.001992,0.20,-0.67,11.12
21309777,0.031654,0.009025,-0.003058,0.03,0.81,11.39
21310784,-0.021610,0.001568,0.003334,-0.62,-1.26,9.69
21311794,-0.019479,-0.011215,0.007595,0.10,-1.15,11.17
21312804,0.030589,-0.025064,0.006530,0.00,0.50,11.13
21313821,-0.006696,-0.011215,0.007595,-0.69,-1.33,9.45
21314824,-0.031197,-0.008019,0.006530,-0.06,-1.64,10.66
21315834,0.023132,-0.026129,0.000138,0.03,-0.10,9.47
21316844,0.012479,-0.011215,-0.003058,-0.59,-0.94,9.34
21317854,-0.025871,0.010090,-0.006254,-0.13,-1.73,10.21
21318902,0.011414,-0.009085,-0.016906,0.22,-0.49,9.01
21319880,0.000761,-0.010150,-0.020102,-0.51,-0.87,9.75
21320888,-0.035458,0.020743,-0.014776,-0.18,-1.86,10.29
21321899,-0.004565,0.001568,-0.017972,0.32,-0.23,8.83
21322913,-0.021610,-0.014411,-0.017972,-0.57,-0.70,9.85
21323930,-0.049307,0.000503,-0.012645,0.02,-1.99,9.94
21324939,-0.006696,-0.015476,-0.012645,0.54,-0.02,8.52
21325942,-0.004565,-0.023999,-0.007319,-0.70,-0.40,9.42
21326956,-0.029067,-0.001628,0.002269,0.07,-1.77,9.06
21327969,0.014610,-0.011215,-0.001992,0.69,0.50,8.67
21328998,0.027393,-0.022933,-0.004123,-0.70,-0.26,9.02
21329989,-0.009892,0.005829,0.002269,0.13,-1.33,8.72
21330993,0.010349,0.003699,-0.000927,0.81,0.88,8.92
21332005,0.031654,-0.010150,-0.004123,-0.49,-0.09,9.25
21333013,0.006088,0.005829,0.002269,0.37,-0.48,9.18
21334025,-0.000304,0.002633,0.001203,0.85,0.80,9.53
21335030,-0.000304,-0.011215,-0.001992,-0.37,-0.05,9.61
21336043,-0.016283,0.003699,0.003334,0.39,0.19,9.17
21337051,-0.021610,0.004764,0.008660,0.76,0.62,9.60
21338062,-0.032263,-0.016542,0.009726,-0.14,0.20,9.80
21339099,-0.037589,-0.010150,0.017183,0.26,0.56,9.55
21340084,-0.033328,-0.009085,0.019313,0.72,0.29,9.90
21341088,-0.024806,-0.019738,0.019313,0.14,0.34,10.27
21342098,-0.024806,-0.005889,0.022509,-0.17,0.47,10.34
21343112,-0.016283,-0.008020,0.020378,0.54,-0.08,10.48
21344128,0.001826,-0.020803,0.016117,0.36,0.51,10.43
21345130,0.008218,0.000503,0.016117,-0.46,-0.14,9.94
21346139,0.018871,0.003699,0.011856,0.33,-0.62,11.01
21347148,0.030589,-0.022933,0.001203,0.36,0.90,10.82
21348157,0.023132,-0.004824,-0.000927,-0.43,-0.40,9.37
21349190,0.022067,0.019678,-0.003058,0.28,-0.79,11.02
21350177,-0.001369,0.000503,-0.008384,-0.02,0.86,10.89
