time_us,gyro_x_rad_s,gyro_y_rad_s,gyro_z_rad_s,acc_x_m_s2,acc_y_m_s2,acc_z_m_s2
232713428,0.001175,-0.000031,0.000617,0.05,-0.26,9.82
232714232,0.000110,0.001033,-0.000447,0.05,-0.29,9.82
232715236,0.000110,-0.001096,-0.000447,0.07,-0.30,9.79
232716250,0.000110,-0.002159,-0.000447,0.04,-0.30,9.83
232717258,0.000109,-0.003221,-0.000446,0.02,-0.30,9.85
232718270,-0.002019,-0.002154,-0.000446,0.06,-0.29,9.85
232719279,-0.003081,-0.001088,0.000619,0.09,-0.28,9.78
232720291,-0.002014,-0.000022,0.001683,0.07,-0.29,9.78
232721298,-0.000948,-0.002151,0.001681,0.05,-0.29,9.86
232722313,0.000117,-0.001084,0.000615,0.05,-0.29,9.84
232723318,-0.000947,-0.001083,-0.000450,0.06,-0.29,9.81
232724330,-0.000946,-0.002146,0.000615,0.08,-0.32,9.83
232725338,-0.002009,-0.002144,0.001678,0.11,-0.31,9.81
232726350,-0.002007,-0.000014,0.000612,0.09,-0.28,9.85
232727358,-0.000941,-0.000013,-0.002581,0.05,-0.32,9.90
232728370,0.000124,-0.001078,-0.002578,0.06,-0.33,9.83
232729378,0.001188,-0.002141,-0.001511,0.06,-0.28,9.77
232730391,0.001187,-0.001074,-0.000446,0.07,-0.28,9.79
232731398,0.001186,-0.001073,-0.000445,0.09,-0.28,9.80
232732413,0.001185,-0.001072,-0.000445,0.07,-0.29,9.78
232733418,0.002248,0.001057,-0.001509,0.04,-0.30,9.81
232734430,0.001181,0.003185,0.000621,0.05,-0.30,9.86
232735438,0.002244,0.004246,0.001685,0.06,-0.30,9.86
232736450,0.003306,0.004241,0.002747,0.05,-0.27,9.83
232737458,0.003303,0.002109,0.003809,0.05,-0.30,9.82
232738470,0.000107,0.001042,0.003805,0.05,-0.32,9.80
232739479,-0.000957,0.001041,0.000609,0.06,-0.27,9.82
232740490,0.000108,-0.001088,-0.002585,0.07,-0.28,9.83
232741498,0.000108,-0.002151,-0.002582,0.08,-0.30,9.82
232742513,0.001172,-0.001085,-0.001515,0.09,-0.29,9.80
232743518,0.000106,0.001045,0.000615,0.09,-0.28,9.76
232744530,0.000106,-0.000021,0.001678,0.08,-0.28,9.84
232745538,0.000106,-0.002149,0.001677,0.06,-0.31,9.86
232746550,0.001170,-0.004275,0.001675,0.03,-0.32,9.79
232747558,0.000105,-0.002143,-0.000455,0.05,-0.29,9.77
232748570,-0.000959,-0.001076,-0.001519,0.07,-0.26,9.80
232749579,-0.002023,-0.001075,-0.001517,0.06,-0.26,9.85
232750590,0.001172,-0.001074,-0.001516,0.08,-0.29,9.86
232751598,0.002235,-0.001073,-0.000450,0.09,-0.33,9.82
232752613,0.001169,-0.000008,0.001679,0.08,-0.34,9.83
232753618,-0.000961,0.001056,0.001677,0.10,-0.34,9.82
232754630,-0.003088,0.002120,-0.000453,0.09,-0.32,9.81
232755638,-0.003085,0.002117,-0.000453,0.05,-0.30,9.83
232756650,-0.000954,0.001051,0.000612,0.04,-0.31,9.84
232757658,0.003304,0.001050,0.000611,0.05,-0.32,9.83
232758670,0.004365,-0.000015,0.000611,0.05,-0.30,9.81
232759679,0.002232,-0.000015,-0.001518,0.07,-0.29,9.81
232760690,0.001166,0.001049,-0.001517,0.10,-0.32,9.85
232761698,0.001164,-0.002145,-0.002579,0.07,-0.32,9.85
232762713,0.001163,-0.005335,-0.001513,0.07,-0.30,9.79
232763718,0.002226,-0.005330,0.001682,0.10,-0.32,9.81
232764730,0.002224,-0.004260,0.001680,0.11,-0.32,9.83
232765738,0.001158,-0.001063,-0.001514,0.09,-0.31,9.78
232766750,0.000092,0.001066,-0.003641,0.08,-0.32,9.77
232767793,0.001156,0.000001,-0.000445,0.10,-0.34,9.82
232768791,0.001155,-0.002127,0.000620,0.09,-0.32,9.86
232769784,0.001154,0.000003,-0.000445,0.07,-0.29,9.86
232770791,0.000089,0.001067,-0.000445,0.05,-0.27,9.85
232771809,-0.000976,0.002131,-0.000444,0.04,-0.28,9.82
232772820,-0.002039,0.003193,-0.001508,0.07,-0.29,9.82
232773835,-0.000973,0.001061,-0.000442,0.07,-0.28,9.83
232774860,0.003285,-0.000004,-0.001506,0.07,-0.29,9.78
232775853,0.005410,0.002124,-0.002569,0.09,-0.29,9.80
232776860,0.003276,0.002122,-0.000438,0.09,-0.28,9.82
232777869,0.002209,0.002120,0.000627,0.09,-0.28,9.78
232778877,0.000078,0.002118,0.000626,0.09,-0.32,9.82
232779889,-0.000986,0.002116,-0.000439,0.10,-0.32,9.84
232780923,0.000079,0.002113,-0.000438,0.09,-0.29,9.80
232781909,0.001143,0.002111,0.000627,0.06,-0.28,9.80
232782922,0.002206,0.001045,0.000626,0.07,-0.30,9.82
232783926,0.001140,0.001044,-0.000439,0.06,-0.32,9.84
232784939,0.001139,-0.000021,-0.000438,0.04,-0.31,9.84
232785945,0.002202,-0.001086,0.000626,0.07,-0.31,9.83
232786974,0.001135,-0.001084,0.000626,0.06,-0.29,9.83
232787971,0.000070,-0.000019,0.000625,0.05,-0.29,9.85
232789020,-0.000994,-0.001083,0.002753,0.06,-0.30,9.89
232789999,-0.003122,-0.001082,0.001686,0.07,-0.31,9.84
232791017,-0.002054,-0.001081,0.000620,0.08,-0.30,9.82
232792024,0.000076,-0.000016,0.000619,0.08,-0.28,9.85
232793021,0.000076,-0.000016,0.000619,0.08,-0.31,9.83
232794025,-0.000988,0.001048,0.000618,0.06,-0.31,9.82
232795035,-0.000987,0.002112,0.001682,0.05,-0.28,9.81
232796042,-0.000986,0.001045,0.001680,0.07,-0.32,9.79
232797062,-0.000985,0.001044,0.000614,0.09,-0.31,9.74
232798072,-0.000984,0.003171,0.000613,0.10,-0.29,9.81
232799097,-0.002047,0.002104,0.001677,0.07,-0.29,9.87
232800113,-0.003110,-0.001091,0.001675,0.06,-0.32,9.87
232801096,-0.003106,-0.005346,0.000609,0.07,-0.31,9.83
232802113,-0.002039,-0.004277,0.000609,0.09,-0.30,9.78
232803122,-0.000973,-0.002144,0.000608,0.09,-0.28,9.79
232804116,0.000092,-0.002142,-0.000457,0.08,-0.28,9.81
232805141,-0.002036,-0.002140,-0.001521,0.05,-0.30,9.78
232806138,-0.002034,-0.001073,-0.001519,0.03,-0.26,9.77
232807149,0.000096,0.001056,0.000611,0.04,-0.26,9.78
232808158,0.002225,0.001055,0.001675,0.07,-0.29,9.78
232809170,0.004351,0.002118,-0.000456,0.08,-0.31,9.76
232810179,0.004346,0.002116,-0.001519,0.07,-0.29,9.83
232811190,0.003278,0.001050,-0.002582,0.08,-0.28,9.82
232812198,0.000082,-0.000016,-0.002579,0.06,-0.31,9.77
232813237,0.000082,0.001049,-0.003641,0.07,-0.30,9.78
232814232,0.000082,0.001048,-0.002573,0.10,-0.27,9.76
232815229,0.000082,0.001046,-0.000442,0.09,-0.28,9.79
232816236,0.001146,0.001045,-0.001506,0.10,-0.28,9.83
232817250,0.002209,0.001044,-0.000440,0.09,-0.28,9.86
232818258,0.002207,-0.001085,-0.001504,0.08,-0.27,9.88
232819270,0.001140,-0.003212,-0.001502,0.10,-0.28,9.83
232820296,-0.002054,-0.002145,-0.000437,0.08,-0.32,9.79
232821315,-0.004180,0.001050,-0.000436,0.04,-0.31,9.81
232822298,-0.003111,0.002113,0.000629,0.06,-0.29,9.81
232823312,0.001149,0.002111,0.002756,0.06,-0.28,9.77
232824318,0.000083,0.002109,0.003818,0.08,-0.27,9.75
232825330,-0.002045,0.002107,0.003814,0.09,-0.27,9.77
232826338,-0.002043,0.001040,0.001682,0.08,-0.26,9.79
232827350,-0.000977,0.001039,0.000616,0.05,-0.28,9.82
232828358,0.000088,0.001038,-0.000449,0.04,-0.31,9.81
232829370,0.000088,0.002101,0.000616,0.04,-0.29,9.81
232830379,-0.000976,-0.000029,0.001679,0.07,-0.27,9.82
232831390,-0.002039,-0.003222,0.000613,0.06,-0.26,9.84
232832398,-0.003101,-0.003219,-0.000452,0.06,-0.26,9.84
232833413,-0.002034,-0.001087,-0.000451,0.09,-0.28,9.82
232834418,0.001161,0.002107,0.000614,0.10,-0.31,9.78
232835430,0.002224,0.001040,0.002741,0.08,-0.32,9.75
232836438,0.000093,-0.000025,0.001674,0.04,-0.30,9.80
232837450,0.000093,-0.001089,-0.000456,0.06,-0.31,9.87
232838458,0.000093,-0.001088,-0.001519,0.08,-0.32,9.87
232839471,0.000093,-0.003215,-0.002582,0.06,-0.30,9.77
232840478,0.000093,-0.002148,-0.001515,0.05,-0.32,9.77
232841490,0.000093,-0.002146,-0.001514,0.08,-0.30,9.82
232842498,-0.000972,-0.000015,-0.001512,0.08,-0.28,9.82
232843513,-0.002035,0.002113,0.001682,0.04,-0.34,9.82
232844518,-0.003097,-0.000017,0.001680,0.06,-0.33,9.81
232845530,-0.002030,-0.001081,-0.000450,0.08,-0.30,9.81
232846538,0.000101,-0.000016,-0.001514,0.07,-0.30,9.81
232847550,0.002229,-0.000016,-0.000448,0.08,-0.31,9.82
232848558,0.002227,0.001048,0.002745,0.08,-0.33,9.83
232849571,0.001160,0.002111,0.001678,0.05,-0.32,9.84
232850578,0.001159,0.002109,-0.000452,0.06,-0.31,9.83
232851590,0.000094,0.002107,-0.000451,0.07,-0.32,9.81
232852598,-0.000971,0.002105,0.000613,0.06,-0.33,9.83
232853613,0.000095,0.001039,0.001677,0.06,-0.33,9.80
232854618,0.002223,-0.001091,0.001675,0.07,-0.31,9.82
232855630,0.002221,-0.002154,0.001673,0.10,-0.28,9.89
232856638,0.002218,-0.003216,-0.000457,0.09,-0.25,9.85
232857650,0.004345,-0.001084,-0.001520,0.07,-0.27,9.78
232858658,0.004340,0.001045,-0.000455,0.07,-0.28,9.77
232859671,0.002207,0.001044,0.000610,0.07,-0.28,9.80
232860678,0.000077,-0.000021,0.000609,0.06,-0.29,9.80
232861690,-0.002052,0.001043,0.000609,0.04,-0.30,9.79
232862698,-0.002050,0.001042,-0.000456,0.04,-0.30,9.79
232863741,-0.002048,-0.000023,-0.000456,0.07,-0.28,9.78
232864718,-0.003110,-0.000023,0.001673,0.09,-0.28,9.78
232865729,-0.000978,0.001041,0.002736,0.09,-0.27,9.77
232866738,0.000087,0.002104,0.002733,0.10,-0.27,9.76
232867750,0.000087,0.003166,0.001666,0.11,-0.27,9.78
232868758,0.000087,0.001035,0.000600,0.09,-0.32,9.82
232869773,0.002215,-0.001095,-0.000465,0.09,-0.31,9.80
232870804,0.002213,-0.001094,-0.000464,0.05,-0.26,9.79
232871796,0.003275,-0.000028,-0.000464,0.04,-0.31,9.82
232872806,0.001143,0.001036,0.000601,0.06,-0.32,9.81
232873824,-0.000986,0.001035,0.000600,0.04,-0.28,9.81
232874822,0.000079,-0.000030,-0.000464,0.06,-0.27,9.83
232875839,0.003271,-0.001095,-0.000464,0.06,-0.29,9.85
232876844,0.003268,-0.001093,-0.000464,0.04,-0.32,9.83
232877857,0.000072,-0.000028,-0.001527,0.05,-0.32,9.80
232878873,-0.003121,-0.000028,-0.001526,0.07,-0.32,9.84
232879883,-0.003117,0.002100,-0.000460,0.09,-0.31,9.80
232880896,-0.002050,0.003162,-0.000459,0.07,-0.31,9.79
232881897,-0.003112,0.002095,-0.001523,0.05,-0.29,9.82
232882901,-0.000981,-0.000035,-0.001522,0.06,-0.30,9.85
232883922,0.003277,-0.000035,-0.001520,0.07,-0.32,9.87
232884925,0.005402,-0.001100,0.000610,0.04,-0.31,9.83
232885938,0.003268,-0.002163,0.001673,0.07,-0.31,9.81
232886945,0.001137,-0.002161,0.001672,0.07,-0.29,9.81
232887953,0.002200,-0.000030,-0.000458,0.03,-0.32,9.83
232888959,0.002198,0.002098,-0.001522,0.07,-0.33,9.80
232889971,0.001131,0.003161,0.000608,0.07,-0.30,9.75
232890981,-0.000998,0.002093,0.001671,0.07,-0.27,9.79
232891994,-0.000997,-0.002166,0.000605,0.11,-0.28,9.79
232893001,0.000068,-0.004292,-0.002588,0.10,-0.33,9.78
232894016,0.000068,-0.003223,-0.003649,0.07,-0.33,9.77
232895020,-0.000996,-0.000028,-0.001517,0.05,-0.31,9.74
232896030,-0.000995,0.002101,0.000613,0.12,-0.35,9.80
232897038,0.001134,0.001035,-0.000452,0.09,-0.33,9.79
232898050,0.000069,0.002098,-0.000452,0.06,-0.30,9.83
232899058,-0.000996,0.002096,-0.000451,0.04,-0.32,9.86
232900071,-0.000995,0.003158,0.001678,0.01,-0.31,9.84
232901078,-0.002058,0.003155,0.001676,0.04,-0.28,9.82
232902090,-0.002056,0.003151,-0.000454,0.08,-0.28,9.82
232903098,-0.003118,0.002084,-0.001518,0.09,-0.31,9.79
232904124,-0.002051,0.002082,-0.002581,0.10,-0.28,9.78
232905118,-0.000984,0.001016,0.000615,0.09,-0.31,9.81
232906129,0.001145,0.001015,0.002742,0.02,-0.35,9.83
232907138,0.000080,-0.000051,0.001676,0.00,-0.34,9.81
232908150,-0.000985,-0.001115,-0.000455,0.04,-0.33,9.82
232909158,-0.003112,-0.002178,-0.001518,0.07,-0.30,9.82
232910171,-0.003109,-0.002176,-0.001517,0.07,-0.29,9.86
232911178,-0.000977,-0.001109,-0.000451,0.07,-0.31,9.92
232912190,0.000088,0.001020,0.000614,0.06,-0.31,9.86
232913198,-0.000976,0.003148,0.001677,0.06,-0.29,9.80
232914222,0.000089,0.001016,0.000611,0.08,-0.29,9.81
232915218,0.000089,-0.002178,-0.001518,0.07,-0.29,9.84
232916229,0.000089,-0.002175,-0.002580,0.06,-0.28,9.82
232917238,0.002217,-0.002173,-0.001514,0.06,-0.27,9.79
232918250,0.003279,-0.000043,0.000616,0.08,-0.29,9.81
232919258,0.002211,0.001022,0.002744,0.06,-0.32,9.86
232920271,0.001145,-0.000044,0.001677,0.05,-0.32,9.90
232921278,0.000080,-0.001108,-0.000453,0.07,-0.31,9.86
232922290,-0.000985,-0.001107,-0.001517,0.09,-0.30,9.82
232923298,0.001145,-0.001106,-0.000451,0.08,-0.29,9.82
232924322,0.000079,-0.000040,0.001678,0.06,-0.29,9.76
232925318,-0.002049,-0.000040,0.002740,0.04,-0.31,9.74
232926329,-0.004175,-0.000040,0.001673,0.06,-0.30,9.79
232927338,-0.003107,0.001024,-0.000457,0.08,-0.29,9.76
232928350,-0.000975,0.003151,-0.002585,0.07,-0.27,9.79
232929358,-0.002039,0.002084,-0.001518,0.04,-0.28,9.86
232930371,-0.003101,-0.002175,-0.000452,0.07,-0.30,9.82
232931378,-0.003098,-0.003237,-0.000452,0.11,-0.30,9.81
232932390,-0.002030,-0.000041,-0.001515,0.08,-0.28,9.81
232933398,-0.000964,0.004216,-0.000450,0.09,-0.29,9.78
232934422,-0.000963,0.004212,0.001679,0.10,-0.30,9.80
232935418,-0.002026,0.002079,0.002742,0.06,-0.31,9.81
232936429,-0.002024,0.002077,0.003803,0.06,-0.31,9.79
232937438,-0.002022,0.001011,0.002735,0.09,-0.30,9.82
232938450,-0.003084,-0.000055,0.000604,0.08,-0.30,9.83
232939462,-0.002017,-0.000055,-0.001525,0.06,-0.30,9.85
232940470,0.001177,0.001010,-0.000459,0.10,-0.28,9.82
232941478,0.002241,-0.000056,-0.000459,0.10,-0.28,9.81
232942490,0.001174,-0.001120,0.000606,0.08,-0.29,9.81
232943498,0.000109,-0.001119,0.001669,0.06,-0.29,9.81
232944518,0.000109,0.001011,0.002732,0.05,-0.28,9.81
232945518,-0.002020,0.001010,0.001665,0.04,-0.29,9.84
232946530,-0.000954,0.001009,0.000599,0.02,-0.31,9.84
232947538,0.000111,0.002072,-0.000466,0.04,-0.30,9.82
232948550,0.003304,0.002070,-0.000465,0.05,-0.30,9.83
232949562,0.005429,0.002068,-0.001529,0.06,-0.30,9.84
232950570,0.002231,0.001002,-0.002592,0.07,-0.28,9.80
232951578,0.000100,-0.000064,-0.001525,0.05,-0.29,9.82
232952590,0.000100,-0.001128,0.000605,0.04,-0.32,9.84
232953598,0.001164,-0.001127,0.001669,0.04,-0.32,9.80
232954618,0.000099,-0.000061,-0.000461,0.06,-0.30,9.80
232955618,0.000099,-0.000061,-0.000461,0.06,-0.27,9.78
232956630,-0.000966,-0.000061,-0.000460,0.08,-0.24,9.81
232957638,-0.000965,-0.000061,-0.000460,0.08,-0.27,9.89
232958650,-0.000964,-0.001125,-0.000460,0.07,-0.33,9.86
232959662,-0.002027,-0.000060,-0.001523,0.10,-0.30,9.84
232960670,-0.000961,0.003133,-0.003650,0.09,-0.29,9.82
232961678,0.000105,0.004194,-0.004711,0.08,-0.31,9.80
232962690,0.001169,0.004190,-0.002577,0.11,-0.30,9.80
232963698,0.001168,0.002057,-0.000446,0.09,-0.29,9.79
232964718,-0.000962,-0.001138,0.002747,0.08,-0.30,9.81
232965745,-0.002025,-0.001137,0.002744,0.07,-0.32,9.84
232966750,-0.000959,-0.000071,0.002741,0.04,-0.31,9.84
232967769,0.000106,0.002057,0.003802,0.05,-0.30,9.80
232968751,0.001170,0.002055,0.001670,0.07,-0.31,9.80
232969764,0.000105,0.002053,-0.000460,0.06,-0.29,9.81
232970771,0.000105,0.003115,-0.003652,0.07,-0.28,9.77
232971784,0.000105,0.003112,-0.004713,0.08,-0.29,9.79
232972826,-0.000960,0.003109,-0.002579,0.08,-0.29,9.82
232973813,-0.002023,0.003106,-0.000448,0.07,-0.29,9.81
232974814,-0.002021,0.003103,0.000616,0.06,-0.30,9.84
232975822,0.001174,0.000971,0.002744,0.08,-0.32,9.82
232976839,0.002237,-0.000094,0.000613,0.08,-0.31,9.76
232977847,0.000106,-0.001158,-0.002580,0.10,-0.29,9.76
232978856,-0.004151,-0.001157,-0.003642,0.11,-0.27,9.84
232979872,-0.005211,0.000973,-0.002574,0.07,-0.29,9.84
232980891,-0.003077,0.003100,-0.000443,0.05,-0.30,9.83
232981885,0.000119,0.002033,-0.001507,0.04,-0.29,9.81
232982895,0.000119,-0.000098,-0.001505,0.07,-0.28,9.76
232983916,0.000118,-0.001162,-0.000440,0.09,-0.28,9.80
232984921,0.000118,-0.001161,-0.000439,0.07,-0.30,9.78
232985926,0.000118,0.003097,0.000626,0.05,-0.31,9.80
232986953,0.001182,0.002030,0.001689,0.08,-0.31,9.83
232987973,0.001181,0.000964,0.001687,0.10,-0.30,9.83
232988996,-0.000949,0.000963,-0.000443,0.07,-0.30,9.83
232989980,-0.000948,0.003090,-0.002571,0.07,-0.30,9.78
232991004,-0.002011,0.004151,-0.003632,0.10,-0.30,9.77
232992004,-0.000945,0.000954,-0.003629,0.12,-0.31,9.84
232992998,0.000121,-0.001175,-0.004689,0.09,-0.31,9.84
232994018,0.000120,-0.001174,-0.003620,0.05,-0.31,9.82
232995017,-0.000944,-0.001173,0.001704,0.06,-0.31,9.79
232996026,-0.002007,-0.002236,0.003831,0.05,-0.33,9.80
232997061,0.000123,-0.000105,0.000635,0.04,-0.27,9.83
232998046,0.000123,-0.000105,-0.000430,0.05,-0.27,9.85
232999078,0.000123,0.000959,0.001699,0.06,-0.28,9.82
233000092,0.002251,0.000958,0.002761,0.07,-0.28,9.85
233001098,0.003313,-0.001171,0.003822,0.06,-0.32,9.83
233002096,0.002246,-0.004362,0.001690,0.03,-0.30,9.80
233003121,0.000115,-0.004358,-0.000440,0.04,-0.28,9.81
233004106,0.000115,-0.002225,-0.000440,0.06,-0.29,9.82
233005109,0.001179,-0.001159,-0.000439,0.07,-0.29,9.82
233006116,0.000114,-0.000093,0.001690,0.05,-0.28,9.80
233007130,-0.000951,0.000971,0.004881,0.04,-0.28,9.85
233008138,-0.002014,0.002034,0.003812,0.06,-0.30,9.85
233009150,-0.000948,0.003096,0.000615,0.09,-0.30,9.80
233010183,0.001182,0.000965,-0.002578,0.07,-0.30,9.83
233011187,0.002245,-0.000100,-0.001511,0.04,-0.27,9.82
233012176,0.000114,0.000964,0.001683,0.05,-0.26,9.81
233013189,-0.000950,0.002027,0.002745,0.07,-0.29,9.82
233014206,-0.002014,-0.000103,0.000614,0.07,-0.32,9.82
233015229,-0.002012,-0.001167,-0.000451,0.06,-0.33,9.79
233016235,-0.003074,-0.002230,-0.001514,0.03,-0.32,9.78
233017230,-0.004135,-0.000100,-0.002577,0.04,-0.32,9.81
233018236,-0.004131,0.002029,-0.000446,0.05,-0.31,9.80
233019250,-0.003062,-0.000102,0.001683,0.07,-0.27,9.83
233020262,0.000133,-0.001166,0.001681,0.08,-0.29,9.86
233021270,0.002262,-0.000100,0.001679,0.07,-0.28,9.83
233022278,0.001195,0.002028,0.001678,0.07,-0.28,9.78
233023290,-0.000935,0.002026,0.000612,0.06,-0.29,9.81
233024306,-0.000934,-0.000104,-0.001517,0.06,-0.30,9.80
233025310,0.000132,-0.002233,-0.002580,0.05,-0.29,9.79
233026318,0.000131,-0.004359,-0.001513,0.05,-0.28,9.80
233027330,0.001195,-0.004354,-0.000447,0.10,-0.31,9.78
233028338,0.002258,-0.004350,0.000617,0.12,-0.32,9.77
233029350,0.000128,-0.004346,-0.000447,0.08,-0.31,9.80
233030362,-0.000937,-0.002213,0.000617,0.05,-0.32,9.85
233031370,-0.002000,-0.000082,0.001681,0.08,-0.33,9.82
233032378,-0.001998,0.000982,0.000615,0.11,-0.31,9.81
233033390,0.000133,0.002045,0.000614,0.07,-0.29,9.83
233034406,0.002261,0.002043,0.001678,0.05,-0.29,9.87
233035410,0.003323,0.000977,0.001676,0.08,-0.30,9.88
233036418,0.003319,-0.001152,0.000610,0.10,-0.30,9.84
233037430,0.003316,-0.002215,-0.000455,0.08,-0.28,9.78
233038438,0.003313,-0.003277,-0.000454,0.05,-0.28,9.80
233039450,0.001181,-0.003274,-0.000454,0.05,-0.29,9.87
233040462,-0.002013,-0.003271,-0.000453,0.08,-0.31,9.87
233041470,-0.003075,-0.003267,0.000611,0.10,-0.28,9.85
233042478,-0.000943,-0.001136,-0.000453,0.09,-0.28,9.85
233043490,0.002250,-0.000070,-0.002581,0.06,-0.31,9.87
233044506,0.002248,0.002058,-0.001515,0.05,-0.28,9.86
233045510,0.001181,0.002056,-0.000449,0.03,-0.27,9.84
233046518,-0.000948,0.003118,-0.000448,0.03,-0.31,9.82
233047530,-0.000947,0.002051,0.000616,0.03,-0.32,9.76
233048538,0.001182,-0.000080,0.001680,0.05,-0.30,9.80
233049551,0.002245,-0.001144,0.000614,0.08,-0.30,9.86
233050561,0.000114,-0.001143,-0.002579,0.07,-0.31,9.78
233051570,-0.000950,-0.001141,-0.003641,0.05,-0.32,9.78
233052578,0.000115,-0.000076,-0.002573,0.05,-0.31,9.86
233053590,0.000115,0.000988,-0.002570,0.06,-0.27,9.86
233054606,0.000115,0.002051,-0.002568,0.06,-0.29,9.88
233055610,0.002243,0.002049,-0.003629,0.09,-0.31,9.86
233056618,0.002241,0.002047,-0.002561,0.07,-0.32,9.79
233057630,0.000110,0.002045,-0.000430,0.08,-0.33,9.77
233058638,-0.000954,0.000979,-0.001494,0.10,-0.28,9.80
233059651,-0.000953,-0.000086,-0.000429,0.08,-0.30,9.82
233060661,-0.000952,0.000978,0.000636,0.08,-0.33,9.81
233061670,-0.002015,0.000977,-0.002557,0.04,-0.31,9.82
233062678,-0.004142,0.002040,-0.004683,0.05,-0.29,9.82
233063690,-0.006266,-0.000090,-0.003614,0.07,-0.27,9.79
233064698,-0.004131,-0.002219,-0.001482,0.05,-0.29,9.77
233065710,-0.000934,-0.003281,-0.001480,0.05,-0.32,9.83
233066718,-0.000933,-0.002213,-0.000415,0.07,-0.29,9.87
233067730,0.000132,-0.000082,-0.000414,0.07,-0.30,9.85
233068738,0.000132,-0.000082,-0.001478,0.06,-0.31,9.80
233069751,0.000131,-0.001146,-0.002541,0.07,-0.29,9.75
233070764,0.001196,-0.001145,-0.002538,0.09,-0.28,9.76
233071771,0.001194,-0.000080,-0.001472,0.08,-0.31,9.85
233072782,0.001193,-0.000080,0.000658,0.09,-0.30,9.90
233073792,0.000128,-0.001144,0.000658,0.09,-0.27,9.79
233074827,0.001192,-0.001143,0.001721,0.10,-0.26,9.79
233075823,0.000126,-0.001142,0.000655,0.10,-0.26,9.82
233076821,-0.002002,-0.002205,-0.001474,0.07,-0.27,9.83
233077837,-0.000936,-0.002202,-0.001472,0.08,-0.30,9.90
233078842,0.000129,-0.001136,-0.000407,0.10,-0.32,9.86
233079857,0.000129,-0.000071,0.001722,0.08,-0.29,9.85
233080883,0.000129,0.000994,0.000656,0.05,-0.26,9.86
233081881,-0.000935,-0.000072,-0.000409,0.03,-0.28,9.79
233082884,-0.000934,-0.000072,-0.002537,0.06,-0.29,9.74
233083896,-0.000934,-0.000071,-0.000406,0.12,-0.32,9.74
233084906,-0.000933,-0.002200,0.002787,0.11,-0.30,9.79
233085920,0.000133,-0.002198,0.002784,0.07,-0.28,9.83
233086925,-0.001996,-0.000067,0.000653,0.05,-0.29,9.83
233087938,-0.003058,-0.000067,-0.000412,0.06,-0.29,9.81
233088945,-0.000927,-0.002195,-0.000411,0.06,-0.29,9.77
233089955,0.000138,-0.001129,-0.000411,0.05,-0.28,9.75
233090961,-0.000926,0.002065,0.001718,0.04,-0.26,9.80
233091970,-0.000925,0.002063,0.002781,0.05,-0.27,9.82
233092981,0.001204,0.000997,0.001714,0.08,-0.34,9.80
233093994,0.003332,-0.002197,0.000648,0.07,-0.34,9.82
233095001,0.002264,-0.002195,0.001711,0.09,-0.31,9.80
233096012,-0.001995,0.001000,-0.001483,0.05,-0.31,9.78
233097020,-0.000929,0.002063,-0.001482,0.04,-0.31,9.77
233098030,0.001200,0.002061,-0.000416,0.07,-0.30,9.82
233099038,0.001199,-0.001134,-0.000416,0.07,-0.28,9.82
233100051,0.001198,-0.001132,0.000649,0.08,-0.30,9.78
233101061,0.002261,-0.000067,0.001713,0.07,-0.32,9.82
233102070,0.002259,-0.000067,0.001711,0.05,-0.32,9.86
233103078,-0.002000,-0.000067,-0.000419,0.08,-0.30,9.85
233104090,-0.005191,-0.000067,-0.000419,0.09,-0.28,9.81
233105098,-0.004121,0.000997,-0.001483,0.06,-0.28,9.81
233106110,-0.000925,0.002061,-0.000417,0.06,-0.31,9.85
233107118,0.001205,0.004187,-0.001481,0.05,-0.30,9.82
233108130,0.003332,0.002054,-0.002543,0.04,-0.28,9.80
233109138,0.003328,0.000988,-0.002541,0.07,-0.31,9.79
233110151,0.002261,-0.000077,-0.002538,0.06,-0.28,9.80
233111161,0.002259,0.000987,-0.001472,0.04,-0.27,9.84
233112170,0.002256,0.000986,-0.001470,0.06,-0.29,9.82
233113178,0.001190,-0.001143,-0.001469,0.07,-0.27,9.76
233114190,0.002253,-0.001142,-0.001467,0.06,-0.28,9.75
233115198,0.002251,-0.000077,-0.000401,0.08,-0.30,9.77
233116210,0.002248,-0.000077,0.000663,0.09,-0.30,9.85
233117237,0.000118,-0.001141,-0.002530,0.07,-0.28,9.86
233118218,0.001183,0.002055,-0.002530,0.13,-0.22,9.76
233119232,0.009705,0.022295,0.015580,0.03,-0.32,9.80
233120238,0.018227,0.022295,0.016645,-0.06,-0.36,9.83
233121248,0.007575,0.009512,-0.004661,0.00,-0.33,9.71
233122257,-0.004144,0.000990,-0.022770,0.04,-0.49,9.71
233123265,-0.004144,-0.002206,-0.032358,0.08,-0.51,9.82
233124277,-0.000948,-0.005402,-0.039815,0.28,-0.55,9.91
233125285,-0.002013,-0.005402,-0.041945,0.46,-0.18,9.89
233126297,0.000118,-0.001141,-0.032358,0.26,0.38,9.78
233127305,-0.005209,0.000990,-0.019575,-0.06,0.26,9.94
233128317,-0.004144,0.000990,-0.002530,-0.50,-0.45,9.92
233129325,0.010770,-0.003271,0.004927,-0.43,-0.96,9.60
233130338,0.021423,-0.004337,-0.004661,0.66,-0.35,9.28
233131348,0.004379,0.008447,-0.013183,1.07,0.74,9.88
233132357,-0.028645,0.024426,0.001731,-0.20,-0.05,10.71
233133365,-0.024384,0.015904,0.016645,-1.12,-2.06,10.18
233134377,0.024619,-0.018185,0.002796,0.24,-0.32,9.10
233135385,0.029945,-0.021381,-0.009987,1.30,1.79,9.13
233136397,-0.038232,0.022295,0.013449,-0.50,-1.85,9.96
233137405,-0.031841,0.024426,0.020906,-1.16,-1.73,9.49
233138417,0.041664,-0.013924,0.002796,1.22,2.39,10.19
233139427,-0.009470,-0.001141,0.011319,0.72,-1.78,10.73
233140438,-0.051016,0.008447,0.014514,-1.63,-1.30,8.37
233141448,0.044859,-0.020316,0.009188,0.82,2.15,9.81
233142457,0.008640,0.012708,0.023037,1.57,-3.09,12.35
233143465,-0.035037,0.030818,0.013449,-1.74,0.97,8.00
233144477,0.055512,-0.017120,0.017710,0.21,-0.14,8.05
233145485,0.022489,-0.016055,0.011319,0.69,-0.63,12.46
233146497,0.015032,0.013773,-0.001465,-0.71,1.00,8.23
233147505,0.002248,0.026556,0.009188,0.29,-2.66,9.17
233148517,0.002248,-0.007533,0.000666,0.81,2.13,10.03
233149525,0.083210,0.018034,0.020906,0.27,-1.22,9.44
233150538,0.028880,0.014838,0.010253,0.33,-0.67,8.30
233151548,0.045925,-0.030969,0.015580,0.52,-0.26,11.65
233152557,0.059773,-0.033099,0.013449,0.80,-0.67,10.37
233153565,0.051251,-0.063992,0.029428,0.15,-0.18,8.79
233154577,0.043794,-0.024577,0.033689,-0.07,-1.25,11.85
233155585,0.022489,-0.061862,0.043277,0.98,1.22,9.03
233156597,-0.037167,-0.012859,0.040081,-0.18,-1.83,10.64
233157605,-0.043559,0.004186,0.037951,-0.31,0.73,10.22
233158620,-0.029710,-0.028838,0.045408,0.26,-0.34,9.27
233159626,0.003313,-0.024577,0.058191,-0.51,0.67,7.37
233160637,-0.007339,-0.019251,0.066713,-0.23,-0.91,11.79
233161648,0.023554,-0.006467,0.064583,0.42,-1.16,7.68
233162657,0.029945,-0.000076,0.069909,-0.26,1.99,12.35
233163665,0.042729,0.026556,0.078431,0.13,-3.73,11.27
233164677,0.028880,0.046797,0.079497,0.41,1.75,8.56
233165708,-0.038232,0.031883,0.076301,-0.38,-1.10,15.21
233166726,-0.056342,-0.001141,0.067778,0.33,-2.66,4.51
233167705,-0.055277,-0.008598,0.067778,-0.17,3.29,10.36
233168716,-0.030776,-0.001141,0.072040,-0.25,-2.57,10.47
233169726,-0.027580,0.013773,0.066713,1.02,-1.25,4.48
233170749,-0.010535,0.031883,0.068844,-0.72,2.13,12.91
233171785,0.009705,0.029752,0.075235,0.05,-2.62,9.61
233172780,0.034207,-0.003271,0.070974,0.99,-1.90,6.73
233173770,0.025684,-0.009663,0.060322,-0.58,3.06,12.63
233174780,0.024619,-0.005402,0.059256,-0.11,-2.27,10.37
233175792,0.027815,-0.022446,0.059256,0.61,-2.33,6.80
233176803,-0.008405,-0.020316,0.061387,-0.20,3.43,12.38
233177830,-0.044624,-0.004337,0.057126,-0.13,-1.06,13.08
233178828,-0.038232,0.013773,0.061387,0.98,-3.33,7.14
233179836,-0.024384,0.018034,0.066713,0.10,1.80,9.83
233180855,-0.028645,0.012708,0.061387,-0.80,2.70,12.26
233181858,-0.032906,0.014838,0.062452,0.21,-3.85,7.72
233182872,-0.017992,0.007381,0.068844,0.99,-1.93,6.01
233183890,0.002248,0.000990,0.070974,-0.04,4.19,11.74
233184917,0.012901,-0.001141,0.067778,-1.07,0.15,13.62
233185911,0.016097,-0.000076,0.067778,0.82,-4.05,7.98
233186908,0.001183,-0.002206,0.062452,0.91,0.18,7.09
233187915,-0.016927,-0.018185,0.054995,-0.80,3.41,11.84
233188930,-0.008405,-0.028838,0.052865,-0.42,-0.52,12.52
233189937,0.018227,-0.023512,0.058191,0.91,-3.60,7.04
233190960,0.035272,-0.006467,0.051799,0.86,-0.73,6.66
233191977,0.013966,0.007381,0.050734,-0.99,3.31,12.80
233192991,0.004379,0.011643,0.084823,-0.73,1.57,14.00
233193984,0.011836,-0.008598,0.117847,0.52,-4.06,8.92
233195016,0.003313,-0.006467,0.114651,0.00,2.18,9.63
233196011,-0.006274,0.007381,0.090149,-1.53,3.72,13.43
233197029,0.007575,0.002055,0.074170,-0.33,-1.87,10.75
233198038,0.011836,-0.001141,0.079497,0.81,-4.89,6.40
233199018,0.019293,0.006316,0.097606,0.72,-0.38,5.96
233200026,0.023554,0.004186,0.112520,-0.42,2.62,11.20
233201038,0.017162,-0.002206,0.115716,-1.42,3.38,14.42
233202050,-0.003078,-0.007533,0.115716,-0.11,-2.04,10.97
233203058,-0.008405,-0.013924,0.114651,0.84,-4.48,6.67
233204066,-0.003078,-0.007533,0.129565,0.69,-0.63,6.04
233205078,-0.005209,-0.004337,0.138087,0.13,1.54,10.67
233206118,-0.007339,-0.003271,0.124238,-1.16,3.53,14.64
233207098,-0.009470,-0.004337,0.112520,-0.76,0.56,12.54
233208105,-0.004144,-0.012859,0.108259,0.47,-4.25,7.66
233209120,0.004379,-0.020316,0.112520,0.66,-2.74,5.33
233210127,0.016097,-0.020316,0.132761,0.68,-0.03,7.66
233211138,0.012901,-0.008598,0.157262,-0.05,2.62,12.77
233212150,0.003313,-0.005402,0.158327,-1.31,3.95,14.42
233213158,0.002248,-0.003271,0.162588,-0.46,-0.55,10.81
233214166,-0.000948,-0.001141,0.166850,0.55,-4.29,7.01
233215198,0.000118,-0.009663,0.161523,0.45,-2.37,5.25
233216214,0.004379,-0.016055,0.153001,0.88,-0.54,7.65
233217198,0.003313,-0.011794,0.150870,0.42,1.34,12.55
233218205,0.009705,-0.003271,0.150870,-1.05,3.97,14.90
233219217,0.012901,-0.000076,0.155132,-1.08,2.13,12.47
233220227,0.002248,-0.006467,0.163654,0.27,-2.92,8.41
233221238,-0.008405,-0.007533,0.170045,0.54,-4.08,5.88
233222250,-0.000948,-0.013924,0.167915,0.65,-1.77,5.65
233223258,-0.000948,-0.008598,0.164719,1.04,-0.45,8.94
233224266,0.001183,-0.001141,0.164719,0.31,1.67,13.68
233225278,0.007575,-0.008598,0.159393,-0.97,3.90,14.74
233226286,-0.000948,-0.004337,0.149805,-1.14,2.40,11.75
233227298,-0.010535,0.009512,0.148740,-0.17,-2.17,8.39
233228306,-0.004144,0.010577,0.162588,0.39,-4.06,6.04
233229320,0.005444,-0.002206,0.178568,0.52,-2.52,5.82
233230327,0.011836,-0.011794,0.184959,1.04,-1.16,7.93
233231338,0.013966,-0.017120,0.182829,1.11,0.17,11.33
233232350,0.009705,-0.011794,0.178568,-0.26,2.49,14.53
233233358,-0.007339,0.005251,0.175372,-1.42,4.11,14.01
233234366,-0.017992,0.015904,0.155132,-1.06,1.80,10.67
233235378,-0.005209,0.006316,0.124238,-0.27,-2.38,8.25
233236386,-0.000948,-0.009663,0.123173,0.18,-3.76,6.26
233237398,0.005444,-0.007533,0.140218,0.32,-2.65,6.05
233238406,-0.009470,0.002055,0.142348,0.88,-1.58,7.52
233239417,0.004379,-0.011794,0.130630,1.13,-0.59,10.11
233240427,-0.009470,-0.000076,0.138087,0.24,1.61,13.31
233241438,-0.000948,-0.011794,0.128499,-0.94,3.65,14.21
233242450,0.013966,-0.002206,0.126369,-1.48,3.33,12.61
233243458,-0.016927,0.009512,0.135956,-0.98,0.51,9.88
233244466,-0.006274,-0.008598,0.113586,-0.28,-2.50,7.72
233245478,0.037402,-0.013924,0.103998,0.07,-3.52,6.57
233246486,0.022489,0.016969,0.134891,0.35,-3.06,6.38
233247498,-0.046755,0.035079,0.158327,0.82,-2.12,7.26
233248506,-0.079778,0.010577,0.143413,1.00,-0.83,9.42
233249520,-0.038232,-0.030969,0.105063,0.44,1.25,12.55
233250527,0.044859,-0.059731,0.075235,-0.48,3.28,14.33
233251538,0.114103,-0.065058,0.061387,-1.26,3.72,13.73
233252550,0.143931,-0.051209,0.063517,-1.22,2.06,11.38
233253558,0.142865,-0.032034,0.079497,-0.66,-0.78,8.81
233254566,0.133278,-0.021381,0.092280,-0.16,-3.04,7.39
233255578,0.130082,-0.033099,0.090149,0.10,-3.70,6.76
233256586,0.130082,-0.059731,0.073105,0.39,-3.06,6.54
233257598,0.118364,-0.076776,0.063517,0.88,-2.16,7.23
233258605,0.081079,-0.066123,0.076301,1.07,-0.84,9.25
233259620,0.016097,-0.036295,0.102933,0.64,1.11,11.97
233260626,-0.047820,0.003120,0.128499,-0.27,3.11,14.13
233261638,-0.071256,0.040405,0.139152,-0.98,3.93,14.05
233262650,-0.029710,0.042536,0.127434,-1.19,2.69,12.01
233263658,0.035272,0.002055,0.101867,-0.90,0.26,9.76
233264666,0.044859,-0.034165,0.093345,-0.48,-2.03,8.09
233265678,-0.005209,-0.016055,0.113586,-0.17,-3.44,7.18
233266686,-0.027580,0.014838,0.123173,0.16,-3.52,6.76
233267698,0.005444,-0.001141,0.101867,0.49,-2.68,6.80
233268707,0.008640,-0.016055,0.100802,0.92,-1.79,7.70
233269720,-0.016927,0.008447,0.121043,1.05,-0.34,9.77
233270726,0.004379,0.000990,0.109324,0.58,1.51,12.42
233271738,0.010770,-0.016055,0.096541,-0.25,3.08,14.27
233272750,-0.009470,0.007381,0.111455,-0.94,3.76,14.03
233273762,-0.000948,0.006316,0.115716,-1.19,2.73,12.15
233274772,-0.005209,-0.001141,0.118912,-1.02,0.55,9.94
233275781,-0.006274,0.002055,0.111455,-0.63,-1.56,8.21
233276794,0.002248,-0.010728,0.094410,-0.28,-3.02,7.40
233277803,-0.010535,0.006316,0.103998,0.01,-3.49,6.95
233278812,-0.004144,0.014838,0.108259,0.35,-3.01,6.73
233279849,-0.008405,0.015904,0.116781,0.76,-2.27,7.10
233280843,-0.000948,0.004186,0.106129,1.09,-1.11,8.54
233281844,-0.000948,-0.009663,0.098672,0.97,0.36,10.82
233282860,0.001183,-0.004337,0.096541,0.40,2.07,13.20
233283869,-0.002013,0.004186,0.103998,-0.36,3.39,14.34
233284873,0.000118,0.009512,0.108259,-0.96,3.33,13.46
233285885,0.001183,0.002055,0.098672,-1.14,2.10,11.34
233286891,0.004379,-0.007533,0.088019,-0.97,0.16,9.34
233287908,0.002248,-0.012859,0.081627,-0.58,-1.77,8.24
233288917,-0.006274,0.004186,0.094410,-0.26,-3.07,7.48
233289928,-0.000948,0.006316,0.099737,-0.02,-3.46,6.98
233290933,0.000118,0.008447,0.095476,0.36,-3.03,6.83
233291943,0.006509,-0.009663,0.081627,0.83,-2.20,7.25
233292952,0.001183,-0.010728,0.070974,1.16,-1.30,8.36
233293959,-0.012666,-0.000076,0.078431,1.09,0.13,10.45
233294970,-0.008405,0.007381,0.082692,0.52,1.80,12.95
233295982,-0.000948,-0.000076,0.078431,-0.84,3.44,13.71
233296990,0.003313,-0.011794,0.065648,-1.09,2.54,11.70
233298001,-0.002013,-0.008598,0.062452,-0.96,0.69,9.71
233299008,-0.003078,0.005251,0.069909,-0.66,-1.29,8.33
233300020,0.000118,0.010577,0.073105,-0.34,-2.70,7.76
233301026,0.000118,0.009512,0.067778,0.00,-3.40,7.37
233302038,0.002248,-0.008598,0.053930,0.33,-3.20,6.98
233303050,0.001183,-0.012859,0.041146,0.76,-2.59,6.91
233304058,-0.008405,0.008447,0.049669,1.11,-1.63,7.82
233305066,-0.005209,0.010577,0.058191,1.16,-0.56,9.58
233306078,-0.005209,0.010577,0.060322,0.91,0.99,11.85
233307086,-0.011600,0.004186,0.057126,0.19,2.60,13.76
233308098,-0.002013,-0.009663,0.044342,-0.59,3.32,14.07
233309107,-0.002013,-0.000076,0.040081,-0.94,3.02,12.56
233310120,-0.009470,0.014838,0.051799,-1.02,1.59,10.58
233311126,-0.008405,0.011643,0.058191,-0.77,-0.30,9.20
233312138,-0.006274,-0.003271,0.049669,-0.44,-1.98,8.15
233313150,-0.003078,-0.006467,0.039016,-0.13,-3.10,7.56
233314158,0.000118,-0.007533,0.035820,0.19,-3.39,7.15
233315166,0.000118,-0.001141,0.035820,0.56,-2.98,6.84
233316178,-0.009470,0.019099,0.046473,0.99,-2.34,7.09
233317186,-0.009470,0.014838,0.049669,1.22,-1.18,8.27
233318198,0.002248,-0.000076,0.034755,1.09,0.11,10.36
233319205,-0.000948,-0.000076,0.026233,0.73,1.65,12.77
233320220,0.000118,-0.000076,0.029428,-0.02,3.06,14.18
233321226,0.004379,0.002055,0.034755,-0.77,3.46,13.82
233322238,-0.005209,0.012708,0.042212,-1.02,2.65,11.89
233323250,-0.008405,0.008447,0.042212,-0.98,0.94,9.85
233324258,-0.000948,-0.007533,0.030494,-0.63,-0.92,8.75
233325266,0.000118,-0.011794,0.019841,-0.30,-2.52,7.97
233326278,-0.005209,0.002055,0.027298,-0.05,-3.31,7.32
233327286,-0.004144,0.007381,0.044342,0.33,-3.34,6.96
233328298,0.000118,0.008447,0.049669,0.76,-2.61,7.02
233329307,-0.007339,0.008447,0.047538,1.19,-1.83,7.53
233330320,0.000118,-0.010728,0.034755,1.37,-0.68,9.10
233331326,0.003313,-0.010728,0.027298,1.05,0.86,11.49
233332338,-0.008405,0.007381,0.041146,0.46,2.33,13.65
233333350,-0.005209,0.010577,0.050734,-0.36,3.55,14.34
233334358,-0.004144,0.004186,0.046473,-0.92,3.42,13.22
233335366,-0.006274,-0.004337,0.036885,-0.97,1.97,11.02
233336378,-0.003078,-0.013924,0.030494,-0.77,0.10,9.18
233337386,0.000118,-0.008598,0.033689,-0.41,-1.71,8.35
233338398,-0.005209,0.012708,0.046473,-0.11,-2.97,7.75
233339405,-0.005209,0.021230,0.053930,0.15,-3.40,7.25
233340420,0.000118,0.007381,0.039016,0.56,-3.14,6.83
233341426,-0.004144,0.004186,0.026233,1.02,-2.23,7.13
233342438,-0.005209,-0.001141,0.026233,1.39,-1.36,8.07
233343450,-0.003078,0.004186,0.035820,1.42,-0.05,10.02
233344458,-0.013731,0.019099,0.056060,0.90,1.62,12.67
233345466,-0.008405,0.005251,0.057126,0.13,2.95,14.31
233346478,-0.005209,-0.004337,0.045408,-0.59,3.48,13.88
233347486,-0.007339,-0.004337,0.036885,-0.98,2.73,12.07
233348498,-0.002013,-0.000076,0.039016,-0.91,1.04,10.02
233349507,-0.000948,0.007381,0.049669,-0.68,-0.89,8.55
233350520,-0.002013,0.015904,0.056060,-0.30,-2.46,8.01
233351526,0.001183,0.000990,0.053930,0.09,-3.32,7.49
233352538,0.003313,-0.010728,0.041146,0.38,-3.34,6.94
233353550,-0.000948,-0.003271,0.045408,0.83,-2.79,6.76
233354558,0.006509,-0.005402,0.049669,1.28,-1.75,7.52
233355566,-0.002013,0.007381,0.060322,1.48,-0.74,9.14
233356578,-0.004144,-0.000076,0.062452,1.26,0.76,11.56
233357586,0.001183,-0.010728,0.051799,0.50,2.51,13.81
233358597,-0.005209,-0.008598,0.046473,-0.37,3.44,14.46
233359607,0.003313,-0.001141,0.047538,-0.90,3.21,12.87
233360618,-0.000948,0.012708,0.060322,-1.05,1.81,10.65
233361626,-0.000948,0.014838,0.067778,-0.75,-0.22,9.18
233362638,0.000118,-0.003271,0.063517,-0.35,-2.09,8.22
233363650,-0.000948,-0.013924,0.050734,0.00,-3.24,7.65
233364658,-0.005209,-0.006467,0.056060,0.35,-3.51,7.05
233365666,-0.002013,0.005251,0.062452,0.68,-2.97,6.81
233366678,-0.011600,0.025491,0.078431,1.11,-2.23,7.08
233367713,-0.002013,0.007381,0.072040,1.48,-1.05,8.55
233368729,-0.003078,0.000990,0.062452,1.27,0.48,11.09
233369707,-0.000948,-0.009663,0.054995,0.65,2.15,13.49
233370743,-0.005209,-0.000076,0.063517,-0.23,3.46,14.35
233371726,-0.009470,0.005251,0.076301,-0.90,3.46,13.24
233372737,-0.004144,0.004186,0.077366,-1.05,2.17,10.98
233373750,0.000118,-0.005402,0.061387,-0.88,0.21,9.14
233374762,0.003313,-0.003271,0.052865,-0.43,-1.77,8.40
233375787,0.004379,-0.003271,0.052865,-0.09,-3.11,7.82
233376780,0.000118,0.016969,0.069909,0.16,-3.57,7.18
233377793,0.006509,0.006316,0.072040,0.60,-3.29,6.79
233378804,0.005444,0.003120,0.068844,1.11,-2.30,7.12
233379814,0.011836,-0.022446,0.056060,1.43,-1.33,8.29
233380823,0.002248,-0.013924,0.054995,1.36,0.15,10.68
233381837,0.001183,-0.007533,0.060322,0.66,2.02,13.28
233382861,-0.006274,0.011643,0.072040,-0.27,3.30,14.44
233383869,0.003313,0.002055,0.065648,-0.88,3.52,13.27
233384871,0.001183,-0.007533,0.057126,-1.15,2.32,11.11
233385872,0.007575,-0.012859,0.047538,-0.84,0.21,9.38
233386885,0.000118,-0.006467,0.058191,-0.40,-1.83,8.27
233387893,-0.000948,0.008447,0.069909,-0.05,-3.24,7.69
233388939,0.000118,-0.002206,0.072040,0.32,-3.72,7.13
233389930,0.001183,-0.002206,0.062452,0.66,-3.24,6.83
233390930,0.011836,-0.020316,0.047538,1.18,-2.48,7.04
233391934,-0.000948,-0.001141,0.054995,1.54,-1.14,8.58
233392947,0.007575,0.002055,0.059256,1.25,0.46,11.15
233393956,-0.004144,0.012708,0.069909,0.53,2.22,13.65
233394994,0.003313,-0.012859,0.051799,-1.07,3.47,13.03
233395996,-0.000948,-0.001141,0.056060,-1.12,1.94,10.69
233397015,0.002248,0.000990,0.061387,-0.82,-0.27,8.89
233398009,-0.007339,0.014838,0.077366,-0.35,-2.28,8.14
233399017,0.003313,0.003120,0.067778,0.04,-3.47,7.55
233400016,0.004379,-0.017120,0.053930,0.34,-3.61,6.87
233401024,-0.000948,-0.001141,0.054995,0.81,-3.06,6.61
233402030,0.011836,-0.002206,0.056060,1.36,-1.91,7.46
233403049,-0.009470,0.014838,0.075235,1.48,-0.73,9.52
233404058,0.002248,0.004186,0.068844,1.12,1.07,12.28
233405085,0.007575,-0.019251,0.056060,0.19,3.04,14.21
233406080,-0.007339,-0.004337,0.060322,-0.80,3.77,14.13
233407090,0.001183,0.002055,0.059256,-1.15,3.01,12.01
233408114,-0.009470,0.006316,0.073105,-1.05,1.04,9.78
233409116,-0.010535,0.015904,0.083758,-0.62,-1.30,8.61
233410134,0.013966,-0.012859,0.062452,-0.14,-3.07,7.72
233411117,0.004379,-0.016055,0.060322,0.15,-3.70,7.11
233412124,-0.006274,0.008447,0.074170,0.57,-3.44,6.67
233413137,0.010770,-0.004337,0.070974,1.12,-2.45,6.96
233414148,-0.008405,-0.000076,0.077366,1.44,-1.36,8.41
233415157,-0.010535,0.006316,0.070974,1.39,0.33,10.99
233416192,0.015032,-0.019251,0.051799,0.59,2.40,13.66
233417177,-0.000948,-0.006467,0.067778,-0.48,3.71,14.62
233418184,-0.006274,0.019099,0.088019,-1.07,3.67,12.98
233419200,0.016097,-0.006467,0.075235,-1.14,1.94,10.56
233420206,0.003313,-0.021381,0.066713,-0.76,-0.51,8.94
233421245,-0.011600,-0.001141,0.072040,-0.27,-2.63,7.90
233422247,0.008640,-0.004337,0.063517,0.04,-3.70,7.20
233423262,-0.000948,-0.004337,0.075235,0.41,-3.62,6.77
233424249,-0.021188,0.021230,0.095476,0.89,-2.71,6.84
233425256,0.007575,-0.000076,0.075235,1.36,-1.71,7.89
233426265,0.015032,-0.024577,0.056060,1.42,-0.07,10.38
233427277,-0.016927,0.006316,0.077366,0.74,2.01,13.24
233428285,-0.004144,0.019099,0.086954,-0.29,3.48,14.68
233429297,0.015032,-0.008598,0.074170,-1.04,3.83,13.45
233430306,-0.007339,-0.006467,0.077366,-1.26,2.44,11.07
233431317,-0.006274,0.011643,0.079497,-0.91,-0.04,9.21
233432325,0.019293,-0.003271,0.066713,-0.38,-2.28,8.04
233433337,0.000118,-0.003271,0.078431,-0.01,-3.57,7.35
233434348,-0.023319,0.019099,0.098672,0.35,-3.69,6.85
233435386,0.008640,-0.003271,0.076301,0.81,-2.87,6.75
233436365,0.023554,-0.033099,0.057126,1.36,-1.95,7.40
233437376,-0.013731,0.000990,0.081627,1.47,-0.38,9.74
233438385,-0.017992,0.029752,0.095476,0.91,1.64,12.71
233439400,0.015032,-0.003271,0.073105,-0.08,3.35,14.54
233440406,0.007575,-0.022446,0.064583,-1.00,3.90,13.89
233441417,-0.014796,0.000990,0.077366,-1.32,2.72,11.51
233442425,0.005444,0.005251,0.073105,-0.96,0.32,9.41
233443437,0.016097,-0.013924,0.069909,-0.41,-2.13,8.13
233444448,-0.015862,-0.002206,0.093345,-0.08,-3.52,7.36
233445457,-0.012666,0.010577,0.093345,0.21,-3.72,6.91
233446465,0.028880,-0.019251,0.057126,0.68,-2.95,6.82
233447477,0.018227,-0.024577,0.056060,1.29,-2.04,7.39
233448485,-0.020123,0.021230,0.092280,1.47,-0.56,9.50
233449497,-0.000948,0.023361,0.092280,0.93,1.37,12.48
233450506,0.028880,-0.023512,0.063517,-0.08,3.16,14.49
233451517,0.000118,-0.021381,0.068844,-0.97,3.99,13.94
233452525,-0.024384,0.018034,0.091215,-1.43,2.97,11.77
233453537,0.001183,0.011643,0.081627,-1.10,0.56,9.62
233454548,0.009705,-0.020316,0.067778,-0.49,-1.94,8.27
233455557,-0.019057,-0.007533,0.079497,-0.09,-3.44,7.50
233456565,-0.016927,0.012708,0.081627,0.26,-3.81,6.75
233457577,0.020358,-0.006467,0.061387,0.63,-3.14,6.55
233458585,0.012901,-0.012859,0.064583,1.19,-2.24,7.22
233459600,-0.023319,0.021230,0.089084,1.48,-0.71,9.29
233460606,-0.006274,0.019099,0.080562,0.95,1.22,12.36
233461617,0.027815,-0.024577,0.048603,-0.08,3.13,14.52
233462625,0.003313,-0.024577,0.058191,-0.95,4.09,14.01
233463637,-0.028645,0.018034,0.092280,-1.41,3.05,11.90
233464648,0.000118,0.012708,0.082692,-1.06,0.67,9.65
233465657,0.028880,-0.033099,0.048603,-0.51,-1.84,8.15
233466665,0.001183,-0.025642,0.057126,-0.19,-3.42,7.48
233467677,-0.021188,0.020165,0.083758,0.19,-3.81,6.83
233468685,0.011836,0.016969,0.073105,0.57,-3.13,6.63
233469702,0.034207,-0.021381,0.051799,1.14,-2.25,7.26
233470705,-0.003078,-0.012859,0.059256,1.44,-0.71,9.18
233471717,-0.017992,0.014838,0.067778,0.97,1.14,12.27
233472725,0.015032,-0.001141,0.052865,0.00,3.00,14.54
233473737,0.013966,-0.020316,0.052865,-0.91,4.06,14.09
233474745,-0.022253,0.000990,0.074170,-1.43,3.04,11.94
233475758,-0.009470,0.011643,0.069909,-1.13,0.77,9.66
233476769,0.029945,-0.017120,0.042212,-0.54,-1.71,8.16
233477779,0.013966,-0.017120,0.047538,-0.13,-3.35,7.55
233478793,-0.023319,0.023361,0.079497,0.16,-3.78,7.03
233479807,-0.005209,0.023361,0.069909,0.52,-3.16,6.74
233480812,0.031011,-0.024577,0.035820,1.10,-2.29,7.29
233481826,0.003313,-0.023512,0.043277,1.47,-0.83,9.18
233482836,-0.032906,0.023361,0.077366,1.05,1.02,12.13
233483847,-0.005209,0.023361,0.070974,0.03,2.90,14.38
233484872,0.022489,-0.019251,0.042212,-0.93,3.95,13.94
233485866,-0.006274,-0.013924,0.047538,-1.48,3.08,11.90
233486871,-0.025449,0.024426,0.063517,-1.10,0.86,9.72
233487882,0.004379,0.016969,0.051799,-0.56,-1.57,8.22
233488893,0.016097,-0.010728,0.041146,-0.25,-3.28,7.54
233489910,-0.017992,-0.000076,0.056060,0.13,-3.82,6.99
233490916,-0.022253,0.018034,0.056060,0.54,-3.26,6.71
233491926,0.016097,-0.008598,0.030494,1.13,-2.38,7.12
233492933,0.010770,-0.021381,0.032624,1.45,-0.93,9.05
233493942,-0.029710,0.013773,0.064583,1.03,0.94,12.02
233494948,-0.013731,0.022295,0.058191,0.11,2.77,14.24
233495957,0.020358,-0.026708,0.021971,-1.41,3.23,12.11
233496969,-0.020123,0.021230,0.058191,-1.11,0.95,9.90
233497981,-0.006274,0.028687,0.059256,-0.54,-1.49,8.34
233498991,0.027815,-0.019251,0.023037,-0.12,-3.22,7.62
233500004,0.005444,-0.032034,0.018776,0.22,-3.83,7.02
233501008,-0.027580,0.014838,0.045408,0.55,-3.31,6.64
233502017,-0.006274,0.025491,0.045408,1.13,-2.43,7.04
233503025,0.024619,-0.012859,0.026233,1.49,-0.99,8.97
233504037,0.001183,-0.017120,0.031559,1.11,0.87,11.95
233505045,-0.019057,0.009512,0.042212,0.18,2.83,14.28
233506057,0.011836,0.003120,0.026233,-0.81,3.99,14.22
233507065,0.021423,-0.014990,0.021971,-1.35,3.27,12.28
233508077,-0.016927,0.006316,0.049669,-1.10,1.04,9.99
233509085,-0.022253,0.020165,0.054995,-0.63,-1.41,8.38
233510102,0.017162,-0.012859,0.018776,-0.18,-3.18,7.60
233511105,0.016097,-0.028838,0.012384,0.19,-3.83,7.01
233512117,-0.024384,0.018034,0.051799,0.52,-3.31,6.62
233513125,-0.016927,0.036144,0.058191,1.09,-2.47,6.89
233514137,0.025684,-0.011794,0.018776,1.47,-0.99,8.77
233515145,0.008640,-0.028838,0.010253,1.13,0.81,11.81
233516157,-0.028645,0.014838,0.042212,0.24,2.74,14.26
233517165,-0.005209,0.028687,0.050734,-0.72,3.92,14.32
233518177,0.027815,-0.011794,0.029428,-1.36,3.25,12.35
233519187,0.001183,-0.020316,0.030494,-1.12,1.12,9.93
233520202,-0.026514,0.011643,0.044342,-0.57,-1.36,8.27
233521205,0.003313,0.013773,0.032624,-0.15,-3.18,7.58
233522217,0.026750,-0.011794,0.020906,0.17,-3.86,6.96
233523225,-0.006274,-0.001141,0.041146,0.52,-3.35,6.59
233524237,-0.022253,0.021230,0.052865,1.07,-2.49,6.92
233525245,0.017162,-0.005402,0.025167,1.47,-1.00,8.67
233526257,0.025684,-0.029903,0.014514,1.19,0.77,11.65
233527265,-0.015862,0.004186,0.049669,0.32,2.61,14.12
233528277,-0.017992,0.028687,0.063517,-0.68,3.87,14.28
233529285,0.026750,-0.011794,0.028363,-1.28,3.22,12.52
233530302,0.025684,-0.039491,0.011319,-1.03,1.19,10.15
233531305,-0.017992,0.000990,0.042212,-0.58,-1.21,8.40
233532317,-0.010535,0.029752,0.056060,-0.14,-3.13,7.68
233533325,0.027815,-0.007533,0.030494,0.20,-3.87,7.05
233534337,0.016097,-0.027773,0.023037,0.52,-3.46,6.56
233535345,-0.019057,0.007381,0.042212,1.07,-2.66,6.80
233536357,-0.002013,0.018034,0.039016,1.44,-1.22,8.62
233537365,0.021423,-0.010728,0.026233,1.24,0.53,11.43
233538377,-0.006274,-0.011794,0.037951,0.49,2.40,13.91
233539387,-0.024384,0.012708,0.045408,-0.45,3.75,14.38
233540402,0.012901,-0.002206,0.019841,-1.16,3.35,12.73
233541405,0.026750,-0.023512,0.005992,-1.05,1.35,10.39
233542417,-0.013731,0.005251,0.039016,-0.60,-1.05,8.56
233543425,-0.021188,0.036144,0.058191,-0.20,-2.97,7.78
233544437,0.020358,-0.001141,0.026233,0.22,-3.90,7.08
233545445,0.023554,-0.035230,0.005992,0.57,-3.49,6.59
233546457,-0.025449,0.000990,0.037951,1.09,-2.62,6.80
233547465,-0.028645,0.037209,0.058191,1.49,-1.18,8.50
233548477,0.021423,0.005251,0.031559,1.24,0.57,11.34
233549485,0.024619,-0.029903,0.012384,0.45,2.43,13.82
233550502,-0.021188,-0.001141,0.034755,-0.51,3.83,14.37
233551505,-0.020123,0.025491,0.049669,-1.20,3.42,12.82
233552517,0.019293,0.000990,0.031559,-1.10,1.44,10.38
233553525,0.013966,-0.021381,0.026233,-0.68,-1.02,8.52
233554547,-0.024384,0.004186,0.043277,-0.20,-3.02,7.70
233555546,-0.020123,0.020165,0.042212,0.19,-3.87,6.98
233556557,0.018227,-0.008598,0.023037,0.51,-3.47,6.52
233557565,0.008640,-0.021381,0.031559,1.04,-2.59,6.76
233558577,-0.026514,0.010577,0.060322,1.50,-1.14,8.52
233559587,-0.009470,0.019099,0.053930,1.27,0.60,11.49
233560602,0.033141,-0.020316,0.018776,0.40,2.58,13.96
233561605,0.018227,-0.027773,0.023037,-0.64,3.94,14.38
233562617,-0.028645,0.014838,0.065648,-1.29,3.48,12.75
233563625,-0.015862,0.027622,0.068844,-1.11,1.47,10.29
233564644,0.032076,-0.021381,0.027298,-0.63,-1.10,8.49
233565672,0.024619,-0.043752,0.014514,-0.21,-3.07,7.73
233566685,-0.026514,0.000990,0.053930,0.17,-3.85,7.05
233567686,-0.024384,0.035079,0.073105,0.52,-3.43,6.55
233568676,0.027815,-0.002206,0.042212,1.06,-2.60,6.85
233569685,0.034207,-0.039491,0.023037,1.46,-1.13,8.69
233570701,-0.016927,-0.006467,0.052865,1.18,0.66,11.65
233571705,-0.030776,0.036144,0.076301,0.34,2.59,14.08
233572717,0.017162,0.009512,0.054995,-0.72,3.96,14.33
233573725,0.036337,-0.036295,0.029428,-1.38,3.46,12.55
233574744,-0.007339,-0.020316,0.042212,-1.14,1.30,10.16
233575746,-0.032906,0.022295,0.065648,-0.63,-1.27,8.45
233576758,0.002248,0.018034,0.053930,-0.15,-3.18,7.68
233577769,0.031011,-0.022446,0.033689,0.22,-3.86,7.00
233578790,0.001183,-0.020316,0.043277,0.54,-3.35,6.59
233579802,-0.033971,0.020165,0.063517,1.10,-2.50,6.83
233580816,-0.007339,0.025491,0.053930,1.45,-0.99,8.67
233581821,0.034207,-0.011794,0.032624,1.10,0.86,11.76
233582827,0.017162,-0.025642,0.039016,0.22,2.76,14.23
233583840,-0.031841,0.006316,0.064583,-0.77,4.02,14.34
233584847,-0.027580,0.026556,0.064583,-1.40,3.36,12.35
233585859,0.022489,-0.000076,0.036885,-1.13,1.05,9.94
233586882,0.035272,-0.028838,0.029428,-0.57,-1.50,8.31
233587868,-0.009470,-0.009663,0.057126,-0.14,-3.27,7.62
233588882,-0.039298,0.024426,0.077366,0.20,-3.91,7.00
233589919,-0.003078,0.015904,0.053930,0.52,-3.28,6.64
233590921,0.042729,-0.023512,0.023037,1.16,-2.34,7.06
233591934,0.024619,-0.030969,0.033689,1.49,-0.81,9.13
233592956,-0.029710,0.009512,0.072040,1.02,1.14,12.29
233593969,0.020358,-0.001141,0.039016,-0.97,4.11,14.14
233594972,0.041664,-0.035230,0.017710,-1.45,3.13,11.92
233595968,-0.005209,-0.018185,0.044342,-1.11,0.72,9.61
233596961,-0.051016,0.024426,0.076301,-0.49,-1.87,8.14
233597969,-0.024384,0.029752,0.065648,-0.14,-3.54,7.40
233598982,0.038468,-0.012859,0.026233,0.18,-3.82,6.83
233599991,0.042729,-0.039491,0.015580,0.65,-3.05,6.63
233601004,-0.019057,-0.007533,0.051799,1.23,-2.16,7.30
233602037,-0.058473,0.038275,0.082692,1.42,-0.50,9.64
233603037,-0.022253,0.032948,0.061387,0.87,1.57,12.74
233604048,0.038468,-0.018185,0.018776,-0.26,3.41,14.63
233605040,0.038468,-0.042687,0.015580,-1.12,4.15,13.71
233606045,-0.022253,-0.009663,0.054995,-1.36,2.75,11.23
233607071,-0.057408,0.039340,0.081627,-0.96,0.14,9.19
233608094,-0.015862,0.031883,0.059256,-0.36,-2.34,7.89
233609102,0.048055,-0.018185,0.016645,-0.02,-3.69,7.24
233610087,0.049121,-0.042687,0.010253,0.30,-3.74,6.79
233611101,-0.010535,-0.009663,0.046473,0.78,-2.83,6.71
233612106,-0.047820,0.030818,0.070974,1.32,-1.84,7.68
233613118,-0.012666,0.023361,0.048603,1.39,-0.14,10.29
233614133,0.044859,-0.021381,0.013449,0.70,2.02,13.31
233615140,0.042729,-0.041622,0.013449,-0.42,3.63,14.76
233616146,-0.014796,-0.009663,0.048603,-1.16,3.90,13.43
233617158,-0.046755,0.027622,0.067778,-1.23,2.20,10.83
233618166,-0.005209,0.021230,0.045408,-0.83,-0.43,8.91
233619177,0.051251,-0.019251,0.012384,-0.26,-2.72,7.62
233620187,0.040598,-0.036295,0.010253,0.07,-3.83,6.98
233621202,-0.021188,-0.005402,0.044342,0.41,-3.59,6.76
233622206,-0.051016,0.032948,0.065648,0.92,-2.55,6.92
233623218,-0.008405,0.026556,0.046473,1.38,-1.66,8.31
233624233,0.049121,-0.018185,0.012384,1.34,0.22,11.06
233625240,0.038468,-0.038426,0.012384,0.51,2.48,13.74
233626246,-0.026514,-0.004337,0.047538,-0.63,3.74,14.67
233627258,-0.054212,0.037209,0.065648,-1.27,3.71,12.85
233628266,-0.010535,0.029752,0.043277,-1.20,1.77,10.30
233629280,0.046990,-0.011794,0.011319,-0.71,-0.95,8.71
233630287,0.038468,-0.030969,0.011319,-0.12,-3.10,7.50
233631302,-0.024384,-0.000076,0.043277,0.18,-3.90,6.74
233632306,-0.055277,0.041470,0.064583,0.52,-3.43,6.67
233633318,-0.017992,0.035079,0.047538,1.10,-2.28,7.13
233634333,0.037402,-0.012859,0.016645,1.47,-1.24,8.73
233635340,0.036337,-0.040556,0.014514,1.23,0.55,11.69
233636346,-0.021188,-0.017120,0.043277,0.26,2.86,14.07
233637358,-0.055277,0.025491,0.065648,-0.80,3.92,14.38
233638366,-0.017992,0.034013,0.053930,-1.31,3.31,12.20
233639377,0.045925,-0.004337,0.024102,-1.18,1.17,9.66
233640387,0.059773,-0.042687,0.010253,-0.56,-1.58,8.44
233641402,0.006509,-0.036295,0.029428,-0.04,-3.42,7.53
233642406,-0.049951,0.012708,0.062452,0.20,-3.89,6.67
233643418,-0.045689,0.047862,0.074170,0.57,-3.33,6.43
233644433,0.015032,0.026556,0.050734,1.20,-2.05,7.30
233645440,0.065100,-0.028838,0.014514,1.41,-0.73,9.46
233646446,0.050186,-0.058666,0.001731,0.95,1.27,12.62
233647458,-0.017992,-0.025642,0.030494,-0.15,3.45,14.55
233648466,-0.069126,0.038275,0.073105,-1.12,4.05,14.01
233649480,-0.049951,0.062776,0.080562,-1.36,2.77,11.52
233650487,0.022489,0.014838,0.041146,-0.98,0.22,9.18
233651502,0.075753,-0.052274,-0.006791,-0.36,-2.34,8.16
233652506,0.051251,-0.067188,-0.009987,0.01,-3.74,7.38
233653518,-0.025449,-0.011794,0.034755,0.31,-3.83,6.59
233654533,-0.080844,0.053188,0.079497,0.77,-3.13,6.39
233655540,-0.059538,0.070233,0.078431,1.34,-1.70,7.68
233656546,0.013966,0.026556,0.033689,1.31,-0.04,10.57
233657558,0.071491,-0.034165,-0.008922,0.61,2.00,13.63
233658566,0.058708,-0.056535,-0.008922,-0.50,3.86,14.64
233659577,-0.009470,-0.025642,0.029428,-1.37,3.88,13.18
233660587,-0.068060,0.024426,0.066713,-1.24,1.83,10.58
233661602,-0.068060,0.052123,0.074170,-0.74,-0.86,8.64
233662606,-0.016927,0.044666,0.050734,-0.18,-2.99,7.77
233663618,0.045925,0.002055,0.018776,0.20,-3.90,7.11
233664633,0.076818,-0.045883,-0.003595,0.49,-3.50,6.55
233665640,0.045925,-0.060797,-0.000400,1.01,-2.63,6.65
233666646,-0.022253,-0.024577,0.027298,1.43,-1.13,8.58
233667658,-0.073387,0.037209,0.063517,1.16,0.80,11.78
233668667,-0.062734,0.069168,0.077366,0.20,2.90,14.29
233669680,0.002248,0.040405,0.051799,-0.86,4.15,14.26
233670686,0.071491,-0.027773,0.000666,-1.40,3.34,12.15
233671702,0.088536,-0.073580,-0.028097,-1.03,0.80,9.75
233672706,0.039533,-0.061862,-0.005726,-0.42,-1.97,8.20
233673718,-0.033971,-0.008598,0.044342,-0.02,-3.55,7.37
233674733,-0.080844,0.037209,0.077366,0.34,-3.83,6.78
233675740,-0.074452,0.057450,0.076301,0.76,-3.06,6.58
233676769,-0.023319,0.046797,0.052865,1.29,-2.01,7.36
233677763,0.040598,0.012708,0.023037,1.40,-0.30,10.02
233678770,0.084275,-0.035230,-0.002530,0.75,1.93,13.27
233679782,0.081079,-0.071449,-0.015313,-0.34,3.74,14.85
233680793,0.029945,-0.065058,-0.005726,-1.25,4.13,13.48
233681806,-0.042494,-0.013924,0.032624,-1.30,2.33,10.81
233682831,-0.092562,0.048927,0.076301,-0.67,-0.61,8.91
233683833,-0.087235,0.075559,0.090149,-0.09,-2.99,7.78
233684838,-0.032906,0.051058,0.062452,0.15,-3.94,6.99
233685848,0.036337,0.000990,0.019841,0.52,-3.57,6.54
233686858,0.083210,-0.040556,-0.009987,1.06,-2.43,6.92
233687864,0.081079,-0.058666,-0.012118,1.43,-1.17,8.56
233688876,0.036337,-0.053340,0.004927,1.24,0.82,11.66
233689925,-0.026514,-0.023512,0.031559,0.13,3.15,14.23
233690891,-0.079778,0.025491,0.062452,-0.96,4.26,14.30
233691909,-0.097888,0.069168,0.088019,-1.36,3.36,11.96
233692915,-0.060603,0.074494,0.088019,-1.11,0.81,9.52
233693933,0.010770,0.034013,0.053930,-0.41,-2.05,8.18
233694935,0.103450,-0.066123,-0.017444,0.26,-3.82,6.73
233695943,0.077883,-0.066123,-0.009987,0.72,-3.11,6.44
233696950,0.022489,-0.042687,0.015580,1.36,-1.85,7.57
233697959,-0.038232,-0.014990,0.041146,1.39,-0.30,10.24
233698968,-0.085105,0.022295,0.062452,0.73,1.89,13.44
233699983,-0.102149,0.062776,0.081627,-0.49,3.94,14.75
233700990,-0.086170,0.083016,0.090149,-1.41,4.05,13.24
233702004,-0.038232,0.067037,0.075235,-1.25,1.95,10.51
233703009,0.027815,0.020165,0.037951,-0.66,-0.93,8.62
233704025,0.084275,-0.022446,0.001731,-0.03,-3.20,7.68
233705027,0.106646,-0.049078,-0.011052,0.21,-3.96,6.92
233706038,0.095993,-0.061862,-0.008922,0.48,-3.41,6.51
233707046,0.056577,-0.065058,-0.000400,1.13,-2.58,6.96
233708058,-0.000948,-0.046948,0.018776,1.49,-0.98,9.04
233709067,-0.062734,-0.001141,0.047538,1.07,1.17,12.32
233710080,-0.102149,0.053188,0.079497,-0.04,3.33,14.66
233711086,-0.104280,0.080886,0.097606,-1.06,4.39,14.06
233712102,-0.069126,0.069168,0.083758,-1.44,3.10,11.55
233713106,-0.014796,0.039340,0.052865,-0.96,0.17,9.21
233714118,0.038468,0.006316,0.027298,-0.29,-2.61,7.86
233715126,0.081079,-0.022446,0.011319,0.09,-3.86,7.12
233716138,0.103450,-0.051209,-0.002530,0.46,-3.76,6.57
233717146,0.099189,-0.075711,-0.015313,0.86,-2.82,6.63
233718158,0.059773,-0.075711,-0.012118,1.36,-1.66,7.99
233719165,-0.003078,-0.043752,0.016645,1.38,0.31,11.04
233720180,-0.063799,-0.002206,0.052865,0.37,2.84,14.15
233721186,-0.100019,0.029752,0.077366,-0.84,4.26,14.78
233722202,-0.112802,0.048927,0.088019,-1.39,3.77,12.54
233723206,-0.103215,0.064907,0.092280,-1.20,1.24,9.89
233724218,-0.079778,0.077690,0.098672,-0.51,-1.83,8.21
233725226,-0.040363,0.071298,0.094410,0.06,-3.72,7.31
233726238,0.008640,0.042536,0.068844,0.33,-3.95,6.66
233727246,0.052316,0.006316,0.037951,0.68,-3.21,6.42
233728258,0.084275,-0.017120,0.020906,1.28,-2.01,7.37
233729267,0.105580,-0.035230,0.015580,1.41,-0.34,10.06
233730280,0.120494,-0.058666,0.007057,0.75,2.03,13.44
233731286,0.125821,-0.081037,-0.007856,-0.49,4.14,14.81
233732302,0.107711,-0.087429,-0.013183,-1.42,4.17,13.33
233733306,0.071491,-0.075711,-0.002530,-1.26,1.87,10.48
233734318,0.032076,-0.058666,0.016645,-0.70,-1.15,8.54
233735326,-0.004144,-0.049078,0.028363,-0.03,-3.38,7.59
233736338,-0.038232,-0.036295,0.037951,0.26,-4.04,7.00
233737346,-0.075517,-0.003271,0.056060,0.53,-3.40,6.52
233738358,-0.107476,0.032948,0.082692,1.17,-2.49,6.95
233739365,-0.122390,0.057450,0.099737,1.51,-0.85,9.30
233740380,-0.120259,0.063841,0.102933,1.03,1.49,12.63
233741386,-0.108541,0.069168,0.098672,-0.24,3.70,14.80
233742402,-0.091497,0.077690,0.100802,-1.18,4.40,13.83
233743406,-0.059538,0.076625,0.101867,-1.38,2.68,11.19
233744418,-0.015862,0.056384,0.089084,-0.86,-0.43,9.03
233745426,0.031011,0.021230,0.062452,-0.11,-3.11,7.76
233746438,0.068296,-0.004337,0.036885,0.23,-4.07,6.86
