time_us,gyro_x_rad_s,gyro_y_rad_s,gyro_z_rad_s,acc_x_m_s2,acc_y_m_s2,acc_z_m_s2
37111198,-0.001359,0.001586,0.001422,-0.01,-0.27,9.83
37111947,0.000772,0.001586,0.000356,-0.02,-0.32,9.78
37112909,0.001837,0.001586,0.000356,-0.05,-0.34,9.72
37113923,0.002902,0.001586,0.001422,-0.03,-0.32,9.77
37114932,0.003968,0.002651,0.001422,-0.01,-0.30,9.82
37115944,0.002902,0.003716,0.002487,0.00,-0.28,9.83
37116954,-0.000293,0.001586,0.004618,0.00,-0.31,9.87
37117980,-0.000293,-0.002675,0.004618,-0.01,-0.31,9.87
37118975,-0.000293,-0.003741,0.003552,0.00,-0.30,9.78
37120015,-0.000293,-0.001610,0.001422,0.00,-0.28,9.79
37121008,-0.002424,0.000520,-0.000709,-0.01,-0.26,9.82
37122045,-0.002392,0.001625,-0.002844,0.01,-0.29,9.82
37123029,-0.002392,0.000560,-0.001779,0.00,-0.34,9.84
37124031,-0.003457,-0.000505,-0.000714,-0.02,-0.30,9.85
37125040,-0.003457,-0.000505,-0.000714,-0.04,-0.30,9.85
37126056,-0.002392,-0.000505,0.001417,-0.03,-0.33,9.80
37127068,-0.001326,0.000560,0.001417,-0.02,-0.31,9.81
37128078,-0.001326,0.002691,0.000352,-0.02,-0.31,9.86
37129082,0.000804,0.003756,0.000352,-0.02,-0.28,9.86
37130109,0.004000,0.003756,0.000352,-0.03,-0.29,9.80
37131100,0.004000,0.002691,-0.001779,-0.01,-0.28,9.78
37132103,0.002935,0.002691,-0.001779,0.02,-0.24,9.83
37133119,0.001869,0.003756,-0.001779,0.01,-0.26,9.85
37134120,-0.002392,0.003756,-0.000714,-0.04,-0.30,9.87
37135130,-0.002392,0.002691,-0.001779,-0.06,-0.34,9.84
37136143,-0.000261,0.000560,-0.002844,-0.05,-0.32,9.79
37137153,0.000804,-0.001571,-0.002844,-0.02,-0.28,9.79
37138169,0.000804,-0.001571,-0.001779,0.00,-0.30,9.78
37139172,-0.000261,0.000560,-0.002844,-0.01,-0.29,9.84
37140199,0.000804,0.001625,-0.002844,-0.04,-0.28,9.86
37141195,0.002935,0.001625,-0.000714,-0.03,-0.28,9.85
37142202,0.002935,0.002691,0.001417,-0.01,-0.29,9.84
37143216,0.001869,0.002691,0.001417,-0.02,-0.28,9.80
37144222,0.000804,0.002691,-0.000714,-0.01,-0.30,9.85
37145232,-0.000261,-0.000505,-0.000714,-0.01,-0.29,9.84
37146242,0.000804,-0.001571,-0.000714,0.03,-0.30,9.82
37147252,0.001869,-0.002636,-0.000714,0.03,-0.32,9.85
37148266,0.001869,-0.001571,-0.001779,0.00,-0.29,9.83
37149272,0.000804,-0.000505,0.000352,-0.02,-0.29,9.84
37150297,-0.000261,0.000560,0.000352,-0.04,-0.30,9.85
37151293,-0.001326,0.000560,-0.000714,-0.05,-0.30,9.81
37152299,-0.001326,-0.000505,-0.002844,-0.03,-0.30,9.82
37153314,0.001869,-0.001571,-0.002844,-0.01,-0.29,9.85
37154319,0.005065,-0.001571,0.000352,-0.01,-0.29,9.84
37155329,0.004000,0.000560,0.001417,0.00,-0.30,9.82
37156339,-0.000261,0.000560,0.002482,0.00,-0.31,9.82
37157349,-0.002392,0.000560,0.002482,-0.02,-0.32,9.83
37158368,-0.002392,-0.000505,0.001417,-0.04,-0.33,9.86
37159369,-0.000261,-0.002636,0.001417,-0.03,-0.33,9.86
37160398,-0.000261,-0.001571,0.000352,-0.01,-0.30,9.82
37161395,-0.000261,0.001625,-0.000714,0.01,-0.32,9.85
37162402,-0.002392,0.003756,0.000352,0.00,-0.36,9.86
37163418,-0.001326,0.002691,0.001417,-0.02,-0.37,9.78
37164422,0.000804,0.000560,0.000352,-0.03,-0.35,9.82
37165432,0.000804,-0.001571,-0.001779,-0.02,-0.32,9.87
37166442,0.001869,-0.002636,-0.002844,-0.03,-0.30,9.83
37167452,0.001869,-0.001571,-0.001779,-0.03,-0.30,9.79
37168466,0.000804,-0.001571,0.000352,-0.02,-0.30,9.79
37169472,-0.000261,-0.002636,0.002482,-0.05,-0.29,9.84
37170496,-0.000261,-0.000505,0.000352,-0.05,-0.29,9.82
37171493,-0.001326,0.000560,-0.000714,-0.06,-0.30,9.83
37172499,-0.000261,0.000560,-0.000714,-0.02,-0.31,9.86
37173515,-0.000261,-0.000505,-0.000714,0.01,-0.29,9.86
37174519,0.000804,-0.002636,0.000352,-0.02,-0.29,9.86
37175529,-0.000261,-0.002636,0.001417,-0.01,-0.28,9.83
37176539,-0.002392,-0.000505,0.001417,0.00,-0.28,9.82
37177549,-0.002392,0.000560,-0.000714,-0.01,-0.31,9.78
37178566,-0.001326,-0.000505,-0.002844,-0.01,-0.32,9.82
37179569,0.000804,0.000560,-0.001779,-0.02,-0.32,9.85
37180644,0.000804,0.001625,0.000352,-0.02,-0.31,9.82
37181595,0.000804,0.002691,0.000352,0.00,-0.30,9.76
37182602,0.001869,0.002691,-0.000714,0.02,-0.29,9.79
37183616,0.000804,0.002691,-0.000714,-0.01,-0.28,9.83
37184622,-0.001326,0.003756,-0.000714,-0.02,-0.28,9.82
37185632,0.000804,0.001625,-0.000714,-0.05,-0.30,9.83
37186642,-0.000261,0.001625,-0.000714,-0.07,-0.29,9.84
37187652,-0.002392,0.001625,-0.000714,-0.06,-0.32,9.81
37188666,-0.001326,-0.000505,0.000352,-0.04,-0.33,9.80
37189672,0.000804,-0.001571,0.001417,-0.01,-0.32,9.80
37190697,0.000804,-0.000505,0.001417,0.01,-0.30,9.81
37191693,0.001869,0.002691,0.000352,-0.01,-0.30,9.82
37192699,0.002935,0.003756,-0.001779,-0.01,-0.30,9.85
37193714,0.004000,0.001625,-0.001779,-0.01,-0.27,9.86
37194719,0.001869,0.000560,0.001417,-0.02,-0.29,9.85
37195729,-0.000261,0.000560,0.002482,-0.03,-0.29,9.86
37196739,-0.001326,0.001625,0.001417,-0.02,-0.28,9.86
37197749,-0.000261,0.001625,-0.001779,0.00,-0.28,9.84
37198768,-0.001326,0.000560,-0.001779,0.01,-0.29,9.81
37199788,-0.001326,-0.000505,-0.000714,0.01,-0.29,9.80
37200785,-0.001326,-0.000505,0.000352,0.00,-0.29,9.82
37201792,-0.001326,-0.000505,-0.000714,-0.01,-0.30,9.82
37202802,0.000804,-0.000505,-0.000714,0.00,-0.29,9.86
37203818,0.001869,-0.001571,0.000352,0.01,-0.25,9.86
37204822,0.001869,-0.001571,0.001417,-0.01,-0.26,9.80
37205832,-0.000261,0.001625,0.000352,0.00,-0.31,9.78
37206842,-0.000261,0.002691,-0.000714,0.02,-0.34,9.82
37207852,0.000804,0.001625,-0.001779,0.02,-0.35,9.84
37208866,0.001869,-0.000505,-0.002844,0.01,-0.30,9.82
37209886,0.002935,-0.000505,-0.002844,-0.02,-0.27,9.78
37210883,0.000804,0.001625,-0.001779,-0.04,-0.30,9.78
37211889,-0.000261,0.000560,0.000352,-0.04,-0.32,9.78
37212899,-0.001326,-0.000505,0.001417,-0.05,-0.33,9.76
37213919,-0.001326,-0.000505,0.001417,-0.03,-0.31,9.81
37214924,-0.001326,-0.000505,-0.000714,0.00,-0.29,9.83
37215931,0.000804,0.000560,-0.001779,-0.03,-0.31,9.80
37216945,0.000804,0.001625,-0.001779,-0.03,-0.33,9.80
37217957,-0.000261,0.000560,-0.001779,0.02,-0.31,9.82
37218976,-0.000261,-0.000505,-0.000714,-0.01,-0.32,9.82
37219998,-0.000261,0.000560,-0.001779,-0.03,-0.31,9.79
37220993,0.000804,0.001625,-0.001779,-0.02,-0.29,9.80
37221996,0.001869,-0.000505,-0.000714,-0.01,-0.33,9.85
37223012,0.000804,-0.002636,-0.002844,-0.02,-0.35,9.82
37224031,-0.000261,-0.002636,-0.002844,-0.05,-0.30,9.79
37225032,0.000804,-0.001571,-0.001779,-0.02,-0.27,9.82
37226043,0.001869,-0.001571,-0.001779,-0.02,-0.29,9.80
37227062,0.001869,-0.001571,-0.000714,-0.03,-0.30,9.81
37228062,0.000804,-0.001571,-0.000714,-0.02,-0.31,9.81
37229075,0.000804,-0.001571,-0.001779,-0.02,-0.31,9.79
37230099,-0.000261,-0.001571,-0.001779,0.00,-0.31,9.82
37231090,-0.000261,-0.000505,-0.000714,-0.01,-0.31,9.81
37232101,-0.001326,0.000560,-0.000714,-0.01,-0.31,9.82
37233103,-0.001326,0.000560,-0.000714,0.01,-0.30,9.80
37234119,-0.000261,-0.000505,-0.000714,0.00,-0.31,9.79
37235120,0.000804,0.000560,-0.001779,-0.01,-0.33,9.80
37236130,0.000804,0.000560,-0.001779,0.00,-0.31,9.78
37237143,0.001869,-0.000505,-0.000714,-0.01,-0.33,9.78
37238153,0.002935,0.000560,-0.000714,-0.03,-0.34,9.80
37239170,0.002935,0.000560,-0.000714,-0.02,-0.32,9.81
37240191,0.002935,0.000560,0.000352,0.01,-0.28,9.81
37241185,0.002935,-0.000505,-0.000714,-0.01,-0.28,9.83
37242192,0.001869,0.000560,0.000352,-0.03,-0.31,9.84
37243202,0.000804,0.001625,0.002482,-0.05,-0.31,9.84
37244218,0.000804,0.002691,0.002482,-0.05,-0.29,9.82
37245222,0.001869,0.001625,0.001417,-0.02,-0.28,9.79
37246232,0.001869,0.001625,0.001417,-0.04,-0.27,9.80
37247242,0.001869,0.002691,0.001417,-0.04,-0.28,9.83
37248252,-0.000261,0.001625,0.001417,-0.02,-0.27,9.86
37249266,-0.000261,0.000560,0.002482,-0.03,-0.28,9.87
37250286,-0.000261,-0.000505,0.000352,-0.03,-0.28,9.86
37251312,0.001822,-0.001615,-0.001727,-0.03,-0.27,9.84
37252289,0.002887,-0.001615,-0.000662,-0.05,-0.28,9.86
37253299,0.001822,-0.001615,0.000403,-0.02,-0.28,9.87
37254315,0.001822,0.000516,0.000403,0.00,-0.28,9.79
37255319,0.000756,0.002646,0.001469,-0.02,-0.28,9.79
37256329,-0.000309,0.003711,-0.000662,-0.04,-0.30,9.84
37257339,-0.000309,0.002646,-0.000662,-0.06,-0.31,9.79
37258349,0.000756,0.001581,-0.000662,-0.04,-0.31,9.75
37259366,0.002887,0.000516,-0.000662,-0.03,-0.34,9.78
37260389,0.002887,-0.001615,-0.000662,-0.04,-0.33,9.83
37261385,0.001822,-0.000550,0.000403,-0.04,-0.30,9.82
37262392,0.000756,0.000516,0.001469,-0.04,-0.30,9.85
37263402,-0.000309,-0.000550,0.000403,-0.03,-0.32,9.84
37264416,0.000756,-0.003746,-0.002792,-0.04,-0.30,9.78
37265422,0.000756,-0.004811,-0.002792,-0.03,-0.29,9.79
37266432,0.000756,-0.003746,-0.001727,-0.01,-0.30,9.81
37267442,0.002887,-0.001615,0.000403,0.01,-0.32,9.82
37268452,0.001822,0.000516,0.000403,0.00,-0.30,9.79
37269466,-0.000309,0.000516,0.001469,-0.03,-0.26,9.79
37270487,-0.001374,-0.000550,0.000403,-0.03,-0.28,9.86
37271483,-0.001374,-0.001615,-0.002792,-0.03,-0.28,9.88
37272489,-0.000309,0.000516,-0.003858,0.00,-0.28,9.84
37273499,0.000756,0.003711,-0.002792,0.00,-0.29,9.84
37274560,0.001822,0.004777,-0.000662,-0.03,-0.31,9.83
37275569,0.001822,0.002646,0.000403,-0.02,-0.32,9.83
37276559,0.000756,0.002646,0.001469,-0.03,-0.32,9.84
37277560,-0.000309,0.002646,0.001469,-0.04,-0.32,9.79
37278549,0.000756,0.002646,-0.000662,-0.01,-0.31,9.82
37279566,0.001822,0.000516,-0.001727,-0.01,-0.30,9.82
37280593,-0.000309,-0.000550,0.000403,0.00,-0.33,9.81
37281585,-0.001374,-0.000550,0.000403,-0.01,-0.33,9.84
37282592,0.000756,-0.003746,0.001469,-0.01,-0.29,9.79
37283624,0.002887,-0.003746,0.001469,0.00,-0.27,9.79
37284616,0.001822,-0.001615,0.000403,-0.02,-0.30,9.87
37285634,-0.001374,0.000516,-0.000662,-0.02,-0.35,9.86
37286632,-0.002439,0.002646,-0.001727,-0.01,-0.29,9.87
37287641,-0.002439,0.002646,-0.001727,-0.02,-0.25,9.88
37288651,-0.001374,0.001581,-0.001727,-0.04,-0.29,9.86
37289665,-0.000309,-0.001615,-0.001727,-0.06,-0.29,9.83
37290693,-0.000309,-0.002680,0.000403,-0.03,-0.32,9.79
37291684,0.000756,-0.001615,0.001469,-0.02,-0.32,9.82
37292691,0.001822,0.002646,-0.000662,-0.04,-0.29,9.84
37293701,-0.000309,0.002646,-0.003858,-0.05,-0.28,9.82
37294715,-0.002439,0.001581,-0.004923,-0.04,-0.29,9.84
37295732,-0.002439,0.000516,-0.004923,-0.03,-0.28,9.86
37296731,-0.002439,0.000516,-0.002792,-0.03,-0.28,9.82
37297739,0.000756,0.001581,-0.000662,-0.02,-0.31,9.84
37298749,0.002887,0.001581,-0.001727,-0.02,-0.30,9.86
37299787,0.002887,-0.000550,-0.001727,-0.03,-0.27,9.81
37300775,0.000756,-0.001615,-0.001727,0.00,-0.28,9.82
37301782,-0.001374,-0.001615,-0.000662,0.00,-0.30,9.81
37302792,-0.000309,-0.002680,-0.000662,-0.04,-0.31,9.82
37303802,0.001822,-0.003746,-0.000662,-0.03,-0.29,9.80
37304816,0.001822,-0.002680,0.001469,-0.01,-0.29,9.80
37305834,0.001822,0.000516,0.001469,-0.02,-0.31,9.85
37306832,0.000756,0.000516,-0.000662,-0.03,-0.30,9.86
37307841,-0.000309,0.001581,-0.002792,-0.03,-0.28,9.82
37308851,-0.000309,0.001581,-0.000662,-0.04,-0.30,9.78
37309883,-0.001374,0.000516,0.000403,-0.02,-0.33,9.78
37310874,-0.001374,-0.000550,0.000403,-0.03,-0.32,9.77
37311881,0.000756,-0.000550,-0.001727,-0.03,-0.30,9.79
37312891,0.001822,0.000516,-0.002792,-0.01,-0.28,9.81
37313901,0.001822,-0.000550,-0.001727,-0.02,-0.29,9.84
37314928,-0.001374,-0.000550,0.000403,-0.04,-0.30,9.84
37315923,-0.003505,0.000516,0.002534,-0.02,-0.31,9.84
37316932,-0.002439,0.001581,0.001469,-0.01,-0.32,9.88
37317944,-0.002439,0.000516,0.000403,-0.03,-0.32,9.89
37318954,-0.001374,0.001581,-0.000662,-0.02,-0.30,9.84
37319997,-0.001374,0.001581,-0.001727,-0.02,-0.30,9.83
37320981,0.000756,0.000516,-0.000662,-0.02,-0.31,9.80
37321994,0.000756,-0.000550,0.000403,-0.02,-0.32,9.79
37323004,-0.000309,-0.000550,0.001469,-0.03,-0.32,9.83
37324013,-0.000309,0.000516,0.001469,-0.03,-0.32,9.84
37325038,-0.000309,-0.000550,0.000403,-0.02,-0.31,9.83
37326033,-0.000309,-0.002680,0.001469,-0.02,-0.30,9.82
37327044,-0.002439,-0.002680,0.002534,-0.05,-0.30,9.83
37328055,-0.002439,-0.000550,0.003599,-0.06,-0.30,9.85
37329060,0.000756,0.000516,0.001469,-0.03,-0.31,9.80
37330098,0.001822,0.000516,-0.000662,0.01,-0.30,9.82
37331087,0.000756,-0.000550,0.001469,-0.01,-0.29,9.84
37332094,-0.000309,0.000516,0.001469,-0.05,-0.31,9.79
37333097,-0.001374,0.000516,-0.000662,-0.04,-0.31,9.81
37334105,-0.000309,0.000516,-0.001727,-0.01,-0.27,9.81
37335131,-0.001374,0.000516,-0.001727,0.02,-0.30,9.77
37336121,-0.002439,0.000516,-0.001727,0.02,-0.33,9.81
37337130,-0.001374,-0.000550,-0.002792,-0.04,-0.33,9.85
37338144,-0.001374,-0.000550,-0.002792,-0.04,-0.32,9.84
37339153,-0.001374,-0.000550,-0.001727,0.00,-0.30,9.81
37340189,-0.001374,-0.000550,0.000403,-0.03,-0.29,9.81
37341178,-0.001374,-0.002680,0.000403,-0.03,-0.29,9.84
37342182,0.000756,-0.003746,0.000403,0.00,-0.30,9.83
37343192,0.000756,-0.002680,0.001469,-0.02,-0.30,9.83
37344202,0.000756,-0.001615,0.001469,-0.04,-0.32,9.82
37345228,-0.002439,-0.000550,0.000403,-0.02,-0.31,9.85
37346222,-0.003505,-0.000550,-0.000662,-0.01,-0.29,9.84
37347231,-0.001374,-0.000550,-0.000662,-0.02,-0.29,9.84
37348241,0.001822,-0.000550,0.000403,-0.01,-0.30,9.85
37349251,0.002887,-0.000550,0.000403,-0.03,-0.28,9.84
37350283,0.001822,-0.001615,0.000403,-0.05,-0.27,9.82
37351274,-0.000309,-0.003746,-0.000662,-0.04,-0.28,9.81
37352281,-0.002439,-0.002680,0.000403,-0.03,-0.30,9.85
37353291,-0.002439,-0.000550,0.002534,0.00,-0.33,9.83
37354301,-0.002439,0.000516,0.002534,0.01,-0.34,9.85
37355327,-0.001374,-0.001615,0.001469,-0.02,-0.35,9.88
37356321,-0.002439,-0.001615,0.001469,-0.06,-0.35,9.88
37357329,-0.001374,0.000516,0.001469,-0.05,-0.29,9.86
37358339,0.000756,0.002646,0.001469,-0.04,-0.28,9.83
37359349,0.002887,0.003711,0.001469,-0.04,-0.32,9.81
37360387,0.002887,0.000516,0.001469,-0.04,-0.32,9.75
37361375,0.003952,-0.003746,-0.000662,-0.02,-0.28,9.77
37362382,0.002887,-0.004811,-0.001727,-0.04,-0.28,9.86
37363392,0.000756,-0.002680,-0.001727,-0.02,-0.28,9.89
37364402,-0.001374,0.001581,-0.000662,-0.02,-0.31,9.83
37365428,0.000756,0.005842,0.001469,-0.01,-0.34,9.84
37366422,0.001822,0.005842,0.001469,-0.01,-0.32,9.83
37367431,0.003952,0.003711,0.000403,-0.02,-0.27,9.76
37368441,0.000756,0.001581,0.001469,-0.03,-0.27,9.76
37369451,-0.002439,0.001581,0.001469,-0.03,-0.32,9.79
37370483,-0.003505,0.001581,0.002534,0.00,-0.32,9.84
37371474,-0.002439,0.001581,0.002534,0.00,-0.30,9.85
37372481,-0.001374,0.000516,0.001469,-0.01,-0.28,9.88
37373491,-0.000309,0.000516,0.002534,-0.02,-0.28,9.82
37374501,0.000756,-0.000550,0.002534,-0.02,-0.29,9.80
37375527,0.001822,-0.002680,0.002534,-0.02,-0.31,9.82
37376521,0.000756,-0.002680,0.003599,-0.02,-0.31,9.87
37377529,0.000756,-0.000550,0.004665,-0.03,-0.32,9.90
37378539,0.001822,0.000516,0.003599,-0.04,-0.31,9.83
37379549,0.001822,0.003711,0.001469,-0.04,-0.30,9.76
37380623,-0.000318,0.003710,0.000399,-0.04,-0.32,9.76
37381575,-0.000318,0.000515,0.000399,-0.04,-0.32,9.77
37382582,-0.000318,-0.001616,0.002530,-0.03,-0.30,9.82
37383592,0.000748,-0.002681,0.004660,-0.04,-0.32,9.82
37384602,-0.001383,-0.002681,0.005725,-0.08,-0.33,9.84
37385673,-0.001383,-0.000551,0.002530,-0.08,-0.30,9.88
37386622,-0.001383,0.000515,0.000399,-0.05,-0.33,9.86
37387631,0.000748,0.002645,-0.000666,-0.02,-0.34,9.84
37388641,0.001813,0.002645,-0.001732,-0.03,-0.31,9.75
37389651,0.002878,0.001580,-0.000666,-0.02,-0.30,9.74
37390683,0.000748,0.002645,0.001464,0.01,-0.31,9.78
37391674,-0.001383,0.001580,0.000399,0.01,-0.32,9.79
37392681,-0.001383,-0.000551,-0.001732,-0.02,-0.34,9.82
37393691,-0.001383,-0.000551,-0.000666,0.01,-0.33,9.85
37394701,-0.001383,0.000515,0.000399,0.04,-0.32,9.78
37395727,-0.001383,0.001580,0.001464,0.01,-0.31,9.70
37396721,-0.001383,0.000515,0.000399,0.00,-0.33,9.76
37397729,-0.000318,0.000515,-0.001732,-0.02,-0.32,9.86
37398739,0.000748,0.000515,-0.001732,-0.04,-0.29,9.86
37399773,-0.000318,-0.001616,-0.000666,-0.02,-0.32,9.86
37400774,-0.001383,-0.001616,0.000399,-0.02,-0.32,9.89
37401772,-0.001383,-0.000551,0.001464,-0.03,-0.28,9.88
37402782,-0.000318,-0.000551,0.001464,-0.04,-0.31,9.85
37403792,-0.000318,-0.000551,0.001464,-0.05,-0.32,9.80
37404802,-0.000318,-0.001616,0.000399,-0.01,-0.32,9.80
37405829,-0.001383,-0.001616,-0.001732,0.01,-0.31,9.83
37406822,-0.002448,0.000515,0.000399,-0.03,-0.30,9.82
37407831,-0.001383,0.002645,0.000399,-0.05,-0.31,9.81
37408841,0.000748,0.004776,-0.001732,-0.02,-0.30,9.82
37409872,-0.000318,0.002645,-0.001732,-0.04,-0.29,9.80
37410870,-0.003514,-0.000551,-0.000666,-0.03,-0.30,9.78
37411871,-0.004579,-0.001616,-0.001732,0.01,-0.32,9.79
37412881,-0.002448,-0.000551,-0.002797,0.02,-0.32,9.78
37413891,0.000748,-0.001616,-0.002797,-0.02,-0.31,9.84
37414914,0.003943,-0.002681,-0.003862,-0.03,-0.28,9.88
37415919,0.005009,-0.001616,-0.003862,-0.02,-0.30,9.83
37416924,0.001813,-0.001616,-0.000666,0.00,-0.30,9.82
37417931,-0.000318,0.000515,0.001464,-0.01,-0.27,9.88
37418945,0.000748,0.003710,0.000399,-0.02,-0.31,9.90
37419979,0.000748,0.003710,0.000399,0.02,-0.32,9.87
37420983,-0.000318,0.002645,-0.001732,0.00,-0.29,9.82
37421978,-0.001383,-0.000551,-0.003862,-0.01,-0.30,9.77
37422992,-0.001383,-0.002681,-0.003862,-0.04,-0.29,9.82
37424004,-0.001383,-0.002681,-0.000666,-0.06,-0.27,9.83
37425021,-0.000318,-0.000551,0.001464,-0.03,-0.27,9.83
37426030,0.000748,-0.000551,0.000399,0.00,-0.29,9.83
37427029,0.002878,-0.000551,-0.000666,-0.03,-0.31,9.85
37428041,0.002878,-0.000551,0.001464,-0.04,-0.30,9.86
37429055,0.000748,0.001580,0.001464,-0.02,-0.27,9.86
37430083,-0.000318,0.002645,0.001464,-0.03,-0.28,9.86
37431076,-0.000318,0.003710,0.001464,-0.03,-0.29,9.86
37432079,-0.000318,0.001580,0.001464,-0.01,-0.32,9.79
37433090,-0.001383,-0.000551,-0.001732,-0.02,-0.33,9.73
37434100,-0.002448,-0.003746,-0.002797,0.01,-0.29,9.78
37435105,-0.000318,-0.003746,-0.001732,0.04,-0.24,9.84
37436120,-0.000318,-0.001616,0.000399,0.00,-0.25,9.82
37437121,-0.001383,-0.000551,0.000399,0.00,-0.31,9.83
37438131,-0.000318,0.000515,-0.000666,0.00,-0.31,9.86
37439145,0.001813,0.000515,-0.001732,-0.02,-0.28,9.79
37440172,0.001813,0.000515,-0.000666,0.01,-0.27,9.74
37441175,0.000748,-0.001616,0.000399,0.01,-0.31,9.79
37442173,0.001813,-0.001616,0.000399,0.00,-0.33,9.82
37443181,0.001813,0.001580,0.000399,0.02,-0.29,9.82
37444191,-0.001383,0.001580,0.002530,0.01,-0.28,9.85
37445201,-0.002448,0.001580,0.002530,0.00,-0.29,9.83
37446216,-0.001383,0.000515,0.000399,-0.01,-0.31,9.79
37447221,-0.000318,-0.001616,-0.001732,-0.02,-0.33,9.81
37448231,-0.000318,-0.002681,0.000399,-0.03,-0.29,9.78
37449241,-0.000318,-0.002681,0.002530,-0.05,-0.27,9.76
37450268,0.000748,-0.001616,0.001464,-0.04,-0.28,9.79
37451270,0.000748,-0.000551,0.000399,-0.02,-0.28,9.82
37452271,0.001813,0.001580,-0.000666,-0.01,-0.30,9.81
37453281,-0.000318,0.002645,0.000399,0.02,-0.33,9.81
37454291,0.000748,0.002645,0.001464,0.03,-0.32,9.82
37455301,0.002878,0.000515,0.001464,0.00,-0.30,9.81
37456315,0.005009,-0.001616,0.000399,-0.02,-0.31,9.78
37457321,0.003943,-0.002681,-0.001732,-0.03,-0.28,9.82
37458331,0.003943,-0.002681,-0.000666,-0.03,-0.25,9.84
37459341,0.003943,-0.000551,0.000399,-0.01,-0.27,9.83
37460367,0.002878,-0.000551,0.001464,-0.02,-0.31,9.84
37461374,0.001813,-0.001616,0.001464,-0.01,-0.33,9.84
37462371,0.000748,-0.000551,-0.000666,-0.01,-0.33,9.86
37463381,-0.000318,0.001580,-0.002797,-0.03,-0.28,9.84
37464391,-0.001383,0.002645,-0.001732,-0.03,-0.22,9.81
37465401,-0.000318,0.001580,-0.000666,-0.02,-0.27,9.84
37466415,-0.001383,0.000515,-0.000666,-0.04,-0.32,9.84
37467421,-0.003514,0.000515,0.000399,-0.05,-0.31,9.84
37468431,-0.004579,-0.000551,0.001464,-0.06,-0.31,9.90
37469441,-0.003514,-0.002681,0.002530,-0.03,-0.33,9.91
37470469,-0.000318,-0.002681,0.002530,0.01,-0.33,9.83
37471469,-0.000318,-0.000551,0.002530,0.01,-0.33,9.81
37472471,-0.001383,0.000515,0.001464,-0.01,-0.30,9.77
37473481,-0.002448,0.000515,0.001464,-0.03,-0.28,9.78
37474491,0.000748,-0.001616,0.000399,0.00,-0.28,9.82
37475501,-0.000318,-0.001616,0.001464,0.01,-0.28,9.77
37476515,-0.002448,-0.000551,0.001464,-0.01,-0.28,9.79
37477521,-0.002448,0.000515,0.000399,0.01,-0.29,9.78
37478531,-0.000318,0.000515,-0.001732,0.03,-0.30,9.76
37479541,0.000748,-0.000551,-0.003862,-0.02,-0.28,9.81
37480568,-0.001383,-0.000551,-0.002797,-0.03,-0.27,9.86
37481572,-0.002448,-0.001616,-0.000666,-0.02,-0.30,9.83
37482571,-0.001383,-0.002681,0.002530,-0.04,-0.34,9.81
37483581,0.000748,-0.002681,0.002530,-0.04,-0.33,9.86
37484591,0.002878,-0.000551,0.001464,-0.06,-0.31,9.89
37485601,0.002878,0.000515,-0.000666,-0.05,-0.31,9.90
37486616,0.001813,0.001580,-0.000666,-0.01,-0.29,9.89
37487640,0.001813,0.001580,0.002530,-0.03,-0.29,9.88
37488631,0.001813,0.002645,0.002530,-0.04,-0.31,9.89
37489641,-0.001383,0.003710,0.000399,-0.02,-0.30,9.84
37490668,-0.002448,0.002645,-0.001732,-0.03,-0.29,9.79
37491670,-0.001383,-0.000551,-0.001732,-0.04,-0.31,9.80
37492671,0.000748,-0.000551,-0.001732,-0.01,-0.29,9.86
37493681,0.002878,0.000515,0.000399,0.02,-0.28,9.84
37494691,0.002878,0.001580,0.001464,0.01,-0.30,9.78
37495701,0.000748,0.000515,0.001464,-0.01,-0.33,9.81
37496715,-0.000318,-0.000551,0.002530,-0.02,-0.30,9.85
37497721,-0.001383,0.000515,0.002530,-0.02,-0.28,9.82
37498731,-0.002448,-0.001616,0.002530,-0.02,-0.30,9.82
37499757,-0.001383,-0.003746,0.001464,0.01,-0.29,9.88
37500754,-0.001383,-0.002681,0.000399,0.02,-0.31,9.84
37501770,-0.002448,-0.000551,0.001464,0.00,-0.34,9.81
37502771,-0.002448,0.000515,0.001464,-0.01,-0.33,9.80
37503781,-0.000318,-0.001616,0.000399,-0.05,-0.29,9.78
37504791,0.001813,-0.002681,-0.001732,-0.04,-0.27,9.81
37505801,-0.000318,-0.001616,-0.000666,-0.01,-0.30,9.87
37506815,-0.001383,-0.000551,0.000399,-0.05,-0.32,9.88
37507821,-0.000318,0.002645,0.000399,-0.08,-0.29,9.86
37508831,-0.000318,0.002645,0.001464,-0.07,-0.30,9.86
37509895,0.001824,0.000526,0.000377,-0.06,-0.32,9.84
37510854,0.001824,-0.002670,-0.001754,-0.05,-0.31,9.80
37511865,-0.000307,-0.004801,-0.002819,-0.01,-0.31,9.79
37512871,-0.001372,-0.003735,-0.001754,-0.01,-0.31,9.86
37513881,-0.002437,-0.001605,-0.000688,-0.01,-0.31,9.88
37514891,-0.001372,-0.001605,0.001442,0.00,-0.31,9.86
37515901,-0.000307,-0.002670,0.002508,-0.01,-0.30,9.85
37516920,-0.001372,-0.003735,0.000377,-0.01,-0.30,9.80
37517923,-0.002437,-0.003735,-0.001754,0.01,-0.32,9.81
37518933,-0.002437,-0.003735,-0.000688,0.01,-0.29,9.85
37519964,-0.001372,-0.004801,0.001442,0.01,-0.27,9.86
37520961,-0.001372,-0.002670,0.001442,0.01,-0.28,9.85
37521978,-0.002437,0.000526,0.001442,0.00,-0.28,9.80
37522976,-0.001372,-0.000539,0.002508,0.00,-0.28,9.79
37524115,0.001824,-0.001605,0.001442,-0.03,-0.29,9.81
37524983,0.001824,-0.001605,0.001442,-0.09,-0.35,9.81
37525985,0.009281,0.011179,0.004638,-0.08,-0.36,9.82
37527012,0.002889,0.018636,0.005703,0.02,-0.32,9.82
37528006,-0.003502,0.009048,-0.003884,-0.03,-0.36,9.85
37529018,-0.010959,-0.002670,-0.016668,0.00,-0.44,9.80
37530065,-0.005633,-0.009062,-0.021994,0.16,-0.36,9.83
37531039,0.007150,-0.005866,-0.024124,0.09,-0.33,9.84
37532062,-0.000307,0.001591,-0.027320,-0.02,-0.19,9.83
37533062,0.000759,0.003722,-0.030516,-0.14,-0.04,9.86
37534073,-0.009894,0.006918,-0.029451,-0.26,-0.23,9.80
37535079,-0.013090,-0.006931,-0.018798,-0.15,-0.37,9.74
37536085,-0.001372,-0.018649,-0.003884,0.22,-0.37,9.72
37537103,-0.006698,-0.012258,0.008899,0.32,-0.17,9.81
37538102,-0.016286,0.005852,0.009965,-0.07,-0.15,10.12
37539112,-0.004568,0.004787,0.005703,-0.43,-0.45,10.10
37540145,0.013542,-0.015453,0.011030,-0.02,-0.38,9.55
37541135,0.010346,-0.013323,0.022748,0.44,0.38,9.47
37542148,-0.014155,0.017570,0.018487,-0.20,-0.66,9.83
37543151,-0.008829,0.012244,0.013160,-0.37,-0.98,10.23
37544158,0.027391,-0.017584,0.018487,0.43,0.78,9.88
37545168,-0.002437,0.003722,0.013160,0.15,-0.82,9.47
37546178,-0.040787,0.020766,0.004638,-0.63,-1.51,9.86
37547195,0.010346,-0.014388,0.003573,0.22,1.37,9.92
37548198,0.008216,-0.017584,-0.002819,0.45,-0.70,10.01
37549208,-0.056766,-0.010127,-0.000688,-0.77,-1.37,9.46
37550245,-0.003502,-0.025041,-0.000688,0.08,0.89,9.39
37551234,0.000759,-0.007996,-0.000688,-0.09,-0.49,10.09
37552250,-0.024808,-0.000539,0.004638,-0.68,-0.13,8.93
37553251,0.008216,0.006918,-0.001754,-0.12,-0.11,10.20
37554261,-0.023743,0.001591,0.006769,-0.22,0.00,10.30
37555271,0.019934,-0.003735,0.003573,-0.50,-0.21,9.56
37556281,-0.024808,-0.003735,0.011030,0.00,-0.08,10.60
37557298,-0.009894,-0.005866,0.006769,0.15,-0.71,9.21
37558301,-0.006698,0.012244,0.015291,-0.40,-0.43,10.37
37559311,0.026325,0.016505,0.012095,0.40,-0.45,9.90
37560340,-0.012025,0.028223,0.018487,0.41,-1.21,9.79
37561331,-0.022677,0.022897,0.016356,-0.03,-0.41,9.50
37562346,-0.013090,0.007983,0.023813,0.18,-1.11,9.60
37563348,0.001824,0.003722,0.028074,0.10,-0.13,10.00
37564358,-0.010959,-0.000539,0.033401,-0.43,-0.89,9.30
37565368,-0.010959,0.000526,0.034466,-0.07,-0.42,10.31
37566378,-0.021612,-0.005866,0.028074,0.35,-0.22,9.79
37567395,-0.033330,-0.007996,0.032335,0.44,-1.27,10.26
37568398,-0.034396,-0.004801,0.031270,0.31,0.44,10.29
37569408,-0.023743,-0.005866,0.036597,-0.53,-0.30,9.32
37570445,-0.003502,-0.007996,0.039792,-0.27,-0.74,9.82
37571434,0.003955,-0.009062,0.038727,0.18,0.66,10.53
37572450,0.001824,-0.011192,0.039792,-0.55,-0.82,10.04
37573451,0.003955,-0.018649,0.041923,-0.29,-0.43,9.75
37574461,0.000759,-0.012258,0.045119,0.03,0.56,9.60
37575471,-0.007764,0.004787,0.053641,-0.76,-1.16,9.62
37576481,-0.015221,0.013309,0.061098,0.01,0.44,9.60
37577498,-0.012025,-0.000539,0.065359,-0.86,-0.95,9.63
37578501,-0.006698,-0.009062,0.066424,-0.20,-1.43,9.50
37579511,-0.003502,-0.001605,0.067490,0.22,1.02,10.12
37580540,-0.005633,0.010113,0.068555,-0.65,-0.19,9.98
37581531,-0.008829,0.013309,0.069620,-0.36,-2.16,9.28
37582546,0.006085,0.010113,0.069620,0.19,0.61,10.16
37583548,0.019934,0.007983,0.065359,0.09,0.43,10.39
37584558,0.014607,0.000526,0.058967,-0.39,-1.30,9.80
37585568,0.008216,-0.009062,0.055772,-0.25,-0.82,9.37
37586578,0.005020,-0.014388,0.054706,0.51,0.98,9.94
37587595,-0.002437,-0.017584,0.049380,0.44,0.33,9.87
37588598,0.011412,-0.013323,0.042988,-0.21,-1.21,9.16
37589608,0.002889,-0.005866,0.034466,-0.12,-0.36,9.43
37590645,-0.020547,-0.016519,0.029140,0.49,0.81,10.21
37591634,-0.032265,-0.030367,0.028074,0.70,0.57,10.21
37592650,-0.038657,-0.033563,0.025944,0.12,-0.65,9.41
37593651,-0.034396,-0.026106,0.023813,-0.44,-0.96,9.24
37594661,-0.014155,-0.012258,0.024878,0.09,-0.23,9.78
37595671,-0.001372,-0.002670,0.027009,0.60,0.88,10.49
37596681,-0.000307,-0.001605,0.031270,0.53,0.11,10.22
37597698,-0.005633,-0.002670,0.033401,-0.14,-0.66,9.46
37598701,-0.004568,-0.010127,0.032335,-0.54,-1.00,9.22
37599711,-0.009894,-0.015453,0.028074,-0.11,-0.40,9.65
37600740,-0.010959,-0.014388,0.025944,0.37,0.98,10.26
37601731,-0.008829,-0.012258,0.023813,0.58,0.50,10.35
37602746,-0.006698,-0.013323,0.019552,0.21,-0.78,9.96
37603748,-0.006698,-0.017584,0.014226,-0.46,-1.27,9.40
37604758,-0.007764,-0.017584,0.007834,-0.51,-0.91,9.19
37605768,-0.003502,-0.013323,0.002508,0.06,0.05,9.62
37606778,0.001824,-0.012258,-0.000688,0.53,0.70,10.12
37607795,-0.000307,-0.009062,-0.004949,0.60,0.39,10.53
37608798,-0.000307,-0.005866,-0.007080,0.35,-0.57,10.42
37609808,-0.002437,-0.006931,-0.007080,-0.23,-1.46,9.70
37610845,-0.001372,-0.010127,-0.004949,-0.54,-1.48,9.23
37611834,-0.001372,-0.006931,-0.002819,-0.29,-0.43,9.52
37612850,0.007150,-0.002670,-0.000688,0.11,0.78,10.08
37613851,0.008216,0.000526,-0.000688,0.49,1.04,10.38
37614861,-0.005633,0.000526,0.000377,0.68,0.22,10.37
37615871,-0.020547,-0.004801,0.004638,0.42,-0.79,10.12
37616881,-0.029069,-0.009062,0.006769,-0.23,-1.36,9.47
37617899,-0.028004,-0.006931,0.006769,-0.69,-1.42,8.97
37618902,-0.015221,-0.001605,0.005703,-0.65,-0.80,9.24
37619934,-0.000307,0.002656,0.004638,-0.33,0.29,9.80
37620926,0.002889,0.000526,0.003573,0.03,1.03,10.25
37621934,-0.002437,0.002656,0.004638,0.39,0.90,10.46
37622954,0.002889,0.001591,0.005703,0.65,0.19,10.42
37623956,0.008216,-0.005866,0.003573,0.51,-0.52,10.30
37624963,-0.003502,-0.003735,-0.000688,0.05,-1.12,9.81
37625978,-0.013090,0.007983,0.000377,-0.37,-1.43,9.11
37626986,-0.012025,0.020766,0.003573,-0.65,-1.17,8.94
37628007,-0.009894,0.025027,0.005703,-0.68,-0.57,9.30
37629006,-0.016286,0.019701,0.004638,-0.45,0.02,9.70
37630048,-0.017351,0.010113,0.001442,-0.09,0.45,10.01
37631034,-0.002437,0.001591,0.004638,0.24,0.55,10.29
37632038,0.005020,-0.000539,0.012095,0.52,0.39,10.45
37633060,0.006085,0.003722,0.013160,0.66,0.01,10.46
37634059,-0.003502,0.003722,0.013160,0.57,-0.50,10.36
37635071,0.001824,-0.000539,0.013160,0.27,-0.89,10.06
37636083,-0.007764,-0.000539,0.011030,-0.12,-1.03,9.53
37637085,-0.009894,-0.001605,0.011030,-0.37,-0.97,9.09
37638103,0.009281,0.001591,0.012095,-0.51,-0.78,8.98
37639102,0.013542,0.007983,0.007834,-0.59,-0.56,9.18
37640133,-0.005633,0.007983,0.002508,-0.51,-0.27,9.50
37641126,-0.024808,-0.002670,-0.001754,-0.29,0.04,9.74
37642132,-0.032265,-0.014388,-0.000688,-0.08,0.22,9.93
37643148,-0.029069,-0.018649,0.001442,0.10,0.31,10.17
37644151,-0.022677,-0.017584,0.001442,0.29,0.32,10.30
37645158,-0.017351,-0.010127,-0.000688,0.40,0.18,10.33
37646168,-0.009894,-0.001605,0.001442,0.54,-0.04,10.35
37647178,0.003955,0.007983,0.003573,0.56,-0.24,10.34
37648195,0.007150,0.005852,0.002508,0.43,-0.40,10.32
37649198,0.001824,-0.002670,0.001442,0.27,-0.52,10.19
37650235,0.002889,-0.003735,0.001442,0.05,-0.69,9.86
37651224,0.003955,-0.001605,0.002508,-0.12,-0.73,9.52
37652231,-0.000307,-0.004801,0.003573,-0.23,-0.66,9.28
37653250,-0.001372,-0.004801,0.003573,-0.33,-0.65,9.17
37654251,-0.002437,-0.001605,0.002508,-0.42,-0.57,9.15
37655261,-0.007764,-0.001605,0.001442,-0.45,-0.46,9.28
37656271,-0.002437,-0.001605,0.001442,-0.42,-0.37,9.50
37657281,-0.003502,0.000526,0.000377,-0.36,-0.27,9.63
37658298,-0.000307,0.001591,-0.000688,-0.26,-0.23,9.73
37659301,0.010346,0.002656,0.000377,-0.15,-0.19,9.88
37660330,0.005020,0.002656,-0.000688,-0.05,-0.14,10.02
37661321,-0.008829,-0.002670,-0.002819,0.05,-0.07,10.08
37662328,-0.009894,-0.007996,-0.000688,0.10,-0.03,10.07
37663346,0.003955,-0.006931,0.003573,0.15,-0.06,10.13
37664348,0.017803,-0.000539,0.003573,0.19,-0.11,10.17
37665358,0.016738,0.003722,0.003573,0.25,-0.12,10.15
37666368,0.002889,0.003722,0.002508,0.34,-0.18,10.18
37667378,-0.018416,-0.002670,0.001442,0.31,-0.25,10.19
37668395,-0.025873,-0.012258,0.004638,0.25,-0.21,10.20
37669398,-0.018416,-0.018649,0.007834,0.24,-0.24,10.16
37670435,-0.009894,-0.017584,0.008899,0.24,-0.32,10.18
37671424,-0.005633,-0.011192,0.008899,0.18,-0.34,10.18
37672431,-0.007764,-0.005866,0.006769,0.08,-0.40,10.07
37673450,-0.006698,-0.004801,0.006769,0.03,-0.43,9.87
37674451,-0.002437,-0.002670,0.008899,0.00,-0.43,9.67
37675461,0.005020,-0.001605,0.007834,-0.02,-0.49,9.62
37676471,0.002889,0.003722,0.004638,-0.06,-0.51,9.56
37677481,-0.004568,0.005852,-0.000688,-0.20,-0.50,9.42
37678498,0.000759,-0.001605,-0.001754,-0.22,-0.47,9.32
37679501,0.000759,-0.003735,-0.000688,-0.25,-0.46,9.28
37680530,0.002889,0.000526,0.002508,-0.28,-0.41,9.34
37681521,0.002889,0.002656,0.001442,-0.29,-0.39,9.41
37682528,-0.000307,-0.002670,-0.000688,-0.29,-0.41,9.48
37683546,-0.000307,-0.009062,0.000377,-0.24,-0.37,9.57
37684548,0.006085,-0.004801,0.003573,-0.20,-0.35,9.71
37685558,0.000759,-0.001605,0.003573,-0.21,-0.36,9.74
37686568,0.002889,-0.004801,0.003573,-0.20,-0.39,9.73
37687578,0.008216,-0.004801,0.004638,-0.15,-0.37,9.83
37688595,-0.003502,-0.000539,0.003573,-0.09,-0.32,9.90
37689598,-0.008829,0.000526,0.001442,-0.10,-0.33,9.91
37690635,-0.008829,-0.000539,0.001442,-0.09,-0.35,9.94
37691624,-0.010959,-0.002670,0.001442,-0.03,-0.35,9.92
37692652,-0.003502,-0.002670,0.003573,-0.02,-0.29,9.90
37693650,0.008216,-0.002670,0.005703,0.01,-0.26,9.93
37694651,0.006085,-0.006931,0.004638,0.04,-0.29,9.96
37695661,-0.002437,-0.004801,0.003573,0.06,-0.30,9.94
37696671,-0.004568,-0.000539,0.002508,0.06,-0.30,9.91
37697681,-0.003502,0.003722,0.000377,0.06,-0.29,9.90
37698698,0.005020,0.007983,0.001442,0.09,-0.28,9.91
37699701,0.006085,0.009048,0.001442,0.10,-0.32,9.96
37700730,0.000759,0.010113,0.004638,0.12,-0.28,9.95
37701721,-0.002437,0.006918,0.008899,0.15,-0.27,9.98
37702728,-0.007764,0.005852,0.008899,0.16,-0.28,9.97
37703746,-0.006698,0.002656,0.006769,0.17,-0.29,9.96
37704748,-0.004568,-0.000539,0.006769,0.17,-0.25,10.02
37705758,0.001824,-0.003735,0.004638,0.16,-0.25,9.98
37706768,-0.002437,-0.001605,0.004638,0.16,-0.30,9.99
37707778,-0.005633,-0.003735,0.006769,0.16,-0.29,10.01
37708795,-0.012025,-0.006931,0.006769,0.16,-0.29,10.03
37709798,-0.007764,-0.009062,0.008899,0.18,-0.25,10.06
37710835,-0.000307,-0.005866,0.007834,0.16,-0.25,10.03
37711824,0.007150,-0.004801,0.005703,0.09,-0.27,10.04
37712831,0.008216,-0.005866,0.004638,0.07,-0.32,10.04
37713850,0.006085,-0.006931,0.003573,0.07,-0.31,10.03
37714851,0.006085,-0.007996,0.005703,0.05,-0.33,9.99
37715861,0.007150,-0.009062,0.007834,0.04,-0.35,9.94
37716871,0.008216,-0.005866,0.007834,0.04,-0.33,9.92
37717881,0.002889,0.001591,0.008899,0.00,-0.34,9.93
37718899,0.000759,0.001591,0.008899,-0.01,-0.35,9.84
37719925,-0.004568,-0.000539,0.008899,-0.03,-0.40,9.77
37720915,-0.008829,-0.005866,0.006769,-0.08,-0.41,9.74
37721925,-0.005633,-0.011192,0.004638,-0.08,-0.43,9.68
37722934,-0.003502,-0.012258,0.005703,-0.08,-0.41,9.62
37723956,-0.004568,-0.010127,0.009965,-0.11,-0.39,9.58
37724953,-0.003502,-0.003735,0.013160,-0.14,-0.40,9.53
37725963,-0.010959,-0.000539,0.014226,-0.17,-0.43,9.46
37726975,-0.008829,0.000526,0.014226,-0.20,-0.41,9.44
37727985,-0.005633,0.001591,0.011030,-0.23,-0.38,9.34
37729009,-0.003502,-0.007996,0.008899,-0.25,-0.39,9.27
37730035,-0.000307,-0.012258,0.008899,-0.29,-0.41,9.27
37731021,-0.001372,-0.005866,0.007834,-0.29,-0.43,9.36
37732032,-0.005633,-0.000539,0.005703,-0.31,-0.42,9.42
37733037,0.000759,0.001591,0.004638,-0.32,-0.40,9.54
37734062,0.009281,0.000526,0.008899,-0.31,-0.36,9.70
37735062,0.006085,0.002656,0.012095,-0.24,-0.40,9.80
37736073,-0.002437,0.002656,0.011030,-0.21,-0.40,9.90
37737079,-0.004568,0.002656,0.007834,-0.17,-0.40,9.83
37738085,-0.003502,0.000526,0.004638,-0.08,-0.34,9.86
37739103,0.005020,-0.002670,0.005703,-0.03,-0.29,9.93
37740121,0.012477,-0.004801,0.007834,0.01,-0.25,9.99
37741112,0.019934,-0.007996,0.008899,0.05,-0.23,10.00
37742122,0.022064,-0.011192,0.012095,0.08,-0.16,10.07
37743132,0.015673,-0.009062,0.012095,0.13,-0.15,10.16
37744148,0.011412,-0.006931,0.009965,0.17,-0.15,10.13
37745151,0.012477,-0.007996,0.006769,0.22,-0.16,10.08
37746158,0.017803,-0.010127,0.005703,0.28,-0.18,10.09
37747168,0.027391,-0.007996,0.006769,0.29,-0.16,10.13
37748178,0.039109,-0.004801,0.007834,0.31,-0.20,10.14
37749195,0.031652,-0.001605,0.005703,0.32,-0.27,10.13
37750225,0.017803,0.001591,0.004638,0.29,-0.38,10.16
37751214,0.013542,-0.001605,0.005703,0.23,-0.36,10.14
37752221,0.015673,-0.001605,0.004638,0.15,-0.40,10.11
37753231,0.012477,0.002656,0.004638,0.11,-0.43,10.09
37754250,0.003955,0.003722,0.003573,0.07,-0.43,9.99
37755251,-0.002437,0.000526,0.002508,-0.02,-0.43,9.86
37756261,0.000759,-0.004801,0.001442,-0.08,-0.43,9.70
37757271,0.001824,-0.006931,0.002508,-0.11,-0.49,9.62
37758281,0.000759,-0.004801,0.005703,-0.13,-0.47,9.49
37759298,0.002889,0.001591,0.007834,-0.18,-0.39,9.38
37760320,0.003955,0.006918,0.005703,-0.22,-0.39,9.34
37761311,-0.001372,0.006918,0.001442,-0.24,-0.39,9.30
37762318,0.000759,0.002656,0.002508,-0.25,-0.38,9.34
37763328,0.001824,-0.000539,0.006769,-0.26,-0.35,9.40
37764346,-0.002437,-0.004801,0.006769,-0.27,-0.36,9.46
37765348,0.001824,-0.007996,0.006769,-0.27,-0.40,9.50
37766358,0.006085,-0.002670,0.006769,-0.25,-0.40,9.55
37767368,-0.002437,0.001591,0.005703,-0.25,-0.39,9.69
37768378,-0.005633,-0.000539,0.004638,-0.24,-0.37,9.75
37769395,-0.006698,-0.001605,0.005703,-0.23,-0.37,9.83
37770425,-0.007764,-0.004801,0.004638,-0.20,-0.37,9.87
37771414,0.002889,-0.001605,0.005703,-0.15,-0.33,9.87
37772421,0.009281,0.002656,0.008899,-0.11,-0.36,9.91
37773431,0.015673,-0.000539,0.009965,-0.07,-0.34,9.95
37774450,0.011412,0.002656,0.011030,-0.06,-0.33,9.97
37775451,-0.000307,0.004787,0.008899,-0.05,-0.32,9.97
37776461,-0.007764,0.005852,0.008899,-0.02,-0.27,9.94
37777471,-0.006698,0.004787,0.008899,0.02,-0.25,9.96
37778481,-0.003502,0.002656,0.008899,0.04,-0.23,9.94
37779535,0.001824,-0.002670,0.011030,0.06,-0.25,10.01
37780524,0.000759,-0.002670,0.009965,0.07,-0.23,9.98
37781511,0.000759,-0.005866,0.006769,0.07,-0.24,9.97
37782518,-0.000307,-0.007996,0.004638,0.14,-0.26,9.98
37783528,0.002889,-0.010127,0.003573,0.17,-0.26,9.95
37784545,0.005020,-0.009062,0.001442,0.16,-0.22,9.92
37785548,0.002889,-0.006931,0.003573,0.16,-0.21,9.95
37786558,0.001824,-0.004801,0.006769,0.15,-0.23,9.94
37787568,-0.000307,-0.004801,0.006769,0.13,-0.25,9.90
37788594,-0.001372,-0.001605,0.005703,0.13,-0.30,9.90
37789595,-0.010959,0.002656,0.006769,0.16,-0.29,9.94
37790626,-0.004568,0.003722,0.008899,0.15,-0.28,9.95
37791614,0.001824,0.005852,0.009965,0.15,-0.27,10.00
37792621,0.010346,0.003722,0.009965,0.17,-0.28,10.05
37793631,0.015673,0.002656,0.007834,0.15,-0.29,10.09
37794648,0.018868,-0.000539,0.008899,0.15,-0.30,10.12
37795671,0.009281,-0.002670,0.008899,0.13,-0.35,10.13
37796661,-0.004568,-0.005866,0.007834,0.16,-0.38,10.12
37797671,-0.003502,-0.004801,0.007834,0.14,-0.38,10.09
37798681,0.000759,0.002656,0.008899,0.07,-0.42,10.06
37799698,-0.002437,0.002656,0.005703,0.00,-0.42,9.99
37800721,-0.005633,-0.004801,0.005703,-0.05,-0.42,9.84
37801711,0.001824,-0.007996,0.006769,-0.09,-0.49,9.73
37802718,0.007150,-0.002670,0.007834,-0.12,-0.54,9.65
37803728,-0.002437,-0.000539,0.007834,-0.12,-0.55,9.50
37804745,-0.012025,-0.002670,0.004638,-0.17,-0.54,9.37
37805748,-0.012025,-0.000539,0.004638,-0.25,-0.50,9.30
37806758,-0.000307,0.003722,0.004638,-0.32,-0.43,9.21
37807768,0.015673,0.004787,0.009965,-0.37,-0.42,9.18
37808778,0.024195,0.002656,0.014226,-0.38,-0.37,9.21
37809795,0.018868,0.000526,0.013160,-0.38,-0.33,9.29
37810826,0.008216,-0.004801,0.012095,-0.35,-0.32,9.46
37811814,-0.003502,-0.006931,0.011030,-0.28,-0.30,9.63
37812821,-0.013090,-0.010127,0.008899,-0.21,-0.29,9.79
37813832,-0.018416,-0.010127,0.006769,-0.16,-0.25,9.91
37814848,-0.020547,-0.009062,0.007834,-0.08,-0.29,9.95
37815851,-0.008829,-0.006931,0.008899,-0.01,-0.21,10.02
37816861,0.005020,0.000526,0.006769,-0.01,-0.20,10.09
37817871,0.010346,0.005852,0.005703,0.04,-0.20,10.12
37818881,0.005020,0.006918,0.007834,0.13,-0.15,10.11
37819915,0.001824,0.006918,0.008899,0.17,-0.17,10.09
37820902,0.003955,0.005852,0.005703,0.20,-0.19,10.14
37821912,0.002889,0.001591,0.002508,0.25,-0.22,10.11
37822927,-0.002437,-0.002670,0.001442,0.27,-0.23,10.07
37823934,-0.002437,-0.000539,0.004638,0.28,-0.22,10.00
37824955,-0.001372,0.003722,0.005703,0.28,-0.25,9.99
37825952,-0.006698,0.001591,0.002508,0.24,-0.31,10.04
37826963,-0.008829,-0.005866,-0.001754,0.23,-0.33,10.07
37827975,-0.005633,-0.011192,0.000377,0.26,-0.35,10.10
37828989,-0.005633,-0.007996,0.003573,0.25,-0.38,10.10
37830031,-0.007764,-0.005866,0.002508,0.20,-0.39,10.13
37831015,-0.003502,0.000526,0.001442,0.16,-0.39,10.14
37832024,0.005020,0.004787,0.002508,0.09,-0.43,10.06
37833030,0.002889,0.002656,0.004638,0.06,-0.44,9.99
37834039,0.001824,0.000526,0.006769,0.03,-0.40,9.99
37835058,-0.001372,-0.001605,0.006769,-0.05,-0.37,9.94
37836059,-0.006698,-0.003735,0.004638,-0.04,-0.38,9.90
37837071,0.000759,-0.002670,0.001442,-0.03,-0.40,9.84
37838080,0.006085,-0.002670,0.002508,-0.08,-0.37,9.70
37839085,0.017803,-0.001605,0.005703,-0.14,-0.39,9.58
37840114,0.014607,-0.002670,0.006769,-0.13,-0.42,9.49
37841102,0.007150,-0.004801,0.006769,-0.14,-0.38,9.45
37842108,-0.002437,-0.004801,0.006769,-0.17,-0.40,9.48
37843122,-0.013090,-0.006931,0.002508,-0.20,-0.40,9.46
37844132,-0.017351,-0.003735,-0.000688,-0.23,-0.38,9.38
37845147,-0.018416,-0.003735,-0.002819,-0.23,-0.38,9.38
37846151,-0.014155,0.001591,0.000377,-0.19,-0.35,9.46
37847158,-0.014155,0.004787,0.002508,-0.19,-0.34,9.52
37848168,-0.008829,0.006918,0.002508,-0.25,-0.33,9.54
37849178,-0.008829,0.003722,0.001442,-0.25,-0.32,9.54
37850219,-0.005633,0.005852,0.001442,-0.19,-0.33,9.58
37851204,-0.003502,0.009048,0.002508,-0.16,-0.28,9.72
37852211,-0.007764,0.015440,0.002508,-0.18,-0.31,9.75
37853221,-0.003502,0.016505,0.000377,-0.17,-0.31,9.76
37854231,-0.004568,0.017570,0.000377,-0.17,-0.27,9.77
37855248,0.008216,0.013309,0.003573,-0.19,-0.28,9.78
37856251,0.005020,0.014374,0.004638,-0.14,-0.29,9.84
37857261,0.005020,0.010113,0.003573,-0.10,-0.31,9.91
37858271,-0.009894,0.002656,0.000377,-0.12,-0.30,9.86
37859281,-0.020547,-0.005866,0.000377,-0.08,-0.29,9.81
37860314,-0.016286,-0.015453,0.000377,-0.08,-0.28,9.88
37861301,-0.009894,-0.016519,0.001442,-0.10,-0.27,9.92
37862308,0.001824,-0.015453,0.002508,-0.08,-0.27,9.96
37863318,0.007150,-0.010127,0.003573,-0.07,-0.28,9.96
37864328,0.010346,-0.010127,0.004638,-0.05,-0.28,9.98
37865345,0.008216,-0.001605,0.005703,-0.03,-0.25,10.02
37866348,0.007150,-0.000539,0.004638,-0.01,-0.27,10.06
37867358,0.007150,-0.000539,0.003573,0.04,-0.28,10.05
37868368,-0.000307,-0.001605,0.001442,0.04,-0.28,10.02
37869378,-0.004568,-0.002670,0.001442,0.04,-0.26,10.05
37870419,-0.000307,0.001591,0.003573,0.12,-0.22,10.04
37871404,0.003955,-0.001605,0.002508,0.19,-0.26,10.01
37872411,0.002889,-0.003735,0.003573,0.19,-0.27,9.96
37873421,0.003955,0.004787,0.006769,0.18,-0.28,9.98
37874431,0.000759,0.005852,0.006769,0.22,-0.32,9.98
37875448,-0.002437,-0.001605,0.005703,0.25,-0.33,10.01
37876451,0.001824,-0.001605,0.005703,0.24,-0.33,10.03
37877461,0.006085,0.001591,0.004638,0.25,-0.35,10.04
37878471,0.000759,-0.000539,0.004638,0.26,-0.40,10.10
37879481,-0.007764,-0.006931,0.003573,0.26,-0.47,10.13
37880514,-0.003502,0.001591,0.002508,0.15,-0.43,10.15
37881501,0.007150,0.007983,0.005703,0.05,-0.43,10.16
37882508,0.013542,0.006918,0.007834,-0.01,-0.43,10.07
37883518,0.011412,0.002656,0.005703,-0.05,-0.43,9.90
37884528,0.001824,-0.001605,0.004638,-0.07,-0.42,9.72
37885545,-0.009894,-0.001605,0.005703,-0.13,-0.45,9.54
37886548,-0.016286,0.001591,0.002508,-0.19,-0.46,9.35
37887558,-0.015221,0.002656,0.001442,-0.23,-0.47,9.20
37888568,-0.012025,0.003722,0.002508,-0.32,-0.47,9.13
37889578,-0.013090,0.001591,0.004638,-0.37,-0.44,9.16
37890619,-0.018416,-0.002670,0.003573,-0.36,-0.43,9.24
37891604,-0.025873,-0.003735,0.003573,-0.37,-0.35,9.34
37892611,-0.030134,0.000526,0.003573,-0.37,-0.28,9.51
37893621,-0.030134,0.004787,0.004638,-0.33,-0.28,9.68
37894631,-0.026939,0.002656,0.005703,-0.25,-0.27,9.83
37895648,-0.012025,-0.000539,0.004638,-0.17,-0.24,9.95
37896651,0.006085,0.001591,0.002508,-0.10,-0.18,10.00
37897671,0.014607,0.003722,0.002508,-0.02,-0.18,10.04
37898671,0.014607,0.002656,0.002508,0.04,-0.21,10.08
37899681,0.005020,0.001591,0.002508,0.11,-0.15,10.10
37900714,-0.008829,-0.001605,0.001442,0.18,-0.12,10.14
37901701,-0.015221,-0.006931,-0.001754,0.18,-0.15,10.10
37902708,-0.012025,-0.010127,-0.001754,0.20,-0.19,10.01
37903718,-0.002437,-0.011192,0.000377,0.27,-0.23,9.98
37904728,0.003955,-0.003735,0.002508,0.26,-0.25,9.96
37905745,0.005020,0.009048,0.004638,0.25,-0.29,9.98
37906748,0.000759,0.011179,0.004638,0.25,-0.35,10.00
37907758,0.001824,0.000526,0.003573,0.25,-0.32,9.96
37908768,0.008216,-0.003735,0.001442,0.25,-0.34,9.99
37909778,0.010346,0.002656,0.003573,0.26,-0.40,10.06
37910819,-0.000307,0.006918,0.001442,0.21,-0.35,10.11
37911804,-0.010959,0.006918,-0.000688,0.12,-0.37,10.09
37912811,-0.005633,0.001591,0.001442,0.12,-0.41,10.06
37913821,-0.001372,-0.005866,0.001442,0.11,-0.40,10.09
37914831,-0.001372,-0.009062,0.003573,0.04,-0.45,10.02
37915848,-0.003502,-0.007996,0.002508,0.00,-0.44,9.98
37916851,-0.010959,-0.007996,0.001442,-0.06,-0.40,9.97
37917861,-0.005633,-0.005866,0.002508,-0.04,-0.42,9.80
37918871,-0.007764,-0.005866,0.003573,-0.04,-0.37,9.68
37919902,0.001824,-0.004801,0.004638,-0.08,-0.40,9.63
37920899,0.003955,-0.001605,0.002508,-0.11,-0.38,9.63
37921898,0.003955,0.001591,0.001442,-0.12,-0.36,9.58
37922912,0.006085,-0.002670,-0.000688,-0.14,-0.39,9.54
37923927,0.003955,-0.005866,0.000377,-0.16,-0.35,9.47
37924952,-0.000307,-0.006931,0.002508,-0.17,-0.35,9.43
37925957,0.007150,-0.009062,0.003573,-0.21,-0.39,9.50
37926956,0.008216,-0.010127,0.003573,-0.20,-0.36,9.46
37927967,0.007150,-0.014388,0.002508,-0.21,-0.34,9.41
37928979,0.006085,-0.014388,0.001442,-0.22,-0.38,9.49
37930019,0.012477,-0.014388,0.002508,-0.26,-0.33,9.55
37931013,0.011412,-0.007996,0.005703,-0.28,-0.36,9.58
37932006,0.007150,-0.006931,0.007834,-0.27,-0.39,9.56
37933022,0.000759,-0.007996,0.007834,-0.26,-0.34,9.57
37934025,-0.010959,-0.011192,0.003573,-0.26,-0.34,9.64
37935056,-0.012025,-0.015453,0.002508,-0.27,-0.32,9.77
37936061,-0.007764,-0.013323,0.002508,-0.23,-0.30,9.81
37937062,-0.002437,-0.007996,0.003573,-0.20,-0.31,9.80
37938070,-0.000307,-0.000539,0.003573,-0.18,-0.35,9.83
37939080,-0.002437,0.002656,0.003573,-0.15,-0.32,9.90
37940110,-0.000307,-0.001605,0.001442,-0.12,-0.31,9.94
37941103,0.003955,-0.005866,0.001442,-0.08,-0.39,9.97
37942099,0.009281,-0.000539,0.004638,-0.02,-0.40,10.08
37943108,0.006085,0.007983,0.005703,0.03,-0.37,10.11
37944122,0.001824,0.010113,0.003573,0.08,-0.34,10.05
37945150,0.005020,0.009048,0.003573,0.13,-0.34,10.08
37946151,0.009281,0.012244,0.004638,0.18,-0.31,10.11
37947153,0.007150,0.006918,0.003573,0.23,-0.32,10.06
37948160,-0.005633,-0.002670,0.002508,0.28,-0.30,10.00
37949170,-0.016286,-0.005866,0.001442,0.27,-0.24,9.99
37950207,-0.016286,-0.005866,0.002508,0.28,-0.24,10.03
37951198,-0.010959,-0.002670,0.004638,0.34,-0.28,10.03
37952199,-0.004568,0.001591,0.004638,0.37,-0.28,10.06
37953209,0.000759,0.004787,0.004638,0.33,-0.33,10.12
37954219,0.006085,0.006918,0.004638,0.27,-0.34,10.16
37955248,0.015673,0.006918,0.004638,0.22,-0.36,10.22
37956250,0.026325,0.004787,0.005703,0.14,-0.40,10.22
37957251,0.030587,0.003722,0.007834,0.06,-0.42,10.12
37958261,0.027391,0.002656,0.008899,-0.02,-0.41,9.97
37959271,0.019934,-0.001605,0.007834,-0.08,-0.45,9.74
37960305,0.014607,-0.006931,0.006769,-0.15,-0.48,9.52
37961298,0.011412,-0.009062,0.007834,-0.24,-0.45,9.34
37962298,0.007150,-0.007996,0.006769,-0.33,-0.44,9.09
37963308,0.000759,-0.007996,0.005703,-0.38,-0.44,9.03
37964318,-0.002437,-0.004801,0.002508,-0.37,-0.38,9.08
37965347,-0.008829,-0.001605,0.003573,-0.40,-0.34,9.19
37966348,-0.013090,0.001591,0.005703,-0.40,-0.30,9.43
37967350,-0.012025,0.003722,0.003573,-0.35,-0.27,9.59
37968360,-0.013090,0.003722,0.001442,-0.28,-0.27,9.69
37969370,-0.012025,0.003722,0.002508,-0.21,-0.24,9.82
37970407,-0.006698,0.004787,0.004638,-0.19,-0.22,9.95
37971398,0.000759,0.003722,0.004638,-0.10,-0.26,10.00
37972399,0.000759,0.003722,0.003573,-0.02,-0.22,10.04
37973409,-0.007764,0.001591,0.002508,0.01,-0.18,10.08
37974419,-0.013090,-0.004801,0.000377,0.03,-0.20,10.08
37975448,-0.009894,-0.006931,0.000377,0.08,-0.22,10.01
37976450,0.003955,-0.000539,0.002508,0.12,-0.22,10.05
37977451,0.008216,-0.000539,0.001442,0.13,-0.23,10.04
37978461,0.000759,-0.001605,0.000377,0.15,-0.28,9.96
37979471,-0.001372,0.003722,0.002508,0.18,-0.30,9.98
37980505,-0.000307,0.004787,0.002508,0.22,-0.29,9.96
37981498,0.012477,0.006918,0.003573,0.21,-0.31,9.94
37982498,0.013542,0.003722,0.004638,0.23,-0.38,9.90
37983508,0.002889,0.003722,0.005703,0.24,-0.39,9.90
37984518,-0.006698,0.003722,0.004638,0.21,-0.37,9.96
37985547,-0.015221,0.001591,0.002508,0.16,-0.30,10.07
37986548,-0.013090,-0.001605,0.001442,0.16,-0.34,10.16
37987550,-0.010959,-0.001605,0.001442,0.16,-0.38,10.10
37988560,-0.004568,0.002656,0.001442,0.16,-0.33,10.02
37989570,-0.012025,0.002656,0.000377,0.13,-0.31,10.03
37990607,-0.012025,0.000526,-0.000688,0.09,-0.32,10.01
37991598,-0.021612,-0.001605,0.000377,0.08,-0.29,10.05
37992599,-0.019482,-0.002670,0.001442,0.07,-0.31,10.04
37993609,-0.024808,-0.004801,0.000377,0.05,-0.30,10.01
37994619,-0.017351,-0.012258,-0.000688,-0.02,-0.29,9.98
37995648,-0.012025,-0.012258,0.001442,-0.02,-0.36,9.98
37996650,0.000759,-0.002670,0.007834,0.01,-0.34,9.98
37997651,0.019934,0.000526,0.009965,-0.01,-0.31,9.87
37998661,0.013542,0.000526,0.006769,-0.03,-0.34,9.76
37999694,0.010346,-0.001605,0.004638,-0.07,-0.32,9.73
38000705,0.000759,-0.001605,0.002508,-0.08,-0.33,9.71
38001699,-0.003502,0.004787,0.003573,-0.10,-0.36,9.69
38002698,0.001824,0.007983,0.007834,-0.11,-0.36,9.65
38003708,0.000759,0.005852,0.007834,-0.11,-0.38,9.60
38004718,0.002889,0.001591,0.006769,-0.14,-0.42,9.54
38005747,-0.001372,0.000526,0.005703,-0.16,-0.40,9.47
38006748,-0.000307,0.000526,0.006769,-0.20,-0.41,9.42
38007750,-0.003502,-0.001605,0.004638,-0.25,-0.43,9.37
38008760,0.001824,-0.003735,0.002508,-0.29,-0.38,9.35
38009770,0.000759,-0.002670,0.002508,-0.29,-0.35,9.33
38010807,0.001824,-0.003735,0.006769,-0.29,-0.36,9.34
38011799,0.000759,-0.000539,0.007834,-0.30,-0.35,9.45
38012799,-0.004568,-0.000539,0.004638,-0.27,-0.35,9.54
38013809,-0.002437,-0.000539,0.003573,-0.25,-0.33,9.57
38014819,-0.000307,-0.000539,0.002508,-0.28,-0.32,9.60
38015848,0.006085,-0.002670,0.002508,-0.26,-0.34,9.65
38016850,0.007150,0.000526,0.005703,-0.23,-0.33,9.76
38017851,0.003955,0.007983,0.006769,-0.20,-0.33,9.83
38018861,0.001824,0.003722,0.005703,-0.15,-0.34,9.88
38019871,0.003955,-0.003735,0.004638,-0.11,-0.35,9.95
38020908,0.008216,-0.001605,0.005703,-0.07,-0.37,10.00
38021899,0.005020,0.002656,0.006769,-0.01,-0.39,10.00
38022898,-0.005633,-0.001605,0.004638,-0.01,-0.39,10.00
38023912,-0.013090,-0.004801,0.002508,0.01,-0.36,10.03
38024942,-0.007764,-0.003735,0.003573,0.07,-0.32,10.04
38025934,0.008216,0.000526,0.006769,0.09,-0.30,10.04
38026961,0.013542,0.000526,0.007834,0.15,-0.28,10.03
38027954,0.002889,-0.004801,0.004638,0.22,-0.27,10.06
38028970,-0.004568,-0.004801,0.004638,0.25,-0.22,10.02
38030007,-0.005633,-0.001605,0.002508,0.26,-0.19,9.94
38030993,-0.004568,0.000526,0.000377,0.29,-0.27,9.99
38032007,-0.000307,0.005852,0.001442,0.33,-0.28,10.05
38033008,0.007150,0.006918,0.003573,0.36,-0.30,10.10
38034021,0.013542,0.002656,0.005703,0.34,-0.34,10.16
38035046,0.015673,-0.002670,0.007834,0.29,-0.33,10.21
38036038,0.019934,-0.006931,0.006769,0.20,-0.38,10.17
38037058,0.027391,-0.005866,0.007834,0.08,-0.40,10.12
38038059,0.028456,-0.005866,0.006769,0.00,-0.41,10.03
38039070,0.023130,-0.004801,0.006769,-0.06,-0.45,9.83
38040103,0.022064,-0.004801,0.006769,-0.11,-0.49,9.62
38041085,0.026325,-0.003735,0.008899,-0.15,-0.49,9.37
38042102,0.029521,-0.003735,0.009965,-0.26,-0.44,9.16
38043099,0.030587,-0.006931,0.006769,-0.38,-0.43,9.06
38044108,0.029521,-0.012258,0.005703,-0.42,-0.41,9.09
38045141,0.024195,-0.014388,0.007834,-0.43,-0.38,9.20
38046135,0.012477,-0.010127,0.008899,-0.40,-0.34,9.32
38047150,-0.004568,-0.003735,0.004638,-0.36,-0.34,9.44
38048153,-0.022677,-0.003735,-0.000688,-0.37,-0.32,9.58
38049160,-0.032265,-0.004801,-0.001754,-0.28,-0.31,9.75
38050205,-0.025873,-0.003735,0.000377,-0.15,-0.32,9.86
38051181,-0.005633,0.000526,0.002508,-0.08,-0.31,9.92
38052196,0.011412,0.006918,0.004638,-0.08,-0.28,9.97
38053199,0.012477,0.005852,0.005703,-0.08,-0.23,10.02
38054209,0.005020,-0.002670,0.004638,0.02,-0.20,10.07
38055238,0.002889,-0.006931,0.003573,0.09,-0.25,10.05
38056233,0.003955,-0.004801,0.003573,0.07,-0.27,10.01
38057248,0.008216,0.001591,0.002508,0.12,-0.24,10.09
38058251,0.007150,0.000526,-0.000688,0.18,-0.25,10.10
38059261,0.002889,-0.003735,-0.001754,0.17,-0.28,9.98
38060295,-0.001372,-0.002670,-0.000688,0.19,-0.32,9.97
38061281,-0.007764,-0.002670,0.000377,0.18,-0.33,9.98
38062295,-0.007764,-0.009062,0.000377,0.18,-0.36,9.95
38063298,-0.000307,-0.010127,0.000377,0.24,-0.33,9.94
38064308,0.002889,-0.011192,-0.001754,0.21,-0.34,9.97
38065337,-0.005633,-0.004801,-0.000688,0.17,-0.37,9.99
38066331,-0.009894,0.000526,0.002508,0.19,-0.37,10.05
38067347,-0.014155,0.004787,0.002508,0.19,-0.34,10.07
38068359,-0.008829,0.009048,0.001442,0.15,-0.29,10.04
38069360,-0.009894,0.012244,0.000377,0.15,-0.30,10.09
38070397,-0.001372,0.010113,0.000377,0.14,-0.31,10.08
38071381,-0.002437,0.006918,0.002508,0.07,-0.31,10.05
38072396,0.007150,0.002656,0.005703,0.04,-0.33,10.06
38073399,0.006085,0.006918,0.006769,0.03,-0.34,10.05
38074409,0.008216,0.009048,0.007834,0.06,-0.30,10.05
38075438,0.012477,0.006918,0.006769,0.04,-0.28,10.00
38076433,0.003955,-0.000539,0.006769,0.04,-0.34,9.91
38077448,0.002889,-0.005866,0.004638,0.04,-0.33,9.92
38078451,-0.012025,-0.007996,0.002508,-0.02,-0.30,9.88
38079461,-0.010959,-0.012258,0.002508,0.00,-0.37,9.83
38080495,0.003955,-0.018649,0.003573,0.00,-0.36,9.79
38081481,0.006085,-0.019715,0.002508,-0.04,-0.33,9.68
38082495,0.000759,-0.017584,0.001442,-0.04,-0.36,9.64
38083498,-0.001372,-0.011192,0.003573,-0.12,-0.37,9.61
38084508,0.003955,-0.000539,0.005703,-0.13,-0.38,9.57
38085518,0.008216,0.000526,0.004638,-0.14,-0.39,9.49
38086528,0.011412,-0.000539,0.004638,-0.19,-0.41,9.50
38087545,0.010346,0.003722,0.007834,-0.23,-0.40,9.45
38088548,0.008216,0.009048,0.006769,-0.25,-0.35,9.36
38089558,0.001824,0.013309,0.006769,-0.26,-0.37,9.37
38090596,-0.006698,0.012244,0.005703,-0.27,-0.40,9.42
38091584,-0.005633,0.012244,0.006769,-0.27,-0.40,9.47
38092598,-0.000307,0.009048,0.006769,-0.27,-0.38,9.51
38093601,0.008216,-0.000539,0.005703,-0.28,-0.35,9.55
38094611,0.008216,-0.007996,0.006769,-0.29,-0.35,9.59
38095630,-0.004568,-0.005866,0.007834,-0.27,-0.31,9.68
38096631,-0.008829,-0.002670,0.007834,-0.23,-0.31,9.77
38097648,-0.002437,0.003722,0.008899,-0.20,-0.37,9.81
38098651,0.000759,0.004787,0.008899,-0.17,-0.37,9.86
38099661,-0.006698,-0.002670,0.004638,-0.13,-0.37,9.91
38100691,-0.008829,-0.010127,0.002508,-0.10,-0.35,9.94
38101681,0.002889,-0.005866,0.005703,-0.03,-0.34,9.93
38102695,0.010346,0.001591,0.005703,0.00,-0.33,9.98
38103698,0.003955,-0.000539,0.005703,0.01,-0.34,10.04
38104708,-0.006698,0.000526,0.004638,0.04,-0.33,10.05
38105718,-0.006698,0.006918,0.006769,0.11,-0.31,10.08
38106728,0.010346,0.013309,0.011030,0.16,-0.28,10.11
38107745,0.022064,0.015440,0.013160,0.20,-0.21,10.11
38108748,0.011412,0.007983,0.013160,0.26,-0.21,10.04
38109758,-0.005633,-0.001605,0.011030,0.30,-0.22,10.01
38110796,-0.013090,-0.009062,0.007834,0.30,-0.21,10.05
38111784,-0.015221,-0.011192,0.004638,0.28,-0.25,10.09
38112798,-0.016286,-0.007996,0.001442,0.31,-0.31,10.09
38113801,-0.017351,-0.004801,0.000377,0.32,-0.30,10.15
38114811,-0.014155,-0.000539,0.004638,0.28,-0.34,10.25
38115821,-0.007764,0.003722,0.009965,0.22,-0.38,10.25
38116831,0.002889,0.002656,0.009965,0.12,-0.40,10.15
38117848,0.014607,0.000526,0.009965,0.01,-0.40,10.04
38118851,0.020999,0.001591,0.008899,-0.02,-0.43,9.93
38119861,0.024195,0.004787,0.006769,-0.05,-0.46,9.70
38120891,0.020999,0.000526,0.007834,-0.11,-0.47,9.45
38121881,0.016738,-0.003735,0.011030,-0.21,-0.48,9.27
38122895,0.016738,-0.005866,0.009965,-0.32,-0.44,9.18
38123898,0.018868,-0.006931,0.008899,-0.39,-0.39,9.10
38124911,0.017803,-0.009062,0.009965,-0.42,-0.37,9.07
38125924,0.010346,-0.009062,0.011030,-0.43,-0.36,9.22
38126933,0.003955,-0.000539,0.009965,-0.42,-0.34,9.40
38127956,0.007150,0.010113,0.009965,-0.34,-0.31,9.52
38128952,0.013542,0.015440,0.009965,-0.28,-0.25,9.66
38129997,0.013542,0.011179,0.008899,-0.24,-0.23,9.76
38130983,0.006085,0.003722,0.009965,-0.17,-0.27,9.88
38131989,0.000759,-0.003735,0.009965,-0.11,-0.30,9.97
38133010,0.002889,-0.006931,0.007834,-0.06,-0.27,9.99
38134015,0.005020,-0.002670,0.007834,-0.01,-0.24,10.01
38135019,0.001824,-0.000539,0.007834,0.00,-0.28,9.99
38136032,-0.002437,-0.004801,0.008899,0.01,-0.27,10.02
38137037,-0.006698,-0.007996,0.007834,0.04,-0.24,10.01
38138060,-0.004568,-0.003735,0.007834,0.12,-0.26,9.96
38139062,-0.002437,-0.004801,0.005703,0.16,-0.28,9.95
38140094,-0.003502,-0.003735,0.006769,0.15,-0.30,9.94
38141080,-0.001372,-0.001605,0.004638,0.17,-0.30,9.95
38142087,0.009281,-0.003735,0.003573,0.19,-0.30,9.98
38143099,0.019934,-0.004801,0.003573,0.17,-0.29,9.97
38144099,0.024195,-0.004801,0.006769,0.16,-0.28,9.95
