time_us,gyro_x_rad_s,gyro_y_rad_s,gyro_z_rad_s,acc_x_m_s2,acc_y_m_s2,acc_z_m_s2
15674925,0.001941,-0.001602,0.000514,-0.03,-0.29,9.85
15675672,-0.001255,-0.002668,-0.000551,-0.02,-0.29,9.84
15676700,-0.002320,-0.002668,0.000514,-0.01,-0.26,9.84
15677689,-0.001255,-0.001602,0.003710,0.00,-0.28,9.84
15678698,-0.000189,-0.000537,0.004775,-0.02,-0.30,9.82
15679699,0.000876,0.000528,0.004775,-0.01,-0.29,9.82
15680729,0.001941,-0.000537,0.000514,0.01,-0.30,9.82
15681726,0.001941,-0.002668,-0.002682,-0.01,-0.31,9.83
15682732,-0.000189,-0.003733,-0.001616,-0.04,-0.31,9.83
15683748,-0.001255,-0.001602,0.001580,-0.02,-0.30,9.78
15684752,-0.001255,-0.000537,0.002645,0.01,-0.31,9.76
15685762,-0.001255,-0.000537,0.000514,-0.01,-0.33,9.78
15686772,-0.003385,0.000528,-0.000551,-0.02,-0.33,9.79
15687782,-0.002320,0.000528,0.000514,-0.02,-0.30,9.85
15688797,-0.001255,-0.001602,0.001580,-0.05,-0.26,9.88
15689815,-0.001255,-0.001602,-0.000551,-0.06,-0.28,9.81
15690814,-0.001255,-0.002668,-0.000551,-0.02,-0.31,9.78
15691819,-0.001255,-0.002668,0.000514,-0.01,-0.32,9.78
15692829,-0.001255,-0.001602,0.000514,-0.03,-0.34,9.80
15693845,-0.002320,-0.000537,0.001580,-0.03,-0.34,9.80
15694849,-0.001255,-0.000537,0.002645,-0.02,-0.32,9.77
15695859,0.000876,0.000528,0.001580,-0.04,-0.28,9.78
15696869,0.000876,0.000528,0.000514,-0.03,-0.29,9.81
15697879,-0.000189,0.000528,-0.000551,-0.04,-0.29,9.82
15698896,-0.001255,-0.001602,-0.000551,-0.08,-0.30,9.84
15699924,-0.002320,-0.000537,-0.000551,-0.04,-0.30,9.85
15700922,-0.002320,0.000528,-0.000551,-0.02,-0.29,9.82
15701925,-0.002320,0.001593,-0.000551,-0.03,-0.29,9.84
15702937,-0.000189,0.000528,0.000514,-0.02,-0.31,9.82
15703952,0.000876,-0.000537,0.000514,0.00,-0.32,9.78
15704959,0.001941,-0.001602,0.001580,-0.03,-0.30,9.82
15705973,0.000876,0.000528,0.001580,-0.03,-0.32,9.82
15706977,-0.000189,0.000528,-0.000551,-0.02,-0.31,9.81
15707987,-0.000189,0.000528,-0.001616,-0.03,-0.30,9.83
15709012,-0.001255,-0.000537,0.000514,-0.03,-0.29,9.81
15710027,-0.001255,-0.000537,0.001580,-0.05,-0.28,9.83
15711024,-0.001255,-0.000537,0.000514,-0.04,-0.29,9.81
15712032,-0.001255,-0.001602,-0.002682,0.00,-0.28,9.80
15713040,-0.002320,-0.002668,-0.002682,-0.01,-0.31,9.81
15714057,-0.000189,-0.002668,0.000514,-0.03,-0.33,9.81
15715060,0.001941,-0.000537,0.003710,-0.03,-0.29,9.81
15716067,0.003007,0.000528,0.003710,-0.03,-0.28,9.78
15717080,0.000876,0.000528,0.001580,-0.01,-0.26,9.77
15718088,0.000876,0.001593,0.000514,-0.01,-0.29,9.78
15719104,0.001941,0.000528,0.000514,-0.05,-0.34,9.80
15720124,0.000876,-0.001602,0.003710,-0.07,-0.32,9.84
15721121,-0.001255,-0.000537,0.002645,-0.04,-0.31,9.87
15722122,-0.003385,-0.000537,-0.000551,-0.02,-0.30,9.88
15723132,-0.003385,-0.001602,-0.002682,-0.01,-0.28,9.85
15724151,-0.001255,-0.000537,-0.003747,0.00,-0.29,9.81
15725155,0.003007,0.001593,-0.002682,0.00,-0.33,9.81
15726164,0.004072,0.002659,-0.001616,-0.02,-0.33,9.81
15727174,0.000876,0.001593,0.000514,-0.03,-0.29,9.81
15728182,-0.001255,-0.000537,0.001580,-0.01,-0.30,9.82
15729227,-0.000147,-0.000493,0.001511,-0.02,-0.30,9.81
15730215,-0.001212,0.000572,0.000445,-0.02,-0.28,9.81
15731214,-0.004408,-0.000493,0.000445,-0.01,-0.30,9.86
15732219,-0.003342,0.001637,0.001511,-0.02,-0.33,9.87
15733229,-0.001212,0.001637,0.001511,-0.02,-0.33,9.83
15734245,-0.001212,0.001637,0.002576,-0.03,-0.32,9.80
15735249,-0.001212,0.002702,0.003641,-0.01,-0.31,9.82
15736259,-0.000147,0.003768,0.003641,0.00,-0.30,9.80
15737269,0.000919,0.002702,0.001511,-0.02,-0.31,9.79
15738279,0.000919,0.000572,0.000445,-0.02,-0.30,9.79
15739296,-0.000147,0.000572,0.000445,-0.02,-0.31,9.74
15740321,-0.001212,0.000572,-0.000620,-0.02,-0.31,9.75
15741316,-0.001212,0.000572,0.000445,0.00,-0.27,9.76
15742322,-0.003342,0.002702,0.001511,-0.04,-0.27,9.79
15743332,-0.003342,0.002702,0.000445,-0.04,-0.30,9.82
15744347,-0.003342,0.000572,0.000445,-0.02,-0.31,9.85
15745352,-0.001212,-0.001559,0.000445,-0.02,-0.30,9.88
15746362,-0.001212,-0.002624,0.001511,-0.02,-0.30,9.81
15747372,-0.000147,-0.003689,0.001511,-0.04,-0.30,9.79
15748382,0.001984,-0.002624,0.000445,-0.05,-0.30,9.82
15749397,0.001984,-0.001559,0.000445,-0.04,-0.28,9.79
15750416,-0.000147,-0.001559,0.000445,-0.01,-0.29,9.79
15751414,0.000919,-0.001559,-0.000620,-0.01,-0.31,9.82
15752419,0.000919,-0.001559,0.000445,-0.04,-0.30,9.85
15753429,-0.001212,-0.000493,0.000445,-0.05,-0.29,9.85
15754444,-0.001212,0.002702,0.001511,-0.04,-0.31,9.81
15755449,-0.000147,0.003768,0.001511,-0.04,-0.34,9.79
15756459,-0.000147,0.001637,0.001511,-0.02,-0.33,9.77
15757469,-0.001212,-0.000493,-0.000620,-0.02,-0.30,9.82
15758479,-0.001212,-0.000493,-0.001685,-0.04,-0.28,9.86
15759498,-0.000147,0.000572,-0.003816,-0.04,-0.29,9.84
15760519,-0.000147,0.001637,-0.002750,-0.04,-0.30,9.86
15761516,-0.000147,0.000572,-0.000620,-0.03,-0.29,9.81
15762522,-0.001212,0.000572,0.000445,-0.06,-0.28,9.77
15763532,0.000919,0.000572,0.001511,-0.06,-0.28,9.78
15764548,0.003049,0.001637,0.002576,-0.04,-0.30,9.79
15765552,-0.000147,0.003768,0.002576,-0.03,-0.29,9.80
15766562,-0.001212,0.003768,0.001511,-0.02,-0.29,9.82
15767572,-0.000147,0.001637,-0.000620,-0.01,-0.31,9.80
15768582,-0.001212,0.000572,-0.000620,-0.05,-0.32,9.80
15769597,-0.001212,0.003768,-0.000620,-0.06,-0.35,9.81
15770615,0.000919,0.004833,-0.000620,-0.02,-0.34,9.81
15771614,0.000919,0.000572,0.000445,-0.01,-0.31,9.81
15772641,0.000919,-0.000493,0.000445,-0.02,-0.33,9.83
15773629,-0.000147,-0.001559,0.000445,-0.04,-0.33,9.82
15774645,-0.000147,-0.000493,0.001511,-0.07,-0.29,9.82
15775649,0.000919,0.001637,0.001511,-0.08,-0.26,9.83
15776659,0.001984,0.002702,-0.000620,-0.05,-0.26,9.82
15777669,0.001984,0.000572,-0.001685,-0.03,-0.30,9.79
15778679,0.004115,-0.000493,-0.000620,-0.03,-0.32,9.81
15779727,0.004115,-0.000493,-0.000620,-0.06,-0.32,9.82
15780706,0.001984,0.001637,-0.001685,-0.03,-0.32,9.82
15781712,-0.000147,0.001637,-0.001685,-0.01,-0.31,9.85
15782722,0.000919,-0.001559,0.000445,-0.02,-0.32,9.87
15783732,-0.001212,-0.003689,0.001511,-0.02,-0.30,9.91
15784747,-0.000147,-0.001559,0.000445,-0.02,-0.29,9.90
15785752,0.000919,0.000572,0.000445,0.00,-0.30,9.83
15786762,0.000919,0.000572,0.000445,0.00,-0.31,9.82
15787772,0.000919,0.001637,0.001511,-0.02,-0.32,9.82
15788782,0.000919,0.002702,0.001511,-0.03,-0.36,9.80
15789806,0.000919,0.003768,0.000445,-0.02,-0.34,9.78
15790804,0.000919,0.003768,0.000445,-0.01,-0.31,9.79
15791809,-0.001212,0.003768,-0.000620,-0.02,-0.31,9.81
15792819,-0.003342,0.002702,-0.001685,-0.04,-0.30,9.83
15793829,-0.004408,0.001637,-0.001685,0.00,-0.30,9.81
15794844,-0.003342,-0.001559,-0.000620,0.00,-0.29,9.77
15795849,-0.001212,-0.002624,-0.001685,-0.03,-0.30,9.78
15796859,0.000919,-0.000493,-0.001685,-0.03,-0.31,9.82
15797869,0.000919,0.000572,-0.000620,-0.02,-0.31,9.88
15798879,-0.000147,-0.000493,-0.000620,-0.01,-0.29,9.87
15799915,-0.000147,-0.002624,-0.000620,-0.02,-0.30,9.79
15800906,-0.000147,-0.003689,0.000445,0.00,-0.30,9.76
15801913,-0.000147,-0.001559,0.000445,-0.02,-0.29,9.81
15802925,-0.001212,0.000572,-0.000620,-0.06,-0.30,9.82
15803938,-0.001212,0.000572,-0.001685,-0.04,-0.32,9.80
15804951,0.000919,-0.000493,0.000445,-0.03,-0.33,9.86
15805958,0.001984,-0.001559,0.002576,-0.04,-0.30,9.86
15806972,-0.000147,-0.000493,0.002576,-0.06,-0.28,9.83
15807978,-0.002277,0.000572,0.001511,-0.03,-0.28,9.78
15808990,-0.003342,-0.001559,0.000445,0.01,-0.30,9.78
15810015,-0.003342,0.000572,0.000445,-0.04,-0.31,9.82
15811014,-0.001212,0.001637,0.001511,-0.07,-0.29,9.85
15812021,-0.000147,0.000572,0.000445,-0.05,-0.28,9.86
15813042,-0.000147,0.000572,-0.000620,-0.03,-0.30,9.86
15814042,0.000919,0.001637,-0.000620,-0.02,-0.31,9.86
15815057,0.000919,0.002702,-0.000620,-0.03,-0.29,9.80
15816061,0.000919,0.000572,-0.000620,-0.02,-0.30,9.82
15817072,-0.000147,-0.000493,-0.001685,-0.02,-0.29,9.85
15818080,-0.000147,-0.000493,-0.002750,-0.04,-0.30,9.82
15819090,0.000919,0.001637,-0.000620,-0.01,-0.32,9.79
15820123,0.001984,0.001637,-0.000620,-0.02,-0.28,9.81
15821110,0.001984,0.000572,-0.001685,-0.03,-0.28,9.81
15822116,0.000919,0.000572,-0.001685,-0.01,-0.30,9.80
15823135,-0.001212,0.001637,0.000445,-0.01,-0.29,9.78
15824137,-0.002277,0.002702,0.001511,-0.02,-0.28,9.76
15825149,-0.002277,0.001637,0.001511,-0.03,-0.27,9.82
15826155,-0.000147,-0.000493,-0.001685,-0.02,-0.27,9.83
15827164,-0.000147,-0.000493,-0.002750,-0.05,-0.29,9.82
15828174,-0.002277,0.000572,-0.002750,-0.02,-0.32,9.84
15829182,-0.001212,-0.000493,0.000445,0.00,-0.32,9.82
15830209,-0.000147,-0.002624,0.001511,0.00,-0.29,9.81
15831204,-0.000147,-0.003689,0.001511,0.02,-0.30,9.82
15832209,-0.001212,-0.003689,0.000445,-0.01,-0.34,9.82
15833234,-0.000147,-0.003689,-0.000620,-0.05,-0.34,9.86
15834232,-0.000147,-0.002624,-0.002750,-0.02,-0.31,9.86
15835245,-0.002277,-0.003689,-0.002750,0.00,-0.32,9.81
15836251,-0.003342,-0.003689,-0.002750,-0.01,-0.31,9.81
15837261,-0.002277,-0.001559,0.000445,0.00,-0.29,9.80
15838271,-0.002277,-0.000493,0.002576,0.01,-0.27,9.82
15839281,-0.000147,-0.001559,0.002576,-0.02,-0.29,9.84
15840315,-0.000147,-0.000493,0.001511,-0.03,-0.34,9.78
15841305,0.000919,0.000572,0.000445,-0.04,-0.33,9.74
15842311,0.000919,-0.000493,-0.000620,-0.02,-0.31,9.80
15843335,0.000919,-0.001559,-0.001685,0.00,-0.31,9.79
15844333,0.000919,-0.002624,-0.001685,-0.02,-0.32,9.76
15845347,-0.001212,-0.003689,-0.001685,-0.01,-0.34,9.82
15846352,-0.002277,-0.002624,-0.000620,-0.02,-0.34,9.80
15847362,-0.002277,-0.000493,0.000445,-0.03,-0.32,9.79
15848372,-0.000147,-0.000493,-0.000620,-0.04,-0.31,9.80
15849382,-0.000147,-0.001559,-0.000620,-0.02,-0.32,9.80
15850409,-0.000147,-0.002624,-0.001685,0.01,-0.31,9.81
15851404,-0.000147,-0.002624,0.000445,0.00,-0.30,9.83
15852409,-0.000147,-0.001559,0.001511,-0.02,-0.28,9.79
15853434,-0.000147,0.000572,0.001511,-0.03,-0.29,9.75
15854432,0.001984,0.002702,-0.001685,-0.04,-0.31,9.78
15855445,0.001984,0.003768,-0.002750,-0.05,-0.30,9.81
15856451,-0.000147,0.000572,-0.000620,-0.05,-0.30,9.82
15857461,-0.000147,-0.001559,0.000445,-0.04,-0.33,9.82
15858503,-0.001173,-0.001572,0.000440,-0.05,-0.33,9.82
15859481,-0.002238,0.000558,-0.001691,-0.03,-0.30,9.84
15860515,-0.000108,0.000558,-0.002756,-0.01,-0.30,9.83
15861505,0.000957,-0.000507,-0.001691,-0.03,-0.30,9.87
15862511,0.002023,0.000558,0.000440,-0.03,-0.29,9.87
15863535,0.003088,0.003754,0.000440,-0.02,-0.30,9.82
15864533,0.003088,0.002689,-0.000625,-0.02,-0.29,9.81
15865547,-0.000108,-0.001572,-0.001691,-0.01,-0.29,9.80
15866552,-0.000108,-0.002638,0.000440,-0.02,-0.31,9.77
15867562,-0.001173,-0.002638,0.001505,-0.02,-0.31,9.80
15868572,-0.001173,-0.002638,-0.000625,0.00,-0.30,9.79
15869582,-0.000108,-0.000507,-0.001691,0.01,-0.28,9.80
15870609,0.000957,-0.000507,-0.001691,-0.01,-0.28,9.85
15871604,0.000957,-0.001572,-0.001691,0.00,-0.28,9.87
15872609,-0.000108,-0.000507,-0.002756,0.00,-0.28,9.90
15873634,-0.000108,-0.000507,-0.001691,-0.02,-0.33,9.82
15874632,-0.000108,-0.002638,0.000440,-0.03,-0.31,9.78
15875645,-0.001173,-0.002638,0.000440,-0.02,-0.31,9.78
15876651,0.000957,-0.002638,-0.000625,-0.02,-0.30,9.81
15877661,0.003088,-0.002638,-0.000625,0.00,-0.31,9.83
15878671,0.002023,0.000558,-0.001691,-0.02,-0.31,9.79
15879681,-0.000108,0.001623,-0.001691,-0.01,-0.30,9.76
15880715,-0.001173,0.001623,-0.000625,0.00,-0.28,9.84
15881734,-0.002238,0.000558,0.000440,-0.04,-0.28,9.84
15882711,-0.003304,-0.000507,0.001505,-0.05,-0.31,9.79
15883735,-0.003304,0.000558,0.000440,-0.05,-0.33,9.81
15884733,-0.002238,0.000558,-0.001691,-0.06,-0.30,9.80
15885747,-0.003304,0.001623,-0.001691,-0.04,-0.29,9.82
15886752,-0.002238,-0.000507,-0.000625,-0.02,-0.28,9.82
15887762,-0.000108,-0.001572,0.001505,0.00,-0.28,9.79
15888772,0.000957,-0.001572,0.001505,0.00,-0.29,9.81
15889799,0.002023,0.000558,0.000440,-0.02,-0.28,9.81
15890799,0.000957,0.001623,0.000440,-0.04,-0.31,9.78
15891799,-0.000108,0.000558,0.001505,-0.02,-0.32,9.81
15892809,-0.001173,0.000558,0.001505,-0.03,-0.28,9.84
15893834,-0.001173,0.001623,-0.000625,-0.04,-0.28,9.81
15894832,-0.000108,0.001623,-0.000625,-0.04,-0.30,9.85
15895845,0.000957,0.000558,-0.000625,-0.06,-0.31,9.84
15896851,0.002023,0.000558,-0.000625,-0.04,-0.30,9.78
15897861,0.002023,0.000558,-0.000625,-0.04,-0.29,9.79
15898871,0.002023,0.001623,-0.001691,-0.03,-0.28,9.87
15899902,-0.001173,0.002689,-0.000625,-0.02,-0.29,9.86
15900904,-0.004369,0.000558,0.003636,-0.04,-0.30,9.78
15901901,-0.003304,-0.001572,0.004701,-0.04,-0.30,9.78
15902925,-0.002238,-0.002638,0.001505,-0.03,-0.32,9.80
15903925,-0.001173,-0.001572,-0.001691,-0.01,-0.34,9.81
15904937,-0.001173,0.000558,-0.003821,-0.02,-0.33,9.85
15905952,-0.001173,-0.000507,-0.003821,-0.04,-0.29,9.89
15906956,-0.002238,-0.001572,-0.002756,-0.04,-0.27,9.82
15907973,-0.000108,-0.001572,-0.001691,-0.02,-0.28,9.74
15908978,0.002023,-0.001572,0.000440,-0.01,-0.29,9.76
15910013,0.004153,-0.000507,0.000440,-0.04,-0.31,9.82
15911019,0.005219,-0.000507,0.000440,-0.02,-0.30,9.77
15912012,0.005219,-0.001572,-0.000625,-0.01,-0.31,9.79
15913038,0.004153,-0.001572,-0.001691,-0.03,-0.31,9.88
15914032,0.000957,-0.000507,-0.000625,-0.03,-0.30,9.85
15915042,-0.000108,0.000558,-0.000625,-0.03,-0.32,9.82
15916061,0.000957,-0.000507,-0.000625,-0.04,-0.32,9.81
15917061,0.003088,0.000558,-0.001691,-0.04,-0.30,9.79
15918070,0.003088,0.000558,-0.002756,-0.05,-0.30,9.81
15919078,-0.001173,-0.000507,-0.000625,-0.04,-0.31,9.83
15920107,-0.005434,-0.001572,0.001505,-0.02,-0.29,9.83
15921112,-0.005434,-0.001572,0.001505,-0.02,-0.28,9.80
15922107,-0.002238,-0.000507,-0.000625,-0.03,-0.29,9.79
15923129,-0.000108,0.000558,-0.002756,-0.03,-0.32,9.87
15924123,-0.001173,0.000558,-0.001691,-0.03,-0.33,9.88
15925132,-0.000108,-0.001572,0.001505,-0.02,-0.32,9.81
15926149,0.000957,-0.001572,0.001505,-0.01,-0.31,9.78
15927155,-0.000108,-0.000507,0.000440,-0.02,-0.32,9.84
15928164,-0.003304,-0.000507,0.001505,-0.01,-0.32,9.87
15929174,-0.003304,0.000558,0.001505,-0.01,-0.30,9.84
15930199,-0.001173,0.000558,0.000440,-0.03,-0.31,9.83
15931199,0.002023,-0.000507,-0.001691,-0.04,-0.30,9.81
15932199,0.003088,-0.000507,-0.001691,-0.03,-0.29,9.83
15933223,0.003088,0.000558,-0.000625,-0.03,-0.28,9.83
15934222,0.000957,0.000558,0.001505,-0.04,-0.30,9.85
15935231,-0.001173,0.001623,0.001505,-0.04,-0.33,9.86
15936245,-0.002238,-0.000507,0.001505,-0.04,-0.33,9.84
15937251,-0.001173,-0.001572,-0.000625,-0.04,-0.32,9.82
15938261,0.000957,-0.002638,0.000440,-0.03,-0.30,9.80
15939271,-0.000108,-0.000507,0.002570,-0.02,-0.32,9.82
15940302,-0.001173,0.001623,0.000440,-0.06,-0.32,9.81
15941304,-0.000108,0.003754,-0.001691,-0.06,-0.29,9.77
15942301,0.000957,0.002689,0.000440,-0.04,-0.29,9.81
15943325,0.000957,0.001623,0.002570,-0.04,-0.30,9.83
15944323,-0.000108,0.002689,0.001505,-0.02,-0.30,9.78
15945332,-0.000108,0.001623,0.000440,0.00,-0.29,9.74
15946348,0.000957,0.000558,0.000440,0.02,-0.31,9.75
15947352,-0.000108,-0.001572,0.001505,-0.02,-0.32,9.78
15948362,-0.000108,-0.000507,0.000440,-0.06,-0.32,9.79
15949372,0.000957,0.001623,0.000440,-0.04,-0.31,9.82
15950398,-0.000108,-0.000507,0.001505,-0.02,-0.29,9.85
15951400,-0.001173,-0.001572,0.000440,-0.04,-0.28,9.86
15952399,-0.003304,-0.000507,0.000440,-0.05,-0.27,9.82
15953423,-0.003304,0.001623,0.000440,-0.04,-0.28,9.79
15954422,-0.001173,0.000558,-0.000625,-0.04,-0.30,9.76
15955431,-0.000108,0.000558,-0.000625,-0.02,-0.30,9.80
15956445,-0.000108,0.000558,0.001505,-0.02,-0.31,9.84
15957451,-0.000108,-0.000507,0.002570,-0.03,-0.34,9.80
15958461,0.000957,0.000558,0.003636,-0.01,-0.32,9.84
15959471,0.000957,0.002689,0.003636,0.02,-0.28,9.85
15960501,0.002023,0.003754,0.002570,0.00,-0.28,9.82
15961505,0.002023,0.003754,0.002570,-0.02,-0.29,9.84
15962501,-0.000108,0.000558,0.000440,-0.04,-0.28,9.81
15963525,-0.001173,0.000558,-0.000625,-0.03,-0.26,9.79
15964523,-0.000108,0.000558,-0.000625,-0.02,-0.32,9.80
15965532,-0.000108,0.000558,0.000440,-0.05,-0.34,9.84
15966547,-0.001173,0.002689,0.000440,-0.04,-0.28,9.90
15967552,-0.002238,0.003754,0.000440,0.00,-0.31,9.89
15968562,-0.002238,0.002689,-0.001691,-0.01,-0.33,9.77
15969572,-0.000108,0.001623,-0.002756,-0.03,-0.33,9.71
15970599,0.002023,-0.000507,-0.002756,-0.03,-0.30,9.76
15971599,0.000957,-0.000507,-0.000625,-0.02,-0.28,9.81
15972599,-0.002238,-0.001572,-0.000625,-0.03,-0.31,9.76
15973609,-0.003304,-0.002638,0.000440,-0.04,-0.30,9.79
15974619,-0.001173,0.000558,0.002570,-0.04,-0.31,9.76
15975629,-0.001173,0.001623,0.001505,-0.04,-0.33,9.77
15976644,-0.000108,0.000558,0.000440,-0.02,-0.30,9.84
15977649,-0.000108,0.000558,-0.000625,0.02,-0.27,9.80
15978659,-0.000108,0.001623,-0.001691,0.00,-0.29,9.74
15979669,0.000957,0.000558,-0.001691,-0.02,-0.31,9.81
15980699,0.000957,0.001623,-0.000625,-0.01,-0.29,9.84
15981705,-0.000108,0.001623,0.000440,-0.01,-0.28,9.79
15982702,0.000957,0.000558,-0.002756,-0.02,-0.30,9.76
15983733,-0.000108,0.000558,-0.002756,-0.01,-0.29,9.78
15984722,-0.000108,0.001623,-0.001691,-0.01,-0.30,9.82
15985732,-0.000108,0.001623,-0.000625,-0.02,-0.31,9.86
15986748,0.000957,0.001623,0.000440,-0.04,-0.31,9.85
15987784,0.002035,0.001599,-0.000611,-0.01,-0.28,9.80
15988762,0.003100,0.000534,-0.000611,-0.01,-0.29,9.82
15989785,0.004165,0.001599,0.001519,-0.03,-0.33,9.85
15990784,0.000969,-0.000531,0.001519,-0.03,-0.31,9.87
15991795,-0.004357,-0.002662,-0.000611,-0.06,-0.28,9.87
15992799,-0.002226,-0.003727,-0.001677,-0.04,-0.27,9.82
15993809,0.000969,-0.002662,0.000454,-0.03,-0.27,9.82
15994819,-0.000096,-0.001597,0.000454,-0.03,-0.31,9.81
15995829,-0.000096,-0.000531,-0.000611,0.00,-0.31,9.74
15996844,0.000969,-0.001597,-0.000611,-0.01,-0.25,9.75
15997849,0.002035,-0.002662,-0.000611,-0.03,-0.30,9.78
15998859,0.002035,-0.000531,0.000454,0.00,-0.34,9.79
15999888,0.003100,0.001599,0.000454,0.02,-0.30,9.80
16000886,0.005231,0.001599,0.000454,0.00,-0.29,9.82
16001901,0.005231,0.000534,0.001519,-0.03,-0.30,9.85
16002902,0.000969,-0.001597,0.001519,0.01,-0.31,9.83
16003914,-0.002226,0.000534,0.000454,0.00,-0.32,9.80
16004925,-0.001161,0.003730,-0.000611,-0.06,-0.29,9.79
16005938,-0.000096,0.002665,0.000454,-0.04,-0.30,9.79
16006951,0.002035,0.001599,-0.000611,-0.01,-0.30,9.82
16007958,0.000969,-0.001597,-0.001677,0.02,-0.29,9.80
16008972,-0.000096,-0.002662,0.000454,0.02,-0.30,9.83
16009994,-0.002226,-0.000531,0.000454,-0.02,-0.32,9.83
16010994,-0.003292,0.000534,-0.000611,-0.04,-0.33,9.82
16012004,-0.002226,0.001599,-0.000611,-0.03,-0.31,9.83
16013015,-0.001161,0.002665,0.001519,-0.01,-0.28,9.78
16014022,-0.001161,0.000534,0.002585,-0.01,-0.29,9.77
16015032,-0.001161,-0.000531,0.002585,0.01,-0.32,9.80
16016039,-0.000096,-0.001597,0.000454,0.04,-0.33,9.83
16017056,0.000969,-0.001597,-0.001677,0.00,-0.31,9.87
16018060,0.000969,-0.001597,-0.002742,-0.03,-0.30,9.87
16019071,0.002035,0.000534,-0.000611,-0.03,-0.32,9.81
16020099,0.002035,0.000534,0.001519,-0.03,-0.31,9.78
16021094,0.000969,0.001599,0.001519,-0.03,-0.29,9.80
16022110,-0.000096,0.001599,-0.000611,-0.02,-0.31,9.81
16023107,-0.001161,0.000534,-0.000611,-0.03,-0.34,9.85
16024116,-0.001161,-0.001597,-0.000611,-0.03,-0.33,9.84
16025122,-0.001161,-0.000531,0.000454,-0.03,-0.29,9.80
16026132,-0.001161,0.001599,0.000454,-0.02,-0.30,9.84
16027154,-0.001161,0.002665,-0.000611,-0.01,-0.30,9.84
16028155,-0.000096,0.001599,0.000454,0.00,-0.27,9.83
16029164,-0.000096,-0.000531,0.000454,0.00,-0.28,9.81
16030187,-0.000096,-0.001597,-0.000611,0.01,-0.31,9.80
16031184,0.000969,-0.001597,-0.002742,0.00,-0.30,9.79
16032195,0.002035,-0.000531,-0.001677,-0.06,-0.30,9.75
16033199,0.002035,-0.001597,0.000454,-0.08,-0.31,9.81
16034209,-0.000096,-0.000531,0.000454,-0.02,-0.31,9.84
16035219,-0.000096,0.000534,0.000454,0.01,-0.30,9.83
16036229,-0.000096,0.000534,0.000454,-0.05,-0.28,9.84
16037244,-0.000096,0.000534,-0.000611,-0.03,-0.25,9.81
16038249,-0.000096,0.000534,-0.001677,-0.02,-0.28,9.81
16039259,0.000969,0.000534,-0.001677,-0.01,-0.33,9.84
16040288,-0.000096,-0.001597,-0.001677,-0.02,-0.33,9.83
16041286,-0.001161,-0.001597,-0.003807,-0.04,-0.28,9.81
16042301,-0.001161,-0.000531,-0.004872,-0.02,-0.28,9.81
16043302,0.000969,0.000534,-0.004872,-0.04,-0.30,9.79
16044312,0.002035,0.000534,-0.002742,-0.04,-0.29,9.78
16045322,0.000969,-0.000531,-0.000611,-0.04,-0.28,9.78
16046332,0.000969,0.000534,0.000454,-0.06,-0.29,9.79
16047347,-0.000096,0.000534,0.000454,-0.04,-0.33,9.82
16048352,0.002035,-0.000531,0.000454,-0.02,-0.32,9.85
16049362,0.002035,-0.000531,-0.001677,0.00,-0.29,9.84
16050386,0.000969,0.000534,-0.001677,0.00,-0.29,9.78
16051384,-0.001161,0.001599,-0.003807,-0.06,-0.30,9.81
16052394,-0.001161,0.000534,-0.004872,-0.03,-0.28,9.83
16053399,-0.000096,-0.000531,-0.003807,0.03,-0.29,9.81
16054409,-0.000096,-0.000531,-0.002742,0.04,-0.30,9.83
16055419,-0.001161,0.000534,0.000454,0.02,-0.30,9.87
16056429,-0.001161,0.000534,0.001519,-0.03,-0.29,9.86
16057444,-0.001161,0.002665,-0.000611,-0.02,-0.25,9.83
16058449,-0.001161,0.001599,0.000454,-0.01,-0.28,9.83
16059459,-0.003292,-0.001597,0.002585,-0.02,-0.33,9.79
16060489,-0.004357,-0.001597,0.001519,0.03,-0.32,9.76
16061486,-0.003292,0.000534,-0.000611,-0.01,-0.29,9.79
16062500,-0.002226,0.002665,-0.000611,-0.07,-0.26,9.85
16063502,-0.002226,0.004795,-0.002742,-0.03,-0.26,9.89
16064512,0.000969,0.003730,-0.003807,-0.02,-0.28,9.88
16065522,0.002035,0.001599,-0.003807,-0.03,-0.30,9.82
16066532,0.002035,-0.000531,-0.003807,-0.01,-0.31,9.78
16067548,0.000969,0.000534,0.000454,-0.02,-0.29,9.80
16068552,-0.001161,0.001599,0.002585,-0.03,-0.32,9.80
16069562,-0.000096,-0.000531,0.003650,-0.01,-0.33,9.80
16070585,0.000969,-0.002662,0.002585,-0.03,-0.29,9.81
16071584,0.002035,-0.001597,0.000454,-0.04,-0.28,9.77
16072595,0.000969,0.000534,-0.000611,-0.02,-0.29,9.75
16073599,-0.002226,0.001599,0.000454,-0.02,-0.32,9.76
16074609,-0.002226,0.001599,0.001519,-0.03,-0.31,9.79
16075619,-0.000096,0.001599,0.001519,-0.02,-0.30,9.79
16076629,-0.001161,0.003730,0.002585,-0.04,-0.28,9.80
16077644,-0.001161,0.001599,0.001519,-0.03,-0.29,9.79
16078649,-0.000096,-0.000531,0.000454,-0.02,-0.33,9.78
16079665,0.002035,-0.001597,0.001519,-0.03,-0.35,9.84
16080688,0.002035,-0.001597,0.003650,-0.04,-0.32,9.83
16081686,0.000969,0.000534,0.004715,-0.03,-0.30,9.80
16082701,-0.001161,0.000534,0.003650,-0.04,-0.31,9.79
16083702,-0.003292,0.000534,0.002585,-0.03,-0.30,9.77
16084712,-0.001161,0.001599,-0.000611,-0.02,-0.30,9.76
16085828,0.000969,0.001599,-0.001677,0.00,-0.33,9.78
16086719,-0.000096,0.004795,0.001519,0.00,-0.35,9.74
16087727,-0.008618,0.016513,0.002585,-0.07,-0.39,9.84
16088730,-0.007553,0.013317,-0.003807,-0.05,-0.38,9.89
16089740,-0.006488,0.004795,-0.013395,0.04,-0.35,9.89
16090773,-0.008618,-0.000531,-0.021917,0.01,-0.51,9.85
16091761,-0.005422,-0.000531,-0.027243,-0.06,-0.49,9.71
16092776,-0.002226,0.002665,-0.029374,0.17,-0.13,9.76
16093779,-0.005422,0.006926,-0.025113,0.35,0.20,9.84
16094789,-0.003292,0.004795,-0.013395,-0.03,0.23,9.85
16095799,0.002035,-0.001597,0.004715,-0.48,-0.13,9.95
16096809,0.013753,-0.010119,0.012172,-0.54,-0.73,9.79
16097826,0.018014,-0.015445,0.001519,0.06,-1.05,9.40
16098829,0.006296,-0.002662,-0.009133,0.76,0.17,9.67
16099839,-0.010749,0.022905,0.004715,-0.02,0.71,9.96
16100874,-0.007553,0.018644,0.027086,-1.17,-1.19,10.10
16101864,0.029732,-0.019706,0.026021,-0.08,-1.49,9.90
16102877,0.033993,-0.030359,-0.002742,1.28,1.42,9.30
16103880,-0.032054,0.018644,-0.002742,0.23,0.26,9.92
16104890,-0.039511,0.041015,0.018564,-1.24,-3.10,10.30
16105900,0.053168,-0.017576,0.003650,0.25,1.56,9.71
16106913,0.038254,-0.025033,-0.003807,1.46,1.39,10.01
16107936,-0.078927,0.026101,0.016433,-0.87,-5.05,9.46
16108935,-0.000096,-0.004792,-0.000611,-0.72,2.55,8.93
16109970,0.074474,-0.017576,-0.003807,1.09,1.81,11.23
16110956,-0.068274,0.020774,0.001519,-0.96,-4.41,9.64
16111964,-0.023532,-0.011184,-0.012329,-0.62,2.97,8.00
16112985,0.057429,-0.014380,0.004715,1.36,-2.01,12.23
16113989,-0.026728,-0.014380,-0.011264,-0.49,0.49,8.93
16115002,-0.007553,-0.003727,0.003650,-0.69,-0.28,8.52
16116009,-0.027793,0.027166,0.007911,0.37,-0.56,11.67
16117021,0.024406,-0.007988,-0.000611,0.09,0.50,8.85
16118037,0.002035,0.007991,0.001519,-0.75,-0.59,10.15
16119036,-0.029924,-0.013315,-0.011264,0.97,-0.51,9.58
16120074,0.011622,0.016513,-0.001677,-0.74,-0.41,10.00
16121061,0.010557,-0.003727,-0.009133,0.02,0.20,9.95
16122069,-0.011814,-0.013315,0.001519,0.57,-0.82,10.63
16123128,-0.054425,-0.015445,-0.004872,-0.51,-0.66,10.28
16124106,0.012688,0.022905,-0.003807,0.06,0.22,8.97
16125094,-0.007553,-0.004792,-0.001677,0.03,-0.49,11.36
16126101,0.003100,-0.000531,-0.002742,0.09,-0.16,7.28
16127119,-0.023532,-0.001597,0.007911,-0.68,0.58,11.57
16128131,0.002035,0.011187,-0.000611,0.51,-2.38,7.81
16129134,0.019079,-0.002662,0.007911,-0.88,2.80,10.61
16130165,0.006296,-0.001597,0.006846,0.18,-2.74,10.28
16131154,-0.008618,0.009056,0.010042,0.90,0.60,7.36
16132159,-0.004357,0.001599,0.011107,-0.30,0.47,13.95
16133177,0.012688,-0.000531,0.006846,0.65,-3.55,6.55
16134179,0.011622,-0.002662,0.006846,-0.11,3.06,11.20
16135189,-0.007553,0.005860,0.006846,-0.52,-1.68,11.90
16136199,-0.008618,0.011187,0.008976,1.07,-2.48,6.26
16137209,-0.001161,0.007991,0.010042,-0.48,3.60,11.79
16138226,0.008426,-0.003727,0.008976,-0.36,-2.44,11.00
16139229,-0.013945,-0.001597,0.007911,0.93,-2.38,6.10
16140263,-0.030989,0.000534,0.008976,-0.53,3.73,12.17
16141254,-0.026728,0.005860,0.002585,-0.55,-1.61,11.68
16142260,-0.013945,0.010122,-0.001677,0.76,-3.01,6.55
16143278,-0.010749,0.003730,-0.000611,-0.18,3.53,11.15
16144280,0.000969,-0.000531,-0.000611,-1.03,0.60,12.91
16145290,0.016949,0.005860,-0.002742,0.33,-4.17,6.49
16146300,-0.002226,0.005860,0.000454,0.66,0.73,7.16
16147310,-0.022467,0.005860,0.006846,-1.15,3.40,12.60
16148327,0.002035,0.001599,0.011107,-0.51,-3.28,9.81
16149330,0.018014,-0.007988,0.013237,1.25,-3.57,6.25
16150362,0.007361,-0.003727,0.016433,-0.10,3.20,11.04
16151351,0.002035,-0.003727,0.022825,-0.98,2.62,14.41
16152359,-0.009683,0.001599,0.030282,0.39,-5.10,8.61
16153377,-0.000096,0.005860,0.032412,1.19,-3.90,5.64
16154379,-0.001161,-0.007988,0.035608,0.25,4.64,11.53
16155389,-0.021401,-0.021837,0.039869,-1.16,3.08,14.07
16156399,-0.021401,-0.014380,0.033478,0.02,-5.59,7.87
16157409,0.004165,0.011187,0.037739,1.75,-4.29,4.39
16158426,0.020144,0.030362,0.053718,0.68,3.62,9.44
16159429,0.012688,0.029297,0.064371,-1.20,5.04,14.81
16160463,-0.003292,0.018644,0.060110,-0.38,-2.35,11.86
16161454,0.002035,0.002665,0.045196,1.16,-6.79,6.78
16162460,0.016949,0.009056,0.047326,1.13,-0.31,6.77
16163478,0.011622,0.023970,0.059045,-0.22,5.61,12.04
16164480,-0.011814,0.025035,0.069697,-1.64,4.58,14.79
16165490,-0.012879,0.009056,0.076089,-0.22,-4.53,9.99
16166500,-0.009683,-0.006923,0.078220,0.76,-6.18,6.01
16167510,0.003100,-0.025033,0.082481,1.27,0.44,6.23
16168527,-0.007553,-0.014380,0.097395,0.59,4.63,10.90
16169530,-0.024597,0.009056,0.110178,-1.81,5.57,14.85
16170562,-0.024597,0.014383,0.116570,-0.94,-1.75,11.73
16171551,-0.021401,0.005860,0.119766,0.32,-6.48,7.28
16172559,-0.004357,0.002665,0.120831,0.67,-2.14,5.49
16173577,-0.002226,-0.006923,0.119766,1.62,1.61,6.70
16174579,-0.003292,-0.003727,0.124027,-0.27,4.76,13.39
16175616,-0.003292,-0.002662,0.124027,-1.75,5.13,15.54
16176599,-0.003292,-0.003727,0.122961,-0.64,-1.63,11.96
16177609,0.008426,-0.006923,0.125092,0.57,-3.22,4.76
16178626,0.009492,-0.003727,0.126157,0.87,0.32,4.99
16179629,0.003100,-0.009054,0.124027,1.40,2.73,9.75
16180663,-0.001161,-0.011184,0.116570,-0.36,4.65,15.40
16181654,0.003100,-0.000531,0.120831,-1.31,2.86,14.67
16182660,0.009492,-0.005858,0.124027,-0.55,-1.88,11.08
16183679,0.020144,-0.015445,0.113374,-0.17,-4.80,8.64
16184680,0.012688,-0.030359,0.099525,0.23,-3.65,4.98
16185690,0.008426,-0.028229,0.093133,0.68,-1.40,4.57
16186700,0.006296,-0.017576,0.093133,1.67,0.63,7.40
16187710,-0.002226,-0.002662,0.094199,1.08,2.61,12.32
16188753,0.007361,0.012252,0.089938,-0.61,3.59,15.71
16189730,-0.011814,0.005860,0.080350,-1.18,2.60,13.97
16190761,0.003100,-0.014380,0.078220,-1.08,-0.95,11.10
16191751,0.004165,0.009056,0.086742,-0.89,-3.42,9.22
16192759,-0.028858,0.016513,0.085677,-0.09,-3.76,7.63
16193777,-0.033120,-0.025033,0.073958,0.30,-3.06,5.78
16194779,0.008426,-0.058056,0.060110,0.54,-1.22,5.19
16195789,0.060625,-0.067644,0.050522,1.27,0.04,7.82
16196799,0.059560,-0.079362,0.046261,1.35,1.05,10.40
16197809,0.026536,-0.063383,0.053718,0.46,1.69,13.00
16198826,0.004165,0.009056,0.066501,-0.80,2.68,15.11
16199829,-0.037381,0.043145,0.073958,-1.10,2.06,13.80
16200863,-0.044838,0.000534,0.065436,-1.40,-1.16,10.31
16201854,0.023340,-0.005858,0.057979,-1.70,-1.53,9.68
16202860,0.041450,-0.001597,0.056914,-0.21,-2.25,9.66
16203879,-0.005422,-0.028229,0.053718,-0.28,-4.24,6.77
16204880,-0.020336,-0.006923,0.052653,-1.05,-1.83,5.55
16205890,-0.006488,0.020774,0.052653,0.72,-0.99,6.46
16206900,-0.019271,-0.006923,0.050522,1.23,-1.71,6.94
16207914,-0.007553,-0.023967,0.048392,0.87,-0.48,8.53
16208933,0.009492,0.004795,0.047326,1.10,1.06,11.61
16209957,-0.013945,0.004795,0.054783,0.49,1.49,13.67
16210950,-0.020336,0.003730,0.064371,-0.45,1.67,14.00
16211955,0.015883,0.028231,0.064371,-0.40,2.44,13.69
16212964,0.023340,0.023970,0.063306,-0.68,1.28,12.46
16213985,0.009492,0.000534,0.059045,-1.57,-0.26,9.83
16214986,0.014818,0.009056,0.051588,-1.29,-0.02,9.97
16216002,-0.005422,0.007991,0.046261,-0.35,-0.90,10.07
16217007,-0.028858,-0.009054,0.042000,-0.94,-2.75,7.81
16218019,-0.007553,0.007991,0.040935,-1.42,-1.24,7.37
16219037,-0.006488,0.021840,0.043065,0.44,-1.78,7.96
16220063,-0.021401,-0.002662,0.042000,0.36,-2.53,7.18
16221055,0.011622,-0.006923,0.042000,-0.32,-0.88,6.93
16222060,0.026536,0.002665,0.037739,1.15,-1.24,7.54
16223073,-0.000096,-0.012249,0.037739,1.29,-1.58,7.77
16224086,-0.010749,-0.002662,0.038804,0.96,-0.95,8.97
16225084,0.004165,0.013317,0.037739,1.38,0.25,10.70
16226094,-0.021401,0.007991,0.038804,1.11,0.08,11.23
16227109,-0.009683,-0.004792,0.033478,0.46,0.47,12.16
16228110,0.011622,0.011187,0.035608,0.46,1.76,13.17
16229130,-0.016075,-0.001597,0.033478,0.18,0.97,13.35
16230155,-0.007553,-0.031424,0.027086,-0.60,0.92,12.20
16231144,0.029732,-0.016511,0.027086,-0.31,1.64,11.46
16232152,0.011622,-0.003727,0.029217,-0.37,0.90,11.22
16233159,-0.018206,-0.002662,0.032412,-1.30,-0.11,9.62
16234177,0.010557,0.003730,0.029217,-1.11,0.54,10.27
16235179,0.021210,-0.003727,0.026021,-0.54,0.14,10.18
16236189,0.008426,-0.003727,0.031347,-1.22,-1.38,8.53
16237199,0.008426,0.026101,0.038804,-1.51,-0.37,9.09
16238209,-0.015010,0.032492,0.039869,-0.16,-0.95,9.49
16239226,-0.027793,-0.001597,0.034543,-0.58,-2.01,8.23
16240253,0.008426,-0.009054,0.027086,-1.26,-0.55,7.87
16241244,0.024406,-0.019706,0.016433,0.38,-1.36,8.37
16242250,0.019079,-0.047404,0.012172,0.15,-1.94,8.24
16243260,0.032928,-0.032490,0.016433,-0.52,-0.50,8.02
16244278,0.020144,-0.007988,0.020694,0.85,-1.30,8.25
16245280,-0.013945,-0.012249,0.021760,0.87,-1.74,8.08
16246290,0.008426,-0.011184,0.021760,0.33,-0.97,8.53
16247300,0.019079,0.000534,0.021760,1.27,-0.76,9.00
16248310,-0.007553,-0.015445,0.021760,1.17,-1.12,8.87
16249327,0.004165,-0.022902,0.021760,0.79,-0.93,9.58
16250351,0.027601,-0.018641,0.019629,1.28,0.31,10.77
16251341,0.022275,-0.039947,0.011107,1.06,-0.28,10.73
16252349,0.036124,-0.048469,0.008976,0.42,-0.01,11.30
16253359,0.057429,-0.032490,0.011107,0.59,1.26,12.20
16254377,0.029732,-0.032490,0.012172,0.37,0.50,12.44
16255379,0.009492,-0.028229,0.012172,-0.39,0.73,12.15
16256389,0.018014,-0.010119,0.015368,0.00,1.37,11.85
16257399,-0.020336,-0.003727,0.021760,-0.06,0.83,11.95
16258409,-0.041642,-0.001597,0.023890,-0.81,0.31,10.75
16259426,-0.026728,0.021840,0.023890,-0.63,0.99,9.90
16260453,-0.038446,0.009056,0.024956,-0.63,0.56,10.34
16261444,-0.033120,-0.009054,0.028151,-1.25,-0.06,9.12
16262450,-0.007553,0.003730,0.030282,-1.50,0.64,9.84
16263460,-0.001161,0.015448,0.032412,-0.72,0.41,10.30
16264478,-0.006488,0.007991,0.032412,-1.10,-0.81,8.89
16265480,0.029732,0.017578,0.027086,-1.08,-0.63,10.21
16266490,0.027601,0.006926,0.021760,-0.48,-0.31,9.34
16267500,0.020144,-0.016511,0.016433,-0.59,-1.79,8.19
16268510,0.022275,-0.014380,0.020694,-0.88,-0.45,7.63
16269527,0.018014,0.001599,0.024956,0.09,-1.64,8.74
16270551,-0.012879,-0.002662,0.026021,0.14,-2.08,8.00
16271541,0.010557,0.010122,0.027086,-0.52,-1.34,8.59
16272549,0.021210,0.023970,0.034543,0.83,-1.39,8.70
16273559,0.016949,0.012252,0.036674,1.05,-1.71,8.85
16274577,0.004165,0.013317,0.032412,0.79,-1.51,8.58
16275579,-0.005422,0.016513,0.022825,1.21,-0.93,9.15
16276589,-0.023532,-0.010119,0.011107,1.50,-1.26,8.61
16277599,-0.002226,-0.020772,0.011107,0.71,-0.52,8.99
16278609,0.009492,0.013317,0.021760,1.06,-0.04,10.56
16279626,-0.015010,-0.012249,0.015368,0.34,0.59,11.97
16280653,0.010557,0.003730,0.021760,0.19,1.39,12.27
16281644,-0.020336,0.013317,0.028151,0.19,1.38,13.27
16282650,-0.008618,-0.009054,0.024956,-0.90,0.83,12.13
16283660,0.030797,0.005860,0.026021,-1.05,1.85,11.24
16284687,-0.000096,-0.019706,0.023890,-0.74,1.20,10.78
16285680,-0.010749,-0.028229,0.032412,-1.51,-0.18,9.39
16286690,0.009492,0.000534,0.033478,-1.90,0.53,9.71
16287700,0.004165,0.025035,0.034543,-0.68,-0.31,10.05
16288710,-0.025663,0.012252,0.028151,-1.06,-1.74,8.04
16289727,0.005231,0.010122,0.026021,-1.19,-1.18,8.97
16290751,-0.012879,0.012252,0.032412,0.37,-1.28,8.73
16291741,-0.025663,-0.012249,0.027086,0.19,-2.53,7.95
16292749,0.007361,-0.016511,0.024956,-0.22,-0.99,7.63
16293759,0.005231,0.006926,0.024956,1.02,-1.47,8.33
16294777,-0.026728,-0.005858,0.020694,1.21,-1.98,7.96
16295779,-0.003292,-0.003727,0.021760,0.47,-0.74,8.23
16296789,-0.010749,0.025035,0.026021,1.52,-0.85,8.80
16297799,-0.043772,0.007991,0.023890,1.57,-0.67,9.13
16298809,-0.019271,-0.018641,0.021760,0.97,-0.47,10.11
16299826,0.002035,0.000534,0.030282,1.05,0.83,11.40
16300853,-0.033120,0.010122,0.032412,0.64,0.65,12.28
16301844,-0.019271,-0.009054,0.022825,-0.05,0.65,12.27
16302850,0.026536,-0.017576,0.011107,-0.16,2.02,12.79
16303860,0.018014,-0.021837,0.016433,-0.30,1.07,12.60
16304878,0.003100,0.004795,0.033478,-1.14,0.94,11.40
16305880,-0.002226,0.038884,0.038804,-1.14,1.27,11.25
16306890,-0.018206,0.023970,0.030282,-0.77,1.04,10.90
16307900,-0.022467,-0.015445,0.021760,-1.46,-0.09,9.48
16308914,0.007361,0.001599,0.029217,-1.33,-0.20,9.78
16309949,-0.018206,0.018644,0.039869,-0.69,-0.06,9.20
16310936,-0.025663,0.005860,0.036674,-0.89,-1.66,7.92
16311949,0.008426,-0.003727,0.024956,-1.50,-0.43,7.53
16312956,0.027601,-0.010119,0.017499,-0.02,-1.73,8.83
16313965,-0.000096,-0.012249,0.027086,0.18,-2.23,7.78
16314986,0.011622,0.019709,0.036674,-0.70,-1.29,8.37
16315988,-0.000096,0.023970,0.027086,0.84,-1.45,8.60
16317005,-0.016075,-0.022902,0.010042,1.04,-1.85,8.63
16318006,0.002035,-0.029294,0.011107,0.85,-1.54,8.54
16319023,0.015883,0.006926,0.027086,1.44,-0.92,9.40
16320060,-0.007553,0.003730,0.028151,1.47,-1.34,8.63
16321041,0.019079,-0.015445,0.023890,0.76,-0.48,9.23
16322056,0.028667,-0.004792,0.024956,1.22,0.27,10.77
16323059,-0.013945,-0.019706,0.021760,1.22,0.55,11.08
16324070,-0.005422,-0.031424,0.017499,0.04,0.86,12.38
16325090,0.013753,-0.000531,0.021760,0.08,1.63,12.40
16326084,0.003100,-0.000531,0.019629,-0.08,1.57,13.21
16327099,-0.010749,0.000534,0.026021,-1.03,0.84,11.74
16328101,0.014818,0.010122,0.021760,-1.10,1.52,10.56
16329110,0.009492,-0.007988,0.021760,-1.04,0.85,10.44
16330148,-0.009683,-0.007988,0.027086,-1.49,-0.24,9.01
16331135,0.013753,0.005860,0.027086,-1.91,0.39,9.33
16332141,0.006296,0.025035,0.032412,-0.73,-0.50,9.93
16333152,-0.030989,0.020774,0.029217,-0.92,-1.56,8.11
16334159,0.009492,0.013317,0.015368,-1.06,-1.41,9.44
16335177,0.008426,0.010122,0.017499,0.46,-1.15,8.88
16336179,-0.020336,0.007991,0.026021,0.33,-2.49,8.15
16337189,0.003100,0.007991,0.024956,-0.11,-1.10,7.83
16338199,0.036124,0.004795,0.020694,1.03,-1.55,8.59
16339209,0.006296,-0.011184,0.021760,1.25,-1.96,8.04
16340245,0.008426,-0.009054,0.017499,0.29,-0.66,8.12
16341234,0.032928,-0.018641,0.008976,1.53,-1.23,8.29
16342240,0.025471,-0.026098,0.015368,1.68,-0.68,8.93
16343250,0.008426,0.007991,0.028151,1.17,-0.71,9.61
16344260,-0.002226,0.032492,0.023890,1.11,0.47,11.04
16345278,-0.023532,-0.000531,0.013237,0.71,0.57,12.24
16346280,-0.009683,-0.020772,0.015368,0.10,0.48,12.25
16347290,0.013753,0.004795,0.023890,-0.32,2.15,13.39
16348300,-0.010749,-0.011184,0.018564,-0.26,1.34,12.85
16349310,0.009492,-0.041012,0.005780,-1.09,1.19,11.72
16350344,0.026536,-0.011184,0.014303,-1.42,1.43,11.11
16351331,-0.011814,0.025035,0.024956,-0.87,1.09,10.80
16352339,-0.040577,0.005860,0.021760,-1.41,-0.12,9.36
16353349,0.007361,0.007991,0.020694,-1.48,-0.46,9.58
16354359,-0.008618,0.017578,0.027086,-0.72,-0.06,8.89
16355377,-0.018206,0.007991,0.027086,-0.73,-1.80,7.65
16356379,0.010557,0.000534,0.020694,-1.50,-0.53,7.36
16357389,0.022275,-0.000531,0.014303,0.01,-1.83,8.90
16358399,-0.009683,-0.011184,0.021760,0.28,-2.32,7.96
16359409,0.005231,0.006926,0.027086,-0.68,-1.25,8.50
16360445,0.002035,0.001599,0.019629,0.91,-1.41,8.63
16361434,-0.006488,-0.038881,0.005780,1.00,-1.74,8.75
16362440,0.005231,-0.038881,0.007911,0.76,-1.51,8.67
16363450,0.014818,0.006926,0.023890,1.45,-0.93,9.58
16364460,-0.017140,0.026101,0.035608,1.45,-1.33,8.80
16365478,-0.007553,0.028231,0.037739,0.59,-0.51,9.11
16366480,-0.001161,0.022905,0.029217,1.31,-0.21,10.00
16367490,-0.017140,-0.026098,0.013237,1.35,0.02,10.21
16368500,0.005231,-0.052730,0.002585,0.40,0.08,10.96
16369510,0.032928,-0.031424,0.005780,0.41,0.87,11.40
16370544,0.008426,-0.012249,0.012172,0.36,0.89,12.65
16371531,-0.001161,-0.005858,0.019629,-0.30,0.46,12.02
16372539,0.030797,0.025035,0.026021,-0.73,1.81,12.12
16373549,0.009492,0.023970,0.030282,-0.40,1.25,11.87
16374559,-0.008618,0.022905,0.035608,-1.10,1.01,10.82
16375577,-0.012879,0.037819,0.035608,-1.78,1.12,10.54
16376579,-0.028858,0.033558,0.028151,-0.92,0.80,10.72
16377589,-0.042707,-0.004792,0.018564,-1.15,-0.02,9.41
16378599,0.005231,-0.015445,0.011107,-1.40,-0.46,9.56
16379609,0.009492,-0.033555,0.008976,-0.76,0.01,8.98
16380645,0.035058,-0.033555,0.006846,-1.39,-0.40,7.60
16381634,0.019079,-0.004792,0.013237,-0.16,-1.52,9.34
16382640,-0.030989,-0.002662,0.020694,0.26,-2.12,8.15
16383650,-0.003292,0.017578,0.026021,-0.72,-1.42,9.06
16384660,0.007361,0.031427,0.031347,0.69,-1.30,9.02
16385678,-0.002226,0.015448,0.030282,1.06,-1.75,8.85
16386680,0.002035,0.016513,0.027086,0.46,-1.37,8.85
16387690,-0.000096,0.025035,0.022825,1.24,-1.24,9.44
16388700,-0.033120,-0.009054,0.014303,1.46,-1.54,8.58
16389710,-0.003292,-0.029294,0.006846,0.44,-0.63,8.37
16390744,0.030797,-0.031424,0.002585,1.47,-0.85,8.83
16391731,0.019079,-0.048469,0.004715,1.61,-0.34,9.26
16392739,0.015883,-0.034620,0.013237,0.80,-0.53,10.16
16393749,0.019079,0.010122,0.026021,0.82,0.57,11.00
16394759,-0.013945,0.031427,0.035608,0.63,0.63,12.17
16395777,-0.011814,0.029297,0.036674,-0.10,0.40,11.97
16396779,0.007361,0.041015,0.033478,-0.34,2.00,12.91
16397789,-0.021401,0.014383,0.026021,-0.16,1.17,12.56
16398799,-0.016075,-0.015445,0.016433,-0.99,1.10,11.51
16399809,0.012688,-0.017576,0.012172,-1.40,1.38,10.90
16400845,0.013753,-0.016511,0.007911,-0.86,1.11,10.94
16401834,-0.003292,-0.033555,0.006846,-1.26,0.34,9.81
16402840,0.030797,-0.015445,0.010042,-1.41,0.06,9.17
16403850,0.019079,-0.001597,0.021760,-1.03,0.28,8.98
16404860,0.012688,0.004795,0.029217,-0.99,-0.86,8.04
16405879,0.005231,0.025035,0.034543,-1.57,-0.11,7.92
16406880,-0.011814,0.045276,0.033478,-0.49,-1.34,9.82
16407890,-0.051229,0.021840,0.024956,0.05,-1.87,8.15
16408900,-0.013945,-0.000531,0.014303,-0.79,-1.71,9.44
16409940,0.012688,-0.030359,0.003650,0.51,-1.32,9.14
16410938,0.015883,-0.059122,0.002585,1.02,-1.93,8.64
16411934,0.021210,-0.033555,0.014303,0.21,-1.30,8.61
16412948,0.011622,0.019709,0.030282,1.06,-1.42,9.20
16413955,-0.041642,0.042080,0.042000,1.49,-1.74,8.38
16414964,-0.030989,0.050602,0.039869,0.26,-0.64,8.14
16415985,-0.017140,0.039949,0.029217,1.37,-1.09,8.38
16416986,-0.029924,-0.011184,0.016433,1.75,-0.50,8.87
16418002,-0.006488,-0.038881,0.008976,0.98,-0.82,9.80
16419007,0.023340,-0.023967,0.012172,0.98,0.43,10.78
16420043,-0.002226,-0.014380,0.020694,0.78,0.44,11.88
16421044,0.005231,-0.001597,0.031347,-0.01,0.35,11.98
16422042,0.023340,0.023970,0.032412,-0.14,2.06,13.24
16423047,-0.010749,0.003730,0.023890,-0.12,1.14,12.89
16424061,-0.015010,-0.011184,0.017499,-0.99,1.22,11.74
16425073,0.007361,-0.003727,0.015368,-1.28,1.50,10.99
16426085,0.005231,0.000534,0.010042,-0.92,1.10,11.15
16427091,-0.008618,-0.014380,0.012172,-1.30,0.33,10.05
16428094,0.009492,0.012252,0.023890,-1.42,0.18,9.20
16429101,-0.010749,0.014383,0.029217,-1.10,0.27,9.01
16430135,-0.020336,-0.001597,0.023890,-1.06,-0.81,8.23
16431133,-0.021401,-0.001597,0.016433,-1.58,-0.05,8.00
16432133,-0.006488,0.004795,0.003650,-0.49,-1.29,9.85
16433141,-0.012879,-0.021837,-0.003807,0.02,-1.78,8.14
16434152,0.032928,-0.019706,-0.000611,-0.78,-1.78,9.48
16435159,0.048907,-0.016511,0.006846,0.43,-1.25,9.17
16436176,0.042515,-0.017576,0.014303,0.98,-1.93,8.68
16437179,0.032928,0.014383,0.023890,0.16,-1.36,8.59
16438189,0.009492,0.047406,0.029217,1.00,-1.57,9.22
16439199,-0.040577,0.026101,0.024956,1.49,-1.72,8.37
16440233,-0.020336,0.003730,0.015368,0.16,-0.55,8.06
16441232,0.018014,-0.016511,0.003650,1.30,-1.21,8.31
16442230,0.013753,-0.050600,-0.000611,1.84,-0.49,8.62
16443240,0.021210,-0.046338,0.004715,1.04,-0.98,9.63
16444250,0.025471,-0.004792,0.014303,1.07,0.26,10.62
16445260,-0.018206,0.021840,0.024956,0.98,0.26,11.52
16446277,-0.013945,0.033558,0.031347,0.06,0.22,11.89
16447280,0.006296,0.045276,0.033478,-0.05,2.06,13.36
16448290,-0.035250,0.015448,0.029217,-0.01,1.11,12.87
16449300,-0.036315,-0.009054,0.020694,-0.88,1.15,11.93
16450331,0.005231,-0.010119,0.013237,-1.07,1.58,11.28
16451330,0.012688,-0.013315,0.007911,-0.81,1.22,11.36
16452329,-0.001161,-0.023967,0.013237,-1.35,0.41,10.29
16453339,0.021210,0.009056,0.023890,-1.37,0.49,9.20
16454349,0.003100,0.015448,0.028151,-1.14,0.40,9.19
16455359,-0.005422,0.009056,0.026021,-1.19,-0.57,8.41
16456376,-0.016075,0.016513,0.023890,-1.58,0.10,8.12
16457379,-0.006488,0.020774,0.014303,-0.70,-1.19,10.05
16458389,-0.016075,-0.010119,0.003650,-0.30,-1.44,8.22
16459399,0.013753,-0.010119,0.005780,-0.57,-2.11,9.62
16460433,0.022275,-0.003727,0.016433,0.27,-1.19,8.88
16461432,0.011622,-0.001597,0.026021,0.68,-1.85,8.52
16462430,-0.011814,0.012252,0.029217,0.39,-1.55,8.31
16463457,-0.028858,0.028231,0.022825,0.86,-1.65,9.00
16464451,-0.045903,0.015448,0.014303,1.34,-1.67,8.29
16465460,-0.000096,-0.002662,0.006846,0.30,-0.31,8.17
16466477,0.037189,-0.016511,0.003650,1.28,-1.43,8.28
16467480,0.025471,-0.037816,0.008976,1.85,-0.58,8.60
16468490,0.012688,-0.014380,0.022825,1.27,-0.98,9.57
16469500,0.015883,0.032492,0.031347,0.92,-0.03,10.79
16470535,-0.022467,0.041015,0.033478,0.95,0.34,11.64
16471530,-0.037381,0.022905,0.030282,0.31,0.02,11.48
16472529,-0.012879,0.013317,0.023890,-0.26,1.63,13.01
16473556,-0.027793,-0.023967,0.014303,0.08,1.47,12.17
16474550,-0.015010,-0.039947,0.010042,-0.69,1.23,11.95
16475559,0.012688,-0.014380,0.012172,-1.13,1.43,11.21
16476576,-0.004357,0.002665,0.013237,-0.68,1.17,11.46
16477579,-0.009683,-0.004792,0.015368,-1.20,0.41,10.50
16478589,0.040385,0.021840,0.021760,-1.27,0.64,9.38
16479599,0.030797,0.023970,0.032412,-0.87,0.60,9.61
16480636,-0.003292,0.019709,0.037739,-1.23,-0.50,8.38
16481632,-0.027793,0.022905,0.021760,-0.57,-0.59,10.21
16482630,-0.039511,-0.019706,0.008976,-0.42,-1.48,8.37
16483657,0.015883,-0.028229,-0.000611,-0.91,-1.71,9.81
16484651,0.037189,-0.031424,0.000454,0.44,-0.97,9.05
16485660,0.027601,-0.030359,0.011107,0.74,-2.29,8.37
16486677,0.015883,0.001599,0.022825,0.01,-1.32,8.20
16487680,-0.008618,0.045276,0.029217,0.82,-1.74,9.03
16488690,-0.060817,0.037819,0.027086,1.25,-1.92,8.29
16489700,-0.037381,0.014383,0.016433,0.02,-0.57,8.11
16490735,0.005231,-0.009054,0.003650,1.38,-1.55,8.05
16491730,0.016949,-0.041012,0.001519,1.89,-0.69,8.60
16492729,0.025471,-0.030359,0.010042,1.24,-1.15,9.21
16493756,0.016949,0.013317,0.020694,1.10,-0.12,10.48
16494750,-0.038446,0.033558,0.027086,1.10,0.10,11.26
16495778,-0.050164,0.021840,0.023890,0.43,0.09,11.27
16496776,-0.010749,0.010122,0.011107,-0.07,1.70,13.08
16497779,-0.002226,-0.025033,0.003650,0.08,1.37,12.42
16498789,0.010557,-0.026098,0.008976,-0.64,1.24,12.08
16499799,0.020144,0.007991,0.021760,-1.05,1.41,11.19
16500836,-0.016075,0.032492,0.030282,-0.74,1.18,11.52
16501832,-0.048034,0.016513,0.030282,-1.16,0.47,10.67
16502830,-0.013945,0.011187,0.016433,-1.37,0.70,9.50
16503857,-0.009683,-0.021837,0.003650,-1.03,0.60,9.52
16504851,0.011622,-0.047404,-0.003807,-1.25,-0.40,8.37
16505860,0.036124,-0.031424,0.001519,-1.98,0.33,8.54
16506877,0.020144,0.009056,0.015368,-0.61,-0.71,10.19
16507880,-0.023532,0.020774,0.028151,-0.36,-1.60,8.30
16508890,0.000969,0.039949,0.032412,-0.97,-1.76,9.76
16509928,-0.012879,0.036754,0.030282,0.41,-0.98,9.12
16510914,-0.040577,0.005860,0.020694,0.80,-2.24,8.49
16511934,-0.015010,-0.012249,0.011107,-0.03,-1.27,8.34
16512949,0.019079,-0.011184,0.004715,0.85,-1.75,9.04
16513949,0.002035,-0.033555,0.003650,1.26,-1.93,8.29
16514956,0.031863,-0.021837,0.007911,-0.02,-0.58,8.06
16515965,0.044646,0.009056,0.017499,1.34,-1.54,8.03
16516986,0.005231,0.007991,0.021760,1.83,-0.68,8.65
16517988,-0.025663,0.015448,0.023890,1.21,-1.13,9.19
16519005,-0.016075,0.026101,0.017499,1.09,-0.12,10.54
16520036,-0.018206,-0.006923,0.003650,1.09,0.08,11.34
16521025,0.012688,-0.034620,0.000454,0.41,0.07,11.24
16522037,0.052103,-0.011184,0.011107,-0.08,1.66,12.95
16523058,0.020144,-0.001597,0.022825,0.03,1.31,12.34
16524046,-0.000096,0.006926,0.027086,-0.65,1.23,11.99
16525059,-0.012879,0.026101,0.023890,-1.00,1.40,11.19
16526070,-0.026728,0.016513,0.013237,-0.74,1.19,11.61
16527086,-0.027793,-0.022902,0.004715,-1.15,0.58,10.92
16528084,0.026536,-0.015445,0.006846,-1.32,0.80,9.60
16529094,0.030797,-0.005858,0.014303,-1.17,0.64,9.56
16530125,0.013753,0.011187,0.028151,-1.28,-0.21,8.65
16531112,-0.013945,0.039949,0.032412,-1.84,0.29,8.47
16532130,-0.039511,0.049537,0.020694,-0.75,-0.87,10.15
16533149,-0.058686,0.007991,0.006846,-0.37,-1.44,8.23
16534142,0.009492,-0.022902,-0.003807,-0.74,-2.04,9.65
16535152,0.054233,-0.048469,-0.007003,0.21,-1.06,8.92
16536159,0.058495,-0.052730,-0.002742,0.69,-2.17,8.29
16537176,0.039320,-0.014380,0.008976,0.12,-1.48,8.28
16538179,0.003100,0.041015,0.018564,0.73,-1.84,8.90
16539189,-0.059752,0.048472,0.021760,1.27,-1.88,8.27
16540226,-0.049099,0.026101,0.013237,0.06,-0.46,8.33
16541214,-0.010749,-0.006923,0.000454,1.32,-1.59,8.23
16542229,0.008426,-0.044208,0.000454,1.92,-0.54,8.60
16543247,0.029732,-0.031424,0.008976,1.27,-1.06,9.42
16544241,0.024406,0.013317,0.016433,1.02,-0.12,10.60
16545250,-0.033120,0.028231,0.017499,1.07,0.22,11.35
16546260,-0.039511,0.010122,0.015368,0.39,0.10,11.40
16547277,0.005231,-0.006923,0.004715,-0.12,1.76,13.14
16548280,0.009492,-0.046338,-0.003807,0.12,1.41,12.33
16549290,0.020144,-0.041012,0.001519,-0.67,1.23,12.16
16550325,0.026536,0.012252,0.017499,-1.03,1.45,11.35
16551311,-0.015010,0.043145,0.028151,-0.69,1.22,11.50
16552327,-0.044838,0.019709,0.026021,-1.25,0.41,10.53
16553346,-0.003292,0.001599,0.013237,-1.27,0.65,9.35
16554340,-0.003292,-0.036751,0.000454,-0.93,0.59,9.52
16555349,0.012687,-0.059122,-0.007003,-1.21,-0.57,8.23
16556359,0.036124,-0.031424,0.002585,-1.88,0.24,8.34
16557376,0.010557,0.025035,0.018564,-0.56,-0.92,10.23
16558379,-0.049099,0.036754,0.027086,-0.34,-1.59,8.23
16559389,-0.026728,0.031427,0.016433,-0.71,-1.94,9.60
16560426,0.000969,-0.002662,0.001519,0.46,-1.00,9.00
16561414,0.027601,-0.036751,-0.003807,0.78,-2.19,8.48
16562429,0.041450,-0.027163,0.003650,0.30,-1.57,8.28
16563447,0.025471,0.014383,0.013237,0.85,-1.75,8.86
16564441,-0.030989,0.023970,0.016433,1.29,-1.82,8.23
16565450,-0.023532,0.011187,0.010042,0.20,-0.48,8.49
16566460,0.004165,-0.011184,0.000454,1.44,-1.62,8.29
16567477,0.010557,-0.037816,-0.004872,1.86,-0.43,8.97
16568480,0.009492,-0.025033,0.001519,1.19,-0.69,9.69
16569490,0.004165,0.015448,0.014303,0.90,-0.10,10.54
16570525,-0.034185,0.049537,0.023890,0.85,0.31,11.85
16571511,-0.044838,0.043145,0.019629,0.39,0.25,11.36
16572527,-0.011814,0.022905,0.008976,-0.34,1.56,12.85
16573546,-0.007553,-0.023967,-0.000611,-0.09,1.45,12.19
16574540,0.011622,-0.049534,-0.005938,-0.53,1.36,11.83
16575549,0.026536,-0.032490,0.001519,-1.29,1.26,10.97
16576559,0.011622,0.014383,0.014303,-1.03,1.18,11.24
16577576,-0.023532,0.029297,0.021760,-1.14,0.59,10.83
16578579,-0.006488,0.030362,0.014303,-1.38,0.41,9.65
16579589,-0.012879,-0.006923,0.002585,-1.30,0.54,9.28
16580626,0.010557,-0.034620,-0.003807,-1.06,-0.45,8.45
16581614,0.029732,-0.020772,0.002585,-1.60,0.05,8.24
16582629,0.024406,0.018644,0.015368,-0.62,-1.20,9.88
16583647,-0.015010,0.028231,0.019629,-0.71,-2.01,9.53
16584641,-0.015010,-0.004792,0.010042,0.45,-1.23,8.98
16585650,0.004165,-0.047404,-0.003807,1.12,-2.05,8.47
16586660,0.029732,-0.042077,-0.005938,0.40,-1.56,8.48
16587677,0.028667,0.003730,0.004715,0.95,-1.70,8.85
16588680,-0.022467,0.029297,0.016433,1.48,-1.71,8.21
16589690,-0.023532,0.038884,0.019629,0.16,-0.40,8.24
16590725,-0.020336,0.030362,0.014303,1.31,-1.36,8.50
16591722,-0.034185,-0.019706,0.002585,1.90,-0.25,8.67
16592727,-0.007553,-0.038881,-0.003807,1.09,-0.77,9.68
16593746,0.023340,-0.013315,0.002585,0.88,0.21,10.69
16594740,-0.004357,0.001599,0.012172,0.81,0.39,11.82
16595749,-0.004357,0.005860,0.017499,0.05,0.27,11.98
16596759,0.011622,0.017578,0.015368,-0.26,2.14,13.30
16597776,-0.013945,-0.017576,0.004715,-0.13,1.30,12.63
16598779,-0.016075,-0.038881,-0.000611,-1.02,1.23,11.76
16599789,0.009492,-0.012249,0.006846,-1.45,1.47,11.00
16600826,0.005231,0.030362,0.017499,-0.98,1.16,11.24
16601814,-0.022467,0.033558,0.022825,-1.29,0.41,10.41
16602828,-0.000096,0.031427,0.017499,-1.37,0.10,9.33
16603847,-0.000096,-0.007988,0.004715,-1.23,0.30,9.14
16604841,0.016949,-0.043143,-0.009133,-1.05,-0.62,8.27
16605850,0.030797,-0.039947,-0.010199,-1.40,-0.10,8.07
16606860,0.023340,0.003730,0.001519,-0.51,-1.60,9.93
16607877,-0.010749,0.028231,0.010042,-0.20,-1.58,8.21
16608880,-0.001161,0.038884,0.013237,-0.43,-2.21,9.54
16609917,-0.017140,0.019709,0.008976,0.51,-1.32,8.84
16610902,-0.013945,-0.020772,-0.003807,0.86,-1.75,8.66
16611912,0.008426,-0.036751,-0.008068,0.72,-1.75,8.31
16612948,0.024406,-0.011184,0.000454,0.93,-1.54,8.87
16613934,0.007361,0.005860,0.008976,1.45,-1.66,8.25
16614948,0.006296,0.010122,0.013237,0.56,-0.25,8.40
16615955,-0.004357,0.006926,0.010042,1.37,-1.37,8.59
16616964,-0.016075,-0.019706,0.002585,1.77,-0.22,9.25
16617985,-0.003292,-0.030359,0.000454,1.20,-0.27,10.24
16618986,0.012688,-0.004792,0.010042,0.76,0.19,10.40
16620026,0.006296,0.042080,0.027086,0.29,0.93,12.62
16621016,-0.012879,0.038884,0.032412,-0.01,0.83,12.46
16622020,-0.035250,0.017578,0.028151,-0.15,1.39,12.58
16623040,-0.038446,-0.002662,0.018564,-0.40,0.89,11.28
16624035,0.007361,-0.006923,0.005780,-1.14,1.67,11.35
16625047,0.013753,-0.031424,0.002585,-1.12,1.25,11.50
16626059,0.028667,-0.034620,0.006846,-1.19,0.66,10.61
16627071,0.053168,-0.006923,0.016433,-2.03,0.93,10.21
16628126,0.019079,0.018644,0.022825,-1.18,0.59,10.54
16629106,-0.055490,0.005860,0.016433,-0.92,-0.36,8.85
16630115,-0.029924,0.000534,0.000454,-1.15,-1.66,9.49
16631102,0.014818,-0.019706,-0.008068,-0.66,-0.55,8.73
16632109,0.044646,-0.021837,0.000454,-0.13,-1.90,7.55
16633129,0.037189,0.007991,0.012172,-0.66,-0.90,7.44
16634133,-0.015010,0.036754,0.015368,0.25,-2.08,8.77
16635141,-0.062947,0.009056,0.005780,0.71,-2.06,8.25
16636152,-0.009683,-0.014380,-0.003807,-0.36,-1.26,9.10
16637159,0.036124,-0.026098,-0.004872,1.10,-1.62,8.56
16638176,0.035058,-0.026098,0.000454,1.72,-1.20,9.25
16639179,0.014818,0.011187,0.012172,1.22,-1.58,8.79
16640214,-0.012879,0.054863,0.016433,1.08,-0.91,9.33
16641204,-0.051229,0.037819,0.007911,1.44,-0.95,9.21
16642210,-0.029924,-0.006923,-0.000611,0.78,-0.04,9.33
16643227,0.016949,-0.014380,-0.000611,0.69,0.17,11.07
16644230,0.027601,-0.020772,0.003650,0.74,0.88,10.74
16645240,0.020144,-0.000531,0.008976,0.23,0.93,11.82
16646250,-0.006488,0.023970,0.010042,-0.24,1.03,11.49
16647260,-0.020336,0.017578,-0.002742,-0.37,1.36,12.94
16648277,-0.009683,-0.022902,-0.011264,-0.62,0.76,12.53
16649280,0.036124,-0.021837,-0.007003,-1.29,1.64,11.30
16650313,0.025471,-0.017576,0.006846,-1.28,1.20,11.10
16651301,-0.012879,0.009056,0.019629,-1.15,0.93,10.19
16652309,-0.045903,0.032492,0.020694,-1.78,0.91,9.39
16653326,-0.032054,0.027166,0.007911,-1.14,-0.19,9.89
16654329,-0.011814,-0.023967,-0.001677,-1.00,-0.42,8.34
16655339,0.037189,-0.035686,-0.002742,-0.76,-1.81,8.85
16656349,0.037189,-0.029294,0.004715,-0.58,-0.62,7.80
16657359,0.012688,-0.005858,0.011107,-0.01,-1.98,8.81
16658376,-0.022467,0.005860,0.013237,0.30,-1.57,8.12
16659379,-0.009683,0.013317,0.007911,0.10,-1.62,9.37
16660414,0.004165,0.001599,0.006846,0.50,-1.57,9.25
16661404,0.011622,-0.001597,0.017499,0.95,-1.33,9.13
16662410,-0.016075,0.007991,0.027086,1.45,-1.76,8.07
16663427,-0.026728,0.021840,0.023890,0.68,-0.58,8.08
16664430,-0.019271,0.009056,0.012172,1.38,-1.40,8.38
16665440,-0.006488,-0.020772,0.003650,1.46,-0.57,9.04
16666450,0.012688,-0.039947,0.002585,1.16,-0.71,9.60
16667460,0.036124,-0.027163,0.010042,0.76,0.02,9.95
16668477,0.026536,0.009056,0.019629,0.58,0.89,12.03
16669480,-0.024597,0.016513,0.020694,0.38,0.61,11.67
16670513,-0.049099,0.013317,0.018564,-0.17,1.11,12.67
16671501,-0.024597,-0.000531,0.014303,-0.34,0.93,11.91
16672509,0.023340,0.007991,0.014303,-0.78,1.74,12.04
16673526,0.015883,0.003730,0.019629,-1.20,1.26,12.02
16674529,-0.012879,0.002665,0.016433,-1.21,1.08,11.27
16675539,-0.020336,-0.010119,0.010042,-1.27,0.83,10.16
16676549,0.026536,-0.013315,-0.001677,-1.13,0.27,9.47
16677559,0.036124,-0.035686,-0.000611,-1.44,0.42,9.16
16678576,0.016949,-0.026098,0.011107,-1.06,-0.98,8.59
16679579,-0.000096,0.003730,0.021760,-1.32,-0.36,7.91
16680614,-0.004357,0.038884,0.020694,-0.61,-1.52,9.76
16681604,-0.041642,0.017578,0.010042,0.00,-1.67,7.80
16682610,-0.019271,0.007991,0.002585,-0.39,-2.34,9.81
16683627,0.012688,-0.004792,-0.001677,0.44,-1.43,9.09
16684630,0.013753,-0.005858,-0.000611,0.73,-1.82,8.27
16685640,-0.008618,0.014383,-0.001677,0.90,-1.96,8.20
16686650,-0.023532,0.000534,-0.011264,1.41,-1.80,8.02
16687660,0.006296,-0.009054,-0.015525,0.46,-0.09,8.81
16688677,0.022275,-0.003727,-0.007003,1.29,-1.33,8.73
16689680,-0.004357,-0.007988,0.000454,1.52,0.07,9.47
16690713,-0.026728,0.004795,0.002585,1.08,0.10,10.56
16691701,-0.020336,0.019709,0.000454,0.31,0.46,10.69
16692709,-0.007553,0.014383,-0.004872,0.14,0.93,12.72
16693726,0.007361,-0.015445,-0.003807,0.14,0.60,11.90
16694729,0.032928,-0.010119,0.002585,-0.75,1.85,12.59
16695739,0.013753,-0.021837,0.005780,-0.92,1.58,12.24
16696749,0.015883,-0.030359,-0.001677,-0.95,1.77,11.76
16697759,0.010557,-0.027163,0.000454,-0.96,1.07,10.73
16698776,0.008426,0.022905,0.012172,-1.13,0.70,9.82
16699779,-0.012879,0.035688,0.021760,-1.74,0.71,10.01
16700851,-0.036315,0.020774,0.022825,-1.11,-0.24,9.45
16701804,-0.043772,-0.006923,0.017499,-1.26,0.23,8.23
16702810,0.002035,-0.013315,0.010042,-0.77,-1.19,9.37
16703827,0.008426,-0.028229,0.004715,-0.42,-1.14,7.64
16704830,0.021210,-0.005858,0.006846,-0.22,-2.49,9.65
16705840,0.011622,0.000534,0.011107,0.17,-1.31,8.65
16706850,0.004165,-0.014380,0.006846,0.48,-1.92,9.26
16707860,-0.007553,-0.032490,0.004715,0.91,-2.00,7.84
