time_us,gyro_x_rad_s,gyro_y_rad_s,gyro_z_rad_s,acc_x_m_s2,acc_y_m_s2,acc_z_m_s2
915235587,0.000283,-0.001836,0.000967,0.03,-0.30,9.75
915236297,0.000262,-0.002679,0.000893,0.03,-0.31,9.74
915237725,0.002390,-0.003741,-0.001237,0.01,-0.33,9.76
915238757,0.002387,-0.002672,-0.002299,0.04,-0.34,9.75
915239774,-0.000808,-0.000541,-0.002296,0.01,-0.29,9.77
915240777,-0.000807,0.000523,-0.001230,-0.01,-0.29,9.79
915241794,0.001322,-0.001605,-0.001229,0.01,-0.33,9.79
915242797,0.001321,-0.002668,-0.003356,-0.02,-0.33,9.79
915243814,0.001319,0.000527,-0.002288,-0.03,-0.33,9.81
915244817,0.002382,0.002655,0.001971,0.00,-0.34,9.83
915245840,0.002380,0.002652,0.000905,0.00,-0.32,9.81
915246837,0.003442,0.003714,-0.000160,-0.04,-0.31,9.81
915247854,0.003438,0.003710,-0.000160,-0.01,-0.30,9.84
915248857,0.002371,0.000514,-0.000160,0.02,-0.33,9.82
915249874,0.002368,-0.002679,-0.003353,0.01,-0.35,9.81
915250877,0.002366,-0.002677,-0.005478,-0.02,-0.33,9.84
915251894,0.002363,-0.000545,-0.005472,-0.02,-0.33,9.84
915252897,0.001297,0.000519,-0.003338,-0.02,-0.35,9.81
915253914,0.000231,-0.000545,-0.002271,-0.03,-0.36,9.82
915254917,0.001295,0.000519,-0.002268,-0.02,-0.33,9.81
915255940,0.000230,0.001583,-0.001202,-0.02,-0.30,9.79
915256938,-0.000835,0.003710,-0.000136,-0.02,-0.31,9.76
915257954,-0.001898,0.004770,-0.000136,-0.01,-0.32,9.74
915258957,-0.000832,0.003701,-0.002264,-0.01,-0.31,9.78
915259974,0.000233,0.000505,-0.003326,-0.01,-0.32,9.84
915260977,-0.000831,0.000504,-0.002259,-0.01,-0.33,9.87
915261994,-0.000831,0.001568,-0.000128,0.02,-0.31,9.81
915262997,-0.000830,0.001567,0.000936,0.00,-0.34,9.78
915264014,-0.002957,0.001565,0.001999,-0.01,-0.36,9.82
915265017,-0.004018,0.002628,0.001997,-0.01,-0.36,9.82
915266040,-0.001886,0.003689,-0.001197,-0.01,-0.33,9.78
915267037,0.001308,0.004750,-0.002260,-0.02,-0.30,9.77
915268054,-0.000821,0.000488,0.000935,0.02,-0.35,9.81
915269057,-0.001885,-0.000577,-0.000130,0.00,-0.33,9.83
915270074,-0.000819,0.000488,-0.000130,-0.02,-0.30,9.83
915271077,0.000247,0.001552,-0.000130,-0.01,-0.33,9.79
915272094,-0.001882,-0.000578,-0.000130,0.02,-0.33,9.80
915273097,-0.001880,0.000487,-0.000130,0.02,-0.34,9.78
915274114,0.001314,0.001550,0.001999,0.01,-0.35,9.74
915275117,0.003441,0.001549,0.003061,-0.02,-0.34,9.77
915276140,0.002374,0.000483,0.003058,-0.03,-0.32,9.78
915277138,0.000243,-0.001646,0.001990,-0.03,-0.31,9.80
915278154,-0.000822,-0.001644,-0.000140,-0.04,-0.31,9.79
915279157,-0.000821,-0.001643,-0.003332,-0.06,-0.31,9.75
915280174,0.001308,0.000487,-0.002265,-0.04,-0.31,9.78
915281177,0.001307,0.001551,-0.000134,0.02,-0.31,9.82
915282194,0.000242,0.000485,-0.000134,0.03,-0.33,9.81
915283197,0.002370,0.002613,-0.000134,0.01,-0.33,9.82
915284214,0.004496,0.002611,0.000930,0.01,-0.34,9.85
915285217,0.004491,0.001544,-0.000135,0.02,-0.34,9.79
915286240,0.001294,-0.000586,-0.000135,0.02,-0.33,9.75
915287237,-0.000836,-0.000586,-0.001199,0.01,-0.29,9.82
915288292,-0.000835,-0.000585,-0.000133,0.01,-0.31,9.84
915289257,0.000230,-0.001649,0.000931,0.01,-0.32,9.81
915290274,0.001294,-0.001647,0.001994,-0.01,-0.30,9.82
915291277,0.000229,-0.000581,0.001992,0.00,-0.32,9.83
915292295,-0.000836,-0.000581,0.000926,0.01,-0.33,9.77
915293298,0.000229,0.000484,-0.000139,-0.02,-0.33,9.75
915294323,0.003422,0.001548,0.000925,-0.02,-0.32,9.78
915295317,0.004482,0.003675,0.001989,0.01,-0.31,9.86
915296345,0.002350,0.004735,0.000922,0.05,-0.31,9.86
915297345,0.000219,0.003666,-0.001207,0.03,-0.30,9.80
915298358,-0.000846,0.000470,-0.002270,-0.01,-0.30,9.79
915299361,0.000219,-0.001659,-0.001203,0.00,-0.31,9.85
915300379,0.001283,-0.001657,0.001990,0.03,-0.33,9.88
915301381,0.000218,0.001537,0.004117,0.00,-0.32,9.82
915302400,-0.000847,0.003664,0.004113,0.03,-0.32,9.78
915303401,-0.000846,0.002596,0.001980,0.06,-0.34,9.79
915304421,0.000219,-0.000599,0.000914,0.01,-0.35,9.82
915305422,0.001283,-0.001663,0.000913,0.01,-0.34,9.79
915306448,0.001282,-0.000597,-0.000152,0.04,-0.33,9.77
915307466,0.001281,0.000468,-0.000152,0.03,-0.32,9.81
915308510,0.000215,-0.000597,-0.000152,0.01,-0.34,9.82
915309497,-0.001913,-0.000596,-0.001216,0.02,-0.36,9.77
915310522,-0.004040,-0.001660,-0.001215,0.01,-0.33,9.75
915311482,-0.002972,-0.001658,-0.002278,-0.02,-0.33,9.74
915312503,-0.001904,-0.001657,-0.002275,-0.01,-0.34,9.78
915313497,-0.000838,-0.000591,-0.002273,0.00,-0.34,9.77
915314518,0.000227,0.001538,-0.000142,-0.01,-0.34,9.77
915315533,0.002355,0.002601,0.000922,-0.02,-0.34,9.79
915316530,0.002353,0.002598,0.000921,0.00,-0.33,9.74
915317547,0.000222,0.002596,-0.001208,0.01,-0.30,9.75
915318546,-0.001907,0.001529,-0.001207,0.01,-0.28,9.79
915319564,-0.001905,-0.000601,-0.000142,0.01,-0.30,9.79
915320567,-0.000839,-0.002729,0.000923,0.00,-0.32,9.82
915321584,0.001290,-0.006983,0.000922,0.02,-0.32,9.79
915322607,0.001289,-0.005912,0.000921,-0.01,-0.31,9.74
915323655,-0.000841,-0.002713,-0.002273,-0.04,-0.33,9.76
915324630,-0.001904,-0.000582,-0.002270,-0.02,-0.34,9.83
915325674,-0.000838,0.000483,-0.000140,-0.01,-0.32,9.86
915326646,-0.001901,0.003675,0.001989,0.03,-0.31,9.81
915327651,-0.004028,0.003671,0.003051,0.02,-0.29,9.82
915328648,-0.001895,0.001539,0.003048,0.01,-0.29,9.85
915329670,0.000235,0.000474,0.003045,0.02,-0.31,9.78
915330671,0.000235,-0.000591,0.000914,0.01,-0.32,9.79
915331686,0.001299,-0.000590,-0.002280,-0.02,-0.33,9.82
915332701,0.001297,-0.001654,-0.003342,-0.07,-0.34,9.82
915333723,0.003425,-0.002717,-0.001210,-0.06,-0.35,9.85
915334744,0.002357,-0.002714,-0.000145,-0.02,-0.33,9.80
915335774,0.000226,-0.001647,-0.001209,-0.01,-0.35,9.74
915336762,-0.000838,-0.000581,-0.001207,-0.01,-0.36,9.77
915337771,0.000227,-0.001645,0.000922,0.02,-0.35,9.82
915338773,0.001291,-0.002707,0.000921,0.02,-0.35,9.82
915339803,0.002354,-0.001640,-0.000144,0.00,-0.34,9.84
915340767,0.002351,-0.000574,-0.002272,0.00,-0.30,9.84
915341784,0.002349,0.000490,-0.002270,0.02,-0.26,9.81
915342787,0.001282,0.001554,-0.000139,0.03,-0.27,9.78
915343804,0.001281,0.000488,0.001989,0.03,-0.30,9.77
915344813,-0.000849,-0.001641,0.001987,0.03,-0.32,9.79
915345865,0.000216,-0.003767,0.000921,0.03,-0.32,9.80
915346842,0.002345,-0.002699,-0.000144,0.02,-0.32,9.82
915347844,0.002342,0.001560,-0.000144,0.00,-0.31,9.87
915348847,0.001276,0.002623,-0.000144,-0.04,-0.30,9.85
915349902,0.002339,0.002620,-0.000144,-0.03,-0.33,9.80
915350908,0.001272,0.000489,0.000921,-0.02,-0.34,9.81
915351884,0.000207,-0.000575,0.001984,-0.02,-0.32,9.82
915352887,0.000206,0.001554,-0.000146,-0.02,-0.32,9.84
915353904,0.000206,0.003681,-0.001210,-0.02,-0.32,9.82
915354907,0.000206,0.004741,-0.001209,-0.01,-0.31,9.82
915355930,-0.001923,0.003672,0.001985,0.00,-0.34,9.84
915356927,-0.001921,0.000476,0.001983,-0.01,-0.33,9.84
915357945,0.000210,-0.002717,0.000916,-0.02,-0.32,9.82
915358947,0.001274,-0.000586,0.000915,-0.02,-0.33,9.87
915359964,0.001272,0.002607,0.003043,-0.01,-0.34,9.86
915360967,0.000207,0.002604,0.005168,0.00,-0.33,9.83
915361984,0.000207,-0.000591,0.003035,0.00,-0.31,9.86
915362987,-0.000858,-0.001655,-0.001225,-0.01,-0.30,9.86
915364004,-0.002985,-0.000589,-0.001224,-0.01,-0.32,9.85
915365007,-0.001918,0.000476,-0.000159,-0.02,-0.33,9.80
915366030,0.001276,0.001540,-0.000158,-0.03,-0.31,9.79
915367027,0.003403,0.002603,0.000906,-0.02,-0.30,9.80
915368044,0.001272,0.002600,-0.000159,-0.01,-0.31,9.81
915369047,-0.001922,0.000469,-0.001223,0.01,-0.31,9.88
915370064,-0.001920,-0.000596,-0.000158,0.00,-0.33,9.87
915371067,-0.001918,0.000469,0.000907,0.01,-0.34,9.83
915372084,-0.000852,0.002597,0.001970,0.03,-0.34,9.77
915373087,0.000213,0.001530,0.001968,0.02,-0.31,9.83
915374104,-0.000852,0.000464,0.001966,-0.04,-0.29,9.85
915375107,-0.002979,-0.001664,0.001964,-0.04,-0.31,9.78
915376130,-0.002976,-0.001663,0.000898,0.00,-0.34,9.77
915377127,-0.001909,-0.000597,0.000897,-0.02,-0.35,9.78
915378145,-0.002971,0.000468,0.000896,0.00,-0.35,9.81
915379147,-0.002968,0.001532,-0.000169,0.00,-0.33,9.81
915380164,-0.001901,0.001530,-0.001233,-0.02,-0.33,9.79
915381167,0.000229,0.000464,-0.002296,-0.02,-0.35,9.84
915382184,-0.001899,-0.001665,-0.002294,-0.02,-0.33,9.82
915383187,-0.001897,-0.000599,-0.002292,-0.02,-0.34,9.78
915384204,-0.000831,-0.000598,-0.000161,-0.02,-0.32,9.80
915385207,0.001298,-0.001662,0.001968,-0.04,-0.28,9.81
915386230,0.003425,-0.003788,0.000902,0.00,-0.32,9.80
915387227,0.003422,-0.002720,-0.000164,0.04,-0.33,9.81
915388244,0.001290,0.000475,-0.001228,0.01,-0.35,9.80
915389247,-0.000840,0.002603,-0.002291,0.00,-0.37,9.78
915390270,-0.000839,0.003665,-0.003352,0.04,-0.35,9.80
915391290,0.002354,0.002597,-0.002285,0.06,-0.33,9.80
915392284,0.002352,-0.000599,-0.001218,0.02,-0.32,9.82
915393289,0.001285,-0.001662,-0.001217,-0.02,-0.31,9.83
915394308,0.002348,-0.000596,-0.001216,-0.01,-0.31,9.81
915395313,0.001282,0.003661,0.000914,0.00,-0.34,9.80
915396334,0.000216,0.006850,0.001977,0.00,-0.36,9.80
915397330,0.002344,0.004715,-0.000153,-0.02,-0.33,9.82
915398353,0.002342,0.001517,-0.002282,-0.02,-0.34,9.85
915399352,0.001275,-0.000613,-0.002279,0.00,-0.35,9.90
915400369,0.000210,-0.000612,-0.002277,-0.01,-0.34,9.89
915401373,0.000210,-0.002740,-0.000146,-0.02,-0.34,9.83
915402392,-0.000855,-0.002737,0.000918,-0.01,-0.32,9.84
915403395,0.001275,-0.001670,0.000917,-0.02,-0.32,9.85
915404410,0.002338,-0.001669,0.000916,0.00,-0.31,9.80
915405412,0.000207,-0.000603,0.000915,0.02,-0.31,9.75
915406439,-0.002986,-0.001666,-0.000150,0.00,-0.33,9.77
915407435,-0.005111,-0.001665,-0.000150,-0.03,-0.34,9.80
915408452,-0.006171,0.002594,-0.001214,0.00,-0.35,9.76
915409459,-0.001907,0.005784,-0.001213,0.00,-0.36,9.77
915410470,0.001287,0.005778,-0.001211,-0.02,-0.34,9.81
915411473,0.002350,0.002580,-0.001210,0.01,-0.33,9.81
915412488,0.001283,0.000449,0.001984,-0.01,-0.34,9.81
915413490,0.000218,-0.000616,0.004110,-0.02,-0.34,9.81
915414508,-0.001911,0.000449,0.001978,-0.01,-0.33,9.81
915415523,-0.000845,0.002577,-0.000153,0.02,-0.31,9.79
915416521,-0.000844,0.000446,0.000912,0.02,-0.32,9.81
915417537,-0.001907,-0.002747,0.000911,0.01,-0.34,9.85
915418540,-0.001905,-0.001680,-0.001219,-0.01,-0.32,9.85
915419553,-0.000839,0.000450,-0.003346,-0.03,-0.30,9.85
915420557,0.002354,0.002578,-0.004407,-0.02,-0.31,9.83
915421574,0.003416,0.002575,-0.002274,-0.04,-0.32,9.85
915422577,0.001284,0.002573,-0.000143,-0.03,-0.33,9.90
915423594,-0.000845,-0.001687,0.000921,-0.03,-0.33,9.85
915424597,-0.000844,-0.003814,0.000920,-0.04,-0.35,9.80
915425620,0.000221,-0.003810,-0.000145,-0.01,-0.35,9.81
915426617,-0.000844,-0.001677,-0.000145,0.02,-0.34,9.82
915427634,-0.000843,0.001517,-0.000145,0.00,-0.34,9.83
915428637,-0.000842,0.001515,-0.001209,-0.03,-0.33,9.84
915429654,0.000223,-0.002743,-0.001207,-0.04,-0.32,9.87
915430657,0.000223,-0.004869,-0.001206,-0.01,-0.28,9.83
915431674,0.000222,-0.002735,-0.002269,0.00,-0.31,9.77
915432677,0.002351,-0.001668,-0.001203,0.01,-0.35,9.81
915433694,0.003412,-0.002731,0.000927,0.00,-0.31,9.80
915434697,0.002345,-0.003792,0.000926,0.02,-0.29,9.79
915435720,0.001278,-0.002724,-0.000139,0.00,-0.32,9.84
915436717,0.003405,-0.003786,0.000925,-0.05,-0.33,9.81
915437734,0.002338,-0.002718,-0.000140,-0.01,-0.34,9.78
915438738,0.002335,-0.001651,-0.001204,0.03,-0.31,9.78
915439754,0.000205,-0.001649,-0.002267,0.01,-0.29,9.79
915440757,0.000204,0.000481,-0.002265,-0.01,-0.34,9.81
915441774,0.000204,0.002609,-0.001198,0.01,-0.34,9.81
915442777,0.001268,0.002606,-0.001197,-0.01,-0.34,9.81
915443828,0.000203,0.001539,-0.002260,-0.01,-0.33,9.81
915444811,-0.000862,-0.001655,-0.003322,0.02,-0.29,9.79
915445820,-0.000861,-0.002717,-0.004383,0.02,-0.33,9.84
915446817,0.000204,-0.001650,-0.004378,0.02,-0.36,9.86
915447834,-0.000860,-0.001649,-0.003310,0.00,-0.29,9.82
915448837,-0.001924,-0.000583,-0.001178,-0.03,-0.28,9.80
915449854,-0.000857,-0.001646,-0.000113,-0.02,-0.33,9.82
915450857,0.000208,-0.001645,-0.001177,-0.03,-0.32,9.83
915451874,-0.000857,-0.001643,-0.002240,-0.01,-0.31,9.86
915452877,-0.000856,-0.002706,-0.002237,-0.01,-0.33,9.90
915453894,-0.000855,-0.002703,-0.000107,0.01,-0.32,9.88
915454897,0.000210,0.001557,-0.001171,0.04,-0.33,9.83
915455920,-0.000854,0.003683,-0.002234,0.04,-0.35,9.82
915456917,-0.001918,0.001551,-0.001167,0.04,-0.34,9.81
915457934,-0.001916,0.001550,-0.001166,0.01,-0.34,9.79
915458938,0.000215,0.001548,-0.002229,0.00,-0.35,9.79
915459954,0.002343,-0.000582,-0.001163,0.01,-0.36,9.80
915460957,0.002340,-0.002710,-0.000097,0.00,-0.32,9.83
915461974,0.000210,-0.002707,-0.001162,0.00,-0.31,9.79
915462977,-0.000855,-0.001640,-0.002225,0.00,-0.34,9.79
915463994,-0.000854,0.000490,-0.001158,0.01,-0.33,9.82
915464997,-0.000853,0.003682,0.002036,0.01,-0.33,9.81
915466020,-0.000852,0.002614,0.003098,0.03,-0.33,9.81
915467017,-0.000851,-0.001645,-0.000098,0.02,-0.35,9.80
915468034,-0.001915,-0.004836,-0.003291,0.00,-0.37,9.82
915469037,-0.001913,-0.003767,-0.002223,0.00,-0.35,9.81
915470054,0.000218,0.002622,0.002036,-0.01,-0.31,9.78
915471057,-0.001911,0.001555,0.000970,-0.02,-0.31,9.80
915472074,-0.005102,-0.001639,0.000969,-0.02,-0.32,9.79
915473077,-0.004032,-0.001637,-0.001161,0.01,-0.31,9.79
915474094,-0.000836,0.000493,-0.001159,-0.02,-0.34,9.78
915475097,-0.000835,0.000492,-0.000094,-0.02,-0.36,9.77
915476120,-0.001898,0.000492,0.000970,0.01,-0.35,9.78
915477117,-0.001896,-0.000573,0.002034,0.02,-0.35,9.80
915478134,-0.000830,-0.000572,0.003096,0.03,-0.37,9.81
915479138,0.000235,-0.002700,0.004157,0.01,-0.34,9.82
915480154,0.000235,-0.002697,0.003088,-0.02,-0.32,9.82
915481157,-0.001894,-0.001631,0.000957,0.00,-0.32,9.82
915482174,-0.002956,0.000500,-0.001173,0.02,-0.32,9.86
915483177,-0.001889,0.001563,-0.001171,0.02,-0.34,9.85
915484194,0.001305,0.000497,-0.000106,-0.01,-0.34,9.79
915485197,0.001304,0.001561,0.000958,-0.02,-0.33,9.79
915486222,0.000239,0.003688,0.000957,-0.03,-0.33,9.84
915487217,-0.000826,0.002620,0.002021,-0.05,-0.33,9.82
915488234,-0.000825,0.001553,-0.000110,0.00,-0.36,9.76
915489237,-0.000824,-0.001641,-0.002238,0.02,-0.34,9.78
915490254,-0.000823,-0.000575,-0.001172,0.03,-0.32,9.79
915491257,0.001306,0.001554,-0.001170,0.02,-0.34,9.78
915492274,0.003433,-0.000576,-0.003298,0.03,-0.37,9.77
915493321,0.001301,-0.000576,-0.002230,0.02,-0.35,9.79
915494292,-0.001893,0.000489,-0.000100,-0.03,-0.34,9.81
915495298,-0.002955,0.001553,0.000965,-0.04,-0.33,9.79
915496323,-0.001888,0.001551,0.002028,-0.02,-0.33,9.80
915497320,-0.000822,0.001550,0.002026,0.01,-0.34,9.82
915498342,0.001307,0.000484,-0.000104,0.02,-0.30,9.84
915499342,0.002370,-0.000581,-0.001169,0.02,-0.31,9.88
915500361,0.000239,0.000484,-0.001167,-0.03,-0.32,9.81
915501362,-0.001889,0.001548,-0.002230,0.00,-0.33,9.74
915502378,-0.000823,0.001546,-0.001164,0.03,-0.34,9.82
915503383,0.001306,0.001545,0.002030,0.00,-0.32,9.86
915504399,0.001305,0.000479,0.000964,0.02,-0.35,9.84
915505404,0.001304,0.001543,-0.001166,0.01,-0.37,9.83
915506425,0.001302,0.001541,-0.001165,0.00,-0.34,9.82
915507425,0.001301,0.000475,-0.001163,0.00,-0.31,9.81
915508443,0.002364,-0.001654,-0.000098,-0.02,-0.29,9.78
915509445,0.001297,-0.001652,-0.001162,-0.03,-0.32,9.82
915510465,0.000232,0.000478,-0.003289,0.00,-0.33,9.82
915511463,-0.000833,0.000478,-0.003286,0.00,-0.34,9.78
915512481,0.000232,-0.001651,-0.002219,-0.02,-0.35,9.75
915513481,0.002360,-0.002714,-0.002216,0.00,-0.33,9.78
915514494,0.003422,-0.001647,-0.001150,0.00,-0.31,9.82
915515513,0.000226,-0.001645,-0.000085,0.01,-0.34,9.85
915516511,-0.001902,-0.001643,0.000980,0.01,-0.35,9.83
915517528,-0.004029,-0.002706,0.000979,0.00,-0.30,9.78
915518530,-0.004025,-0.003767,-0.000086,-0.03,-0.32,9.78
915519547,-0.001892,-0.001635,0.000978,-0.03,-0.34,9.79
915520546,0.000238,0.001559,0.003105,0.01,-0.33,9.77
915521564,0.001302,0.001557,0.002038,-0.03,-0.31,9.77
915522567,0.002365,0.000492,-0.002221,-0.07,-0.29,9.81
915523584,0.002362,0.000491,-0.002219,-0.04,-0.32,9.80
915524587,0.000232,-0.000574,-0.001152,-0.02,-0.34,9.79
915525610,-0.001897,0.000491,-0.001151,0.02,-0.32,9.82
915526607,-0.002959,-0.000573,-0.001150,0.04,-0.34,9.83
915527624,-0.000828,-0.001637,-0.001149,0.00,-0.33,9.81
915528627,0.002366,-0.003764,-0.000083,0.00,-0.30,9.85
915529644,0.003427,-0.002696,-0.000083,-0.01,-0.29,9.84
915530647,0.003424,-0.002693,-0.000083,-0.03,-0.31,9.79
915531664,0.003420,-0.003755,-0.000083,-0.02,-0.31,9.81
915532667,0.002353,-0.003751,-0.000083,0.00,-0.29,9.76
915533684,0.000222,-0.003747,0.000981,0.03,-0.29,9.78
915534687,-0.002971,-0.002679,-0.001148,0.04,-0.32,9.83
915535710,-0.001904,0.000516,-0.001147,0.02,-0.34,9.80
915536707,-0.000837,0.001580,-0.000082,0.02,-0.34,9.81
915537721,-0.000837,0.000514,-0.002210,0.01,-0.34,9.83
915538725,0.000228,0.000514,-0.003272,-0.01,-0.32,9.86
915539743,0.001292,0.002642,-0.001140,0.02,-0.28,9.86
915540747,0.000227,0.003703,0.000989,0.01,-0.28,9.84
915541764,0.001291,0.003699,0.002053,0.00,-0.30,9.79
915542767,0.001290,0.001567,0.000986,0.01,-0.32,9.81
915543784,0.000224,-0.001627,-0.000079,0.02,-0.33,9.84
915544787,-0.000840,-0.002690,-0.002207,-0.01,-0.33,9.84
915545810,0.000225,0.000506,-0.000077,-0.02,-0.33,9.86
915546807,0.001289,0.000505,-0.000077,-0.01,-0.32,9.87
915547824,0.001287,0.000505,0.000988,0.00,-0.32,9.86
915548827,0.002350,-0.000560,0.003115,0.02,-0.31,9.81
915549844,0.001284,0.001569,0.004176,0.01,-0.30,9.81
915550847,0.000218,0.001567,0.003108,-0.02,-0.33,9.79
915551864,-0.000846,0.000502,-0.000088,-0.03,-0.32,9.80
915552867,0.000219,0.000501,-0.001152,-0.01,-0.27,9.80
915553884,0.001283,-0.000564,-0.000087,-0.02,-0.28,9.77
915554887,0.000217,-0.001627,0.000978,-0.01,-0.33,9.76
915555910,-0.001911,-0.001626,0.000977,0.03,-0.33,9.77
915556907,-0.001909,-0.001624,0.000976,0.04,-0.36,9.79
915557921,-0.001907,-0.000558,0.002039,0.02,-0.38,9.82
915558927,0.001287,0.000507,-0.000092,0.01,-0.34,9.81
915559945,0.002350,0.001570,0.000973,0.01,-0.30,9.78
915560947,0.001283,0.001569,-0.000092,0.02,-0.31,9.81
915561964,-0.000846,0.002631,-0.002221,0.01,-0.29,9.84
915562967,-0.000845,0.003693,-0.001154,0.00,-0.32,9.81
915564021,0.000220,0.001561,0.002039,0.00,-0.38,9.83
915565026,0.000219,-0.001633,0.002037,-0.02,-0.34,9.81
915566044,0.000219,-0.000567,0.002035,0.00,-0.32,9.80
915567007,-0.000845,0.001562,-0.000095,0.01,-0.32,9.82
915568024,0.000220,0.003689,-0.000095,-0.01,-0.33,9.82
915569039,0.002348,0.002621,-0.000095,-0.02,-0.34,9.79
915570044,0.000217,-0.000575,-0.002223,-0.04,-0.34,9.77
915571047,-0.001911,0.001554,-0.000093,0.00,-0.36,9.76
915572064,-0.002974,0.003681,0.000972,0.03,-0.30,9.77
915573067,-0.004035,0.000485,0.000971,0.01,-0.26,9.84
915574084,-0.004031,-0.002708,-0.000095,0.02,-0.29,9.83
915575087,-0.002963,-0.001641,-0.000094,0.01,-0.30,9.80
915576110,-0.001895,-0.000575,-0.000094,0.00,-0.29,9.85
915577121,-0.001893,-0.001639,0.000970,0.00,-0.30,9.81
915578138,0.000237,-0.000573,0.000969,0.03,-0.31,9.76
915579169,0.001301,0.000492,-0.000096,0.01,-0.34,9.78
915580181,0.002364,0.000491,-0.002224,-0.05,-0.36,9.81
915581174,0.002361,-0.000574,0.000970,-0.02,-0.34,9.81
915582169,0.001295,-0.000573,0.004162,0.03,-0.31,9.82
915583168,0.000229,-0.000572,0.004158,0.02,-0.29,9.80
915584189,-0.001899,-0.000572,0.000961,-0.02,-0.28,9.78
915585191,-0.002962,-0.000571,-0.000104,-0.01,-0.30,9.82
915586217,-0.000830,0.000494,-0.000104,0.01,-0.33,9.82
915587215,0.002363,0.000493,0.000960,0.01,-0.36,9.82
915588258,0.002361,0.002621,0.002024,-0.02,-0.35,9.84
915589273,0.001294,0.003682,0.003086,-0.03,-0.35,9.80
915590268,-0.000836,0.003679,0.002018,0.01,-0.34,9.81
915591273,-0.000835,0.002611,-0.000112,0.02,-0.32,9.82
915592313,-0.001898,-0.000584,0.000952,0.00,-0.32,9.78
915593289,-0.001896,-0.000584,0.002015,-0.01,-0.31,9.75
915594281,-0.001894,0.000481,0.003078,-0.02,-0.31,9.81
915595328,-0.000828,0.000480,0.003075,-0.01,-0.33,9.82
915596355,0.001301,-0.000584,0.004136,-0.01,-0.32,9.79
915597314,0.003428,-0.001648,0.002003,-0.02,-0.29,9.79
915598331,0.000232,-0.001646,-0.000128,-0.01,-0.31,9.74
915599341,-0.004025,-0.001645,-0.001192,0.02,-0.33,9.76
915600349,-0.005085,-0.003771,-0.002255,0.00,-0.33,9.83
915601352,-0.004016,-0.003767,-0.003317,-0.05,-0.33,9.84
915602373,-0.001883,-0.004828,-0.000121,-0.05,-0.32,9.81
915603374,0.000247,-0.002695,0.000944,-0.02,-0.30,9.81
915604391,0.000247,-0.000563,0.000943,-0.02,-0.30,9.82
915605399,-0.001882,-0.000563,-0.001187,0.00,-0.32,9.84
915606427,-0.001880,0.000502,-0.000121,0.00,-0.33,9.86
915607442,-0.001878,0.000501,0.000943,0.00,-0.31,9.80
915608482,-0.004005,0.001565,-0.000122,0.02,-0.29,9.80
915609490,-0.002936,0.001563,-0.001186,0.00,-0.32,9.82
915610452,-0.000805,0.001562,-0.000121,0.00,-0.34,9.82
915611459,0.000260,0.000496,0.000944,0.01,-0.35,9.79
915612471,-0.000804,-0.000569,-0.000121,-0.01,-0.37,9.81
915613508,-0.000804,-0.000568,-0.000121,-0.02,-0.36,9.80
915614491,-0.000803,-0.000567,0.000943,-0.02,-0.33,9.77
915615500,-0.000802,0.000497,0.002006,0.00,-0.32,9.81
915616497,0.001327,0.001561,0.000940,0.00,-0.31,9.80
915617518,0.003454,-0.000569,0.003068,-0.01,-0.29,9.76
915618521,0.002387,-0.002697,0.003064,0.01,-0.32,9.80
915619547,0.000256,-0.000566,0.001997,0.02,-0.32,9.82
915620537,-0.002937,0.000499,0.000931,0.02,-0.31,9.81
915621554,-0.003998,0.000499,-0.000134,0.00,-0.33,9.81
915622554,-0.000802,0.000498,-0.000134,-0.02,-0.32,9.78
915623574,0.002392,0.000498,0.000930,-0.01,-0.30,9.79
915624577,0.001325,-0.000567,0.000929,0.00,-0.30,9.84
915625600,-0.000805,-0.001631,-0.000136,-0.02,-0.28,9.81
915626597,-0.001868,-0.000565,-0.002264,-0.03,-0.30,9.78
915627614,-0.000802,-0.000564,-0.002262,-0.02,-0.31,9.81
915628626,0.001327,-0.001628,-0.001195,-0.01,-0.34,9.78
915629634,0.002390,-0.002690,-0.000130,-0.02,-0.36,9.74
915630637,0.000259,-0.002688,0.001999,-0.03,-0.36,9.77
915631654,0.000259,-0.000557,0.003061,-0.02,-0.34,9.83
915632657,0.001323,0.002637,0.003058,0.01,-0.33,9.85
915633674,0.002386,0.003698,0.000926,0.04,-0.31,9.83
915634677,0.001319,0.003694,0.000925,0.02,-0.30,9.83
915635697,0.001318,0.001562,0.000924,-0.01,-0.31,9.79
915636697,-0.002940,0.000496,0.000923,-0.01,-0.33,9.78
915637714,-0.005066,0.000496,-0.000142,0.00,-0.32,9.81
915638726,-0.001868,0.000495,-0.001206,0.00,-0.30,9.84
915639823,0.000262,-0.000569,-0.001205,0.01,-0.30,9.84
915640708,-0.000803,0.000496,-0.000139,0.01,-0.33,9.77
915641716,-0.003999,-0.000569,-0.003335,0.00,-0.36,9.82
915642725,-0.001868,-0.012287,-0.013988,-0.01,-0.33,9.84
915643735,0.002393,-0.010157,-0.016118,0.02,-0.32,9.69
915644745,0.002393,0.000496,-0.016118,-0.08,-0.24,9.66
915645767,0.000262,0.003692,-0.019314,-0.25,-0.34,9.68
915646769,0.001328,0.001561,-0.025706,-0.13,-0.64,9.79
915647775,0.006654,-0.000569,-0.029967,0.05,-0.61,9.81
915648798,0.007719,0.002627,-0.033163,0.31,-0.50,9.74
915649798,-0.000803,0.006888,-0.037424,0.48,-0.10,9.86
915650808,-0.009325,0.007953,-0.026771,0.09,0.41,10.10
915651819,-0.007195,0.003692,-0.002270,-0.73,0.20,10.16
915652828,0.010915,-0.009092,0.012644,-0.82,-1.00,9.67
915653838,0.034351,-0.015483,0.007318,0.17,-1.03,9.51
915654848,0.026894,-0.004830,-0.008661,0.98,0.90,9.61
915655868,-0.017847,0.017540,-0.003335,0.30,0.36,9.82
915656871,-0.045545,0.030324,0.022232,-1.08,-2.27,10.32
915657878,0.004523,0.000496,0.013709,-0.15,-0.85,9.99
915658893,0.059918,-0.034658,-0.008661,1.43,2.44,9.99
915659895,0.011980,-0.021875,0.011579,-0.33,-1.57,9.86
915660905,-0.050871,0.014345,0.022232,-1.28,-2.48,9.23
915661916,0.008785,0.020736,-0.004400,1.32,3.48,10.06
915662925,0.018372,0.003692,0.009448,0.13,-2.13,10.52
915663935,-0.039153,-0.017614,0.021166,-1.56,-2.37,9.18
915664945,0.014111,-0.016549,0.000926,1.52,3.57,8.57
915665966,0.041808,0.033520,0.019036,-0.39,-3.84,12.00
915666969,-0.037022,0.021802,0.009448,-0.31,0.92,8.94
915667975,-0.014652,0.012214,-0.005466,0.41,0.35,9.71
915668996,0.010915,0.035650,-0.001205,-1.66,-2.44,11.23
915669998,-0.009325,-0.046376,-0.018249,1.22,1.00,8.26
915671008,0.019437,-0.034658,-0.041685,0.86,0.54,7.93
915672019,-0.013586,-0.011222,-0.041685,-0.40,-1.60,10.57
915673028,-0.016782,0.014345,-0.044881,-0.50,-0.02,6.82
915674038,-0.007195,0.023932,-0.039555,-0.12,-0.46,10.57
915675048,0.000262,0.029259,-0.043816,-0.38,-1.16,8.68
915676068,-0.007195,0.015410,-0.045946,-0.12,0.66,10.90
915677071,-0.012521,0.011149,-0.057664,-0.73,-1.63,10.13
915678078,0.000262,-0.003765,-0.061926,0.49,0.76,10.99
915679093,0.021568,-0.002700,-0.053403,-0.56,-1.91,11.53
915680095,0.022633,0.001561,-0.048077,0.60,0.90,8.50
915681105,0.006654,-0.025071,-0.043816,-0.35,-1.80,12.62
915682116,0.007719,-0.014418,-0.051273,0.65,-1.08,5.97
915683125,0.017307,-0.021875,-0.051273,-1.49,2.75,11.67
915684135,0.013046,-0.002700,-0.053403,0.39,-4.08,6.52
915685145,0.019437,0.007953,-0.051273,-0.14,2.95,10.16
915686166,0.003458,0.012214,-0.048077,-0.67,-1.77,12.60
915687169,0.004523,0.004757,-0.050207,1.40,-2.05,6.59
915688175,0.013046,-0.003765,-0.041685,-1.19,4.07,12.47
915689196,0.005589,0.013279,-0.037424,0.06,-4.05,9.55
915690198,0.000262,0.022867,-0.037424,1.18,0.12,7.47
915691222,-0.005064,0.004757,-0.038489,-0.98,2.62,13.67
915692219,0.007719,-0.020810,-0.050207,0.46,-5.09,7.11
915693228,0.022633,-0.027201,-0.061926,0.79,1.24,8.17
915694238,0.031156,-0.024005,-0.062991,-0.99,2.84,13.54
915695248,0.029025,-0.020810,-0.064056,0.40,-5.13,7.16
915696268,0.022633,-0.019744,-0.069382,1.03,0.38,7.64
915697271,0.009850,-0.004830,-0.067252,-1.16,4.48,13.41
915698296,0.002393,0.004757,-0.065121,-0.11,-4.54,9.10
915699298,0.003458,0.004757,-0.066187,1.59,-2.22,7.06
915700301,0.015176,0.004757,-0.068317,-1.00,6.20,13.15
915701309,0.018372,0.009018,-0.071513,-0.69,-1.61,12.71
915702321,0.011980,-0.000569,-0.074709,1.49,-5.52,6.18
915703329,0.010915,0.000496,-0.074709,0.43,2.68,8.40
915704340,0.006654,0.010083,-0.062991,-1.18,4.29,12.47
915705353,-0.003999,0.013279,-0.055534,-0.04,-4.90,9.00
915706376,0.004523,0.010083,-0.060860,1.59,-4.28,6.91
915707379,-0.000803,0.001561,-0.057664,-0.24,5.34,11.56
915708389,-0.015717,-0.009092,-0.053403,-1.50,3.13,13.67
915709404,-0.012521,-0.027201,-0.069382,0.33,-5.77,8.06
915710402,0.005589,-0.031462,-0.084296,1.48,-3.73,5.93
915711412,0.000262,-0.018679,-0.082166,-0.13,5.11,11.02
915712423,-0.003999,0.003692,-0.057664,-1.70,4.26,13.16
915713434,0.018372,0.000496,-0.055534,-0.14,-5.28,8.98
915714444,0.003458,-0.010157,-0.075774,1.58,-5.55,6.36
915715452,-0.027435,-0.001635,-0.085362,0.67,3.38,9.55
915716470,-0.034892,0.012214,-0.077905,-1.51,6.31,13.60
915717472,-0.016782,0.005822,-0.067252,-1.09,-1.72,12.49
915718478,0.000262,-0.009092,-0.052338,1.13,-7.83,7.08
915719498,0.009850,-0.005896,-0.048077,1.36,-0.77,5.88
915720499,0.008785,0.007953,-0.038489,-0.16,5.72,10.87
915721508,0.005589,0.006888,-0.024641,-1.86,4.55,13.86
915722516,0.013046,0.010083,-0.016118,-0.33,-4.84,10.25
915723525,0.022633,0.015410,-0.019314,1.25,-6.90,6.55
915724535,0.020503,0.012214,-0.023575,1.25,0.70,6.17
915725545,0.018372,0.000496,-0.032098,-0.08,4.84,11.24
915726566,0.019437,0.006888,-0.024641,-1.83,4.60,14.74
915727569,0.010915,0.000496,-0.025706,-0.29,-3.24,11.47
915728575,-0.001868,-0.010157,-0.038489,1.14,-7.32,6.83
915729585,-0.003999,-0.012287,-0.043816,1.12,-1.69,5.35
915730595,-0.006129,-0.009092,-0.039555,0.89,3.44,8.90
915731605,0.001328,-0.015483,-0.039555,-1.02,5.57,14.15
915732616,0.007719,-0.019744,-0.039555,-1.58,1.72,14.05
915733625,0.004523,-0.014418,-0.031032,0.28,-6.09,9.13
915734635,-0.007195,0.000496,-0.020380,1.02,-6.05,5.43
915735645,0.004523,0.007953,-0.017184,1.00,0.04,5.41
915736666,0.017307,0.007953,-0.015053,1.01,3.61,9.63
915737669,0.006654,0.002627,-0.011857,-0.74,4.96,15.20
915738675,-0.009325,0.001561,-0.006531,-1.62,2.22,14.86
915739685,-0.019978,-0.005896,-0.005466,-0.06,-4.50,9.65
915740695,-0.025304,-0.009092,-0.005466,0.67,-6.44,5.80
915741705,-0.016782,-0.005896,-0.005466,0.68,-2.03,4.83
915742716,0.001328,-0.001635,-0.009727,1.21,2.07,7.32
915743725,0.001328,-0.005896,-0.011857,0.63,4.17,12.71
915744735,-0.011456,-0.013353,-0.006531,-1.15,4.48,16.26
915745756,-0.005064,-0.006961,-0.000139,-1.55,1.05,12.89
915746758,0.011980,-0.002700,0.008383,-0.18,-4.86,8.16
915747766,0.015176,-0.012287,0.003057,0.47,-5.84,5.96
915748775,-0.003999,-0.009092,-0.004400,0.58,-1.96,5.74
915749785,-0.014652,0.001561,0.004122,1.41,1.05,7.07
915750795,-0.000803,0.007953,0.023297,1.23,2.98,11.60
915751805,0.018372,0.012214,0.040341,-0.59,4.58,15.93
915752816,0.022633,0.015410,0.048864,-1.73,3.47,14.70
915753825,0.001328,0.016475,0.048864,-0.96,-1.58,9.88
915754835,-0.010390,0.018606,0.042472,-0.05,-5.76,6.59
915755856,-0.007195,0.017540,0.026493,0.01,-4.56,6.02
915756858,-0.003999,-0.003765,0.008383,0.57,-1.05,5.98
915757866,0.007719,-0.021875,0.010514,1.61,0.93,7.38
915758875,0.006654,-0.006961,0.029689,1.42,2.52,11.73
915759885,-0.014652,0.017540,0.041407,-0.10,4.38,16.17
915760895,-0.012521,-0.000569,0.032884,-1.44,3.86,15.51
915761905,0.004523,0.001561,0.036080,-1.48,0.50,10.65
915762916,-0.009325,0.005822,0.039276,-0.59,-3.86,7.66
915763925,0.009850,-0.006961,0.036080,-0.10,-5.37,6.49
915764935,-0.011456,0.020736,0.049929,0.30,-3.26,5.95
915765956,-0.037022,0.030324,0.056321,1.09,-0.30,6.35
915766958,0.007719,-0.020810,0.032884,1.84,1.01,7.80
915767966,0.048200,-0.030397,0.023297,1.77,1.89,11.71
915768975,0.010915,0.030324,0.050994,0.20,3.85,15.81
915769985,-0.064720,0.074000,0.088279,-1.25,3.86,15.48
915770995,-0.096678,0.052695,0.094671,-1.66,0.95,11.06
915772005,0.005589,-0.041050,0.039276,-0.58,-4.54,7.46
915773016,0.031156,-0.077270,0.017971,0.21,-4.27,7.13
915774025,0.048200,-0.083661,0.012644,0.92,-2.07,6.49
915775035,0.058853,-0.065551,0.021166,1.74,-0.04,7.06
915776056,0.036482,-0.051703,0.033950,2.33,0.71,8.55
915777058,0.001328,-0.036789,0.050994,1.76,1.86,12.02
915778066,-0.021043,-0.002700,0.074430,-0.09,3.55,15.21
915779075,-0.040218,0.037781,0.101062,-1.45,3.30,14.67
915780085,-0.046610,0.054825,0.113846,-1.93,1.24,10.96
915781095,-0.007195,0.033520,0.095736,-1.81,-1.30,8.02
915782105,0.026894,-0.017614,0.066973,-0.88,-3.57,8.15
915783116,0.007719,-0.045311,0.066973,0.12,-4.22,8.16
915784125,-0.017847,-0.008026,0.094671,0.86,-2.94,7.28
915785135,-0.001868,0.019671,0.102128,1.38,-0.90,7.21
915786156,0.005589,-0.008026,0.089344,2.05,-0.16,7.34
915787158,-0.010390,-0.010157,0.096801,2.25,0.30,8.88
915788166,0.005589,0.000496,0.099997,1.28,2.10,12.29
915789175,0.002393,-0.014418,0.097867,-0.22,3.06,14.55
915790185,-0.016782,-0.009092,0.107454,-1.59,2.73,13.93
915791195,-0.002933,-0.002700,0.110650,-2.46,1.98,11.16
915792205,0.000262,0.000496,0.118107,-1.91,-0.19,9.28
915793216,-0.015717,-0.011222,0.119172,-1.06,-2.83,8.56
915794225,-0.003999,-0.009092,0.115976,-0.52,-3.46,8.24
915795235,0.004523,0.003692,0.112781,0.51,-2.89,8.49
915796256,-0.018913,0.012214,0.126629,1.05,-2.09,7.55
915797258,-0.010390,0.006888,0.125564,1.35,-1.33,7.08
915798266,0.000262,0.011149,0.123433,2.05,-0.11,7.75
915799275,-0.009325,-0.009092,0.127694,2.41,0.57,8.60
915800308,-0.007195,-0.021875,0.123433,1.25,1.23,11.52
915801301,0.009850,-0.002700,0.120237,-0.62,3.05,14.13
915802309,-0.005064,0.004757,0.128760,-1.17,2.61,14.18
915803321,-0.014652,-0.001635,0.134086,-1.60,1.24,12.08
915804329,0.009850,0.002627,0.124499,-2.33,0.93,9.60
915805341,-0.000803,-0.006961,0.114911,-1.59,-1.13,9.19
915806360,-0.023174,-0.013353,0.119172,-0.72,-3.04,8.53
915807376,-0.000803,0.010083,0.134086,-0.39,-3.00,8.52
915808379,0.007719,0.012214,0.137282,0.71,-2.99,8.57
915809384,-0.001868,-0.017614,0.124499,1.25,-2.33,7.20
915810398,0.018372,-0.018679,0.107454,1.11,-0.93,7.50
915811406,0.016242,-0.012287,0.102128,1.81,-0.78,7.85
915812422,-0.019978,-0.018679,0.109585,2.22,-0.29,8.36
915813421,-0.008260,-0.000569,0.124499,1.33,0.91,10.57
915814427,0.013046,0.020736,0.136217,0.05,2.22,12.86
915815442,-0.010390,0.011149,0.144739,-0.60,2.05,13.74
915816460,0.002393,0.001561,0.141543,-1.53,1.80,13.06
915817462,0.032221,0.002627,0.136217,-2.39,2.04,11.42
915818469,0.016242,-0.017614,0.129825,-1.82,0.00,10.10
915819475,0.007719,-0.028267,0.123433,-1.42,-1.55,8.71
915820490,0.029025,-0.005896,0.124499,-1.31,-1.79,8.48
915821520,0.015176,-0.009092,0.126629,-0.12,-3.08,8.79
915822515,0.001328,-0.027201,0.125564,0.62,-3.29,8.01
915823536,0.029025,-0.019744,0.123433,0.60,-1.62,8.51
915824535,0.025829,-0.017614,0.119172,1.33,-1.40,8.38
915825549,-0.002933,-0.027201,0.117042,1.77,-1.13,7.18
915826562,0.009850,-0.006961,0.120237,1.60,-0.01,7.89
915827561,0.015176,0.009018,0.128760,1.54,0.53,9.65
915828570,-0.011456,-0.005896,0.137282,1.11,0.86,11.26
915829580,0.001328,-0.003765,0.138347,-0.25,1.94,13.41
915830591,0.023699,0.013279,0.139413,-1.60,3.07,13.86
915831602,-0.007195,0.006888,0.141543,-1.50,1.65,12.82
915832628,-0.010390,0.009018,0.138347,-1.72,0.76,10.56
915833635,0.018372,0.026063,0.134086,-2.33,0.80,8.91
915834631,-0.008260,0.014345,0.131956,-1.33,-1.47,9.08
915835667,-0.024239,0.000496,0.127694,-0.55,-2.96,8.83
915836661,0.016242,0.009018,0.117042,-0.27,-2.21,9.17
915837669,0.013046,-0.003765,0.105324,0.80,-2.45,9.15
915838666,-0.019978,-0.022940,0.096801,1.17,-2.51,7.58
915839675,-0.001868,-0.006961,0.095736,1.10,-0.99,7.54
915840685,0.013046,0.000496,0.102128,1.79,-0.80,7.96
915841695,-0.008260,-0.016549,0.107454,2.14,-0.83,7.72
915842705,0.004523,-0.009092,0.110650,1.62,0.33,9.43
915843734,0.016242,0.006888,0.117042,0.90,1.38,11.40
915844725,-0.010390,-0.003765,0.121303,0.37,1.34,12.71
915845746,-0.001868,0.001561,0.118107,-0.82,1.70,13.46
915846748,0.021568,0.017540,0.114911,-1.96,2.72,12.99
915847771,-0.013586,0.001561,0.112781,-1.54,0.99,11.28
915848777,-0.024239,-0.008026,0.106389,-1.72,-0.07,9.51
915849791,0.010915,-0.000569,0.099997,-1.96,-0.06,8.41
915850785,0.003458,-0.020810,0.097867,-0.97,-2.17,8.67
915851801,0.000262,-0.025071,0.102128,-0.29,-3.21,8.77
915852805,0.025829,0.005822,0.115976,0.21,-2.07,9.54
915853816,0.002393,0.014345,0.131956,1.04,-2.35,9.21
915854825,-0.022109,0.002627,0.133021,1.07,-2.26,7.26
915855846,0.011980,0.005822,0.113846,1.05,-0.50,7.60
915856848,0.014111,-0.015483,0.098932,1.93,-0.81,7.80
915857855,-0.008260,-0.043181,0.096801,1.86,-0.79,8.19
915858884,0.015176,-0.018679,0.107454,1.17,0.74,9.91
915859875,0.022633,0.005822,0.125564,0.65,1.60,11.83
915860885,-0.015717,0.002627,0.136217,-0.10,1.19,12.80
915861895,-0.008260,0.004757,0.122368,-1.26,1.91,13.51
915862905,0.016242,0.000496,0.105324,-1.94,2.56,12.85
915863916,-0.001868,-0.031462,0.101062,-1.67,0.72,11.40
915864925,-0.000803,-0.034658,0.108519,-1.76,-0.03,9.52
915865946,0.027960,0.000496,0.122368,-1.81,-0.20,8.28
915866948,-0.001868,0.006888,0.131956,-0.86,-2.23,8.73
915867955,-0.023174,-0.000569,0.128760,-0.18,-3.18,8.55
915868966,0.006654,0.004757,0.113846,0.16,-1.91,9.41
915869975,0.008785,-0.010157,0.105324,1.13,-2.08,9.39
915870985,-0.005064,-0.027201,0.108519,1.25,-2.01,7.40
915871995,0.010915,0.020736,0.123433,1.88,-0.67,7.96
915873005,-0.027435,0.003692,0.120237,2.11,-0.73,8.32
915874016,-0.008260,-0.000569,0.106389,1.25,0.68,10.17
915875025,0.013046,-0.003765,0.098932,0.47,1.85,11.95
915876046,-0.011456,-0.021875,0.101062,0.01,1.33,12.78
915877048,-0.003999,-0.005896,0.108519,-1.15,1.62,13.23
915878055,0.020503,0.019671,0.114911,-2.05,2.65,12.48
915879066,-0.013586,0.002627,0.109585,-1.55,0.71,11.16
915880075,-0.024239,-0.009092,0.095736,-1.56,-0.39,9.56
915881085,0.017307,0.004757,0.090410,-1.81,-0.19,8.46
915882095,0.005589,-0.001635,0.099997,-0.83,-2.10,8.92
915883105,-0.013586,-0.005896,0.108519,-0.21,-3.17,8.81
915884116,0.016242,0.012214,0.107454,0.16,-2.09,9.37
915885125,0.009850,-0.002700,0.095736,0.99,-2.15,9.29
915886146,-0.017847,-0.028267,0.086149,1.09,-2.07,7.43
915887148,0.007719,-0.009092,0.093605,1.09,-0.71,7.23
915888155,0.008785,0.013279,0.110650,1.88,-0.69,8.18
915889166,-0.023174,0.003692,0.119172,2.03,-0.83,8.12
915890175,-0.002933,0.004757,0.106389,1.18,0.45,10.01
915891185,0.018372,-0.001635,0.092540,0.50,1.64,11.68
915892195,-0.007195,-0.030397,0.087214,-0.03,1.28,12.71
915893205,-0.003999,-0.016549,0.098932,-1.05,1.62,13.32
915894216,0.014111,0.016475,0.112781,-1.90,2.44,12.77
915895225,-0.014652,0.009018,0.117042,-1.65,0.71,11.45
915896246,-0.010390,-0.002700,0.103193,-1.74,-0.16,9.40
915897248,0.022633,-0.002700,0.087214,-1.94,0.11,8.74
915898255,0.001328,-0.024005,0.087214,-0.96,-2.15,8.52
915899266,-0.012521,-0.021875,0.096801,-0.40,-3.18,8.71
915900275,0.017307,0.015410,0.103193,0.10,-1.84,9.47
915901289,0.004523,0.011149,0.099997,0.98,-2.30,9.08
915902302,-0.021043,-0.010157,0.093605,0.94,-2.17,7.53
915903308,0.005589,-0.003765,0.091475,1.02,-0.63,7.42
915904332,0.007719,-0.000569,0.099997,1.85,-0.88,8.16
915905331,-0.013586,-0.013353,0.103193,1.90,-0.90,8.10
915906351,0.008785,-0.000569,0.093605,1.27,0.64,9.81
915907355,0.024764,0.001561,0.079757,0.68,1.55,11.46
915908364,-0.006129,-0.019744,0.075496,-0.02,1.21,12.61
915909381,-0.005064,-0.013353,0.084018,-1.01,1.79,13.29
915910385,0.010915,0.011149,0.097867,-1.87,2.57,12.79
915911395,-0.017847,0.002627,0.101062,-1.64,0.91,11.60
915912400,-0.016782,-0.004830,0.089344,-1.66,-0.09,9.51
915913409,0.019437,0.002627,0.073365,-1.96,0.04,8.89
915914421,0.010915,-0.015483,0.069104,-0.98,-1.93,8.82
915915427,-0.012521,-0.022940,0.079757,-0.32,-3.18,8.74
915916453,0.006654,0.011149,0.094671,0.00,-1.94,9.42
915917452,-0.001868,0.019671,0.103193,1.01,-2.11,9.14
915918459,-0.022109,-0.002700,0.093605,1.07,-2.16,7.43
915919469,0.006654,-0.002700,0.074430,1.05,-0.84,7.32
915920475,0.024764,-0.006961,0.066973,1.85,-0.69,7.84
915921490,-0.005064,-0.020810,0.071235,1.97,-0.63,8.21
915922499,0.001328,-0.002700,0.082953,1.37,0.24,9.71
915923507,0.010915,0.023932,0.092540,0.63,1.65,11.95
915924516,-0.017847,0.009018,0.091475,0.08,1.35,12.76
915925525,-0.012521,-0.002700,0.075496,-0.99,1.47,13.31
915926546,0.018372,-0.002700,0.060582,-1.90,2.50,12.67
915927548,0.008785,-0.022940,0.062712,-1.61,0.85,11.23
915928555,0.001328,-0.018679,0.075496,-1.63,-0.09,9.54
915929566,0.019437,0.013279,0.089344,-1.79,-0.19,8.44
915930575,-0.007195,0.017540,0.094671,-0.94,-2.08,8.94
915931585,-0.024239,0.001561,0.085083,-0.23,-3.20,8.85
915932595,0.008785,-0.004830,0.068039,0.14,-2.05,9.61
915933605,0.010915,-0.024005,0.059516,1.11,-2.15,9.13
915934616,-0.007195,-0.036789,0.064843,1.15,-2.13,7.23
915935625,0.015176,-0.001635,0.078692,1.00,-0.69,7.45
915936646,0.015176,0.015410,0.091475,2.01,-0.94,7.92
915937648,-0.018913,0.002627,0.091475,1.98,-0.64,8.29
915938655,-0.001868,0.000496,0.076561,1.20,0.70,9.91
915939666,0.006654,-0.008026,0.062712,0.69,1.55,11.76
915940675,-0.011456,-0.033593,0.061647,-0.02,1.20,12.69
915941685,0.008785,-0.016549,0.073365,-1.20,1.75,13.36
915942695,0.032221,0.015410,0.088279,-1.97,2.73,13.14
915943705,-0.007195,0.007953,0.093605,-1.68,0.71,11.26
915944740,-0.018913,0.001561,0.080822,-1.83,-0.02,9.34
915945748,-0.001868,0.001561,0.064843,-1.82,0.07,8.25
915946738,-0.015717,-0.025071,0.060582,-0.84,-2.37,8.63
915947745,-0.003999,-0.026136,0.066973,-0.26,-3.20,8.69
915948755,0.034351,0.010083,0.078692,0.24,-1.75,9.56
915949766,0.011980,0.017540,0.088279,1.13,-2.12,9.41
915950775,-0.028500,0.000496,0.084018,1.11,-2.05,7.37
915951785,-0.005064,0.004757,0.069104,1.06,-0.59,7.45
915952795,0.001328,0.000496,0.061647,1.94,-0.76,8.17
915953805,-0.015717,-0.021875,0.066973,1.94,-0.57,8.30
915954816,0.008785,-0.001635,0.076561,1.08,0.73,9.98
915955836,0.025829,0.015410,0.079757,0.39,1.79,11.88
915956838,-0.010390,-0.001635,0.075496,-0.08,1.35,12.78
915957845,-0.008260,-0.001635,0.066973,-1.16,1.71,13.21
915958855,0.008785,0.010083,0.061647,-2.05,2.68,12.73
915959866,-0.017847,-0.004830,0.068039,-1.58,0.70,11.25
915960875,-0.017847,-0.003765,0.075496,-1.70,-0.30,9.46
915961885,0.024764,0.015410,0.077626,-1.85,-0.15,8.35
915962895,0.009850,-0.003765,0.069104,-0.68,-2.32,8.62
915963905,-0.012521,-0.016549,0.058451,-0.15,-3.15,8.90
915964916,0.011980,0.004757,0.058451,0.36,-2.02,9.47
915965936,-0.005064,0.009018,0.073365,1.28,-2.30,9.07
915966938,-0.024239,0.002627,0.082953,1.08,-1.99,7.28
915967945,0.008785,0.014345,0.077626,1.19,-0.66,7.50
915968955,0.009850,-0.000569,0.064843,2.09,-0.87,8.31
915969966,-0.017847,-0.026136,0.054190,1.95,-0.73,8.38
915970975,0.009850,-0.009092,0.059516,1.16,0.71,9.97
915971985,0.019437,0.009018,0.077626,0.63,1.62,11.65
915972995,-0.007195,0.006888,0.086149,-1.27,1.84,13.31
915974005,0.013046,0.001561,0.069104,-1.85,2.65,12.94
915975016,-0.008260,-0.037854,0.054190,-1.57,0.58,11.30
915976036,0.005589,-0.031462,0.054190,-1.83,0.05,9.34
915977038,0.035417,0.005822,0.071235,-1.70,0.00,8.32
915978045,-0.007195,0.011149,0.089344,-0.73,-2.58,8.49
915979055,-0.021043,0.011149,0.088279,-0.38,-3.07,8.87
915980066,0.006654,0.012214,0.069104,0.41,-1.75,9.83
915981075,-0.007195,-0.020810,0.055255,1.27,-2.36,9.23
915982085,-0.010390,-0.034658,0.057386,0.84,-1.96,7.23
915983095,0.031156,-0.001635,0.071235,1.12,-0.35,7.45
915984105,0.018372,0.011149,0.085083,2.14,-0.84,8.23
915985116,-0.024239,0.007953,0.087214,1.82,-0.75,8.32
915986136,-0.007195,0.014345,0.074430,1.07,0.91,10.10
915987138,0.001328,-0.002700,0.059516,0.61,1.73,12.18
915988145,-0.010390,-0.039985,0.053125,-0.18,1.21,12.75
915989155,0.014111,-0.024005,0.061647,-1.36,1.94,13.22
915990166,0.032221,0.013279,0.075496,-2.05,2.76,12.78
915991175,-0.015717,0.015410,0.087214,-1.67,0.61,11.16
915992185,-0.028500,0.013279,0.081887,-1.77,-0.26,9.28
915993195,0.005589,0.013279,0.064843,-1.84,-0.16,8.36
915994205,-0.001868,-0.017614,0.052060,-0.70,-2.33,8.73
915995216,-0.011456,-0.029332,0.053125,-0.13,-3.19,8.79
915996236,0.019437,0.002627,0.066973,0.26,-1.99,9.52
915997238,0.003458,0.014345,0.081887,1.25,-2.13,9.29
915998252,-0.028500,0.005822,0.080822,1.17,-1.91,7.33
915999255,-0.001868,0.013279,0.063778,1.14,-0.71,7.42
916000266,0.008785,0.001561,0.052060,2.04,-0.71,8.16
916001275,-0.010390,-0.026136,0.052060,2.05,-0.52,8.23
916002289,0.014111,-0.006961,0.064843,1.08,0.61,10.24
916003302,0.023699,0.019671,0.074430,0.30,1.84,12.08
916004308,-0.017847,0.006888,0.076561,-0.22,1.39,12.74
916005322,-0.013586,0.006888,0.063778,-1.31,1.66,13.19
916006342,0.004523,0.013279,0.053125,-2.00,2.49,12.58
916007345,-0.017847,-0.011222,0.053125,-1.61,0.49,11.11
916008355,-0.005064,-0.016549,0.059516,-1.75,-0.39,9.06
916009369,0.034351,0.006888,0.068039,-1.62,-0.40,8.29
916010378,0.004523,0.004757,0.070169,-0.55,-2.59,8.60
916011385,-0.017847,-0.001635,0.062712,-0.13,-3.33,8.68
916012395,0.003458,0.006888,0.048864,0.48,-2.02,9.66
916013400,-0.009325,-0.010157,0.042472,1.41,-2.45,9.05
916014410,-0.014652,-0.024005,0.045668,1.04,-2.09,7.11
916015421,0.025829,0.000496,0.054190,1.21,-0.61,7.37
916016443,0.020503,0.002627,0.057386,2.24,-1.07,8.21
916017444,-0.014652,-0.013353,0.050994,1.82,-0.69,8.63
916018449,0.003458,-0.004830,0.038211,0.89,0.98,10.47
916019459,0.003458,-0.004830,0.035015,0.34,1.82,12.09
916020469,-0.018913,-0.018679,0.044603,-0.48,1.25,12.73
916021475,0.006654,-0.002700,0.053125,-1.54,2.01,13.16
916022490,0.023699,0.007953,0.054190,-2.05,2.56,12.60
916023499,-0.001868,-0.017614,0.044603,-1.90,0.46,11.12
916024508,0.002393,-0.025071,0.033950,-2.02,0.02,9.02
916025516,0.024764,-0.006961,0.036080,-1.73,-0.29,8.26
916026536,-0.012521,-0.000569,0.055255,-0.76,-2.63,8.69
916027538,-0.027435,0.005822,0.063778,-0.23,-3.06,8.82
916028545,0.005589,0.015410,0.053125,0.41,-1.91,9.81
916029555,0.010915,-0.011222,0.035015,1.16,-2.21,9.59
916030566,0.005589,-0.037854,0.027558,0.99,-1.77,7.35
916031575,0.027960,-0.010157,0.037146,1.16,-0.54,7.35
916032600,0.015176,0.018606,0.057386,2.02,-0.73,8.26
916033611,-0.029565,0.018606,0.065908,1.88,-0.42,8.30
916034605,-0.015717,0.017540,0.054190,1.01,0.80,10.17
916035616,0.009850,0.004757,0.036080,0.32,1.86,12.30
916036648,0.000262,-0.024005,0.026493,-0.19,1.59,12.85
916037638,0.007719,-0.014418,0.035015,-1.30,1.81,13.11
916038645,0.021568,0.019671,0.052060,-2.11,2.69,12.43
916039655,-0.015717,0.021802,0.058451,-1.61,0.78,11.04
916040666,-0.027435,0.014345,0.047798,-1.62,-0.38,9.13
916041675,0.001328,0.013279,0.030754,-1.61,-0.40,8.17
916042685,-0.009325,-0.013353,0.020101,-0.51,-2.50,8.77
916043695,-0.012521,-0.027201,0.021166,0.05,-3.43,8.85
916044705,0.020503,0.001561,0.029689,0.54,-2.13,9.64
916045727,0.004523,0.015410,0.040341,1.51,-2.25,9.15
916046728,-0.024239,0.010084,0.042472,1.22,-1.85,7.10
916047735,-0.001868,0.020736,0.031819,1.23,-0.59,7.24
916048745,0.000262,0.006888,0.020101,2.36,-0.96,8.04
916049766,-0.009325,-0.024005,0.007318,2.03,-0.51,8.70
916050775,0.022633,-0.016549,0.006252,0.92,0.92,10.59
916051787,0.018372,-0.004830,0.019036,0.36,1.71,12.29
916052799,-0.027435,-0.006961,0.035015,-0.47,1.28,12.89
916053810,-0.011456,0.012214,0.041407,-1.60,1.95,12.97
916054813,0.013046,0.021802,0.039276,-2.03,2.47,12.40
916055831,-0.005064,-0.009092,0.028623,-1.79,0.29,10.83
916056830,0.002393,-0.024005,0.015840,-1.86,-0.47,8.69
916057840,0.020503,-0.015483,0.010514,-1.48,-0.68,8.05
916058853,-0.012521,-0.024005,0.019036,-0.41,-2.99,8.48
916059874,-0.017847,-0.019744,0.030754,-0.04,-3.38,8.63
916060879,0.019437,0.014345,0.042472,0.56,-1.93,9.70
916061883,0.008785,0.016475,0.047798,1.45,-2.12,9.47
916062903,-0.018913,-0.001635,0.042472,1.14,-1.53,7.23
916063912,0.001328,-0.001635,0.031819,1.22,-0.34,7.26
916064924,0.007719,-0.013353,0.020101,2.00,-0.57,8.50
916065927,-0.005064,-0.039985,0.016905,1.73,-0.08,8.96
916066928,0.016242,-0.021875,0.026493,0.52,1.23,11.06
916067935,0.024764,0.012214,0.041407,-0.51,2.39,13.04
916068945,-0.018913,0.010084,0.054190,-0.82,1.93,13.26
916069955,-0.019978,0.013279,0.056321,-1.69,1.81,12.45
916070966,0.011980,0.024997,0.050994,-2.43,2.31,11.13
916071975,-0.009325,0.006888,0.037146,-1.72,0.23,10.41
916072985,0.010915,0.002627,0.014775,-1.30,-1.36,8.48
916073995,0.009850,-0.004830,0.016905,0.00,-2.69,9.07
916075005,-0.005064,-0.019744,0.021166,0.57,-3.37,8.41
916076027,0.017307,0.002627,0.027558,0.68,-1.86,8.90
916077046,0.005589,0.017540,0.033950,1.66,-1.56,8.86
916078035,-0.026370,0.012214,0.035015,1.70,-1.28,7.01
916079045,-0.002933,0.028193,0.030754,1.38,-0.33,7.21
916080055,0.008785,0.032454,0.024362,1.94,-0.17,8.65
916081066,-0.025304,0.005822,0.020101,1.74,0.16,10.16
916082075,-0.012521,-0.000569,0.012644,0.25,1.28,12.30
916083085,0.015176,0.000496,0.005187,-0.87,2.56,13.53
916084095,-0.001868,-0.022940,0.001991,-1.02,1.57,13.12
916085105,0.002393,-0.017614,0.008383,-1.70,1.34,11.58
916086147,0.019437,0.013279,0.022232,-2.26,1.60,10.13
916087146,-0.018913,0.013279,0.032884,-1.64,-0.77,9.71
916088150,-0.027435,0.006888,0.027558,-1.31,-1.93,8.84
916089145,0.008785,0.011149,0.010514,-0.85,-1.67,8.71
916090155,0.000262,-0.013353,-0.004400,0.33,-3.05,8.77
916091166,-0.008260,-0.032528,-0.010792,0.63,-3.34,8.05
916092175,0.029025,-0.015483,-0.005466,0.82,-1.53,8.88
916093185,0.018372,-0.010157,0.007318,1.67,-1.58,8.82
916094195,-0.006129,-0.014418,0.023297,1.63,-1.30,7.28
916095205,0.017307,0.006888,0.029689,1.51,0.18,7.60
916096250,0.010915,0.014345,0.031819,1.74,0.29,9.26
916097228,-0.027435,-0.001635,0.028623,1.03,0.35,10.89
916098235,-0.011456,0.003692,0.020101,-0.36,1.84,13.12
916099245,0.010915,0.007953,0.009448,-1.40,2.92,14.01
916100255,-0.003999,-0.014418,0.000926,-1.53,1.54,12.83
916101266,0.005589,-0.016549,-0.001205,-1.89,1.23,10.78
916102275,0.030090,-0.004830,0.004122,-2.31,1.18,9.37
916103289,0.002393,-0.017614,0.013709,-1.55,-1.27,9.32
916104302,-0.006129,-0.021875,0.022232,-0.90,-2.42,8.91
916105309,0.022633,0.006888,0.026493,-0.40,-1.98,9.20
916106334,0.001328,0.017540,0.029689,0.66,-2.62,9.30
916107343,-0.030631,0.012214,0.027558,0.91,-2.57,7.68
916108340,-0.001868,0.021802,0.016905,0.94,-1.10,7.88
916109353,0.011980,0.011149,0.005187,1.75,-1.05,8.40
916110365,-0.008260,-0.018679,-0.007596,1.93,-0.86,7.46
916111381,0.008785,-0.014418,-0.013988,1.52,0.28,8.49
916112386,0.022633,-0.000569,-0.011857,1.20,0.98,10.58
916113392,-0.003999,-0.009092,-0.002270,0.67,1.02,12.12
916114400,-0.000803,0.000496,0.007318,-0.67,1.79,13.36
916115409,0.011980,0.022867,0.012644,-1.82,2.87,13.47
916116435,-0.023174,0.015410,0.012644,-1.55,1.31,12.18
916117434,-0.028500,0.007953,0.001991,-1.72,0.33,9.88
916118442,0.009850,0.017540,-0.010792,-2.11,0.32,8.61
916119449,0.000262,0.001561,-0.019314,-1.14,-1.74,9.09
916120459,-0.015717,-0.012287,-0.022510,-0.48,-3.11,8.91
916121469,0.011980,0.000496,-0.020380,-0.09,-2.19,9.27
916122475,0.005589,-0.000569,-0.012923,1.00,-2.32,9.28
916123490,-0.015717,-0.014418,-0.005466,1.15,-2.52,7.47
916124499,0.008785,0.002627,-0.000139,1.04,-0.94,7.42
916125508,0.004523,0.016475,0.006252,1.89,-0.86,8.00
916126526,-0.033827,0.004757,0.007318,2.04,-0.90,7.99
916127528,-0.012521,0.006888,-0.003335,1.30,0.50,9.43
916128535,0.014111,0.006888,-0.012923,0.70,1.51,11.40
916129545,-0.011456,-0.021875,-0.018249,0.14,1.12,12.65
916130555,-0.007195,-0.025071,-0.016118,-1.07,1.71,13.29
916131566,0.017307,-0.005896,-0.005466,-1.96,2.73,12.81
916132575,-0.005064,-0.006961,0.008383,-1.67,0.82,11.54
916133585,-0.009325,-0.000569,0.016905,-1.76,-0.23,9.39
916134595,0.017307,0.021802,0.019036,-1.82,-0.17,8.41
916135605,-0.010390,0.013279,0.014775,-0.78,-2.20,9.09
916136627,-0.029565,-0.004830,0.004122,-0.16,-3.29,8.85
916137628,0.006654,-0.003765,-0.008661,0.25,-2.05,9.20
916138635,0.014111,-0.018679,-0.016118,1.19,-2.09,9.05
916139645,-0.001868,-0.035724,-0.015053,1.20,-2.05,7.20
916140655,0.020503,-0.006961,-0.004400,1.14,-0.57,7.26
916141666,0.016242,0.015410,0.011579,1.98,-0.57,8.25
916142675,-0.017847,0.009018,0.022232,1.93,-0.50,8.68
916143685,-0.000803,0.013279,0.015840,1.02,0.88,10.49
916144695,0.020503,0.014345,-0.000139,0.25,1.99,12.33
916145716,-0.010390,-0.013353,-0.015053,-0.37,1.44,12.98
916146719,-0.008260,-0.019744,-0.024641,-1.39,1.73,13.02
916147725,0.018372,-0.002700,-0.020380,-2.06,2.47,12.12
916148735,0.000262,-0.008026,-0.007596,-1.73,0.48,10.89
916149745,-0.000803,-0.004830,-0.000139,-1.67,-0.55,9.12
916150755,0.024764,0.017540,0.000926,-1.49,-0.64,8.47
916151766,-0.001868,0.016475,-0.001205,-0.54,-2.52,8.92
916152775,-0.023174,0.005822,-0.009727,0.03,-3.26,8.70
916153785,0.006654,0.010083,-0.022510,0.56,-1.90,9.33
916154795,0.011980,-0.004830,-0.027837,1.37,-1.90,8.91
916155816,-0.005064,-0.018679,-0.024641,1.17,-1.72,7.03
916156819,0.010915,-0.000569,-0.018249,1.33,-0.40,7.17
916157825,0.004523,0.010083,-0.007596,2.11,-0.39,8.38
916158835,-0.021043,0.001561,0.000926,1.71,-0.32,9.18
916159845,0.000262,0.010083,-0.003335,0.74,1.07,11.19
916160855,0.020503,0.013279,-0.012923,-0.06,2.21,12.84
916161866,-0.007195,-0.004830,-0.019314,-0.76,1.45,13.03
916162875,-0.009325,-0.008026,-0.023575,-1.57,1.68,12.55
916163885,0.006654,0.001561,-0.018249,-2.05,2.18,11.50
916164895,-0.012521,-0.003765,-0.007596,-1.79,0.07,10.43
916165916,-0.010390,0.000496,0.000926,-1.65,-0.92,9.07
916166919,0.020503,0.017540,0.000926,-1.28,-0.94,8.65
916167925,0.010915,0.005822,-0.006531,-0.23,-2.60,8.98
916168935,-0.009325,-0.012287,-0.013988,0.24,-3.16,8.57
916169945,0.008785,-0.001635,-0.017184,0.69,-1.85,8.95
916170955,0.002393,0.001561,-0.007596,1.48,-1.64,8.92
916171966,-0.015717,-0.005896,0.001991,1.33,-1.59,7.17
916172975,0.008785,0.007953,0.004122,1.46,-0.45,7.16
916173985,-0.011456,-0.003765,-0.005466,1.66,-0.15,9.38
916174995,-0.010390,-0.004830,-0.013988,0.63,1.04,11.56
916176016,0.004523,0.000496,-0.018249,-0.33,2.37,13.29
916177019,-0.014652,-0.012287,-0.009727,-0.80,1.65,13.28
916178025,-0.009325,-0.005896,-0.000139,-1.51,1.50,12.32
916179035,0.017307,0.016475,0.005187,-2.13,2.11,10.85
916180045,-0.005064,0.009018,0.003057,-1.65,0.00,10.01
916181055,-0.022109,-0.003765,-0.007596,-1.48,-1.38,9.07
916182066,0.008785,0.004757,-0.017184,-1.29,-1.00,8.73
916183075,0.008785,-0.001635,-0.011857,-0.11,-2.34,9.10
916184085,-0.010390,-0.010157,0.000926,0.36,-3.25,8.52
916185095,0.013046,0.012214,0.007318,0.51,-1.74,8.80
916186116,0.007719,0.016475,0.003057,1.45,-1.39,8.80
916187119,-0.025304,-0.006961,-0.008661,1.51,-1.58,7.28
916188125,-0.010390,-0.004830,-0.019314,1.41,-0.44,7.29
916189135,0.003458,0.001561,-0.016118,1.99,0.04,8.47
916190145,-0.013586,-0.005896,-0.001205,1.67,-0.05,9.62
916191155,0.004523,0.010083,0.008383,0.51,0.98,11.70
916192166,0.023699,0.019671,0.007318,-0.43,2.41,13.13
916193175,-0.010390,-0.002700,-0.002270,-0.88,1.52,13.05
916194185,-0.014652,-0.011222,-0.015053,-1.62,1.44,12.26
916195195,0.010915,-0.002700,-0.017184,-2.05,1.98,10.99
916196216,-0.000803,-0.010157,-0.006531,-1.67,-0.18,10.16
916197219,-0.007195,-0.005896,0.004122,-1.57,-1.26,9.00
916198225,0.014111,0.015410,0.008383,-1.05,-1.22,8.66
916199235,-0.007195,0.009018,0.007318,0.04,-2.68,8.92
916200245,-0.024239,-0.008026,-0.002270,0.30,-3.13,8.37
916201255,0.004523,-0.003765,-0.013988,0.68,-1.73,8.83
916202266,0.005589,-0.009092,-0.011857,1.53,-1.59,8.76
916203289,-0.010390,-0.014418,-0.001205,1.38,-1.49,7.18
916204289,0.009850,0.006888,0.010514,1.52,-0.26,7.35
916205302,0.008785,0.016475,0.017971,2.03,0.01,8.79
916206321,-0.024239,0.000496,0.013709,1.44,0.01,9.95
916207322,-0.010390,-0.003765,0.000926,0.38,1.31,12.10
916208329,0.016242,-0.005896,-0.008661,-0.52,2.49,13.51
916209341,0.005589,-0.021875,-0.006531,-1.09,1.57,13.13
916210356,0.006654,-0.011222,0.001991,-1.67,1.42,11.84
916211370,0.015176,0.016475,0.012644,-2.15,1.79,10.58
916212376,-0.015717,0.012214,0.016905,-1.72,-0.31,9.84
916213386,-0.023174,0.002627,0.010514,-1.35,-1.54,8.92
916214392,0.011980,0.005822,-0.002270,-1.04,-1.37,8.92
916215400,0.013046,-0.009092,-0.010792,0.09,-2.63,9.28
916216420,-0.008260,-0.019744,-0.007596,0.53,-3.16,8.32
916217423,0.005589,0.004757,0.001991,0.72,-1.67,8.45
916218428,-0.001868,0.017540,0.010514,1.59,-1.28,8.54
916219454,-0.025304,0.005822,0.013709,1.58,-1.30,7.15
916220452,0.000262,0.010083,0.005187,1.51,-0.20,7.49
916221461,0.022633,0.011149,-0.005466,1.88,0.39,8.99
916222472,-0.005064,-0.006961,-0.011857,1.43,0.25,10.43
916223478,-0.008260,-0.006961,-0.017184,0.16,1.24,12.47
916224492,0.010915,0.004757,-0.015053,-0.95,2.71,13.68
916225501,-0.008260,-0.005896,-0.004400,-1.18,1.63,13.26
916226552,-0.013586,-0.008026,0.007318,-1.69,1.12,11.51
916227546,0.010915,0.014345,0.013709,-2.25,1.50,9.83
916228537,-0.010390,0.015410,0.010514,-1.57,-0.56,9.54
916229564,-0.026370,0.005822,-0.000139,-1.15,-2.08,8.93
916230545,0.006654,0.007953,-0.011857,-0.83,-1.81,8.90
916231555,0.011980,-0.009092,-0.017184,0.37,-2.55,9.24
916232565,-0.007195,-0.027201,-0.013988,0.73,-3.05,8.15
916233576,0.009850,-0.006961,-0.005466,0.79,-1.56,8.08
916234585,0.004523,0.013279,0.008383,1.61,-1.16,8.31
916235595,-0.017847,0.013279,0.016905,1.74,-1.29,7.41
916236616,0.002393,0.021802,0.011579,1.51,-0.10,7.98
916237618,0.014111,0.017540,0.000926,1.61,0.60,9.63
916238637,-0.017847,-0.010157,-0.007596,1.16,0.42,11.11
916239638,-0.009325,-0.017614,-0.017184,-0.22,1.50,13.04
916240648,0.014111,-0.011222,-0.019314,-1.35,2.78,13.62
916241658,0.003458,-0.024005,-0.011857,-1.43,1.39,12.64
916242687,0.007719,-0.013353,-0.000139,-1.79,0.93,10.76
916243687,0.023699,0.016475,0.013709,-2.12,1.09,9.45
916244711,-0.014652,0.018606,0.022232,-1.42,-1.23,9.41
916245717,-0.028500,0.010084,0.014775,-0.93,-2.44,8.94
916246723,0.004523,0.010083,-0.004400,-0.46,-1.87,9.23
916247724,0.007719,-0.016549,-0.019314,0.58,-2.59,9.25
916248738,-0.003999,-0.037854,-0.023575,0.82,-2.89,7.83
916249741,0.018372,-0.015483,-0.016118,0.89,-1.15,7.80
916250750,0.013046,0.004757,0.001991,1.71,-0.92,8.05
916251760,-0.015717,0.005822,0.014775,1.82,-1.09,7.47
916252790,0.001328,0.017540,0.012644,1.53,0.25,8.60
916253795,0.016242,0.016475,0.001991,1.34,0.98,10.35
916254793,-0.011456,-0.006961,-0.010792,0.64,0.79,11.83
916255825,-0.007195,-0.011222,-0.019314,-0.65,1.67,13.38
916256823,0.015176,-0.002700,-0.017184,-1.61,2.76,13.59
916257815,0.001328,-0.012287,-0.007596,-1.58,1.40,12.41
916258837,-0.003999,-0.009092,0.000926,-1.75,0.56,10.25
916259838,0.013046,0.013279,0.007318,-1.96,0.47,8.87
916260848,-0.010390,0.013279,0.011579,-1.29,-1.51,9.08
916261858,-0.026370,0.006888,0.007318,-0.61,-2.83,8.84
916262868,0.006654,0.017540,-0.004400,-0.09,-2.16,9.21
916263879,0.011980,0.007953,-0.010792,0.82,-2.29,9.42
916264888,-0.012521,-0.014418,-0.012923,1.01,-2.37,7.63
916265927,0.001328,-0.010157,-0.017184,1.03,-1.04,7.33
916266928,0.009850,-0.004830,-0.018249,1.83,-0.67,7.96
916267918,-0.003999,-0.020810,-0.011857,2.01,-0.76,7.80
916268957,0.005589,-0.004830,-0.003335,1.48,0.30,9.40
