time_us,gyro_x_rad_s,gyro_y_rad_s,gyro_z_rad_s,acc_x_m_s2,acc_y_m_s2,acc_z_m_s2
120734264,0.000970,-0.001447,0.000709,-0.01,-0.30,9.80
120734998,0.000969,-0.001445,0.001772,0.02,-0.29,9.80
120736003,0.000968,-0.000379,0.001770,0.03,-0.32,9.78
120737012,-0.001162,-0.001443,0.000704,0.02,-0.32,9.77
120738023,0.000968,-0.002506,-0.000361,0.02,-0.34,9.78
120739032,0.002031,-0.001439,-0.002489,0.02,-0.31,9.80
120740043,0.000965,-0.001438,-0.001422,0.01,-0.26,9.81
120741000,0.000964,-0.001436,-0.001420,0.01,-0.26,9.81
120742011,0.002027,0.000694,0.001774,0.01,-0.32,9.84
120743020,0.002025,0.000693,0.001772,0.04,-0.30,9.81
120744031,0.000959,0.000692,0.002834,0.03,-0.31,9.78
120745046,-0.002234,0.000692,0.002831,0.02,-0.34,9.74
120746051,-0.002232,0.001755,0.000700,0.04,-0.32,9.78
120747061,-0.001166,0.001753,-0.002493,0.03,-0.28,9.84
120748070,-0.000100,0.001752,-0.002491,0.00,-0.29,9.83
120749081,-0.001164,-0.000379,-0.000360,-0.02,-0.29,9.83
120750090,-0.001163,-0.001442,0.001769,-0.06,-0.30,9.86
120751101,-0.001162,-0.001441,0.004960,-0.03,-0.33,9.89
120752145,0.000967,0.000689,0.003891,0.03,-0.31,9.84
120753121,0.000966,0.000688,0.001758,0.04,-0.29,9.78
120754130,-0.000099,0.001752,-0.000372,0.04,-0.29,9.79
120755146,-0.002227,0.001750,-0.002500,0.04,-0.28,9.77
120756166,-0.004353,0.001748,-0.002497,0.04,-0.31,9.80
120757161,-0.004349,0.002811,-0.000367,0.03,-0.32,9.83
120758170,-0.003280,0.002808,0.001762,0.04,-0.33,9.83
120759181,-0.001148,0.001741,0.001760,0.05,-0.32,9.84
120760190,0.000981,-0.000389,0.000695,0.04,-0.30,9.84
120761201,0.000980,-0.001453,-0.000370,0.04,-0.33,9.80
120762210,0.000979,0.000677,-0.001434,0.04,-0.33,9.77
120763221,0.002042,0.002804,-0.002497,0.02,-0.33,9.81
120764230,0.000976,0.002802,-0.002494,0.03,-0.33,9.79
120765246,-0.000089,0.001735,-0.002492,0.04,-0.32,9.78
120766251,-0.002217,-0.001460,-0.002489,0.04,-0.34,9.77
120767261,-0.002215,-0.002523,-0.000358,0.01,-0.34,9.76
120768270,-0.002213,-0.001456,0.000706,0.02,-0.33,9.77
120769281,-0.002211,0.000674,0.002834,0.05,-0.32,9.75
120770290,-0.000080,0.003866,0.002831,0.03,-0.33,9.77
120771301,0.000984,0.001734,0.000700,0.00,-0.34,9.82
120772310,-0.000081,-0.001461,-0.000365,0.02,-0.33,9.83
120773321,-0.000081,-0.002523,0.000699,0.07,-0.33,9.80
120774330,-0.000081,-0.001457,0.000699,0.07,-0.31,9.77
120775346,-0.001145,0.000673,0.000698,0.02,-0.30,9.81
120776351,-0.002208,-0.000392,0.000697,0.00,-0.31,9.86
120777361,-0.001142,-0.003584,-0.000368,0.03,-0.31,9.88
120778370,0.000988,-0.003580,-0.000367,0.01,-0.31,9.85
120779381,0.002051,-0.001448,0.000697,-0.01,-0.31,9.86
120780390,0.000985,-0.000383,0.000697,0.03,-0.30,9.82
120781401,-0.000080,0.000682,0.001760,0.06,-0.29,9.81
120782410,-0.002209,-0.000383,0.001758,0.04,-0.29,9.84
120783421,-0.002206,-0.001447,0.001756,0.03,-0.29,9.84
120784430,-0.002204,-0.002509,0.000690,0.01,-0.30,9.86
120785446,-0.000074,-0.002507,-0.000374,0.01,-0.30,9.86
120786451,-0.001138,-0.001440,0.000690,0.03,-0.32,9.84
120787461,-0.003265,-0.001439,0.000689,0.03,-0.33,9.84
120788470,-0.003262,-0.001437,0.001753,0.01,-0.32,9.83
120789481,-0.002194,-0.000372,0.001751,0.02,-0.33,9.80
120790531,-0.001128,-0.000371,0.001749,0.03,-0.33,9.80
120791501,-0.001126,0.001757,0.000683,0.03,-0.32,9.86
120792510,0.002067,0.002820,0.000683,0.07,-0.28,9.87
120793521,0.004194,0.002817,0.001746,0.04,-0.28,9.86
120794536,0.003125,0.001750,0.000680,0.00,-0.30,9.82
120795541,0.000994,0.000684,-0.001449,0.02,-0.31,9.82
120796551,-0.001136,0.001748,-0.001447,0.04,-0.33,9.81
120797560,-0.002199,0.001746,-0.002510,0.05,-0.34,9.78
120798571,-0.000068,0.000680,-0.000379,0.04,-0.32,9.79
120799580,0.003124,0.002808,0.000685,0.03,-0.30,9.80
120800593,0.004186,0.001741,-0.000379,0.02,-0.32,9.87
120801603,0.003117,-0.000390,-0.001443,0.02,-0.35,9.87
120802614,0.002050,-0.002518,-0.002506,0.05,-0.34,9.82
120803630,0.000983,-0.002515,-0.000375,0.04,-0.34,9.82
120804643,-0.002210,-0.000384,0.001754,0.01,-0.35,9.83
120805646,-0.002208,0.001745,0.002816,0.04,-0.33,9.82
120806660,-0.001141,0.001743,0.001749,0.04,-0.31,9.82
120807666,0.000988,0.000677,0.002812,0.03,-0.31,9.82
120808680,0.002051,0.000676,0.003873,0.03,-0.33,9.78
120809690,0.003113,0.000676,0.002805,0.01,-0.33,9.79
120810699,0.003110,0.002803,0.000674,0.02,-0.33,9.83
120811705,0.000979,0.003865,-0.001456,0.06,-0.29,9.85
120812717,-0.001151,0.000668,-0.000390,0.06,-0.28,9.82
120813732,-0.002214,-0.001461,0.000675,0.05,-0.28,9.80
120814747,-0.002211,0.001733,0.001738,0.04,-0.30,9.81
120815749,-0.002209,0.005988,0.003865,0.04,-0.32,9.82
120816762,-0.002207,0.004918,0.003861,0.02,-0.31,9.84
120817767,-0.000076,0.000656,0.001729,0.00,-0.33,9.85
120818777,0.002052,-0.001473,0.000663,0.02,-0.34,9.85
120819784,0.000986,-0.001471,0.001726,0.03,-0.30,9.82
120820791,-0.000079,0.000659,0.000660,0.04,-0.29,9.80
120821803,-0.002208,0.001722,-0.000405,0.06,-0.33,9.81
120822819,-0.001141,0.000656,-0.000404,0.03,-0.33,9.84
120823823,-0.000076,0.000655,-0.001468,0.02,-0.31,9.88
120824840,0.000988,-0.000409,-0.000402,0.01,-0.29,9.83
120825843,0.000987,-0.001473,0.001727,0.03,-0.31,9.81
120826851,-0.001142,-0.002536,0.004917,0.06,-0.32,9.82
120827860,-0.002205,-0.000405,0.004913,0.03,-0.32,9.85
120828871,-0.003267,0.002788,0.001715,0.01,-0.31,9.83
120829880,-0.002200,0.002785,-0.000415,0.01,-0.29,9.80
120830891,-0.002197,0.000654,-0.000415,0.00,-0.28,9.81
120831900,-0.001131,-0.000411,0.001714,0.02,-0.29,9.80
120832911,0.000999,-0.000410,0.000648,0.04,-0.31,9.79
120833920,0.000998,-0.001474,-0.000417,0.04,-0.30,9.78
120834936,0.000997,-0.001473,-0.000416,0.02,-0.34,9.76
120835941,0.003124,-0.000407,-0.000416,0.03,-0.36,9.77
120836951,0.004185,0.000658,0.000649,0.04,-0.33,9.80
120837960,0.003117,0.002785,0.000648,0.06,-0.33,9.80
120838971,0.000985,0.004911,0.000647,0.07,-0.33,9.80
120839980,0.000984,0.003842,0.000647,0.04,-0.32,9.80
120840991,-0.003274,-0.001483,0.000646,0.01,-0.33,9.84
120842000,-0.003270,-0.004674,0.000645,0.01,-0.35,9.78
120843011,-0.001139,-0.004670,0.000645,0.03,-0.32,9.76
120844020,-0.000073,-0.001472,-0.001484,0.04,-0.28,9.78
120845036,-0.001137,0.000658,-0.001483,0.04,-0.29,9.79
120846041,-0.002200,0.000657,-0.000417,0.01,-0.30,9.81
120847051,-0.000070,0.000656,-0.000417,0.00,-0.30,9.80
120848060,0.002059,0.000656,0.000648,0.02,-0.32,9.80
120849071,0.000992,0.000655,0.001712,0.02,-0.33,9.82
120850080,-0.001137,0.000654,0.002774,0.01,-0.32,9.82
120851091,-0.001136,0.004911,0.000643,0.04,-0.31,9.81
120852100,-0.000071,0.004906,-0.000422,0.04,-0.33,9.82
120853111,-0.002199,0.002772,-0.001486,0.04,-0.32,9.83
120854120,-0.003261,-0.001487,-0.000420,0.05,-0.31,9.82
120855136,-0.002193,-0.002550,0.000645,0.03,-0.34,9.84
120856141,-0.001127,-0.002547,0.000644,0.01,-0.32,9.86
120857151,-0.000062,-0.000416,-0.000421,0.06,-0.30,9.82
120858160,0.001003,0.001712,-0.000421,0.06,-0.36,9.78
120859171,0.001002,-0.000418,0.000644,0.03,-0.35,9.80
120860180,-0.000064,-0.001482,0.000643,0.02,-0.31,9.82
120861191,-0.000064,-0.000416,-0.000421,0.03,-0.34,9.81
120862200,0.001001,0.001713,-0.003614,0.04,-0.33,9.81
120863211,-0.000064,0.000647,-0.002546,0.02,-0.31,9.82
120864220,-0.001129,-0.001482,-0.000415,-0.01,-0.31,9.83
120865236,-0.002192,-0.002545,0.001714,-0.02,-0.32,9.80
120866241,-0.001125,-0.002542,0.001712,0.02,-0.30,9.80
120867251,0.001004,-0.000411,0.000646,0.05,-0.29,9.82
120868260,-0.000061,0.000653,0.001710,0.06,-0.30,9.83
120869271,-0.001125,-0.001476,0.001708,0.04,-0.30,9.84
120870280,-0.002188,-0.004667,0.001706,0.00,-0.31,9.80
120871291,-0.000058,-0.004662,0.001705,0.02,-0.32,9.80
120872300,0.001007,-0.000401,0.000639,0.03,-0.31,9.82
120873311,-0.000058,0.002792,-0.001490,0.05,-0.31,9.77
120874320,-0.000058,0.001725,-0.002553,0.07,-0.29,9.80
120875336,-0.001123,0.001724,-0.002550,0.05,-0.28,9.86
120876341,0.001007,0.002786,-0.001484,0.02,-0.31,9.80
120877351,0.001006,0.003848,-0.000418,0.02,-0.34,9.78
120878360,-0.000059,0.001715,-0.000417,0.03,-0.33,9.82
120879377,0.001005,-0.002543,0.000647,0.02,-0.31,9.83
120880380,0.001004,-0.004669,-0.000418,0.03,-0.30,9.81
120881391,-0.001125,-0.003600,-0.002546,0.03,-0.30,9.81
120882400,-0.002189,-0.002532,-0.003607,0.03,-0.31,9.85
120883411,-0.001122,0.000663,-0.001475,0.05,-0.31,9.87
120884420,-0.000057,0.002791,0.000655,0.04,-0.29,9.84
120885436,-0.001121,0.001724,0.001718,0.02,-0.28,9.80
120886441,-0.002184,0.000658,0.001716,0.01,-0.30,9.80
120887451,-0.001118,0.000657,0.001715,0.00,-0.30,9.81
120888460,0.001012,0.001720,0.002777,0.00,-0.27,9.80
120889471,0.002075,-0.001474,0.000646,0.01,-0.29,9.76
120890480,0.002073,-0.004665,0.001710,0.02,-0.30,9.83
120891509,0.001007,-0.004660,0.001708,0.04,-0.33,9.87
120892535,0.001006,-0.001463,0.001706,0.03,-0.34,9.84
120893546,-0.001124,0.000667,0.001704,0.02,-0.32,9.86
120894526,-0.002187,-0.000398,0.000638,0.04,-0.30,9.82
120895531,-0.003249,-0.000398,0.000638,0.02,-0.31,9.77
120896541,-0.000053,-0.000397,0.000637,0.03,-0.35,9.78
120897550,0.001011,0.000667,0.001701,0.04,-0.33,9.82
120898561,-0.000054,0.002795,0.000635,0.03,-0.31,9.84
120899570,-0.000054,0.000664,0.001698,0.03,-0.33,9.86
120900621,-0.000054,-0.002529,0.001697,0.01,-0.34,9.87
120901620,-0.000054,-0.002527,0.000631,0.01,-0.32,9.83
120902622,-0.002182,-0.001460,-0.001498,0.04,-0.30,9.83
120903615,-0.002180,-0.001458,-0.001497,0.04,-0.29,9.84
120904646,-0.002178,0.000671,-0.000431,0.01,-0.31,9.84
120905655,-0.002176,0.002799,-0.001495,0.01,-0.31,9.82
120906659,-0.001109,0.001732,-0.002558,0.05,-0.30,9.76
120907657,-0.000044,0.000666,0.000638,0.04,-0.33,9.75
120908669,-0.000044,-0.001463,0.001701,0.02,-0.33,9.78
120909678,-0.001108,-0.002526,0.001699,0.02,-0.31,9.81
120910681,-0.000043,-0.002523,-0.000431,0.05,-0.28,9.76
120911716,-0.000043,-0.004649,-0.001494,0.03,-0.30,9.76
120912709,-0.000043,-0.004644,-0.000429,0.04,-0.32,9.86
120913749,-0.001107,-0.003575,0.001700,0.05,-0.32,9.85
120914766,-0.001106,-0.000379,0.002763,0.04,-0.31,9.80
120915775,-0.002169,0.002814,0.001696,0.02,-0.30,9.81
120916764,-0.002166,0.001747,0.000630,-0.01,-0.33,9.83
120917775,-0.000036,-0.000383,0.000629,0.03,-0.32,9.81
120918810,0.001028,-0.001447,0.000628,0.05,-0.31,9.81
120919808,-0.001101,-0.001446,0.000628,0.05,-0.31,9.80
120920822,-0.002164,-0.001444,-0.001501,0.03,-0.30,9.82
120921790,-0.000034,-0.002507,-0.001500,0.02,-0.32,9.83
120922813,0.001031,-0.003569,0.000630,0.03,-0.32,9.80
120923815,0.003158,-0.005694,0.000629,0.01,-0.33,9.83
120924846,0.002091,-0.005688,-0.000435,0.00,-0.33,9.85
120925840,0.001024,-0.004618,0.000629,0.01,-0.30,9.86
120926881,-0.000041,-0.001421,0.001693,0.04,-0.31,9.85
120927850,-0.003233,0.000709,0.002755,0.04,-0.29,9.82
120928861,-0.003230,0.000709,0.002753,0.03,-0.29,9.81
120929870,-0.001099,-0.000356,0.000621,0.04,-0.30,9.80
120930881,0.001031,-0.000356,-0.001508,0.06,-0.31,9.83
120931890,0.001030,-0.000356,-0.002570,0.06,-0.31,9.83
120932901,0.001029,-0.001419,-0.000439,0.05,-0.34,9.80
120933910,0.002092,-0.001418,0.001690,0.01,-0.33,9.80
120934927,0.003154,-0.000352,0.001688,0.03,-0.30,9.81
120935930,0.001023,0.003905,0.002750,0.07,-0.31,9.81
120936941,0.001021,0.006029,0.001683,0.03,-0.33,9.82
120937950,-0.000044,0.003895,0.000617,0.03,-0.33,9.81
120938961,-0.002172,0.000698,-0.000447,0.05,-0.31,9.76
120939970,-0.001106,-0.001431,0.000617,0.05,-0.31,9.79
120940981,-0.000040,0.000699,0.000617,0.05,-0.34,9.83
120941990,-0.000040,0.001762,0.000616,0.04,-0.32,9.79
120943001,-0.000040,-0.000368,0.000615,0.01,-0.32,9.78
120944010,-0.001104,-0.000367,0.001679,0.01,-0.33,9.78
120945027,-0.002168,0.000697,0.002741,0.04,-0.33,9.80
120946030,-0.002165,0.000696,0.000610,0.04,-0.31,9.81
120947041,-0.001099,-0.000368,-0.000455,0.01,-0.30,9.86
120948050,-0.001098,-0.000368,-0.001518,0.01,-0.33,9.85
120949061,-0.001097,-0.001432,-0.000453,0.00,-0.34,9.79
120950070,-0.001096,-0.002495,-0.001516,0.02,-0.34,9.81
120951081,-0.000030,-0.003556,-0.001515,0.04,-0.32,9.82
120952090,-0.001095,-0.003553,-0.000449,0.02,-0.32,9.79
120953101,-0.003222,-0.001421,-0.000449,0.01,-0.34,9.77
120954110,-0.000026,-0.000355,-0.000448,0.03,-0.37,9.81
120955127,0.002102,-0.001419,-0.000448,0.04,-0.35,9.84
120956130,0.002100,-0.002482,-0.000447,0.02,-0.32,9.81
120957141,-0.001094,-0.001415,-0.001511,0.00,-0.34,9.81
120958150,-0.002157,-0.000349,-0.001509,0.00,-0.33,9.80
120959161,-0.001091,-0.000349,-0.001508,0.01,-0.34,9.80
120960170,-0.000026,-0.000349,-0.000442,0.01,-0.36,9.80
120961181,-0.001090,-0.000348,0.000622,0.00,-0.34,9.83
120962190,-0.003217,-0.000348,0.002750,-0.01,-0.33,9.82
120963201,-0.002150,0.001781,0.002747,0.01,-0.33,9.83
120964210,0.001045,-0.000349,0.001681,0.03,-0.34,9.86
120965227,0.003172,-0.002477,0.000615,0.03,-0.33,9.86
120966230,0.001041,-0.002475,-0.001514,0.00,-0.34,9.83
120967241,-0.000025,-0.001408,-0.001513,-0.02,-0.33,9.79
120968250,0.001040,-0.000343,-0.001511,-0.01,-0.30,9.80
120969261,0.002103,-0.000342,0.000619,0.02,-0.31,9.78
120970270,-0.000028,-0.000342,0.001682,0.04,-0.33,9.79
120971281,-0.000028,-0.001406,0.000616,0.03,-0.30,9.80
120972290,-0.001092,-0.001404,0.000616,0.02,-0.28,9.79
120973301,-0.001091,-0.001403,0.000615,0.02,-0.30,9.78
120974310,0.001039,-0.001402,-0.000450,0.01,-0.29,9.76
120975327,-0.000026,-0.000336,-0.002578,0.02,-0.28,9.79
120976330,-0.001091,0.001793,-0.003639,0.03,-0.31,9.83
120977341,-0.000025,0.002855,-0.001507,0.01,-0.33,9.86
120978350,0.002103,0.001788,-0.000442,-0.01,-0.31,9.84
120979361,0.001037,-0.000342,0.000623,0.01,-0.32,9.82
120980370,-0.001093,-0.001406,0.000622,0.05,-0.32,9.80
120981381,-0.002156,-0.000340,0.001686,0.06,-0.31,9.77
120982390,-0.001089,0.000724,0.001684,0.05,-0.32,9.81
120983401,-0.001088,0.001788,0.001683,0.04,-0.33,9.82
120984410,-0.001087,0.000722,0.000617,0.03,-0.30,9.82
120985427,-0.000022,-0.000343,-0.000448,0.01,-0.27,9.83
120986430,-0.000022,-0.000343,-0.000448,0.01,-0.27,9.85
120987441,-0.000022,0.001786,-0.000447,0.04,-0.28,9.84
120988450,0.001042,0.000720,-0.001511,0.04,-0.28,9.82
120989461,0.002105,-0.000345,-0.002574,0.04,-0.31,9.79
120990470,0.002103,0.001784,-0.001507,0.04,-0.34,9.75
120991515,0.001037,0.003910,-0.000441,0.03,-0.31,9.79
120992490,-0.001092,0.001778,-0.001505,0.02,-0.31,9.86
120993501,-0.001091,-0.001417,-0.003632,0.03,-0.35,9.88
120994517,0.001038,-0.002479,-0.002564,0.04,-0.35,9.86
120995520,0.002101,-0.002477,-0.000433,0.05,-0.34,9.84
120996531,0.001035,-0.002474,0.000632,0.04,-0.32,9.82
120997540,0.002098,-0.001408,0.001695,0.02,-0.30,9.81
120998551,0.002096,-0.000342,-0.000435,0.01,-0.28,9.81
120999591,-0.000034,-0.000342,-0.001499,0.02,-0.29,9.82
121000611,-0.001099,-0.000341,-0.002561,0.04,-0.32,9.82
121001607,-0.000033,0.001787,-0.001494,0.05,-0.34,9.82
121002593,0.001031,0.001786,0.000636,0.05,-0.32,9.85
121003603,0.002094,0.001784,0.000635,0.03,-0.29,9.83
121004620,-0.000036,0.000718,-0.000430,0.03,-0.30,9.82
121005630,-0.000036,-0.001411,-0.000430,0.04,-0.31,9.83
121006636,-0.000036,-0.003538,0.000635,0.03,-0.31,9.81
121007646,-0.001100,-0.002470,0.001699,0.02,-0.33,9.80
121008656,-0.002164,-0.000340,0.001697,0.02,-0.34,9.79
121009668,0.001031,0.000725,0.001695,0.02,-0.34,9.80
121010679,0.004223,0.001788,0.001694,0.02,-0.35,9.82
121011708,0.005283,0.000722,0.001692,0.04,-0.36,9.82
121012707,0.004213,-0.000343,0.000626,0.04,-0.34,9.82
121013719,0.004209,-0.001406,0.001689,0.04,-0.29,9.86
121014723,0.004205,-0.001405,0.000624,0.04,-0.32,9.87
121015731,0.001008,-0.000339,-0.001505,0.02,-0.34,9.83
121016740,-0.002186,-0.001403,-0.001504,0.01,-0.31,9.79
121017749,-0.002184,-0.001402,0.001690,0.00,-0.29,9.79
121018762,-0.000053,-0.001400,0.002753,0.00,-0.29,9.81
121019768,0.002075,-0.001399,0.000621,-0.01,-0.29,9.81
121020777,0.003138,-0.002462,-0.002572,0.00,-0.28,9.80
121021784,0.001006,-0.004588,-0.003633,0.01,-0.30,9.81
121022801,0.001005,-0.002455,-0.002566,0.02,-0.31,9.80
121023803,-0.000060,0.001805,0.001694,0.04,-0.31,9.80
121024822,-0.001124,0.002867,0.002756,0.03,-0.33,9.78
121025823,-0.001123,0.000736,0.001689,0.01,-0.35,9.77
121026835,-0.001122,-0.000329,-0.000441,-0.01,-0.34,9.79
121027842,0.001007,-0.000329,-0.000440,0.00,-0.32,9.80
121028851,0.001006,0.000736,0.002753,0.01,-0.29,9.77
121029860,-0.000059,0.000735,0.002750,0.01,-0.30,9.78
121030871,-0.000059,-0.001394,0.000619,0.03,-0.32,9.83
121031880,-0.000059,-0.002457,-0.001510,0.02,-0.31,9.84
121032891,-0.001123,-0.002455,-0.001509,0.00,-0.31,9.82
121033900,-0.002186,-0.001388,0.000621,0.01,-0.31,9.84
121034917,-0.000055,-0.000322,-0.000444,0.03,-0.31,9.82
121035920,0.001009,-0.000322,-0.000443,0.03,-0.32,9.81
121036931,0.001008,-0.002450,0.000622,0.03,-0.32,9.82
121037940,-0.000057,-0.000319,0.000621,0.04,-0.30,9.80
121038951,-0.000057,0.002874,0.000620,0.03,-0.31,9.80
121039960,0.001007,0.001807,0.000620,0.03,-0.34,9.82
121040971,-0.001122,0.000741,0.001683,0.03,-0.34,9.86
121041980,-0.002185,-0.000324,0.002746,0.05,-0.34,9.80
121042991,-0.002183,-0.003517,0.002743,0.03,-0.33,9.80
121044000,-0.001117,-0.003513,0.000612,0.04,-0.30,9.84
121045017,-0.001116,-0.000317,-0.000453,0.06,-0.32,9.86
121046020,-0.001115,0.000748,-0.001517,0.03,-0.36,9.82
121047031,-0.001113,0.000747,-0.000451,0.03,-0.33,9.80
121048040,-0.002177,0.001810,0.000614,0.04,-0.29,9.81
121049051,-0.001110,-0.001384,-0.000451,0.03,-0.32,9.80
121050060,-0.000045,-0.003511,0.000613,0.04,-0.34,9.84
121051071,-0.001109,-0.002443,0.001677,0.01,-0.35,9.89
121052080,-0.000044,-0.001377,0.003804,-0.02,-0.37,9.89
121053091,-0.000044,0.000753,0.003800,-0.01,-0.33,9.86
121054100,-0.002172,-0.000312,0.000603,0.02,-0.33,9.82
121055117,-0.002170,-0.000312,-0.000461,0.05,-0.33,9.86
121056148,-0.001103,-0.000311,-0.000461,0.05,-0.28,9.86
121057159,-0.000038,-0.000311,0.000604,0.03,-0.28,9.80
121058164,0.001026,0.000754,-0.000461,0.01,-0.30,9.81
121059151,0.002089,-0.001376,-0.002589,0.01,-0.32,9.84
121060160,0.001023,-0.001374,-0.002586,0.03,-0.33,9.84
121061171,-0.000042,-0.000309,0.000609,0.05,-0.31,9.80
121062180,-0.001106,-0.001373,0.002737,0.03,-0.29,9.79
121063192,-0.001105,-0.001371,0.002734,0.01,-0.29,9.81
121064222,-0.001104,0.000759,0.001667,0.03,-0.30,9.83
121065217,-0.001103,0.000758,-0.001527,0.06,-0.31,9.83
121066220,-0.000038,0.001821,-0.003654,0.05,-0.31,9.82
121067231,-0.000038,0.000755,-0.002587,0.03,-0.34,9.82
121068240,-0.000038,-0.000310,-0.000455,0.03,-0.33,9.80
121069251,-0.000038,0.001819,0.000609,0.03,-0.30,9.80
121070260,-0.000037,0.002881,0.000609,0.02,-0.31,9.89
121071271,-0.002166,0.002879,-0.000456,0.01,-0.34,9.91
121072280,-0.003228,0.001811,-0.002584,0.05,-0.34,9.84
121073291,-0.003225,0.001810,-0.001517,0.10,-0.31,9.78
121074300,-0.002157,0.000744,0.000613,0.06,-0.29,9.77
121075317,-0.002155,-0.000321,0.001676,0.03,-0.30,9.79
121076320,-0.002153,-0.001385,0.001674,0.03,-0.31,9.81
121077331,-0.001086,-0.000320,-0.000456,0.01,-0.33,9.82
121078340,-0.000021,0.000745,-0.001519,-0.01,-0.31,9.81
121079351,0.001043,0.001808,-0.001518,0.01,-0.29,9.78
121080360,-0.001086,0.001806,-0.001516,0.03,-0.29,9.83
121081371,-0.002149,0.000740,-0.001515,0.02,-0.25,9.87
121082381,-0.002147,0.001804,-0.002577,0.01,-0.27,9.85
121083418,-0.001081,0.002866,-0.002575,-0.03,-0.29,9.86
121084433,-0.001080,0.000735,-0.001508,-0.04,-0.29,9.86
121085445,-0.001079,-0.000330,-0.000442,-0.01,-0.30,9.84
121086427,0.001051,0.001799,-0.001506,0.03,-0.31,9.83
121087441,0.004242,0.003925,-0.001505,0.04,-0.33,9.83
121088443,0.005302,0.001793,-0.000439,0.04,-0.32,9.82
121089455,0.002104,0.000727,0.000626,0.04,-0.31,9.82
121090465,-0.000026,-0.000338,-0.000439,0.04,-0.32,9.82
121091474,0.001038,0.001791,-0.001503,0.03,-0.31,9.81
121092491,0.001037,0.001789,-0.001501,0.04,-0.28,9.81
121093547,-0.000028,0.001787,-0.000436,0.04,-0.30,9.78
121094550,-0.002156,-0.000343,-0.001499,0.03,-0.32,9.78
121095550,-0.002154,-0.000343,-0.000434,0.03,-0.30,9.81
121096546,-0.001088,0.001786,0.001695,0.02,-0.31,9.83
121097553,-0.000023,0.000720,0.000629,0.01,-0.33,9.85
121098576,-0.000023,-0.000345,-0.000435,-0.01,-0.31,9.81
121099582,0.001042,-0.001409,-0.001499,0.03,-0.27,9.78
121100591,0.002105,0.000721,-0.002562,0.05,-0.28,9.82
121101569,0.002103,0.001785,-0.001495,0.01,-0.32,9.86
121102581,-0.000028,0.004976,-0.001494,0.01,-0.34,9.78
121103595,-0.001092,0.006035,-0.000428,0.05,-0.30,9.76
121104613,0.001037,0.003900,-0.000427,0.04,-0.30,9.79
121105637,0.003165,0.000704,-0.000427,0.01,-0.34,9.82
121106642,0.002097,-0.000361,-0.000427,0.03,-0.31,9.86
121107650,0.001031,0.000703,-0.000426,0.05,-0.30,9.84
121108667,-0.001098,0.001767,-0.000426,0.07,-0.30,9.81
121109655,0.001031,0.002829,-0.000425,0.06,-0.31,9.82
121110667,0.003159,0.003891,-0.001489,0.03,-0.35,9.82
121111706,0.003155,0.001758,-0.001488,0.04,-0.32,9.78
121112715,-0.000040,0.001757,-0.000422,0.05,-0.30,9.77
121113700,0.001024,0.003883,0.000643,0.04,-0.32,9.81
121114717,0.003151,0.004944,0.001706,0.03,-0.31,9.86
121115715,0.003148,0.001746,-0.000424,0.03,-0.30,9.79
121116733,0.003145,0.000680,0.000641,0.02,-0.30,9.78
121117740,0.003142,-0.000385,0.000640,0.04,-0.30,9.82
121118749,0.002074,-0.000384,-0.001489,0.04,-0.31,9.81
121119783,0.001008,-0.001448,-0.004680,0.02,-0.32,9.82
121120775,-0.000057,-0.004639,-0.005739,0.02,-0.30,9.79
121121775,-0.000057,-0.004635,-0.003605,0.05,-0.28,9.79
121122791,-0.000057,-0.001437,0.001720,0.04,-0.31,9.82
121123799,-0.001121,0.003885,0.002782,-0.01,-0.33,9.80
121124811,-0.002184,0.002817,0.000651,0.02,-0.32,9.79
121125816,-0.003246,-0.000379,-0.001478,0.04,-0.29,9.86
121126826,-0.001115,-0.001442,-0.001477,0.03,-0.28,9.87
121127835,-0.000049,-0.001441,-0.001475,0.03,-0.31,9.83
121128845,-0.000049,-0.000375,-0.000410,0.01,-0.32,9.85
121129851,-0.000049,-0.000375,-0.000409,0.04,-0.32,9.86
121130862,0.001015,-0.000374,-0.001473,0.04,-0.32,9.87
121131871,-0.000050,-0.000374,-0.002536,0.01,-0.30,9.82
121132889,-0.001114,-0.000374,-0.003597,0.04,-0.33,9.81
121133891,0.003144,0.000691,-0.002529,0.04,-0.32,9.83
121134908,0.005269,0.001754,0.000666,0.03,-0.30,9.81
121135911,0.002071,0.002817,-0.000399,0.02,-0.29,9.86
121136922,-0.000060,0.001750,-0.000399,0.03,-0.28,9.87
121137931,-0.000059,-0.000380,0.000666,0.04,-0.30,9.86
121138942,-0.002188,-0.001444,0.001729,0.01,-0.32,9.86
121139951,-0.002186,-0.002507,-0.000401,0.03,-0.30,9.86
121140962,-0.001119,-0.000376,-0.000400,0.01,-0.31,9.81
121141971,-0.002182,0.000689,0.000664,0.04,-0.30,9.81
121142989,-0.001116,0.000688,-0.001465,0.05,-0.30,9.84
121143991,0.001014,0.000687,-0.003592,0.03,-0.33,9.83
121145008,0.002077,0.003879,-0.002524,-0.01,-0.31,9.86
121146011,0.001011,0.002811,0.000671,-0.01,-0.29,9.86
121147022,0.002074,0.001744,-0.000394,0.01,-0.32,9.80
121148031,0.004200,0.001742,-0.000393,0.01,-0.32,9.76
121149042,0.002067,0.002805,0.000671,0.03,-0.31,9.74
121150051,-0.000063,0.001738,0.000671,0.03,-0.32,9.76
121151062,-0.001127,0.000672,0.001734,0.01,-0.34,9.84
121152071,-0.000062,-0.000393,0.001732,0.03,-0.33,9.86
121153089,-0.001126,-0.001457,0.001731,0.05,-0.32,9.83
121154091,-0.002189,-0.000391,0.003857,0.05,-0.30,9.79
121155108,-0.001123,0.000673,0.002789,0.04,-0.30,9.81
121156111,-0.001122,0.000673,0.000658,0.02,-0.32,9.82
121157122,-0.000056,-0.001457,-0.000407,-0.01,-0.31,9.85
121158131,-0.001120,-0.001455,0.000658,0.00,-0.29,9.87
121159142,-0.001119,-0.000389,0.000657,0.03,-0.29,9.80
121160151,0.001010,-0.000389,-0.001472,0.05,-0.30,9.78
121161162,0.002074,0.000676,-0.000406,0.02,-0.32,9.81
121162171,0.002071,0.000675,0.000658,0.01,-0.30,9.81
121163189,-0.000059,0.000674,0.000658,0.00,-0.32,9.79
121164191,-0.000059,0.000674,0.001721,-0.02,-0.34,9.74
121165208,0.003134,0.000673,0.002784,0.01,-0.28,9.78
121166211,0.003131,0.000672,0.003845,0.04,-0.27,9.81
121167222,0.003127,0.000671,0.001713,0.04,-0.29,9.83
121168280,0.002060,0.000671,0.000647,0.05,-0.30,9.83
121169213,-0.000071,0.001736,-0.001484,0.08,-0.21,9.82
121170223,-0.005397,-0.009982,-0.018528,0.04,-0.29,9.78
121171233,-0.005397,-0.016374,-0.030246,-0.01,-0.38,9.81
121172243,-0.001136,-0.004656,-0.019594,-0.03,-0.29,9.80
121173257,0.000995,0.003867,-0.012137,-0.05,-0.46,9.82
121174260,-0.001136,0.004932,-0.018528,-0.07,-0.56,9.81
121175277,-0.002201,0.003867,-0.031312,0.03,-0.55,9.71
121176283,-0.003266,0.004932,-0.034507,0.29,-0.52,9.79
121177289,-0.006462,0.004932,-0.032377,0.34,-0.07,9.84
121178300,-0.011789,0.001736,-0.022789,0.04,0.39,9.82
121179309,-0.010723,0.003867,0.001712,-0.39,-0.09,9.80
121180320,0.005256,-0.000394,0.019822,-0.32,-0.91,9.85
121181329,0.018039,-0.007851,0.012365,0.32,-0.69,9.93
121182340,-0.000071,0.000671,-0.004680,0.38,0.76,9.95
121183359,-0.027768,0.015585,0.001712,-0.15,0.48,9.84
121184362,-0.012854,0.008128,0.021952,-0.56,-1.66,9.43
121185379,0.032953,-0.016374,0.012365,0.09,-0.65,9.16
121186398,0.023366,-0.009982,-0.002549,0.72,1.69,10.54
121187392,-0.039486,0.021976,0.016626,-0.59,-1.41,10.89
121188402,-0.009658,0.003867,0.025148,-0.82,-1.77,8.69
121189412,0.054259,-0.021700,0.004908,1.19,2.39,9.20
121190422,-0.019246,0.018781,0.008104,0.63,-1.91,10.72
121191432,-0.051204,0.016650,0.005973,-1.31,-1.43,9.05
121192442,0.061716,-0.025961,0.001712,0.64,2.47,10.27
121193457,0.031888,0.010258,0.013430,1.32,-3.11,10.39
121194459,-0.026703,0.011324,-0.000418,-1.23,0.73,8.98
121195477,0.025496,-0.025961,0.009169,0.08,-0.34,10.18
121196483,0.011648,0.007062,-0.002549,0.15,-0.87,8.51
121197490,-0.006462,0.029433,-0.004680,-0.32,0.22,11.51
121198499,-0.024572,-0.008917,0.002777,0.60,-0.88,8.78
121199510,0.012713,-0.008917,-0.008941,-0.22,0.30,10.26
121200519,-0.004332,0.008128,-0.000418,-0.05,-0.45,10.06
121201530,-0.001136,-0.019570,-0.014267,0.02,0.14,9.56
121202539,0.006321,-0.011047,0.000647,-0.14,-0.36,10.10
121203559,0.003125,-0.000394,-0.005745,0.21,-0.41,9.15
121204562,0.023366,0.000671,0.000647,-0.27,0.23,10.62
121205579,-0.003266,-0.006786,-0.005745,0.15,-0.93,9.53
121206593,-0.013919,0.023042,0.002777,-0.28,0.87,10.19
121207601,0.007386,0.003867,0.005973,0.57,-1.39,9.37
121208604,0.028692,-0.007851,0.008104,-0.29,-0.41,9.98
121209618,-0.001136,-0.003590,0.003843,-0.65,1.38,9.93
121210627,0.000995,0.009193,-0.005745,0.83,-3.15,8.33
121211637,0.025496,0.013454,-0.008941,-0.88,2.69,11.02
121212651,-0.009658,-0.006786,-0.001484,0.09,-2.26,10.76
121213667,-0.019246,-0.005721,0.002777,0.80,-0.17,8.75
121214675,-0.010723,-0.017439,0.005973,0.10,-0.07,13.05
121215682,0.003125,-0.016374,-0.000418,0.18,-2.64,5.55
121216690,0.030823,0.002801,0.003843,-0.98,3.10,11.09
121217700,0.003125,-0.006786,-0.001484,-0.06,-1.74,11.74
121218714,-0.016050,-0.008917,-0.014267,1.46,-2.09,5.62
121219712,0.004191,0.005997,-0.013202,-1.33,2.55,13.70
121220732,0.006321,0.010258,-0.011071,0.31,-1.68,8.65
121221737,0.003125,0.027303,-0.006810,0.58,-2.23,7.28
121222745,-0.042682,0.025172,-0.008941,-0.80,3.21,13.53
121223768,-0.048008,0.013454,-0.010006,0.50,-1.94,9.56
121224770,-0.021376,0.019846,-0.013202,0.35,-2.45,7.39
121225776,-0.011789,0.013454,-0.008941,0.04,3.26,11.72
121226786,-0.027768,-0.007851,-0.005745,-0.44,-0.18,12.81
121227795,-0.022441,-0.008917,-0.002549,0.83,-3.14,5.16
121228806,-0.013919,-0.009982,-0.006810,0.25,0.80,8.93
121229814,-0.022441,0.004932,-0.006810,-0.82,3.15,13.79
121230822,-0.016050,0.023042,0.003843,0.25,-3.07,8.11
121231832,-0.002201,0.000671,0.010234,1.02,-3.04,6.80
121232842,0.007386,-0.018504,0.011300,-0.29,3.65,12.47
121233857,-0.004332,-0.015308,0.014495,-1.06,1.05,13.73
121234867,-0.003266,-0.002525,0.013430,0.85,-4.16,6.35
121235873,-0.005397,0.007062,0.015561,0.64,-1.45,6.82
121236879,-0.019246,0.004932,0.017691,-0.95,3.60,12.35
121237890,-0.032029,-0.003590,0.015561,-0.54,0.49,12.36
121238899,-0.026703,0.003867,0.012365,0.62,-3.60,7.47
121239910,0.023366,-0.006786,0.009169,-0.82,2.40,12.24
121240919,-0.012854,0.010258,0.000647,-0.93,2.47,13.80
121241930,-0.051204,0.035825,-0.003614,0.49,-2.82,8.69
121242949,-0.039486,0.037956,-0.003614,0.96,-3.86,5.94
121243952,0.009517,0.010258,0.001712,0.19,0.75,8.99
121244969,0.024431,-0.017439,0.003843,-1.18,4.24,13.70
121245975,0.000995,-0.008917,0.009169,-0.26,0.27,11.39
121246982,-0.000071,0.004932,0.015561,0.83,-4.33,7.15
121247992,0.014843,0.007062,0.017691,0.88,-2.31,6.11
121249002,0.029757,-0.003590,0.016626,0.03,1.09,10.65
121250012,0.019104,-0.016374,0.005973,-1.11,3.76,14.27
121251022,-0.006462,-0.006786,0.003843,-0.36,0.82,11.82
121252058,-0.005397,-0.006786,0.000647,0.63,-3.96,7.57
121253075,-0.007528,-0.004656,-0.003614,0.73,-2.78,5.76
121254049,-0.014984,0.000671,-0.005745,0.34,-0.28,9.02
121255067,-0.029898,0.008128,-0.007875,-0.93,2.97,13.31
121256092,-0.026703,0.009193,-0.007875,-1.15,3.12,13.13
121257099,-0.010723,0.008128,-0.006810,0.18,-1.97,9.23
121258089,0.010582,0.005997,-0.003614,0.57,-3.92,6.56
121259105,0.018039,0.000671,-0.004680,0.62,-2.80,6.45
121260109,0.006321,0.007062,-0.005745,0.34,-0.11,9.76
121261120,-0.000071,0.008128,-0.001484,-0.94,3.64,14.09
121262129,-0.000071,0.002801,-0.002549,-0.83,2.80,13.01
121263149,0.003125,-0.003590,-0.005745,0.28,-1.76,9.49
121264152,0.008452,-0.007851,-0.008941,0.61,-3.57,7.15
121265169,0.015909,-0.009982,-0.012137,0.75,-2.97,6.03
121266175,0.015909,-0.011047,-0.010006,0.80,-1.52,8.26
121267182,0.015909,-0.012113,-0.007875,-0.16,2.39,12.83
121268215,0.009517,-0.005721,-0.002549,-0.93,4.30,14.14
121269220,-0.007528,0.005997,0.002777,-0.13,1.21,11.00
121270239,-0.016050,0.005997,-0.001484,0.49,-2.49,8.57
121271222,-0.009658,0.001736,-0.004680,0.42,-3.32,6.73
121272244,0.008452,-0.003590,-0.001484,0.55,-3.03,6.11
121273258,0.002060,-0.001460,-0.001484,0.55,-1.27,9.11
121274253,-0.007528,-0.001460,-0.000418,-0.18,2.34,13.42
121275271,0.012713,-0.008917,0.005973,-1.02,4.14,14.28
121276277,0.029757,-0.017439,0.008104,-0.55,2.15,10.86
121277286,0.026561,-0.022765,0.001712,0.05,-1.27,8.79
121278295,0.020170,-0.014243,-0.004680,-0.04,-3.19,7.47
121279316,0.008452,-0.004656,-0.004680,0.15,-3.71,5.96
121280327,0.011648,-0.004656,-0.001484,0.54,-2.77,7.29
121281331,0.023366,-0.015308,0.003843,0.41,-0.37,10.81
121282347,0.023366,-0.016374,0.011300,-0.35,2.79,14.33
121283357,-0.007528,-0.001460,0.011300,-0.76,4.08,13.28
121284350,-0.013919,0.005997,0.001712,-0.47,2.09,10.52
121285368,-0.004332,0.003867,0.000647,-0.14,-0.83,9.10
121286373,0.011648,0.005997,0.010234,-0.02,-2.95,7.81
121287379,-0.006462,0.009193,0.008104,0.28,-3.87,6.55
121288399,0.014843,0.000671,0.001712,0.65,-3.23,6.65
121289415,-0.017115,0.011324,0.004908,0.94,-1.60,8.88
121290410,0.009517,-0.001460,-0.004680,0.66,0.97,12.79
121291439,0.026561,0.001736,-0.001484,-0.21,3.46,14.18
121292445,-0.028833,0.017715,0.013430,-0.70,3.62,12.18
121293439,-0.036290,0.000671,0.001712,-0.45,1.94,10.14
121294450,0.030823,-0.033418,-0.020659,-0.09,-0.71,9.24
121295488,0.075564,-0.027027,-0.022789,-0.13,-2.79,8.38
121296473,0.034018,0.013454,0.000647,0.00,-3.54,6.79
121297479,-0.046943,0.046478,0.025148,0.55,-3.62,6.32
121298490,-0.098076,0.052870,0.032605,0.95,-2.29,7.90
121299499,-0.111925,0.040086,0.025148,0.77,-0.12,11.19
121300510,-0.109794,0.017715,0.010234,0.06,2.07,13.91
121301519,-0.102338,0.004932,0.001712,-0.52,3.64,13.36
121302530,-0.101272,0.008128,0.004908,-0.80,3.21,11.06
121303539,-0.110860,0.030499,0.014495,-0.70,1.30,9.98
121304550,-0.126839,0.047543,0.026214,-0.46,-0.91,9.30
121305565,-0.115121,0.055000,0.030475,-0.40,-2.66,8.40
121306579,-0.076771,0.048608,0.027279,-0.06,-3.73,6.82
121307580,-0.006462,0.025172,0.013430,0.43,-3.42,6.76
121308594,0.055324,-0.017439,-0.008941,0.87,-2.69,7.37
121309601,0.064912,-0.040875,-0.023855,1.10,-0.88,10.21
121310615,-0.001136,-0.016374,-0.013202,0.67,1.85,13.34
121311624,-0.048008,0.020911,0.012365,-0.15,3.63,14.29
121312638,-0.008593,0.015585,0.014495,-0.60,3.96,12.81
121313652,0.029757,-0.015308,0.001712,-0.70,2.18,10.23
121314660,0.006321,-0.017439,0.001712,-0.90,-0.26,9.30
121315675,-0.014984,0.001736,0.008104,-0.79,-2.22,8.14
121316684,0.007386,-0.006786,0.003843,-0.30,-3.63,7.71
121317689,0.014843,-0.005721,0.008104,0.01,-4.00,6.71
121318698,0.006321,0.017715,0.010234,0.54,-2.34,6.79
121319704,-0.002201,0.008128,0.001712,1.00,-1.38,8.35
121320714,-0.020311,0.011324,0.007038,0.86,-0.78,10.22
121321732,0.008452,0.002801,0.010234,1.14,1.71,12.83
121322737,0.015909,-0.000394,0.012365,0.83,3.08,13.81
121323755,-0.001136,0.002801,0.011300,-0.36,2.99,12.69
121324760,-0.018180,-0.016374,0.000647,-0.85,2.47,10.81
121325765,-0.009658,-0.008917,-0.001484,-0.73,0.89,9.38
121326770,-0.008593,0.004932,0.000647,-0.60,-1.30,9.52
121327783,-0.004332,0.001736,0.004908,-0.47,-2.68,8.72
121328793,0.013778,0.000671,0.003843,-0.25,-3.16,7.51
121329803,-0.001136,0.012389,0.008104,0.00,-3.37,7.16
121330812,0.003125,-0.005721,0.002777,0.66,-3.18,6.09
121331820,0.002060,0.000671,-0.002549,1.07,-1.04,8.21
121332829,0.000995,0.001736,-0.006810,1.18,0.03,10.47
121333840,-0.007528,-0.004656,-0.003614,0.75,0.87,12.28
121334855,-0.006462,-0.009982,-0.004680,0.30,2.83,14.30
121335863,0.004191,-0.009982,-0.010006,0.11,3.10,13.12
121336869,-0.009658,-0.001460,-0.007875,-0.58,2.08,11.14
121337880,-0.017115,-0.001460,-0.003614,-1.26,1.18,9.37
121338889,0.006321,-0.003590,-0.005745,-0.93,-0.07,8.59
121339900,-0.016050,0.005997,-0.005745,-0.58,-2.96,8.65
121340909,-0.010723,0.001736,-0.012137,-0.14,-2.79,7.32
121341920,0.004191,-0.005721,-0.012137,0.12,-2.89,7.39
121342929,-0.001136,-0.009982,-0.010006,0.66,-2.74,6.65
121343940,-0.002201,-0.003590,-0.006810,1.20,-0.50,8.85
121344955,0.002060,0.001736,-0.002549,1.09,0.46,11.01
121345963,0.005256,-0.006786,-0.003614,0.58,1.26,12.45
121346969,-0.001136,-0.005721,-0.007875,0.25,2.92,14.02
121347980,-0.013919,0.015585,-0.006810,-0.13,2.93,12.75
121348989,-0.004332,0.011324,-0.001484,-0.62,1.92,10.95
121350000,0.024431,-0.011047,0.000647,-1.05,1.03,9.48
121351009,0.018039,0.000671,0.004908,-0.82,-0.18,8.93
121352020,-0.026703,0.019846,0.007038,-0.48,-2.13,9.67
121353029,-0.022441,0.004932,0.005973,-0.41,-2.96,8.50
121354040,0.025496,-0.012113,0.002777,-0.09,-2.76,7.36
121355055,0.030823,-0.009982,0.001712,0.21,-2.91,7.28
121356063,-0.007528,-0.000394,0.000647,0.71,-2.83,6.51
121357069,-0.022441,0.008128,-0.000418,1.19,-0.58,8.54
121358080,-0.020311,0.009193,0.003843,1.27,0.22,10.57
121359089,0.006321,-0.012113,0.007038,0.74,0.90,12.19
121360100,0.032953,-0.021700,0.009169,0.45,2.64,13.88
121361109,0.014843,0.007062,0.010234,0.15,2.86,12.97
121362120,-0.032029,0.029433,0.009169,-0.49,2.06,11.30
121363129,-0.026703,0.010258,0.001712,-1.00,1.40,9.88
121364140,0.006321,-0.011047,-0.003614,-0.87,0.28,9.01
121365155,0.023366,-0.021700,-0.001484,-0.62,-1.83,9.67
121366163,0.022300,-0.019570,-0.000418,-0.61,-2.61,8.73
121367169,0.006321,0.005997,-0.000418,-0.29,-2.66,7.65
121368180,-0.036290,0.034760,0.001712,-0.04,-3.18,7.44
121369189,-0.037355,0.018781,-0.001484,0.48,-3.11,6.21
121370200,0.008452,-0.012113,-0.007875,0.97,-0.96,7.90
121371209,0.036149,-0.020635,-0.011071,1.05,-0.30,9.85
121372220,0.024431,-0.014243,-0.008941,0.78,0.30,11.52
121373229,0.007386,0.000671,-0.006810,0.67,2.24,13.71
121374240,-0.028833,0.029433,-0.003614,0.38,2.68,13.29
121375255,-0.048008,0.023042,0.002777,-0.40,2.37,11.87
121376263,-0.008593,-0.012113,0.001712,-1.02,2.00,10.64
121377269,0.036149,-0.028092,-0.001484,-0.91,0.97,9.50
121378280,0.030823,-0.021700,-0.002549,-0.69,-1.14,9.94
121379289,0.005256,-0.012113,-0.004680,-0.82,-2.13,9.01
121380300,-0.018180,0.013454,-0.005745,-0.48,-2.51,7.92
121381309,-0.050139,0.036890,0.000647,-0.18,-3.30,7.91
121382320,-0.029898,0.017715,0.002777,0.29,-3.40,6.19
121383329,0.026561,-0.011047,0.003843,0.82,-1.42,7.31
121384340,0.047867,-0.019570,0.001712,0.92,-0.85,9.00
121385355,0.020170,-0.015308,-0.001484,0.90,-0.47,10.40
121386363,-0.004332,-0.003590,-0.006810,1.08,1.77,12.86
121387369,-0.038421,0.027303,-0.003614,0.79,2.30,13.10
121388380,-0.044812,0.027303,0.003843,-0.11,2.36,12.26
121389389,0.002060,-0.003590,0.005973,-0.71,2.57,11.62
121390400,0.046802,-0.016374,0.001712,-0.72,1.74,10.30
121391418,0.031888,-0.014243,0.000647,-0.65,-0.26,10.05
121392420,0.003125,-0.012113,-0.003614,-0.89,-1.33,9.27
121393429,-0.021376,0.009193,-0.006810,-0.65,-2.08,8.28
121394440,-0.049073,0.030499,0.000647,-0.30,-3.29,8.37
121395455,-0.026703,0.011324,0.005973,0.11,-3.58,6.44
121396463,0.029757,-0.013178,0.004908,0.51,-1.92,6.93
121397469,0.041475,-0.018504,0.003843,0.67,-1.46,8.19
121398480,0.011648,-0.016374,0.000647,0.88,-1.30,9.10
121399489,-0.007528,-0.006786,-0.005745,1.23,1.07,11.72
121400515,-0.037355,0.020911,-0.004680,1.00,1.76,12.68
121401509,-0.038421,0.019846,0.002777,0.02,2.22,12.56
121402520,0.009517,-0.008917,0.007038,-0.51,2.93,12.63
121403529,0.047867,-0.019570,0.003843,-0.52,2.24,11.37
121404540,0.023366,-0.012113,-0.000418,-0.63,0.46,10.47
121405555,-0.011789,-0.007851,-0.006810,-1.07,-0.58,9.34
121406563,-0.035225,0.015585,-0.007875,-0.88,-1.50,8.42
121407569,-0.042682,0.028368,0.001712,-0.43,-3.16,8.93
121408580,-0.004332,0.000671,0.008104,-0.12,-3.59,7.12
121409594,0.045737,-0.020635,0.005973,0.25,-2.31,6.82
121410601,0.030823,-0.012113,0.000647,0.42,-1.98,7.59
121411615,-0.016050,-0.000394,-0.005745,0.81,-1.79,7.96
121412624,-0.029898,0.005997,-0.008941,1.25,0.52,10.54
121413635,-0.026703,0.015585,-0.004680,1.07,1.25,12.08
121414650,0.000995,0.003867,-0.000418,0.28,1.95,12.80
121415668,0.039345,-0.017439,-0.000418,-0.14,3.04,13.45
121416671,0.029757,-0.004656,-0.001484,-0.35,2.56,12.04
121417683,-0.026703,0.016650,0.000647,-0.69,1.07,10.65
121418688,-0.040551,0.012389,-0.000418,-1.07,0.15,9.40
121419698,-0.007528,0.004932,-0.001484,-0.84,-0.90,8.62
121420703,0.014843,-0.005721,0.001712,-0.50,-2.79,9.23
121421714,0.026561,-0.023831,0.001712,-0.27,-3.38,7.66
121422731,0.018039,-0.009982,-0.000418,0.12,-2.54,6.92
121423741,-0.029898,0.024107,0.001712,0.35,-2.36,7.35
121424750,-0.038421,0.021976,0.004908,0.78,-2.26,7.15
121425757,0.012713,-0.001460,0.004908,1.25,0.05,9.67
121426763,0.041475,-0.009982,0.001712,1.21,0.78,11.50
121427770,0.018039,-0.006786,-0.002549,0.59,1.43,12.67
121428783,-0.007528,-0.002525,-0.007875,0.14,2.99,13.93
121429793,-0.033094,0.016650,-0.004680,-0.15,2.77,12.61
121430803,-0.022441,0.011324,0.007038,-0.59,1.57,10.97
121431812,0.027627,-0.019570,0.011300,-1.08,0.77,9.47
121432819,0.049998,-0.014243,0.007038,-0.90,-0.44,8.69
121433830,-0.002201,0.013454,0.002777,-0.61,-2.48,9.46
121434845,-0.037355,0.016650,-0.002549,-0.47,-3.22,8.15
121435853,-0.016050,0.004932,-0.007875,-0.09,-2.67,7.14
121436859,0.015909,-0.006786,-0.004680,0.13,-2.69,7.42
121437870,0.031888,-0.016374,-0.000418,0.59,-2.67,6.66
121438879,-0.035225,0.033695,0.003843,1.23,0.39,10.95
121439890,-0.049073,0.027303,0.007038,0.70,0.96,12.24
121440899,0.003125,-0.009982,0.004908,0.38,2.73,13.95
121441910,0.044671,-0.021700,0.001712,0.04,2.85,12.99
121442919,0.015909,-0.007851,-0.000418,-0.60,1.99,11.41
121443930,-0.016050,0.001736,-0.005745,-1.12,1.21,9.84
121444945,-0.025637,0.014519,-0.007875,-0.94,0.03,8.88
121445953,-0.018180,0.007062,-0.000418,-0.64,-2.01,9.63
121446959,0.016974,-0.020635,0.005973,-0.54,-2.82,8.57
121447970,0.036149,-0.015308,0.007038,-0.20,-2.68,7.51
121448979,-0.006462,0.017715,0.004908,0.01,-2.96,7.50
121449990,-0.035225,0.023042,0.001712,0.54,-2.94,6.30
121450999,-0.004332,0.001736,-0.005745,1.12,-0.66,8.23
121452010,0.020170,-0.013178,-0.007875,1.17,-0.02,10.21
121453019,0.018039,-0.020635,-0.006810,0.81,0.50,11.78
121454030,0.009517,-0.011047,-0.002549,0.68,2.43,13.79
121455045,-0.018180,0.025172,0.002777,0.33,2.78,13.19
121456069,-0.030964,0.028368,0.008104,-0.47,2.19,11.68
121457079,0.006321,-0.007851,0.002777,-1.07,1.63,10.27
121458070,0.036149,-0.020635,-0.002549,-0.93,0.58,9.27
121459079,0.009517,-0.007851,-0.002549,-0.70,-1.52,9.86
121460090,-0.018180,0.000671,-0.003614,-0.68,-2.44,8.83
121461099,-0.016050,0.013454,-0.004680,-0.33,-2.59,7.73
121462110,-0.012854,0.012389,-0.001484,-0.09,-3.22,7.60
121463119,0.007386,-0.016374,0.000647,0.42,-3.18,6.02
121464130,0.026561,-0.023831,-0.000418,0.96,-1.03,7.56
121465145,-0.003266,0.004932,-0.000418,1.08,-0.46,9.49
121466153,-0.035225,0.023042,0.001712,0.87,0.05,11.13
121467159,-0.010723,0.009193,0.000647,0.82,2.14,13.47
121468184,0.020170,-0.005721,-0.002549,0.52,2.62,13.34
121469189,0.016974,-0.017439,-0.004680,-0.32,2.36,12.10
121470207,0.008452,-0.015308,-0.006810,-1.01,2.14,10.95
121471200,-0.013919,0.014519,-0.004680,-0.94,1.11,9.68
121472219,-0.030964,0.030499,0.002777,-0.70,-1.00,9.88
121473225,0.002060,0.000671,0.003843,-0.77,-1.94,9.04
121474233,0.041475,-0.017439,0.000647,-0.46,-2.45,7.98
121475250,0.019104,-0.008917,0.000647,-0.26,-3.36,7.88
121476256,-0.020311,-0.001460,-0.001484,0.22,-3.31,6.19
121477263,-0.023507,0.008128,-0.000418,0.80,-1.44,7.18
121478275,-0.011789,0.012389,0.003843,0.90,-0.92,8.93
121479299,0.015909,-0.007851,0.008104,0.87,-0.41,10.43
121480307,0.035084,-0.019570,0.003843,1.03,1.80,12.94
121481312,-0.002201,0.011324,0.002777,0.74,2.36,13.29
121482323,-0.041617,0.023042,0.005973,-0.23,2.38,12.39
121483335,-0.010723,-0.000394,0.007038,-0.86,2.51,11.56
121484330,0.035084,-0.013178,0.002777,-0.78,1.57,10.15
121485359,0.013778,-0.003590,0.000647,-0.69,-0.52,10.03
121486353,-0.023507,-0.000394,-0.004680,-0.86,-1.64,9.14
121487359,-0.019246,-0.000394,-0.008941,-0.55,-2.35,8.07
121488390,0.004191,-0.006786,-0.003614,-0.24,-3.42,7.97
121489379,0.023366,-0.015308,0.001712,0.22,-3.56,6.09
121490390,0.014843,-0.000394,0.001712,0.65,-1.56,7.03
121491416,-0.021376,0.021976,0.002777,0.84,-1.02,8.70
121492428,-0.014984,0.002801,0.000647,0.99,-0.71,10.22
121493420,0.013778,-0.018504,-0.002549,1.08,1.63,12.82
121494453,-0.004332,0.003867,0.000647,0.65,2.33,13.24
121495473,-0.022441,0.012389,0.005973,-0.24,2.51,12.45
121496453,0.012713,-0.014243,0.005973,-0.78,2.64,11.59
121497460,0.032953,-0.014243,0.003843,-0.82,1.59,10.24
121498469,-0.012854,0.008128,0.001712,-0.76,-0.46,9.95
121499480,-0.026703,0.008128,0.001712,-0.83,-1.64,9.10
121500489,0.011648,-0.001460,0.002777,-0.53,-2.44,8.07
121501500,0.016974,-0.001460,0.001712,-0.25,-3.51,8.03
121502509,-0.012854,0.001736,-0.003614,0.22,-3.53,6.19
121503522,-0.012854,0.001736,-0.006810,0.66,-1.56,6.97
121504544,-0.000071,-0.002525,-0.003614,0.84,-1.03,8.65
121505570,-0.001136,-0.009982,-0.003614,0.90,-0.58,10.18
121506553,-0.006462,-0.004656,-0.003614,1.04,1.73,12.80
121507559,-0.008593,0.004932,-0.001484,0.75,2.40,13.30
121508570,0.003125,-0.002525,-0.000418,-0.21,2.50,12.53
121509580,0.009517,-0.012113,-0.003614,-0.83,2.59,11.55
121510594,-0.011789,0.005997,-0.004680,-0.84,1.51,10.24
121511601,-0.009658,0.009193,0.003843,-0.71,-0.56,10.04
121512615,0.021235,-0.008917,0.009169,-0.79,-1.75,9.08
121513626,0.019104,0.001736,0.004908,-0.52,-2.58,8.10
121514649,-0.028833,0.023042,0.003843,-0.19,-3.52,7.97
121515652,-0.021376,0.002801,0.003843,0.30,-3.47,6.20
121516666,0.018039,-0.015308,0.000647,0.71,-1.47,7.12
121517668,0.000995,0.005997,0.001712,0.84,-0.94,8.74
121518683,-0.021376,0.014519,0.005973,0.91,-0.50,10.38
121519688,0.011648,-0.005721,0.004908,1.05,1.83,12.97
121520698,0.021235,-0.001460,0.001712,0.76,2.44,13.41
121521703,-0.018180,0.010258,-0.001484,-0.19,2.51,12.34
121522714,-0.016050,0.000671,-0.002549,-0.90,2.54,11.38
121523737,0.023366,-0.004656,-0.001484,-0.84,1.38,10.08
121524743,0.015909,0.001736,0.000647,-0.64,-0.75,9.92
121525748,-0.006462,0.002801,-0.003614,-0.76,-1.87,9.21
121526753,-0.003266,-0.001460,-0.007875,-0.54,-2.56,7.95
121527764,0.006321,-0.008917,-0.005745,-0.26,-3.47,7.92
121528770,0.002060,-0.014243,-0.003614,0.27,-3.40,6.09
121529783,-0.004332,0.000671,-0.003614,0.75,-1.40,7.23
121530793,-0.010723,0.011324,0.000647,0.89,-0.85,8.86
121531803,0.007386,-0.006786,0.000647,0.89,-0.38,10.46
121532812,0.014843,-0.013178,-0.003614,1.00,1.85,13.05
121533820,-0.014984,0.012389,-0.002549,0.66,2.43,13.41
121534835,-0.017115,0.013454,0.004908,-0.27,2.55,12.37
121535843,0.024431,-0.011047,0.009169,-0.92,2.46,11.31
121536849,0.031888,-0.000394,0.008104,-0.88,1.36,10.14
121537860,-0.022441,0.021976,0.008104,-0.70,-0.68,9.93
121538869,0.011648,-0.008917,0.000647,-0.52,-2.48,7.94
121539880,0.026561,-0.011047,0.000647,-0.25,-3.38,7.98
121540889,0.004191,-0.000394,-0.001484,0.21,-3.39,6.10
121541900,-0.007528,0.010258,-0.004680,0.69,-1.50,7.07
121542909,-0.010723,0.011324,-0.000418,0.87,-0.97,8.81
121543920,0.007386,-0.011047,0.004908,0.95,-0.54,10.25
121544935,0.019104,-0.015308,0.005973,1.11,1.64,12.85
121545943,-0.011789,0.016650,0.005973,0.76,2.33,13.24
121546949,-0.035225,0.024107,0.004908,-0.19,2.46,12.53
121547960,-0.000071,-0.004656,-0.001484,-0.78,2.49,11.64
121548969,0.029757,-0.015308,-0.005745,-0.78,1.58,10.29
121549980,0.002060,-0.004656,-0.007875,-0.70,-0.40,10.11
121550989,-0.026703,0.000671,-0.006810,-0.87,-1.56,9.04
121552000,-0.016050,0.005997,-0.003614,-0.62,-2.31,8.16
121553009,0.000995,-0.001460,0.000647,-0.29,-3.35,8.12
121554020,0.022300,-0.020635,0.001712,0.16,-3.43,6.44
121555035,0.021235,-0.014243,-0.001484,0.58,-1.76,6.92
121556043,-0.022441,0.017715,0.002777,0.73,-1.32,8.32
121557049,-0.039486,0.019846,0.005973,0.90,-0.91,9.56
121558060,0.002060,-0.000394,0.008104,1.18,1.31,12.23
121559069,0.034018,-0.011047,0.005973,0.94,1.94,13.01
121560080,0.016974,-0.016374,-0.000418,0.01,2.30,12.59
121561089,-0.003266,-0.012113,-0.006810,-0.61,2.76,12.32
121562100,-0.026703,0.013454,-0.006810,-0.69,1.97,10.71
121563109,-0.028833,0.018781,0.002777,-0.79,0.16,10.14
121564120,0.008452,-0.007851,0.007038,-1.01,-0.89,9.13
121565135,0.043606,-0.017439,0.005973,-0.69,-1.82,8.33
121566143,0.013778,-0.003590,0.000647,-0.36,-3.24,8.63
121567149,-0.025637,0.004932,-0.008941,0.01,-3.51,6.74
121568160,-0.030964,0.014519,-0.013202,0.33,-2.07,6.95
121569169,-0.023507,0.018781,-0.007875,0.54,-1.78,7.88
121570180,0.006321,-0.004656,-0.000418,0.96,-1.50,8.55
121571189,0.044671,-0.024896,-0.000418,1.31,0.84,11.16
121572200,0.031888,-0.009982,0.000647,1.08,1.41,12.37
121573209,-0.021376,0.008128,-0.002549,0.26,1.97,12.69
121574220,-0.036290,0.011324,-0.004680,-0.26,2.90,13.12
121575235,-0.023507,0.017715,-0.002549,-0.46,2.39,11.65
121576243,-0.005397,0.008128,0.005973,-0.78,0.88,10.44
121577249,0.026561,-0.018504,0.008104,-1.09,-0.07,9.37
121578260,0.041475,-0.022765,0.004908,-0.77,-1.18,8.55
121579269,0.004191,-0.003590,0.001712,-0.52,-2.90,9.23
121580280,-0.026703,0.007062,0.000647,-0.27,-3.39,7.42
121581289,-0.022441,0.017715,-0.000418,0.14,-2.46,7.00
121582300,-0.024572,0.019846,0.002777,0.36,-2.22,7.45
121583309,-0.006462,-0.004656,0.002777,0.81,-2.10,7.36
121584320,0.029757,-0.024896,-0.002549,1.26,0.15,9.88
121585335,0.034018,-0.016374,-0.002549,1.16,0.74,11.51
121586343,0.005256,-0.005721,-0.004680,0.57,1.37,12.68
121587349,-0.004332,0.002801,-0.002549,0.19,2.79,13.78
121588360,-0.020311,0.024107,0.001712,-0.19,2.68,12.55
121589369,-0.030964,0.024107,0.008104,-0.67,1.56,10.99
121590380,-0.003266,-0.005721,0.004908,-1.13,0.85,9.58
121591389,0.030823,-0.021700,-0.004680,-0.92,-0.26,8.77
121592400,0.030823,-0.022765,-0.006810,-0.67,-2.29,9.51
121593409,0.026561,-0.020635,-0.004680,-0.52,-2.94,8.25
121594420,0.019104,0.000671,-0.000418,-0.08,-2.57,7.28
121595435,-0.028833,0.030499,0.004908,0.10,-2.79,7.49
121596443,-0.049073,0.024107,0.003843,0.56,-2.79,6.42
121597449,-0.021376,0.004932,-0.002549,1.11,-0.54,8.48
121598460,-0.001136,-0.002525,-0.001484,1.24,-0.05,10.34
121599469,0.015909,-0.015308,0.003843,0.80,0.47,11.75
121600480,0.040410,-0.027027,0.004908,0.62,2.31,13.78
121601489,0.035084,-0.013178,0.000647,0.35,2.59,13.07
121602500,-0.003266,0.002801,-0.003614,-0.43,2.17,11.78
121603509,-0.017115,0.002801,-0.006810,-1.04,1.80,10.56
121604520,-0.025637,0.017715,-0.003614,-0.90,0.81,9.48
121605556,-0.039486,0.028368,0.002777,-0.75,-1.19,9.88
121606543,-0.019246,0.010258,0.003843,-0.76,-2.04,8.95
121607549,0.006321,-0.003590,0.001712,-0.43,-2.48,8.02
121608560,0.007386,-0.009982,0.000647,-0.28,-3.28,7.89
121609569,0.015909,-0.024896,0.000647,0.25,-3.29,6.11
121610580,0.039345,-0.025961,-0.001484,0.77,-1.31,7.27
121611594,0.031888,-0.009982,-0.002549,0.92,-0.92,8.87
121612601,0.002060,0.000671,-0.003614,0.97,-0.67,10.30
121613619,-0.001136,0.004932,-0.004680,1.18,1.45,12.77
121614624,-0.023507,0.028368,0.000647,0.86,2.03,13.06
121615639,-0.050139,0.028368,0.002777,-0.08,2.19,12.49
121616652,-0.034160,0.008128,0.000647,-0.64,2.54,11.92
121617660,-0.009658,0.001736,-0.002549,-0.66,1.87,10.48
121618668,-0.000071,-0.002525,0.000647,-0.74,0.12,10.14
121619683,0.020170,-0.021700,0.001712,-1.01,-0.78,9.17
121620689,0.038280,-0.027027,-0.002549,-0.65,-1.60,8.48
121621698,0.022300,-0.022765,-0.003614,-0.37,-3.06,8.76
121622704,0.014843,-0.021700,-0.001484,-0.08,-3.41,7.04
121623719,0.028692,-0.012113,0.002777,0.28,-2.18,6.95
121624739,0.009517,0.011324,0.003843,0.45,-1.90,7.75
121625741,-0.021376,0.016650,-0.001484,0.85,-1.72,8.05
121626745,-0.012854,0.013454,-0.007875,1.27,0.48,10.58
121627753,-0.024572,0.030499,0.000647,1.18,1.00,11.85
121628763,-0.037355,0.026238,0.009169,0.52,1.44,12.46
121629770,-0.011789,0.003867,0.004908,0.05,2.71,13.45
121630783,0.006321,-0.000394,0.000647,-0.27,2.63,12.02
121631793,0.005256,-0.005721,0.004908,-0.75,1.37,10.95
121632803,0.014843,-0.025961,0.003843,-1.14,0.69,9.66
121633812,0.026561,-0.031288,-0.001484,-0.83,-0.34,8.78
121634825,0.022300,-0.027027,-0.003614,-0.68,-2.32,9.56
121635833,0.027627,-0.024896,0.000647,-0.55,-2.91,8.12
121636839,0.041475,-0.009982,0.004908,-0.11,-2.48,7.45
121637850,0.011648,0.010258,0.004908,0.03,-2.71,7.61
121638859,-0.004332,0.010258,-0.008941,1.06,-0.43,8.55
121639870,-0.019246,0.030499,-0.004680,1.21,0.02,10.28
121640879,-0.036290,0.027303,0.000647,0.89,0.27,11.67
121641890,-0.012854,0.009193,0.000647,0.75,2.10,13.67
121642899,-0.007528,0.018781,0.002777,0.42,2.52,13.05
121643910,-0.020311,0.019846,0.005973,-0.36,2.20,11.91
121644925,-0.009658,-0.004656,0.001712,-0.95,1.93,10.67
121645933,0.005256,-0.016374,-0.004680,-0.87,1.06,9.56
121646939,0.013778,-0.017439,-0.002549,-0.75,-0.90,9.97
121647950,0.029757,-0.024896,0.002777,-0.81,-1.77,8.97
121648959,0.047867,-0.016374,0.002777,-0.45,-2.17,8.16
121649970,0.021235,-0.004656,0.001712,-0.31,-3.13,8.24
121650979,0.003125,-0.012113,-0.000418,0.15,-3.49,6.32
121651990,0.014843,-0.012113,-0.003614,0.61,-1.54,7.18
121652999,-0.000071,0.009193,-0.000418,0.75,-1.24,8.35
121654010,-0.020311,0.019846,0.000647,0.98,-1.12,9.53
121655025,-0.008593,0.014519,-0.001484,1.31,1.20,11.98
121656033,-0.024572,0.030499,0.002777,1.04,1.61,12.62
121657039,-0.042682,0.029433,0.004908,0.11,2.05,12.31
121658050,-0.025637,0.012389,-0.001484,-0.43,2.72,12.46
121659059,-0.009658,0.011324,-0.003614,-0.56,2.24,11.38
121660070,-0.009658,0.003867,0.004908,-0.73,0.60,10.61
121661079,0.011648,-0.017439,0.008104,-1.03,-0.28,9.63
121662090,0.032953,-0.019570,0.003843,-0.70,-1.07,8.64
121663099,0.018039,-0.016374,-0.000418,-0.45,-2.82,9.33
121664110,0.006321,-0.025961,-0.003614,-0.32,-3.32,7.50
121665125,0.024431,-0.024896,-0.003614,0.14,-2.37,6.89
121666133,0.020170,-0.006786,-0.001484,0.32,-2.22,7.36
121667139,-0.002201,0.003867,-0.003614,0.66,-2.13,7.07
121668150,0.002060,0.010258,-0.004680,1.19,0.18,9.59
121669159,-0.020311,0.032629,0.002777,1.27,0.60,11.20
121670170,-0.043747,0.031564,0.004908,0.72,0.95,12.24
121671179,-0.021376,0.014519,-0.001484,0.30,2.52,13.94
121672190,-0.007528,0.018781,-0.003614,-0.07,2.75,12.93
121673199,-0.014984,0.012389,0.001712,-0.60,1.77,11.58
121674210,0.000995,-0.016374,0.002777,-1.10,1.17,10.09
121675225,0.021235,-0.023831,-0.002549,-0.96,0.28,8.86
121676233,0.013778,-0.020635,-0.003614,-0.74,-1.80,9.62
121677239,0.013778,-0.025961,-0.001484,-0.62,-2.60,8.36
121678250,0.031888,-0.019570,0.002777,-0.22,-2.48,7.47
121679259,0.018039,-0.003590,-0.000418,-0.10,-2.95,7.62
121680270,-0.000071,-0.003590,-0.005745,0.44,-3.13,6.02
121681279,0.005256,0.002801,-0.007875,1.00,-0.79,7.99
121682290,-0.020311,0.030499,0.000647,1.08,-0.46,9.82
121683299,-0.040551,0.029433,0.003843,0.91,-0.28,11.13
121684310,-0.013919,0.007062,0.001712,0.98,1.88,13.42
121685325,-0.002201,0.005997,0.001712,0.66,2.38,13.13
121686333,-0.008593,-0.000394,0.004908,-0.28,2.21,12.20
121687339,0.005256,-0.017439,-0.000418,-0.95,2.21,11.17
121688350,0.022300,-0.021700,-0.004680,-0.86,1.49,9.85
121689359,0.016974,-0.020635,-0.004680,-0.74,-0.47,10.04
121690370,0.018039,-0.022765,-0.002549,-0.91,-1.46,9.20
121691379,0.025496,-0.001460,-0.000418,-0.61,-2.00,8.25
121692390,-0.013919,0.025172,0.002777,-0.33,-3.23,8.50
121693399,-0.038421,0.019846,-0.001484,0.13,-3.73,6.27
121694410,-0.022441,0.011324,-0.006810,0.51,-1.70,7.03
121695425,-0.021376,0.016650,-0.000418,0.65,-1.21,8.48
121696433,-0.009658,0.000671,0.009169,0.94,-1.33,9.17
121697439,0.029757,-0.020635,0.009169,1.30,1.04,11.69
121698468,0.043606,-0.019570,0.000647,1.05,1.60,12.40
121699459,0.015909,-0.014243,-0.005745,0.10,1.93,12.45
121700470,0.004191,-0.012113,-0.008941,-0.43,2.78,12.71
121701479,-0.008593,0.015585,-0.001484,-0.56,2.33,11.40
121702490,-0.032029,0.033695,0.008104,-0.82,0.68,10.66
121703499,-0.012854,0.014519,0.005973,-1.10,-0.25,9.48
121704510,0.018039,-0.001460,-0.000418,-0.73,-1.19,8.51
121705525,0.012713,-0.011047,-0.002549,-0.48,-3.03,9.12
121706533,0.010582,-0.025961,-0.002549,-0.26,-3.53,7.16
121707544,0.022300,-0.018504,-0.002549,0.18,-2.31,6.83
121708550,-0.003266,0.011324,-0.001484,0.39,-2.03,7.52
121709559,-0.029898,0.020911,-0.002549,0.73,-2.02,7.52
121710570,-0.008593,0.013454,-0.005745,1.24,0.34,10.14
121711596,-0.003266,0.013454,-0.003614,1.24,0.95,11.64
121712610,-0.000071,-0.003590,0.003843,0.54,1.40,12.49
121713602,0.024431,-0.021700,0.007038,0.09,2.79,13.68
121714616,0.027627,-0.007851,0.001712,-0.22,2.68,12.52
121715628,-0.011789,0.012389,-0.001484,-0.67,1.42,11.21
121716637,-0.025637,0.005997,-0.007875,-1.08,0.63,9.67
121717650,-0.018180,0.007062,-0.006810,-0.87,-0.38,8.52
121718661,-0.017115,0.004932,0.003843,-0.63,-2.49,9.33
121719682,0.009517,-0.019570,0.009169,-0.45,-3.26,7.83
121720682,0.042541,-0.022765,0.004908,-0.03,-2.60,7.03
121721689,0.018039,0.000671,0.001712,0.13,-2.63,7.46
121722698,-0.021376,0.012389,-0.003614,0.58,-2.61,6.65
121723710,-0.021376,0.010258,-0.004680,1.17,-0.16,8.99
121724746,-0.023507,0.016650,0.000647,1.26,0.32,10.80
121725742,-0.008593,-0.001460,0.004908,0.69,0.65,11.96
121726757,0.034018,-0.022765,0.004908,0.39,2.50,13.91
121727755,0.044671,-0.007851,0.000647,0.14,2.77,13.11
121728763,-0.006462,0.009193,-0.004680,-0.52,1.95,11.71
121729777,-0.025637,0.003867,-0.010006,-1.15,1.43,10.26
121730798,-0.021376,0.009193,-0.010006,-1.01,0.50,8.90
121731795,-0.012854,0.010258,-0.002549,-0.70,-1.77,9.66
121732807,0.018039,-0.013178,0.001712,-0.66,-2.75,8.52
121733811,0.047867,-0.017439,-0.000418,-0.27,-2.64,7.52
121734828,0.016974,0.001736,-0.002549,-0.05,-3.07,7.71
121735829,-0.023507,0.008128,-0.008941,0.45,-3.07,6.15
121736847,-0.016050,0.014519,-0.001484,1.08,-0.30,9.89
121737857,0.003125,-0.004656,0.007038,0.86,0.08,11.25
121738862,0.039345,-0.025961,0.005973,0.83,2.19,13.53
121739879,0.032953,-0.006786,0.003843,0.53,2.52,13.25
121740889,-0.019246,0.013454,0.000647,-0.39,2.18,12.04
121741880,-0.032029,0.009193,-0.003614,-1.08,2.02,10.84
121742889,-0.014984,0.010258,-0.002549,-0.89,1.17,9.54
121743900,0.002060,0.002801,0.003843,-0.69,-0.98,9.98
121744931,0.027627,-0.021700,0.004908,-0.81,-2.04,9.02
121745923,0.036149,-0.020635,0.002777,-0.43,-2.43,7.96
121746950,-0.011789,0.007062,0.002777,-0.17,-3.34,8.01
121747940,-0.038421,0.012389,-0.001484,0.28,-3.39,6.06
121748968,-0.012854,0.004932,-0.004680,0.71,-1.26,7.22
121749960,0.008452,-0.003590,-0.003614,0.87,-0.83,8.94
121750969,0.018039,-0.020635,-0.002549,0.98,-0.59,10.35
121751980,0.028692,-0.023831,-0.003614,1.11,1.68,12.83
121752989,-0.003266,0.010258,0.001712,0.79,2.21,13.08
121754000,-0.042682,0.026238,0.004908,-0.12,2.26,12.36
121755015,-0.021376,0.008128,0.001712,-0.81,2.56,11.72
121756023,0.022300,-0.007851,-0.004680,-0.80,1.72,10.34
121757048,0.025496,-0.013178,-0.004680,-0.72,-0.34,10.13
121758051,0.013778,-0.017439,-0.008941,-0.88,-1.44,9.18
121759070,-0.008593,0.001736,-0.004680,-0.54,-2.14,8.12
121760060,-0.037355,0.020911,0.005973,-0.28,-3.36,8.35
121761086,-0.017115,0.002801,0.010234,0.12,-3.63,6.26
121762092,0.034018,-0.015308,0.002777,0.58,-1.73,6.88
121763090,0.032953,-0.008917,-0.004680,0.74,-1.19,8.46
121764099,-0.010723,0.001736,-0.007875,0.94,-1.03,9.43
121765115,-0.027768,0.004932,-0.007875,1.20,1.27,12.05
121766123,-0.023507,0.013454,-0.002549,0.95,1.83,12.82
121767130,0.002060,-0.000394,0.002777,0.04,2.13,12.52
