time_us,gyro_x_rad_s,gyro_y_rad_s,gyro_z_rad_s,acc_x_m_s2,acc_y_m_s2,acc_z_m_s2
67586207,-0.004302,-0.003583,-0.002700,0.00,-0.24,9.83
67587009,-0.001106,-0.003583,-0.001635,0.02,-0.23,9.78
67587899,0.004221,0.000678,-0.000570,0.01,-0.23,9.78
67588909,0.005286,0.001744,0.000495,0.00,-0.24,9.83
67589919,0.003155,0.000678,0.001561,-0.01,-0.23,9.86
67590929,0.002090,-0.000387,0.002626,0.00,-0.23,9.84
67591939,0.001025,-0.000387,0.001561,0.01,-0.26,9.84
67592965,-0.000040,-0.001452,0.001561,0.03,-0.26,9.85
67593959,-0.000040,-0.001452,0.002626,0.03,-0.26,9.88
67594969,-0.000040,-0.001452,0.001561,0.02,-0.25,9.87
67595979,-0.001106,-0.001452,-0.000570,0.00,-0.24,9.82
67596989,-0.002171,0.000678,-0.002700,0.00,-0.22,9.82
67598006,-0.002171,0.000678,-0.001635,0.02,-0.22,9.78
67599009,-0.002171,-0.002518,0.000495,-0.02,-0.23,9.78
67600019,-0.002171,-0.005713,0.000495,-0.02,-0.21,9.79
67601029,-0.002171,-0.006779,0.000495,-0.02,-0.24,9.77
67602039,-0.000040,-0.004648,0.000495,0.01,-0.25,9.80
67603064,-0.000040,-0.002518,0.000495,0.02,-0.24,9.80
67604059,-0.000040,-0.002518,0.000495,0.01,-0.25,9.75
67605069,-0.001106,-0.000387,0.000495,0.02,-0.25,9.74
67606074,-0.001106,0.001744,0.001561,0.02,-0.25,9.75
67607084,-0.000040,0.002809,0.002626,-0.02,-0.28,9.77
67608102,-0.001106,0.002809,0.003691,-0.03,-0.29,9.81
67609104,-0.001106,0.000678,0.002626,-0.01,-0.27,9.86
67610114,-0.002171,-0.001452,0.001561,0.01,-0.27,9.89
67611124,-0.001106,-0.002518,0.000495,0.02,-0.26,9.82
67612134,-0.000040,-0.001452,-0.000570,0.02,-0.23,9.76
67613162,0.001025,-0.001452,-0.000570,0.02,-0.24,9.80
67614154,-0.000040,-0.001452,-0.001635,0.04,-0.26,9.81
67615164,-0.001106,-0.000387,-0.001635,0.02,-0.26,9.84
67616174,-0.001106,0.000678,-0.001635,0.00,-0.23,9.90
67617184,-0.001106,0.000678,-0.001635,-0.01,-0.23,9.89
67618202,-0.000040,-0.001452,-0.000570,0.00,-0.25,9.85
67619204,0.001025,-0.002518,0.001561,0.02,-0.26,9.82
67620214,0.002090,-0.001452,0.001561,0.03,-0.26,9.77
67621224,0.002090,0.000678,0.000495,0.04,-0.25,9.79
67622234,0.002090,0.000678,-0.000570,0.04,-0.27,9.80
67623260,0.004221,0.000678,-0.001635,0.00,-0.26,9.81
67624254,0.005286,0.000678,0.000495,0.04,-0.27,9.86
67625264,0.003155,0.002809,0.002626,0.06,-0.25,9.86
67626274,-0.000040,0.001744,0.001561,0.01,-0.25,9.86
67627284,-0.001106,0.000678,-0.000570,-0.01,-0.27,9.80
67628313,-0.003236,0.000678,-0.001635,0.01,-0.27,9.79
67629304,-0.004302,-0.000387,-0.002700,0.02,-0.26,9.82
67630314,-0.003236,-0.002518,-0.003766,0.04,-0.27,9.84
67631324,-0.001106,-0.002518,-0.001635,0.03,-0.25,9.87
67632334,-0.000040,-0.001452,-0.000570,0.02,-0.22,9.85
67633361,-0.001106,-0.001452,-0.000570,0.02,-0.22,9.80
67634354,-0.001106,-0.001452,-0.000570,0.00,-0.21,9.79
67635401,-0.000040,0.000678,0.002626,0.00,-0.24,9.85
67636374,0.001025,0.001744,0.003691,0.02,-0.27,9.86
67637384,0.003155,-0.000387,0.001561,0.00,-0.25,9.82
67638402,0.002090,-0.000387,0.000495,0.00,-0.24,9.80
67639404,-0.000040,0.001744,-0.001635,0.02,-0.22,9.79
67640414,-0.001106,0.002809,-0.002700,0.03,-0.24,9.80
67641424,-0.001106,0.001744,-0.002700,0.03,-0.23,9.82
67642434,-0.002171,-0.002518,-0.001635,-0.01,-0.22,9.80
67643460,-0.001106,-0.004648,-0.000570,-0.05,-0.27,9.81
67644454,-0.000040,-0.004648,0.001561,-0.02,-0.26,9.82
67645464,-0.000040,-0.004648,0.001561,0.03,-0.24,9.79
67646474,0.001025,-0.003583,0.001561,0.00,-0.23,9.81
67647484,-0.000040,-0.000387,0.002626,-0.02,-0.26,9.83
67648502,-0.000040,0.000678,-0.000570,0.03,-0.27,9.83
67649504,0.001025,-0.000387,-0.002700,0.02,-0.21,9.84
67650514,0.002090,-0.002518,-0.001635,0.00,-0.19,9.81
67651524,0.001025,-0.003583,-0.000570,0.00,-0.21,9.82
67652534,0.001025,-0.003583,0.000495,0.01,-0.24,9.82
67653561,0.001025,-0.000387,0.001561,-0.01,-0.28,9.81
67654554,-0.000040,0.001744,0.000495,-0.03,-0.25,9.79
67655564,-0.000040,0.001744,0.000495,0.01,-0.24,9.79
67656576,0.002090,0.002809,-0.000570,0.01,-0.26,9.78
67657586,0.003155,0.001744,0.000495,0.02,-0.23,9.81
67658609,0.003155,0.001744,0.001561,-0.01,-0.25,9.83
67659613,0.002090,0.000678,0.002626,0.05,-0.23,9.83
67660622,0.002090,-0.001452,0.002626,0.04,-0.27,9.80
67661635,0.002090,-0.002518,0.003691,0.00,-0.25,9.77
67662654,0.003155,-0.001452,0.004757,-0.02,-0.25,9.78
67663660,0.003155,-0.000387,0.004757,-0.01,-0.26,9.81
67664666,0.001025,0.000678,0.001561,0.04,-0.24,9.76
67665684,-0.001106,0.000678,-0.000570,0.04,-0.23,9.77
67666687,-0.000040,-0.000387,-0.002700,-0.01,-0.25,9.83
67667704,0.001025,-0.000387,-0.003766,-0.02,-0.25,9.81
67668716,-0.000040,0.000678,-0.004831,-0.04,-0.23,9.84
67669716,-0.002171,0.002809,-0.004831,-0.02,-0.26,9.79
67670724,-0.002171,0.002809,-0.003766,0.00,-0.27,9.79
67671733,-0.000040,0.001744,-0.002700,0.01,-0.27,9.83
67672749,0.001025,0.001744,-0.001635,-0.01,-0.29,9.84
67673765,-0.000040,0.003874,0.000495,-0.01,-0.27,9.85
67674761,-0.001106,0.002809,0.000495,0.00,-0.26,9.78
67675774,-0.000040,0.000678,-0.000570,0.01,-0.27,9.80
67676778,0.002090,-0.000387,0.001561,0.02,-0.26,9.83
67677815,0.003121,0.000736,0.002644,0.02,-0.25,9.80
67678806,0.002056,0.003932,0.001579,0.03,-0.29,9.82
67679807,-0.000075,0.003932,-0.000551,0.03,-0.30,9.84
67680819,-0.001140,0.000736,0.000514,0.00,-0.27,9.85
67681828,-0.002205,-0.002460,0.001579,0.00,-0.26,9.83
67682847,-0.001140,-0.003525,0.000514,0.01,-0.24,9.82
67683850,0.002056,-0.004591,0.000514,0.02,-0.25,9.81
67684854,0.003121,-0.003525,0.000514,0.03,-0.27,9.83
67685864,0.004186,-0.001395,0.003710,-0.01,-0.24,9.88
67686874,0.002056,0.000736,0.003710,0.00,-0.25,9.78
67687884,-0.001140,0.001801,0.003710,0.01,-0.28,9.73
67688902,-0.002205,0.000736,0.001579,0.01,-0.28,9.79
67689904,-0.003271,-0.000329,-0.000551,0.03,-0.30,9.78
67690914,-0.002205,-0.001395,-0.001617,-0.01,-0.29,9.76
67691924,-0.000075,-0.001395,-0.001617,-0.03,-0.28,9.85
67692941,-0.000075,-0.001395,-0.002682,-0.01,-0.28,9.82
67693952,0.000991,-0.001395,-0.004812,0.03,-0.25,9.77
67694954,0.000991,0.000736,-0.005878,0.04,-0.22,9.78
67695964,-0.002205,-0.000329,-0.002682,0.00,-0.23,9.81
67696974,-0.004336,-0.000329,-0.000551,-0.01,-0.23,9.82
67697984,-0.002205,0.000736,0.000514,0.02,-0.24,9.82
67699002,-0.000075,-0.000329,0.001579,0.04,-0.25,9.85
67700004,0.002056,-0.000329,0.002644,0.03,-0.23,9.87
67701014,0.003121,-0.001395,0.001579,0.02,-0.22,9.82
67702024,0.002056,-0.001395,0.000514,0.01,-0.24,9.81
67703045,0.000991,-0.000329,0.000514,0.01,-0.26,9.84
67704050,0.000991,-0.001395,0.001579,0.01,-0.25,9.82
67705054,0.002056,-0.003525,0.003710,0.02,-0.23,9.79
67706064,0.003121,-0.002460,0.004775,0.02,-0.23,9.78
67707074,0.003121,0.000736,0.003710,0.04,-0.26,9.79
67708084,0.003121,0.000736,0.001579,0.02,-0.28,9.81
67709102,0.003121,-0.002460,-0.002682,0.01,-0.27,9.80
67710104,0.000991,-0.005656,-0.003747,-0.01,-0.24,9.80
67711114,-0.001140,-0.004591,-0.003747,-0.01,-0.25,9.83
67712124,-0.004336,-0.002460,-0.001617,0.00,-0.27,9.84
67713141,-0.004336,-0.000329,-0.000551,0.05,-0.27,9.83
67714152,-0.002205,0.001801,-0.000551,0.03,-0.26,9.87
67715154,-0.001140,0.001801,-0.000551,-0.02,-0.26,9.86
67716164,0.000991,-0.001395,-0.000551,-0.01,-0.26,9.82
67717174,-0.000075,-0.001395,-0.000551,-0.02,-0.27,9.84
67718184,-0.000075,0.001801,-0.001617,-0.01,-0.23,9.83
67719202,0.002056,0.002866,-0.000551,0.02,-0.22,9.84
67720204,0.003121,0.000736,-0.000551,0.02,-0.24,9.87
67721214,0.002056,-0.002460,0.000514,0.01,-0.24,9.85
67722224,-0.002205,-0.001395,0.001579,0.00,-0.26,9.83
67723245,-0.003271,0.000736,0.001579,-0.04,-0.29,9.83
67724250,-0.001140,-0.000329,0.000514,-0.02,-0.28,9.84
67725254,0.002056,-0.002460,-0.000551,0.00,-0.26,9.83
67726264,0.000991,-0.002460,-0.000551,-0.02,-0.23,9.88
67727274,-0.000075,-0.001395,0.000514,0.01,-0.22,9.91
67728284,-0.000075,0.000736,0.000514,0.00,-0.25,9.87
67729302,0.000991,0.001801,-0.000551,0.02,-0.27,9.82
67730304,0.000991,0.000736,-0.000551,0.04,-0.26,9.82
67731314,0.000991,0.000736,0.000514,-0.02,-0.25,9.85
67732324,0.000991,0.000736,0.001579,-0.02,-0.25,9.82
67733341,0.000991,0.001801,0.002644,0.02,-0.26,9.78
67734352,0.002056,0.000736,0.003710,0.02,-0.26,9.78
67735354,0.000991,-0.001395,0.002644,0.03,-0.24,9.86
67736364,-0.001140,-0.001395,-0.000551,0.01,-0.25,9.90
67737412,-0.001140,-0.002460,-0.002682,-0.02,-0.24,9.86
67738384,-0.001140,-0.003525,-0.003747,-0.02,-0.23,9.83
67739402,-0.001140,-0.001395,-0.001617,0.02,-0.26,9.81
67740404,-0.002205,-0.000329,0.000514,0.04,-0.23,9.81
67741414,-0.002205,-0.001395,0.001579,0.02,-0.25,9.81
67742424,-0.000075,-0.000329,0.000514,0.01,-0.29,9.80
67743445,0.002056,-0.000329,-0.000551,-0.02,-0.29,9.79
67744450,0.003121,0.001801,-0.000551,-0.01,-0.27,9.79
67745454,0.000991,0.000736,-0.000551,0.00,-0.24,9.82
67746464,-0.001140,0.001801,0.000514,-0.03,-0.24,9.84
67747474,0.000991,0.002866,0.001579,-0.01,-0.24,9.80
67748484,0.000991,0.001801,0.001579,0.02,-0.23,9.75
67749502,-0.000075,0.000736,0.003710,0.02,-0.21,9.75
67750504,0.000991,-0.000329,0.001579,0.02,-0.23,9.78
67751514,-0.000075,-0.001395,-0.001617,0.01,-0.24,9.79
67752524,-0.000075,-0.000329,-0.001617,0.01,-0.24,9.79
67753541,-0.001140,0.000736,-0.001617,0.03,-0.24,9.82
67754552,-0.000075,0.000736,-0.002682,0.04,-0.24,9.88
67755554,0.002056,0.001801,-0.003747,0.00,-0.25,9.88
67756564,0.003121,0.003932,-0.002682,-0.02,-0.27,9.84
67757576,0.002056,0.004997,-0.000551,0.01,-0.23,9.81
67758594,0.004186,0.003932,0.001579,0.02,-0.21,9.78
67759609,0.003121,-0.002460,0.001579,-0.01,-0.23,9.86
67760612,0.002056,-0.003525,0.001579,0.02,-0.23,9.83
67761624,0.002056,-0.002460,-0.000551,0.00,-0.24,9.81
67762641,-0.000075,-0.000329,-0.000551,0.00,-0.24,9.85
67763646,-0.002205,0.000736,0.001579,0.02,-0.23,9.83
67764656,-0.003271,0.000736,0.003710,-0.01,-0.25,9.84
67765664,-0.002205,-0.000329,0.002644,0.01,-0.26,9.83
67766675,-0.001140,-0.003525,0.001579,0.04,-0.26,9.78
67767689,-0.000075,-0.004591,-0.000551,0.00,-0.25,9.80
67768694,0.000991,-0.002460,-0.002682,-0.02,-0.23,9.86
67769722,-0.000075,-0.000329,-0.001617,-0.02,-0.23,9.90
67770716,-0.001140,0.001801,-0.001617,-0.02,-0.25,9.87
67771734,-0.000075,0.004997,-0.001617,-0.02,-0.25,9.85
67772742,-0.000075,0.004997,0.000514,0.00,-0.27,9.80
67773742,-0.001140,0.002866,0.002644,0.04,-0.26,9.80
67774765,-0.003271,0.000736,0.002644,0.03,-0.22,9.82
67775766,-0.002205,-0.002460,0.000514,-0.01,-0.23,9.84
67776769,0.000991,-0.003525,-0.001617,-0.04,-0.24,9.84
67777779,0.000991,-0.002460,-0.000551,-0.01,-0.22,9.79
67778787,-0.001140,-0.001395,0.001579,0.00,-0.25,9.80
67779806,-0.002205,-0.000329,0.003710,-0.01,-0.29,9.82
67780807,-0.002205,0.001801,0.002644,0.02,-0.27,9.83
67781819,-0.000075,0.001801,0.001579,-0.02,-0.23,9.83
67782837,0.000991,0.000736,0.000514,-0.02,-0.27,9.83
67783836,-0.001140,-0.000329,-0.000551,-0.02,-0.27,9.79
67784850,-0.000075,-0.002460,0.000514,-0.02,-0.23,9.78
67785854,-0.000075,-0.003525,0.002644,0.02,-0.26,9.80
67786864,-0.000075,-0.000329,0.001579,0.01,-0.27,9.82
67787874,-0.001140,0.001801,0.000514,0.00,-0.22,9.82
67788884,-0.002205,0.001801,-0.001617,-0.01,-0.24,9.82
67789902,-0.003271,0.001801,-0.001617,-0.01,-0.27,9.83
67790904,-0.002205,0.000736,-0.000551,0.00,-0.25,9.85
67791914,-0.001140,-0.001395,0.000514,-0.01,-0.26,9.86
67792932,0.000991,-0.001395,-0.001617,-0.02,-0.26,9.85
67793934,0.002056,0.000736,-0.002682,0.01,-0.25,9.82
67794952,0.000991,0.000736,-0.001617,0.04,-0.23,9.82
67795954,-0.000075,0.000736,-0.000551,0.02,-0.24,9.81
67796964,-0.002205,0.002866,0.000514,-0.02,-0.27,9.75
67797974,-0.002205,0.002866,0.000514,-0.01,-0.25,9.83
67798984,-0.000075,0.001801,0.000514,0.01,-0.25,9.85
67800002,0.000991,0.000736,0.000514,0.01,-0.28,9.81
67801004,-0.000075,-0.002460,0.000514,0.01,-0.28,9.81
67802014,-0.002205,-0.003525,-0.001617,-0.02,-0.24,9.85
67803034,-0.002205,-0.002460,-0.000551,-0.01,-0.28,9.84
67804034,-0.001140,-0.001395,-0.000551,0.02,-0.31,9.80
67805050,-0.001140,-0.000329,-0.002682,0.00,-0.30,9.80
67806054,-0.001140,-0.001395,-0.004812,0.01,-0.27,9.78
67807089,-0.001135,-0.000299,-0.004817,0.02,-0.23,9.79
67808074,-0.003266,-0.000299,-0.001621,-0.01,-0.25,9.81
67809084,-0.003266,-0.002429,0.001574,0.00,-0.23,9.86
67810102,-0.000070,-0.002429,0.001574,0.04,-0.20,9.81
67811104,0.002061,-0.002429,0.001574,0.05,-0.23,9.80
67812114,-0.000070,0.000767,0.000509,0.01,-0.27,9.85
67813132,0.000996,0.001832,0.000509,-0.02,-0.27,9.83
67814134,0.003126,-0.000299,0.001574,-0.04,-0.25,9.83
67815152,0.002061,-0.002429,0.002640,-0.03,-0.28,9.83
67816154,0.002061,-0.002429,0.000509,-0.01,-0.27,9.83
67817164,0.002061,-0.000299,0.000509,0.00,-0.25,9.82
67818174,0.002061,0.001832,0.000509,0.04,-0.27,9.82
67819184,0.000996,0.000767,0.001574,0.04,-0.27,9.83
67820202,-0.002200,-0.000299,0.000509,0.02,-0.26,9.83
67821204,-0.003266,-0.000299,0.001574,0.02,-0.27,9.85
67822214,-0.000070,-0.001364,0.001574,0.02,-0.26,9.82
67823234,0.002061,-0.000299,0.002640,0.03,-0.23,9.77
67824234,0.002061,0.000767,-0.000556,0.03,-0.24,9.78
67825250,0.002061,0.000767,-0.002687,0.03,-0.27,9.80
67826267,0.000996,0.000767,-0.001621,0.02,-0.26,9.84
67827264,-0.000070,0.000767,0.001574,-0.01,-0.27,9.87
67828274,-0.001135,-0.000299,0.001574,-0.01,-0.27,9.85
67829284,-0.001135,-0.001364,0.002640,-0.01,-0.26,9.79
67830302,-0.000070,-0.000299,0.002640,-0.02,-0.26,9.82
67831304,-0.000070,0.000767,0.002640,0.02,-0.22,9.86
67832314,-0.001135,-0.000299,0.001574,0.04,-0.19,9.86
67833346,-0.003266,-0.001364,0.002640,0.01,-0.23,9.87
67834334,-0.004331,0.000767,0.002640,-0.02,-0.27,9.83
67835352,-0.003266,0.001832,0.003705,0.00,-0.28,9.85
67836366,-0.000070,0.001832,0.005836,0.00,-0.26,9.85
67837364,0.002061,-0.000299,0.004770,0.01,-0.26,9.83
67838374,-0.000070,-0.001364,0.001574,0.02,-0.24,9.84
67839384,-0.003266,-0.001364,0.000509,0.00,-0.24,9.83
67840406,-0.004331,-0.000299,0.000509,0.03,-0.23,9.82
67841404,-0.003266,-0.000299,-0.000556,0.02,-0.21,9.86
67842414,-0.001135,-0.003495,-0.000556,0.02,-0.22,9.85
67843435,-0.000070,-0.004560,0.000509,0.03,-0.22,9.79
67844434,0.000996,-0.003495,0.001574,0.01,-0.27,9.83
67845450,-0.000070,-0.002429,0.000509,0.01,-0.31,9.83
67846466,-0.001135,-0.001364,-0.001621,0.00,-0.28,9.78
67847464,-0.000070,0.000767,-0.001621,0.01,-0.26,9.77
67848474,0.002061,-0.000299,-0.000556,0.01,-0.28,9.81
67849484,0.003126,-0.003495,0.001574,0.00,-0.26,9.82
67850502,0.002061,-0.006690,0.001574,-0.02,-0.26,9.77
67851504,-0.000070,-0.005625,-0.001621,-0.02,-0.27,9.80
67852514,-0.000070,-0.004560,-0.002687,0.01,-0.24,9.83
67853534,-0.000070,-0.003495,-0.001621,0.03,-0.24,9.84
67854534,-0.001135,-0.001364,-0.000556,0.02,-0.26,9.88
67855552,-0.000070,0.001832,0.001574,0.04,-0.26,9.87
67856566,0.003126,0.000767,0.001574,0.05,-0.25,9.86
67857564,0.003126,-0.000299,0.001574,0.01,-0.26,9.83
67858576,0.002061,-0.001364,0.001574,-0.01,-0.24,9.80
67859586,-0.002200,-0.000299,0.002640,-0.01,-0.24,9.81
67860609,-0.005396,0.002897,0.002640,0.01,-0.27,9.81
67861613,-0.004331,0.002897,0.001574,-0.01,-0.29,9.85
67862636,-0.001135,-0.000299,0.000509,0.00,-0.28,9.90
67863635,0.003126,-0.000299,-0.000556,0.02,-0.25,9.83
67864641,0.004191,0.000767,-0.000556,0.01,-0.25,9.81
67865660,0.004191,0.000767,-0.000556,0.00,-0.28,9.85
67866677,0.000996,-0.000299,0.000509,-0.02,-0.26,9.85
67867682,-0.003266,-0.001364,-0.000556,-0.03,-0.22,9.85
67868688,-0.004331,-0.001364,-0.001621,-0.02,-0.22,9.87
67869698,-0.003266,-0.001364,-0.002687,-0.04,-0.21,9.85
67870716,-0.001135,-0.004560,-0.002687,-0.07,-0.23,9.83
67871716,0.000996,-0.005625,-0.003752,-0.05,-0.27,9.86
67872736,0.000996,-0.002429,-0.001621,0.00,-0.31,9.86
67873733,0.003126,0.000767,-0.000556,0.04,-0.31,9.82
67874741,0.003126,0.000767,0.000509,0.06,-0.28,9.79
67875765,-0.000070,0.000767,-0.000556,0.03,-0.23,9.78
67876772,0.000996,-0.000299,-0.001621,0.02,-0.23,9.83
67877774,0.000996,-0.000299,-0.001621,0.04,-0.25,9.84
67878778,-0.000070,-0.001364,-0.000556,0.02,-0.23,9.86
67879787,-0.000070,-0.001364,0.000509,0.03,-0.24,9.89
67880806,-0.000070,-0.001364,0.000509,0.04,-0.26,9.84
67881807,0.000996,-0.000299,0.000509,0.00,-0.26,9.84
67882830,0.000996,-0.000299,-0.000556,-0.01,-0.26,9.84
67883828,-0.000070,-0.000299,-0.000556,0.00,-0.26,9.81
67884836,0.000996,0.000767,-0.001621,0.02,-0.26,9.86
67885861,0.000996,0.000767,-0.001621,0.02,-0.27,9.89
67886854,-0.002200,-0.001364,-0.002687,0.03,-0.29,9.87
67887864,-0.004331,-0.001364,-0.002687,0.01,-0.24,9.85
67888874,-0.003266,0.001832,-0.000556,0.01,-0.21,9.85
67889884,0.000996,0.002897,0.000509,0.03,-0.24,9.82
67890902,0.000996,0.001832,0.000509,0.01,-0.27,9.79
67891904,-0.001135,-0.000299,0.000509,0.02,-0.29,9.81
67892925,-0.003266,-0.001364,-0.000556,0.01,-0.26,9.83
67893924,-0.002200,-0.002429,-0.000556,0.01,-0.25,9.87
67894934,-0.002200,-0.001364,0.002640,0.03,-0.25,9.85
67895963,-0.002200,-0.000299,0.004770,0.04,-0.23,9.85
67896954,-0.001135,0.000767,0.002640,0.01,-0.24,9.90
67897964,-0.001135,0.001832,0.002640,0.01,-0.27,9.88
67898974,-0.002200,0.000767,-0.000556,0.01,-0.24,9.83
67899984,-0.001135,-0.001364,-0.001621,0.01,-0.25,9.78
67901002,0.002061,-0.001364,-0.001621,0.00,-0.29,9.79
67902004,0.002061,-0.002429,-0.000556,-0.02,-0.30,9.82
67903026,0.000996,-0.001364,-0.002687,-0.04,-0.29,9.85
67904024,-0.000070,-0.001364,-0.004817,-0.04,-0.25,9.85
67905034,-0.001135,-0.001364,-0.003752,0.01,-0.23,9.85
67906061,-0.000070,-0.002429,0.000509,0.01,-0.26,9.88
67907054,-0.000070,-0.001364,0.001574,-0.01,-0.26,9.89
67908064,-0.003266,-0.000299,0.001574,-0.02,-0.27,9.84
67909074,-0.003266,0.000767,0.001574,-0.02,-0.28,9.78
67910084,-0.002200,-0.000299,0.002640,0.01,-0.26,9.80
67911102,-0.000070,0.000767,0.000509,0.04,-0.25,9.83
67912104,0.000996,0.000767,-0.001621,0.01,-0.25,9.82
67913125,0.000996,-0.001364,-0.001621,-0.01,-0.24,9.84
67914124,0.002061,-0.000299,-0.001621,0.03,-0.22,9.85
67915134,0.000996,0.001832,-0.002687,0.04,-0.23,9.85
67916163,-0.000070,0.001832,-0.000556,0.01,-0.22,9.86
67917154,-0.001135,0.001832,0.000509,-0.01,-0.20,9.84
67918164,-0.001135,-0.000299,-0.000556,0.00,-0.22,9.85
67919174,-0.002200,-0.003495,-0.002687,0.00,-0.23,9.86
67920184,-0.001135,-0.004560,-0.001621,0.01,-0.24,9.83
67921202,0.000996,-0.002429,-0.000556,0.02,-0.23,9.81
67922204,0.000996,-0.000299,-0.000556,0.00,-0.22,9.82
67923226,-0.000070,0.001832,-0.000556,-0.02,-0.24,9.85
67924224,-0.001135,0.002897,-0.000556,0.01,-0.24,9.86
67925234,-0.001135,-0.000299,-0.000556,0.03,-0.25,9.84
67926261,0.000996,-0.002429,-0.001621,0.03,-0.26,9.83
67927254,0.000996,-0.000299,-0.001621,0.04,-0.27,9.86
67928264,-0.001135,0.000767,-0.001621,0.01,-0.25,9.88
67929274,-0.001135,-0.000299,-0.001621,-0.01,-0.24,9.82
67930284,0.002061,-0.002429,-0.000556,0.02,-0.23,9.81
67931302,0.002061,-0.003495,0.001574,0.02,-0.25,9.79
67932304,0.000996,-0.001364,0.000509,-0.01,-0.27,9.77
67933325,0.000996,0.001832,-0.001621,0.00,-0.25,9.78
67934324,-0.001135,0.002897,-0.000556,0.02,-0.22,9.79
67935334,-0.001135,-0.000299,0.001574,0.00,-0.21,9.78
67936386,-0.000045,-0.005546,0.001560,-0.03,-0.24,9.81
67937354,0.001020,-0.005546,0.000495,-0.01,-0.26,9.81
67938364,0.002085,-0.001285,0.000495,0.02,-0.24,9.82
67939374,0.003151,0.001911,0.000495,0.00,-0.24,9.87
67940384,0.004216,0.001911,0.000495,-0.02,-0.24,9.84
67941402,0.003151,0.000846,0.000495,-0.01,-0.26,9.82
67942414,-0.000045,-0.000220,-0.000570,0.00,-0.27,9.85
67943425,-0.003241,-0.001285,-0.000570,-0.02,-0.28,9.82
67944424,-0.001111,-0.001285,-0.000570,-0.02,-0.28,9.81
67945434,0.002085,-0.001285,-0.001636,0.00,-0.24,9.81
67946461,0.002085,-0.001285,-0.001636,0.01,-0.23,9.79
67947454,-0.000045,-0.002350,-0.000570,0.03,-0.25,9.81
67948464,-0.001111,-0.000220,0.001560,0.03,-0.24,9.82
67949474,-0.001111,0.000846,0.002626,0.05,-0.22,9.83
67950484,-0.000045,-0.000220,0.001560,0.02,-0.24,9.78
67951502,-0.000045,0.000846,-0.000570,-0.02,-0.25,9.78
67952504,-0.001111,0.001911,-0.000570,-0.01,-0.23,9.85
67953525,-0.003241,0.001911,-0.001636,-0.03,-0.23,9.89
67954524,-0.002176,0.000846,-0.001636,-0.03,-0.23,9.88
67955534,-0.000045,-0.001285,0.000495,0.00,-0.25,9.87
67956563,0.001020,-0.001285,0.001560,0.01,-0.25,9.84
67957554,-0.001111,-0.002350,0.000495,-0.01,-0.24,9.84
67958564,-0.001111,-0.001285,0.000495,0.00,-0.27,9.82
67959576,-0.001111,-0.000220,-0.001636,0.00,-0.25,9.78
67960586,-0.002176,-0.001285,-0.001636,0.00,-0.24,9.86
67961609,-0.001111,-0.001285,-0.000570,0.02,-0.27,9.83
67962620,0.001020,0.000846,0.000495,-0.01,-0.25,9.77
67963624,0.002085,0.001911,-0.000570,0.01,-0.26,9.79
67964635,0.004216,0.002976,0.001560,-0.02,-0.26,9.86
67965646,0.004216,0.002976,0.002626,-0.03,-0.28,9.87
67966678,0.002085,-0.001285,0.000495,-0.03,-0.29,9.83
67967668,0.001020,-0.003416,-0.001636,-0.05,-0.26,9.86
67968674,-0.000045,-0.003416,-0.000570,-0.02,-0.23,9.85
67969686,-0.001111,-0.001285,0.000495,0.00,-0.26,9.78
67970694,-0.000045,-0.000220,0.002626,0.04,-0.28,9.78
67971723,-0.001111,0.000846,0.002626,0.03,-0.26,9.78
67972727,-0.001111,-0.000220,0.002626,0.02,-0.23,9.81
67973734,-0.001111,-0.000220,0.002626,0.04,-0.25,9.82
67974734,-0.001111,-0.000220,0.002626,0.02,-0.26,9.80
67975742,-0.002176,-0.000220,0.003691,0.03,-0.25,9.85
67976773,-0.004306,-0.000220,0.001560,-0.01,-0.24,9.82
67977766,-0.004306,0.000846,-0.001636,-0.02,-0.25,9.78
67978769,-0.001111,0.002976,-0.001636,-0.02,-0.25,9.82
67979779,0.001020,0.004041,0.000495,-0.01,-0.22,9.82
67980787,-0.000045,0.001911,0.000495,0.00,-0.24,9.80
67981806,-0.001111,-0.000220,0.000495,-0.01,-0.22,9.79
67982819,-0.000045,-0.002350,0.001560,0.02,-0.23,9.75
67983819,-0.000045,-0.003416,0.001560,0.01,-0.24,9.78
67984828,-0.001111,-0.003416,0.000495,-0.02,-0.23,9.82
67985836,-0.000045,-0.000220,-0.001636,0.02,-0.30,9.79
67986850,-0.000045,0.000846,-0.001636,0.04,-0.29,9.82
67987854,-0.000045,0.000846,-0.000570,0.05,-0.24,9.82
67988864,-0.000045,-0.000220,-0.000570,0.06,-0.23,9.78
67989874,0.001020,-0.000220,0.000495,0.01,-0.25,9.82
67990884,-0.001111,0.001911,0.001560,-0.03,-0.27,9.87
67991902,-0.002176,0.001911,0.000495,-0.03,-0.27,9.85
67992914,-0.003241,0.001911,-0.001636,-0.03,-0.26,9.80
67993914,-0.002176,-0.000220,-0.002701,-0.02,-0.26,9.81
67994924,-0.002176,-0.001285,-0.000570,0.02,-0.26,9.82
67995934,-0.001111,-0.000220,0.001560,0.02,-0.24,9.78
67996952,0.001020,0.000846,0.001560,-0.01,-0.25,9.76
67997954,-0.000045,0.000846,0.000495,-0.02,-0.26,9.79
67998964,0.001020,0.000846,-0.000570,-0.02,-0.24,9.78
67999974,0.002085,0.000846,-0.001636,0.01,-0.23,9.78
68000984,0.001020,0.000846,-0.001636,0.01,-0.26,9.83
68002002,0.002085,0.000846,-0.000570,0.00,-0.28,9.85
68003015,0.002085,-0.001285,-0.000570,0.05,-0.27,9.86
68004014,-0.000045,-0.000220,-0.000570,0.04,-0.26,9.86
68005024,-0.001111,-0.000220,0.000495,0.01,-0.25,9.84
68006034,-0.002176,-0.000220,0.001560,-0.01,-0.26,9.84
68007050,-0.003241,-0.002350,-0.000570,-0.01,-0.27,9.86
68008054,-0.002176,-0.002350,-0.001636,0.00,-0.26,9.83
68009064,-0.000045,-0.000220,0.000495,-0.02,-0.23,9.79
68010074,0.001020,0.000846,0.002626,-0.03,-0.26,9.81
68011084,-0.000045,-0.000220,0.001560,-0.01,-0.31,9.82
68012102,-0.000045,-0.000220,0.002626,-0.02,-0.26,9.82
68013114,-0.000045,-0.000220,0.002626,-0.02,-0.20,9.85
68014114,-0.001111,0.000846,0.001560,0.00,-0.23,9.83
68015124,-0.001111,-0.000220,0.001560,-0.01,-0.25,9.81
68016134,-0.001111,-0.002350,0.002626,-0.02,-0.25,9.81
68017152,-0.001111,-0.002350,0.001560,-0.01,-0.27,9.79
68018154,-0.001111,-0.001285,-0.002701,0.01,-0.26,9.82
68019164,0.001020,-0.000220,-0.002701,0.02,-0.23,9.85
68020174,0.001020,-0.000220,-0.000570,0.01,-0.26,9.82
68021184,-0.002176,-0.001285,-0.000570,0.01,-0.27,9.83
68022202,-0.003241,-0.003416,-0.001636,0.01,-0.26,9.83
68023215,-0.002176,-0.003416,-0.001636,0.01,-0.27,9.79
68024364,-0.002176,-0.001285,-0.000570,0.05,-0.28,9.77
68025203,-0.004306,-0.000220,-0.000570,0.04,-0.25,9.78
68026207,0.006346,0.004041,0.001560,0.00,-0.34,9.72
68027224,0.024456,0.022151,-0.000570,0.10,-0.24,9.74
68028227,0.015934,0.024282,-0.009093,0.09,-0.27,9.87
68029236,0.009542,0.011498,-0.018680,0.00,-0.36,9.83
68030247,0.006346,0.005107,-0.027202,0.05,-0.13,9.84
68031256,-0.008568,0.005107,-0.029333,-0.06,-0.22,9.80
68032275,-0.004306,0.002976,-0.026137,-0.15,-0.29,9.79
68033294,0.004216,0.000846,-0.018680,-0.01,-0.27,9.86
68034288,0.016999,-0.001285,-0.010158,0.21,-0.30,9.85
68035297,0.002085,0.007237,-0.003766,0.23,-0.10,9.90
68036307,-0.022416,0.012564,-0.003766,-0.08,0.12,9.90
68037325,-0.019220,0.009368,-0.006962,-0.36,-0.20,9.88
68038327,0.005281,-0.001285,-0.004831,-0.03,-0.58,9.79
68039337,0.012738,-0.007677,0.007952,0.55,-0.12,9.73
68040347,-0.006437,0.006172,0.016474,0.06,0.31,9.74
68041357,-0.013894,0.021086,0.011148,-0.49,-0.69,10.02
68042375,0.006346,0.001911,0.007952,-0.01,-0.47,10.09
68043392,0.020195,-0.014068,0.014344,0.40,0.93,9.48
68044403,-0.024547,0.010433,0.010082,-0.16,-1.17,9.40
68045397,-0.026677,0.008303,0.006887,-0.38,-1.24,10.07
68046407,0.039370,-0.018330,0.014344,0.51,1.62,10.06
68047425,0.012738,0.010433,0.007952,0.07,-1.18,9.86
68048427,-0.033069,0.023216,0.003691,-0.56,-1.25,9.58
68049437,0.032978,0.011498,0.002626,0.58,1.37,10.01
68050447,0.014869,0.023216,-0.000570,-0.08,-1.33,10.23
68051457,-0.020286,0.008303,0.003691,-0.47,-0.15,8.98
68052475,0.016999,-0.001285,-0.001636,0.64,0.11,10.53
68053491,-0.018155,-0.011938,0.002626,-0.13,-0.32,9.66
68054488,0.018065,-0.004481,-0.005897,-0.24,-0.23,9.17
68055497,-0.017090,0.017890,-0.001636,0.17,-0.03,11.01
68056507,-0.001111,-0.000220,-0.005897,0.20,-0.57,8.88
68057556,0.003151,-0.003416,-0.002701,-0.41,0.24,10.40
68058527,-0.000045,-0.015134,-0.008027,0.44,-0.36,9.50
68059537,-0.006437,0.008303,-0.001636,-0.09,-0.53,10.02
68060547,0.001020,0.002976,-0.002701,-0.23,0.37,9.75
68061557,0.019130,-0.006611,0.002626,0.43,-0.91,9.76
68062584,0.019130,-0.007677,0.002626,-0.45,0.41,10.17
68063600,0.008477,-0.005546,0.010082,0.21,-0.97,8.99
68064599,-0.000045,0.000846,0.009017,-0.61,0.05,9.48
68065603,0.012738,0.016825,0.010082,-0.11,-0.27,10.25
68066626,-0.008568,-0.003416,0.009017,0.36,-0.32,9.09
68067635,-0.003241,-0.013003,0.010082,-0.07,-0.77,9.95
68068634,-0.001111,-0.001285,0.009017,0.40,0.08,10.02
68069658,-0.008568,-0.001285,0.007952,-0.52,-0.08,8.93
68070660,-0.013894,-0.003416,0.005821,-0.24,-0.59,10.32
68071673,-0.020286,0.000846,0.001560,0.71,0.04,9.97
68072693,-0.019220,0.011498,0.000495,-0.51,-0.03,10.15
68073701,-0.007502,0.015759,0.002626,-0.19,-0.44,10.20
68074694,-0.005372,0.013629,0.004756,0.71,0.04,9.40
68075706,0.004216,0.012564,0.006887,-0.28,-0.19,9.37
68076717,0.023391,0.017890,0.006887,-0.24,-0.57,9.75
68077737,0.023391,0.014694,0.006887,0.75,0.23,9.87
68078736,0.008477,-0.004481,0.005821,0.08,-0.28,9.38
68079746,0.004216,-0.010873,0.004756,-0.60,-0.69,10.08
68080751,0.007412,-0.006611,0.004756,0.47,0.12,10.45
68081761,0.005281,-0.003416,0.003691,0.55,-0.33,9.78
68082775,-0.009633,-0.000220,0.002626,-0.60,-0.64,9.54
68083796,-0.008568,0.000846,0.000495,-0.27,-0.46,9.89
68084792,0.006346,0.002976,-0.001636,0.61,0.07,10.16
68085801,0.004216,0.002976,-0.000570,0.20,-0.28,9.64
68086809,-0.006437,0.000846,0.000495,-0.72,-0.63,9.44
68087825,-0.008568,-0.000220,-0.002701,-0.26,-0.36,9.87
68088827,-0.016024,-0.001285,-0.003766,0.62,-0.16,10.14
68089837,0.019130,-0.003416,0.000495,0.30,-0.22,9.97
68090847,0.045762,0.010433,0.003691,-0.64,-0.27,9.62
68091857,0.046827,0.024282,0.004756,-0.60,-0.22,9.72
68092888,0.025521,0.016825,0.004756,0.42,-0.36,10.09
68093878,0.009542,0.004041,0.006887,0.60,-0.15,9.90
68094887,0.008477,0.001911,0.007952,-0.05,0.00,9.61
68095897,0.006346,0.000846,0.009017,-0.64,0.16,9.59
68096907,0.006346,0.000846,0.011148,-0.20,-0.69,9.72
68097925,0.004216,-0.000220,0.011148,0.46,-0.50,10.08
68098927,-0.000045,0.000846,0.006887,0.46,0.18,10.07
68099937,-0.004306,0.001911,0.003691,0.19,0.21,9.90
68100947,-0.013894,-0.001285,0.005821,-0.50,0.05,9.59
68101957,-0.013894,-0.003416,0.009017,-0.47,-0.86,9.47
68102989,-0.004306,-0.000220,0.006887,0.13,-0.82,9.87
68103978,0.003151,0.000846,0.001560,0.36,0.19,9.95
68104987,0.008477,0.001911,-0.001636,0.40,0.30,10.07
68105997,-0.004306,-0.001285,-0.001636,0.11,-0.05,10.10
68107007,-0.017090,-0.007677,-0.000570,-0.41,-0.47,9.62
68108025,-0.016024,-0.006611,0.001560,-0.48,-1.04,9.43
68109027,-0.013894,-0.003416,0.000495,-0.19,-0.87,9.69
68110037,-0.003241,-0.000220,-0.000570,0.07,0.04,9.94
68111047,-0.001111,0.001911,-0.001636,0.42,0.54,10.20
68112057,-0.000045,0.006172,-0.001636,0.57,0.23,10.39
68113088,0.002085,0.006172,-0.002701,0.20,-0.28,10.11
68114078,0.002085,0.000846,-0.002701,-0.40,-0.77,9.29
68115087,-0.006437,-0.003416,-0.001636,-0.65,-1.03,9.07
68116097,-0.018155,-0.005546,-0.002701,-0.45,-0.69,9.49
68117107,-0.009633,-0.002350,-0.001636,-0.10,0.02,9.87
68118125,0.008477,0.008303,0.001560,0.29,0.57,10.24
68119127,0.011673,0.007237,0.002626,0.63,0.54,10.38
68120137,0.003151,-0.000220,0.002626,0.67,0.09,10.36
68121147,0.005281,-0.004481,0.004756,0.31,-0.40,10.11
68122157,0.013803,-0.005546,0.004756,-0.23,-0.76,9.36
68123189,-0.000045,0.004041,0.002626,-0.58,-0.90,8.88
68124178,-0.017090,0.012564,-0.000570,-0.63,-0.77,9.19
68125187,-0.018155,0.010433,0.000495,-0.46,-0.39,9.65
68126197,-0.004306,0.009368,0.003691,-0.11,0.06,9.92
68127207,-0.002176,0.013629,0.002626,0.24,0.38,10.29
68128225,-0.012829,0.013629,0.000495,0.54,0.37,10.43
68129227,-0.011763,0.006172,-0.001636,0.70,0.07,10.34
68130237,-0.000045,-0.002350,0.001560,0.61,-0.30,10.33
68131247,0.012738,-0.002350,0.001560,0.31,-0.60,10.22
68132257,0.007412,0.000846,0.000495,-0.11,-0.75,9.69
68133288,0.010608,-0.000220,0.001560,-0.43,-0.78,8.98
68134278,-0.006437,-0.001285,-0.000570,-0.59,-0.66,8.85
68135287,-0.006437,-0.004481,-0.000570,-0.62,-0.45,9.24
68136297,0.013803,0.001911,0.000495,-0.46,-0.26,9.67
68137307,0.014869,0.009368,0.000495,-0.18,-0.08,9.93
68138325,-0.006437,0.007237,0.000495,0.06,0.08,10.09
68139327,-0.026677,-0.004481,0.000495,0.23,0.16,10.26
68140353,-0.036265,-0.014068,-0.000570,0.40,0.14,10.26
68141347,-0.036265,-0.016199,-0.000570,0.50,0.00,10.23
68142357,-0.027743,-0.011938,-0.001636,0.53,-0.21,10.18
68143389,-0.013894,-0.004481,-0.000570,0.47,-0.34,10.16
68144378,0.003151,0.001911,0.001560,0.27,-0.44,10.24
68145387,0.015934,0.006172,0.002626,0.10,-0.52,10.09
68146397,0.008477,0.004041,0.001560,-0.07,-0.52,9.72
68147425,-0.009633,-0.002350,-0.002701,-0.27,-0.53,9.26
68148425,-0.007502,-0.003416,-0.003766,-0.39,-0.48,8.96
68149427,-0.002176,-0.001285,-0.003766,-0.43,-0.38,8.99
68150437,0.004216,-0.001285,-0.003766,-0.48,-0.32,9.18
68151447,0.004216,0.002976,-0.002701,-0.44,-0.25,9.47
68152457,0.010608,0.002976,-0.000570,-0.27,-0.21,9.66
68153488,0.008477,0.002976,-0.000570,-0.13,-0.18,9.82
68154478,0.001020,-0.004481,0.000495,-0.02,-0.13,10.02
68155487,0.002085,-0.006611,0.000495,0.07,-0.10,10.11
68156497,-0.008568,0.000846,-0.000570,0.14,-0.09,10.15
68157507,-0.020286,-0.000220,0.000495,0.24,-0.10,10.17
68158525,-0.005372,-0.005546,0.001560,0.30,-0.14,10.17
68159527,0.019130,-0.003416,0.002626,0.31,-0.14,10.14
68160537,0.016999,0.008303,0.001560,0.36,-0.18,10.11
68161547,-0.005372,0.014694,0.000495,0.39,-0.27,10.08
68162557,-0.020286,0.010433,0.001560,0.38,-0.29,10.11
68163596,-0.023481,0.001911,0.002626,0.30,-0.28,10.18
68164582,-0.022416,-0.007677,0.003691,0.20,-0.25,10.19
68165596,-0.018155,-0.010873,0.003691,0.11,-0.34,10.18
68166603,-0.018155,-0.006611,0.001560,0.03,-0.34,9.97
68167620,-0.022416,-0.001285,-0.000570,-0.03,-0.31,9.74
68168636,-0.020286,0.001911,-0.001636,-0.06,-0.32,9.56
68169635,-0.014959,0.006172,-0.001636,-0.14,-0.31,9.42
68170651,-0.013894,0.010433,-0.002701,-0.21,-0.30,9.28
68171659,-0.010698,0.013629,-0.003766,-0.24,-0.32,9.21
68172675,0.003151,0.014694,-0.003766,-0.27,-0.33,9.21
68173699,0.015934,0.007237,-0.001636,-0.28,-0.30,9.20
68174691,0.010608,-0.003416,-0.001636,-0.30,-0.29,9.29
68175693,-0.004306,-0.005546,-0.000570,-0.31,-0.28,9.43
68176706,-0.011763,-0.001285,-0.000570,-0.29,-0.28,9.56
68177717,-0.003241,0.000846,-0.001636,-0.26,-0.27,9.66
68178736,-0.001111,-0.004481,-0.003766,-0.24,-0.28,9.72
68179736,-0.005372,-0.008742,-0.003766,-0.19,-0.28,9.77
68180746,-0.005372,-0.002350,-0.002701,-0.14,-0.26,9.84
68181752,-0.000045,0.000846,-0.001636,-0.09,-0.30,9.93
68182761,0.001020,-0.002350,-0.001636,-0.03,-0.32,9.98
68183789,0.001020,0.000846,0.001560,-0.02,-0.35,9.98
68184782,0.001020,0.005107,0.001560,-0.01,-0.34,10.02
68185791,0.002085,0.007237,0.000495,-0.03,-0.31,10.02
68186801,0.005281,0.006172,-0.000570,-0.03,-0.26,10.01
68187810,-0.002176,0.001911,0.001560,-0.02,-0.24,10.03
68188825,-0.008568,0.002976,0.002626,0.04,-0.21,10.02
68189827,-0.005372,0.004041,0.001560,0.11,-0.20,9.94
68190837,-0.007502,0.007237,0.001560,0.12,-0.23,9.92
68191847,-0.001111,0.006172,0.002626,0.15,-0.27,9.98
68192871,-0.004306,0.009368,0.003691,0.15,-0.29,9.95
68193876,-0.003241,0.010433,0.001560,0.16,-0.24,9.91
68194877,-0.005372,0.007237,-0.000570,0.21,-0.22,9.93
68195887,0.001020,0.004041,-0.000570,0.20,-0.22,9.89
68196897,-0.005372,0.005107,0.000495,0.15,-0.27,9.87
68197907,-0.001111,0.009368,0.000495,0.17,-0.27,9.93
68198925,-0.008568,0.010433,-0.001636,0.18,-0.26,9.93
68199927,-0.001111,0.008303,-0.001636,0.21,-0.28,9.92
68200937,-0.003241,0.006172,-0.000570,0.21,-0.23,9.94
68201947,0.004216,0.005107,0.000495,0.16,-0.28,9.93
68202972,0.008477,0.004041,-0.000570,0.19,-0.29,9.91
68203976,0.006346,-0.000220,-0.001636,0.20,-0.22,9.97
68204977,0.008477,-0.001285,-0.002701,0.16,-0.21,9.96
68205987,-0.004306,-0.008742,-0.000570,0.13,-0.23,9.97
68206997,-0.004306,-0.007677,0.000495,0.10,-0.22,10.03
68208007,-0.008568,-0.002350,-0.000570,0.08,-0.19,10.01
68209025,-0.000045,-0.001285,0.001560,0.08,-0.22,10.09
68210027,0.012738,0.001911,0.003691,0.06,-0.21,10.07
68211037,0.005281,0.004041,0.004756,0.05,-0.21,10.01
68212047,0.004216,0.007237,0.003691,0.02,-0.23,10.00
68213071,-0.003241,0.008303,0.000495,0.00,-0.22,9.95
68214076,-0.013894,0.007237,-0.000570,0.04,-0.23,9.96
68215077,-0.008568,0.002976,-0.000570,0.00,-0.23,9.96
68216087,-0.009633,-0.008742,-0.001636,0.02,-0.20,9.91
68217097,-0.007502,-0.016199,0.000495,0.06,-0.23,9.87
68218107,0.004216,-0.014068,0.002626,0.05,-0.28,9.86
68219125,-0.002176,-0.007677,0.002626,0.04,-0.26,9.85
68220127,-0.011763,0.001911,0.001560,0.00,-0.26,9.80
68221137,-0.004306,0.006172,-0.000570,-0.02,-0.26,9.79
68222147,-0.001111,0.000846,-0.002701,0.00,-0.25,9.75
68223172,0.005281,-0.007677,-0.001636,0.01,-0.28,9.69
68224176,0.010608,-0.005546,0.000495,-0.04,-0.28,9.65
68225177,-0.001111,0.005107,0.003691,-0.07,-0.27,9.63
68226187,-0.004306,0.011498,0.003691,-0.08,-0.27,9.63
68227197,0.014869,0.010433,0.003691,-0.05,-0.28,9.59
68228207,0.013803,0.002976,0.001560,-0.08,-0.28,9.53
68229225,-0.000045,-0.000220,-0.001636,-0.11,-0.26,9.56
68230227,0.001020,0.008303,-0.002701,-0.13,-0.23,9.59
68231237,0.003151,0.014694,-0.005897,-0.13,-0.24,9.55
68232247,-0.002176,0.009368,-0.004831,-0.11,-0.26,9.57
68233271,0.002085,-0.000220,0.000495,-0.15,-0.30,9.59
68234276,0.015934,-0.002350,0.001560,-0.15,-0.28,9.62
68235277,0.006346,0.000846,-0.000570,-0.10,-0.24,9.63
68236287,-0.005372,0.005107,-0.001636,-0.12,-0.24,9.60
68237297,0.008477,0.001911,0.000495,-0.12,-0.25,9.58
68238307,0.008477,-0.004481,0.001560,-0.10,-0.28,9.63
68239325,-0.006437,-0.005546,0.002626,-0.12,-0.30,9.63
68240327,-0.002176,-0.000220,0.003691,-0.11,-0.29,9.62
68241337,0.003151,0.001911,0.003691,-0.11,-0.28,9.63
68242347,0.001020,0.000846,0.001560,-0.13,-0.30,9.67
68243372,-0.001111,-0.003416,0.000495,-0.13,-0.29,9.71
68244376,-0.003241,-0.005546,0.001560,-0.11,-0.27,9.72
68245377,-0.000045,-0.003416,0.002626,-0.13,-0.26,9.74
68246387,-0.001111,0.000846,0.001560,-0.18,-0.29,9.74
68247397,-0.001111,0.004041,0.001560,-0.16,-0.29,9.78
68248407,0.002085,0.007237,0.000495,-0.14,-0.27,9.81
68249455,-0.000045,0.007237,0.000495,-0.12,-0.30,9.79
68250427,-0.001111,0.006172,0.001560,-0.08,-0.28,9.83
68251437,0.001020,0.004041,0.000495,-0.08,-0.29,9.92
68252447,-0.000045,0.000846,0.000495,-0.06,-0.28,9.99
68253471,0.002085,-0.001285,0.002626,-0.01,-0.27,10.03
68254476,0.003151,-0.002350,0.002626,0.01,-0.28,10.07
68255477,-0.001111,0.000846,0.002626,0.03,-0.26,10.01
68256487,0.001020,0.009368,0.001560,0.08,-0.26,9.98
68257497,0.001020,0.009368,0.000495,0.11,-0.26,10.03
68258507,-0.008568,-0.001285,-0.001636,0.12,-0.23,10.08
68259525,-0.013894,-0.004481,-0.002701,0.16,-0.25,10.08
68260527,-0.011763,-0.003416,-0.000570,0.16,-0.29,10.02
68261537,-0.011763,-0.005546,0.001560,0.17,-0.26,10.01
68262547,-0.014959,-0.004481,-0.000570,0.24,-0.27,9.97
68263575,-0.013894,-0.006611,-0.000570,0.21,-0.26,9.98
68264586,-0.010698,-0.011938,0.000495,0.19,-0.28,9.92
68265581,0.002085,-0.009807,0.000495,0.20,-0.31,9.94
68266598,0.011673,0.001911,-0.000570,0.20,-0.28,9.97
68267610,0.014869,0.008303,0.001560,0.23,-0.27,9.97
68268622,0.016999,0.011498,0.001560,0.21,-0.27,9.96
68269634,0.012738,0.009368,0.001560,0.19,-0.24,10.02
68270634,0.013803,0.006172,0.000495,0.17,-0.28,10.04
68271656,0.007412,0.000846,0.000495,0.14,-0.28,10.04
68272660,0.008477,-0.001285,0.000495,0.14,-0.21,10.02
68273680,-0.003241,-0.002350,0.001560,0.15,-0.20,9.99
68274693,-0.003241,-0.001285,0.000495,0.12,-0.21,10.05
68275692,-0.014959,-0.003416,-0.001636,0.05,-0.21,10.07
68276694,-0.016024,-0.004481,-0.001636,0.05,-0.22,10.02
68277706,-0.018155,-0.007677,-0.000570,0.08,-0.23,10.01
68278717,-0.012829,-0.009807,0.000495,0.03,-0.21,9.99
68279738,-0.000045,-0.008742,-0.000570,0.01,-0.21,9.96
68280736,-0.009633,-0.006611,-0.000570,0.03,-0.24,9.93
68281746,-0.007502,0.000846,0.001560,0.02,-0.26,9.88
68282751,-0.002176,0.005107,0.000495,-0.01,-0.25,9.88
68283777,-0.003241,0.004041,-0.002701,-0.02,-0.22,9.85
68284777,0.005281,0.000846,-0.002701,0.00,-0.25,9.77
68285781,0.005281,-0.004481,-0.002701,-0.02,-0.29,9.72
68286791,-0.005372,-0.003416,-0.000570,-0.02,-0.27,9.70
68287807,0.003151,0.005107,0.000495,-0.02,-0.28,9.68
68288809,0.005281,0.010433,-0.001636,-0.05,-0.29,9.67
68289825,-0.007502,0.009368,-0.003766,-0.09,-0.33,9.66
68290827,-0.005372,0.004041,-0.003766,-0.10,-0.31,9.59
68291837,0.006346,-0.004481,-0.002701,-0.10,-0.31,9.61
68292861,0.001020,-0.004481,-0.002701,-0.11,-0.31,9.66
68293858,0.002085,0.007237,-0.000570,-0.10,-0.28,9.62
68294875,0.020195,0.012564,-0.000570,-0.12,-0.25,9.60
68295877,0.013803,0.005107,-0.004831,-0.11,-0.23,9.57
68296887,-0.008568,-0.000220,-0.005897,-0.08,-0.27,9.56
68297897,-0.010698,0.005107,-0.000570,-0.09,-0.30,9.57
68298907,0.004216,0.008303,0.004756,-0.09,-0.27,9.62
68299925,0.005281,-0.000220,0.004756,-0.06,-0.26,9.68
68300927,-0.009633,-0.006611,0.001560,-0.06,-0.27,9.62
68301937,-0.010698,-0.000220,0.002626,-0.08,-0.23,9.62
68302962,0.001020,0.006172,0.001560,-0.08,-0.24,9.65
68303958,-0.003241,-0.000220,-0.000570,-0.08,-0.25,9.63
68304975,-0.017090,-0.007677,-0.001636,-0.09,-0.26,9.64
68305977,-0.019220,-0.004481,-0.000570,-0.11,-0.28,9.66
68306987,-0.009633,0.000846,-0.000570,-0.11,-0.28,9.68
68307997,-0.004306,0.000846,-0.002701,-0.11,-0.27,9.65
68309007,-0.009633,-0.002350,-0.003766,-0.10,-0.28,9.69
68310025,-0.009633,-0.003416,-0.001636,-0.11,-0.26,9.74
68311027,-0.001111,-0.001285,0.003691,-0.11,-0.26,9.73
68312037,-0.002176,-0.002350,0.004756,-0.10,-0.26,9.70
68313061,-0.004306,-0.001285,0.003691,-0.10,-0.27,9.70
68314058,-0.000045,0.006172,0.000495,-0.13,-0.29,9.71
68315075,-0.000045,0.007237,-0.002701,-0.13,-0.25,9.74
68316077,0.001020,0.002976,-0.002701,-0.13,-0.25,9.78
68317087,0.005281,0.000846,0.000495,-0.13,-0.28,9.76
68318097,0.003151,-0.001285,0.001560,-0.13,-0.23,9.77
68319107,0.004216,-0.003416,0.001560,-0.13,-0.25,9.83
68320125,-0.001111,-0.006611,0.001560,-0.10,-0.29,9.88
68321127,-0.001111,-0.010873,0.000495,-0.06,-0.27,9.90
68322137,-0.005372,-0.011938,0.001560,-0.08,-0.28,9.94
68323162,-0.003241,-0.010873,0.002626,-0.03,-0.30,9.94
68324158,-0.004306,-0.008742,0.000495,0.04,-0.30,9.98
68325175,-0.006437,-0.005546,-0.001636,0.05,-0.27,10.00
68326177,0.004216,0.000846,0.001560,0.03,-0.28,10.05
68327187,0.006346,0.004041,0.003691,0.02,-0.28,10.06
68328197,-0.003241,0.002976,0.002626,0.05,-0.25,10.02
68329207,-0.005372,-0.001285,0.001560,0.10,-0.27,10.04
68330225,-0.006437,-0.009807,0.000495,0.18,-0.27,10.07
68331227,-0.014959,-0.009807,-0.001636,0.21,-0.27,9.99
68332237,-0.016024,0.002976,-0.002701,0.20,-0.28,9.93
68333261,-0.008568,0.007237,-0.002701,0.19,-0.27,9.96
68334258,-0.004306,0.005107,-0.002701,0.21,-0.25,9.90
68335275,0.007412,0.004041,-0.000570,0.23,-0.26,9.82
68336277,0.013803,0.002976,0.000495,0.22,-0.25,9.83
68337287,0.020195,0.007237,0.000495,0.20,-0.24,9.91
68338297,0.023391,0.008303,0.001560,0.20,-0.25,9.94
68339307,0.015934,0.008303,0.000495,0.18,-0.25,9.92
68340325,0.011673,0.006172,-0.000570,0.17,-0.23,9.99
68341327,0.006346,0.007237,0.000495,0.17,-0.23,10.00
68342337,0.005281,0.006172,0.000495,0.16,-0.28,9.97
68343362,0.003151,0.005107,-0.002701,0.16,-0.28,9.99
68344358,0.002085,0.005107,-0.001636,0.13,-0.23,10.04
68345391,0.004216,0.001911,-0.002701,0.10,-0.23,10.03
68346377,0.002085,-0.003416,-0.002701,0.10,-0.28,10.04
68347387,0.010608,-0.007677,-0.000570,0.06,-0.24,10.05
68348397,-0.000045,-0.008742,0.001560,0.06,-0.21,10.04
68349407,0.001020,-0.007677,0.004756,0.05,-0.23,9.97
68350425,0.002085,-0.006611,0.002626,0.05,-0.25,9.86
68351427,0.006346,-0.003416,0.000495,0.02,-0.22,9.90
68352437,0.016999,-0.000220,0.000495,0.00,-0.22,9.88
68353461,0.001020,0.002976,0.003691,-0.02,-0.26,9.85
68354458,-0.005372,0.013629,0.006887,-0.04,-0.26,9.86
68355475,0.006346,0.015759,0.004756,-0.04,-0.25,9.81
68356477,0.003151,0.008303,-0.000570,0.00,-0.25,9.75
68357487,0.001020,-0.000220,-0.000570,-0.01,-0.27,9.72
68358497,0.011673,0.000846,0.001560,-0.03,-0.25,9.74
68359507,0.006346,0.005107,0.002626,-0.02,-0.25,9.74
68360525,0.004216,0.007237,0.003691,-0.03,-0.28,9.68
68361527,0.015934,0.010433,0.002626,-0.04,-0.24,9.64
68362537,0.002085,0.005107,-0.000570,-0.07,-0.23,9.61
68363562,-0.019220,-0.003416,0.001560,-0.08,-0.26,9.61
68364558,-0.008568,-0.004481,0.002626,-0.12,-0.24,9.61
68365580,0.003151,0.000846,-0.000570,-0.10,-0.26,9.59
68366582,-0.013894,-0.000220,-0.002701,-0.10,-0.28,9.59
68367602,-0.023481,-0.007677,0.000495,-0.10,-0.29,9.62
68368603,0.014869,-0.002350,0.004756,-0.10,-0.23,9.69
68369620,-0.004306,-0.005546,-0.000570,-0.11,-0.27,9.67
68370636,-0.019220,-0.016199,-0.003766,-0.08,-0.26,9.63
68371635,-0.008568,-0.015134,-0.000570,-0.06,-0.25,9.62
68372651,0.013803,-0.004481,0.000495,-0.06,-0.28,9.68
68373680,0.008477,0.000846,-0.001636,-0.03,-0.27,9.68
68374676,-0.008568,-0.002350,-0.001636,-0.03,-0.26,9.64
68375684,-0.017090,-0.002350,0.001560,-0.05,-0.27,9.65
68376690,-0.004306,0.000846,0.001560,-0.06,-0.25,9.70
68377693,0.023391,0.004041,0.001560,-0.08,-0.27,9.75
68378706,0.022326,0.007237,0.001560,-0.10,-0.30,9.72
68379717,-0.007502,0.007237,0.000495,-0.08,-0.26,9.71
68380736,-0.020286,0.005107,0.000495,-0.09,-0.21,9.73
68381736,-0.007502,0.002976,0.002626,-0.09,-0.24,9.76
68382746,0.012738,0.000846,0.004756,-0.08,-0.25,9.74
68383766,0.028717,-0.000220,0.001560,-0.08,-0.25,9.74
68384762,0.026587,0.001911,-0.002701,-0.03,-0.26,9.79
68385775,-0.000045,0.002976,-0.004831,-0.02,-0.24,9.78
68386781,-0.021351,-0.000220,-0.001636,-0.04,-0.28,9.72
68387803,-0.020286,-0.002350,0.003691,-0.02,-0.30,9.71
68388801,-0.000045,-0.000220,0.005821,-0.03,-0.26,9.77
68389809,0.021260,0.000846,0.003691,-0.04,-0.24,9.76
68390825,0.030848,-0.001285,0.002626,-0.01,-0.26,9.77
68391827,0.016999,-0.002350,0.002626,-0.02,-0.28,9.78
68392851,-0.004306,-0.000220,0.002626,-0.05,-0.26,9.72
68393848,-0.013894,-0.001285,0.001560,-0.07,-0.29,9.76
68394857,-0.009633,-0.004481,0.001560,-0.07,-0.29,9.84
68395875,0.001020,-0.005546,0.003691,-0.06,-0.28,9.82
68396877,-0.002176,-0.002350,0.003691,-0.08,-0.29,9.81
68397887,-0.008568,-0.003416,0.000495,-0.09,-0.31,9.80
68398897,-0.001111,-0.008742,-0.002701,-0.11,-0.29,9.79
68399907,-0.003241,-0.006611,-0.001636,-0.12,-0.28,9.79
68400925,-0.006437,-0.002350,-0.001636,-0.08,-0.26,9.85
68401927,-0.005372,-0.002350,-0.002701,-0.05,-0.26,9.94
68402952,-0.002176,-0.001285,-0.002701,-0.04,-0.32,9.95
68403948,0.006346,-0.000220,-0.002701,-0.03,-0.26,9.92
68404957,0.008477,0.002976,-0.001636,-0.02,-0.21,9.91
68405975,0.009542,0.000846,-0.000570,-0.01,-0.23,9.94
68406977,0.006346,-0.000220,0.000495,0.05,-0.27,9.98
68407987,0.005281,-0.000220,0.000495,0.07,-0.27,10.05
68408997,0.003151,0.002976,-0.000570,0.06,-0.27,10.05
68410007,-0.000045,-0.002350,0.000495,0.07,-0.27,10.06
68411025,0.001020,-0.003416,0.001560,0.10,-0.27,10.04
68412027,0.005281,0.001911,0.001560,0.12,-0.27,10.00
68413051,-0.000045,0.002976,0.001560,0.15,-0.25,10.02
68414048,-0.003241,0.005107,0.000495,0.22,-0.27,9.95
68415057,-0.002176,0.001911,0.002626,0.26,-0.30,9.90
68416075,-0.009633,-0.005546,0.001560,0.25,-0.30,9.90
68417077,-0.009633,-0.004481,0.000495,0.24,-0.28,9.98
68418087,0.002085,-0.004481,0.000495,0.25,-0.27,10.06
68419097,0.003151,-0.009807,0.001560,0.27,-0.29,10.10
68420107,-0.008568,-0.006611,-0.001636,0.26,-0.31,10.06
68421125,-0.004306,0.001911,-0.004831,0.23,-0.34,9.96
68422127,0.005281,0.000846,-0.003766,0.23,-0.33,9.99
68423152,0.008477,0.000846,-0.000570,0.21,-0.32,10.06
68424148,0.007412,0.004041,0.000495,0.17,-0.31,10.09
68425157,-0.001111,0.005107,-0.000570,0.15,-0.25,10.09
68426175,0.003151,0.004041,0.000495,0.11,-0.22,10.10
68427177,0.001020,0.000846,0.003691,0.07,-0.24,10.09
68428187,0.005281,0.002976,0.003691,0.06,-0.26,10.08
68429197,-0.000045,0.001911,0.001560,0.05,-0.23,10.01
68430207,0.008477,0.001911,0.001560,0.02,-0.22,9.93
68431225,-0.000045,-0.002350,0.001560,-0.04,-0.22,9.90
68432227,-0.007502,-0.004481,0.001560,-0.02,-0.22,9.85
68433251,-0.023481,-0.005546,-0.001636,0.01,-0.23,9.84
68434248,-0.023481,-0.010873,-0.001636,-0.04,-0.23,9.76
68435257,-0.006437,-0.011938,-0.000570,-0.06,-0.29,9.70
68436275,-0.007502,-0.008742,-0.000570,-0.04,-0.30,9.69
68437277,-0.008568,-0.000220,0.000495,-0.07,-0.27,9.65
68438287,-0.011763,0.006172,0.001560,-0.10,-0.27,9.63
68439297,0.002085,0.001911,0.000495,-0.12,-0.26,9.58
68440307,0.013803,-0.002350,-0.000570,-0.13,-0.29,9.59
68441325,0.005281,-0.004481,-0.001636,-0.11,-0.28,9.55
68442327,0.002085,-0.007677,-0.000570,-0.15,-0.26,9.47
68443352,-0.002176,-0.007677,0.001560,-0.19,-0.25,9.46
68444348,-0.003241,-0.000220,0.003691,-0.18,-0.28,9.43
68445357,-0.001111,0.009368,0.002626,-0.17,-0.29,9.49
68446375,-0.000045,0.011498,0.002626,-0.17,-0.26,9.51
68447377,0.006346,0.013629,0.003691,-0.22,-0.27,9.44
68448387,0.006346,0.012564,0.004756,-0.23,-0.27,9.49
68449397,0.006346,0.011498,0.004756,-0.20,-0.28,9.53
68450407,-0.000045,0.005107,0.003691,-0.20,-0.25,9.54
68451425,-0.004306,-0.000220,-0.000570,-0.23,-0.26,9.60
68452427,-0.002176,-0.002350,-0.001636,-0.24,-0.25,9.67
68453451,-0.004306,-0.004481,-0.001636,-0.25,-0.28,9.69
68454448,-0.000045,-0.004481,-0.000570,-0.20,-0.30,9.79
68455457,-0.003241,-0.007677,0.000495,-0.14,-0.31,9.86
68456502,-0.010698,-0.004481,-0.001636,-0.13,-0.33,9.88
68457477,-0.008568,0.000846,-0.001636,-0.09,-0.32,9.91
68458487,-0.003241,0.000846,-0.001636,-0.05,-0.34,9.93
68459497,-0.001111,0.002976,-0.002701,0.00,-0.31,9.99
68460507,0.003151,0.004041,-0.003766,0.03,-0.28,9.97
68461525,0.004216,-0.005546,-0.001636,0.05,-0.25,9.98
68462527,-0.005372,-0.010873,-0.001636,0.09,-0.25,9.98
68463552,-0.009633,-0.009807,-0.003766,0.10,-0.25,10.05
68464548,-0.011763,-0.007677,-0.003766,0.10,-0.24,10.07
68465557,-0.005372,-0.004481,-0.002701,0.12,-0.23,10.02
68466581,-0.002176,-0.006611,-0.000570,0.16,-0.24,9.96
68467585,0.006346,-0.007677,0.001560,0.15,-0.26,9.93
68468598,0.005281,-0.008742,0.002626,0.15,-0.25,9.93
68469602,-0.001111,-0.013003,0.000495,0.14,-0.23,9.94
68470622,-0.006437,-0.016199,0.000495,0.17,-0.22,9.93
68471634,-0.017090,-0.016199,-0.001636,0.16,-0.26,9.87
68472634,-0.009633,-0.013003,-0.001636,0.16,-0.28,9.78
68473673,-0.004306,-0.007677,-0.002701,0.13,-0.23,9.85
68474659,-0.010698,-0.003416,-0.001636,0.13,-0.26,9.86
68475672,-0.007502,0.002976,-0.000570,0.16,-0.25,9.88
68476703,-0.016024,0.004041,-0.002701,0.11,-0.22,9.95
68477691,-0.018155,-0.000220,-0.003766,0.12,-0.26,9.88
68478693,-0.006437,-0.005546,-0.003766,0.14,-0.24,9.90
68479706,-0.003241,-0.006611,-0.002701,0.12,-0.22,9.91
68480717,0.001020,-0.003416,0.001560,0.15,-0.21,9.92
68481737,0.007412,0.001911,0.001560,0.14,-0.22,10.00
68482736,0.006346,0.008303,-0.000570,0.13,-0.23,10.00
68483761,0.007412,0.011498,-0.000570,0.13,-0.20,10.05
68484753,0.006346,0.004041,-0.000570,0.09,-0.22,10.04
68485761,0.003151,-0.004481,0.000495,0.08,-0.24,10.00
68486789,0.004216,-0.003416,0.004756,0.07,-0.24,10.02
68487785,0.001020,-0.004481,0.005821,0.06,-0.22,10.02
68488791,-0.001111,-0.002350,0.003691,0.05,-0.20,10.05
68489801,-0.005372,-0.002350,0.001560,0.03,-0.22,10.00
68490809,-0.007502,-0.002350,0.000495,0.04,-0.23,9.92
68491825,-0.007502,-0.003416,0.000495,0.01,-0.21,9.87
68492842,-0.004306,-0.004481,-0.000570,-0.03,-0.23,9.87
68493838,-0.000045,-0.004481,-0.000570,-0.04,-0.28,9.84
68494847,0.001020,-0.005546,0.001560,-0.05,-0.30,9.74
68495857,-0.005372,-0.006611,0.000495,-0.09,-0.30,9.62
68496889,-0.000045,-0.006611,0.001560,-0.12,-0.32,9.54
68497877,-0.000045,-0.004481,0.001560,-0.14,-0.33,9.43
68498887,0.005281,-0.000220,-0.000570,-0.17,-0.35,9.35
68499897,0.007412,-0.000220,-0.001636,-0.19,-0.34,9.34
68500907,0.004216,0.004041,-0.001636,-0.19,-0.33,9.30
68501925,0.007412,0.011498,0.000495,-0.19,-0.31,9.30
68502942,0.010608,0.013629,0.001560,-0.21,-0.26,9.41
68503938,0.021260,0.009368,0.001560,-0.22,-0.28,9.43
68504947,0.022326,0.002976,0.001560,-0.20,-0.29,9.44
68505972,0.022326,0.002976,0.003691,-0.22,-0.28,9.47
68506975,0.020195,0.002976,0.003691,-0.22,-0.25,9.59
68507977,0.019130,-0.000220,0.003691,-0.19,-0.27,9.65
68508987,0.011673,-0.009807,0.002626,-0.16,-0.27,9.69
68509997,0.006346,-0.011938,0.002626,-0.17,-0.22,9.72
68511007,0.007412,-0.011938,0.003691,-0.16,-0.24,9.74
68512025,0.010608,-0.010873,0.003691,-0.17,-0.26,9.80
68513042,0.004216,-0.011938,0.001560,-0.18,-0.26,9.79
68514038,0.003151,-0.005546,0.001560,-0.14,-0.24,9.83
68515047,0.001020,0.000846,0.000495,-0.05,-0.28,9.84
68516072,-0.004306,0.002976,0.000495,-0.06,-0.28,9.91
68517075,-0.004306,0.006172,-0.000570,-0.05,-0.29,9.90
68518077,-0.004306,0.007237,-0.001636,-0.02,-0.32,9.87
68519087,-0.002176,0.001911,-0.003766,-0.02,-0.26,9.94
68520097,-0.005372,-0.005546,-0.001636,0.01,-0.26,9.92
68521107,-0.008568,-0.004481,0.002626,0.00,-0.30,9.89
68522125,-0.005372,0.002976,0.004756,-0.01,-0.27,9.94
68523142,-0.002176,0.007237,0.002626,0.01,-0.26,10.00
68524138,0.003151,0.008303,0.001560,0.04,-0.27,10.02
68525147,0.001020,0.007237,0.001560,0.03,-0.24,9.98
68526172,-0.001111,0.007237,0.003691,0.05,-0.19,10.00
68527175,-0.002176,0.008303,0.005821,0.11,-0.24,10.00
68528177,-0.004306,0.005107,0.005821,0.13,-0.25,9.98
68529187,-0.003241,0.001911,0.004756,0.17,-0.24,10.00
68530197,-0.006437,-0.004481,0.002626,0.21,-0.25,9.95
68531207,-0.006437,-0.009807,0.000495,0.23,-0.24,9.95
68532225,0.001020,-0.013003,0.000495,0.25,-0.22,9.96
68533242,0.001020,-0.009807,-0.000570,0.24,-0.17,9.94
68534238,0.002085,-0.003416,-0.000570,0.22,-0.22,9.95
68535247,0.004216,-0.002350,0.000495,0.25,-0.26,9.92
68536272,0.001020,0.005107,-0.000570,0.27,-0.26,9.94
68537275,-0.001111,0.007237,-0.001636,0.28,-0.24,9.99
68538277,-0.006437,-0.002350,-0.001636,0.28,-0.24,10.04
68539287,-0.014959,-0.009807,-0.002701,0.24,-0.24,10.07
68540297,-0.003241,-0.001285,-0.003766,0.18,-0.29,10.05
68541307,0.009542,0.009368,-0.001636,0.17,-0.29,10.10
68542325,0.006346,0.014694,-0.000570,0.13,-0.28,10.16
68543342,0.003151,0.015759,-0.002701,0.06,-0.26,10.14
68544338,-0.006437,0.013629,-0.002701,0.01,-0.26,10.05
68545347,-0.006437,0.013629,0.000495,-0.01,-0.27,10.02
68546372,-0.007502,0.008303,0.002626,0.03,-0.28,9.92
68547375,-0.004306,0.007237,0.000495,-0.01,-0.26,9.80
68548377,-0.005372,0.002976,-0.000570,-0.06,-0.26,9.80
68549387,0.001020,0.002976,0.000495,-0.05,-0.29,9.72
68550397,-0.004306,0.002976,0.000495,-0.07,-0.29,9.62
68551407,-0.005372,0.002976,0.000495,-0.08,-0.28,9.59
68552425,-0.013894,0.005107,-0.000570,-0.09,-0.28,9.61
68553442,-0.010698,0.007237,0.000495,-0.13,-0.30,9.61
68554438,0.003151,0.009368,-0.000570,-0.14,-0.30,9.57
68555447,-0.001111,0.005107,-0.003766,-0.14,-0.28,9.52
68556496,-0.003241,-0.000220,-0.004831,-0.12,-0.28,9.49
68557475,-0.003241,-0.006611,-0.003766,-0.14,-0.28,9.51
68558477,-0.001111,-0.004481,-0.001636,-0.14,-0.25,9.56
68559487,0.014869,0.004041,0.002626,-0.13,-0.23,9.55
68560497,0.015934,0.009368,0.003691,-0.13,-0.23,9.59
68561507,0.009542,0.011498,0.001560,-0.16,-0.25,9.57
68562559,0.011673,0.004041,-0.000570,-0.17,-0.26,9.57
68563544,0.009542,-0.002350,0.001560,-0.15,-0.27,9.62
68564538,0.004216,-0.004481,0.004756,-0.17,-0.26,9.60
68565547,-0.003241,-0.003416,0.004756,-0.20,-0.26,9.61
68566575,-0.005372,-0.001285,0.004756,-0.18,-0.27,9.59
68567583,-0.006437,0.001911,0.004756,-0.19,-0.28,9.63
68568582,-0.004306,0.004041,0.003691,-0.21,-0.24,9.71
68569596,0.007412,0.006172,0.001560,-0.20,-0.27,9.77
68570603,0.002085,0.002976,0.000495,-0.13,-0.28,9.82
68571620,-0.007502,0.005107,-0.001636,-0.11,-0.27,9.81
68572636,-0.006437,0.008303,-0.001636,-0.14,-0.24,9.83
68573653,-0.004306,0.009368,-0.001636,-0.10,-0.26,9.84
68574654,0.001020,0.010433,-0.003766,-0.05,-0.30,9.86
68575659,0.005281,0.009368,-0.004831,-0.02,-0.25,9.90
68576688,0.008477,0.013629,-0.002701,0.00,-0.28,9.95
68577684,0.010608,0.014694,-0.001636,-0.01,-0.29,9.99
68578690,0.006346,0.013629,-0.000570,0.02,-0.25,9.97
68579693,0.008477,0.010433,-0.003766,0.03,-0.25,9.97
68580706,0.007412,0.007237,-0.005897,0.03,-0.23,9.96
68581717,0.009542,0.002976,-0.003766,0.01,-0.25,10.02
68582736,0.007412,0.000846,-0.001636,0.04,-0.25,10.04
68583752,0.004216,-0.002350,0.001560,0.11,-0.29,10.01
68584747,0.002085,-0.005546,0.002626,0.09,-0.29,10.01
68585751,-0.003241,-0.007677,0.002626,0.07,-0.27,9.87
68586776,-0.001111,-0.010873,0.002626,0.08,-0.24,9.90
68587785,-0.007502,-0.010873,0.001560,0.12,-0.27,9.95
68588781,-0.007502,-0.009807,0.000495,0.14,-0.27,9.92
68589791,-0.010698,-0.005546,-0.001636,0.10,-0.25,9.91
68590801,-0.007502,-0.001285,-0.000570,0.09,-0.27,9.89
68591809,-0.003241,0.004041,0.002626,0.16,-0.25,9.91
68592839,-0.002176,0.008303,0.002626,0.19,-0.23,9.91
68593828,-0.001111,0.007237,-0.000570,0.17,-0.19,9.89
68594837,0.006346,0.009368,-0.001636,0.19,-0.19,9.89
68595847,0.011673,0.010433,0.000495,0.22,-0.20,9.87
68596872,0.006346,0.010433,0.001560,0.21,-0.22,9.91
68597875,0.007412,0.009368,0.001560,0.22,-0.23,9.97
68598877,0.005281,0.007237,0.000495,0.24,-0.24,9.98
68599887,0.004216,0.008303,0.001560,0.22,-0.24,10.04
68600897,-0.001111,0.000846,0.001560,0.21,-0.24,10.05
68601907,-0.013894,-0.002350,0.002626,0.20,-0.23,10.12
68602939,-0.008568,-0.000220,0.002626,0.16,-0.21,10.19
68603928,-0.006437,0.004041,0.001560,0.09,-0.23,10.17
68604937,0.005281,0.005107,-0.000570,0.05,-0.24,10.12
68605962,0.004216,-0.001285,-0.000570,0.04,-0.20,10.01
68606957,0.010608,-0.003416,0.001560,0.04,-0.21,9.96
68607975,0.003151,-0.007677,0.003691,0.02,-0.20,9.94
68608977,0.009542,-0.007677,0.001560,-0.02,-0.24,9.83
68609987,-0.006437,-0.006611,-0.000570,-0.04,-0.25,9.82
68610997,-0.013894,-0.006611,-0.001636,-0.03,-0.24,9.81
68612007,-0.017090,-0.003416,-0.003766,-0.04,-0.27,9.71
68613039,-0.009633,-0.004481,-0.003766,-0.07,-0.25,9.63
68614028,0.014869,-0.004481,-0.001636,-0.08,-0.30,9.62
68615037,0.008477,-0.002350,-0.000570,-0.09,-0.32,9.64
68616062,0.001020,0.001911,0.000495,-0.10,-0.28,9.62
68617057,0.004216,0.008303,0.000495,-0.10,-0.28,9.57
68618075,-0.007502,0.010433,0.000495,-0.10,-0.27,9.59
68619077,-0.005372,0.010433,0.000495,-0.11,-0.25,9.58
