time_us,gyro_x_rad_s,gyro_y_rad_s,gyro_z_rad_s,acc_x_m_s2,acc_y_m_s2,acc_z_m_s2
41759724,-0.001301,-0.000672,-0.001972,0.03,-0.29,9.87
41760539,-0.001301,-0.001737,0.000159,0.00,-0.31,9.82
41762286,0.000830,-0.001737,0.001224,-0.01,-0.32,9.78
41763324,0.002960,-0.000672,0.001224,0.03,-0.32,9.81
41764318,0.001895,0.002524,0.000159,0.01,-0.31,9.78
41765327,-0.000235,0.003589,0.000159,0.00,-0.29,9.81
41766337,0.000830,0.002524,0.001224,0.04,-0.29,9.84
41767347,0.000830,0.001458,0.003354,0.04,-0.32,9.82
41768361,0.000830,0.000393,0.002289,-0.01,-0.33,9.82
41769390,0.001895,-0.000672,0.001224,-0.01,-0.28,9.85
41770379,0.002960,0.000393,-0.000907,0.03,-0.29,9.85
41771387,0.002960,0.001458,-0.001972,0.04,-0.32,9.84
41772397,0.002960,0.002524,-0.003037,0.01,-0.31,9.84
41773424,0.000830,0.002524,-0.000907,0.01,-0.31,9.82
41774417,0.000830,0.000393,-0.000907,0.00,-0.32,9.82
41775425,0.002960,-0.000672,0.001224,-0.02,-0.32,9.84
41776435,0.001895,0.000393,0.002289,-0.01,-0.33,9.82
41777445,-0.002366,0.001458,0.000159,0.01,-0.32,9.80
41778483,-0.001301,-0.000672,-0.000907,0.01,-0.30,9.82
41779470,0.001895,-0.000672,-0.000907,0.00,-0.29,9.85
41780478,0.002960,-0.000672,0.001224,0.01,-0.26,9.83
41781488,0.001895,-0.000672,0.002289,0.01,-0.28,9.85
41782506,-0.000235,0.000393,0.000159,0.00,-0.34,9.85
41783522,-0.001301,0.002524,0.000159,0.01,-0.34,9.79
41784518,0.001895,0.002524,0.001224,0.01,-0.31,9.77
41785527,0.001895,0.001458,-0.000907,0.04,-0.28,9.88
41786537,0.001895,0.000393,0.000159,0.07,-0.29,9.89
41787547,0.000830,-0.000672,0.000159,0.00,-0.31,9.89
41788580,0.000830,-0.000672,0.002289,-0.04,-0.31,9.93
41789569,-0.000235,-0.000672,0.003354,0.00,-0.31,9.88
41790577,0.001895,0.001458,0.001224,0.02,-0.32,9.82
41791587,0.004026,0.000393,0.000159,-0.02,-0.33,9.83
41792597,0.002960,-0.001737,0.002289,-0.01,-0.30,9.84
41793623,0.004026,-0.001737,0.002289,0.01,-0.31,9.84
41794617,0.004026,-0.000672,-0.000907,-0.03,-0.34,9.82
41795625,0.002960,0.000393,-0.001972,-0.05,-0.34,9.81
41796635,0.001895,-0.000672,-0.001972,-0.01,-0.33,9.84
41797645,0.001895,-0.001737,-0.001972,0.03,-0.30,9.86
41798683,0.001895,-0.000672,-0.003037,0.03,-0.26,9.86
41799670,0.001895,-0.000672,-0.003037,0.03,-0.29,9.86
41800678,0.000830,-0.000672,-0.000907,0.03,-0.32,9.75
41801688,0.000830,-0.000672,0.000159,0.02,-0.32,9.73
41802698,0.001895,0.000393,0.000159,0.04,-0.31,9.82
41803722,0.001895,0.001458,0.001224,0.05,-0.32,9.82
41804718,0.001895,0.003589,0.000159,0.02,-0.32,9.83
41805727,0.001895,0.003589,0.000159,0.02,-0.32,9.85
41806737,0.001895,0.002524,0.002289,0.04,-0.33,9.81
41807747,0.000830,0.000393,0.002289,0.03,-0.31,9.81
41808780,-0.001301,-0.002803,0.000159,0.04,-0.31,9.85
41809769,-0.000235,-0.002803,0.000159,0.03,-0.30,9.86
41810777,-0.000235,-0.001737,0.000159,0.05,-0.29,9.84
41811787,-0.000235,-0.000672,0.000159,0.04,-0.30,9.82
41812797,0.000830,-0.000672,-0.000907,0.01,-0.34,9.85
41813823,-0.000235,0.001458,-0.000907,0.02,-0.32,9.87
41814817,-0.002366,0.001458,0.000159,0.03,-0.31,9.85
41815825,-0.002366,-0.000672,0.002289,0.04,-0.31,9.81
41816835,-0.003431,-0.003868,0.002289,0.04,-0.28,9.85
41817845,-0.003431,-0.003868,0.000159,0.04,-0.28,9.89
41818883,-0.002366,0.000393,-0.001972,0.03,-0.31,9.87
41819870,-0.002366,0.002524,-0.001972,0.00,-0.28,9.82
41820878,-0.003431,0.003589,0.000159,0.00,-0.28,9.83
41821888,-0.001301,0.002524,0.002289,0.03,-0.28,9.82
41822911,0.001895,0.000393,0.002289,0.01,-0.29,9.84
41823913,0.004026,-0.001737,0.002289,-0.01,-0.30,9.83
41824921,0.002960,-0.002803,0.002289,0.02,-0.28,9.84
41825937,0.000830,-0.001737,0.000159,0.03,-0.28,9.85
41826941,-0.000235,0.001458,0.000159,0.02,-0.28,9.83
41827954,0.000830,0.001458,0.000159,0.02,-0.33,9.86
41828990,0.002960,0.000393,0.000159,0.02,-0.31,9.89
41829977,0.001895,0.002524,0.000159,0.02,-0.30,9.88
41830990,-0.001301,0.002524,0.000159,0.02,-0.33,9.87
41831998,-0.003431,0.001458,0.001224,0.02,-0.32,9.88
41833018,-0.002366,-0.000672,0.002289,0.03,-0.29,9.85
41834030,0.000830,-0.002803,0.002289,0.05,-0.28,9.82
41835026,0.001895,-0.001737,0.002289,0.03,-0.29,9.80
41836035,0.000830,0.000393,0.002289,0.02,-0.30,9.81
41837048,-0.000235,0.001458,0.001224,0.02,-0.32,9.82
41838054,-0.000235,0.000393,0.000159,0.01,-0.34,9.82
41839099,-0.001301,-0.002803,-0.000907,0.01,-0.32,9.82
41840076,-0.001301,-0.001737,-0.001972,0.00,-0.30,9.81
41841087,0.000830,-0.001737,-0.003037,0.02,-0.31,9.79
41842094,0.001895,-0.002803,-0.000907,0.00,-0.30,9.84
41843111,-0.000235,-0.003868,0.002289,-0.02,-0.29,9.89
41844113,-0.004496,-0.001737,0.002289,0.00,-0.31,9.85
41845117,-0.004496,-0.000672,0.001224,0.00,-0.32,9.86
41846131,-0.001301,-0.000672,-0.001972,-0.01,-0.31,9.87
41847140,-0.000235,-0.002803,-0.003037,-0.01,-0.30,9.85
41848149,0.001895,-0.001737,-0.000907,0.00,-0.28,9.82
41849182,0.002960,0.001458,0.001224,0.02,-0.28,9.82
41850169,0.001895,0.001458,0.000159,0.04,-0.31,9.86
41851177,0.000830,-0.000672,-0.000907,0.02,-0.32,9.88
41852187,0.000830,-0.000672,-0.000907,-0.02,-0.30,9.87
41853206,-0.001301,0.000393,-0.000907,-0.01,-0.30,9.83
41854214,-0.004496,-0.000672,-0.000907,0.01,-0.29,9.81
41855215,-0.004496,-0.003868,-0.004103,0.03,-0.29,9.80
41856225,-0.001301,-0.004933,-0.005168,0.05,-0.28,9.81
41857235,0.000830,-0.003868,-0.004103,0.03,-0.28,9.88
41858245,0.000830,-0.000672,-0.000907,0.02,-0.29,9.94
41859282,0.001895,0.002524,0.000159,0.03,-0.31,9.90
41860270,0.000830,0.004654,0.001224,0.02,-0.29,9.86
41861278,-0.001301,0.002524,0.000159,0.02,-0.27,9.85
41862288,0.000830,-0.000672,-0.000907,0.01,-0.29,9.82
41863298,0.005091,-0.001737,-0.001972,0.00,-0.30,9.83
41864312,0.004026,-0.003868,-0.003037,0.01,-0.29,9.83
41865318,0.000830,-0.002803,-0.001972,0.01,-0.29,9.83
41866328,-0.002366,-0.000672,0.001224,0.00,-0.31,9.81
41867338,-0.003431,0.000393,0.002289,-0.01,-0.29,9.83
41868348,-0.001301,0.000393,0.001224,0.01,-0.25,9.84
41869373,0.000830,0.000393,-0.001972,0.01,-0.27,9.83
41870368,0.000830,0.002524,-0.003037,0.03,-0.31,9.84
41871375,-0.000235,0.002524,-0.001972,0.03,-0.34,9.88
41872385,-0.000235,0.000393,-0.000907,0.00,-0.34,9.87
41873428,0.000773,-0.001746,-0.001966,0.01,-0.31,9.85
41874413,0.001838,-0.000680,-0.001966,0.04,-0.32,9.84
41875415,0.001838,0.001450,-0.000901,0.04,-0.31,9.83
41876425,0.002904,0.002515,0.000165,0.05,-0.30,9.84
41877435,0.002904,-0.000680,-0.000901,0.04,-0.32,9.83
41878468,-0.000292,-0.002811,-0.000901,0.00,-0.32,9.82
41879465,-0.001357,-0.004941,0.000165,0.02,-0.28,9.83
41880468,-0.000292,-0.002811,0.001230,0.01,-0.28,9.82
41881478,0.000773,-0.002811,0.002295,-0.01,-0.31,9.80
41882488,-0.000292,-0.001746,0.003360,0.03,-0.32,9.80
41883498,-0.001357,0.000385,0.004426,0.04,-0.31,9.81
41884512,-0.003488,0.001450,0.002295,0.03,-0.32,9.79
41885518,-0.002423,0.001450,0.000165,0.02,-0.32,9.79
41886528,0.000773,0.000385,-0.001966,0.03,-0.28,9.78
41887538,0.001838,-0.001746,-0.001966,0.03,-0.31,9.78
41888563,0.000773,-0.002811,-0.003031,0.04,-0.31,9.78
41889562,-0.000292,-0.002811,-0.004097,0.03,-0.29,9.84
41890565,-0.001357,-0.001746,-0.001966,0.01,-0.29,9.90
41891576,-0.002423,-0.001746,0.001230,0.02,-0.33,9.89
41892585,-0.004553,-0.003876,0.001230,0.05,-0.31,9.89
41893595,-0.002423,-0.002811,-0.000901,0.05,-0.32,9.90
41894614,0.000773,-0.000680,-0.001966,-0.02,-0.33,9.90
41895615,0.000773,0.000385,-0.000901,-0.01,-0.30,9.86
41896625,0.001838,0.000385,-0.000901,0.04,-0.28,9.82
41897635,0.002904,-0.001746,0.000165,0.02,-0.29,9.84
41898667,0.003969,-0.002811,0.000165,-0.02,-0.32,9.84
41899666,0.001838,-0.001746,-0.001966,-0.03,-0.33,9.83
41900668,0.000773,0.002515,-0.001966,0.00,-0.33,9.84
41901678,-0.000292,0.003581,-0.000901,-0.01,-0.31,9.86
41902688,-0.000292,0.001450,0.002295,-0.01,-0.32,9.85
41903698,-0.000292,-0.001746,0.002295,0.02,-0.34,9.85
41904712,0.001838,-0.002811,0.001230,0.02,-0.36,9.87
41905718,0.003969,-0.002811,-0.000901,-0.01,-0.35,9.86
41906728,0.003969,-0.002811,0.000165,-0.02,-0.33,9.82
41907738,0.003969,-0.002811,0.000165,0.02,-0.32,9.79
41908762,0.003969,-0.001746,0.000165,0.03,-0.31,9.81
41909764,0.003969,0.001450,-0.000901,0.02,-0.31,9.82
41910765,0.002904,0.001450,-0.001966,0.02,-0.31,9.85
41911775,0.000773,0.002515,-0.001966,0.00,-0.28,9.89
41912785,0.000773,0.002515,-0.001966,0.02,-0.28,9.87
41913795,0.001838,0.000385,-0.000901,0.04,-0.31,9.86
41914813,0.000773,0.000385,0.000165,0.04,-0.31,9.85
41915815,0.000773,0.001450,0.001230,0.02,-0.30,9.86
41916825,0.001838,0.002515,0.001230,-0.01,-0.31,9.83
41917835,0.002904,0.003581,0.001230,0.01,-0.28,9.78
41918868,0.001838,0.002515,0.002295,0.06,-0.27,9.79
41919865,0.001838,0.002515,0.000165,0.04,-0.30,9.80
41920868,0.000773,0.002515,-0.000901,-0.02,-0.29,9.84
41921878,-0.001357,0.001450,0.000165,0.01,-0.29,9.86
41922888,-0.002423,0.001450,0.000165,0.02,-0.31,9.87
41923900,-0.002423,0.001450,-0.000901,0.02,-0.33,9.89
41924913,-0.002423,0.000385,-0.001966,0.03,-0.33,9.86
41925924,-0.001357,-0.001746,-0.000901,0.01,-0.31,9.84
41926937,0.000773,-0.001746,-0.000901,0.00,-0.31,9.81
41927944,0.000773,-0.001746,-0.000901,0.02,-0.32,9.83
41928974,0.000773,-0.002811,0.001230,0.04,-0.29,9.85
41929967,0.000773,-0.002811,0.002295,0.02,-0.28,9.88
41930977,-0.002423,-0.001746,0.002295,0.03,-0.29,9.86
41931990,-0.004553,0.000385,0.000165,0.03,-0.30,9.78
41933001,-0.003488,0.001450,-0.000901,0.05,-0.33,9.79
41934009,0.000773,0.000385,0.001230,0.05,-0.31,9.80
41935027,0.001838,0.000385,0.002295,0.01,-0.31,9.80
41936025,0.001838,0.000385,0.001230,0.01,-0.33,9.81
41937032,-0.000292,0.000385,-0.000901,0.04,-0.31,9.84
41938045,-0.001357,0.000385,-0.000901,0.00,-0.31,9.81
41939080,0.000773,-0.000680,0.000165,0.00,-0.31,9.80
41940076,0.001838,-0.000680,0.001230,0.03,-0.29,9.83
41941076,-0.000292,0.000385,0.002295,0.01,-0.30,9.83
41942089,-0.002423,-0.000680,0.003360,0.01,-0.31,9.84
41943092,-0.002423,-0.002811,0.004426,0.03,-0.30,9.86
41944102,-0.001357,-0.003876,0.003360,0.01,-0.30,9.87
41945113,-0.000292,-0.001746,0.000165,-0.02,-0.31,9.85
41946118,0.000773,0.000385,-0.001966,0.01,-0.30,9.86
41947132,0.000773,0.000385,-0.001966,0.02,-0.31,9.84
41948141,0.001838,0.000385,-0.001966,0.00,-0.34,9.79
41949164,0.001838,0.001450,0.000165,-0.02,-0.36,9.81
41950165,-0.001357,0.000385,0.000165,-0.02,-0.36,9.87
41951165,-0.001357,-0.000680,0.000165,0.01,-0.30,9.92
41952175,-0.001357,-0.000680,-0.000901,0.02,-0.30,9.86
41953185,-0.002423,-0.001746,0.001230,0.02,-0.34,9.77
41954195,-0.001357,-0.002811,0.002295,0.03,-0.33,9.75
41955213,0.000773,-0.002811,0.002295,0.01,-0.31,9.78
41956215,-0.001357,-0.001746,0.002295,-0.01,-0.32,9.80
41957225,-0.003488,-0.001746,0.000165,0.01,-0.34,9.80
41958235,-0.002423,-0.000680,0.001230,0.00,-0.34,9.79
41959268,0.001838,0.000385,0.001230,0.00,-0.32,9.81
41960265,0.000773,-0.000680,0.000165,0.04,-0.29,9.84
41961268,-0.002423,-0.002811,-0.000901,0.05,-0.29,9.84
41962278,-0.003488,-0.001746,0.000165,0.01,-0.28,9.83
41963288,-0.000292,-0.000680,-0.000901,-0.02,-0.32,9.81
41964298,0.002904,0.000385,-0.000901,-0.01,-0.33,9.85
41965312,0.003969,0.000385,0.000165,0.02,-0.29,9.86
41966318,0.000773,-0.000680,0.000165,0.01,-0.30,9.86
41967328,-0.000292,-0.000680,-0.000901,0.02,-0.31,9.86
41968338,-0.000292,-0.003876,-0.001966,0.04,-0.32,9.85
41969363,-0.000292,-0.004941,-0.000901,0.01,-0.32,9.83
41970362,0.001838,-0.002811,0.000165,0.02,-0.32,9.83
41971365,0.002904,-0.000680,-0.000901,0.00,-0.33,9.85
41972375,0.002904,0.000385,-0.001966,-0.02,-0.32,9.82
41973385,0.001838,0.000385,-0.001966,0.01,-0.29,9.80
41974395,0.000773,-0.000680,-0.001966,0.02,-0.28,9.75
41975414,0.000773,-0.001746,-0.001966,-0.01,-0.30,9.74
41976415,0.000773,-0.002811,-0.001966,0.00,-0.31,9.80
41977425,0.001838,-0.002811,-0.000901,0.03,-0.31,9.78
41978457,0.001838,-0.001746,-0.000901,0.03,-0.32,9.81
41979450,-0.000292,0.000385,-0.000901,0.02,-0.32,9.87
41980464,-0.002423,0.001450,-0.000901,0.04,-0.34,9.88
41981468,-0.003488,0.000385,-0.003031,0.04,-0.36,9.84
41982478,-0.002423,-0.000680,-0.004097,0.02,-0.36,9.83
41983488,-0.002423,-0.002811,-0.003031,0.01,-0.34,9.86
41984498,-0.001357,-0.001746,-0.001966,0.01,-0.29,9.83
41985512,0.001838,0.000385,0.001230,0.01,-0.28,9.81
41986518,-0.000292,-0.000680,0.002295,0.03,-0.31,9.86
41987528,-0.001357,-0.000680,0.000165,-0.01,-0.34,9.83
41988552,-0.001357,-0.000680,-0.000901,-0.04,-0.34,9.81
41989548,-0.001357,0.000385,-0.000901,-0.01,-0.30,9.83
41990561,-0.001357,0.000385,-0.000901,0.01,-0.28,9.86
41991565,-0.000292,0.000385,-0.000901,0.01,-0.29,9.81
41992575,0.000773,0.000385,-0.000901,0.00,-0.29,9.77
41993613,0.000773,-0.000680,0.000165,0.00,-0.30,9.78
41994595,-0.000292,-0.000680,-0.000901,-0.01,-0.27,9.80
41995613,0.000773,0.001450,-0.001966,0.01,-0.28,9.79
41996615,0.001838,0.001450,-0.003031,0.01,-0.33,9.79
41997625,0.001838,0.002515,-0.003031,-0.01,-0.31,9.84
41998658,-0.000292,0.003581,-0.000901,0.00,-0.32,9.82
41999650,-0.002423,0.003581,0.000165,0.02,-0.31,9.80
42000663,-0.001357,0.002515,-0.000901,0.02,-0.27,9.81
42001668,-0.000292,0.002515,-0.003031,-0.01,-0.30,9.82
42002707,-0.000310,0.001500,-0.002999,-0.03,-0.32,9.80
42003688,-0.000310,-0.000631,-0.001934,-0.03,-0.32,9.79
42004698,-0.000310,-0.001696,-0.000868,0.00,-0.30,9.82
42005712,-0.001375,-0.000631,-0.000868,0.04,-0.28,9.85
42006718,-0.002441,0.000435,-0.000868,0.02,-0.27,9.85
42007728,-0.001375,0.000435,0.000197,-0.01,-0.26,9.79
42008753,-0.001375,0.000435,0.000197,-0.01,-0.28,9.77
42009748,0.000755,-0.000631,0.000197,0.02,-0.30,9.82
42010760,0.001820,-0.000631,0.001262,0.02,-0.29,9.86
42011765,0.002886,0.000435,0.000197,0.02,-0.29,9.84
42012775,0.005016,0.000435,-0.000868,0.05,-0.29,9.86
42013785,0.003951,-0.000631,0.002327,0.04,-0.32,9.85
42014795,0.000755,-0.000631,0.002327,0.01,-0.33,9.85
42015814,-0.001375,0.000435,0.000197,-0.02,-0.31,9.88
42016815,-0.000310,0.000435,-0.001934,0.00,-0.30,9.83
42017825,0.000755,-0.000631,-0.002999,0.02,-0.31,9.79
42018857,0.000755,-0.001696,-0.001934,0.02,-0.32,9.84
42019850,-0.000310,-0.002761,-0.000868,0.02,-0.31,9.83
42020864,-0.000310,-0.001696,0.000197,0.03,-0.34,9.80
42021868,-0.000310,0.000435,0.001262,0.03,-0.31,9.84
42022878,0.000755,0.000435,0.002327,0.01,-0.29,9.82
42023888,0.001820,0.000435,0.001262,0.01,-0.32,9.81
42024900,0.002886,0.001500,0.000197,0.00,-0.31,9.80
42025913,0.002886,0.002565,-0.001934,-0.02,-0.30,9.80
42026923,0.000755,0.001500,-0.001934,-0.01,-0.31,9.80
42027937,-0.000310,0.000435,0.000197,0.02,-0.33,9.80
42028958,-0.001375,0.000435,0.000197,0.01,-0.33,9.83
42029955,-0.000310,0.001500,0.001262,0.01,-0.31,9.85
42030968,0.000755,0.003631,0.001262,-0.01,-0.33,9.83
42031975,0.000755,0.003631,0.001262,-0.04,-0.34,9.83
42032986,0.001820,0.001500,0.000197,-0.03,-0.32,9.85
42033997,0.000755,-0.000631,-0.001934,-0.02,-0.31,9.86
42035004,-0.001375,-0.001696,-0.002999,-0.02,-0.28,9.86
42036022,-0.003506,-0.000631,-0.004064,-0.01,-0.28,9.84
42037026,-0.003506,0.000435,-0.002999,0.03,-0.28,9.83
42038039,-0.002441,0.001500,-0.000868,0.02,-0.28,9.81
42039069,-0.000310,0.003631,0.002327,0.00,-0.31,9.81
42040059,0.000755,0.003631,0.003393,0.02,-0.32,9.78
42041075,0.000755,0.001500,0.001262,0.01,-0.34,9.78
42042076,-0.000310,-0.000631,0.001262,0.03,-0.34,9.84
42043086,-0.001375,0.000435,0.001262,0.04,-0.35,9.86
42044092,0.000755,0.001500,0.003393,0.03,-0.34,9.87
42045102,0.001820,-0.000631,0.002327,0.02,-0.29,9.84
42046113,0.001820,-0.002761,0.001262,0.03,-0.28,9.83
42047118,0.000755,-0.002761,0.000197,0.04,-0.30,9.83
42048132,-0.000310,-0.000631,-0.000868,0.02,-0.31,9.80
42049157,-0.001375,0.002565,0.001262,0.03,-0.29,9.83
42050150,-0.001375,0.001500,0.004458,0.03,-0.28,9.86
42051162,-0.002441,0.000435,0.004458,0.00,-0.29,9.84
42052165,-0.003506,-0.001696,0.002327,0.01,-0.30,9.79
42053175,-0.001375,-0.001696,0.000197,0.04,-0.31,9.79
42054185,-0.000310,-0.000631,-0.000868,0.02,-0.30,9.82
42055195,-0.000310,0.000435,-0.002999,0.02,-0.30,9.83
42056214,-0.002441,0.001500,-0.002999,0.04,-0.30,9.86
42057215,-0.002441,0.001500,-0.000868,0.06,-0.32,9.85
42058225,-0.000310,-0.000631,0.001262,0.04,-0.32,9.82
42059257,-0.000310,0.000435,0.001262,0.02,-0.31,9.78
42060250,-0.002441,0.001500,-0.000868,0.00,-0.32,9.83
42061264,-0.002441,0.000435,-0.000868,0.01,-0.32,9.87
42062268,-0.001375,0.000435,0.000197,0.03,-0.30,9.83
42063278,-0.000310,0.001500,0.001262,0.02,-0.32,9.81
42064288,-0.000310,0.001500,0.001262,-0.01,-0.32,9.81
42065298,0.000755,0.001500,0.001262,-0.01,-0.28,9.81
42066312,0.002886,0.000435,0.001262,0.02,-0.31,9.79
42067318,0.002886,-0.000631,0.002327,0.04,-0.32,9.79
42068328,0.001820,-0.000631,0.002327,0.04,-0.28,9.80
42069352,0.000755,0.000435,0.000197,0.02,-0.28,9.82
42070348,0.000755,0.001500,-0.001934,-0.01,-0.28,9.80
42071361,0.001820,0.001500,-0.002999,0.00,-0.26,9.76
42072365,-0.000310,-0.000631,-0.000868,0.03,-0.28,9.81
42073375,-0.001375,-0.002761,-0.000868,0.01,-0.30,9.86
42074385,-0.001375,-0.001696,-0.002999,-0.01,-0.33,9.85
42075395,0.001820,-0.000631,-0.002999,-0.01,-0.31,9.83
42076413,0.000755,-0.001696,-0.001934,0.01,-0.30,9.80
42077415,-0.000310,-0.002761,-0.000868,0.03,-0.30,9.82
42078448,-0.000310,-0.001696,-0.000868,0.04,-0.31,9.86
42079440,0.000755,0.000435,0.000197,0.02,-0.32,9.84
42080448,0.000755,0.000435,0.001262,-0.01,-0.33,9.84
42081463,-0.001375,-0.000631,0.001262,-0.01,-0.33,9.86
42082468,-0.001375,-0.002761,0.001262,0.01,-0.28,9.82
42083478,-0.000310,-0.001696,0.000197,0.01,-0.29,9.77
42084488,0.000755,0.000435,-0.000868,0.00,-0.32,9.81
42085498,0.002886,0.001500,-0.000868,-0.01,-0.31,9.86
42086512,0.001820,-0.000631,-0.001934,0.02,-0.28,9.87
42087518,-0.001375,-0.001696,-0.002999,-0.01,-0.27,9.91
42088543,-0.003506,-0.000631,-0.002999,0.01,-0.28,9.86
42089555,-0.001375,0.002565,-0.000868,0.01,-0.29,9.85
42090545,0.001820,0.001500,0.001262,0.00,-0.32,9.87
42091560,0.005016,-0.000631,0.001262,0.02,-0.33,9.86
42092565,0.005016,0.000435,0.001262,0.02,-0.31,9.81
42093575,0.000755,0.002565,0.002327,0.01,-0.30,9.77
42094585,-0.002441,0.001500,0.004458,0.02,-0.28,9.82
42095595,-0.001375,0.000435,0.002327,0.01,-0.29,9.82
42096614,-0.000310,-0.001696,0.000197,-0.01,-0.28,9.84
42097615,-0.001375,-0.002761,-0.000868,0.00,-0.29,9.86
42098647,-0.001375,-0.002761,-0.001934,0.01,-0.34,9.84
42099640,-0.001375,-0.002761,-0.001934,-0.01,-0.33,9.81
42100648,-0.001375,0.000435,0.000197,0.00,-0.29,9.78
42101664,-0.003506,0.001500,0.001262,0.01,-0.31,9.81
42102668,-0.003506,0.000435,0.002327,0.00,-0.31,9.86
42103678,-0.002441,0.001500,0.000197,0.02,-0.28,9.83
42104688,-0.000310,0.000435,-0.000868,0.02,-0.30,9.81
42105698,0.002886,0.000435,0.000197,-0.02,-0.34,9.83
42106713,0.003951,-0.000631,0.001262,0.00,-0.34,9.83
42107718,0.002886,-0.001696,0.000197,0.02,-0.32,9.86
42108742,0.002886,-0.000631,0.000197,-0.01,-0.33,9.86
42109738,0.000755,-0.001696,0.001262,0.00,-0.33,9.81
42110745,-0.002441,-0.002761,-0.000868,0.03,-0.34,9.81
42111761,-0.003506,-0.002761,-0.000868,0.03,-0.34,9.85
42112765,-0.002441,-0.002761,0.002327,0.00,-0.33,9.86
42113775,-0.001375,-0.001696,0.003393,-0.01,-0.34,9.86
42114785,-0.001375,0.000435,0.005523,0.01,-0.30,9.82
42115795,-0.003506,0.000435,0.002327,0.04,-0.32,9.83
42116812,-0.003506,-0.000631,-0.000868,0.05,-0.35,9.83
42117815,-0.002441,-0.001696,-0.000868,0.01,-0.33,9.74
42118848,-0.000310,-0.001696,0.001262,-0.02,-0.32,9.79
42119840,0.000755,-0.000631,0.000197,-0.03,-0.31,9.85
42120848,0.000755,-0.001696,-0.000868,-0.03,-0.28,9.85
42121862,-0.000310,-0.002761,0.000197,-0.04,-0.27,9.80
42122868,-0.002441,-0.001696,0.002327,-0.02,-0.27,9.78
42123878,-0.002441,-0.000631,0.001262,0.00,-0.29,9.81
42124888,0.000755,-0.000631,0.000197,-0.02,-0.32,9.82
42125900,0.002886,-0.001696,0.001262,-0.01,-0.30,9.86
42126913,0.003951,-0.003826,0.001262,0.02,-0.29,9.84
42127924,0.003951,-0.003826,0.000197,0.01,-0.31,9.84
42128949,0.001820,-0.000631,-0.001934,-0.01,-0.34,9.85
42129944,-0.001375,0.001500,-0.000868,-0.02,-0.30,9.82
42130954,-0.002441,0.003631,0.000197,0.00,-0.29,9.79
42131996,-0.002427,0.003646,0.002302,0.02,-0.34,9.77
42132977,-0.002427,0.001516,0.003367,0.01,-0.32,9.81
42133987,-0.002427,-0.000615,0.001236,0.01,-0.28,9.84
42135001,-0.001362,-0.001680,0.000171,0.01,-0.31,9.82
42136007,0.000768,-0.000615,0.001236,0.01,-0.31,9.90
42137027,0.001834,-0.000615,0.000171,0.04,-0.30,9.89
42138025,0.001834,0.000451,-0.001959,0.04,-0.28,9.80
42139058,0.000768,0.000451,-0.003025,0.04,-0.28,9.80
42140048,0.000768,-0.000615,-0.001959,0.06,-0.34,9.90
42141058,0.000768,-0.002745,-0.000894,0.04,-0.33,9.95
42142073,0.000768,-0.000615,0.002302,0.03,-0.29,9.87
42143076,0.001834,0.001516,0.002302,0.02,-0.31,9.82
42144087,0.002899,0.002581,0.003367,-0.02,-0.32,9.84
42145092,0.002899,0.002581,0.003367,-0.03,-0.30,9.88
42146102,0.000768,0.001516,0.001236,-0.01,-0.33,9.89
42147113,0.000768,-0.000615,-0.001959,0.02,-0.33,9.89
42148118,0.001834,0.000451,-0.004090,0.03,-0.28,9.86
42149146,0.005030,0.002581,-0.003025,0.05,-0.29,9.87
42150141,0.005030,0.005777,-0.000894,0.02,-0.31,9.88
42151148,0.000768,0.006842,-0.000894,-0.01,-0.29,9.82
42152163,-0.000297,0.004712,-0.001959,0.01,-0.28,9.80
42153165,-0.000297,-0.000615,-0.000894,0.03,-0.30,9.81
42154175,-0.001362,-0.002745,0.002302,0.05,-0.32,9.81
42155185,-0.002427,-0.001680,0.002302,0.02,-0.31,9.83
42156195,-0.001362,0.001516,0.002302,0.02,-0.32,9.83
42157213,0.000768,0.003646,0.001236,0.01,-0.33,9.79
42158215,0.001834,0.003646,-0.000894,-0.01,-0.32,9.81
42159248,0.000768,0.002581,-0.001959,0.01,-0.32,9.85
42160240,-0.001362,0.000451,-0.001959,0.00,-0.32,9.86
42161248,-0.001362,-0.001680,-0.000894,-0.02,-0.30,9.88
42162291,-0.000297,-0.002745,0.000171,0.01,-0.29,9.85
42163268,-0.000297,-0.000615,0.000171,0.01,-0.28,9.80
42164278,-0.001362,0.000451,-0.000894,-0.03,-0.28,9.82
42165288,0.000768,0.000451,-0.000894,-0.01,-0.29,9.84
42166298,0.002899,0.000451,-0.000894,0.04,-0.29,9.79
42167314,0.003964,0.000451,0.000171,0.02,-0.31,9.81
42168318,0.002899,0.000451,0.000171,0.00,-0.30,9.84
42169342,0.000768,0.001516,0.000171,0.01,-0.29,9.85
42170345,-0.000297,0.000451,-0.000894,0.03,-0.28,9.83
42171345,0.000768,-0.000615,-0.001959,0.01,-0.28,9.83
42172362,0.001834,-0.001680,-0.003025,0.01,-0.31,9.85
42173480,0.000768,0.000451,-0.004090,0.00,-0.29,9.79
42174362,-0.001362,0.001516,-0.004090,-0.01,-0.29,9.77
42175364,-0.005623,0.005777,-0.009416,-0.01,-0.26,9.91
42176374,-0.037582,0.019626,-0.013678,0.07,-0.30,9.87
42177391,-0.043973,0.015364,-0.003025,0.03,-0.26,9.81
42178394,-0.020537,0.000451,0.014020,-0.09,-0.30,9.78
42179433,-0.004558,-0.007006,0.025738,-0.16,-0.51,9.75
42180419,-0.012015,-0.002745,0.026803,-0.12,-0.20,9.88
42181428,-0.008819,-0.000615,0.023607,-0.15,-0.10,9.94
42182446,0.000768,-0.000615,0.015085,0.19,-0.09,9.62
42183448,0.012487,-0.003811,0.006563,0.41,-0.20,9.64
42184457,0.023139,-0.009137,0.003367,0.26,-0.67,9.85
42185468,0.014617,-0.007006,0.008693,-0.09,-0.59,10.11
42186477,-0.003493,-0.004876,0.011889,-0.52,-0.28,9.90
42187495,0.002899,-0.003811,-0.009416,0.85,-0.64,9.82
42188497,0.016748,0.012169,-0.008351,-0.23,-0.38,10.30
42189526,-0.005623,0.011103,-0.000894,-0.91,0.34,10.14
42190516,-0.030125,-0.011268,-0.011547,0.44,-0.96,9.04
42191524,0.002899,-0.002745,-0.023265,0.51,-0.86,9.55
42192542,0.033792,0.028148,-0.013678,-0.94,1.20,10.40
42193544,-0.029059,-0.005941,-0.012612,0.13,-1.03,9.16
42194554,-0.052496,-0.016594,-0.012612,0.86,-1.13,10.01
42195564,0.016748,0.052649,-0.001959,-1.20,1.91,11.12
42196574,0.010356,-0.002745,-0.011547,0.32,-1.53,8.76
42197591,-0.025864,-0.031508,-0.006221,0.68,-0.67,10.02
42198621,0.051902,0.043062,-0.001959,-1.03,0.91,10.18
42199609,0.031662,0.002581,-0.007286,0.80,-0.86,9.02
42200617,-0.035451,-0.008072,-0.000894,-0.24,-0.42,11.15
42201628,0.010356,-0.018725,-0.004090,0.30,-0.19,7.92
42202646,-0.023733,0.024952,0.006563,-0.19,0.01,11.68
42203648,0.029531,-0.005941,0.002302,0.41,-0.88,9.62
42204674,-0.038647,-0.009137,0.006563,0.06,-0.01,8.38
42205688,0.005030,0.013234,0.002302,-0.22,-0.69,12.00
42206677,-0.004558,-0.021920,0.003367,0.75,-0.44,8.02
42207695,0.025270,0.005777,0.003367,-0.83,0.31,11.11
42208716,-0.023733,0.005777,0.005498,0.66,-1.47,8.99
42209706,0.030596,0.026017,0.005498,-0.66,0.57,9.55
42210714,-0.022668,0.021756,0.003367,-0.05,-0.23,11.07
42211724,-0.025864,-0.004876,0.000171,-0.37,-0.63,8.13
42212742,-0.037582,0.005777,-0.001959,0.13,0.53,11.73
42213744,-0.007754,0.010038,-0.004090,0.37,-0.42,9.28
42214754,-0.013080,0.013234,-0.009416,-0.40,0.75,9.78
42215764,0.007160,0.000451,-0.011547,0.70,-0.17,10.75
42216774,0.049771,-0.012333,-0.013678,-0.91,-0.61,6.85
42217791,0.051902,0.006842,-0.014743,0.33,0.29,11.98
42218821,0.034857,0.019626,-0.017939,0.57,-0.79,9.68
42219809,0.033792,0.004712,-0.019004,-0.89,-0.94,8.19
42220817,0.027400,0.008973,-0.015808,0.70,0.06,12.57
42221828,0.028466,0.012169,-0.007286,0.55,-0.96,9.53
42222846,-0.006688,-0.011268,-0.005155,-0.84,-1.12,7.82
42223848,-0.041843,-0.000615,-0.008351,0.32,-0.09,11.62
42224857,-0.031190,0.015364,-0.007286,0.73,-0.45,9.91
42225868,-0.001362,-0.012333,-0.004090,-0.79,-1.21,7.55
42226877,-0.005623,-0.031508,-0.004090,-0.31,-0.29,10.63
42227898,-0.006688,-0.026181,-0.001959,0.91,0.44,11.22
42228921,-0.017341,-0.022986,0.000171,0.15,-0.78,8.90
42229914,-0.051430,-0.008072,0.002302,-1.08,-0.90,8.56
42230921,-0.055691,0.004712,0.003367,0.08,0.60,11.57
42231933,-0.032255,-0.004876,0.004432,1.14,0.31,10.84
42232948,-0.017341,-0.004876,0.007628,-0.31,-0.54,8.00
42233949,-0.009884,-0.007006,0.014020,-1.07,-0.58,8.78
42234966,0.006095,-0.015529,0.012954,0.17,0.17,11.38
42235972,0.022074,-0.011268,0.018281,1.16,0.53,11.10
42236987,0.006095,0.001516,0.023607,0.13,-0.28,8.75
42238002,-0.007754,0.007908,0.021477,-1.14,-1.05,8.56
42239033,-0.002427,0.000451,0.014020,-0.56,-0.46,10.47
42240019,-0.016276,0.005777,0.006563,0.97,0.45,11.35
42241026,-0.013080,0.014299,0.001236,1.11,0.01,9.73
42242040,-0.015211,0.021756,-0.001959,-0.28,-0.53,8.41
42243059,-0.016276,0.017495,-0.006221,-1.27,-1.19,8.81
42244057,0.001834,0.003646,-0.008351,-0.53,-0.83,10.46
42245066,0.018878,-0.000615,-0.008351,0.86,0.08,11.41
42246071,0.014617,-0.001680,-0.009416,1.13,0.19,10.34
42247082,-0.000297,0.001516,-0.010482,0.19,-0.12,9.14
42248095,0.008225,0.001516,-0.013678,-0.99,-0.79,8.49
42249119,0.013552,0.001516,-0.014743,-1.15,-1.18,9.19
42250111,-0.000297,-0.000615,-0.012612,-0.12,-0.56,10.67
42251118,-0.025864,0.001516,-0.012612,0.86,0.20,11.05
42252126,-0.058887,0.019626,-0.015808,1.02,0.41,10.24
42253144,-0.068475,0.036670,-0.011547,0.37,0.27,9.40
42254144,-0.047169,0.020691,-0.004090,-0.63,-0.25,8.89
42255154,-0.012015,-0.012333,0.003367,-1.15,-1.10,8.87
42256164,0.006095,-0.011268,0.006563,-0.81,-1.14,9.83
42257174,0.029531,-0.005941,0.012954,0.15,-0.39,10.87
42258191,0.018878,-0.009137,0.014020,0.97,0.21,10.79
42259246,-0.024798,-0.007006,0.011889,1.09,0.56,10.16
42260209,-0.051430,0.000451,0.010824,0.58,0.37,9.58
42261217,-0.042908,-0.000615,0.011889,-0.17,-0.08,9.26
42262228,-0.006688,-0.011268,0.009759,-0.70,-0.68,9.09
42263246,-0.009884,-0.004876,0.003367,-0.83,-1.31,9.09
42264248,0.012487,-0.000615,0.003367,-0.63,-1.21,9.76
42265257,0.010356,-0.001680,0.001236,-0.09,-0.58,10.55
42266268,-0.053561,0.012169,-0.008351,0.57,-0.10,10.71
42267277,-0.033321,0.019626,-0.010482,0.85,0.30,10.36
42268295,0.058294,0.004712,-0.004090,0.70,0.43,9.85
42269316,0.123276,-0.012333,0.003367,0.50,0.36,9.51
42270306,0.126472,-0.012333,0.004432,0.07,0.08,9.39
42271314,0.082795,0.013234,-0.003025,-0.42,-0.34,9.29
42272324,0.005030,0.045192,-0.013678,-0.73,-0.87,9.18
42273342,-0.047169,0.031344,-0.016873,-0.84,-1.22,9.29
42274344,-0.017341,-0.009137,-0.009416,-0.69,-1.09,9.82
42275354,0.009291,-0.011268,-0.005155,-0.34,-0.79,10.23
42276364,0.007160,-0.002745,-0.000894,0.08,-0.39,10.41
42277374,-0.010950,0.008973,-0.001959,0.41,-0.03,10.34
42278391,0.007160,0.004712,-0.003025,0.61,0.25,10.19
42279421,0.013552,-0.000615,-0.000894,0.67,0.39,10.01
42280409,-0.018407,0.001516,0.002302,0.63,0.28,9.77
42281417,-0.047169,0.008973,0.001236,0.51,0.14,9.66
42282428,-0.045039,0.015364,-0.003025,0.28,-0.06,9.63
42283446,-0.026929,0.018560,-0.003025,-0.02,-0.22,9.72
42284448,-0.009884,0.019626,0.000171,-0.25,-0.43,9.68
42285457,-0.005623,0.021756,0.004432,-0.45,-0.84,9.38
42286468,-0.013080,0.020691,0.004432,-0.54,-1.02,9.41
42287477,-0.002427,-0.005941,0.002302,-0.55,-0.89,9.79
42288495,0.008225,-0.011268,0.002302,-0.41,-0.73,9.98
42289516,-0.001362,0.001516,0.002302,-0.20,-0.52,10.04
42290506,0.003964,0.001516,0.002302,-0.02,-0.32,10.05
42291514,0.003964,0.000451,0.000171,0.17,-0.12,10.10
42292524,0.005030,-0.002745,0.000171,0.30,-0.02,10.08
42293542,0.002899,-0.002745,0.001236,0.38,0.13,10.06
42294544,0.000768,-0.002745,0.001236,0.42,0.16,9.93
42295554,0.007160,-0.000615,0.001236,0.50,0.10,9.75
42296564,-0.002427,0.002581,-0.004090,0.53,0.08,9.78
42297574,-0.005623,0.004712,-0.007286,0.47,0.02,9.87
42298613,0.006095,0.006842,-0.005155,0.36,0.00,9.94
42299599,0.011421,0.005777,-0.003025,0.22,-0.14,9.86
42300608,-0.002427,0.002581,-0.006221,0.17,-0.15,9.86
42301617,-0.010950,0.000451,-0.006221,0.09,-0.18,9.88
42302628,-0.005623,-0.001680,-0.001959,-0.05,-0.38,9.78
42303646,0.006095,-0.001680,0.000171,-0.13,-0.52,9.66
42304648,0.010356,-0.000615,-0.000894,-0.17,-0.46,9.70
42305657,0.009291,0.003646,-0.001959,-0.27,-0.58,9.64
42306668,0.005030,0.010038,-0.000894,-0.31,-0.64,9.61
42307677,-0.004558,0.014299,-0.003025,-0.33,-0.61,9.61
42308709,-0.018407,0.014299,-0.004090,-0.45,-0.70,9.64
42309696,-0.030125,0.012169,-0.005155,-0.44,-0.66,9.76
42310704,-0.033321,0.001516,-0.003025,-0.39,-0.54,9.81
42311714,-0.016276,-0.015529,0.002302,-0.33,-0.54,9.75
42312724,0.018878,-0.021920,0.004432,-0.26,-0.55,9.75
42313742,0.034857,-0.004876,0.002302,-0.19,-0.47,9.76
42314744,0.000768,0.020691,0.000171,-0.13,-0.46,9.79
42315754,-0.030125,0.017495,0.001236,-0.11,-0.45,9.82
42316764,-0.004558,-0.004876,0.005498,-0.04,-0.36,9.90
42317774,0.021009,-0.009137,0.006563,0.08,-0.28,9.96
42318813,0.002899,0.001516,0.000171,0.10,-0.33,9.93
42319799,0.001834,-0.005941,-0.001959,0.11,-0.30,9.92
42320808,0.003964,-0.001680,-0.006221,0.13,-0.20,10.01
42321817,-0.005623,0.002581,-0.008351,0.14,-0.23,10.05
42322828,0.000768,-0.004876,-0.009416,0.15,-0.26,9.97
42323846,-0.004558,0.005777,-0.006221,0.17,-0.15,9.96
42324848,-0.001362,0.002581,-0.001959,0.22,-0.18,9.91
42325857,-0.003493,0.005777,0.001236,0.21,-0.24,9.82
42326868,0.008225,-0.001680,0.002302,0.22,-0.12,9.82
42327877,0.002899,0.003646,0.001236,0.26,-0.13,9.86
42328914,0.007160,0.006842,0.002302,0.24,-0.16,9.78
42329900,0.001834,0.010038,0.006563,0.23,-0.11,9.81
42330913,0.002899,0.003646,0.008693,0.23,-0.10,9.90
42331922,0.012487,-0.001680,0.010824,0.19,-0.10,9.83
42332935,0.007160,-0.010202,0.004432,0.18,-0.18,9.73
42333949,0.022074,-0.005941,0.004432,0.16,-0.21,9.88
42334953,-0.007754,0.000451,0.001236,0.17,-0.20,9.82
42335965,0.007160,0.000451,0.002302,0.15,-0.21,9.84
42336972,0.021009,-0.011268,0.006563,0.11,-0.23,9.85
42337989,-0.006688,-0.005941,0.002302,0.11,-0.20,9.83
42339023,0.010356,-0.000615,0.002302,0.11,-0.23,9.80
42340008,-0.013080,0.000451,0.001236,0.11,-0.28,9.87
42341015,-0.038647,0.011103,-0.006221,0.09,-0.21,9.83
42342025,0.012487,0.004712,-0.003025,0.10,-0.24,9.79
42343034,-0.003493,-0.001680,-0.001959,0.06,-0.24,9.80
42344057,-0.037582,0.010038,-0.007286,0.02,-0.21,9.80
42345057,0.012487,0.005777,-0.003025,0.07,-0.21,9.89
42346065,0.012487,-0.005941,0.001236,0.10,-0.17,9.91
42347071,-0.050365,0.006842,-0.006221,0.03,-0.22,9.84
42348082,-0.019472,0.012169,-0.008351,0.02,-0.24,9.89
42349109,0.041249,-0.004876,0.001236,0.03,-0.22,9.99
42350096,-0.004558,-0.008072,0.003367,0.01,-0.23,9.88
42351109,-0.055691,0.005777,-0.001959,0.06,-0.17,9.85
42352118,0.013552,0.002581,0.000171,0.01,-0.24,9.83
42353144,0.074273,-0.017659,0.008693,-0.02,-0.31,9.72
42354147,0.009291,-0.015529,0.006563,0.04,-0.24,9.86
42355146,-0.067409,0.008973,-0.000894,0.02,-0.26,9.92
42356156,-0.009884,0.017495,0.000171,-0.06,-0.35,9.82
42357166,0.082795,-0.005941,0.008693,0.01,-0.26,9.86
42358176,0.049771,-0.024051,0.009759,0.00,-0.29,9.83
42359216,-0.064214,-0.002745,-0.000894,-0.07,-0.32,9.74
42360196,-0.091911,0.022821,-0.008351,0.03,-0.23,9.87
42361205,0.015682,0.013234,-0.000894,0.02,-0.34,9.87
42362215,0.113688,-0.022986,0.009759,-0.02,-0.36,9.82
42363243,0.073208,-0.037900,0.008693,0.00,-0.26,9.89
42364247,-0.059953,-0.007006,-0.003025,-0.04,-0.37,9.81
42365248,-0.126000,0.035605,-0.014743,-0.05,-0.37,9.73
42366257,-0.048234,0.039866,-0.014743,0.02,-0.20,9.86
42367268,0.088122,0.001516,-0.001959,-0.02,-0.33,9.87
42368277,0.121145,-0.040030,0.007628,-0.03,-0.36,9.79
42369313,0.021009,-0.040030,0.007628,0.03,-0.22,9.93
42370296,-0.099368,0.002581,-0.003025,-0.02,-0.39,9.86
42371304,-0.123869,0.047323,-0.010482,-0.06,-0.37,9.76
42372314,-0.035451,0.047323,-0.010482,0.01,-0.19,9.85
42373342,0.085991,0.006842,-0.003025,-0.02,-0.32,9.86
42374346,0.126472,-0.034704,0.006563,-0.07,-0.35,9.83
42375346,0.054033,-0.042161,0.007628,-0.04,-0.23,9.93
42376356,-0.067409,-0.012333,-0.000894,-0.08,-0.34,9.82
42377366,-0.133457,0.031344,-0.008351,-0.07,-0.34,9.70
42378376,-0.105760,0.056910,-0.011547,0.01,-0.28,9.80
42379416,-0.008819,0.039866,-0.008351,-0.02,-0.41,9.81
42380396,0.098774,-0.001680,0.001236,-0.07,-0.37,9.76
42381405,0.144581,-0.034704,0.011889,0.00,-0.30,9.80
42382415,0.088121,-0.045357,0.012954,-0.05,-0.42,9.79
42383443,-0.027994,-0.024051,0.006563,-0.11,-0.38,9.77
42384447,-0.119608,0.011103,-0.001959,0.01,-0.23,9.90
42385448,-0.139849,0.039866,-0.007286,0.00,-0.39,9.84
42386457,-0.087650,0.049453,-0.009416,-0.08,-0.40,9.75
42387468,0.006095,0.032409,-0.005155,-0.03,-0.29,9.80
42388477,0.166952,-0.037900,0.010824,-0.04,-0.30,9.76
42389513,0.145647,-0.054944,0.016150,-0.01,-0.29,9.85
42390496,0.054033,-0.047487,0.015085,-0.03,-0.38,9.82
42391504,-0.059953,-0.014463,0.008693,-0.08,-0.36,9.69
42392514,-0.133457,0.019626,-0.000894,-0.02,-0.26,9.84
42393542,-0.148371,0.041996,-0.008351,-0.02,-0.41,9.82
42394546,-0.105760,0.049453,-0.011547,-0.08,-0.35,9.78
42395546,-0.024798,0.040931,-0.011547,0.01,-0.27,9.85
42396556,0.057228,0.015364,-0.006221,-0.02,-0.37,9.82
42397566,0.119015,-0.013398,0.002302,-0.05,-0.36,9.74
42398576,0.147777,-0.038965,0.007628,0.02,-0.31,9.76
42399616,0.125406,-0.052814,0.008693,-0.03,-0.33,9.80
42400596,0.051902,-0.043226,0.006563,-0.08,-0.33,9.73
42401605,-0.040777,-0.024051,0.003367,-0.02,-0.31,9.72
42402615,-0.114282,0.001516,-0.004090,0.00,-0.33,9.78
42403643,-0.150501,0.029213,-0.008351,-0.03,-0.34,9.78
42404647,-0.145175,0.049453,-0.011547,0.02,-0.30,9.84
42405648,-0.110021,0.055845,-0.012612,0.02,-0.36,9.87
42406658,-0.049300,0.048388,-0.012612,-0.04,-0.38,9.74
42407668,0.019944,0.028148,-0.013678,-0.01,-0.28,9.82
42408701,0.079599,0.001516,-0.009416,-0.01,-0.38,9.82
42409695,0.120080,-0.021920,-0.003025,-0.05,-0.36,9.69
42410694,0.147777,-0.037900,0.005498,0.00,-0.26,9.74
42411704,0.140320,-0.049618,0.012954,-0.01,-0.36,9.87
42412714,0.084926,-0.046422,0.014020,-0.07,-0.31,9.87
42413742,0.006095,-0.034704,0.011889,-0.01,-0.32,9.88
42414744,-0.062083,-0.019790,0.005498,0.01,-0.43,9.81
42415746,-0.101498,0.000451,0.002302,-0.02,-0.33,9.77
42416756,-0.120674,0.021756,-0.001959,0.00,-0.29,9.82
42417766,-0.132392,0.036670,-0.006221,-0.02,-0.34,9.84
42418803,-0.116412,0.047323,-0.009416,-0.05,-0.34,9.71
42419795,-0.086585,0.055845,-0.012612,0.02,-0.33,9.76
42420795,-0.046104,0.050519,-0.012612,0.05,-0.30,9.83
42421805,0.009291,0.032409,-0.010482,-0.01,-0.31,9.75
42422815,0.074273,0.006842,-0.005155,-0.03,-0.34,9.76
42423843,0.129667,-0.017659,0.002302,-0.02,-0.41,9.83
42424846,0.150973,-0.033638,0.007628,-0.03,-0.31,9.76
42425848,0.139255,-0.049618,0.011889,0.00,-0.23,9.81
42426857,0.104101,-0.059205,0.012954,0.01,-0.33,9.86
42427868,0.045510,-0.049618,0.012954,-0.05,-0.35,9.86
42428902,-0.005623,-0.035769,0.012954,0.00,-0.32,9.81
42429900,-0.052496,-0.029377,0.010824,0.03,-0.35,9.80
42430898,-0.089780,-0.013398,0.005498,-0.02,-0.28,9.65
42431913,-0.112151,0.012169,0.002302,0.03,-0.24,9.84
42432938,-0.116412,0.029213,-0.000894,0.05,-0.41,9.85
42433936,-0.110021,0.044127,-0.004090,-0.03,-0.43,9.83
42434950,-0.096172,0.051584,-0.008351,0.02,-0.29,9.84
42435956,-0.081258,0.053715,-0.009416,0.03,-0.33,9.97
42436967,-0.054626,0.053715,-0.010482,0.00,-0.25,9.77
42437974,-0.027994,0.052649,-0.011547,0.03,-0.29,9.92
42439012,0.005030,0.036670,-0.010482,0.05,-0.36,9.76
42440004,0.043380,0.019626,-0.005155,-0.03,-0.34,9.85
42441007,0.078534,0.006842,-0.006221,0.01,-0.26,9.70
42442018,0.103035,-0.003811,-0.007286,0.06,-0.29,9.96
42443042,0.132863,-0.016594,-0.004090,0.03,-0.34,9.79
42444034,0.141386,-0.028312,0.002302,0.01,-0.36,9.92
42445056,0.141386,-0.042161,0.003367,0.02,-0.28,9.74
42446057,0.114754,-0.046422,0.003367,-0.01,-0.34,9.88
42447066,0.091317,-0.044291,0.002302,-0.01,-0.35,9.62
42448071,0.051902,-0.040030,0.003367,0.01,-0.36,9.83
42449102,0.022074,-0.033638,0.002302,0.01,-0.34,9.74
42450095,-0.022668,-0.027247,0.002302,0.03,-0.30,9.98
42451094,-0.048234,-0.020855,0.000171,0.03,-0.32,9.84
42452109,-0.074866,-0.012333,0.000171,0.01,-0.28,9.85
42453135,-0.097237,0.006842,-0.003025,0.00,-0.34,9.75
42454130,-0.136653,0.029213,-0.005155,-0.02,-0.44,9.78
42455145,-0.140914,0.039866,-0.009416,-0.01,-0.26,9.86
42456146,-0.129196,0.040931,-0.007286,0.01,-0.26,9.78
42457156,-0.105760,0.045192,-0.008351,-0.01,-0.32,9.78
42458166,-0.092976,0.055845,-0.008351,0.00,-0.31,9.81
42459203,-0.058887,0.059041,-0.007286,0.00,-0.32,9.78
42460195,-0.042908,0.047323,-0.005155,0.04,-0.25,9.79
42461195,-0.007754,0.031344,-0.005155,0.03,-0.32,9.93
42462205,0.027400,0.018560,-0.001959,-0.02,-0.40,9.82
42463233,0.066816,0.015364,-0.003025,-0.02,-0.40,9.84
42464229,0.077469,0.007907,-0.001959,0.04,-0.18,9.78
42465244,0.104101,-0.004876,0.001236,0.00,-0.36,9.82
42466248,0.119015,-0.020855,0.006563,-0.01,-0.41,9.77
42467257,0.137124,-0.031508,0.006563,0.03,-0.26,9.93
42468268,0.128602,-0.036834,0.005498,0.05,-0.24,9.78
42469301,0.126472,-0.037900,0.003367,0.03,-0.34,9.84
42470295,0.106231,-0.044291,0.007628,-0.04,-0.41,9.81
42471294,0.101970,-0.050683,0.009759,0.00,-0.32,9.89
42472304,0.089187,-0.054944,0.011889,0.09,-0.18,9.88
42473332,0.074273,-0.047487,0.009759,0.03,-0.34,9.78
42474327,0.026335,-0.037900,0.010824,-0.05,-0.45,9.79
42475343,0.003964,-0.035769,0.007628,-0.01,-0.35,9.82
42476346,-0.003493,-0.045357,0.007628,0.08,-0.18,9.83
42477356,-0.014145,-0.035769,0.005498,0.03,-0.34,9.78
42478366,-0.062083,-0.010202,0.004432,-0.05,-0.46,9.74
42479403,-0.079128,0.001516,0.003367,0.01,-0.27,9.79
42480395,-0.085519,-0.010202,0.007628,0.08,-0.15,9.80
42481395,-0.088715,-0.010202,0.005498,0.00,-0.32,9.84
42482405,-0.117478,0.013234,0.002302,-0.08,-0.47,9.82
42483433,-0.115347,0.032409,-0.003025,-0.03,-0.35,9.82
42484429,-0.110021,0.030278,-0.004090,0.07,-0.15,9.87
42485444,-0.104694,0.031344,-0.005155,0.04,-0.34,9.79
42486448,-0.114282,0.043062,-0.004090,-0.05,-0.41,9.75
42487457,-0.084454,0.054780,-0.006221,-0.02,-0.31,9.81
42488468,-0.062083,0.049453,-0.011547,0.02,-0.23,9.79
42489501,-0.058887,0.048388,-0.008351,-0.05,-0.38,9.84
42490495,-0.024798,0.047323,-0.009416,-0.01,-0.34,9.83
42491494,-0.003493,0.035605,-0.010482,0.07,-0.18,9.79
42492504,0.021009,0.027083,-0.011547,0.04,-0.32,9.82
42493532,0.034857,0.017495,-0.007286,-0.05,-0.43,9.82
42494527,0.072142,0.005777,-0.004090,-0.04,-0.31,9.88
42495543,0.087056,-0.010202,-0.003025,0.06,-0.22,9.81
42496546,0.100905,-0.018725,-0.001959,0.04,-0.34,9.78
42497556,0.106231,-0.027247,0.001236,-0.06,-0.45,9.77
42498566,0.126472,-0.036834,0.002302,-0.04,-0.34,9.80
42499603,0.123276,-0.048552,0.004432,0.04,-0.19,9.83
42500595,0.122210,-0.047487,0.004432,0.03,-0.29,9.84
42501595,0.094513,-0.041095,0.006563,-0.06,-0.44,9.78
42502605,0.072142,-0.041095,0.005498,-0.05,-0.35,9.78
42503633,0.048706,-0.049618,0.004432,0.09,-0.21,9.83
42504629,0.035923,-0.046422,0.003367,0.07,-0.28,9.88
42505668,-0.004558,-0.031508,0.006563,-0.04,-0.41,9.82
42506647,-0.029059,-0.024051,0.006563,-0.02,-0.35,9.82
42507658,-0.048234,-0.029377,0.006563,0.06,-0.19,9.81
42508691,-0.055691,-0.021920,0.003367,0.05,-0.33,9.79
42509676,-0.094042,0.000451,0.002302,-0.01,-0.45,9.86
42510692,-0.104694,0.015364,0.000171,0.02,-0.28,9.93
42511694,-0.108955,0.011103,0.002302,0.09,-0.19,9.82
42512704,-0.110021,0.014299,0.001236,0.03,-0.26,9.76
42513714,-0.133457,0.032409,0.000171,-0.05,-0.38,9.87
42514724,-0.113217,0.047323,-0.004090,0.00,-0.30,9.94
42515741,-0.095107,0.044127,-0.006221,0.09,-0.18,9.89
42516744,-0.080193,0.044127,-0.009416,0.07,-0.28,9.82
42517754,-0.085519,0.052649,-0.008351,-0.02,-0.39,9.78
42518791,-0.058887,0.057976,-0.008351,-0.01,-0.30,9.84
42519779,-0.040777,0.045192,-0.007286,0.09,-0.21,9.85
42520796,-0.012015,0.032409,-0.005155,0.04,-0.26,9.79
42521798,0.001834,0.027083,-0.000894,-0.06,-0.38,9.79
42522807,0.041249,0.023887,-0.000894,-0.01,-0.35,9.77
42523818,0.059359,0.011103,-0.001959,0.06,-0.20,9.81
42524827,0.091317,-0.004876,-0.003025,-0.01,-0.29,9.83
42525845,0.110492,-0.019790,0.002302,-0.05,-0.44,9.80
42526847,0.132863,-0.027247,0.004432,0.00,-0.38,9.72
42527858,0.132863,-0.038965,0.004432,0.04,-0.23,9.78
42528886,0.141386,-0.044291,0.001236,0.03,-0.26,9.88
42529876,0.123276,-0.049618,0.001236,-0.05,-0.37,9.79
42530898,0.112623,-0.056009,0.003367,-0.04,-0.31,9.85
42531897,0.096644,-0.060270,0.008693,0.04,-0.21,9.90
42532913,0.078534,-0.051748,0.004432,0.01,-0.32,9.86
42533921,0.018878,-0.038965,0.001236,-0.07,-0.42,9.82
42534935,-0.013080,-0.032573,-0.000894,-0.04,-0.37,9.81
42535949,-0.040777,-0.035769,0.002302,0.09,-0.18,9.86
42536953,-0.053561,-0.024051,0.002302,0.08,-0.28,9.88
42537965,-0.095107,0.001516,0.001236,-0.02,-0.42,9.80
42539001,-0.111086,0.018560,-0.000894,0.00,-0.34,9.88
42539990,-0.112151,0.015364,0.000171,0.10,-0.20,9.90
42541005,-0.104694,0.018560,0.000171,0.04,-0.31,9.83
42542008,-0.131326,0.036670,-0.004090,-0.05,-0.47,9.78
42543017,-0.128130,0.050519,-0.010482,0.00,-0.33,9.81
42544023,-0.110021,0.045192,-0.011547,0.07,-0.17,9.82
42545033,-0.089780,0.043062,-0.011547,0.06,-0.21,9.85
42546056,-0.097237,0.053715,-0.010482,-0.01,-0.32,9.83
42547056,-0.071671,0.060106,-0.009416,-0.01,-0.32,9.81
42548066,-0.053561,0.053715,-0.008351,0.10,-0.26,9.73
42549090,-0.043973,0.049453,-0.008351,0.06,-0.30,9.69
42550080,-0.051430,0.049453,-0.007286,-0.06,-0.40,9.78
42551092,-0.023733,0.047323,-0.008351,-0.02,-0.36,9.83
42552094,-0.006688,0.036670,-0.007286,0.08,-0.18,9.92
42553109,-0.002427,0.034540,-0.007286,0.06,-0.27,9.88
42554118,-0.017341,0.038801,-0.006221,-0.05,-0.47,9.81
42555126,0.003964,0.039866,-0.005155,-0.05,-0.33,9.92
42556142,0.011421,0.034540,-0.006221,0.05,-0.17,9.86
42557144,0.014617,0.031344,-0.008351,0.03,-0.28,9.73
42558154,0.003964,0.029213,-0.006221,-0.02,-0.37,9.81
42559191,0.022074,0.028148,-0.005155,0.02,-0.30,9.85
42560179,0.029531,0.020691,-0.006221,0.07,-0.21,9.89
42561196,0.036988,0.017495,-0.006221,0.06,-0.23,9.94
42562197,0.030596,0.016430,-0.003025,0.00,-0.38,9.88
42563208,0.047641,0.014299,-0.003025,-0.01,-0.32,9.86
42564217,0.046576,0.006842,-0.004090,0.04,-0.18,9.85
42565228,0.049771,0.005777,-0.005155,0.02,-0.35,9.70
42566244,0.047641,0.006842,-0.000894,-0.04,-0.42,9.69
42567248,0.068946,0.011103,-0.000894,0.04,-0.24,9.82
42568257,0.076403,0.004712,0.001236,0.06,-0.19,9.89
42569286,0.084926,-0.000615,0.001236,0.00,-0.31,9.87
42570276,0.077469,-0.001680,0.002302,-0.03,-0.39,9.86
42571292,0.091317,-0.000615,-0.001959,-0.01,-0.29,9.91
42572294,0.090252,-0.010202,-0.000894,0.09,-0.16,9.90
42573304,0.096644,-0.017659,0.000171,0.05,-0.32,9.76
42574314,0.097709,-0.020855,0.002302,-0.06,-0.49,9.75
42575324,0.119015,-0.021920,0.003367,-0.01,-0.30,9.91
42576341,0.119015,-0.028312,0.003367,0.04,-0.20,9.98
42577344,0.123276,-0.029377,0.001236,-0.01,-0.40,9.89
42578354,0.117949,-0.033638,0.003367,-0.03,-0.45,9.89
42579391,0.138190,-0.037900,0.005498,0.06,-0.27,9.83
42580379,0.130733,-0.045357,0.004432,0.12,-0.21,9.75
42581396,0.126472,-0.042161,0.001236,-0.01,-0.30,9.74
42582397,0.117949,-0.038965,0.002302,-0.06,-0.40,9.81
42583408,0.125406,-0.040030,0.004432,0.03,-0.29,9.92
42584417,0.112623,-0.050683,0.005498,0.08,-0.22,9.86
42585428,0.113688,-0.051748,0.004432,0.06,-0.24,9.81
42586444,0.106231,-0.048552,0.005498,-0.04,-0.34,9.83
42587448,0.113688,-0.048552,0.005498,-0.03,-0.28,9.86
42588457,0.100905,-0.056009,0.005498,0.07,-0.19,9.88
42589486,0.080665,-0.050683,0.003367,-0.08,-0.40,9.74
42590476,0.092383,-0.053879,0.004432,-0.04,-0.32,9.79
42591492,0.087056,-0.060270,0.006563,0.05,-0.20,9.85
42592494,0.089187,-0.054944,0.005498,-0.01,-0.26,9.80
42593504,0.064685,-0.046422,0.007628,-0.06,-0.37,9.81
42594514,0.057228,-0.045357,0.006563,-0.03,-0.31,9.81
42595524,0.046576,-0.054944,0.007628,0.02,-0.27,9.85
42596541,0.050837,-0.053879,0.004432,0.01,-0.32,9.87
42597544,0.032727,-0.044291,0.004432,-0.06,-0.40,9.82
42598554,0.038053,-0.043226,0.004432,-0.02,-0.31,9.86
42599591,0.034857,-0.051748,0.006563,0.06,-0.22,9.93
42600579,0.038053,-0.048552,0.005498,0.00,-0.31,9.87
42601618,0.008225,-0.034704,0.007628,-0.06,-0.46,9.80
42602598,0.006095,-0.032573,0.006563,-0.02,-0.29,9.85
42603607,0.003964,-0.043226,0.005498,0.03,-0.12,9.84
42604618,0.008225,-0.040030,0.004432,-0.01,-0.31,9.79
42605627,-0.016276,-0.029377,0.007628,-0.08,-0.43,9.78
42606645,-0.015211,-0.027247,0.009759,-0.03,-0.28,9.85
42607647,-0.007754,-0.038965,0.010824,0.08,-0.16,9.85
42608676,-0.003493,-0.036834,0.007628,0.04,-0.26,9.78
42609666,-0.029059,-0.026181,0.007628,-0.05,-0.31,9.80
42610674,-0.023733,-0.027247,0.008693,0.01,-0.27,9.89
42611692,-0.018407,-0.041095,0.010824,0.09,-0.24,9.95
42612694,-0.015211,-0.040030,0.007628,0.04,-0.31,9.86
42613704,-0.041843,-0.022986,0.006563,-0.02,-0.42,9.79
42614714,-0.037582,-0.016594,0.006563,0.00,-0.32,9.81
42615724,-0.029059,-0.027247,0.008693,0.06,-0.13,9.88
42616741,-0.019472,-0.029377,0.007628,0.01,-0.30,9.86
42617744,-0.045039,-0.020855,0.008693,-0.09,-0.52,9.82
42618781,-0.041843,-0.015529,0.006563,0.01,-0.31,9.86
42619769,-0.029059,-0.026181,0.006563,0.07,-0.22,9.83
42620778,-0.019472,-0.030443,0.007628,-0.01,-0.35,9.74
42621796,-0.043973,-0.020855,0.010824,-0.08,-0.44,9.77
42622798,-0.039712,-0.014463,0.009759,0.02,-0.29,9.90
42623807,-0.021602,-0.027247,0.009759,0.12,-0.20,9.94
42624818,-0.001362,-0.034704,0.007628,0.07,-0.30,9.81
42625827,-0.020537,-0.032573,0.008693,-0.01,-0.37,9.88
42626845,-0.014145,-0.030443,0.007628,0.04,-0.21,9.91
42627847,-0.003493,-0.041095,0.008693,0.10,-0.13,9.92
42628876,0.017813,-0.045357,0.007628,0.05,-0.31,9.85
42629866,0.012487,-0.042161,0.010824,-0.03,-0.44,9.80
42630874,0.029531,-0.042161,0.009759,0.02,-0.33,9.81
42631898,0.050837,-0.051748,0.010824,0.11,-0.19,9.85
42632897,0.079599,-0.056009,0.010824,0.06,-0.23,9.88
42633912,0.074273,-0.051748,0.010824,-0.03,-0.43,9.86
42634921,0.083860,-0.050683,0.004432,0.01,-0.35,9.82
42635933,0.087056,-0.052814,0.001236,0.10,-0.20,9.92
42636948,0.101970,-0.053879,0.002302,0.05,-0.29,9.87
42637949,0.100905,-0.050683,0.005498,-0.03,-0.39,9.85
42638993,0.112623,-0.044291,0.004432,0.06,-0.25,9.84
42639979,0.105166,-0.037900,0.002302,0.15,-0.23,9.80
42640988,0.109427,-0.031508,0.000171,0.07,-0.32,9.71
42642006,0.093448,-0.026181,0.001236,-0.03,-0.38,9.71
42643008,0.088122,-0.018725,-0.000894,0.03,-0.29,9.83
42644017,0.063620,-0.013398,-0.004090,0.10,-0.17,9.95
42645027,0.057228,-0.005941,-0.006221,0.07,-0.27,9.87
42646032,0.038053,0.003646,-0.005155,-0.04,-0.44,9.85
42647056,0.031662,0.021756,-0.007286,-0.02,-0.28,9.91
42648057,0.013552,0.033474,-0.008351,0.06,-0.18,9.89
42649083,0.007160,0.036670,-0.008351,0.05,-0.31,9.82
42650071,-0.019472,0.041996,-0.007286,-0.01,-0.47,9.82
42651078,-0.036516,0.059041,-0.010482,0.01,-0.26,9.95
42652092,-0.055691,0.063302,-0.012612,0.06,-0.16,9.86
42653094,-0.064214,0.059041,-0.014743,0.05,-0.29,9.77
42654109,-0.088715,0.061172,-0.010482,-0.02,-0.42,9.86
42655118,-0.087650,0.060106,-0.009416,0.04,-0.28,9.88
42656126,-0.090846,0.045192,-0.007286,0.08,-0.12,9.91
42657142,-0.089780,0.039866,-0.006221,0.05,-0.23,9.94
42658144,-0.104694,0.043062,-0.004090,-0.04,-0.38,9.89
42659181,-0.085519,0.037735,-0.004090,0.01,-0.23,9.91
42660169,-0.064214,0.012169,0.002302,0.14,-0.16,9.93
42661177,-0.052496,-0.002745,0.003367,0.04,-0.26,9.73
42662234,-0.066344,-0.007006,0.004432,-0.06,-0.38,9.83
42663203,-0.037582,-0.019790,0.004432,0.04,-0.28,9.92
42664208,-0.004558,-0.040030,0.006563,0.12,-0.20,9.92
42665217,0.029531,-0.049618,0.005498,0.05,-0.31,9.79
42666228,0.041249,-0.048552,0.007628,-0.09,-0.41,9.75
42667244,0.060424,-0.046422,0.006563,0.01,-0.22,9.95
42668248,0.071077,-0.046422,0.007628,0.11,-0.21,9.96
42669277,0.088121,-0.045357,0.004432,0.09,-0.31,9.82
42670266,0.078534,-0.033638,0.003367,0.00,-0.41,9.83
42671274,0.066816,-0.013398,-0.001959,0.05,-0.28,9.92
42672291,0.033792,0.005777,-0.005155,0.12,-0.13,9.90
42673294,0.011421,0.028148,-0.006221,0.07,-0.24,9.81
42674304,-0.027994,0.050519,-0.005155,-0.03,-0.43,9.79
42675314,-0.048234,0.062237,-0.007286,0.06,-0.19,9.88
42676324,-0.068475,0.051584,-0.005155,0.16,-0.15,9.92
42677341,-0.078062,0.044127,-0.003025,0.10,-0.29,9.78
42678344,-0.092976,0.039866,0.002302,-0.03,-0.42,9.77
42679382,-0.069540,0.019626,0.005498,0.02,-0.25,9.86
42680369,-0.035451,-0.017659,0.010824,0.12,-0.14,9.86
42681377,0.001834,-0.044291,0.009759,0.09,-0.26,9.74
42682395,0.021009,-0.050683,0.012954,0.00,-0.38,9.79
42683397,0.054033,-0.048552,0.011889,0.06,-0.25,9.90
42684408,0.075338,-0.048552,0.008693,0.12,-0.17,9.86
42685417,0.092383,-0.046422,0.002302,0.10,-0.25,9.73
42686428,0.077469,-0.027247,0.001236,-0.02,-0.40,9.70
42687444,0.052967,0.006842,-0.001959,0.07,-0.22,9.86
42688448,0.008225,0.032409,-0.003025,0.13,-0.16,9.90
42689477,-0.053561,0.051584,-0.001959,-0.03,-0.39,9.87
42690466,-0.054626,0.041996,-0.001959,0.04,-0.29,9.80
42691474,-0.040777,0.014299,0.005498,0.15,-0.13,9.81
42692491,-0.034386,-0.000615,0.006563,0.06,-0.31,9.81
42693494,-0.037582,-0.009137,0.007628,-0.05,-0.42,9.81
42694504,-0.006688,-0.025116,0.007628,0.10,-0.18,9.86
42695514,0.040184,-0.047487,0.008693,0.13,-0.20,9.76
42696524,0.079599,-0.059205,0.006563,0.08,-0.35,9.72
42697541,0.087056,-0.051748,0.005498,0.00,-0.39,9.80
42698544,0.082795,-0.031508,0.000171,0.03,-0.25,9.84
42699582,0.050837,-0.004876,-0.005155,0.10,-0.17,9.84
42700569,0.023139,0.018560,-0.008351,0.07,-0.26,9.75
42701577,-0.020537,0.038801,-0.006221,-0.05,-0.45,9.71
42702595,-0.038647,0.050519,-0.007286,0.05,-0.29,9.82
42703597,-0.041843,0.037735,-0.004090,0.09,-0.19,9.80
42704608,-0.054626,0.031344,-0.004090,0.05,-0.27,9.67
42705617,-0.078062,0.030278,-0.000894,-0.02,-0.44,9.71
42706628,-0.062083,0.014299,-0.000894,0.06,-0.29,9.83
42707644,-0.021602,-0.019790,0.001236,0.12,-0.16,9.82
42708668,0.012487,-0.037900,0.000171,0.06,-0.28,9.73
42709656,0.033792,-0.043226,0.003367,0.00,-0.37,9.79
42710683,0.059359,-0.044291,0.001236,0.04,-0.34,9.79
42711674,0.066816,-0.038965,0.001236,0.06,-0.26,9.79
42712691,0.065751,-0.030443,-0.001959,0.09,-0.30,9.69
42713694,0.033792,-0.005941,-0.006221,0.01,-0.39,9.65
42714704,0.010356,0.024952,-0.011547,0.03,-0.28,9.76
42715714,-0.017341,0.038801,-0.010482,0.05,-0.17,9.81
42716724,-0.051430,0.047323,-0.009416,0.02,-0.34,9.82
42717741,-0.087650,0.056910,-0.008351,-0.04,-0.41,9.79
42718772,-0.085519,0.047323,-0.008351,0.04,-0.23,9.82
42719759,-0.069540,0.018560,-0.001959,0.10,-0.19,9.73
42720768,-0.058887,0.000451,-0.000894,0.08,-0.28,9.73
42721777,-0.045039,-0.016594,0.001236,0.00,-0.38,9.72
42722795,-0.001362,-0.036834,0.000171,0.02,-0.33,9.74
42723797,0.047641,-0.050683,0.002302,0.07,-0.14,9.90
42724808,0.076403,-0.052814,-0.000894,0.02,-0.23,9.82
42725817,0.074273,-0.037900,-0.000894,-0.06,-0.37,9.79
42726828,0.059359,-0.011268,-0.003025,0.02,-0.29,9.74
42727844,0.026335,0.013234,-0.005155,0.08,-0.22,9.74
42728868,-0.003493,0.030278,-0.006221,0.04,-0.32,9.87
42729856,-0.041843,0.046258,-0.005155,-0.04,-0.39,9.77
42730864,-0.055691,0.050519,-0.005155,0.02,-0.32,9.75
42731874,-0.063148,0.037735,-0.005155,0.06,-0.24,9.77
42732893,-0.069540,0.029213,-0.004090,0.06,-0.29,9.78
42733899,-0.061018,0.016430,0.001236,0.00,-0.36,9.82
42734913,-0.030125,-0.009137,0.001236,0.01,-0.39,9.67
42735922,0.019944,-0.029377,0.002302,0.09,-0.24,9.81
42736935,0.056163,-0.041095,0.001236,0.07,-0.28,9.80
42737949,0.063620,-0.041095,0.002302,-0.05,-0.37,9.68
42738980,0.058294,-0.029377,0.000171,-0.03,-0.36,9.65
42739971,0.043380,-0.014463,0.000171,0.01,-0.23,9.74
42740980,0.027400,-0.004876,0.000171,0.04,-0.29,9.90
42741992,-0.007754,0.020691,0.001236,-0.04,-0.41,9.76
42743005,-0.043973,0.047323,-0.004090,-0.03,-0.40,9.66
42744007,-0.071671,0.053715,-0.004090,0.05,-0.25,9.74
42745017,-0.087650,0.051584,-0.004090,0.07,-0.30,9.80
42746022,-0.085519,0.048388,0.000171,-0.01,-0.45,9.73
42747034,-0.061018,0.028148,0.002302,-0.01,-0.38,9.66
42748056,-0.040777,-0.002745,0.007628,0.05,-0.21,9.82
42749075,-0.038647,-0.011268,0.006563,0.04,-0.30,9.85
42750064,-0.035451,-0.014463,0.007628,-0.02,-0.42,9.78
42751069,-0.004558,-0.027247,0.006563,0.02,-0.42,9.84
42752078,0.041249,-0.045357,0.008693,0.10,-0.24,9.78
42753091,0.066816,-0.051748,0.008693,0.04,-0.32,9.71
42754094,0.079599,-0.045357,0.009759,0.00,-0.42,9.67
42755109,0.073208,-0.028312,0.003367,0.01,-0.36,9.77
42756118,0.054033,-0.010202,-0.001959,0.03,-0.22,9.86
42757126,0.036988,0.000451,-0.004090,0.06,-0.28,9.75
42758142,0.015682,0.020691,-0.001959,0.03,-0.40,9.76
42759181,-0.004558,0.036670,-0.004090,0.01,-0.41,9.70
42760159,-0.032255,0.043062,-0.005155,0.03,-0.26,9.86
42761167,-0.059953,0.046258,-0.004090,0.02,-0.34,9.83
42762178,-0.072736,0.040931,0.002302,0.00,-0.33,9.79
42763194,-0.053561,0.017495,0.006563,-0.01,-0.30,9.74
42764198,-0.010950,-0.013398,0.009759,-0.02,-0.27,9.67
42765207,0.010356,-0.028312,0.005498,-0.03,-0.36,9.78
42766218,0.029531,-0.034704,0.006563,-0.04,-0.39,9.83
42767227,0.041249,-0.041095,0.001236,-0.06,-0.38,9.66
42768245,0.048706,-0.031508,-0.000894,0.01,-0.24,9.65
42769267,0.062555,-0.022986,-0.001959,0.04,-0.32,9.84
42770256,0.060424,-0.004876,-0.000894,0.00,-0.40,9.86
42771264,0.035923,0.016430,-0.005155,-0.03,-0.40,9.70
42772274,0.012487,0.028148,-0.006221,-0.01,-0.28,9.76
42773291,-0.012015,0.032409,-0.008351,0.03,-0.29,9.96
42774294,-0.036516,0.041996,-0.005155,0.00,-0.36,9.94
42775304,-0.046104,0.043062,-0.007286,-0.02,-0.39,9.67
42776314,-0.053561,0.037735,-0.006221,0.03,-0.29,9.64
42777324,-0.071671,0.038801,-0.004090,0.03,-0.33,9.86
42778341,-0.075932,0.035605,-0.000894,0.02,-0.37,9.90
42779372,-0.063148,0.013234,0.001236,0.00,-0.40,9.67
42780359,-0.032255,-0.016594,0.005498,0.00,-0.37,9.58
42781367,-0.024798,-0.027247,0.004432,0.04,-0.31,9.83
42782378,-0.005623,-0.030443,0.005498,0.04,-0.36,9.83
42783394,0.026335,-0.037900,0.003367,-0.03,-0.43,9.69
42784398,0.068946,-0.046422,0.002302,0.02,-0.31,9.70
42785407,0.084926,-0.049618,-0.000894,0.08,-0.26,9.86
42786418,0.088122,-0.041095,-0.000894,0.01,-0.35,9.90
42787427,0.072142,-0.027247,-0.006221,-0.08,-0.41,9.78
42788445,0.054033,-0.007006,-0.009416,-0.03,-0.28,9.76
42789467,0.009291,0.027083,-0.007286,-0.02,-0.32,9.86
42790456,-0.010950,0.038801,-0.011547,-0.07,-0.36,9.74
42791464,-0.033321,0.045192,-0.011547,-0.02,-0.31,9.73
42792474,-0.059953,0.049453,-0.012612,0.05,-0.35,9.81
42793491,-0.066344,0.052649,-0.009416,0.02,-0.41,9.86
