time_us,gyro_x_rad_s,gyro_y_rad_s,gyro_z_rad_s,acc_x_m_s2,acc_y_m_s2,acc_z_m_s2
2135824116,0.003378,-0.004813,0.002442,0.03,-0.26,9.81
2135824841,0.003378,-0.004813,0.001376,0.02,-0.23,9.85
2135825835,0.000183,-0.002683,0.000311,0.03,-0.22,9.82
2135826850,0.000183,-0.000552,-0.000754,0.02,-0.25,9.81
2135827855,0.002313,0.001578,-0.002885,0.00,-0.27,9.83
2135828860,0.003378,-0.001617,-0.002885,0.00,-0.26,9.84
2135829820,0.001248,-0.003748,-0.001819,0.01,-0.23,9.83
2135830826,0.001248,-0.003748,0.000311,0.00,-0.20,9.82
2135831837,0.002313,-0.003748,0.000311,0.01,-0.20,9.85
2135832868,0.002313,-0.002683,0.000311,0.01,-0.24,9.84
2135833854,0.000183,-0.001617,0.000311,-0.01,-0.25,9.85
2135834866,-0.000883,-0.000552,-0.001819,0.01,-0.21,9.89
2135835817,-0.000883,-0.000552,-0.001819,0.01,-0.21,9.89
2135836828,0.001248,-0.000552,-0.002885,-0.01,-0.22,9.83
2135837835,-0.001948,-0.000552,-0.000754,-0.02,-0.22,9.83
2135838854,-0.001948,0.000513,0.002442,-0.02,-0.21,9.85
2135839853,-0.001948,0.000513,0.002442,-0.02,-0.23,9.85
2135840864,-0.000883,-0.000552,0.001376,-0.02,-0.22,9.85
2135841873,0.001248,-0.000552,0.001376,-0.02,-0.22,9.87
2135842903,0.002313,-0.000552,0.000311,-0.01,-0.24,9.91
2135843890,0.002313,-0.002683,-0.000754,0.00,-0.26,9.90
2135844896,0.002313,-0.004813,0.000311,0.01,-0.26,9.83
2135845904,0.001248,-0.002683,0.000311,0.03,-0.28,9.79
2135846916,0.000183,0.000513,-0.001819,0.01,-0.27,9.79
2135847924,0.000183,0.001578,-0.000754,-0.01,-0.22,9.77
2135848942,0.001248,-0.001617,-0.000754,0.02,-0.23,9.78
2135849944,0.000183,-0.001617,-0.000754,0.03,-0.25,9.78
2135850956,0.000183,0.000513,0.001376,-0.01,-0.25,9.80
2135851964,0.001248,0.000513,0.001376,-0.01,-0.25,9.79
2135852996,0.001248,0.000513,0.001376,0.01,-0.26,9.80
2135853990,0.000183,0.002644,0.000311,0.03,-0.25,9.85
2135854996,-0.001948,0.002644,0.000311,0.02,-0.22,9.85
2135856004,-0.001948,0.000513,0.001376,0.00,-0.20,9.82
2135857016,0.000183,-0.001617,0.002442,0.02,-0.23,9.80
2135858024,0.002313,-0.001617,0.000311,0.05,-0.26,9.80
2135859042,0.002313,-0.000552,-0.000754,0.05,-0.24,9.82
2135860044,0.000183,-0.000552,-0.000754,0.03,-0.25,9.85
2135861056,-0.001948,-0.000552,0.000311,0.00,-0.26,9.80
2135862064,-0.000883,-0.001617,0.001376,0.01,-0.26,9.76
2135863096,0.001248,-0.002683,0.000311,0.01,-0.26,9.80
2135864090,0.001248,-0.002683,0.000311,0.02,-0.26,9.78
2135865096,0.000183,-0.002683,0.002442,0.02,-0.24,9.80
2135866104,-0.001948,-0.001617,0.004572,-0.02,-0.21,9.83
2135867143,0.000183,-0.002683,0.002442,-0.03,-0.23,9.81
2135868124,0.003378,-0.002683,-0.000754,0.01,-0.27,9.80
2135869142,0.002313,-0.000552,0.000311,0.00,-0.27,9.82
2135870144,0.000183,0.001578,0.001376,-0.02,-0.25,9.86
2135871156,0.000183,0.000513,0.002442,0.02,-0.26,9.83
2135872164,0.000183,-0.001617,0.002442,0.03,-0.25,9.82
2135873196,-0.000883,-0.001617,0.002442,0.01,-0.23,9.82
2135874190,-0.000883,-0.000552,0.001376,0.00,-0.23,9.80
2135875196,-0.001948,-0.000552,0.000311,-0.02,-0.24,9.78
2135876204,-0.000883,-0.003748,0.000311,0.00,-0.24,9.82
2135877216,0.000183,-0.005879,0.000311,-0.01,-0.22,9.86
2135878224,0.001248,-0.003748,-0.001819,-0.02,-0.21,9.80
2135879242,0.001248,0.000513,-0.002885,0.00,-0.26,9.79
2135880244,0.001248,0.000513,-0.003950,0.02,-0.28,9.83
2135881256,0.001248,-0.000552,-0.002885,0.02,-0.24,9.83
2135882264,0.000183,-0.002683,-0.001819,0.01,-0.25,9.84
2135883296,0.000183,-0.002683,-0.001819,0.01,-0.23,9.80
2135884290,0.001248,-0.000552,-0.001819,0.02,-0.23,9.76
2135885296,0.002313,0.001578,-0.001819,0.01,-0.25,9.77
2135886304,0.002313,0.002644,-0.001819,0.01,-0.25,9.81
2135887316,0.000183,0.001578,-0.000754,0.01,-0.23,9.78
2135888324,0.000183,0.000513,0.000311,-0.01,-0.26,9.76
2135889342,0.000183,0.000513,0.000311,0.01,-0.28,9.80
2135890344,0.001248,0.000513,-0.000754,0.02,-0.23,9.82
2135891356,0.000183,0.000513,0.000311,0.03,-0.25,9.83
2135892364,0.000183,-0.000552,0.000311,0.04,-0.28,9.81
2135893396,-0.000883,-0.000552,0.001376,0.03,-0.24,9.78
2135894390,-0.003013,0.000513,0.000311,0.00,-0.23,9.76
2135895396,-0.003013,0.000513,-0.001819,-0.03,-0.24,9.80
2135896404,-0.000883,0.000513,-0.001819,-0.02,-0.23,9.82
2135897416,0.000183,-0.000552,-0.000754,-0.03,-0.26,9.84
2135898424,-0.000883,0.000513,-0.000754,-0.01,-0.27,9.85
2135899442,-0.001948,0.001578,-0.002885,0.02,-0.22,9.86
2135900444,-0.001948,-0.000552,-0.002885,0.02,-0.23,9.84
2135901456,-0.005144,-0.003748,-0.002885,0.03,-0.24,9.83
2135902464,-0.004078,-0.002683,-0.002885,0.03,-0.22,9.84
2135903496,0.000183,-0.000552,-0.002885,0.00,-0.23,9.82
2135904490,0.001248,-0.000552,-0.003950,-0.02,-0.21,9.79
2135905496,0.000183,-0.000552,-0.003950,-0.01,-0.22,9.79
2135906504,0.000183,-0.001617,-0.001819,0.02,-0.24,9.82
2135907516,-0.000883,-0.000552,0.000311,0.03,-0.22,9.83
2135908524,-0.000883,-0.000552,0.001376,0.01,-0.23,9.81
2135909542,-0.001948,-0.000552,0.001376,-0.04,-0.26,9.82
2135910544,0.000183,-0.000552,-0.000754,-0.02,-0.27,9.85
2135911556,0.000183,-0.001617,-0.002885,0.03,-0.24,9.82
2135912564,0.000183,-0.000552,-0.001819,0.02,-0.20,9.81
2135913603,0.000183,0.001578,0.000311,-0.01,-0.22,9.78
2135914596,0.001248,0.001578,0.001376,0.01,-0.23,9.74
2135915603,0.002313,0.000513,0.000311,0.03,-0.21,9.83
2135916611,0.002313,-0.001617,-0.001819,0.03,-0.21,9.91
2135917627,0.001248,0.000513,-0.002885,0.00,-0.22,9.88
2135918628,0.000183,0.001578,-0.001819,-0.01,-0.19,9.85
2135919651,0.000183,0.001578,-0.000754,-0.01,-0.24,9.86
2135920652,-0.000883,0.001578,0.000311,0.00,-0.24,9.82
2135921672,-0.001948,0.000513,-0.000754,0.01,-0.20,9.79
2135922676,-0.000883,0.001578,-0.001819,-0.01,-0.23,9.84
2135923705,-0.000883,0.002644,-0.001819,0.02,-0.24,9.85
2135924698,0.000183,0.003709,-0.000754,0.03,-0.23,9.83
2135925710,0.001248,0.001578,0.000311,-0.01,-0.22,9.81
2135926717,0.001248,0.000513,-0.000754,-0.01,-0.23,9.80
2135927727,0.001248,-0.001617,-0.001819,0.01,-0.23,9.83
2135928735,-0.000883,-0.003748,-0.001819,0.02,-0.22,9.82
2135929751,0.000183,-0.001617,-0.002885,0.04,-0.23,9.85
2135930750,0.002313,0.000513,-0.001819,0.01,-0.27,9.89
2135931763,0.001248,0.000513,0.000311,0.01,-0.26,9.84
2135932769,-0.000883,-0.001617,0.000311,0.04,-0.22,9.80
2135933798,-0.000883,-0.002683,-0.000754,0.02,-0.22,9.79
2135934794,-0.000883,-0.002683,-0.001819,0.03,-0.24,9.81
2135935800,-0.000883,-0.001617,-0.001819,0.04,-0.23,9.85
2135936809,0.000183,0.000513,-0.000754,0.02,-0.24,9.80
2135937820,0.002313,0.000513,0.001376,0.03,-0.24,9.78
2135938827,0.002313,0.000513,0.001376,0.00,-0.23,9.85
2135939845,0.002313,-0.001617,-0.000754,0.03,-0.24,9.77
2135940844,0.002313,-0.002683,-0.002885,0.02,-0.22,9.74
2135941856,0.002313,-0.000552,-0.001819,-0.02,-0.22,9.80
2135942884,0.002313,0.000513,-0.000754,0.00,-0.24,9.80
2135943874,0.001248,0.000513,-0.001819,0.03,-0.24,9.82
2135944892,0.000183,0.000513,-0.001819,0.00,-0.26,9.81
2135945894,0.000183,-0.000552,0.000311,0.00,-0.27,9.78
2135946934,0.001213,-0.001542,0.001432,0.01,-0.23,9.76
2135947914,0.003343,-0.000477,0.001432,0.00,-0.22,9.79
2135948926,0.004409,-0.000477,0.002497,0.01,-0.22,9.82
2135949940,0.002278,-0.000477,0.002497,0.02,-0.20,9.79
2135950946,0.001213,-0.000477,0.001432,0.02,-0.20,9.81
2135951954,0.001213,-0.000477,-0.000698,0.03,-0.22,9.78
2135952984,0.001213,-0.000477,0.000367,0.04,-0.23,9.74
2135953974,0.000148,-0.001542,0.002497,0.00,-0.22,9.79
2135954992,0.001213,-0.000477,0.001432,0.01,-0.22,9.84
2135955994,0.000148,0.001654,0.000367,0.03,-0.25,9.86
2135957006,-0.000918,0.001654,0.000367,0.03,-0.25,9.82
2135958014,0.000148,0.000589,0.001432,0.03,-0.22,9.85
2135959026,0.001213,-0.001542,0.004628,0.03,-0.22,9.83
2135960040,0.001213,-0.004738,0.005693,0.02,-0.26,9.77
2135961046,0.002278,-0.003672,0.004628,0.02,-0.29,9.83
2135962054,0.002278,-0.001542,0.000367,0.03,-0.26,9.86
2135963084,0.002278,0.000589,-0.001764,0.01,-0.23,9.82
2135964074,0.001213,0.001654,-0.001764,-0.01,-0.25,9.80
2135965092,0.000148,0.001654,-0.001764,-0.02,-0.23,9.85
2135966094,-0.001983,0.000589,-0.000698,0.01,-0.21,9.87
2135967106,-0.000918,-0.000477,0.000367,0.03,-0.23,9.83
2135968114,0.001213,-0.003672,0.000367,0.01,-0.22,9.82
2135969163,0.001213,-0.002607,0.000367,0.00,-0.20,9.82
2135970140,-0.000918,-0.000477,0.001432,0.01,-0.25,9.87
2135971146,-0.001983,-0.001542,0.001432,-0.02,-0.27,9.87
2135972154,-0.000918,-0.002607,0.000367,-0.01,-0.26,9.81
2135973184,-0.001983,-0.003672,0.000367,0.02,-0.27,9.78
2135974174,-0.003048,-0.002607,0.000367,0.02,-0.26,9.78
2135975192,-0.001983,-0.000477,-0.000698,0.02,-0.25,9.82
2135976194,-0.000918,-0.000477,-0.000698,0.01,-0.25,9.86
2135977206,0.000148,0.001654,0.000367,-0.01,-0.24,9.84
2135978214,0.000148,0.002719,-0.001764,0.00,-0.23,9.86
2135979226,0.000148,0.002719,-0.002829,0.03,-0.24,9.87
2135980240,0.000148,-0.000477,-0.000698,0.02,-0.25,9.82
2135981246,0.002278,-0.002607,0.001432,0.00,-0.21,9.81
2135982254,0.002278,-0.001542,0.002497,0.01,-0.20,9.81
2135983284,0.002278,0.000589,0.002497,0.04,-0.23,9.83
2135984274,0.001213,0.001654,0.000367,0.04,-0.22,9.86
2135985292,0.000148,-0.000477,0.000367,0.02,-0.24,9.87
2135986294,-0.001983,-0.000477,0.001432,-0.01,-0.26,9.82
2135987306,-0.001983,0.000589,0.001432,0.01,-0.27,9.81
2135988314,-0.001983,0.002719,0.002497,0.02,-0.27,9.83
2135989326,0.000148,0.001654,0.000367,0.01,-0.26,9.83
2135990340,0.003343,0.000589,0.001432,0.02,-0.27,9.86
2135991346,0.003343,-0.000477,0.001432,0.00,-0.27,9.85
2135992354,0.002278,-0.002607,0.001432,-0.02,-0.22,9.81
2135993384,0.001213,-0.003672,-0.000698,-0.02,-0.18,9.78
2135994374,0.001213,-0.003672,-0.002829,0.01,-0.21,9.80
2135995392,0.001213,-0.003672,-0.001764,0.03,-0.26,9.86
2135996394,0.000148,-0.002607,0.000367,0.05,-0.28,9.86
2135997406,0.000148,-0.001542,0.000367,0.05,-0.25,9.86
2135998414,0.000148,-0.001542,0.000367,0.02,-0.22,9.85
2135999426,0.000148,-0.002607,0.000367,0.02,-0.23,9.83
2136000440,-0.001983,-0.001542,0.000367,0.02,-0.23,9.82
2136001446,-0.003048,-0.000477,0.001432,-0.01,-0.23,9.85
2136002454,0.000148,-0.000477,0.002497,0.00,-0.22,9.85
2136003484,0.003343,0.001654,0.001432,0.05,-0.22,9.81
2136004474,0.004409,0.001654,-0.001764,0.05,-0.23,9.79
2136005492,0.002278,0.000589,-0.003894,0.02,-0.24,9.86
2136006494,0.000148,0.000589,-0.001764,0.01,-0.26,9.88
2136007506,0.000148,0.000589,0.000367,0.04,-0.25,9.84
2136008514,0.001213,0.001654,0.001432,0.03,-0.24,9.81
2136009526,0.000148,0.000589,0.000367,0.02,-0.23,9.79
2136010540,-0.000918,-0.002607,0.001432,0.01,-0.22,9.82
2136011546,-0.000918,-0.004738,0.002497,0.02,-0.23,9.84
2136012554,-0.000918,-0.002607,0.001432,0.03,-0.24,9.81
2136013587,-0.001983,-0.000477,0.001432,0.03,-0.25,9.84
2136014577,-0.004113,0.000589,-0.000698,0.02,-0.26,9.86
2136015600,-0.001983,0.001654,0.000367,-0.01,-0.26,9.84
2136016600,-0.001983,0.001654,-0.000698,-0.03,-0.27,9.79
2136017613,-0.001983,0.000589,-0.001764,-0.02,-0.24,9.80
2136018622,-0.001983,-0.000477,0.001432,0.00,-0.23,9.83
2136019629,-0.001983,-0.001542,0.002497,0.01,-0.25,9.75
2136020649,0.001213,-0.001542,0.000367,0.02,-0.27,9.76
2136021654,0.003343,-0.000477,-0.000698,0.00,-0.26,9.79
2136022669,0.001213,-0.001542,-0.000698,-0.02,-0.24,9.78
2136023694,-0.000918,-0.002607,0.000367,-0.02,-0.27,9.81
2136024682,0.000148,-0.002607,-0.000698,-0.01,-0.26,9.82
2136025704,0.001213,-0.001542,-0.001764,-0.01,-0.22,9.80
2136026705,0.000148,0.001654,-0.001764,-0.01,-0.24,9.80
2136027720,0.001213,0.002719,-0.001764,0.01,-0.25,9.83
2136028726,0.001213,0.002719,-0.000698,0.01,-0.24,9.85
2136029735,0.000148,0.001654,-0.000698,-0.01,-0.24,9.86
2136030750,-0.000918,-0.000477,0.000367,0.00,-0.23,9.86
2136031755,-0.001983,-0.002607,0.000367,0.00,-0.22,9.80
2136032759,-0.001983,-0.002607,0.000367,0.00,-0.21,9.82
2136033791,0.000148,-0.001542,0.001432,0.02,-0.23,9.86
2136034777,0.002278,-0.001542,0.002497,0.03,-0.25,9.81
2136035795,0.002278,-0.002607,0.000367,0.01,-0.23,9.79
2136036799,0.001213,-0.002607,-0.000698,0.00,-0.22,9.80
2136037810,0.001213,-0.002607,-0.000698,0.02,-0.21,9.81
2136038818,0.001213,-0.001542,-0.000698,0.01,-0.25,9.84
2136039828,0.000148,0.000589,-0.001764,0.00,-0.29,9.81
2136040844,0.001213,-0.000477,-0.003894,0.02,-0.23,9.82
2136041846,0.000148,-0.000477,-0.001764,0.03,-0.23,9.81
2136042876,-0.000918,-0.000477,0.001432,0.04,-0.25,9.81
2136043864,-0.001983,-0.000477,0.001432,0.00,-0.25,9.82
2136044876,-0.001983,-0.000477,0.000367,-0.01,-0.25,9.84
2136045890,-0.000918,-0.000477,-0.001764,0.02,-0.23,9.82
2136046896,0.000148,-0.000477,-0.003894,0.02,-0.23,9.78
2136047904,0.001213,0.001654,-0.003894,0.02,-0.23,9.80
2136048916,-0.000918,0.000589,-0.002829,0.01,-0.20,9.81
2136049924,-0.000918,-0.000477,-0.000698,0.00,-0.18,9.78
2136050942,0.000148,-0.002607,0.000367,0.02,-0.17,9.81
2136051944,0.002278,-0.003672,-0.001764,-0.02,-0.20,9.85
2136052976,0.002278,-0.003672,-0.003894,-0.02,-0.24,9.81
2136053964,0.003343,-0.000477,-0.003894,0.04,-0.24,9.79
2136054976,0.003343,0.001654,-0.002829,0.03,-0.22,9.79
2136055990,0.002278,0.002719,-0.000698,0.01,-0.21,9.79
2136056996,0.001213,0.003784,0.000367,0.03,-0.23,9.79
2136058004,-0.000918,0.004850,0.001432,0.03,-0.25,9.79
2136059016,-0.001983,0.003784,0.000367,0.01,-0.26,9.82
2136060024,-0.000918,0.000589,-0.000698,0.00,-0.27,9.85
2136061042,-0.000918,-0.001542,0.000367,0.00,-0.26,9.83
2136062044,-0.000918,-0.003672,0.000367,0.02,-0.21,9.85
2136063076,-0.000918,-0.002607,0.000367,0.03,-0.20,9.89
2136064064,0.000148,0.000589,-0.000698,0.01,-0.23,9.83
2136065107,0.000148,0.002719,-0.001764,-0.01,-0.23,9.81
2136066090,0.000148,0.003784,-0.000698,-0.01,-0.25,9.80
2136067116,0.000148,0.001654,0.001432,0.00,-0.23,9.77
2136068104,0.002278,0.000589,0.000367,0.00,-0.21,9.82
2136069116,0.003343,0.000589,-0.000698,-0.02,-0.23,9.80
2136070124,0.002278,-0.002607,-0.000698,0.00,-0.26,9.75
2136071142,0.000148,-0.004738,-0.000698,0.02,-0.27,9.80
2136072144,-0.003048,-0.003672,0.002497,0.00,-0.25,9.85
2136073192,-0.001983,-0.000477,0.002497,0.04,-0.27,9.83
2136074167,0.001213,0.001654,0.001432,0.05,-0.26,9.84
2136075176,0.001213,0.000589,0.000367,0.01,-0.23,9.84
2136076217,0.000111,-0.001481,0.000353,0.00,-0.27,9.81
2136077214,0.000111,-0.000415,0.000353,0.00,-0.27,9.79
2136078204,-0.000954,0.000650,0.001418,0.02,-0.25,9.79
2136079216,-0.003085,0.000650,0.002483,0.00,-0.23,9.83
2136080224,-0.002020,-0.000415,0.000353,0.01,-0.26,9.82
2136081242,0.000111,-0.000415,-0.000713,0.03,-0.28,9.80
2136082244,0.001176,0.001715,-0.000713,0.01,-0.25,9.83
2136083272,0.000111,0.001715,-0.001778,-0.01,-0.23,9.87
2136084267,0.000111,0.001715,-0.001778,0.01,-0.23,9.81
2136085276,0.000111,0.001715,-0.002843,0.00,-0.23,9.81
2136086290,0.000111,0.002781,-0.003908,-0.02,-0.23,9.87
2136087314,0.001176,0.003846,-0.002843,-0.02,-0.27,9.85
2136088304,0.000111,0.001715,0.000353,0.00,-0.29,9.85
2136089316,-0.000954,0.000650,0.001418,-0.01,-0.25,9.85
2136090324,0.000111,0.001715,0.001418,0.00,-0.21,9.82
2136091342,0.000111,0.002781,0.000353,0.02,-0.20,9.82
2136092344,-0.002020,0.002781,-0.000713,-0.02,-0.20,9.79
2136093372,-0.000954,0.003846,-0.000713,-0.01,-0.23,9.78
2136094367,0.000111,0.002781,-0.002843,0.02,-0.25,9.81
2136095376,-0.003085,0.001715,-0.002843,0.01,-0.23,9.82
2136096390,-0.003085,0.000650,-0.000713,0.01,-0.22,9.76
2136097414,-0.000954,-0.000415,0.001418,0.00,-0.25,9.80
2136098404,-0.000954,0.000650,0.002483,-0.01,-0.27,9.83
2136099416,0.001176,0.001715,-0.000713,0.01,-0.28,9.77
2136100424,0.002241,0.001715,-0.001778,0.04,-0.26,9.79
2136101442,0.001176,0.001715,-0.001778,0.01,-0.22,9.82
2136102444,0.001176,-0.000415,-0.001778,0.00,-0.22,9.84
2136103472,0.001176,-0.001481,-0.000713,0.00,-0.20,9.82
2136104467,-0.000954,-0.000415,-0.000713,0.01,-0.22,9.78
2136105476,-0.002020,0.001715,-0.000713,0.01,-0.25,9.79
2136106490,-0.002020,0.000650,-0.001778,0.01,-0.24,9.80
2136107514,0.000111,-0.001481,-0.001778,0.01,-0.25,9.82
2136108504,0.001176,-0.001481,0.000353,0.01,-0.25,9.81
2136109516,0.001176,0.000650,0.002483,0.01,-0.27,9.81
2136110524,0.001176,0.000650,0.002483,0.03,-0.26,9.85
2136111542,0.000111,0.001715,0.001418,0.03,-0.23,9.81
2136112544,-0.002020,-0.000415,0.000353,-0.01,-0.23,9.84
2136113575,-0.003085,-0.000415,0.000353,0.01,-0.25,9.87
2136114567,-0.000954,0.000650,0.001418,0.01,-0.27,9.82
2136115580,0.000111,0.001715,0.002483,-0.01,-0.23,9.82
2136116596,0.000111,0.001715,0.000353,0.03,-0.24,9.83
2136117622,0.000111,-0.000415,-0.001778,0.03,-0.26,9.81
2136118611,0.001176,-0.000415,-0.004974,-0.01,-0.24,9.83
2136119627,0.001176,-0.000415,-0.003908,0.00,-0.22,9.84
2136120628,-0.000954,-0.003611,-0.001778,0.03,-0.23,9.81
2136121651,-0.002020,-0.002546,0.000353,0.00,-0.25,9.82
2136122652,-0.002020,-0.000415,-0.000713,-0.02,-0.23,9.83
2136123683,-0.000954,-0.001481,0.000353,0.01,-0.23,9.86
2136124676,0.000111,-0.003611,0.000353,-0.01,-0.24,9.85
2136125686,0.002241,-0.003611,-0.000713,0.01,-0.25,9.83
2136126698,0.003307,-0.002546,-0.001778,0.02,-0.26,9.83
2136127732,0.001176,-0.000415,-0.000713,-0.03,-0.28,9.80
2136128721,-0.000954,0.000650,0.000353,-0.02,-0.25,9.84
2136129728,-0.000954,0.001715,-0.000713,-0.01,-0.21,9.84
2136130732,0.000111,0.003846,-0.001778,-0.02,-0.24,9.80
2136131751,0.001176,0.002781,0.000353,-0.02,-0.25,9.80
2136132750,0.000111,0.002781,0.001418,0.01,-0.26,9.83
2136133783,-0.000954,0.000650,0.001418,0.03,-0.25,9.82
2136134772,-0.000954,-0.000415,0.001418,0.00,-0.26,9.77
2136135778,-0.000954,-0.001481,-0.000713,-0.01,-0.27,9.78
2136136794,-0.003085,0.000650,-0.000713,0.03,-0.24,9.78
2136137818,-0.003085,0.000650,-0.000713,0.01,-0.22,9.80
2136138809,-0.000954,-0.000415,0.000353,-0.02,-0.25,9.82
2136139820,0.001176,-0.000415,0.001418,0.00,-0.25,9.83
2136140827,0.002241,0.002781,0.000353,0.03,-0.25,9.82
2136141845,0.002241,0.005976,-0.002843,0.03,-0.24,9.81
2136142863,-0.000954,0.001715,-0.001778,-0.02,-0.25,9.79
2136143857,-0.000954,0.001715,-0.000713,-0.02,-0.26,9.80
2136144866,0.000111,0.001715,-0.000713,-0.01,-0.21,9.83
2136145874,0.002241,0.000650,-0.001778,0.01,-0.21,9.85
2136146910,0.003307,-0.000415,-0.003908,0.00,-0.25,9.85
2136147894,0.003307,-0.002546,-0.003908,0.03,-0.26,9.85
2136148906,0.001176,-0.004676,-0.003908,0.03,-0.26,9.87
2136149914,0.000111,-0.003611,-0.002843,0.01,-0.26,9.87
2136150926,-0.000954,-0.001481,-0.000713,-0.01,-0.24,9.87
2136151940,0.000111,0.000650,0.000353,-0.01,-0.26,9.86
2136152962,0.000111,0.002781,-0.000713,0.01,-0.27,9.83
2136153957,-0.000954,0.003846,-0.001778,0.02,-0.25,9.80
2136154966,-0.002020,0.002781,-0.002843,0.03,-0.26,9.82
2136155974,-0.000954,0.001715,-0.002843,0.00,-0.24,9.80
2136157010,0.000111,0.001715,-0.002843,-0.02,-0.21,9.76
2136157994,0.001176,0.001715,-0.003908,-0.03,-0.24,9.78
2136159006,0.001176,-0.000415,-0.001778,-0.03,-0.26,9.81
2136160014,0.001176,-0.001481,0.001418,-0.03,-0.23,9.82
2136161026,-0.000954,-0.000415,0.001418,-0.04,-0.22,9.85
2136162040,-0.002020,0.000650,0.000353,-0.01,-0.24,9.87
2136163062,0.000111,0.000650,-0.001778,-0.01,-0.25,9.82
2136164057,0.002241,-0.001481,-0.002843,-0.01,-0.25,9.79
2136165066,0.000111,-0.002546,-0.003908,0.01,-0.24,9.80
2136166074,-0.000954,-0.001481,-0.000713,0.00,-0.22,9.84
2136167110,-0.000954,-0.000415,0.000353,0.02,-0.21,9.84
2136168094,0.000111,-0.000415,0.001418,0.02,-0.22,9.83
2136169106,-0.000954,-0.000415,0.001418,0.02,-0.25,9.84
2136170114,-0.002020,-0.002546,0.001418,0.03,-0.25,9.83
2136171126,-0.000954,-0.002546,0.001418,0.03,-0.24,9.83
2136172140,-0.000954,-0.001481,0.001418,0.03,-0.25,9.84
2136173162,0.000111,-0.000415,0.000353,0.02,-0.25,9.81
2136174188,0.001176,0.001715,-0.000713,0.03,-0.24,9.76
2136175166,0.001176,0.001715,-0.001778,0.01,-0.22,9.82
2136176174,0.001176,-0.000415,-0.001778,0.00,-0.20,9.86
2136177210,0.002241,-0.002546,-0.000713,0.02,-0.18,9.87
2136178194,0.002241,-0.001481,0.000353,0.02,-0.21,9.85
2136179206,0.001176,-0.001481,0.000353,0.01,-0.22,9.84
2136180214,0.001176,-0.000415,0.000353,0.01,-0.22,9.85
2136181226,0.001176,0.000650,0.000353,0.00,-0.24,9.84
2136182240,0.001176,0.000650,0.001418,-0.03,-0.25,9.85
2136183262,0.001176,0.000650,0.001418,-0.02,-0.24,9.87
2136184257,0.001176,-0.000415,0.002483,0.01,-0.22,9.87
2136185266,-0.000954,0.000650,0.002483,0.02,-0.21,9.83
2136186274,-0.000954,-0.000415,0.001418,0.04,-0.21,9.86
2136187310,0.001176,-0.001481,0.000353,0.03,-0.24,9.86
2136188294,0.001176,-0.001481,-0.000713,0.04,-0.27,9.83
2136189306,0.001176,0.000650,-0.000713,0.06,-0.26,9.84
2136190314,0.001176,-0.000415,0.000353,0.02,-0.27,9.82
2136191326,0.000111,-0.000415,0.000353,0.00,-0.25,9.79
2136192340,-0.000954,-0.001481,-0.000713,0.02,-0.24,9.81
2136193362,0.001176,-0.001481,0.000353,0.01,-0.25,9.85
2136194357,0.001176,-0.000415,0.000353,-0.01,-0.23,9.85
2136195366,0.000111,-0.000415,-0.000713,-0.02,-0.28,9.83
2136196374,0.000111,0.000650,-0.001778,0.02,-0.29,9.77
2136197410,-0.000954,0.000650,-0.001778,0.03,-0.23,9.74
2136198394,-0.003085,0.001715,-0.001778,-0.02,-0.26,9.79
2136199406,-0.004150,0.000650,-0.001778,-0.02,-0.28,9.83
2136200414,-0.003085,-0.000415,-0.001778,-0.01,-0.28,9.86
2136201426,-0.000954,-0.000415,-0.000713,0.00,-0.30,9.87
2136202440,0.000111,-0.001481,-0.001778,-0.01,-0.28,9.85
2136203462,0.000111,-0.001481,-0.002843,-0.03,-0.25,9.80
2136204457,0.000111,-0.001481,-0.002843,-0.03,-0.26,9.85
2136205492,0.001183,-0.001503,-0.002771,-0.02,-0.25,9.87
2136206474,0.000118,-0.001503,-0.000641,-0.01,-0.25,9.85
2136207510,-0.000948,0.001693,0.001490,-0.01,-0.25,9.83
2136208494,-0.002013,0.003824,0.002555,-0.01,-0.26,9.81
2136209506,-0.000948,0.002758,0.003620,-0.04,-0.28,9.84
2136210514,0.000118,-0.001503,0.002555,-0.03,-0.25,9.84
2136211526,-0.000948,-0.002568,0.002555,-0.01,-0.25,9.83
2136212540,-0.003078,-0.001503,0.001490,-0.02,-0.26,9.83
2136213562,-0.002013,-0.001503,-0.000641,0.00,-0.24,9.83
2136214557,0.001183,-0.001503,-0.002771,0.01,-0.24,9.85
2136215566,0.001183,-0.001503,-0.001706,0.00,-0.27,9.80
2136216577,0.000118,0.000628,-0.001706,0.01,-0.26,9.80
2136217615,-0.000948,0.002758,-0.001706,0.02,-0.25,9.82
2136218600,-0.000948,0.001693,-0.002771,0.01,-0.26,9.82
2136219613,0.000118,0.001693,-0.003837,0.01,-0.25,9.80
2136220622,0.002248,0.001693,-0.003837,-0.01,-0.25,9.78
2136221629,0.000118,0.004889,-0.001706,0.00,-0.24,9.84
2136222674,-0.000948,0.005954,-0.000641,-0.02,-0.22,9.84
2136223687,0.000118,0.003824,-0.001706,0.01,-0.23,9.80
2136224670,0.000118,0.000628,-0.002771,0.03,-0.25,9.82
2136225682,-0.002013,-0.001503,-0.002771,0.00,-0.25,9.78
2136226688,-0.002013,-0.003633,-0.000641,-0.03,-0.25,9.76
2136227699,0.001183,-0.003633,0.001490,-0.06,-0.24,9.85
2136228715,0.002248,-0.002568,0.001490,-0.02,-0.24,9.83
2136229715,0.001183,-0.001503,0.000424,0.03,-0.23,9.79
2136230727,0.000118,0.000628,-0.002771,0.03,-0.22,9.82
2136231735,0.001183,0.000628,-0.002771,-0.01,-0.23,9.83
2136232752,0.001183,0.000628,-0.001706,-0.02,-0.22,9.85
2136233801,-0.002013,0.000628,0.001490,0.01,-0.22,9.84
2136234766,-0.004144,0.000628,0.001490,0.03,-0.22,9.84
2136235771,-0.003078,-0.000437,0.000424,-0.02,-0.20,9.85
2136236777,0.000118,-0.002568,0.000424,-0.05,-0.20,9.90
2136237795,0.000118,-0.002568,-0.001706,-0.02,-0.24,9.87
2136238799,-0.000948,-0.002568,-0.004902,0.03,-0.24,9.79
2136239810,-0.000948,-0.000437,-0.002771,0.02,-0.24,9.81
2136240818,0.000118,0.000628,0.000424,-0.02,-0.21,9.83
2136241828,-0.000948,0.001693,0.001490,-0.02,-0.19,9.82
2136242862,-0.003078,0.000628,0.000424,0.00,-0.23,9.80
2136243847,-0.003078,0.000628,-0.000641,0.02,-0.23,9.79
2136244856,0.002248,0.002758,-0.001706,-0.02,-0.25,9.79
2136245864,0.001183,0.000628,-0.001706,0.00,-0.25,9.80
2136246876,0.000118,-0.002568,-0.000641,0.00,-0.25,9.82
2136247890,-0.000948,-0.003633,-0.000641,-0.01,-0.26,9.82
2136248896,-0.000948,-0.002568,-0.000641,0.00,-0.26,9.81
2136249904,-0.002013,-0.000437,0.000424,-0.01,-0.25,9.84
2136250916,-0.000948,0.000628,0.000424,0.03,-0.25,9.84
2136251924,0.002248,0.002758,-0.001706,0.03,-0.25,9.80
2136252958,0.004379,0.002758,-0.002771,0.01,-0.25,9.79
2136253947,0.003313,0.001693,-0.000641,0.01,-0.25,9.80
2136254956,0.000118,-0.000437,0.001490,0.00,-0.25,9.83
2136255964,-0.002013,-0.001503,0.002555,-0.02,-0.24,9.86
2136256992,-0.002013,-0.000437,0.001490,0.00,-0.22,9.82
2136257990,-0.000948,0.000628,0.000424,0.02,-0.23,9.79
2136258996,-0.002013,0.002758,-0.000641,0.00,-0.23,9.85
2136260004,-0.003078,0.000628,-0.000641,0.01,-0.23,9.83
2136261016,-0.000948,-0.002568,-0.000641,0.02,-0.24,9.81
2136262023,0.001183,-0.001503,0.000424,0.00,-0.27,9.82
2136263312,0.000118,0.001693,0.000424,0.03,-0.26,9.83
2136264043,-0.006274,0.002758,-0.005967,0.01,-0.19,9.79
2136265039,-0.072322,0.024064,-0.025142,-0.04,-0.14,9.79
2136266049,-0.102149,0.030456,-0.020881,0.04,-0.14,9.81
2136267059,-0.065930,0.015542,0.002555,0.09,-0.24,9.85
2136268074,-0.021188,0.004889,0.022795,0.11,-0.22,9.87
2136269079,0.002248,0.001693,0.027056,0.17,-0.26,9.82
2136270089,0.001183,0.000628,0.022795,0.01,-0.62,9.73
2136271099,-0.002013,-0.002568,0.013208,-0.30,-0.57,9.69
2136272109,-0.004144,-0.004699,0.003620,-0.34,-0.07,9.88
2136273142,0.001183,-0.006829,0.000424,-0.13,0.29,9.85
2136274131,-0.006274,-0.001503,0.006816,0.34,0.07,9.82
2136275139,-0.021188,0.010215,0.012143,0.51,-0.70,9.87
2136276158,-0.023319,0.015542,0.002555,-0.14,-0.83,9.78
2136277159,-0.022253,0.004889,-0.019816,-0.73,-0.01,9.71
2136278174,-0.031841,-0.015351,-0.019816,0.09,0.27,9.54
2136279179,-0.006274,-0.012155,-0.001706,0.99,-0.90,9.69
2136280189,0.035272,0.013411,0.000424,-0.09,-0.50,10.39
2136281199,0.011836,0.015542,-0.013424,-0.85,1.29,10.35
2136282209,-0.045690,-0.018547,-0.010228,0.40,-1.18,8.84
2136283240,-0.015862,-0.007894,-0.005967,0.66,-1.56,9.85
2136284231,0.055512,0.027260,-0.015555,-0.55,2.55,11.20
2136285239,-0.024384,-0.014286,-0.004902,-0.14,-1.55,8.43
2136286249,-0.070191,-0.018547,0.001490,0.59,-2.09,9.73
2136287259,0.040598,0.032586,-0.007032,-0.19,3.59,11.59
2136288274,-0.011601,-0.010025,0.000424,-0.37,-2.81,7.80
2136289279,-0.062734,-0.013221,-0.011294,0.18,-0.73,10.50
2136290289,0.032076,0.033652,-0.012359,-0.19,1.68,10.15
2136291299,0.001183,0.014477,-0.000641,-0.05,-1.93,9.01
2136292309,0.017162,0.002758,-0.000641,0.00,0.82,10.81
2136293342,0.013966,-0.024939,0.011077,0.34,-0.76,8.08
2136294331,-0.019058,0.007020,0.002555,-0.41,-0.29,11.47
2136295339,0.018227,-0.011090,0.004686,-0.05,-0.05,9.11
2136296349,-0.030776,-0.017482,-0.004902,0.41,-0.21,9.85
2136297359,-0.002013,0.009150,-0.000641,-0.48,-0.89,9.70
2136298374,0.001183,0.000628,-0.005967,0.24,0.51,9.72
2136299379,-0.011601,-0.001503,-0.000641,0.09,-0.07,10.23
2136300389,-0.012666,-0.013221,0.002555,-0.21,-1.22,9.13
2136301399,0.050186,0.007020,0.007881,0.35,1.12,10.64
2136302409,0.050186,-0.008960,0.002555,-0.26,-1.32,9.55
2136303440,0.011836,-0.023874,-0.005967,0.63,0.79,10.34
2136304431,0.000118,-0.013221,-0.012359,0.18,-0.06,8.97
2136305439,-0.028645,-0.002568,-0.009163,-0.40,-0.74,10.78
2136306449,-0.021188,-0.006829,-0.004902,0.37,0.40,8.04
2136307459,-0.004144,-0.018547,-0.000641,-1.03,-1.48,10.19
2136308474,0.004379,-0.003633,-0.000641,0.51,0.43,10.72
2136309479,0.001183,-0.004699,-0.003837,0.68,0.17,9.50
2136310489,0.003313,-0.015351,-0.002771,-0.38,-1.01,12.00
2136311499,0.012901,0.008085,-0.000641,0.23,-0.15,6.78
2136312509,0.019293,0.026195,-0.001706,-0.40,-0.20,9.91
2136313542,0.008640,0.014477,0.001490,-0.38,-1.02,11.63
2136314531,0.007575,0.003824,0.002555,0.69,0.29,7.14
2136315539,-0.006274,0.000628,0.001490,-0.35,-0.05,11.49
2136316549,-0.022253,0.001693,-0.001706,-0.66,-1.32,11.83
2136317559,-0.025449,0.002758,-0.000641,0.75,0.48,7.52
2136318578,-0.026514,-0.013221,0.005751,0.10,0.65,10.46
2136319586,-0.032906,-0.022808,0.011077,-0.95,-1.54,11.46
2136320592,-0.020123,-0.010025,0.008947,0.48,-0.05,7.47
2136321606,0.006509,0.003824,0.001490,0.73,1.16,8.76
2136322617,-0.010535,0.008085,-0.004902,-0.88,-0.92,12.24
2136323649,-0.028645,0.010215,-0.004902,-0.19,-1.52,9.80
2136324641,-0.008405,0.012346,-0.002771,1.21,0.87,7.56
2136325657,0.039533,0.008085,0.002555,0.46,1.17,10.77
2136326656,0.057643,0.007020,0.006816,-1.11,-1.65,11.88
2136327670,0.031011,0.022999,0.007881,-0.02,-1.31,8.57
2136328688,-0.000948,0.026195,0.004686,1.34,1.25,7.21
2136329691,-0.027580,0.009150,0.000424,0.16,0.99,10.92
2136330696,-0.036102,0.007020,-0.001706,-1.10,-1.37,12.49
2136331703,-0.033971,0.022999,-0.002771,-0.24,-1.72,9.10
2136332721,-0.028645,0.011281,-0.002771,1.05,0.48,7.39
2136333751,-0.020123,-0.011090,0.000424,0.45,1.47,10.14
2136334738,-0.014796,-0.014286,-0.002771,-0.84,0.04,12.73
2136335748,-0.021188,-0.013221,0.000424,-0.94,-2.33,10.18
2136336754,-0.008405,-0.004699,0.008947,0.32,-1.30,7.41
2136337763,0.013966,0.005954,0.014273,0.68,1.14,8.16
2136338774,0.016097,0.004889,0.014273,-0.04,1.63,11.05
2136339783,0.010770,-0.016417,0.005751,-0.62,-0.20,12.77
2136340793,0.008640,-0.017482,-0.002771,-0.72,-2.99,9.95
2136341803,-0.004144,0.009150,-0.002771,-0.10,-1.77,7.71
2136342811,0.002248,0.025129,0.000424,0.76,0.86,7.76
2136343844,0.009705,0.015542,-0.000641,0.62,1.65,9.90
2136344831,0.006509,-0.005764,-0.001706,-0.09,0.96,11.93
2136345839,0.001183,-0.006829,0.000424,-0.78,-1.69,11.12
2136346849,0.007575,0.012346,-0.000641,-0.77,-2.75,9.94
2136347859,0.002248,0.004889,-0.001706,0.60,0.32,7.94
2136348874,-0.019058,-0.008960,-0.002771,1.07,1.83,8.90
2136349879,-0.016927,0.008085,-0.000641,0.86,1.69,10.94
2136350889,0.010770,0.018738,-0.002771,-0.83,-0.14,11.54
2136351899,0.005444,0.012346,-0.001706,-1.34,-2.14,10.96
2136352909,-0.007339,0.003824,-0.002771,-0.12,-2.14,10.27
2136353942,0.006509,-0.014286,-0.004902,0.57,-1.02,8.44
2136354931,0.026750,-0.019612,-0.007032,0.20,-0.43,8.06
2136355939,0.033141,-0.022808,-0.009163,0.79,2.05,9.10
2136356949,0.035272,-0.023874,-0.003837,0.96,1.92,9.66
2136357959,0.004379,-0.010025,-0.007032,-0.62,0.51,11.04
2136358974,0.019293,-0.010025,-0.013424,-0.68,-0.15,11.41
2136359979,-0.008405,-0.015351,-0.013424,-0.53,-1.98,11.24
2136360989,-0.000948,0.013411,-0.011294,-0.80,-3.13,8.98
2136361999,0.039533,0.018738,-0.021946,-0.13,-1.34,8.67
2136363009,-0.057408,-0.004699,-0.020881,0.49,0.14,9.65
2136364040,-0.105345,-0.020678,-0.001706,0.94,0.03,7.87
2136365031,-0.092562,0.001693,0.010012,0.36,1.56,9.00
2136366039,-0.058473,0.003824,0.016404,0.20,2.16,10.19
2136367049,-0.036102,-0.017482,0.015338,0.75,1.37,11.05
2136368059,-0.041428,-0.020678,0.002555,-0.42,0.20,11.69
2136369074,-0.009470,-0.019612,-0.003837,-0.80,-1.13,10.60
2136370079,0.021423,-0.008960,0.003620,-0.37,-1.79,10.37
2136371089,0.002248,0.016607,0.010012,-0.65,-2.51,8.95
2136372102,-0.000948,0.015542,0.008947,-0.08,-1.83,8.52
2136373129,-0.041428,0.022999,0.006816,-0.23,-0.85,10.38
2136374126,-0.004144,0.001693,0.004686,0.57,-0.95,9.85
2136375129,0.050186,-0.019612,0.000424,0.35,-0.12,8.86
2136376139,0.010770,-0.003633,-0.003837,-0.06,1.22,8.84
2136377149,-0.033971,0.015542,-0.002771,1.18,1.01,8.00
2136378159,-0.062734,0.041109,-0.003837,0.19,1.45,9.35
2136379191,-0.060603,0.047500,-0.005967,-0.55,1.34,10.82
2136380179,-0.027580,0.009150,-0.007032,0.49,0.63,10.77
2136381189,-0.042494,-0.004699,-0.010228,-0.03,0.65,11.09
2136382199,-0.066995,0.028325,-0.013424,-0.69,-1.30,9.59
2136383227,-0.039298,0.047500,-0.014489,-0.17,-0.75,10.88
2136384226,-0.011601,0.024064,-0.007032,-0.44,-1.20,12.04
2136385229,0.010770,-0.034526,0.000424,-0.06,-2.39,10.39
2136386239,0.019293,-0.051571,-0.005967,-0.12,-0.55,10.87
2136387249,0.003313,-0.014286,-0.005967,-0.01,-1.72,9.07
2136388259,-0.002013,0.013411,-0.008098,0.15,-1.60,7.84
2136389274,-0.006274,0.021933,-0.010228,-0.14,0.30,9.38
2136390279,-0.008405,-0.003633,-0.002771,0.35,-0.96,7.95
2136391289,-0.022253,-0.002568,0.004686,-0.19,-0.56,8.49
2136392299,-0.032906,0.007020,0.008947,0.36,0.86,10.12
2136393329,-0.006274,0.010215,0.011077,0.61,0.31,9.49
2136394326,-0.004144,0.013411,0.008947,-0.34,0.55,9.36
2136395329,0.010770,-0.012156,0.008947,0.51,1.37,8.82
2136396339,0.042729,-0.032396,0.010012,0.46,0.67,8.79
2136397349,0.038468,-0.013221,0.008947,-0.48,0.95,10.28
2136398359,0.018227,-0.005764,0.002555,0.25,0.38,10.34
2136399374,-0.023319,-0.001503,-0.002771,0.17,0.35,10.17
2136400379,-0.051016,0.026195,-0.001706,-0.83,-0.58,10.47
2136401389,0.008640,0.011281,-0.000641,0.49,-0.32,11.55
2136402399,0.033141,-0.020678,-0.005967,0.30,1.04,11.63
2136403427,-0.006274,0.000628,-0.008098,-0.91,-1.89,9.08
2136404426,0.018227,0.022999,-0.010228,0.17,-0.65,10.24
2136405429,0.041663,0.005954,-0.013424,-0.04,0.46,11.76
2136406439,0.031011,-0.020678,-0.012359,-0.18,-1.69,9.57
2136407449,0.024619,-0.011090,-0.010228,0.30,-0.62,9.41
2136408459,0.003313,0.021933,-0.007032,-0.35,-0.69,10.24
2136409474,0.032076,0.024064,-0.000641,-0.26,-1.43,9.43
2136410479,0.037402,0.017672,0.002555,0.01,0.20,11.90
2136411489,0.010770,-0.013221,0.005751,0.26,-1.09,10.91
2136412499,0.002248,-0.035592,0.010012,0.26,-1.30,8.38
2136413529,-0.014796,-0.010025,0.005751,-0.54,-0.07,10.05
2136414526,-0.004144,0.000628,0.002555,0.14,-1.81,9.72
2136415529,0.023554,-0.011090,-0.001706,0.41,-0.24,8.29
2136416539,-0.014796,-0.001503,0.001490,-0.86,-0.42,8.57
2136417549,-0.036102,0.017672,0.004686,0.18,-2.04,9.20
2136418559,0.011836,0.002758,0.000424,0.48,0.67,9.18
2136419578,0.002248,0.009150,-0.000641,-1.10,-0.43,9.33
2136420586,-0.024384,0.033652,-0.001706,0.31,-1.29,9.48
2136421593,0.009705,0.011281,-0.008098,0.49,0.75,9.06
2136422610,0.020358,-0.015351,-0.007032,-0.79,-0.13,8.71
2136423637,0.005444,-0.001503,0.000424,0.74,0.01,8.47
2136424632,-0.005209,0.028325,0.004686,0.12,0.51,9.20
2136425635,-0.006274,0.025129,0.006816,-0.45,0.40,9.90
2136426656,0.037402,-0.018547,0.006816,0.51,-0.02,9.41
2136427656,0.028880,-0.021743,0.004686,0.11,0.83,10.65
2136428672,-0.000948,-0.002568,0.005751,0.31,0.29,9.42
2136429684,-0.003078,0.018738,0.007881,-0.07,-0.31,9.34
2136430687,0.007575,0.009150,0.005751,0.01,1.25,10.79
2136431696,0.017162,-0.019612,0.005751,0.50,-0.35,9.13
2136432710,0.005444,-0.013221,0.002555,-0.20,0.03,9.36
2136433739,-0.021188,0.002758,0.002555,-0.17,0.15,10.55
2136434738,0.010770,-0.008960,-0.000641,0.46,-0.53,10.45
2136435735,0.013966,-0.020678,-0.007032,-0.14,0.84,10.20
2136436745,-0.033971,0.007020,-0.010228,-0.18,-0.74,9.19
2136437753,-0.006274,0.010215,-0.014489,0.46,-0.35,9.89
2136438763,-0.007339,0.008085,-0.015555,-0.51,1.36,10.79
2136439774,-0.029710,0.008085,-0.013424,-0.02,-0.63,9.28
2136440783,-0.030776,0.014477,-0.013424,0.35,0.42,10.26
2136441793,-0.037167,0.012346,-0.007032,-0.47,0.87,10.58
2136442803,0.015031,-0.010025,-0.001706,0.41,-0.50,10.44
2136443829,0.033141,-0.006829,0.000424,0.19,0.89,11.06
2136444830,0.009705,-0.001503,0.005751,-0.21,-0.13,9.65
2136445829,0.007575,-0.000437,0.011077,0.37,-0.46,9.73
2136446839,0.007575,0.000628,0.011077,-0.13,0.05,10.53
2136447849,0.045925,-0.029200,0.012143,0.25,-0.61,10.34
2136448859,0.033141,-0.040918,0.012143,0.37,0.34,9.49
2136449874,-0.002013,0.014477,0.008947,0.36,-0.92,10.94
2136450879,0.020358,0.004889,0.002555,0.18,0.79,10.43
2136451889,-0.005209,0.005954,0.000424,-0.70,-1.66,9.67
2136452899,-0.012666,0.003824,-0.004902,0.41,-0.92,11.36
2136453929,0.010770,-0.021743,-0.015555,0.17,0.90,10.26
2136454926,-0.028645,-0.006829,-0.013424,-0.85,-1.71,9.31
2136455929,-0.013731,0.018738,-0.012359,0.21,-0.86,10.78
2136456939,0.028880,-0.001503,-0.017685,0.15,0.89,9.74
2136457949,-0.014796,-0.003633,-0.016620,-0.74,-1.52,9.00
2136458959,0.001183,0.012346,-0.013424,0.28,-0.91,10.61
2136459974,-0.000948,0.020868,-0.010228,0.20,0.98,10.79
2136460979,-0.051016,0.016607,-0.003837,-0.76,-1.24,10.26
2136461989,-0.017992,-0.001503,0.000424,0.26,-1.26,10.60
2136462999,0.027815,-0.019612,-0.001706,0.46,0.90,10.16
2136464027,-0.010535,-0.001503,-0.001706,-0.77,-0.94,9.82
2136465026,-0.022253,0.021933,0.003620,0.09,-1.78,9.74
2136466029,0.018227,0.000628,0.002555,0.59,0.56,9.45
2136467039,-0.006274,0.004889,0.006816,-0.75,-0.81,9.77
2136468049,0.016097,0.019803,0.011077,0.09,-1.93,9.63
2136469059,0.054447,-0.011090,0.005751,0.69,0.64,9.77
2136470074,-0.003078,-0.008960,0.007881,-0.88,-0.77,10.27
2136471079,0.006509,0.007020,0.011077,0.08,-2.14,9.71
2136472089,0.042729,-0.010025,0.010012,0.76,0.76,9.56
2136473118,0.001183,-0.017482,0.006816,-1.05,-0.76,9.54
2136474111,-0.005209,0.002758,0.001490,0.11,-2.08,8.84
2136475124,0.025684,-0.004699,-0.010228,0.78,1.11,9.38
2136476129,-0.010535,-0.006829,-0.014489,-1.21,-0.75,9.57
2136477139,-0.028645,0.018738,-0.010228,0.07,-1.93,9.19
2136478149,0.012901,-0.000437,-0.015555,0.75,1.19,9.72
2136479159,-0.025449,-0.002568,-0.014489,-1.35,-0.81,9.56
2136480174,-0.024384,0.017672,-0.011294,0.09,-1.55,9.34
2136481179,0.034207,-0.002568,-0.014489,0.83,1.33,9.44
2136482189,-0.004144,-0.010025,-0.011294,-1.32,-0.79,8.69
2136483246,-0.022253,0.009150,-0.005967,0.24,-1.05,8.91
2136484211,0.009705,0.012346,-0.005967,0.88,1.28,9.50
2136485224,-0.026514,0.008085,-0.004902,-1.28,-0.78,8.89
2136486229,-0.038233,0.024064,0.004686,0.38,-0.58,9.58
2136487239,0.021423,0.003824,0.007881,1.05,1.13,9.93
2136488249,0.008640,-0.007894,0.008947,-1.20,-0.74,9.02
2136489259,-0.006274,0.014477,0.011077,0.23,-0.17,9.76
2136490274,0.050186,-0.006829,0.004686,1.11,0.96,9.75
2136491279,0.027815,-0.020678,0.005751,-0.96,-0.56,8.48
2136492289,0.000118,0.003824,0.011077,0.06,0.07,9.43
2136493318,0.036337,0.003824,0.014273,0.98,0.64,9.94
2136494311,0.010770,-0.007894,0.010012,-0.80,-0.22,9.24
2136495324,-0.014796,0.004889,0.005751,-0.09,0.30,10.10
2136496329,0.022488,-0.004699,-0.003837,0.99,0.53,10.44
2136497339,0.007575,-0.016417,-0.010228,-0.63,0.13,9.79
2136498349,-0.030776,0.014477,-0.004902,-0.33,0.03,9.83
2136499359,0.012901,0.002758,-0.008098,0.96,0.34,10.26
2136500374,0.006509,-0.020678,-0.013424,-0.40,0.55,9.54
2136501379,-0.031841,0.005954,-0.010228,-0.51,-0.33,9.14
2136502389,0.010770,0.017672,-0.011294,1.03,0.26,10.52
2136503415,-0.011601,0.007020,-0.011294,-0.09,1.01,10.34
2136504411,-0.043559,0.013411,-0.005967,-0.76,-0.65,9.46
2136505424,0.001183,0.010215,-0.003837,1.04,0.24,10.90
2136506429,0.004379,-0.005764,-0.005967,0.14,1.19,10.60
2136507439,-0.035037,0.014477,-0.001706,-0.91,-1.28,8.90
2136508449,0.005444,0.005954,-0.001706,0.93,0.20,10.92
2136509459,0.024619,-0.027069,-0.004902,0.22,1.41,10.48
2136510474,-0.014796,-0.003633,0.002555,-1.04,-1.69,8.49
2136511479,0.028880,0.012346,0.010012,0.87,0.14,11.09
2136512489,0.026750,-0.004699,0.011077,0.34,1.38,10.79
2136513518,-0.015862,0.000628,0.010012,-1.09,-1.96,8.77
2136514511,0.019293,0.000628,0.006816,0.86,0.10,11.45
2136515524,0.032076,-0.015351,0.000424,0.39,1.36,10.86
2136516529,-0.016927,0.002758,0.002555,-1.09,-2.05,8.55
2136517539,0.001183,0.007020,0.003620,0.66,-0.10,11.16
2136518549,0.028880,-0.027069,-0.005967,0.31,1.13,10.41
2136519559,-0.019058,-0.007894,-0.005967,-1.09,-1.96,8.65
2136520578,0.005444,0.017672,-0.004902,0.47,-0.31,11.22
2136521586,0.010770,0.003824,-0.007032,0.36,0.93,10.87
2136522594,-0.037167,0.002758,-0.003837,-0.96,-1.81,9.40
2136523625,-0.009470,0.004889,-0.004902,0.41,-0.74,11.15
2136524620,0.011836,-0.010025,-0.009163,0.39,0.74,10.44
2136525630,-0.042494,0.002758,-0.004902,-0.86,-1.47,9.25
2136526637,-0.027580,0.018738,-0.001706,0.31,-1.14,10.50
2136527657,0.017162,-0.013221,-0.009163,0.39,0.51,10.07
2136528661,-0.023319,-0.005764,-0.004902,-0.89,-1.25,9.58
2136529670,0.001183,0.014477,0.002555,0.09,-1.56,10.16
2136530681,0.024619,0.001693,0.004686,0.41,0.52,10.21
2136531688,-0.010535,-0.003633,0.007881,-0.88,-1.00,10.23
2136532697,0.007575,-0.002568,0.006816,0.08,-1.92,10.10
2136533725,0.046990,-0.020678,0.001490,0.54,0.54,9.67
2136534722,-0.000948,-0.011090,0.003620,-1.00,-0.90,9.58
2136535732,-0.005209,0.013411,0.006816,-0.01,-2.14,9.25
2136536736,0.037402,-0.014286,0.001490,0.64,0.82,9.62
2136537747,-0.004144,-0.017482,0.002555,-1.00,-0.70,9.76
2136538755,0.000118,0.004889,0.003620,0.05,-2.20,9.04
2136539763,0.024619,0.007020,0.000424,0.62,0.93,9.58
2136540774,-0.020123,0.004889,-0.001706,-1.23,-0.78,9.83
2136541783,-0.025449,0.010215,-0.001706,0.19,-2.03,9.33
2136542793,0.022488,-0.018547,-0.011294,0.97,1.12,9.45
2136543819,-0.011601,-0.015351,-0.012359,-1.20,-0.77,9.03
2136544813,-0.015862,0.022999,-0.005967,0.19,-1.67,8.70
2136545827,0.015031,0.017672,-0.002771,0.91,1.15,9.37
2136546829,-0.033971,0.000628,-0.001706,-1.22,-0.84,8.99
2136547839,-0.042494,0.009150,0.001490,0.31,-1.02,9.26
2136548849,0.015031,0.004889,-0.000641,0.93,1.35,9.80
2136549859,-0.005209,0.001693,0.002555,-1.37,-0.81,9.12
2136550874,0.041663,-0.012156,0.004686,1.09,1.16,9.68
2136551879,0.013966,-0.027069,0.002555,-1.14,-0.71,8.28
2136552889,-0.009470,-0.000437,0.002555,0.16,-0.18,9.09
2136553918,0.024619,0.011281,-0.000641,0.92,0.85,9.81
2136554911,0.000118,-0.002568,0.000424,-1.00,-0.38,8.92
2136555924,-0.025449,0.009150,0.004686,0.10,0.40,9.92
2136556929,0.025684,-0.010025,-0.000641,0.99,0.78,10.27
2136557939,0.010770,-0.023874,-0.002771,-0.86,-0.11,9.62
2136558949,-0.010535,0.001693,-0.000641,-0.27,0.12,10.04
2136559959,0.029945,0.003824,-0.003837,0.97,0.47,10.18
2136560974,0.001183,-0.011090,-0.005967,-0.48,0.39,9.24
2136561979,-0.044624,0.007020,-0.002771,-0.34,-0.12,9.05
2136562989,-0.004144,0.005954,-0.010228,0.96,0.33,10.32
2136564015,0.001183,-0.010025,-0.014489,-0.30,0.88,10.03
2136565011,-0.030776,0.017672,-0.009163,-0.64,-0.39,9.67
2136566024,0.011836,0.016607,-0.004902,1.12,0.33,11.04
2136567029,-0.000948,-0.006829,0.000424,0.10,1.19,10.71
2136568039,-0.030776,-0.001503,0.006816,-0.86,-1.06,9.14
2136569049,0.013966,-0.003633,0.002555,0.94,0.14,10.75
2136570059,0.027815,-0.019612,-0.004902,0.21,1.38,10.25
2136571074,-0.011601,0.009150,0.000424,-0.94,-1.51,8.40
2136572079,0.026750,0.018738,0.005751,0.89,0.21,10.98
2136573109,0.019293,-0.005764,0.006816,0.28,1.44,10.71
2136574101,-0.027580,-0.003633,0.007881,-1.08,-1.89,8.92
2136575109,0.011836,-0.001503,0.003620,0.89,0.10,11.57
2136576124,0.034207,-0.016417,-0.001706,0.39,1.51,11.14
2136577147,-0.015862,0.005954,-0.000641,-1.06,-1.93,8.78
2136578139,0.011836,0.015542,-0.000641,0.64,-0.19,11.12
2136579149,0.026750,-0.012156,-0.002771,0.26,1.00,10.29
2136580159,-0.022253,-0.010025,-0.000641,-1.01,-1.99,8.56
2136581174,-0.003078,0.009150,-0.003837,0.49,-0.36,11.22
2136582179,0.016097,0.001693,-0.010228,0.36,0.85,10.97
2136583207,-0.036102,0.014477,-0.005967,-0.90,-1.80,9.73
2136584201,-0.006274,0.016607,-0.000641,0.39,-0.95,11.36
2136585209,0.025684,-0.017482,-0.000641,0.37,0.58,10.47
2136586224,-0.030776,-0.011090,0.001490,-0.86,-1.39,9.34
2136587229,-0.020123,0.011281,-0.001706,0.25,-1.38,10.25
2136588239,0.017162,0.003824,-0.005967,0.40,0.31,9.88
2136589249,-0.016927,0.004889,-0.001706,-0.76,-1.14,9.54
2136590259,-0.005209,0.019803,0.006816,0.01,-1.66,9.87
2136591274,0.006509,-0.000437,0.007881,0.31,0.41,10.25
2136592279,-0.036102,-0.007894,0.007881,-0.82,-0.98,10.55
2136593309,-0.002013,-0.012155,0.005751,0.16,-1.93,10.42
2136594301,0.052316,-0.026004,0.002555,0.71,0.59,9.69
2136595309,0.005444,-0.010025,0.004686,-1.01,-0.90,9.25
2136596324,-0.008405,0.020868,0.005751,0.03,-2.26,8.63
2136597329,0.027815,-0.001503,-0.000641,0.75,0.88,9.27
2136598339,-0.012666,-0.014286,-0.002771,-0.96,-0.56,9.59
2136599349,-0.023319,0.002758,-0.003837,0.12,-2.07,8.90
2136600359,0.019293,0.005954,-0.009163,0.62,0.91,9.67
2136601374,-0.005209,0.012346,-0.009163,-1.32,-0.82,9.79
2136602379,-0.003078,0.020868,-0.003837,0.13,-1.65,9.58
2136603407,0.034207,-0.013221,-0.007032,0.95,1.14,9.30
2136604401,-0.009470,-0.028135,-0.004902,-1.27,-0.87,8.31
2136605409,-0.036102,-0.000437,-0.003837,0.19,-1.21,8.43
2136606424,0.013966,0.000628,-0.008098,0.81,1.13,9.35
2136607429,0.002248,0.000628,-0.004902,-1.20,-0.67,8.77
2136608439,-0.007339,0.021933,0.002555,0.46,-0.36,9.37
2136609449,0.019293,0.014477,0.006816,0.99,1.27,10.22
2136610459,-0.014796,-0.003633,0.011077,-1.17,-0.46,9.42
2136611474,-0.020123,-0.003633,0.013208,0.09,0.06,10.21
2136612479,0.036337,-0.027069,0.004686,1.06,0.92,9.80
2136613509,0.026750,-0.029200,0.000424,-0.81,-0.32,8.22
2136614501,-0.000948,0.004889,0.004686,0.00,0.17,8.85
2136615509,0.029945,0.017672,0.003620,0.82,0.51,9.91
2136616524,0.007575,0.001693,-0.000641,-0.65,0.20,9.43
2136617529,-0.025449,0.014477,0.003620,0.03,0.47,9.83
2136618539,0.009705,0.001693,-0.002771,1.04,0.59,10.77
2136619549,-0.005209,-0.018547,-0.008098,-0.38,0.67,10.55
2136620559,-0.029710,-0.006829,-0.003837,-0.51,-0.14,10.27
2136621578,0.019293,-0.007894,-0.003837,0.98,0.25,10.61
2136622590,0.020358,-0.013221,-0.005967,0.03,1.06,9.58
2136623614,-0.026514,0.020868,-0.002771,-0.59,-0.80,8.36
2136624609,0.001183,0.031521,-0.002771,0.83,0.17,10.58
2136625619,-0.014796,0.009150,-0.003837,-0.04,1.40,10.44
2136626632,-0.047820,0.004889,0.000424,-0.80,-1.02,9.29
2136627635,-0.005209,-0.000437,0.000424,0.98,0.29,11.60
2136628656,0.018227,-0.016417,-0.001706,0.33,1.33,11.38
2136629656,-0.009470,-0.006829,0.004686,-0.90,-1.63,9.41
2136630674,0.037402,-0.011090,0.007881,0.84,-0.05,11.11
2136631683,0.043794,-0.027069,0.007881,0.37,1.23,10.02
2136632687,-0.013731,-0.002568,0.010012,-0.99,-1.83,8.17
2136633724,-0.000948,0.012346,0.007881,0.59,-0.25,11.06
2136634713,0.013966,-0.010025,0.000424,0.22,0.88,10.49
2136635719,-0.029710,-0.005764,-0.000641,-1.07,-1.96,9.12
2136636735,-0.002013,0.000628,-0.003837,0.47,-0.55,11.61
2136637737,0.034207,-0.011090,-0.008098,0.39,0.81,11.41
2136638748,-0.014796,0.011281,-0.005967,-0.88,-1.66,9.97
2136639754,0.008640,0.017672,-0.002771,0.34,-1.08,10.98
2136640763,0.019293,-0.010025,-0.005967,0.32,0.44,9.71
2136641774,-0.038233,-0.005764,-0.007032,-0.91,-1.35,8.85
2136642783,-0.041428,0.020868,-0.005967,0.13,-1.49,10.13
2136643811,-0.009470,0.002758,-0.007032,0.38,0.33,10.03
2136644805,-0.048885,0.002758,-0.000641,-0.85,-1.15,10.10
2136645811,-0.021188,0.009150,0.003620,0.04,-1.91,10.41
2136646827,0.033141,-0.004699,0.000424,0.47,0.51,10.12
2136647829,-0.011601,0.003824,0.003620,-0.90,-0.96,10.02
2136648839,0.005444,0.016607,0.006816,0.17,-2.15,9.37
2136649849,0.034207,-0.000437,0.005751,0.75,0.76,9.18
2136650859,-0.002013,-0.010025,0.006816,-1.00,-0.84,9.15
2136651874,-0.011601,0.012346,0.008947,0.09,-2.13,8.93
2136652879,-0.014796,-0.018547,0.001490,-1.20,-0.89,9.65
2136653909,-0.017992,-0.006829,0.003620,0.23,-1.87,9.57
2136654901,0.037402,-0.018547,0.000424,1.01,1.13,9.50
2136655909,-0.003078,-0.007894,-0.005967,-1.28,-0.84,8.89
2136656924,-0.021188,0.021933,-0.007032,0.29,-1.33,8.43
2136657929,0.010770,0.020868,-0.011294,0.83,1.19,9.28
2136658939,-0.016927,0.000628,-0.012359,-1.12,-0.50,8.64
2136659949,-0.021188,0.019803,-0.002771,0.51,-0.23,8.89
2136660959,-0.005209,0.025129,0.002555,0.81,1.34,10.14
2136661974,-0.033971,0.009150,0.005751,-1.20,-0.59,9.35
2136662979,-0.027580,-0.005764,0.013208,0.10,0.07,10.35
2136664007,0.036337,-0.032396,0.008947,1.06,0.94,10.02
2136665001,0.028880,-0.019612,0.005751,-0.73,-0.36,8.12
2136666009,-0.005209,0.016607,0.008947,-0.08,0.28,9.03
2136667024,0.033141,0.017672,0.006816,0.84,0.41,9.59
2136668029,0.022488,0.005954,0.004686,-0.55,0.20,9.21
2136669039,-0.008405,0.018738,0.006816,-0.10,0.33,9.91
2136670049,0.025684,0.009150,0.005751,1.08,0.40,10.71
2136671059,0.016097,-0.006829,0.001490,-0.27,0.74,10.68
2136672074,-0.012666,0.009150,0.001490,-0.57,-0.17,10.32
2136673098,0.013966,-0.010025,-0.005967,0.97,0.16,10.74
2136674091,0.011836,-0.038788,-0.014489,0.02,1.10,9.80
2136675099,-0.028645,-0.016417,-0.011294,-0.69,-0.86,8.24
2136676109,-0.002013,-0.001503,-0.013424,0.84,0.28,10.54
2136677124,0.000118,-0.008960,-0.014489,0.04,1.50,10.50
2136678129,-0.039298,0.008085,-0.010228,-0.96,-1.27,9.28
2136679139,0.007575,0.016607,-0.008098,0.90,0.38,11.88
2136680149,0.006509,0.004889,-0.007032,0.46,1.49,11.53
2136681159,-0.031841,0.017672,-0.000641,-0.90,-1.70,9.34
2136682174,0.018227,0.013411,0.005751,0.69,-0.13,11.15
2136683195,0.034207,-0.017482,0.006816,0.27,1.16,10.08
2136684191,-0.010535,-0.011090,0.012143,-0.87,-1.72,8.33
2136685199,-0.003078,0.003824,0.010012,0.52,-0.39,11.12
2136686224,0.020358,-0.014286,0.002555,0.17,0.59,10.48
2136687224,-0.019058,-0.010025,0.004686,-0.92,-1.89,9.44
2136688229,0.000118,-0.002568,0.003620,0.35,-0.79,11.56
2136689239,0.032076,-0.016417,-0.002771,0.36,0.57,11.23
2136690249,-0.017992,0.000628,-0.000641,-0.76,-1.50,10.12
2136691259,0.006509,0.008085,-0.001706,0.31,-1.49,10.67
2136692274,0.025684,-0.004699,-0.003837,0.42,0.15,9.46
2136693298,-0.029710,0.007020,-0.001706,-0.92,-1.26,8.94
2136694291,-0.023319,0.030456,0.001490,-0.05,-1.95,9.75
2136695299,-0.006274,0.009150,-0.000641,0.43,0.25,9.86
2136696309,-0.046755,0.000628,0.000424,-0.92,-1.00,10.26
2136697324,-0.036102,0.012346,0.001490,0.05,-2.27,10.18
2136698329,0.015031,-0.017482,-0.008098,0.64,0.45,9.81
2136699339,-0.014796,-0.022808,-0.005967,-1.04,-0.79,9.74
2136700349,-0.016927,-0.005764,-0.001706,0.22,-2.19,8.61
2136701359,0.036337,-0.018547,-0.003837,0.73,0.88,9.01
2136702374,0.011836,-0.019612,-0.000641,-1.00,-0.52,9.08
2136703395,0.012901,0.004889,0.000424,0.19,-1.68,8.66
2136704391,0.045925,0.016607,0.000424,0.53,0.99,9.69
2136705399,0.007575,0.014477,-0.000641,-1.34,-0.94,9.43
2136706409,0.011836,0.011281,-0.002771,0.17,-1.18,9.84
2136707424,0.046990,-0.020678,-0.005967,1.07,1.27,9.62
2136708429,-0.003078,-0.029200,-0.004902,-1.09,-0.76,8.20
2136709439,-0.043559,0.014477,0.004686,0.21,-0.75,8.53
2136710449,-0.003078,0.009150,0.002555,0.90,0.96,9.20
2136711459,-0.009470,-0.011090,-0.001706,-0.98,-0.29,8.47
2136712474,-0.040363,0.002758,-0.000641,0.34,0.34,9.64
2136713498,-0.010535,-0.001503,-0.005967,1.04,0.99,10.37
2136714491,-0.025449,-0.001503,-0.003837,-0.91,-0.22,9.78
2136715499,-0.032906,0.007020,0.002555,-0.12,0.29,10.55
2136716509,0.032076,-0.012156,0.002555,1.09,0.70,10.21
2136717544,0.028880,-0.016417,0.000424,-0.41,0.30,8.87
2136718528,-0.005209,0.010215,0.003620,-0.15,-0.03,8.48
2136719538,0.027815,0.017672,0.003620,0.83,0.38,10.10
2136720548,0.009705,-0.001503,0.000424,-0.32,1.02,10.00
2136721558,-0.010535,0.007020,0.000424,-0.25,0.12,9.41
2136722574,0.019293,0.012346,0.000424,0.97,0.53,11.16
2136723608,0.000118,0.000628,-0.000641,0.02,1.13,11.22
2136724592,-0.019058,-0.000437,0.004686,-0.70,-0.78,10.21
2136725606,0.012901,-0.018547,0.002555,0.82,0.19,11.24
2136726620,0.021423,-0.038788,-0.004902,0.28,1.28,9.82
2136727718,-0.027580,-0.006829,-0.001706,-0.79,-1.42,8.08
2136728633,-0.009470,0.010215,-0.007032,0.72,0.03,10.80
2136729658,0.016097,0.003824,-0.011294,0.16,1.27,10.35
2136730655,-0.028645,0.017672,-0.005967,-1.02,-1.76,9.15
2136731674,0.002248,0.017672,-0.002771,0.70,-0.25,12.07
2136732685,0.024619,0.005954,-0.002771,0.37,1.05,11.77
2136733714,-0.013731,0.017672,0.000424,-0.90,-1.86,9.82
2136734696,0.027815,0.009150,0.002555,0.50,-0.88,11.16
2136735703,0.042729,-0.021743,0.003620,0.24,0.48,9.65
2136736721,-0.005209,-0.011090,0.005751,-0.85,-1.51,8.49
2136737755,-0.005209,0.020868,0.004686,0.28,-1.05,10.54
2136738736,-0.004144,0.014477,-0.000641,0.22,0.12,10.22
2136739746,-0.030776,0.004889,0.003620,-0.81,-1.43,9.89
2136740753,-0.008405,0.003824,0.004686,0.05,-1.35,10.92
2136741762,0.025684,-0.023874,-0.002771,0.27,0.37,10.81
2136742781,-0.016927,-0.018547,-0.001706,-0.80,-1.17,10.38
2136743805,-0.011601,-0.011090,-0.001706,0.12,-1.90,10.04
2136744793,0.038468,-0.019612,-0.010228,0.59,0.35,8.93
2136745803,-0.005209,-0.001503,-0.008098,-0.94,-0.90,8.87
2136746811,-0.014796,0.027260,-0.003837,0.01,-2.19,8.96
2136747846,0.009705,0.027260,-0.004902,0.69,0.54,9.45
2136748828,-0.027580,0.025129,-0.003837,-1.04,-0.82,10.00
2136749838,-0.005209,0.030456,0.000424,0.10,-2.11,9.84
2136750848,0.038468,0.000628,0.004686,0.77,0.85,9.66
2136751858,-0.004144,-0.013221,0.005751,-1.26,-0.81,9.28
2136752872,-0.015862,0.007020,0.007881,0.27,-1.77,8.63
2136753902,0.016097,-0.003633,0.004686,0.96,1.06,8.93
2136754889,-0.013731,0.002758,0.011077,0.26,-0.81,8.90
2136755899,0.019293,-0.005764,0.003620,0.76,1.25,9.70
2136756909,-0.009470,-0.015351,0.002555,-1.34,-0.73,9.01
2136757942,-0.025449,-0.006829,0.003620,0.11,-0.28,10.06
2136758928,0.034207,-0.020678,-0.004902,1.11,1.19,9.87
2136759938,0.015031,-0.014286,-0.012359,-0.91,-0.32,8.60
2136760948,-0.026514,0.013411,-0.010228,0.15,-0.04,8.72
2136761958,0.008640,0.014477,-0.013424,0.81,0.66,9.80
2136762972,0.002248,-0.000437,-0.014489,-0.67,0.27,9.12
2136764001,-0.011601,0.017672,-0.009163,0.35,0.60,8.92
2136764989,0.003313,0.036847,-0.003837,0.94,0.83,10.48
2136765999,-0.032906,0.028325,-0.000641,-0.46,0.54,10.75
2136767028,-0.028645,0.016607,0.006816,-0.34,0.21,10.98
2136768022,0.023554,-0.015351,0.006816,0.96,0.59,11.26
2136769028,0.015031,-0.043049,0.005751,0.08,0.87,9.55
2136770038,-0.023319,-0.012155,0.012143,-0.60,-0.61,8.36
2136771048,0.007575,-0.001503,0.007881,0.75,0.03,10.26
2136772058,0.029945,-0.020678,0.001490,0.06,1.36,10.07
2136773097,-0.014796,-0.011090,0.005751,-0.83,-1.00,9.15
2136774079,0.001183,-0.007894,0.000424,0.89,-0.08,11.58
2136775089,0.020358,-0.012156,-0.007032,0.37,1.32,11.47
2136776099,-0.017992,0.008085,-0.005967,-0.91,-1.63,9.72
2136777128,0.018227,-0.000437,-0.007032,0.74,-0.30,11.35
2136778122,0.032076,-0.018547,-0.012359,0.26,1.13,10.22
2136779128,-0.015862,-0.000437,-0.015555,-0.81,-1.54,8.33
2136780138,0.008640,0.024064,-0.014489,0.52,-0.28,10.75
2136781148,0.001183,0.019803,-0.011294,-0.05,0.48,10.30
2136782158,-0.029710,0.016607,-0.002771,-0.73,-1.58,8.91
2136783196,-0.007339,0.029390,0.004686,0.31,-0.25,11.15
2136784179,-0.020123,0.019803,0.006816,0.06,0.27,11.78
2136785189,-0.023319,-0.003633,0.011077,-0.56,-1.58,10.87
2136786199,0.018227,-0.022808,0.017469,0.17,-0.97,11.52
2136787228,0.058708,-0.043049,0.010012,0.39,0.12,9.48
2136788256,0.023554,-0.019612,0.008947,-0.63,-1.22,8.26
2136789228,0.003313,0.009150,0.011077,-0.15,-1.85,8.81
2136790238,0.036337,0.007020,0.008947,0.32,-0.04,9.41
2136791248,0.005444,0.010215,0.010012,-0.69,-0.68,10.44
2136792258,0.007575,-0.003633,0.006816,0.02,-2.16,10.38
2136793297,0.045925,-0.014286,0.002555,0.51,-0.07,10.40
2136794279,0.007575,0.010215,-0.002771,-0.88,-0.73,10.46
2136795289,0.004379,0.017672,-0.005967,0.06,-2.35,9.59
2136796299,0.026750,-0.007894,-0.009163,0.79,0.30,8.38
2136797328,-0.016927,-0.008960,-0.010228,-1.13,-0.67,8.13
2136798322,-0.029710,0.024064,-0.007032,0.05,-1.97,8.01
2136799328,-0.020123,0.027260,-0.010228,0.76,0.81,9.25
2136800338,-0.053146,0.017672,-0.011294,-1.21,-0.55,9.70
2136801348,-0.052081,0.025129,-0.005967,0.17,-1.04,10.11
2136802358,-0.007339,-0.008960,-0.008098,0.79,1.22,10.16
2136803396,-0.016927,-0.029200,-0.005967,-1.27,-0.59,9.05
2136804379,-0.015862,-0.012155,0.002555,0.16,-0.53,8.95
2136805389,0.036337,-0.020678,-0.002771,0.93,1.20,8.85
2136806399,0.026750,-0.028135,-0.002771,-0.88,-0.19,7.76
2136807428,-0.005209,-0.008960,0.001490,0.29,0.29,8.92
2136808422,0.033141,-0.001503,-0.004902,0.93,1.07,9.90
2136809428,0.010770,0.007020,-0.004902,-0.74,0.02,9.53
2136810438,-0.011601,0.020868,-0.001706,0.06,0.42,10.79
2136811448,0.050186,0.002758,-0.002771,1.18,0.81,10.71
2136812458,0.032076,-0.008960,-0.002771,-0.37,0.48,9.68
2136813497,-0.020123,0.014477,0.001490,-0.04,-0.10,8.61
2136814479,0.002248,0.021933,0.000424,0.90,0.40,9.87
2136815489,-0.010535,0.005954,-0.004902,-0.33,1.14,9.85
2136816499,-0.021188,0.011281,0.001490,0.14,0.16,8.75
2136817528,-0.015862,0.033652,0.007881,0.93,0.78,10.84
2136818522,-0.046755,0.026195,0.013208,-0.14,0.85,11.25
2136819528,-0.028645,-0.000437,0.016404,-0.41,-0.51,10.97
2136820538,0.026750,-0.034526,0.015338,0.68,0.46,12.07
2136821548,0.046990,-0.045179,0.005751,0.12,0.64,9.98
2136822558,0.017162,-0.010025,0.007881,-0.63,-0.73,8.20
2136823601,0.008640,0.012346,0.008947,0.54,-0.04,9.90
2136824587,0.016097,0.013411,0.005751,0.00,0.34,10.01
2136825593,-0.002013,0.000628,0.005751,-0.64,-1.12,9.46
2136826606,0.020358,-0.019612,0.002555,0.52,-0.53,11.85
2136827635,0.039533,-0.006829,-0.002771,0.28,0.12,11.68
2136828633,0.006509,0.026195,-0.007032,-0.74,-1.44,10.60
2136829635,0.015031,0.016607,-0.011294,0.10,-1.09,11.48
2136830654,0.017162,-0.016417,-0.014489,0.21,-0.11,9.44
2136831657,-0.027580,-0.008960,-0.013424,-0.84,-1.38,8.60
2136832675,-0.019058,0.008085,-0.011294,0.04,-1.53,10.12
2136833706,-0.011601,0.002758,-0.011294,0.15,-0.19,9.57
2136834687,-0.053147,0.014477,-0.007032,-0.96,-1.15,10.24
2136835700,-0.053146,0.018738,-0.005967,-0.05,-1.96,11.41
2136836706,-0.008405,-0.022808,-0.012359,0.29,0.12,10.69
2136837737,-0.012666,-0.026004,-0.010228,-0.83,-0.68,10.68
2136838734,-0.004144,-0.010025,-0.007032,0.09,-2.09,9.58
2136839735,0.037402,-0.020678,-0.011294,0.47,0.40,8.71
2136840747,0.005444,-0.021743,-0.005967,-0.98,-0.69,8.76
2136841753,0.003313,-0.007894,-0.005967,-0.01,-2.01,8.63
2136842764,0.034207,-0.008960,-0.011294,0.60,0.91,9.08
2136843796,-0.021188,0.007020,-0.008098,-0.96,-0.71,9.92
2136844783,-0.007339,0.022999,-0.002771,0.26,-1.87,10.22
2136845793,0.048055,0.005954,0.000424,0.90,1.14,9.68
2136846803,0.004379,-0.001503,-0.001706,-1.08,-0.63,9.10
2136847830,-0.012666,0.017672,-0.001706,0.52,-1.45,7.90
2136848826,0.006509,0.017672,-0.005967,0.80,0.93,8.84
2136849828,-0.008405,-0.000437,-0.004902,-0.54,0.19,8.85
2136850838,-0.015862,0.013411,0.007881,0.71,-0.23,8.05
2136851848,-0.032906,0.033652,0.011077,0.40,1.05,10.03
2136852858,-0.041428,0.024064,0.013208,-0.74,-0.53,9.92
2136853897,-0.002013,-0.003633,0.019600,0.21,0.18,10.92
2136854879,0.048055,-0.043049,0.018534,0.75,0.95,10.51
2136855889,0.042729,-0.032396,0.016404,-0.46,-0.61,8.03
2136856899,0.034207,0.018738,0.015338,0.47,0.29,8.69
