time_us,gyro_x_rad_s,gyro_y_rad_s,gyro_z_rad_s,acc_x_m_s2,acc_y_m_s2,acc_z_m_s2
538904995,0.003323,0.001198,-0.000017,0.04,-0.28,9.84
538906102,0.003788,0.000115,0.000905,0.02,-0.27,9.77
538906703,0.000592,-0.000949,-0.000160,0.02,-0.28,9.79
538907711,-0.002602,-0.000949,-0.003354,0.04,-0.31,9.85
538908719,-0.005792,0.001180,-0.002286,0.04,-0.28,9.86
538909729,-0.004722,0.003308,-0.000156,0.04,-0.26,9.83
538910739,-0.000461,0.003304,0.001973,0.04,-0.28,9.82
538911772,0.000604,0.001173,0.003035,0.04,-0.28,9.85
538912786,-0.002589,-0.000957,0.001968,0.06,-0.27,9.84
538913772,-0.004715,0.000108,0.000902,0.07,-0.28,9.80
538914781,-0.003646,0.002237,0.001965,0.06,-0.28,9.75
538915797,-0.000450,0.004363,0.003027,0.06,-0.31,9.75
538916801,0.000615,0.003294,0.003024,0.06,-0.33,9.80
538917812,-0.001514,0.002227,0.000893,0.06,-0.30,9.81
538918821,-0.002577,0.000096,-0.001237,0.07,-0.27,9.84
538919832,-0.002574,-0.000968,-0.002300,0.06,-0.27,9.85
538920841,-0.002572,-0.002032,-0.002297,0.05,-0.30,9.83
538921852,-0.001505,0.000099,-0.001231,0.05,-0.29,9.84
538922861,-0.002568,0.002227,-0.001229,0.04,-0.29,9.83
538923872,-0.004693,0.001161,-0.002292,0.01,-0.31,9.82
538924881,-0.005753,-0.000969,-0.001226,-0.01,-0.29,9.85
538925897,-0.002555,-0.002032,-0.000160,0.00,-0.30,9.83
538926903,0.001705,-0.002030,-0.001224,0.03,-0.31,9.78
538927912,0.003832,-0.000964,-0.002287,0.03,-0.31,9.82
538928921,0.002764,0.000101,-0.002285,0.02,-0.31,9.84
538929932,-0.001496,-0.000963,-0.002283,0.04,-0.28,9.80
538930941,-0.002559,-0.006283,-0.000152,0.04,-0.23,9.77
538931952,-0.001492,-0.007341,0.001976,0.03,-0.26,9.80
538932961,-0.002555,-0.004141,0.001974,0.05,-0.30,9.80
538933972,-0.002552,0.000120,-0.000156,0.07,-0.30,9.78
538934981,-0.002550,0.001184,-0.001220,0.07,-0.29,9.81
538935997,-0.000419,0.000119,0.000910,0.05,-0.31,9.79
538937001,-0.001482,-0.000945,0.003037,0.04,-0.32,9.79
538938012,-0.003609,0.000120,0.004098,0.00,-0.32,9.84
538939021,-0.003606,0.000120,0.003030,0.03,-0.32,9.84
538940032,-0.003602,-0.000945,0.000898,0.04,-0.31,9.78
538941041,-0.002534,-0.002008,0.000898,0.05,-0.28,9.78
538942052,-0.002532,-0.002006,0.000897,0.07,-0.26,9.81
538943061,-0.001465,-0.003068,-0.000168,0.04,-0.28,9.81
538944072,-0.003592,-0.003065,-0.001232,0.04,-0.31,9.77
538945081,-0.003588,0.000131,-0.001231,0.01,-0.30,9.74
538946097,-0.002520,0.001195,-0.001230,0.03,-0.33,9.78
538947103,-0.000389,-0.000935,-0.002293,0.05,-0.34,9.84
538948112,0.000675,-0.003062,-0.002291,0.04,-0.31,9.86
538949121,-0.000390,-0.001995,-0.001224,0.04,-0.32,9.83
538950132,-0.001453,-0.000929,-0.000159,0.04,-0.31,9.82
538951141,-0.000388,-0.000928,0.000906,0.03,-0.29,9.85
538952152,0.000677,0.000137,0.003033,0.01,-0.29,9.81
538953161,0.002805,0.002266,-0.000163,0.03,-0.29,9.83
538954172,0.002802,0.001199,-0.002291,0.04,-0.29,9.88
538955181,0.000670,-0.004123,-0.000160,0.04,-0.27,9.82
538956197,-0.001459,-0.001991,0.001969,0.03,-0.29,9.80
538957201,-0.002521,0.002268,0.001967,0.04,-0.28,9.84
538958212,-0.002519,0.004394,0.001965,0.08,-0.26,9.84
538959221,-0.003580,0.003326,0.000898,0.05,-0.28,9.82
538960232,-0.003577,0.002258,-0.001231,0.04,-0.32,9.87
538961241,-0.000381,0.000127,-0.001230,0.06,-0.33,9.86
538962252,0.000684,0.000127,0.000900,0.03,-0.33,9.82
538963261,-0.000381,0.002256,0.000899,0.01,-0.31,9.83
538964272,-0.001445,0.004382,-0.000166,0.04,-0.32,9.87
538965282,-0.001443,0.004377,-0.000166,0.04,-0.33,9.85
538966299,0.001751,0.003309,-0.001230,0.05,-0.30,9.82
538967305,0.002813,0.001177,-0.002293,0.05,-0.28,9.82
538968316,-0.000382,0.000112,-0.001226,0.04,-0.28,9.80
538969364,-0.003574,0.000111,-0.000161,0.05,-0.29,9.81
538970338,-0.002507,0.001175,-0.001225,0.05,-0.30,9.85
538971346,0.000689,0.000110,0.000905,0.04,-0.28,9.87
538972357,0.002816,-0.002018,0.001968,0.02,-0.29,9.82
538973365,0.001749,-0.002016,0.003030,0.02,-0.30,9.76
538974380,0.000683,-0.002014,0.001963,0.04,-0.28,9.78
538975389,-0.000382,0.000116,0.000897,0.07,-0.28,9.85
538976402,0.000683,0.002244,0.000896,0.04,-0.30,9.84
538977409,0.000682,0.002242,0.000895,-0.01,-0.32,9.79
538978418,0.001746,0.000111,0.000894,0.00,-0.30,9.78
538979425,0.000680,-0.002017,-0.000171,0.04,-0.29,9.80
538980441,-0.000385,-0.002015,-0.003363,0.06,-0.30,9.79
538981449,0.000680,-0.000949,-0.003360,0.09,-0.31,9.78
538982463,-0.000385,0.000116,-0.000164,0.07,-0.31,9.79
538983471,-0.003578,-0.000948,0.000900,0.04,-0.30,9.78
538984477,-0.002510,0.000117,-0.001229,0.04,-0.30,9.80
538985491,-0.001443,0.000117,-0.001228,0.05,-0.29,9.81
538986492,0.001751,-0.000947,-0.000162,0.06,-0.28,9.80
538987507,0.001749,0.001182,-0.000162,0.02,-0.29,9.82
538988515,0.000683,0.003309,-0.001226,0.01,-0.31,9.82
538989525,0.000683,0.004370,-0.001225,0.04,-0.32,9.78
538990535,0.001746,0.003302,-0.002288,0.05,-0.31,9.79
538991544,0.001744,0.001170,-0.002286,0.04,-0.30,9.81
538992551,-0.000386,0.000104,-0.002283,0.03,-0.31,9.81
538993561,0.000679,-0.000960,-0.003345,0.03,-0.30,9.78
538994572,0.000678,-0.002023,-0.003342,0.05,-0.27,9.80
538995587,-0.000387,-0.000957,-0.001210,0.05,-0.26,9.79
538996592,-0.000386,0.001173,-0.002273,0.03,-0.27,9.78
538997601,-0.000386,0.001171,-0.003335,0.03,-0.29,9.84
538998609,0.000679,-0.000958,-0.002267,0.03,-0.31,9.86
538999621,0.001742,-0.000957,-0.000137,0.06,-0.33,9.85
539000632,0.001740,-0.000956,0.000928,0.08,-0.33,9.79
539001641,0.000674,0.001173,0.000927,0.06,-0.31,9.75
539002652,-0.001455,0.002236,0.000926,0.04,-0.30,9.81
539003661,0.000675,0.000105,0.000925,0.04,-0.31,9.89
539004672,0.000675,-0.002023,0.001988,0.04,-0.32,9.82
539005687,-0.001455,-0.000957,-0.000142,0.03,-0.32,9.79
539006692,-0.002517,0.000108,-0.001206,0.03,-0.30,9.81
539007703,-0.000386,0.001172,-0.001205,0.02,-0.29,9.82
539008712,0.000678,0.000107,0.000925,0.00,-0.31,9.84
539009721,-0.001451,-0.000957,0.001988,0.02,-0.27,9.79
539010732,-0.001449,-0.000956,0.000922,0.04,-0.29,9.74
539011741,-0.001448,-0.000955,-0.001208,0.05,-0.30,9.74
539012752,-0.001446,0.000110,-0.002271,0.05,-0.26,9.77
539013801,-0.002509,0.001174,-0.002268,0.05,-0.29,9.81
539014802,-0.003571,0.001173,-0.002266,0.05,-0.29,9.84
539015830,-0.001439,0.001171,-0.002264,0.06,-0.28,9.80
539016792,0.000691,0.001170,-0.001197,0.05,-0.27,9.70
539017801,0.001755,0.000105,-0.002260,0.03,-0.25,9.69
539018812,0.001753,0.001169,-0.003322,0.07,-0.27,9.78
539019821,0.001751,0.002232,-0.004383,0.09,-0.27,9.86
539020832,0.000685,0.001166,-0.004379,0.05,-0.27,9.84
539021841,0.000685,0.001164,-0.003310,0.05,-0.30,9.81
539022852,0.000684,0.001163,-0.002243,0.07,-0.31,9.83
539023861,-0.000381,0.002226,-0.000112,0.06,-0.31,9.80
539024872,-0.000381,0.001160,-0.000112,0.05,-0.28,9.78
539025911,-0.003573,0.000094,0.000953,0.02,-0.28,9.84
539026937,-0.003569,-0.000970,0.002016,0.02,-0.29,9.82
539027932,-0.001437,-0.000969,0.002014,0.06,-0.29,9.81
539028945,0.000693,0.000096,0.000947,0.06,-0.31,9.84
539029949,0.001756,0.002225,0.000946,0.09,-0.32,9.86
539030955,-0.000374,0.002222,0.002010,0.07,-0.30,9.90
539031945,-0.001438,0.001156,-0.000121,0.04,-0.28,9.88
539032955,-0.001436,0.000091,0.000944,0.06,-0.28,9.85
539033966,-0.001435,0.001155,0.000943,0.02,-0.30,9.88
539034984,-0.001433,0.003282,-0.000122,0.00,-0.32,9.84
539035992,-0.002496,0.002214,0.000942,0.03,-0.32,9.79
539037030,-0.001429,0.000084,0.003069,0.05,-0.33,9.84
539038049,0.000700,-0.002045,0.003066,0.03,-0.31,9.87
539039022,0.003892,-0.004171,0.001999,0.03,-0.31,9.89
539040046,0.002824,-0.003103,-0.000132,0.06,-0.33,9.85
539041055,-0.001435,-0.000971,-0.001196,0.07,-0.31,9.81
539042073,-0.001434,0.002222,0.000934,0.06,-0.33,9.79
539043051,-0.001433,0.003284,0.001997,0.04,-0.34,9.83
539044062,-0.000367,0.003281,0.000931,0.04,-0.32,9.87
539045085,-0.001431,0.001149,0.000930,0.04,-0.29,9.84
539046087,-0.000365,0.001148,-0.001199,0.02,-0.29,9.78
539047093,-0.001429,0.001147,-0.002262,0.03,-0.31,9.76
539048148,-0.001427,0.004339,-0.003324,0.03,-0.28,9.79
539049112,-0.000362,0.006462,-0.002257,0.03,-0.28,9.85
539050121,-0.001426,0.004328,-0.000126,0.03,-0.29,9.86
539051147,-0.002488,0.000066,0.000938,0.03,-0.29,9.77
539052142,-0.003550,0.000066,0.000937,0.04,-0.31,9.74
539053151,-0.002482,0.002195,-0.002256,0.06,-0.34,9.78
539054207,0.000713,0.001128,-0.002254,0.03,-0.30,9.77
539055218,-0.000352,-0.001001,-0.000123,0.03,-0.29,9.82
539056186,0.000712,-0.001000,-0.001187,0.03,-0.29,9.83
539057193,0.001776,0.000065,-0.002250,0.02,-0.31,9.85
539058202,0.001774,0.000065,-0.000120,0.05,-0.30,9.86
539059211,0.000708,0.001129,-0.000120,0.07,-0.25,9.82
539060222,-0.000357,0.001128,-0.000119,0.05,-0.27,9.78
539061231,-0.000356,0.000063,-0.000119,0.06,-0.33,9.82
539062242,-0.000356,-0.002066,0.000945,0.08,-0.31,9.84
539063251,-0.001420,-0.002064,0.002008,0.08,-0.31,9.86
539064262,-0.001418,-0.003126,0.000942,0.04,-0.31,9.86
539065271,-0.000353,-0.004187,-0.000123,0.04,-0.31,9.82
539066289,-0.000352,-0.003119,0.000941,0.05,-0.32,9.81
539067299,-0.000352,-0.000987,-0.000124,0.05,-0.30,9.85
539068305,-0.001416,0.000078,-0.000124,0.06,-0.29,9.84
539069315,-0.001414,0.000078,-0.000124,0.04,-0.29,9.79
539070324,-0.001413,0.001142,0.000941,0.02,-0.29,9.86
539071371,-0.002476,0.002205,0.000940,0.05,-0.28,9.88
539072361,-0.003537,0.003267,0.000939,0.06,-0.28,9.82
539073356,-0.002470,0.001136,0.002002,0.04,-0.31,9.85
539074370,-0.003531,0.001134,0.003064,0.05,-0.32,9.87
539075376,-0.003528,0.002197,0.003061,0.07,-0.30,9.82
539076391,-0.004589,0.001131,0.000930,0.06,-0.28,9.79
539077399,-0.002455,0.000066,-0.001200,0.05,-0.32,9.80
539078409,-0.002453,-0.000999,-0.001198,0.04,-0.34,9.79
539079418,-0.002451,-0.003126,-0.001197,0.04,-0.30,9.79
539080427,-0.001384,-0.003123,-0.000132,0.04,-0.28,9.84
539081440,-0.001382,-0.003120,-0.000132,0.05,-0.29,9.87
539082450,-0.002445,-0.003117,-0.000132,0.04,-0.28,9.84
539083460,-0.002443,-0.002049,-0.001196,0.04,-0.28,9.79
539084467,-0.001376,0.001145,-0.001194,0.04,-0.26,9.84
539085484,-0.000310,0.002209,-0.002257,0.04,-0.24,9.82
539086486,-0.001374,0.002206,-0.003319,0.03,-0.25,9.80
539087492,-0.001373,0.002204,-0.003316,0.05,-0.28,9.79
539088507,-0.001372,0.001138,-0.002248,0.06,-0.28,9.77
539089515,-0.000306,-0.002056,-0.000118,0.06,-0.32,9.81
539090525,0.001823,-0.004182,0.000947,0.09,-0.32,9.80
539091535,0.002885,-0.004178,0.002010,0.10,-0.29,9.80
539092544,0.001818,-0.000981,0.002008,0.06,-0.28,9.78
539093551,-0.000312,0.001148,-0.000123,0.05,-0.29,9.78
539094561,-0.002440,0.001147,-0.002251,0.07,-0.29,9.81
539095576,-0.003502,0.001146,-0.004377,0.09,-0.28,9.81
539096583,-0.003499,0.000080,-0.003308,0.06,-0.30,9.78
539097602,-0.002431,-0.002048,-0.002241,0.00,-0.31,9.76
539098601,-0.001364,-0.002046,-0.001174,0.00,-0.34,9.83
539099612,-0.001363,0.000084,-0.000109,0.04,-0.32,9.83
539100621,-0.001361,0.000084,-0.001173,0.06,-0.29,9.79
539101632,0.000768,-0.000980,-0.003300,0.05,-0.28,9.81
539102641,0.001832,0.001149,-0.003297,0.05,-0.32,9.82
539103652,-0.001363,0.003277,-0.002230,0.03,-0.31,9.81
539104661,-0.002426,0.003273,-0.002227,0.03,-0.29,9.83
539105676,-0.000295,0.001142,-0.002225,0.02,-0.28,9.82
539106683,0.000770,-0.000988,-0.001159,0.02,-0.24,9.78
539107701,0.000769,-0.003115,-0.001157,0.02,-0.28,9.78
539108703,-0.001360,-0.000984,-0.000092,0.03,-0.32,9.82
539109712,-0.002423,0.001146,0.000972,0.06,-0.28,9.81
539110719,-0.002421,0.000080,-0.000093,0.03,-0.26,9.78
539111732,-0.001354,0.001144,-0.002221,0.03,-0.28,9.78
539112741,-0.000288,0.000079,-0.001155,0.04,-0.30,9.79
539113752,-0.001352,-0.002049,0.000975,0.02,-0.30,9.80
539114761,-0.001351,-0.002047,-0.000090,0.02,-0.30,9.78
539115776,-0.000285,-0.002045,-0.002219,0.04,-0.32,9.81
539116783,0.000779,0.000085,-0.001152,0.05,-0.32,9.82
539117801,-0.000286,0.001149,-0.000087,0.06,-0.31,9.78
539118801,-0.003478,0.002212,-0.000087,0.08,-0.30,9.78
539119812,-0.004539,0.002210,-0.000087,0.05,-0.31,9.80
539120821,-0.003470,0.000079,-0.000087,0.05,-0.31,9.84
539121832,-0.001338,0.000079,0.000978,0.05,-0.31,9.85
539122841,-0.001337,0.001144,0.000977,0.05,-0.30,9.83
539123852,-0.004528,0.001142,-0.000089,0.05,-0.28,9.81
539124861,-0.005588,0.001141,0.000976,0.05,-0.29,9.76
539125876,-0.003454,0.000076,0.000975,0.05,-0.29,9.78
539126883,-0.000258,-0.002053,-0.000090,0.06,-0.30,9.80
539127901,0.000807,-0.003115,-0.000090,0.06,-0.27,9.78
539128903,-0.000258,-0.004176,0.000974,0.05,-0.26,9.79
539129912,-0.001322,-0.004172,0.000973,0.07,-0.30,9.79
539130921,-0.001321,-0.000975,-0.000092,0.08,-0.32,9.76
539131932,-0.000255,-0.000974,0.000972,0.09,-0.31,9.78
539132941,-0.000255,-0.003101,0.002035,0.08,-0.31,9.86
539133952,-0.001319,-0.004162,0.004162,0.04,-0.31,9.82
539134961,-0.000253,-0.000965,0.004157,0.06,-0.29,9.80
539135976,0.001875,0.003292,0.003089,0.06,-0.29,9.77
539136983,0.002938,0.003289,0.002022,0.04,-0.31,9.81
539138001,0.000806,0.002221,-0.000109,0.04,-0.32,9.83
539139001,-0.002387,0.001155,-0.002237,0.06,-0.28,9.80
539140012,-0.002385,0.000090,-0.002235,0.08,-0.27,9.86
539141021,-0.002382,0.000090,0.000960,0.06,-0.27,9.78
539142032,-0.004508,0.000089,0.000959,0.03,-0.29,9.71
539143041,-0.004504,0.002218,-0.000106,0.02,-0.31,9.76
539144052,-0.004499,0.002216,-0.001170,0.06,-0.31,9.81
539145061,-0.004495,-0.002044,-0.000105,0.06,-0.29,9.76
539146076,-0.002362,-0.004170,0.002024,0.02,-0.28,9.72
539147083,-0.001295,-0.003101,0.002022,0.03,-0.32,9.76
539148101,-0.002358,0.000094,0.000955,0.03,-0.34,9.76
539149103,-0.002356,0.001158,0.000955,0.03,-0.31,9.78
539150112,-0.001289,0.000093,0.000954,0.05,-0.30,9.84
539151121,-0.000224,0.001157,0.000953,0.06,-0.32,9.85
539152132,0.000841,0.001156,0.000952,0.06,-0.31,9.81
539153141,0.000840,-0.000974,-0.000114,0.04,-0.30,9.78
539154152,0.000839,-0.002037,-0.001178,0.06,-0.29,9.81
539155161,-0.000226,-0.002035,0.000952,0.03,-0.31,9.82
539156176,-0.000226,-0.000969,0.002015,0.03,-0.29,9.79
539157183,-0.000225,0.001161,0.003077,0.03,-0.26,9.79
539158201,-0.000225,0.002224,0.002010,0.03,-0.28,9.81
539159199,-0.001289,0.002222,0.000944,0.04,-0.31,9.80
539160212,-0.001288,0.002219,-0.000121,0.03,-0.33,9.83
539161221,-0.001287,0.002217,-0.000121,0.01,-0.32,9.82
539162232,-0.000221,0.001151,-0.001185,0.01,-0.31,9.77
539163241,0.001908,0.000085,-0.000120,0.04,-0.30,9.78
539164252,0.000841,0.000085,0.000944,0.07,-0.32,9.78
539165261,0.000841,0.000085,0.000943,0.06,-0.33,9.78
539166276,-0.000224,0.001149,-0.000122,0.04,-0.30,9.83
539167313,-0.000224,0.002212,-0.001186,0.04,-0.32,9.86
539168299,0.000840,0.001146,-0.001185,0.04,-0.34,9.80
539169305,0.001904,0.001145,-0.002248,0.04,-0.32,9.76
539170315,0.002966,0.000079,-0.003310,0.01,-0.30,9.81
539171326,0.001899,0.000079,-0.002242,0.02,-0.28,9.83
539172337,-0.001296,0.001143,-0.001176,0.08,-0.28,9.81
539173348,-0.001295,0.001142,-0.000110,0.10,-0.29,9.78
539174369,0.000835,-0.000987,-0.000110,0.08,-0.29,9.78
539175366,-0.000230,-0.004179,-0.002238,0.04,-0.33,9.79
539176380,-0.000230,-0.004175,-0.002236,0.03,-0.34,9.75
539177389,0.000835,-0.000978,-0.002234,0.03,-0.31,9.77
539178406,0.000834,0.003280,-0.001167,0.02,-0.34,9.82
539179408,-0.000231,0.004341,-0.001166,0.04,-0.33,9.81
539180418,-0.000231,0.003272,-0.002229,0.05,-0.30,9.80
539181427,-0.000231,0.001141,-0.000099,0.05,-0.29,9.86
539182440,0.000834,0.000075,-0.000098,0.06,-0.29,9.86
539183452,0.001897,0.001139,-0.001163,0.03,-0.32,9.85
539184463,0.000831,0.000074,-0.002226,0.03,-0.32,9.81
539185467,-0.001298,-0.000990,-0.003288,0.06,-0.29,9.81
539186483,-0.000233,-0.002054,-0.003284,0.04,-0.29,9.83
539187486,0.001896,-0.000987,-0.002217,0.05,-0.31,9.79
539188501,-0.000234,0.001142,-0.000086,0.08,-0.31,9.80
539189507,-0.001298,0.002205,0.002042,0.06,-0.32,9.80
539190515,-0.000233,0.002203,-0.000088,0.01,-0.32,9.79
539191525,0.001896,0.000072,-0.001152,-0.01,-0.29,9.79
539192535,0.004022,-0.002056,-0.000087,0.04,-0.30,9.79
539193544,0.001890,-0.002054,-0.000087,0.04,-0.30,9.75
539194551,-0.002369,0.000076,-0.000087,0.02,-0.30,9.77
539195566,-0.003431,0.002205,-0.000087,0.04,-0.28,9.82
539196573,-0.003427,0.001138,0.000978,0.07,-0.27,9.83
539197579,-0.003424,-0.000991,0.002041,0.07,-0.27,9.81
539198601,-0.000228,-0.000990,0.000975,0.06,-0.28,9.72
539199601,-0.000227,-0.000989,-0.001155,0.05,-0.31,9.71
539200612,0.000837,0.000076,-0.000089,0.06,-0.31,9.77
539201621,0.002965,0.001140,-0.000089,0.05,-0.28,9.80
539202632,0.002962,0.002203,-0.000089,0.04,-0.26,9.85
539203641,0.001894,0.001137,0.000975,0.04,-0.28,9.87
539204652,0.000828,0.000071,0.000974,0.04,-0.28,9.86
539205666,-0.001301,-0.000993,0.000973,0.06,-0.28,9.82
539206673,-0.002364,-0.002056,-0.000092,0.05,-0.30,9.78
539207681,-0.002362,-0.002054,-0.002220,0.05,-0.28,9.80
539208701,-0.000231,-0.000988,-0.003282,0.05,-0.29,9.81
539209703,0.000834,-0.000987,-0.002215,0.06,-0.31,9.84
539210712,-0.001296,-0.000986,-0.001148,0.08,-0.29,9.84
539211721,-0.001294,0.001144,-0.000083,0.11,-0.32,9.81
539212732,-0.000229,0.002207,-0.000083,0.09,-0.32,9.78
539213741,0.000836,0.000076,-0.001147,0.07,-0.32,9.78
539214752,0.000835,-0.000988,-0.002210,0.06,-0.33,9.82
539215766,0.000834,-0.000987,-0.001144,0.04,-0.32,9.80
539216773,-0.000231,-0.002050,-0.000078,0.02,-0.30,9.78
539217781,0.000833,-0.003113,0.000986,0.05,-0.28,9.79
539218801,0.001897,-0.003109,0.000985,0.07,-0.30,9.79
539219801,0.000831,-0.002042,-0.000080,0.04,-0.31,9.77
539220812,0.000830,0.000088,-0.002208,0.04,-0.27,9.80
539221821,0.001893,0.002217,-0.002206,0.05,-0.28,9.81
539222832,0.001891,0.002215,-0.002204,0.07,-0.29,9.79
539223841,0.001889,0.001148,-0.002202,0.07,-0.28,9.84
539224852,0.001887,0.004340,-0.001135,0.05,-0.28,9.84
539225866,-0.000243,0.005399,0.002058,0.03,-0.28,9.80
539226873,-0.001307,0.003265,0.003121,0.00,-0.31,9.83
539227879,-0.002370,0.001134,0.000989,0.02,-0.32,9.89
539228943,0.000825,-0.002060,-0.000076,0.05,-0.30,9.87
539229939,0.001889,-0.005250,-0.000076,0.05,-0.30,9.78
539230933,0.000822,-0.003117,0.000988,0.07,-0.30,9.73
539231921,-0.000243,0.000079,0.000987,0.08,-0.28,9.79
539232932,0.000822,0.001143,0.000986,0.06,-0.27,9.85
539233941,0.002949,0.001142,0.000985,0.03,-0.27,9.83
539234952,0.005075,0.000077,-0.000080,0.02,-0.29,9.80
539235966,0.005070,0.000077,-0.000080,0.02,-0.31,9.83
539236970,0.002936,0.003269,-0.001144,0.04,-0.30,9.87
539237979,0.000805,0.005394,-0.001143,0.04,-0.29,9.86
539238999,-0.001324,0.005389,0.000987,0.03,-0.30,9.80
539240001,-0.001323,0.004319,0.002050,0.02,-0.33,9.80
539241048,-0.001322,0.003251,0.000984,0.02,-0.32,9.84
539242029,-0.001320,-0.001009,-0.000082,0.05,-0.31,9.86
539243031,-0.001319,-0.003137,-0.001146,0.04,-0.32,9.86
539244042,-0.001318,-0.001005,-0.004337,0.03,-0.31,9.85
539245051,-0.000252,0.001124,-0.007525,0.01,-0.29,9.89
539246066,-0.000252,0.001123,-0.005389,-0.01,-0.26,9.85
539247110,-0.001316,0.001122,-0.001127,0.03,-0.28,9.78
539248108,0.000814,0.000057,0.001002,0.03,-0.30,9.83
539249140,0.001877,-0.001008,0.002066,0.01,-0.28,9.87
539250121,0.000811,-0.002071,-0.000065,0.05,-0.28,9.84
539251114,0.000810,-0.002069,-0.003258,0.07,-0.27,9.77
539252124,0.002938,0.000062,-0.003254,0.05,-0.25,9.77
539253135,0.002935,0.003254,-0.000059,0.05,-0.29,9.83
539254144,-0.000261,0.002187,0.003134,0.03,-0.31,9.86
539255160,0.000804,-0.001008,0.002067,0.05,-0.33,9.80
539256182,0.000803,0.001121,0.002065,0.07,-0.35,9.82
539257217,-0.000262,0.002184,0.000998,0.04,-0.30,9.86
539258215,0.000803,0.002182,-0.001131,0.03,-0.28,9.85
539259200,0.001866,0.003244,-0.002194,0.04,-0.28,9.82
539260219,0.000800,0.002177,-0.004320,0.04,-0.28,9.80
539261245,0.000799,0.000046,-0.004316,0.03,-0.27,9.75
539262222,0.000798,-0.001018,-0.003247,0.00,-0.27,9.78
539263231,0.001862,0.001111,-0.000051,0.04,-0.29,9.83
539264242,0.001860,0.000046,-0.000051,0.07,-0.29,9.79
539265251,-0.000270,-0.002082,-0.000051,0.07,-0.28,9.79
539266312,-0.003463,-0.003145,-0.001116,0.06,-0.27,9.82
539267268,-0.004523,-0.002077,-0.002179,0.04,-0.29,9.85
539268282,-0.004519,-0.001011,-0.002176,0.02,-0.33,9.80
539269312,-0.002386,0.000054,-0.001110,0.03,-0.32,9.78
539270325,-0.001319,0.001119,-0.000045,0.06,-0.33,9.87
539271311,-0.001318,-0.001011,0.001020,0.04,-0.29,9.88
539272349,0.000812,-0.001010,-0.001110,0.03,-0.26,9.85
539273365,0.001875,0.001119,-0.001109,0.02,-0.26,9.85
539274345,0.002937,0.002182,0.001021,0.02,-0.26,9.82
539275355,0.001870,0.000052,0.001020,0.04,-0.29,9.82
539276411,-0.000260,-0.001012,-0.001110,0.05,-0.30,9.84
539277412,-0.000260,-0.002075,-0.001108,0.04,-0.27,9.86
539278385,0.001869,-0.002073,-0.000043,0.03,-0.27,9.86
539279398,0.001867,-0.001007,-0.000043,0.03,-0.31,9.84
539280409,0.001865,-0.001006,0.002085,0.03,-0.31,9.81
539281418,0.001863,-0.002069,0.002083,0.03,-0.28,9.77
539282427,0.002926,0.000061,0.002081,0.03,-0.28,9.78
539283443,0.000794,0.002190,-0.000049,0.06,-0.30,9.78
539284449,-0.001335,0.003252,-0.002178,0.07,-0.33,9.77
539285464,-0.001334,0.002184,-0.002176,0.06,-0.32,9.79
539286473,-0.001332,0.000053,-0.002173,0.07,-0.28,9.80
539287479,-0.001331,0.000053,-0.001107,0.07,-0.26,9.81
539288485,-0.000265,-0.001011,-0.000042,0.09,-0.25,9.85
539289492,0.000799,-0.002074,-0.000042,0.06,-0.27,9.85
539290506,-0.001330,-0.003136,-0.000042,0.04,-0.29,9.84
539291517,-0.002393,-0.002069,-0.000042,0.05,-0.31,9.81
539292529,-0.002390,-0.002067,0.001023,0.04,-0.31,9.77
539293535,-0.000260,-0.002065,0.001022,0.04,-0.30,9.79
539294544,0.000805,-0.002063,-0.001108,0.05,-0.31,9.76
539295557,0.001868,-0.002060,-0.003235,0.05,-0.28,9.79
539296561,0.001866,-0.000994,-0.003232,0.08,-0.27,9.87
539297572,0.001864,-0.002057,-0.001100,0.07,-0.30,9.83
539298581,-0.000266,-0.002055,0.002094,0.04,-0.31,9.78
539299592,-0.002394,-0.002053,0.001027,0.07,-0.30,9.73
539300601,-0.002392,0.000077,-0.000038,0.08,-0.29,9.73
539301612,-0.001325,0.002206,-0.000038,0.06,-0.30,9.79
539302621,-0.000259,0.001139,0.001026,0.04,-0.30,9.82
539303632,-0.000259,-0.000990,0.001025,0.07,-0.30,9.82
539304641,-0.000259,-0.002054,0.002088,0.06,-0.31,9.79
539305657,-0.001323,-0.002052,0.001022,0.01,-0.31,9.73
539306661,-0.001321,-0.002049,-0.001107,0.01,-0.28,9.74
539307672,-0.001320,-0.000983,-0.000042,0.01,-0.27,9.77
539308688,-0.001319,0.002210,0.001022,0.03,-0.31,9.79
539309692,-0.001317,0.001144,0.001021,0.05,-0.31,9.79
539310701,-0.000252,-0.000986,-0.000044,0.09,-0.28,9.81
539311713,0.000813,0.000080,-0.001108,0.06,-0.30,9.83
539312721,0.000812,0.002208,-0.002171,0.02,-0.31,9.85
539313732,0.000811,0.002206,-0.000041,0.02,-0.28,9.83
539314741,-0.000254,0.000075,0.002088,0.03,-0.28,9.81
539315757,-0.000254,0.001139,0.002086,0.04,-0.28,9.81
539316761,-0.001318,0.003266,0.001019,0.05,-0.30,9.81
539317769,-0.002381,0.003263,-0.000046,0.05,-0.29,9.79
539318779,-0.001314,0.002196,0.001018,0.03,-0.26,9.80
539319791,-0.000249,0.001129,0.003146,0.04,-0.27,9.83
539320853,0.000816,-0.001000,0.003143,0.04,-0.26,9.85
539321781,-0.000249,-0.002066,0.001012,0.02,-0.27,9.82
539322788,0.032774,-0.020175,0.007404,0.06,-0.20,9.88
539323798,0.094561,-0.045742,0.006338,0.01,-0.15,9.86
539324808,0.068994,-0.028698,0.008469,0.01,-0.18,9.76
539325825,0.022121,-0.004196,0.016991,0.06,-0.13,9.83
539326835,0.005077,0.001130,0.025514,0.09,-0.26,9.77
539327839,0.011469,-0.006327,0.028709,0.27,-0.40,9.93
539328848,0.010403,-0.010588,0.023383,0.10,-0.69,9.79
539329858,0.002946,-0.011653,0.012730,-0.17,-0.66,9.65
539330868,-0.013033,-0.006327,0.006338,-0.30,-0.21,9.84
539331878,-0.025816,-0.008457,0.004208,-0.21,0.22,9.72
539332889,-0.010902,-0.013784,0.007404,0.41,-0.13,9.80
539333898,0.010403,-0.011653,0.009534,0.59,-0.96,9.96
539334908,0.009338,0.000065,-0.004314,-0.37,-0.74,9.91
539335923,-0.020490,0.002196,-0.020294,-0.70,0.45,9.79
539336935,-0.039665,-0.009523,-0.018163,0.43,0.08,9.45
539337939,0.000816,-0.005261,-0.002184,0.75,-1.43,9.44
539338948,0.042362,0.013914,-0.005380,-0.41,0.53,10.72
539339958,0.006142,0.004326,-0.013902,-0.53,1.07,9.96
539340968,-0.037534,-0.018045,-0.006445,0.66,-2.79,8.55
539341978,0.015730,0.008587,-0.013902,0.21,0.33,10.90
539342989,0.048753,0.013914,-0.018163,-0.64,2.32,10.17
539343998,-0.033273,-0.027632,0.001012,0.32,-3.89,7.88
539345008,-0.006641,0.002196,-0.001119,0.30,0.79,11.32
539346023,0.077516,0.005391,0.003143,-0.60,1.28,9.70
539347035,0.005077,-0.030828,0.004208,0.38,-2.67,9.05
539348039,-0.010902,0.005391,-0.006445,0.33,1.74,11.20
539349048,0.006142,-0.009523,0.011665,-0.33,-1.95,7.59
539350058,0.011469,0.001130,0.007404,0.00,0.79,12.05
539351068,0.029578,-0.007392,0.006338,0.24,-0.52,8.99
539352078,-0.044991,-0.011653,0.003143,0.28,-0.53,9.87
539353089,-0.009837,0.018175,0.009534,-0.68,-0.37,10.38
539354098,0.007208,-0.011653,0.009534,0.78,0.35,9.16
539355108,-0.010902,0.016044,0.008469,-0.34,-0.52,10.43
539356123,0.015730,0.011783,-0.001119,0.23,0.95,10.52
539357135,0.006142,0.012848,-0.012837,-0.29,-1.45,9.76
539358139,-0.006641,0.017109,-0.014967,0.74,1.13,7.96
539359148,-0.044991,0.034154,-0.003249,-0.83,-1.04,10.08
539360158,-0.015163,0.022436,0.008469,0.59,1.01,9.58
539361168,0.008273,0.004326,0.015926,-0.31,-0.12,11.43
539362178,0.021056,-0.020175,0.020187,0.18,0.13,11.05
539363189,0.005077,-0.011653,0.030840,0.65,0.37,7.98
539364198,0.004012,0.004326,0.032970,-1.04,-1.21,11.65
539365208,0.002946,0.020305,0.037232,0.08,0.37,7.69
539366223,0.013599,0.023501,0.037232,0.02,-0.60,10.18
539367235,0.008273,0.007522,0.037232,-0.51,-1.48,10.72
539368239,0.002946,0.001130,0.036166,0.60,0.27,7.48
539369248,0.008273,-0.002066,0.035101,-0.22,-0.93,11.36
539370258,0.016795,0.012848,0.030840,-0.37,-1.29,11.40
539371268,-0.002380,0.021371,0.027644,0.92,0.42,7.45
539372279,-0.025816,-0.001000,0.027644,-0.36,-0.89,11.22
539373294,-0.051383,-0.029763,0.027644,-0.57,-1.61,10.96
539374302,-0.072689,-0.043612,0.030840,1.02,0.72,7.11
539375312,-0.051383,-0.035089,0.029775,0.15,0.07,10.31
539376329,-0.033273,-0.023371,0.022318,-1.00,-2.13,11.83
539377340,-0.023686,-0.003131,0.007404,0.45,0.30,8.04
539378345,-0.006641,0.011783,-0.005380,1.05,1.28,8.56
539379360,-0.019424,0.001130,-0.007510,-0.66,-1.45,12.09
539380366,-0.036469,-0.008457,-0.008575,-0.56,-1.51,10.37
539381377,-0.036469,0.003261,-0.012837,1.05,1.21,7.30
539382386,-0.021555,0.002196,-0.013902,0.72,0.97,9.90
539383398,0.002946,-0.012718,-0.009641,-0.85,-1.65,12.29
539384402,0.016795,-0.009523,-0.013902,-0.47,-1.21,9.58
539385412,0.016795,0.022436,-0.020294,1.19,1.13,7.36
539386432,0.025317,0.014979,-0.013902,0.86,0.99,9.58
539387441,-0.011968,0.011783,-0.007510,-0.83,-1.23,12.20
539388446,-0.047122,0.027762,-0.008575,-0.90,-1.87,10.35
539389472,-0.037534,0.028828,-0.010706,0.62,0.19,7.75
539390461,-0.006641,0.012848,-0.005380,1.24,1.47,8.62
539391470,-0.004511,-0.006327,-0.003249,0.10,0.10,11.16
539392484,-0.015163,-0.023371,0.001012,-1.25,-1.74,11.88
539393493,-0.027947,-0.029763,0.004208,-0.78,-1.99,9.40
539394501,-0.019424,-0.016980,0.003143,0.78,0.26,7.70
539395510,0.005077,0.004326,0.001012,1.13,1.25,8.78
539396523,0.005077,-0.003131,0.001012,0.18,0.24,10.62
539397535,-0.005576,-0.009523,0.002077,-1.07,-1.02,12.24
539398539,-0.017294,-0.008457,0.001012,-1.11,-2.26,10.50
539399548,-0.015163,-0.013784,-0.000053,0.28,-1.25,8.19
539400558,-0.008772,-0.010588,-0.003249,1.51,0.96,8.33
539401568,-0.014098,-0.007392,-0.005380,0.97,1.20,8.64
539402578,-0.020490,-0.014849,-0.000053,-0.29,0.66,10.75
539403589,-0.010902,-0.018045,0.002077,-0.74,-0.40,12.41
539404598,-0.010902,-0.008457,0.002077,-0.96,-2.12,10.81
539405608,-0.018359,-0.005261,0.005273,-0.01,-1.94,8.36
539406623,-0.008772,-0.009523,0.004208,1.11,0.68,7.71
539407635,-0.013033,0.007522,0.005273,1.11,1.84,8.10
539408672,0.008273,0.012848,0.006338,0.67,1.39,9.40
539409648,0.031709,0.006457,0.010600,-0.05,1.20,12.06
539410658,0.012534,-0.004196,0.018057,-0.71,-0.33,12.45
539411668,-0.022620,-0.004196,0.024448,-1.05,-2.25,11.63
539412678,-0.024751,-0.016980,0.027644,-0.45,-2.76,9.34
539413689,-0.008772,-0.029763,0.027644,0.35,-1.42,8.06
539414698,0.012534,-0.018045,0.021252,0.82,0.57,7.68
539415713,-0.010902,-0.004196,0.025514,0.58,1.35,7.29
539416725,0.004012,0.017109,0.030840,0.16,1.13,9.09
539417728,0.034905,0.024566,0.020187,0.04,1.01,10.98
539418739,-0.030077,0.006457,0.023383,-0.46,0.38,13.21
539419748,-0.059905,-0.016980,0.040427,-0.76,-1.37,12.31
539420758,0.001881,-0.007392,0.043623,-0.88,-2.57,10.56
539421768,0.080712,0.026697,0.032970,-0.38,-2.18,9.00
539422778,0.108409,0.039480,0.028709,0.00,-1.36,8.03
539423789,0.065798,0.029893,0.035101,0.19,0.08,8.42
539424798,-0.005576,-0.004196,0.042558,0.58,0.63,7.94
539425813,-0.033273,-0.018045,0.035101,0.33,0.45,8.55
539426825,-0.001315,-0.004196,0.024448,0.41,1.33,9.66
539427828,0.018926,0.007522,0.021252,0.45,1.32,11.17
539428839,-0.001315,0.019240,0.019122,-0.11,1.00,11.78
539429848,0.015730,0.012848,0.022318,-0.37,-0.04,11.97
539430874,0.028513,0.001130,0.020187,-0.53,-1.43,11.19
539431888,-0.008772,-0.002066,0.022318,-0.65,-1.98,10.29
539432878,-0.037534,0.008587,0.027644,-0.24,-1.87,9.86
539433910,-0.013033,0.006457,0.030840,-0.12,-1.91,8.77
539434898,0.028513,-0.001000,0.027644,0.00,-1.01,9.18
539435913,0.065798,-0.012718,0.024448,0.30,-0.69,8.60
539436925,0.082842,-0.015914,0.029775,0.13,-0.52,8.39
539437928,0.071124,-0.016980,0.034036,0.54,0.45,8.43
539438939,0.021056,-0.019110,0.034036,0.51,0.05,8.50
539439948,-0.033273,-0.011653,0.023383,0.48,1.08,8.99
539440958,-0.040730,0.004326,0.014861,0.59,0.99,9.82
539441977,0.011469,0.018175,0.013795,0.25,1.18,10.57
539442985,0.031709,0.003261,0.023383,0.34,1.09,11.12
539443989,0.024252,-0.011653,0.018057,0.12,0.46,11.26
539445011,0.017860,-0.012718,0.016991,0.00,0.28,11.48
539446027,-0.020490,-0.004196,0.013795,-0.13,-0.67,11.18
539447045,-0.025816,-0.004196,0.015926,-0.41,-0.89,10.74
539448047,-0.021555,-0.001000,0.016991,-0.27,-1.28,10.63
539449042,-0.005576,-0.007392,0.016991,-0.29,-1.67,9.92
539450052,0.000816,-0.020175,0.018057,-0.07,-1.37,9.88
539451061,-0.008772,-0.009523,0.012730,-0.14,-1.49,9.03
539452075,-0.007706,0.008587,0.008469,-0.26,-1.14,9.32
539453083,0.013599,0.003261,0.010600,-0.12,-0.78,9.30
539454114,-0.020490,0.004326,0.021252,0.04,-0.25,9.15
539455118,-0.017294,-0.001000,0.016991,0.14,-0.14,8.85
539456127,0.004012,-0.009523,0.015926,0.02,-0.51,8.55
539457138,0.019991,-0.016980,0.016991,0.19,0.12,8.75
539458149,0.012534,-0.018045,0.020187,-0.04,0.18,9.05
539459139,-0.016229,-0.010588,0.020187,0.00,0.51,9.14
539460148,-0.042861,0.006457,0.023383,0.48,0.62,9.04
539461158,-0.044991,0.029893,0.024448,0.10,0.42,9.69
539462168,-0.041795,0.028828,0.026579,0.05,0.94,10.19
539463194,-0.048187,0.019240,0.029775,0.44,0.86,10.26
539464189,-0.053513,0.030958,0.025514,0.26,0.51,10.63
539465198,-0.059905,0.029893,0.025514,-0.03,0.65,10.63
539466221,-0.064166,0.017109,0.030840,0.07,0.52,10.75
539467246,-0.052448,0.020305,0.030840,0.24,0.14,11.34
539468241,-0.023686,0.023501,0.028709,-0.06,0.09,10.82
539469257,-0.000249,0.013914,0.030840,-0.24,-0.15,10.56
539470248,0.014665,-0.002066,0.037232,0.04,-0.50,10.97
539471258,0.023187,-0.016980,0.040427,-0.08,-0.52,10.38
539472268,0.010403,-0.019110,0.041493,-0.36,-0.76,9.92
539473278,-0.013033,-0.003131,0.040427,-0.03,-1.06,10.98
539474294,-0.008772,0.006457,0.031905,0.09,-0.92,10.09
539475323,0.010403,-0.002066,0.027644,-0.25,-1.02,9.51
539476320,0.018926,-0.008457,0.032970,-0.19,-1.56,10.32
539477329,0.013599,-0.009523,0.034036,0.00,-0.89,9.48
539478334,-0.023686,-0.009523,0.034036,-0.21,-0.42,9.78
539479344,-0.027947,-0.001000,0.032970,-0.14,-1.85,9.58
539480356,0.001881,0.005391,0.032970,0.18,-0.75,9.13
539481378,-0.013033,0.005391,0.038297,-0.18,0.20,10.15
539482377,-0.009837,0.009652,0.039362,-0.16,-1.97,9.45
539483391,0.021056,0.008587,0.037232,0.25,-0.56,9.05
539484395,-0.005576,-0.008457,0.039362,-0.20,0.42,10.09
539485402,-0.019424,-0.011653,0.042558,-0.01,-1.89,9.17
539486418,0.009338,-0.007392,0.044689,0.37,-0.31,8.89
539487433,0.009338,-0.014849,0.040427,-0.33,0.46,9.42
539488434,-0.015163,0.000065,0.041493,0.07,-1.63,8.79
539489447,0.006142,0.004326,0.038297,0.53,-0.09,9.17
539490452,0.028513,-0.001000,0.030840,-0.37,0.30,9.27
539491461,0.010403,-0.001000,0.030840,0.10,-1.27,8.76
539492470,0.000816,0.002196,0.029775,0.58,0.30,9.51
539493488,-0.013033,-0.013784,0.026579,-0.42,0.15,9.18
539494493,-0.036469,-0.002066,0.029775,0.17,-0.85,8.92
539495501,-0.001315,0.009652,0.026579,0.60,0.41,9.84
539496516,0.016795,0.003261,0.023383,-0.44,0.03,9.38
539497524,-0.009837,-0.005261,0.025514,0.25,-0.27,9.28
539498528,-0.019424,-0.004196,0.030840,0.55,0.25,9.88
539499539,-0.019424,-0.005261,0.031905,-0.46,-0.06,9.39
539500548,-0.027947,0.002196,0.035101,0.23,0.09,9.34
539501558,-0.029012,0.018175,0.034036,0.34,-0.03,10.12
539502568,-0.014098,-0.004196,0.032970,-0.28,0.06,9.93
539503578,-0.017294,-0.010588,0.040427,0.40,0.26,9.60
539504589,-0.001315,0.011783,0.042558,0.20,-0.13,10.30
539505598,0.027448,-0.004196,0.040427,-0.22,0.32,10.11
539506613,0.006142,-0.016980,0.042558,0.44,0.09,9.50
539507625,0.006142,-0.002066,0.039362,0.16,-0.30,10.20
539508628,0.027448,-0.011653,0.035101,-0.22,0.53,10.07
539509639,0.009338,-0.019110,0.036166,0.27,-0.02,9.62
539510648,0.001881,-0.006327,0.031905,0.09,-0.26,10.41
539511658,0.018926,-0.009523,0.027644,-0.18,0.45,10.06
539512668,0.005077,-0.011653,0.030840,0.25,-0.15,9.85
539513678,-0.001315,-0.002066,0.027644,0.21,-0.07,10.75
539514689,0.027448,-0.002066,0.020187,-0.17,0.48,10.05
539515703,0.002946,0.001130,0.020187,0.15,-0.14,9.87
539516715,-0.008772,0.011783,0.018057,0.34,-0.22,10.63
539517718,0.014665,0.011783,0.013795,-0.14,0.35,9.80
539518728,-0.009837,-0.001000,0.023383,-0.02,-0.07,9.78
539519739,-0.024751,0.001130,0.027644,0.54,-0.23,10.67
539520748,-0.021555,0.010718,0.025514,-0.03,0.35,9.94
539521758,-0.017294,0.001130,0.030840,-0.25,-0.17,10.04
539522768,-0.019424,0.004326,0.035101,0.60,-0.37,10.86
539523778,-0.032208,0.002196,0.037232,0.06,0.22,9.90
539524789,-0.022620,-0.004196,0.037232,-0.35,-0.35,10.05
539525803,-0.017294,0.007522,0.043623,0.51,-0.40,10.84
539526815,0.029578,0.006457,0.041493,0.05,-0.08,9.76
539527818,0.026383,-0.013784,0.043623,-0.29,-0.69,10.09
539528828,0.028513,-0.018045,0.041493,0.35,-0.36,10.90
539529839,0.016795,-0.007392,0.037232,-0.06,-0.42,9.52
539530848,0.015730,-0.013784,0.039362,-0.26,-1.13,9.79
539531858,0.006142,-0.007392,0.036166,0.20,-0.46,10.93
539532868,0.009338,-0.007392,0.029775,-0.04,-0.49,9.58
539533878,-0.010902,-0.020175,0.027644,-0.35,-1.20,9.65
539534889,-0.022620,-0.016980,0.026579,0.00,-0.72,11.06
539535903,-0.018359,-0.005261,0.019122,0.05,-0.57,9.77
539536915,-0.005576,0.001130,0.019122,-0.33,-1.05,9.49
539537918,-0.018359,0.027762,0.021252,-0.15,-1.12,10.56
539538928,0.002946,0.033089,0.019122,0.06,-0.66,9.72
539539939,-0.014098,0.008587,0.020187,-0.25,-0.51,10.07
539540948,-0.026881,-0.007392,0.025514,-0.13,-1.62,10.06
539541958,-0.021555,-0.011653,0.031905,0.16,-0.90,9.05
539542968,-0.014098,-0.010588,0.029775,-0.31,0.01,10.09
539543978,-0.023686,0.011783,0.034036,-0.19,-2.03,9.25
539544989,0.018926,0.017109,0.030840,0.23,-0.74,8.90
539546003,0.047688,0.006457,0.032970,-0.28,0.42,10.10
539547015,0.021056,-0.003131,0.039362,-0.08,-1.96,8.78
539548018,0.022121,-0.004196,0.039362,0.27,-0.24,9.21
539549028,0.010403,-0.020175,0.039362,-0.26,0.33,9.85
539550039,-0.001315,-0.030828,0.040427,0.03,-1.76,8.54
539551048,-0.003445,-0.021241,0.037232,0.29,0.17,9.33
539552058,-0.025816,-0.024437,0.031905,-0.25,0.25,9.41
539553068,-0.036469,-0.004196,0.031905,0.11,-1.35,8.58
539554078,-0.024751,0.011783,0.029775,0.43,0.36,9.37
539555089,-0.002380,0.006457,0.025514,-0.28,0.09,9.17
539556103,-0.011968,0.030958,0.032970,0.60,0.43,9.53
539557115,0.029578,0.018175,0.027644,-0.48,0.05,9.20
539558118,0.007208,0.009652,0.036166,0.10,-0.03,9.27
539559128,0.012534,0.009652,0.040427,0.75,0.53,9.77
539560139,0.044492,-0.002066,0.038297,-0.44,0.01,9.64
539561148,0.017860,-0.015914,0.040427,0.10,0.41,9.64
539562158,0.018926,-0.014849,0.038297,0.79,0.34,9.98
539563168,0.023187,-0.020175,0.037232,-0.13,0.24,10.10
539564178,-0.000249,-0.025502,0.035101,0.15,0.76,9.82
539565189,0.015730,-0.014849,0.029775,0.60,0.06,10.43
539566203,-0.003445,-0.015914,0.026579,-0.02,0.39,10.58
539567215,-0.037534,-0.014849,0.023383,0.08,0.50,9.82
539568218,-0.027947,-0.002066,0.022318,0.60,-0.06,10.74
539569228,-0.041795,-0.010588,0.023383,0.13,0.66,10.87
539570239,-0.050318,-0.013784,0.025514,-0.16,0.09,9.92
539571248,-0.031143,-0.001000,0.028709,0.51,-0.31,10.96
539572258,-0.038600,-0.006327,0.029775,0.29,0.53,10.72
539573268,-0.031143,-0.009523,0.028709,-0.39,-0.34,9.72
539574278,-0.016229,-0.003131,0.032970,0.31,-0.66,10.99
539575294,-0.011968,-0.019110,0.032970,0.31,0.17,10.65
539576306,-0.008772,-0.020175,0.030840,-0.52,-0.71,9.64
539577324,-0.014098,0.000065,0.035101,0.19,-1.06,10.78
539578322,-0.006641,-0.006327,0.029775,0.25,-0.28,10.54
539579334,0.005077,-0.012718,0.023383,-0.55,-1.05,9.62
539580345,-0.009837,0.005391,0.022318,0.04,-1.49,10.37
539581356,-0.008772,0.007522,0.015926,0.17,-0.48,10.28
539582366,-0.001315,0.006457,0.011665,-0.43,-0.82,9.83
539583386,-0.026881,0.022436,0.015926,-0.13,-1.72,9.94
539584386,-0.031143,0.019240,0.012730,0.05,-0.74,9.91
539585395,-0.017294,0.008587,0.011665,-0.33,-0.62,9.82
539586407,-0.029012,0.021371,0.019122,-0.14,-1.82,9.46
539587419,-0.027947,0.017109,0.018057,0.19,-0.59,9.78
539588422,-0.008772,0.003261,0.013795,-0.23,-0.28,9.96
539589434,-0.015163,0.016044,0.023383,-0.24,-1.96,8.97
539590446,-0.010902,0.014979,0.027644,0.28,-0.39,9.38
539591452,0.018926,-0.006327,0.024448,-0.08,0.05,9.68
539592461,0.007208,0.002196,0.027644,-0.16,-1.85,8.56
539593472,-0.003445,0.005391,0.026579,0.26,-0.18,9.22
539594478,0.015730,-0.011653,0.020187,-0.21,0.14,9.41
539595493,0.006142,-0.001000,0.020187,-0.02,-1.51,8.57
539596507,-0.014098,0.009652,0.018057,0.44,0.12,9.24
539597517,-0.010902,-0.003131,0.012730,-0.35,0.20,9.18
539598517,-0.027947,0.006457,0.012730,0.07,-0.86,8.81
539599528,-0.044991,0.014979,0.012730,0.64,0.42,9.43
539600539,-0.040730,0.000065,0.007404,-0.42,0.17,9.20
539601548,-0.034338,0.007522,0.010600,0.16,-0.09,9.14
539602558,-0.034338,0.013914,0.015926,0.79,0.54,9.61
539603568,-0.030077,-0.002066,0.013795,-0.42,0.06,9.45
539604578,-0.019424,0.000065,0.018057,0.14,0.47,9.50
539605589,-0.007706,0.004326,0.025514,0.80,0.45,9.96
539606603,-0.004511,-0.014849,0.023383,-0.20,0.29,9.97
539607615,-0.002380,-0.012718,0.019122,0.11,0.85,9.69
539608618,0.004012,0.000065,0.020187,0.65,0.19,10.39
539609628,-0.016229,-0.010588,0.013795,0.01,0.61,10.70
539610639,-0.030077,-0.012718,0.007404,0.01,0.78,9.92
539611648,-0.020490,0.002196,0.007404,0.51,-0.01,10.86
539612658,-0.036469,-0.004196,0.009534,0.15,0.82,10.97
539613668,-0.043926,-0.011653,0.010600,-0.18,0.31,9.91
539614678,-0.015163,0.001130,0.010600,0.47,-0.27,11.08
539615695,-0.029012,-0.002066,0.014861,0.28,0.55,10.78
539616705,-0.051383,-0.013784,0.020187,-0.35,-0.27,9.66
539617708,-0.013033,-0.005261,0.022318,0.36,-0.64,10.94
539618718,-0.004511,-0.010588,0.026579,0.27,0.04,10.47
539619728,-0.033273,-0.027632,0.028709,-0.49,-0.76,9.50
539620739,0.000816,-0.020175,0.024448,0.15,-1.07,10.80
539621748,0.032774,-0.015914,0.023383,0.21,-0.39,10.47
539622758,-0.004511,-0.026567,0.022318,-0.46,-1.04,9.52
539623768,-0.002380,-0.016980,0.014861,-0.06,-1.56,10.22
539624778,0.038101,-0.003131,0.007404,0.12,-0.74,9.94
539625795,0.007208,-0.005261,0.008469,-0.38,-0.82,9.73
539626805,-0.014098,0.000065,0.004208,-0.22,-1.77,10.03
539627808,0.029578,0.009652,-0.003249,0.03,-0.95,9.77
539628818,0.010403,0.005391,-0.000053,-0.35,-0.48,10.15
539629828,-0.031143,0.007522,0.006338,-0.27,-2.01,9.64
539630839,0.018926,0.012848,0.005273,0.20,-0.96,9.26
539631848,0.042362,0.010718,0.013795,-0.26,-0.02,9.86
539632858,-0.000249,0.017109,0.025514,-0.32,-1.98,8.92
539633868,0.027448,0.016044,0.021252,0.27,-0.73,8.83
539634878,0.058341,0.006457,0.020187,-0.33,0.22,9.52
539635895,0.009338,0.010718,0.027644,-0.12,-1.73,8.57
539636905,0.013599,0.010718,0.021252,0.54,-0.12,8.98
539637908,0.054080,0.002196,0.010600,-0.44,0.34,9.23
539638918,0.012534,0.013914,0.015926,-0.02,-1.24,8.45
539639928,-0.014098,0.018175,0.016991,0.69,0.40,9.35
539640939,0.014665,0.006457,0.009534,-0.36,0.36,9.21
539641948,-0.003445,0.019240,0.010600,0.17,-0.32,8.70
539642958,-0.030077,0.028828,0.010600,0.65,0.61,9.53
539643968,-0.014098,0.012848,0.003143,-0.37,0.16,9.30
539644978,-0.006641,0.013914,0.007404,0.23,0.35,9.19
539646013,-0.021555,0.019240,0.016991,0.68,0.64,9.93
539647029,-0.025816,0.000065,0.018057,-0.19,0.27,9.77
539648008,-0.010902,-0.001000,0.023383,0.20,0.76,9.66
539649018,0.000816,0.006457,0.030840,0.64,0.43,10.50
539650028,-0.003445,-0.013784,0.029775,0.02,0.46,10.50
539651039,-0.000249,-0.019110,0.025514,0.01,0.77,9.92
539652048,0.012534,-0.007392,0.026579,0.54,0.11,10.84
539653058,-0.015163,-0.018045,0.024448,0.14,0.59,10.94
539654068,-0.038600,-0.021241,0.019122,-0.24,0.32,9.89
539655078,-0.006641,-0.004196,0.015926,0.52,-0.33,10.92
539656095,-0.056709,-0.013784,0.011665,-0.47,-0.11,9.69
539657105,-0.021555,0.000065,0.006338,0.28,-0.81,10.86
539658108,-0.007706,0.001130,0.006338,0.29,0.16,10.81
539659137,-0.047122,-0.009523,0.012730,-0.54,-0.62,9.60
539660136,-0.017294,-0.006327,0.014861,0.19,-1.12,10.67
539661160,0.037035,-0.005261,0.018057,0.18,-0.23,10.62
539662148,0.009338,-0.013784,0.025514,-0.57,-0.96,9.61
539663169,-0.000249,-0.013784,0.026579,0.00,-1.48,10.40
539664170,0.058341,-0.010588,0.020187,0.10,-0.54,10.34
539665183,0.047688,-0.011653,0.023383,-0.42,-0.88,9.77
539666199,0.001881,-0.002066,0.023383,-0.19,-1.72,10.06
539667208,0.047688,0.005391,0.011665,0.01,-0.88,9.89
539668221,0.057276,0.005391,0.009534,-0.30,-0.63,9.86
539669234,-0.009837,0.016044,0.016991,-0.26,-1.89,9.52
539670246,0.001881,0.019240,0.008469,0.17,-0.85,9.37
539671252,0.031709,0.016044,0.003143,-0.26,-0.07,9.95
539672265,-0.018359,0.027762,0.012730,-0.37,-2.03,9.12
539673267,-0.030077,0.021371,0.012730,0.26,-0.77,9.00
539674286,0.000816,0.005391,0.009534,-0.26,0.24,9.56
539675278,-0.009837,0.016044,0.020187,-0.23,-1.80,8.61
539676305,-0.021555,0.011783,0.030840,0.37,-0.32,9.00
539677307,-0.004511,-0.012718,0.028709,-0.42,0.28,9.27
539678312,0.004012,-0.008457,0.029775,-0.08,-1.39,8.48
539679329,-0.000249,-0.008457,0.034036,0.67,0.22,9.20
539680339,-0.022620,-0.028698,0.032970,-0.36,0.35,9.02
539681360,-0.017294,-0.024437,0.028709,0.06,-0.54,8.61
539682357,0.007208,-0.010588,0.025514,0.70,0.54,9.48
539683366,-0.027947,-0.015914,0.020187,-0.39,0.19,9.33
539684380,-0.047122,-0.012718,0.014861,0.15,0.23,9.24
539685386,-0.000249,0.001130,0.009534,0.77,0.68,9.81
539686409,0.005077,-0.002066,0.013795,-0.21,0.27,9.70
539687422,-0.032208,-0.006327,0.019122,0.06,0.67,9.70
539688424,-0.002380,0.001130,0.020187,0.70,0.42,10.32
539689423,0.042362,0.002196,0.020187,0.09,0.46,10.33
539690434,0.004012,-0.001000,0.028709,-0.04,0.84,9.98
539691446,-0.003445,0.000065,0.028709,0.57,0.19,10.86
539692452,0.062602,-0.005261,0.022318,0.20,0.61,11.01
539693461,0.045558,-0.003131,0.026579,-0.31,0.42,9.95
539694472,-0.002380,0.007522,0.025514,0.51,-0.27,10.93
539695478,0.031709,0.005391,0.013795,0.42,0.68,11.17
539696499,0.029578,0.008587,0.013795,-0.45,-0.06,9.74
539697508,-0.025816,0.019240,0.019122,0.32,-0.81,10.79
539698510,-0.027947,0.008587,0.014861,0.37,0.30,10.92
539699517,-0.013033,0.007522,0.012730,-0.54,-0.60,9.48
539700528,-0.029012,0.018175,0.021252,0.15,-1.13,10.51
539701539,-0.046056,0.005391,0.022318,0.19,-0.17,10.57
539702548,-0.032208,-0.008457,0.022318,-0.60,-1.07,9.41
539703558,-0.004511,-0.002066,0.027644,0.00,-1.46,10.43
539704568,-0.017294,-0.007392,0.034036,0.17,-0.49,10.45
539705578,-0.037534,-0.020175,0.036166,-0.44,-0.92,9.65
539706595,0.000816,-0.018045,0.034036,-0.25,-1.67,10.06
539707605,0.027448,-0.018045,0.031905,0.04,-0.85,9.97
539708608,-0.008772,-0.030828,0.031905,-0.31,-0.65,9.88
539709618,-0.000249,-0.024437,0.028709,-0.28,-1.88,9.57
539710628,0.040231,-0.009523,0.021252,0.17,-0.86,9.33
539711639,0.004012,-0.012718,0.024448,-0.23,-0.12,9.90
539712648,-0.030077,-0.006327,0.024448,-0.30,-2.06,9.17
539713658,0.016795,0.006457,0.014861,0.29,-0.84,9.01
539714668,0.025317,0.006457,0.015926,-0.25,0.25,9.67
539715678,-0.024751,0.010718,0.022318,-0.24,-1.80,8.69
539716695,-0.002380,0.014979,0.021252,0.40,-0.37,8.93
539717705,0.045558,0.006457,0.026579,-0.40,0.35,9.26
539718708,0.008273,0.012848,0.037232,-0.10,-1.38,8.47
539719718,0.004012,0.010718,0.032970,0.64,0.18,9.19
539720728,0.049819,-0.003131,0.025514,-0.38,0.40,9.05
539721739,0.029578,0.003261,0.031905,0.05,-0.60,8.61
539722748,-0.001315,0.005391,0.034036,0.70,0.52,9.39
539723758,0.019991,-0.007392,0.023383,-0.37,0.27,9.17
539724768,0.019991,0.001130,0.020187,0.21,0.32,9.21
539725783,-0.016229,0.007522,0.024448,0.81,0.73,9.89
539726796,-0.040730,-0.009523,0.021252,-0.27,0.22,9.82
539727798,-0.029012,-0.009523,0.020187,0.06,0.73,9.86
539728808,-0.013033,0.002196,0.024448,0.73,0.51,10.45
539729818,-0.038600,-0.011653,0.026579,0.03,0.38,10.41
539730828,-0.051383,-0.018045,0.027644,-0.06,0.84,9.97
539731839,-0.001315,-0.008457,0.030840,0.60,0.20,10.68
539732848,0.009338,-0.013784,0.036166,0.23,0.55,10.80
539733858,-0.018359,-0.023371,0.041493,-0.30,0.45,9.95
539734868,0.019991,-0.013784,0.038297,0.50,-0.23,11.00
539735883,0.070059,-0.011653,0.035101,0.44,0.63,11.14
539736896,0.026383,-0.011653,0.037232,-0.47,-0.09,9.65
539737898,0.006142,-0.001000,0.032970,0.32,-0.72,10.72
539738908,0.065798,0.003261,0.023383,0.41,0.35,10.91
539739918,0.044492,0.010718,0.025514,-0.50,-0.61,9.47
539740928,-0.021555,0.023501,0.026579,0.21,-1.11,10.65
539741939,0.005077,0.017109,0.012730,0.22,-0.10,10.74
539742948,0.025317,0.014979,0.012730,-0.61,-1.06,9.34
539743958,-0.027947,0.021371,0.025514,-0.06,-1.48,10.33
539744968,-0.043926,0.007522,0.026579,0.13,-0.46,10.50
539745983,-0.018359,-0.001000,0.025514,-0.40,-0.92,9.71
539746996,-0.007706,0.003261,0.037232,-0.18,-1.72,10.02
539747998,-0.021555,-0.009523,0.043623,0.04,-0.80,9.94
539749015,-0.032208,-0.027632,0.039362,-0.33,-0.64,9.90
539750015,0.001881,-0.023371,0.035101,-0.27,-1.95,9.61
539751025,0.018926,-0.018045,0.035101,0.20,-0.87,9.31
539752036,-0.022620,-0.024437,0.035101,-0.20,-0.02,9.87
539753045,-0.013033,-0.018045,0.026579,-0.27,-1.96,9.19
539754055,0.044492,-0.002066,0.014861,0.32,-0.83,8.88
539755065,0.022121,0.000065,0.015926,-0.24,0.28,9.47
539756081,0.013599,0.014979,0.010600,0.46,-0.38,8.94
539757093,0.043427,0.016044,0.011665,-0.37,0.36,9.23
539758095,-0.015163,0.022436,0.022318,-0.06,-1.24,8.53
539759116,-0.023686,0.021371,0.022318,0.71,0.21,9.22
539760118,0.032774,0.009652,0.019122,-0.31,0.35,9.05
539761128,0.010403,0.016044,0.027644,0.12,-0.41,8.65
539762139,-0.023686,0.010718,0.032970,0.80,0.61,9.40
539763148,0.004012,-0.012718,0.027644,-0.35,0.16,9.21
539764158,0.017860,-0.011653,0.025514,0.16,0.33,9.25
539765168,-0.001315,-0.008457,0.028709,0.89,0.74,9.92
539766183,-0.024751,-0.023371,0.021252,-0.12,0.27,9.85
539767196,-0.021555,-0.019110,0.013795,0.07,0.77,9.82
539768198,-0.000249,-0.001000,0.014861,0.73,0.47,10.41
539769213,-0.027947,-0.005261,0.018057,0.08,0.45,10.47
539770215,-0.057775,-0.008457,0.015926,-0.10,0.87,10.05
539771225,-0.006641,0.006457,0.011665,0.56,0.16,10.79
539772236,0.013599,0.006457,0.014861,0.24,0.57,10.86
539773245,-0.033273,0.001130,0.022318,-0.32,0.41,9.88
539774255,-0.011968,0.006457,0.021252,0.49,-0.29,10.93
539775265,0.057276,0.003261,0.014861,0.47,0.66,11.13
539776281,0.028513,0.001130,0.020187,-0.43,-0.08,9.67
539777297,-0.009837,0.003261,0.019122,0.30,-0.76,10.79
539778302,0.042362,0.000065,0.008469,0.34,0.25,11.01
539779323,0.047688,0.004326,0.008469,-0.53,-0.67,9.44
539780324,-0.019424,0.012848,0.013795,0.14,-1.15,10.54
539781331,-0.017294,0.004326,0.004208,0.22,-0.17,10.80
539782345,0.008273,0.003261,-0.002184,-0.49,-1.07,9.46
539783358,-0.021555,0.017109,0.007404,-0.04,-1.58,10.20
539784370,-0.044991,0.009652,0.011665,0.12,-0.54,10.46
539785375,-0.036469,0.000065,0.010600,-0.35,-0.95,9.70
539786390,-0.008772,0.008587,0.016991,-0.19,-1.79,9.90
539787402,-0.013033,0.006457,0.023383,0.07,-0.89,9.89
539788419,-0.043926,-0.016980,0.024448,-0.26,-0.63,9.87
539789419,-0.005576,-0.018045,0.021252,-0.28,-1.92,9.55
539790419,0.039166,-0.010588,0.023383,0.19,-0.94,9.34
539791428,0.004012,-0.016980,0.029775,-0.13,-0.09,9.60
539792443,-0.020490,-0.013784,0.027644,-0.24,-1.71,8.58
539793450,0.025317,0.004326,0.021252,0.14,-0.53,9.47
539794464,0.030644,0.004326,0.019122,-0.11,0.03,9.78
539795468,-0.023686,-0.002066,0.021252,-0.12,-1.28,8.58
539796485,-0.018359,-0.002066,0.014861,0.20,-0.08,9.29
539797498,0.027448,-0.002066,0.010600,0.07,-0.01,8.87
539798499,-0.004511,0.010718,0.018057,0.07,-0.49,8.57
539799518,-0.048187,0.020305,0.022318,0.12,0.01,9.18
539800517,-0.017294,0.011783,0.019122,0.13,0.16,9.16
539801528,0.029578,0.007522,0.022318,0.25,0.18,8.92
539802539,0.006142,0.008587,0.028709,0.17,0.20,9.17
539803548,-0.023686,-0.007392,0.029775,0.25,0.29,9.25
539804558,0.010403,-0.014849,0.023383,0.28,0.35,9.58
539805568,0.053015,-0.004196,0.023383,0.22,0.39,9.93
539806583,0.017860,-0.002066,0.027644,0.28,0.52,10.12
539807596,-0.031143,-0.015914,0.023383,0.39,0.65,10.20
539808598,0.000816,-0.015914,0.011665,0.29,0.42,10.39
539809613,0.047688,-0.005261,0.005273,0.10,0.45,10.51
539810615,-0.000249,0.002196,0.011665,0.22,0.53,10.43
539811625,-0.057775,0.009652,0.010600,0.31,0.23,10.62
539812636,-0.020490,0.010718,-0.002184,0.04,0.30,10.64
539813645,0.016795,0.005391,-0.003249,0.02,0.34,10.58
539814655,-0.025816,0.004326,0.005273,0.31,-0.11,10.72
539815665,-0.063101,-0.001000,0.009534,0.11,-0.01,10.47
539816681,-0.025816,-0.007392,0.007404,-0.10,-0.21,10.34
539817693,0.037035,0.007522,0.007404,0.11,-0.59,10.42
539818706,0.027448,0.017109,0.014861,-0.12,-0.47,10.35
539819708,-0.024751,-0.003131,0.020187,-0.24,-0.64,10.51
539820718,-0.018359,-0.027632,0.014861,0.01,-0.92,9.97
539821728,0.044492,-0.022306,0.010600,-0.13,-1.05,9.78
539822739,0.035970,0.008587,0.009534,-0.17,-0.99,10.19
539823748,-0.023686,0.013914,0.007404,-0.18,-1.08,10.02
539824758,-0.022620,-0.004196,0.002077,-0.27,-1.29,9.62
539825773,0.022121,-0.001000,0.001012,-0.24,-1.10,10.07
539826785,0.005077,0.014979,0.007404,-0.06,-0.94,9.93
539827789,-0.048187,0.008587,0.009534,-0.09,-1.18,9.47
539828803,-0.039665,0.000065,0.005273,-0.22,-1.17,9.50
539829805,0.027448,0.006457,0.006338,-0.03,-0.75,9.60
539830815,0.034905,0.007522,0.015926,-0.03,-0.87,9.51
539831825,-0.024751,-0.005261,0.024448,-0.11,-1.15,9.05
539832836,-0.021555,-0.016980,0.021252,0.02,-0.58,9.01
539833845,0.046623,-0.018045,0.015926,-0.02,-0.39,9.17
539834855,0.050884,-0.001000,0.015926,0.07,-0.64,9.01
539835871,-0.005576,0.010718,0.012730,0.08,-0.45,8.93
539836882,-0.019424,0.000065,0.004208,-0.01,-0.13,9.13
539837886,0.016795,-0.006327,-0.000053,0.15,-0.11,8.94
539838906,0.006142,0.002196,0.005273,0.03,-0.18,8.92
539839908,-0.046056,0.004326,0.009534,0.15,0.15,9.09
539840918,-0.044991,0.001130,0.005273,0.41,0.35,9.12
539841928,0.019991,0.013914,0.003143,0.16,0.32,9.42
539842939,0.039166,0.020305,0.009534,0.04,0.37,9.59
539843948,-0.022620,0.010718,0.022318,0.20,0.34,9.75
539844958,-0.043926,-0.011653,0.024448,0.30,0.60,9.80
539845973,0.019991,-0.020175,0.022318,0.35,0.84,10.14
539846985,0.038101,-0.013784,0.025514,0.16,0.38,10.65
539847989,-0.014098,-0.016980,0.025514,0.10,0.58,10.44
539849003,-0.017294,-0.022306,0.015926,0.28,0.61,10.35
539850005,0.043427,-0.007392,0.003143,0.27,0.21,10.94
539851015,0.045558,0.009652,-0.001119,0.09,0.52,10.63
539852025,-0.035404,0.007522,0.003143,0.04,0.30,10.48
539853036,-0.066297,0.003261,-0.001119,0.15,-0.03,10.46
539854045,-0.003445,0.005391,-0.005380,0.16,0.00,10.65
539855055,0.011469,0.013914,0.001012,-0.03,-0.09,10.60
539856071,-0.039665,-0.002066,0.012730,0.10,-0.54,10.60
539857082,0.027448,0.001130,0.011665,-0.14,-0.60,10.19
539858086,0.039166,-0.001000,0.021252,-0.20,-1.02,9.83
539859106,-0.024751,-0.006327,0.027644,-0.11,-0.83,10.44
539860108,-0.026881,-0.016980,0.021252,-0.17,-1.01,10.09
539861118,0.034905,-0.021241,0.014861,-0.24,-1.23,9.70
539862128,0.031709,-0.009523,0.016991,-0.16,-1.11,10.17
539863139,-0.025816,-0.004196,0.014861,-0.02,-1.05,9.91
539864152,-0.029012,-0.011653,0.005273,-0.24,-1.17,9.56
539865174,0.019991,0.002196,-0.003249,-0.29,-1.32,9.59
539866186,0.017860,0.019240,-0.001119,0.04,-1.00,9.57
539867207,-0.032208,0.014979,0.004208,-0.08,-0.86,9.60
539868189,-0.032208,0.004326,0.005273,-0.23,-1.19,9.23
539869203,0.027448,0.010718,0.006338,-0.02,-0.73,9.39
539870205,0.038101,0.009652,0.015926,-0.07,-0.49,9.57
539871215,-0.017294,-0.003131,0.025514,-0.09,-1.10,8.88
539872225,-0.018359,-0.013784,0.023383,0.10,-0.49,8.87
539873236,0.043427,-0.016980,0.021252,-0.02,-0.15,9.04
539874245,0.038101,-0.007392,0.024448,0.06,-0.49,8.93
539875255,-0.011968,-0.001000,0.022318,0.15,-0.26,8.89
539876271,-0.006641,-0.008457,0.010600,0.06,0.09,9.12
539877296,0.038101,-0.008457,0.003143,0.25,0.15,9.09
539878294,0.016795,0.003261,0.005273,0.05,0.02,9.08
539879333,-0.041795,0.001130,0.007404,0.12,0.28,9.26
539880310,-0.030077,0.003261,0.002077,0.44,0.48,9.38
539881334,0.026383,0.023501,-0.001119,0.16,0.37,9.78
539882336,0.014665,0.028828,0.007404,0.07,0.51,10.04
539883350,-0.042861,0.011783,0.015926,0.36,0.62,10.10
539884369,-0.024751,0.000065,0.016991,0.31,0.40,10.18
539885373,0.048753,0.003261,0.015926,0.09,0.70,10.47
539886380,0.033840,0.000065,0.025514,0.24,0.75,10.42
539887393,-0.024751,-0.008457,0.028709,0.33,0.29,10.60
539888394,0.002946,-0.019110,0.020187,0.11,0.42,10.55
539889420,0.049819,-0.014849,0.016991,0.08,0.42,10.57
539890416,0.022121,0.004326,0.016991,0.28,0.15,10.63
539891425,-0.021555,0.006457,0.011665,0.05,0.12,10.60
539892439,0.000816,-0.004196,0.003143,-0.02,-0.11,10.59
539893463,0.022121,0.007522,0.002077,0.22,-0.25,10.61
539894475,-0.020490,0.012848,0.006338,-0.02,-0.40,10.08
539895474,-0.039665,0.003261,0.006338,-0.20,-0.70,9.98
539896471,0.016795,0.011783,0.003143,-0.02,-0.71,10.79
539897487,0.043427,0.022436,0.008469,-0.01,-0.91,10.17
539898491,-0.006641,0.008587,0.014861,-0.22,-1.16,9.77
539899509,-0.023686,-0.009523,0.013795,-0.15,-1.05,10.23
539900510,0.033840,-0.008457,0.009534,-0.09,-1.01,10.02
539901517,0.039166,-0.006327,0.016991,-0.25,-1.24,9.66
539902528,-0.025816,-0.009523,0.020187,-0.21,-1.35,9.94
539903539,-0.023686,-0.011653,0.012730,-0.04,-1.01,9.90
539904548,0.021056,-0.013784,0.006338,-0.21,-1.01,9.69
539905558,-0.015163,-0.008457,0.010600,-0.22,-1.44,9.37
539906573,-0.063101,-0.002066,0.010600,0.07,-0.86,9.53
539907585,-0.035404,-0.004196,0.005273,-0.08,-0.64,9.64
539908589,0.000816,0.009652,0.007404,-0.18,-1.34,8.93
539909598,-0.020490,0.022436,0.014861,0.09,-0.56,9.15
539910627,-0.042861,0.009652,0.016991,-0.05,-0.24,9.38
539911633,0.006142,0.002196,0.012730,-0.05,-1.04,8.76
539912638,0.047688,0.012848,0.016991,0.10,-0.33,8.97
539913653,0.018926,0.005391,0.025514,-0.05,0.00,9.13
539914668,0.006142,-0.011653,0.028709,0.17,-0.43,8.78
539915680,0.054080,-0.007392,0.024448,0.22,0.05,9.01
539916680,0.065798,-0.002066,0.023383,0.02,0.22,9.18
539917681,0.006142,-0.011653,0.020187,0.30,0.11,9.13
539918691,0.002946,-0.010588,0.010600,0.21,0.12,9.30
539919701,0.047688,-0.003131,0.005273,0.05,0.47,9.60
539920725,0.006142,0.000065,0.013795,0.40,0.65,9.57
539921724,-0.042861,0.003261,0.013795,0.28,0.28,9.83
539922743,-0.005576,0.004326,0.007404,0.13,0.52,10.12
539923747,0.002946,0.013914,0.010600,0.26,0.48,10.31
539924764,-0.035404,0.013914,0.015926,0.37,0.75,10.25
539925770,-0.022620,0.000065,0.018057,0.24,0.52,10.54
539926801,0.010403,-0.002066,0.020187,0.08,0.51,10.77
539927791,-0.009837,-0.005261,0.030840,0.26,0.45,10.53
539928797,-0.014098,-0.012718,0.030840,0.18,0.27,10.58
539929819,0.026383,-0.009523,0.026579,0.14,0.28,10.63
539930816,0.025317,-0.002066,0.027644,0.12,0.02,10.47
539931830,-0.013033,-0.011653,0.025514,0.07,0.05,10.43
539932850,-0.000249,-0.016980,0.020187,0.11,-0.22,10.50
539933856,0.011469,-0.001000,0.016991,-0.05,-0.31,10.19
539934866,-0.023686,-0.003131,0.019122,0.02,-0.57,10.44
539935867,-0.025816,-0.008457,0.012730,0.00,-0.69,10.26
539936880,0.011469,0.006457,0.012730,-0.15,-0.91,10.01
539937896,-0.002380,0.023501,0.014861,-0.11,-0.84,10.20
