time_us,gyro_x_rad_s,gyro_y_rad_s,gyro_z_rad_s,acc_x_m_s2,acc_y_m_s2,acc_z_m_s2
75175802,-0.000478,0.001560,-0.000636,0.00,-0.27,9.84
75176548,-0.001544,0.003691,-0.000636,-0.02,-0.25,9.81
75177494,-0.001544,0.003691,-0.000636,-0.02,-0.25,9.81
75178504,0.000587,-0.001636,0.000429,0.02,-0.22,9.83
75179514,0.001652,-0.001636,0.001494,0.01,-0.23,9.86
75180524,0.000587,0.000495,0.000429,-0.02,-0.23,9.84
75181534,-0.000478,0.001560,0.000429,-0.01,-0.23,9.82
75182566,-0.001544,0.000495,0.000429,0.00,-0.27,9.80
75183555,-0.002609,0.001560,0.000429,0.03,-0.27,9.78
75184564,-0.001544,0.001560,-0.000636,0.03,-0.27,9.81
75185574,0.000587,0.001560,-0.001701,0.00,-0.26,9.83
75186584,0.002718,-0.000571,-0.001701,-0.02,-0.26,9.83
75187598,0.003783,0.000495,0.000429,-0.03,-0.25,9.80
75188604,0.002718,0.002625,0.000429,0.00,-0.25,9.78
75189614,-0.000478,0.002625,-0.000636,0.00,-0.24,9.77
75190624,-0.000478,0.001560,0.000429,-0.01,-0.23,9.79
75191634,0.000587,0.001560,0.001494,0.00,-0.24,9.85
75192664,-0.000478,-0.000571,0.001494,0.00,-0.28,9.85
75193655,-0.000478,-0.000571,0.001494,0.01,-0.28,9.82
75194664,0.000587,0.000495,0.000429,0.02,-0.27,9.84
75195679,0.000587,0.000495,-0.001701,0.02,-0.26,9.82
75196684,-0.000478,-0.001636,-0.000636,0.00,-0.25,9.80
75197704,-0.000478,-0.002701,-0.001701,-0.02,-0.27,9.84
75198712,-0.000478,-0.001636,-0.002767,-0.02,-0.26,9.86
75199722,0.001652,-0.000571,-0.002767,0.01,-0.24,9.85
75200734,0.000587,-0.001636,-0.001701,0.03,-0.25,9.87
75201740,0.000587,-0.003766,-0.000636,0.00,-0.26,9.87
75202773,0.000587,-0.002701,0.001494,-0.01,-0.23,9.86
75203775,0.000587,0.000495,0.002560,0.00,-0.24,9.83
75204775,-0.001544,0.001560,0.002560,0.01,-0.24,9.78
75205788,-0.001544,-0.000571,0.001494,0.01,-0.21,9.79
75206795,0.000587,0.000495,0.000429,-0.01,-0.25,9.82
75207814,0.002718,0.000495,-0.000636,0.01,-0.27,9.81
75208817,0.001652,-0.000571,0.000429,0.01,-0.24,9.79
75209823,0.001652,-0.001636,0.000429,-0.03,-0.25,9.79
75210832,0.000587,0.000495,0.000429,-0.03,-0.26,9.82
75211848,0.001652,-0.001636,-0.000636,-0.02,-0.24,9.84
75212871,0.001652,-0.002701,-0.000636,-0.01,-0.25,9.83
75213869,0.000587,-0.001636,0.000429,0.01,-0.28,9.82
75214867,-0.001544,-0.001636,0.002560,0.00,-0.26,9.85
75215878,-0.002609,-0.001636,0.003625,-0.02,-0.22,9.87
75216884,-0.002609,-0.001636,0.002560,0.03,-0.25,9.84
75217903,-0.002609,-0.001636,0.002560,0.03,-0.26,9.75
75218908,-0.001544,-0.002701,0.001494,-0.03,-0.23,9.75
75219917,0.000587,-0.002701,-0.000636,-0.02,-0.24,9.82
75220926,0.000587,-0.001636,-0.001701,0.00,-0.24,9.79
75221934,0.000587,-0.000571,-0.000636,-0.04,-0.24,9.79
75222965,-0.000478,0.001560,-0.000636,-0.01,-0.26,9.83
75223955,-0.000478,0.005821,-0.001701,0.01,-0.24,9.85
75224964,0.000587,0.006886,-0.001701,0.02,-0.23,9.82
75225974,0.000587,0.004756,-0.000636,0.01,-0.24,9.83
75226984,0.000587,0.000495,-0.002767,-0.01,-0.26,9.84
75227998,0.000587,-0.001636,-0.002767,0.03,-0.25,9.84
75229004,0.000587,-0.001636,-0.000636,0.00,-0.22,9.85
75230014,0.001652,-0.002701,0.002560,-0.03,-0.24,9.85
75231024,-0.000478,-0.003766,0.000429,-0.02,-0.24,9.85
75232034,-0.000478,-0.002701,-0.001701,-0.01,-0.22,9.82
75233064,-0.000478,-0.000571,-0.000636,-0.02,-0.27,9.82
75234055,0.001652,-0.001636,-0.000636,0.01,-0.29,9.82
75235064,0.000587,-0.001636,-0.000636,0.04,-0.25,9.79
75236074,-0.000478,-0.000571,-0.000636,0.03,-0.24,9.80
75237084,0.000587,0.000495,-0.000636,0.00,-0.23,9.81
75238101,0.001652,0.001560,-0.000636,0.00,-0.25,9.80
75239104,0.001652,0.002625,0.001494,0.02,-0.30,9.80
75240114,0.000587,0.001560,0.004690,0.00,-0.31,9.84
75241124,-0.000478,0.000495,0.004690,0.01,-0.30,9.81
75242134,0.000587,0.000495,0.000429,0.00,-0.26,9.83
75243165,0.001652,0.000495,-0.001701,0.02,-0.25,9.85
75244155,0.001652,0.000495,-0.001701,0.00,-0.24,9.82
75245164,0.000587,-0.000571,0.000429,-0.02,-0.21,9.86
75246174,-0.000478,-0.002701,0.001494,0.01,-0.23,9.86
75247184,-0.001544,-0.000571,0.001494,0.00,-0.27,9.81
75248198,-0.001544,0.000495,0.000429,-0.02,-0.26,9.82
75249204,-0.000478,0.000495,-0.001701,0.01,-0.23,9.79
75250214,-0.000478,0.000495,-0.002767,0.02,-0.23,9.73
75251224,-0.001544,0.001560,-0.002767,-0.02,-0.20,9.79
75252234,-0.001544,0.002625,-0.001701,-0.04,-0.24,9.85
75253264,0.000587,0.002625,-0.001701,-0.03,-0.26,9.82
75254255,0.000587,-0.000571,-0.001701,-0.01,-0.24,9.82
75255264,0.000587,-0.004832,-0.001701,0.00,-0.23,9.84
75256274,0.000587,-0.004832,-0.002767,-0.02,-0.22,9.86
75257284,-0.001544,-0.002701,-0.000636,-0.04,-0.23,9.82
75258301,-0.001544,-0.000571,0.000429,-0.04,-0.24,9.78
75259304,-0.002609,0.000495,0.001494,-0.01,-0.23,9.83
75260314,-0.001544,0.000495,0.001494,0.01,-0.22,9.83
75261324,0.001652,0.000495,0.000429,0.01,-0.25,9.81
75262334,0.003783,0.000495,0.001494,0.00,-0.27,9.85
75263365,0.003783,0.001560,-0.000636,0.01,-0.26,9.83
75264355,0.000587,0.001560,-0.001701,0.02,-0.27,9.79
75265364,-0.002609,0.001560,-0.001701,-0.01,-0.26,9.82
75266374,-0.002609,0.002625,0.000429,-0.02,-0.24,9.83
75267384,-0.000478,0.002625,0.002560,-0.01,-0.25,9.82
75268398,-0.000478,0.001560,0.002560,0.00,-0.24,9.82
75269404,-0.001544,0.000495,0.001494,0.02,-0.23,9.82
75270414,-0.001544,-0.001636,0.000429,0.01,-0.24,9.82
75271424,0.000587,-0.000571,-0.001701,0.00,-0.24,9.81
75272454,0.003783,-0.000571,-0.001701,0.01,-0.24,9.82
75273450,0.003783,-0.000571,-0.000636,-0.01,-0.25,9.79
75274454,0.000587,0.001560,0.000429,0.00,-0.27,9.76
75275464,-0.001544,0.002625,0.000429,0.03,-0.28,9.80
75276474,0.000587,0.002625,0.001494,0.01,-0.27,9.83
75277484,0.002718,0.001560,0.002560,0.01,-0.22,9.79
75278502,0.002718,0.000495,0.001494,0.01,-0.21,9.80
75279504,-0.000478,-0.001636,0.002560,0.01,-0.24,9.80
75280514,-0.000478,-0.001636,0.002560,-0.03,-0.22,9.77
75281524,-0.000478,-0.000571,0.003625,-0.02,-0.25,9.81
75282555,-0.000478,0.000495,0.003625,0.02,-0.28,9.85
75283551,0.001652,-0.000571,0.003625,0.00,-0.28,9.81
75284554,0.000587,-0.000571,-0.000636,-0.04,-0.25,9.78
75285564,-0.000478,-0.000571,-0.003832,-0.06,-0.28,9.78
75286574,0.001652,0.000495,-0.002767,-0.04,-0.29,9.80
75287584,0.000587,0.000495,-0.000636,-0.01,-0.25,9.79
75288598,-0.000478,-0.000571,-0.000636,0.02,-0.26,9.78
75289604,0.000587,-0.001636,-0.000636,0.01,-0.27,9.81
75290614,0.000587,-0.002701,0.000429,0.02,-0.24,9.86
75291624,0.001652,-0.001636,0.002560,0.02,-0.24,9.90
75292653,0.000587,-0.000571,0.003625,0.01,-0.27,9.88
75293651,0.000587,-0.000571,0.000429,0.02,-0.27,9.78
75294654,-0.000478,-0.001636,-0.002767,0.00,-0.24,9.74
75295741,-0.001573,-0.000556,-0.002779,-0.03,-0.24,9.77
75296680,-0.001573,0.000509,-0.002779,0.01,-0.25,9.77
75297684,-0.001573,0.002640,-0.000649,0.04,-0.27,9.79
75298705,-0.000508,0.003705,0.000416,0.01,-0.25,9.78
75299710,0.001623,0.002640,0.000416,0.00,-0.23,9.80
75300723,0.001623,0.001575,0.000416,-0.04,-0.26,9.87
75301732,0.002688,0.000509,0.000416,-0.02,-0.26,9.87
75302771,0.002688,0.000509,-0.000649,0.01,-0.26,9.85
75303755,0.000557,0.001575,-0.000649,0.01,-0.25,9.84
75304772,0.000557,0.000509,0.000416,0.00,-0.25,9.81
75305775,0.002688,0.001575,0.000416,0.01,-0.27,9.83
75306786,0.002688,0.002640,-0.000649,0.02,-0.26,9.84
75307807,0.000557,0.003705,0.001482,0.00,-0.24,9.81
75308806,-0.000508,0.004770,0.000416,-0.01,-0.25,9.81
75309818,-0.001573,0.004770,0.000416,0.00,-0.25,9.82
75310822,-0.001573,0.002640,0.003612,-0.02,-0.24,9.79
75311833,-0.001573,0.001575,0.001482,-0.03,-0.24,9.78
75312866,-0.001573,0.003705,-0.001714,-0.03,-0.24,9.82
75313860,0.000557,0.003705,-0.002779,-0.01,-0.23,9.82
75314859,-0.000508,0.000509,-0.001714,0.03,-0.22,9.78
75315867,-0.000508,0.000509,-0.000649,0.04,-0.21,9.76
75316878,-0.000508,0.001575,0.000416,0.04,-0.22,9.76
75317884,0.000557,0.000509,0.000416,0.01,-0.23,9.75
75318905,0.001623,0.000509,0.001482,-0.01,-0.25,9.78
75319908,0.000557,0.000509,0.003612,-0.02,-0.28,9.82
75320917,-0.000508,0.000509,0.001482,-0.02,-0.26,9.78
75321926,0.001623,-0.001621,-0.000649,0.00,-0.24,9.80
75322955,0.002688,-0.001621,-0.000649,0.00,-0.24,9.78
75323951,0.003753,0.001575,-0.000649,-0.03,-0.22,9.77
75324954,0.003753,0.002640,-0.001714,-0.04,-0.20,9.80
75325964,0.001623,0.000509,-0.001714,-0.05,-0.22,9.80
75326974,-0.002638,-0.001621,0.000416,-0.03,-0.27,9.79
75327984,-0.002638,-0.001621,0.003612,-0.01,-0.23,9.81
75328998,-0.001573,-0.000556,0.002547,0.02,-0.21,9.80
75330004,-0.001573,0.001575,-0.000649,0.03,-0.24,9.77
75331014,-0.003704,0.002640,-0.001714,0.01,-0.25,9.78
75332024,-0.002638,0.003705,0.000416,-0.02,-0.24,9.82
75333053,-0.001573,0.004770,0.002547,-0.03,-0.26,9.82
75334051,-0.000508,0.002640,0.004678,-0.02,-0.28,9.85
75335054,-0.001573,0.000509,0.003612,0.00,-0.28,9.80
75336064,-0.003704,-0.001621,0.000416,0.01,-0.28,9.78
75337074,-0.001573,-0.000556,-0.000649,0.00,-0.25,9.85
75338084,0.001623,0.002640,0.000416,-0.02,-0.23,9.84
75339101,0.003753,0.004770,-0.000649,-0.02,-0.24,9.82
75340104,0.004819,0.002640,-0.001714,-0.02,-0.24,9.81
75341114,0.004819,0.001575,0.000416,-0.02,-0.23,9.81
75342124,0.001623,0.000509,0.002547,0.00,-0.25,9.82
75343156,-0.000508,0.000509,0.001482,0.01,-0.27,9.79
75344150,-0.000508,0.000509,0.000416,0.00,-0.28,9.76
75345154,0.000557,0.001575,0.000416,0.00,-0.25,9.82
75346164,0.000557,0.003705,0.000416,0.00,-0.23,9.83
75347174,-0.000508,0.003705,-0.000649,0.02,-0.22,9.75
75348184,0.001623,0.003705,-0.000649,0.02,-0.23,9.76
75349198,0.003753,0.003705,-0.000649,-0.01,-0.24,9.79
75350204,0.003753,0.003705,-0.000649,0.00,-0.25,9.75
75351214,0.002688,0.002640,0.001482,0.00,-0.24,9.77
75352224,0.001623,0.002640,0.002547,0.01,-0.27,9.82
75353254,-0.000508,0.003705,0.000416,0.01,-0.27,9.85
75354250,-0.001573,0.004770,-0.000649,-0.01,-0.23,9.82
75355254,0.000557,0.003705,-0.001714,0.00,-0.22,9.80
75356264,0.000557,0.001575,-0.000649,-0.01,-0.24,9.82
75357274,-0.000508,0.000509,0.000416,-0.03,-0.23,9.81
75358284,-0.001573,0.001575,0.001482,-0.04,-0.21,9.78
75359302,-0.001573,0.002640,-0.000649,-0.04,-0.25,9.76
75360304,-0.001573,0.001575,0.000416,0.00,-0.27,9.78
75361314,-0.000508,-0.000556,0.001482,0.04,-0.26,9.82
75362324,0.001623,-0.000556,0.001482,0.03,-0.27,9.85
75363355,-0.000508,0.002640,-0.000649,0.01,-0.25,9.89
75364351,-0.002638,0.003705,-0.001714,0.01,-0.22,9.83
75365354,-0.001573,0.001575,-0.001714,0.00,-0.23,9.78
75366364,-0.000508,-0.000556,-0.001714,-0.03,-0.25,9.82
75367374,0.000557,-0.001621,-0.002779,-0.01,-0.24,9.87
75368384,0.002688,-0.002687,-0.003845,0.01,-0.25,9.85
75369398,0.002688,-0.000556,-0.003845,0.01,-0.24,9.81
75370404,0.003753,0.000509,-0.002779,0.03,-0.23,9.81
75371414,0.002688,0.000509,-0.001714,-0.02,-0.23,9.82
75372443,0.002688,0.000509,0.000416,-0.03,-0.25,9.80
75373435,0.002688,0.001575,0.002547,0.01,-0.26,9.79
75374450,0.000557,0.000509,0.001482,0.00,-0.26,9.83
75375454,-0.002638,0.000509,0.002547,0.01,-0.26,9.84
75376464,-0.002638,0.001575,0.001482,0.01,-0.25,9.82
75377474,-0.002638,0.002640,-0.000649,-0.01,-0.27,9.83
75378484,-0.001573,0.002640,-0.000649,-0.01,-0.28,9.82
75379501,0.001623,0.000509,-0.000649,-0.04,-0.28,9.82
75380504,0.001623,-0.001621,-0.001714,-0.05,-0.30,9.83
75381514,0.000557,-0.001621,-0.002779,-0.01,-0.24,9.78
75382546,0.000557,-0.002687,-0.000649,-0.03,-0.26,9.78
75383535,0.001623,-0.001621,0.001482,-0.02,-0.23,9.80
75384548,0.000557,0.001575,0.002547,0.01,-0.22,9.83
75385554,0.000557,0.003705,0.002547,0.03,-0.23,9.80
75386564,0.001623,0.002640,0.001482,0.03,-0.25,9.79
75387574,0.003753,0.002640,-0.000649,0.02,-0.27,9.85
75388584,0.002688,0.001575,-0.001714,0.01,-0.24,9.81
75389598,0.000557,0.000509,-0.001714,-0.01,-0.23,9.75
75390604,0.001623,-0.000556,0.000416,-0.03,-0.24,9.76
75391623,0.003753,-0.002687,0.002547,-0.01,-0.25,9.81
75392644,0.003753,-0.002687,0.003612,-0.02,-0.27,9.85
75393635,0.002688,-0.000556,0.002547,-0.01,-0.26,9.81
75394648,-0.000508,0.002640,0.000416,0.01,-0.24,9.82
75395654,-0.002638,0.003705,0.001482,0.01,-0.24,9.84
75396664,-0.004769,0.002640,0.001482,-0.01,-0.26,9.83
75397679,-0.003704,0.001575,0.001482,-0.02,-0.26,9.85
75398694,0.000557,0.000509,0.000416,0.01,-0.25,9.85
75399715,0.003753,-0.001621,-0.001714,-0.02,-0.27,9.85
75400713,0.004819,-0.002687,-0.002779,-0.04,-0.26,9.79
75401722,0.002688,-0.002687,-0.001714,0.00,-0.25,9.81
75402755,0.000557,-0.000556,-0.000649,0.01,-0.24,9.89
75403744,0.002688,0.001575,-0.000649,-0.02,-0.24,9.86
75404759,0.002688,0.000509,-0.001714,-0.03,-0.22,9.84
75405773,0.000557,0.001575,-0.000649,-0.02,-0.21,9.84
75406773,-0.000508,0.003705,0.001482,0.00,-0.22,9.77
75407792,-0.000508,0.002640,0.000416,0.00,-0.23,9.74
75408794,-0.000508,0.000509,0.000416,-0.02,-0.25,9.78
75409805,-0.000508,-0.000556,0.001482,-0.03,-0.26,9.80
75410817,-0.001573,-0.000556,0.001482,-0.07,-0.23,9.80
75411823,-0.002638,-0.002687,-0.001714,-0.04,-0.26,9.78
75412852,-0.002638,-0.001621,-0.001714,0.01,-0.26,9.80
75413850,-0.002638,-0.000556,0.000416,0.00,-0.23,9.84
75414856,-0.002638,-0.000556,0.001482,0.00,-0.23,9.80
75415860,-0.001573,-0.001621,0.001482,-0.03,-0.22,9.78
75416867,-0.003704,-0.000556,0.000416,-0.06,-0.23,9.80
75417878,-0.003704,0.000509,-0.000649,-0.04,-0.23,9.83
75418884,-0.002638,0.000509,-0.000649,-0.02,-0.23,9.86
75419903,-0.000508,0.001575,0.001482,0.01,-0.26,9.85
75420908,-0.000508,0.001575,0.001482,0.01,-0.26,9.80
75421917,-0.000508,0.000509,0.000416,0.00,-0.24,9.79
75422948,0.000557,0.001575,-0.001714,0.00,-0.24,9.82
75423935,0.002688,0.001575,-0.002779,-0.01,-0.20,9.84
75425012,0.002653,0.000375,-0.003855,-0.02,-0.22,9.75
75425980,0.002653,-0.000690,-0.002789,0.00,-0.28,9.69
75426964,0.001588,-0.000690,-0.000659,-0.02,-0.29,9.78
75427974,-0.000543,0.000375,-0.000659,-0.02,-0.26,9.80
75428984,-0.000543,-0.001756,-0.000659,0.00,-0.23,9.75
75430000,-0.001608,-0.002821,0.001472,0.00,-0.23,9.80
75431004,-0.001608,-0.000690,0.001472,-0.03,-0.26,9.83
75432014,-0.001608,0.002505,0.000406,-0.03,-0.26,9.82
75433045,0.000522,0.000375,0.000406,-0.01,-0.23,9.84
75434035,0.002653,-0.002821,-0.000659,0.02,-0.22,9.83
75435050,0.004784,-0.000690,-0.002789,0.00,-0.24,9.81
75436054,0.005849,0.000375,-0.002789,-0.01,-0.25,9.83
75437064,0.005849,0.001440,-0.001724,0.02,-0.23,9.86
75438074,0.003718,0.000375,-0.001724,-0.01,-0.23,9.87
75439084,0.000522,-0.000690,-0.000659,-0.05,-0.25,9.87
75440101,-0.001608,-0.001756,-0.000659,-0.01,-0.25,9.82
75441104,-0.002673,-0.000690,0.000406,0.03,-0.26,9.80
75442114,-0.000543,-0.000690,0.000406,0.01,-0.25,9.80
75443146,0.000522,-0.001756,-0.000659,0.00,-0.24,9.79
75444135,0.000522,-0.002821,-0.001724,0.00,-0.27,9.72
75445148,-0.001608,-0.003886,-0.000659,-0.04,-0.27,9.75
75446154,-0.002673,-0.002821,0.000406,-0.01,-0.26,9.86
75447164,-0.002673,-0.001756,-0.000659,0.00,-0.25,9.82
75448174,-0.001608,-0.000690,-0.003855,-0.01,-0.25,9.84
75449184,-0.001608,0.000375,-0.004920,0.01,-0.23,9.89
75450198,-0.000543,0.000375,-0.000659,0.01,-0.23,9.82
75451204,0.000522,-0.000690,0.001472,-0.01,-0.26,9.80
75452214,-0.000543,0.000375,0.001472,-0.02,-0.27,9.85
75453244,-0.000543,0.001440,0.000406,-0.01,-0.28,9.86
75454235,-0.000543,0.000375,0.000406,0.00,-0.28,9.83
75455248,0.000522,-0.000690,0.001472,0.01,-0.27,9.80
75456254,-0.001608,-0.001756,0.002537,-0.02,-0.26,9.78
75457264,-0.001608,0.000375,0.002537,-0.05,-0.24,9.82
75458274,-0.001608,-0.000690,0.002537,-0.02,-0.25,9.80
75459284,-0.001608,-0.002821,0.000406,-0.02,-0.24,9.79
75460302,0.000522,0.000375,-0.000659,-0.02,-0.25,9.84
75461304,0.000522,0.002505,-0.000659,0.00,-0.25,9.82
75462314,-0.001608,0.002505,-0.000659,0.00,-0.22,9.78
75463345,-0.000543,0.000375,-0.001724,-0.01,-0.22,9.79
75464335,0.000522,0.000375,0.000406,0.00,-0.23,9.79
75465350,0.001588,0.002505,0.000406,-0.01,-0.22,9.81
75466354,0.003718,0.003571,-0.000659,-0.02,-0.24,9.80
75467364,0.003718,0.003571,-0.000659,-0.02,-0.26,9.78
75468374,0.001588,0.002505,0.000406,-0.03,-0.26,9.79
75469384,-0.000543,-0.000690,-0.000659,-0.03,-0.24,9.77
75470398,0.000522,-0.004951,-0.000659,0.01,-0.23,9.77
75471404,0.002653,-0.006017,0.000406,-0.01,-0.25,9.81
75472433,0.003718,-0.002821,-0.000659,-0.04,-0.27,9.85
75473425,0.001588,0.000375,-0.000659,0.01,-0.25,9.84
75474434,0.000522,0.001440,-0.000659,0.03,-0.25,9.84
75475450,0.000522,0.000375,-0.000659,-0.02,-0.23,9.83
75476454,0.000522,0.000375,-0.000659,-0.03,-0.25,9.82
75477464,0.000522,0.002505,0.000406,0.01,-0.25,9.80
75478474,0.000522,0.002505,0.000406,0.03,-0.23,9.79
75479484,-0.000543,0.001440,-0.001724,0.01,-0.24,9.83
75480501,-0.002673,0.003571,-0.002789,0.01,-0.23,9.83
75481504,-0.000543,0.003571,-0.000659,-0.02,-0.24,9.82
75482536,-0.000543,-0.000690,0.001472,-0.02,-0.24,9.81
75483525,0.000522,-0.001756,0.000406,-0.02,-0.23,9.79
75484534,0.000522,-0.001756,-0.000659,-0.05,-0.22,9.82
75485548,0.000522,-0.003886,0.000406,-0.03,-0.24,9.88
75486554,-0.001608,-0.003886,0.002537,-0.02,-0.24,9.86
75487564,-0.001608,-0.001756,0.002537,-0.02,-0.23,9.84
75488574,0.001588,0.000375,-0.000659,0.01,-0.24,9.85
75489584,0.001588,-0.000690,-0.000659,-0.01,-0.23,9.85
75490598,0.001588,-0.000690,0.001472,-0.01,-0.24,9.82
75491604,0.002653,-0.000690,0.000406,0.02,-0.25,9.80
75492634,0.001588,0.000375,-0.001724,0.01,-0.24,9.81
75493625,-0.000543,0.003571,-0.002789,0.02,-0.22,9.82
75494634,-0.001608,0.003571,-0.002789,0.05,-0.20,9.81
75495648,-0.002673,0.002505,-0.001724,0.04,-0.21,9.79
75496654,-0.002673,0.003571,0.001472,-0.01,-0.24,9.86
75497664,-0.001608,0.001440,0.003602,-0.02,-0.23,9.86
75498679,-0.000543,0.001440,0.003602,-0.02,-0.25,9.77
75499684,-0.000543,-0.000690,0.001472,-0.04,-0.25,9.74
75500738,-0.000543,-0.001756,0.001472,-0.01,-0.26,9.77
75501726,0.000522,-0.001756,0.001472,0.02,-0.26,9.77
75502755,0.000522,-0.001756,0.001472,-0.01,-0.25,9.76
75503733,0.001588,-0.001756,0.002537,-0.01,-0.25,9.77
75504739,0.002653,-0.001756,0.000406,0.00,-0.24,9.77
75505757,0.001588,-0.001756,-0.001724,-0.02,-0.23,9.77
75506773,0.000522,-0.000690,-0.001724,0.01,-0.23,9.79
75507778,0.000522,0.001440,0.000406,0.00,-0.25,9.77
75508787,0.000522,0.001440,0.002537,-0.02,-0.26,9.76
75509796,0.001588,0.000375,0.001472,-0.02,-0.25,9.82
75510803,0.002653,0.000375,0.000406,0.00,-0.25,9.85
75511830,0.001588,0.000375,0.000406,0.01,-0.24,9.81
75512848,0.000522,0.000375,0.000406,0.00,-0.24,9.78
75513841,-0.001608,0.000375,0.000406,-0.02,-0.24,9.81
75514847,-0.001608,0.000375,0.000406,-0.02,-0.25,9.83
75515856,-0.000543,-0.000690,0.000406,-0.01,-0.26,9.85
75516859,0.000522,-0.000690,0.000406,-0.01,-0.26,9.85
75517867,0.000522,-0.001756,-0.000659,0.01,-0.27,9.82
75518878,0.000522,-0.000690,-0.000659,0.00,-0.27,9.81
75519884,-0.000543,0.002505,-0.000659,-0.01,-0.26,9.80
75520919,-0.001608,0.003571,0.000406,0.00,-0.22,9.84
75521909,-0.000543,0.001440,0.000406,0.00,-0.20,9.89
75522945,0.001588,0.000375,-0.000659,0.01,-0.21,9.83
75523926,0.003718,-0.000690,-0.001724,0.03,-0.24,9.81
75524933,0.003718,-0.000690,-0.000659,0.01,-0.28,9.80
75525947,0.001588,0.000375,0.000406,-0.01,-0.27,9.79
75526953,-0.000543,-0.001756,0.000406,-0.01,-0.28,9.74
75527963,-0.002673,-0.003886,0.000406,-0.01,-0.28,9.78
75528973,-0.002673,-0.001756,-0.000659,-0.01,-0.25,9.86
75529983,-0.002673,0.001440,-0.000659,-0.02,-0.25,9.84
75531013,-0.001608,0.003571,-0.000659,-0.02,-0.25,9.85
75532004,0.000522,0.002505,0.000406,0.00,-0.24,9.84
75533040,0.001588,0.000375,0.002537,-0.01,-0.25,9.84
75534025,0.001588,-0.002821,0.002537,0.01,-0.25,9.85
75535034,0.002653,-0.001756,0.001472,0.04,-0.25,9.84
75536048,0.001588,0.001440,0.000406,0.01,-0.24,9.86
75537054,-0.000543,0.000375,0.000406,0.00,-0.24,9.85
75538064,-0.001608,-0.001756,-0.000659,-0.02,-0.23,9.80
75539074,-0.001608,-0.002821,-0.000659,-0.02,-0.21,9.78
75540084,0.000522,-0.000690,-0.000659,-0.01,-0.24,9.82
75541117,-0.000543,0.001440,-0.000659,0.00,-0.26,9.88
75542105,-0.002673,0.003571,0.000406,0.01,-0.24,9.86
75543140,-0.002673,0.002505,0.000406,0.03,-0.24,9.81
75544124,-0.001608,-0.001756,-0.001724,0.03,-0.25,9.80
75545133,0.000522,-0.002821,-0.002789,0.00,-0.26,9.84
75546148,0.000522,-0.001756,-0.001724,-0.03,-0.24,9.85
75547153,0.000522,0.001440,-0.000659,-0.03,-0.25,9.85
75548163,0.000522,0.002505,-0.000659,0.01,-0.28,9.86
75549173,0.000522,0.002505,-0.000659,0.00,-0.26,9.81
75550183,0.000522,0.001440,0.000406,-0.04,-0.25,9.84
75551213,-0.000543,0.001440,0.000406,-0.05,-0.23,9.87
75552204,-0.001608,0.001440,0.000406,-0.02,-0.22,9.82
75553238,-0.001608,0.001440,0.001472,-0.01,-0.25,9.80
75554257,0.000503,0.000377,0.001478,-0.01,-0.27,9.85
75555234,0.001568,-0.000688,-0.001718,0.01,-0.25,9.86
75556250,0.000503,0.000377,-0.002783,0.00,-0.26,9.84
75557254,-0.000563,0.000377,-0.001718,0.00,-0.27,9.82
75558264,-0.000563,0.000377,-0.001718,0.02,-0.27,9.78
75559274,0.000503,0.000377,-0.000653,0.04,-0.24,9.82
75560284,0.000503,-0.001754,-0.000653,0.06,-0.22,9.84
75561316,-0.000563,-0.002819,-0.001718,0.03,-0.25,9.82
75562305,-0.002693,-0.001754,-0.000653,0.01,-0.26,9.83
75563341,-0.001628,-0.000688,0.000413,0.00,-0.26,9.85
75564324,0.001568,0.000377,-0.000653,-0.01,-0.26,9.83
75565333,0.002633,0.002507,-0.001718,-0.02,-0.25,9.82
75566347,0.002633,0.000377,-0.002783,-0.03,-0.25,9.81
75567353,0.000503,-0.002819,-0.002783,-0.01,-0.25,9.80
75568363,-0.000563,-0.002819,0.000413,0.04,-0.24,9.84
75569373,-0.000563,-0.002819,0.003608,0.03,-0.23,9.86
75570383,0.001568,-0.001754,0.004674,-0.02,-0.24,9.85
75571413,0.002633,0.000377,0.002543,-0.04,-0.27,9.82
75572430,0.000503,0.001442,0.001478,-0.02,-0.24,9.84
75573415,-0.002693,0.001442,0.000413,0.01,-0.23,9.83
75574424,-0.002693,0.002507,0.000413,0.04,-0.23,9.79
75575434,-0.002693,0.002507,0.001478,0.03,-0.22,9.80
75576448,-0.000563,0.000377,0.000413,0.02,-0.24,9.81
75577454,0.000503,-0.000688,-0.000653,0.04,-0.25,9.85
75578464,-0.000563,-0.001754,-0.000653,0.02,-0.25,9.86
75579474,-0.002693,0.000377,0.001478,-0.02,-0.25,9.83
75580484,-0.002693,0.001442,0.001478,-0.01,-0.22,9.81
75581517,-0.000563,-0.000688,0.000413,0.03,-0.22,9.83
75582530,0.000503,-0.000688,-0.001718,-0.01,-0.25,9.83
75583514,0.000503,0.000377,-0.003849,-0.02,-0.23,9.86
75584523,-0.001628,-0.000688,0.000413,0.04,-0.24,9.74
75585533,-0.000563,-0.001754,0.002543,0.01,-0.22,9.82
75586548,-0.000563,-0.002819,0.000413,-0.02,-0.23,9.85
75587676,-0.000563,-0.002819,-0.001718,-0.03,-0.27,9.84
75588549,-0.002693,0.001442,-0.002783,-0.01,-0.23,9.93
75589551,-0.019738,0.021682,0.001478,0.02,-0.24,9.83
75590561,-0.014411,0.024878,0.010000,-0.09,-0.20,9.81
75591595,-0.010150,0.012095,0.016392,-0.14,-0.06,9.79
75592616,-0.017607,0.003573,0.019588,-0.11,-0.28,9.67
75593595,-0.014411,0.002507,0.019588,-0.03,-0.19,9.78
75594602,0.002633,0.004638,0.020653,0.23,0.04,9.90
75595612,0.018612,0.003573,0.021718,0.28,-0.19,9.76
75596630,0.027135,-0.002819,0.024914,0.21,-0.46,9.62
75597632,0.031396,-0.001754,0.029175,-0.16,-0.62,10.01
75598642,0.012221,-0.001754,0.028110,-0.46,-0.27,10.03
75599652,-0.012281,-0.007080,0.015327,-0.11,0.03,9.60
75600665,-0.009085,-0.011341,-0.005979,0.34,-0.64,9.47
75601703,0.013286,0.000377,-0.015567,0.25,-0.67,10.02
75602740,0.007960,0.004638,-0.009175,-0.37,0.23,10.40
75603697,-0.031456,-0.010276,-0.010240,-0.16,0.00,9.58
75604712,-0.025064,-0.011341,-0.019828,0.67,-1.25,9.35
75605718,0.023939,0.016356,-0.009175,-0.14,0.17,10.30
75606736,0.021808,0.004638,-0.002783,-0.68,0.96,9.96
75607750,-0.039978,-0.027320,-0.016632,0.69,-2.09,8.94
75608756,0.001568,0.020617,-0.011305,0.19,0.55,10.38
75609761,0.044179,0.038727,-0.007044,-0.91,1.47,10.05
75610773,-0.058088,-0.012406,-0.014501,0.48,-3.08,8.65
75611801,-0.031456,0.029139,0.000413,-0.04,1.30,10.90
75612825,0.029265,0.032335,-0.009175,-0.47,0.76,9.86
75613816,-0.043174,-0.009211,-0.009175,0.92,-1.73,9.87
75614806,0.020743,0.002507,-0.002783,-0.38,0.76,10.00
75615825,-0.002693,0.003573,0.002543,-0.10,-0.41,8.43
75616839,0.019678,0.016356,0.013196,-0.51,-1.27,11.55
75617838,0.036722,-0.026255,0.007870,0.75,0.93,8.03
75618847,-0.002693,-0.000688,0.013196,-0.66,-1.56,10.26
75619856,0.030330,-0.001754,0.006804,-0.03,-0.08,9.69
75620862,-0.006954,-0.003884,0.010000,0.28,0.27,9.77
75621899,0.000503,0.001442,0.005739,-0.74,-1.50,9.99
75622915,-0.022934,0.006769,0.006804,0.64,0.44,10.39
75623898,0.021808,0.015291,0.001478,-0.82,-0.57,9.70
75624903,0.001568,-0.021994,-0.003849,0.80,-0.16,9.71
75625911,0.019678,-0.014537,-0.008110,-0.35,-0.50,9.87
75626929,0.003698,0.005703,-0.011305,0.45,0.83,10.04
75627931,0.006894,-0.001754,-0.013436,0.24,-0.64,10.08
75628941,0.017547,-0.014537,-0.016632,-0.87,-0.28,8.08
75629951,0.002633,0.004638,-0.017697,1.06,0.68,11.83
75630978,-0.004824,0.016356,-0.018762,-0.21,-0.83,8.72
75631980,0.004764,0.008899,-0.016632,-0.05,0.28,10.24
75633015,0.014351,0.007834,-0.011305,0.89,0.33,10.77
75633995,0.021808,-0.001754,-0.007044,-0.74,-0.85,8.39
75635002,0.014351,-0.013472,-0.003849,0.07,0.25,10.38
75636012,-0.023999,0.005703,-0.003849,0.88,0.05,11.01
75637031,-0.026129,0.019552,-0.003849,-0.85,-1.10,8.09
75638032,-0.001628,0.006769,0.000413,-0.49,-0.20,10.22
75639042,0.003698,0.001442,0.003608,1.10,0.24,11.00
75640052,-0.010150,0.014226,0.003608,-0.19,-0.89,8.31
75641079,-0.005889,0.023813,0.000413,-1.30,-0.83,8.69
75642082,-0.023999,0.034466,-0.002783,0.62,0.17,11.48
75643113,-0.023999,0.038727,-0.001718,0.92,-0.25,9.97
75644095,0.019678,0.005703,0.000413,-1.30,-0.86,8.48
75645101,0.030330,0.001442,-0.000653,-0.70,-0.70,10.29
75646111,0.029265,0.016356,-0.000653,1.22,0.29,10.83
75647129,0.001568,0.017421,-0.002783,0.68,0.41,9.60
75648131,-0.019738,0.016356,-0.007044,-1.29,-1.15,8.57
75649141,-0.017607,0.008899,-0.001718,-0.73,-0.59,9.83
75650151,-0.028260,0.004638,0.002543,1.16,0.47,10.95
75651178,-0.051696,0.013160,0.001478,0.98,0.37,10.12
75652180,-0.044239,0.021682,0.000413,-0.56,-0.08,9.17
75653215,-0.016542,0.024878,-0.001718,-1.28,-1.09,8.87
75654195,0.029265,0.007834,-0.000653,0.14,-0.51,10.31
75655202,0.048440,-0.013472,-0.000653,1.46,0.60,10.84
75656212,0.037787,-0.013472,0.000413,0.92,0.59,10.22
75657231,0.021808,0.004638,0.000413,-0.76,-0.07,9.19
75658232,-0.002693,0.011030,-0.001718,-1.41,-1.37,8.60
75659242,-0.014411,0.008899,-0.003849,-0.22,-0.98,9.81
75660252,-0.014411,0.006769,-0.004914,1.09,0.28,10.73
75661262,-0.009085,0.004638,-0.003849,1.23,0.72,10.66
75662279,0.004764,0.002507,-0.002783,0.04,0.49,9.77
75663307,0.004764,-0.002819,-0.004914,-1.33,-0.93,8.71
75664297,-0.012281,0.006769,-0.009175,-1.35,-1.66,8.92
75665303,-0.009085,0.024878,-0.010240,-0.22,-0.93,10.07
75666313,0.004764,0.035531,-0.009175,0.81,-0.22,10.55
75667332,0.012221,0.041923,-0.012371,1.25,0.64,10.72
75668333,0.009025,0.033401,-0.012371,0.58,0.95,10.07
75669343,-0.011215,0.009964,-0.010240,-0.81,0.05,8.76
75670353,-0.001628,-0.008145,-0.009175,-1.48,-1.18,8.58
75671363,0.009025,-0.013472,-0.008110,-1.16,-1.56,9.35
75672380,-0.004824,0.001442,-0.010240,-0.20,-1.25,10.05
75673407,-0.018672,0.028074,-0.014501,0.78,-0.55,10.52
75674395,-0.014411,0.048315,-0.014501,1.33,0.74,10.93
75675402,-0.012281,0.042988,-0.010240,1.02,1.14,10.26
75676412,-0.021868,0.018487,-0.008110,0.22,0.66,9.30
75677431,0.001568,-0.004950,-0.003849,-0.54,-0.19,9.20
75678432,0.014351,-0.012406,0.003608,-1.12,-1.12,9.20
75679442,-0.001628,0.008899,0.003608,-0.97,-1.70,9.42
75680452,0.043114,-0.008145,0.012131,-0.34,-1.61,9.76
75681462,0.025004,-0.042234,0.018522,0.44,-0.86,10.19
75682479,-0.070871,-0.029451,0.020653,1.05,0.03,10.49
75683507,-0.142245,0.021683,0.017457,1.28,1.16,10.68
75684497,-0.145441,0.054706,0.018522,1.09,1.48,10.42
75685503,-0.108156,0.029139,0.022783,0.53,1.14,9.69
75686513,0.040983,-0.076323,0.028110,-0.78,-0.10,9.40
75687532,0.048440,-0.032647,0.022783,-1.12,-0.84,9.22
75688533,-0.003759,0.008899,0.016392,-1.13,-1.56,9.14
75689543,-0.010150,0.006769,0.012131,-0.89,-1.56,9.33
75690553,-0.014411,0.007834,0.008935,-0.36,-1.25,9.58
75691563,-0.005889,0.002507,0.004674,0.20,-0.90,10.04
75692599,0.002633,0.000377,0.001478,0.60,-0.02,10.61
75693585,0.002633,0.005703,0.003608,0.78,0.50,10.91
75694592,-0.002693,0.008899,0.002543,0.78,0.78,10.52
75695602,-0.009085,0.005703,-0.003849,0.69,0.79,10.03
75696612,-0.004824,-0.003884,-0.010240,0.38,0.54,9.58
75697631,0.004764,-0.004950,-0.014501,0.09,0.34,9.54
75698640,0.007960,0.002507,-0.016632,-0.27,-0.03,9.57
75699642,-0.001628,0.014226,-0.016632,-0.58,-0.34,9.48
75700652,-0.014411,0.020617,-0.015567,-0.68,-0.81,9.32
75701665,-0.014411,0.015291,-0.015567,-0.76,-1.16,9.20
75702712,0.003698,-0.003884,-0.016632,-0.73,-1.36,9.42
75703694,0.004764,-0.008145,-0.017697,-0.63,-1.30,9.61
75704697,-0.008020,0.004638,-0.016632,-0.38,-1.14,9.66
75705715,-0.001628,0.007834,-0.009175,-0.13,-0.99,9.67
75706718,-0.003759,0.007834,-0.002783,0.14,-0.63,9.99
75707739,0.001568,0.004638,0.002543,0.39,-0.37,10.21
75708748,0.000503,0.000377,0.007870,0.52,0.00,10.40
75709752,-0.006954,-0.001754,0.008935,0.59,0.23,10.50
75710763,0.010090,-0.009211,0.010000,0.59,0.46,10.50
75711775,0.003698,-0.011341,0.010000,0.61,0.60,10.27
75712813,-0.016542,0.000377,0.006804,0.61,0.56,9.88
75713800,-0.003759,0.004638,0.005739,0.56,0.47,9.68
75714797,0.029265,-0.007080,0.007870,0.37,0.32,9.61
75715812,0.034592,-0.019863,0.010000,0.16,0.19,9.58
75716822,0.005829,-0.020929,0.010000,0.09,0.12,9.71
75717837,-0.021868,-0.016668,0.008935,-0.01,0.15,9.76
75718838,-0.036782,-0.010276,0.005739,-0.09,-0.13,9.81
75719847,-0.044239,-0.004950,0.001478,-0.19,-0.13,9.89
75720856,-0.041043,-0.012406,-0.001718,-0.36,-0.19,9.80
75721862,-0.029325,-0.021994,-0.003849,-0.35,-0.52,9.69
75722902,-0.011215,-0.032647,-0.005979,-0.39,-0.47,9.66
75723891,0.013286,-0.042234,-0.007044,-0.45,-0.64,9.50
75724897,0.034592,-0.031582,-0.009175,-0.31,-0.71,9.60
75725906,0.042049,-0.002819,-0.010240,-0.40,-0.66,9.53
75726913,0.012221,0.029139,-0.010240,-0.55,-0.84,9.50
75727932,-0.023999,0.030205,-0.008110,-0.27,-0.62,9.84
75728933,-0.023999,0.001442,-0.005979,-0.22,-0.74,9.59
75729943,0.022874,-0.030516,-0.001718,-0.51,-0.79,9.42
75730953,0.025004,-0.020929,-0.005979,-0.19,-0.44,9.85
75731963,-0.013346,0.019552,-0.012371,0.07,-0.89,9.64
75732999,-0.003759,0.012095,-0.010240,-0.23,-0.59,9.42
75733985,0.016482,-0.017733,-0.010240,-0.09,-0.34,9.78
75734992,-0.005889,0.004638,-0.013436,0.32,-0.93,9.84
75736002,-0.002693,0.015291,-0.010240,0.05,-0.27,9.92
75737012,0.006894,-0.009211,-0.012371,-0.08,-0.17,9.96
75738031,-0.021868,0.001442,-0.018762,0.47,-0.75,10.12
75739032,-0.000563,0.009964,-0.013436,0.30,0.05,10.25
75740042,0.005829,0.000377,-0.011305,-0.09,0.02,9.85
75741052,-0.020803,-0.001754,-0.009175,0.37,-0.56,9.97
75742062,0.001568,0.006769,-0.002783,0.34,0.20,10.36
75743099,0.016482,-0.000688,0.001478,-0.02,0.30,10.06
75744087,0.000503,-0.019863,0.000413,0.31,-0.34,9.90
75745093,-0.006954,0.003573,0.005739,0.31,0.13,10.26
75746103,0.010090,0.004638,0.008935,-0.08,0.28,10.05
75747113,0.011155,0.002507,0.007870,0.17,-0.26,9.67
75748132,0.016482,0.000377,0.012131,0.34,0.21,9.97
75749133,-0.005889,-0.004950,0.014261,-0.02,0.41,9.96
75750143,-0.034652,-0.003884,0.007870,0.07,-0.23,9.50
75751153,-0.025064,0.004638,0.008935,0.33,0.22,9.85
75752163,0.002633,-0.008145,0.008935,0.11,0.34,9.96
75753199,0.014351,-0.009211,0.004674,0.13,-0.39,9.39
75754185,0.007960,0.013160,0.002543,0.29,0.28,9.85
75755192,-0.009085,0.011030,0.000413,0.09,0.38,9.98
75756202,-0.038913,-0.000688,-0.005979,0.08,-0.61,9.45
75757212,-0.003759,0.004638,-0.004914,0.20,0.17,9.95
75758231,0.011155,-0.002819,-0.007044,0.04,0.43,9.99
75759232,-0.000563,-0.002819,-0.014501,0.08,-0.77,9.53
75760242,0.005829,0.016356,-0.010240,0.22,0.13,10.00
75761252,0.003698,0.005703,-0.008110,-0.02,0.54,9.91
75762262,0.005829,-0.018798,-0.011305,-0.03,-0.88,9.53
75763299,-0.011215,0.011030,-0.008110,0.15,-0.08,10.00
75764287,-0.004824,0.016356,-0.002783,-0.06,0.59,9.90
75765293,0.006894,-0.018798,-0.004914,-0.07,-0.82,9.66
75766303,-0.013346,0.008899,-0.007044,0.09,-0.27,9.99
75767313,-0.002693,0.022748,-0.005979,-0.13,0.61,9.76
75768332,0.007960,-0.011341,-0.005979,-0.05,-0.72,9.70
75769333,-0.014411,0.007834,-0.002783,0.10,-0.39,10.12
75770343,-0.004824,0.018487,0.002543,-0.26,0.47,9.75
75771353,0.015417,-0.014537,0.002543,-0.03,-0.68,9.72
75772363,-0.003759,-0.001754,0.002543,0.12,-0.26,10.11
75773399,-0.011215,0.016356,0.005739,-0.43,0.31,9.69
75774385,0.012221,-0.009211,0.004674,0.04,-0.66,9.83
75775392,0.006894,-0.007080,0.005739,0.18,-0.14,10.19
75776402,-0.019738,0.017421,0.004674,-0.40,-0.01,9.58
75777412,-0.002693,0.012095,-0.002783,0.21,-0.61,9.90
75778431,0.027135,-0.006015,-0.002783,0.10,-0.05,10.15
75779432,-0.011215,0.002507,0.000413,-0.48,-0.22,9.32
75780442,-0.044239,0.023813,-0.004914,0.36,-0.59,9.83
75781452,0.003698,0.012095,-0.007044,0.17,0.01,10.10
75782462,0.019678,-0.013472,-0.003849,-0.61,-0.23,9.33
75783499,-0.034652,-0.006015,-0.002783,0.31,-0.54,10.02
75784487,-0.039978,0.018487,-0.002783,0.19,-0.18,10.17
75785493,0.007960,0.004638,-0.001718,-0.68,-0.36,9.34
75786503,0.049506,-0.034777,-0.003849,0.34,-0.40,9.98
75787513,-0.020803,0.022748,-0.003849,-0.80,-0.34,9.25
75788532,-0.048500,0.045119,-0.009175,0.24,-0.35,10.05
75789533,0.004764,0.020617,-0.007044,0.30,-0.46,9.86
75790543,0.050571,-0.015602,-0.002783,-0.82,-0.36,9.19
75791553,0.023939,-0.032647,-0.003849,0.18,-0.31,10.10
75792587,-0.023999,-0.003884,-0.004914,0.36,-0.54,9.86
75793583,-0.043174,0.035531,-0.002783,-0.80,-0.35,9.23
75794582,-0.017607,0.036596,-0.004914,0.10,-0.29,10.22
75795592,0.047375,-0.001754,-0.002783,0.37,-0.66,9.90
75796602,0.066550,-0.031582,0.002543,-0.76,-0.33,9.22
75797612,0.010090,-0.034777,0.001478,0.13,-0.27,10.10
75798629,-0.043174,-0.001754,0.001478,0.43,-0.70,9.82
75799632,-0.058088,0.039792,0.003608,-0.77,-0.27,9.26
75800642,-0.038913,0.045119,-0.001718,0.03,-0.31,10.05
75801652,0.025004,0.009964,-0.002783,0.46,-0.71,9.80
75802694,0.068681,-0.034777,0.002543,-0.74,-0.12,9.27
75803696,0.062289,-0.062475,0.004674,0.01,-0.26,10.14
75804692,0.027135,-0.045430,0.006804,0.57,-0.68,9.98
75805698,-0.034652,0.008899,0.006804,-0.70,-0.04,9.30
75806712,-0.084720,0.050445,0.000413,-0.09,-0.27,10.02
75807730,-0.055957,0.050445,-0.001718,0.56,-0.63,9.97
75808738,0.003698,0.021682,0.001478,-0.71,0.00,9.34
75809746,0.042049,-0.014537,0.000413,-0.16,-0.37,10.01
75810754,0.076138,-0.046495,-0.000653,0.60,-0.58,10.03
75811762,0.058028,-0.055018,-0.000653,-0.65,0.05,9.35
75812796,0.006894,-0.041169,-0.004914,-0.16,-0.46,9.86
75813795,-0.017607,-0.030516,-0.003849,0.65,-0.51,10.09
75814792,-0.061284,0.007834,-0.004914,-0.62,0.07,9.50
75815798,-0.093242,0.056837,-0.007044,-0.19,-0.59,9.66
75816806,-0.065545,0.058967,-0.007044,0.67,-0.39,9.94
75817827,-0.037847,0.044053,-0.004914,-0.63,0.06,9.53
75818837,-0.013346,0.034466,-0.007044,-0.20,-0.77,9.53
75819838,0.028200,0.005703,-0.009175,0.58,-0.41,9.72
75820846,0.045244,-0.031582,-0.007044,-0.58,0.06,9.66
75821856,0.049506,-0.043300,-0.004914,-0.27,-1.02,9.46
75822891,0.067615,-0.046495,-0.002783,0.38,-0.27,10.11
75823889,0.066550,-0.046495,-0.001718,-0.30,0.01,10.10
75824888,0.030330,-0.036908,0.002543,-0.32,-0.99,9.61
75825897,-0.015477,-0.018798,0.004674,0.22,0.09,10.39
75826906,-0.055957,0.015291,0.004674,-0.06,-0.54,9.66
75827913,-0.068741,0.035531,0.008935,-0.41,-0.68,9.32
75828930,-0.053827,0.022748,0.008935,0.22,0.43,9.92
75829933,-0.049566,0.031270,0.003608,0.19,-0.82,9.34
75830943,-0.035717,0.056837,0.002543,-0.47,-0.26,9.74
75831953,-0.018672,0.052576,0.000413,0.16,0.27,10.16
75832987,0.005829,0.035531,0.001478,0.33,-0.69,10.00
75833983,0.032461,0.020617,0.004674,-0.44,0.15,10.10
75834982,0.044179,0.008899,0.000413,0.14,-0.07,9.85
75835992,0.056962,-0.013472,0.001478,0.62,-0.43,9.86
75837002,0.060158,-0.036908,0.003608,-0.29,0.42,9.59
75838012,0.055897,-0.042234,-0.002783,0.04,-0.22,9.59
75839029,0.068681,-0.050757,-0.003849,0.76,-0.32,9.86
75840032,0.065485,-0.064605,-0.003849,-0.28,0.39,9.48
75841042,0.051636,-0.059279,-0.007044,-0.04,-0.38,9.65
75842052,0.049506,-0.045430,-0.007044,0.83,-0.21,10.17
75843087,0.015417,-0.027320,-0.007044,-0.35,0.37,9.85
75844085,-0.020803,-0.012406,-0.011305,-0.07,-0.56,9.69
75845083,-0.008020,-0.016668,-0.011305,0.90,-0.35,10.09
75846093,-0.026129,-0.001754,-0.010240,-0.46,0.26,9.71
75847103,-0.053827,0.020617,-0.011305,-0.15,-0.60,9.51
75848113,-0.037847,0.009964,-0.005979,0.89,-0.32,10.04
75849130,-0.041043,0.007834,-0.000653,-0.56,0.22,9.80
75850133,-0.052761,0.023813,-0.000653,-0.31,-0.73,9.53
75851143,-0.022934,0.003573,0.003608,0.77,-0.33,10.00
75852153,-0.036782,0.000377,0.008935,-0.56,0.19,9.87
75853187,-0.070871,0.034466,0.007870,-0.45,-0.93,9.42
75854183,-0.041043,0.019552,0.010000,0.33,-0.43,9.75
75855182,-0.033586,-0.007080,0.012131,-0.45,0.01,9.81
75856192,-0.057023,0.004638,0.015327,-0.31,-1.02,9.64
75857202,-0.063414,0.022748,0.020653,0.14,-0.14,10.63
75858212,-0.066610,0.045119,0.019588,-0.29,-0.25,10.16
75859229,-0.053827,0.037662,0.018522,-0.47,-0.81,9.55
75860232,-0.027195,-0.007080,0.018522,0.02,0.22,10.03
75861242,-0.021868,-0.017733,0.018522,0.01,-0.82,9.15
75862252,-0.031456,0.003573,0.018522,-0.44,-0.48,9.53
75863287,-0.025064,0.007834,0.015327,-0.05,0.19,10.17
75864285,-0.012281,0.003573,0.014261,-0.04,-0.81,9.87
75865283,-0.020803,0.003573,0.012131,-0.32,-0.05,10.23
75866293,-0.028260,-0.003884,0.006804,0.07,-0.36,10.01
75867303,-0.018672,-0.013472,0.001478,0.12,-0.37,9.96
75868313,-0.011215,-0.008145,-0.001718,-0.03,0.14,9.94
75869330,-0.010150,0.002507,-0.003849,-0.11,-0.48,9.55
75870333,0.002633,-0.014537,-0.005979,0.14,0.04,9.76
75871343,0.019678,-0.035843,-0.008110,0.24,-0.25,9.49
75872353,0.030330,-0.037973,-0.008110,-0.11,-0.20,9.79
75873387,0.031396,-0.036908,-0.013436,0.22,0.41,10.35
75874383,0.028200,-0.039039,-0.015567,0.32,-0.50,9.95
75875382,0.025004,-0.037973,-0.017697,-0.14,-0.04,9.98
75876392,0.042049,-0.036908,-0.021958,0.31,0.37,10.10
75877402,0.059093,-0.041169,-0.021958,0.48,-0.38,9.72
75878412,0.044179,-0.041169,-0.019828,-0.20,0.19,9.62
75879429,0.034592,-0.040104,-0.023024,0.33,0.18,9.82
75880432,0.049506,-0.043300,-0.020893,0.69,-0.29,9.80
75881442,0.045244,-0.040104,-0.016632,-0.28,0.36,9.71
75882452,0.023939,-0.023059,-0.019828,0.22,0.04,10.05
75883487,0.037787,-0.018798,-0.018762,0.82,-0.35,9.98
75884485,0.028200,-0.017733,-0.009175,-0.29,0.33,9.61
75885483,-0.000563,0.000377,-0.007044,0.14,-0.08,9.94
75886493,0.009025,0.018487,-0.005979,0.76,-0.31,10.03
75887503,0.002633,0.035531,-0.003849,-0.42,0.24,9.55
75888513,-0.029325,0.053641,-0.003849,0.10,-0.37,9.74
75889530,-0.047435,0.056837,0.010000,-0.57,0.18,9.71
75890533,-0.055957,0.069620,0.013196,-0.10,-0.66,9.66
75891543,-0.030391,0.031270,0.016392,0.40,-0.43,9.60
75892553,-0.033586,0.000377,0.018522,-0.54,0.07,9.85
75893587,-0.057023,0.016356,0.017457,-0.22,-0.96,9.80
75894583,-0.045304,0.014226,0.021718,0.05,-0.28,10.49
75895582,-0.027195,0.003573,0.019588,-0.35,-0.10,10.33
75896592,-0.002693,-0.013472,0.020653,-0.38,-0.96,9.58
75897602,0.033526,-0.042234,0.021718,-0.08,0.09,10.03
75898612,0.061224,-0.052887,0.019588,-0.07,-0.46,9.33
75899629,0.064419,-0.048626,0.020653,-0.43,-0.67,9.34
75900632,0.052701,-0.059279,0.018522,-0.36,-0.04,9.83
75901642,0.055897,-0.059279,0.014261,0.10,-0.38,9.97
75902681,0.080399,-0.056083,0.013196,-0.07,-0.31,10.17
75903686,0.080399,-0.060344,0.008935,-0.42,-0.25,9.85
75904685,0.053767,-0.053952,-0.000653,0.24,-0.07,10.19
75905691,0.055897,-0.035843,-0.004914,0.27,-0.28,9.86
75906697,0.051636,-0.021994,-0.007044,-0.53,-0.10,8.99
75907717,0.026069,-0.015602,-0.013436,0.26,-0.12,9.55
75908720,0.040983,-0.011341,-0.013436,0.58,-0.50,9.75
75909737,0.037787,0.002507,-0.011305,-0.47,0.18,9.74
75910747,0.009025,0.008899,-0.015567,0.23,-0.14,10.31
75911754,0.021808,0.000377,-0.015567,0.69,-0.55,10.14
75912788,0.030330,0.001442,-0.014501,-0.41,0.21,9.61
75913774,0.012221,0.021682,-0.019828,0.28,-0.16,10.09
75914788,0.013286,0.020617,-0.020893,0.80,-0.35,9.91
75915791,0.002633,0.015291,-0.017697,-0.48,0.12,9.33
75916797,-0.009085,0.029139,-0.016632,0.08,-0.47,9.70
75917812,0.014351,0.007834,-0.013436,0.54,-0.17,9.62
75918823,0.011155,-0.015602,-0.009175,-0.46,0.05,9.68
75919836,0.004764,0.011030,-0.007044,-0.10,-0.99,9.89
75920838,0.005829,0.022748,0.000413,0.26,-0.07,10.57
75921847,0.007960,0.011030,0.004674,-0.25,-0.07,10.44
75922877,0.017547,-0.009211,0.011065,-0.25,-0.85,9.81
75923867,0.010090,-0.019863,0.013196,0.17,0.31,10.27
75924923,0.010090,-0.008145,0.014261,-0.04,-0.54,9.24
75925911,0.023939,-0.012407,0.018522,-0.47,-0.63,9.01
75926897,0.021808,-0.030516,0.017457,0.10,0.44,9.88
75927906,0.011155,-0.026255,0.018522,0.10,-0.81,9.46
75928913,0.025004,-0.023059,0.021718,-0.43,-0.30,9.97
75929930,0.042049,-0.035843,0.018522,0.03,-0.12,10.38
75930933,0.038853,-0.042234,0.013196,0.08,-0.52,10.18
75931943,0.038853,-0.039039,0.010000,-0.13,0.10,10.20
75932981,0.043114,-0.043300,0.008935,-0.06,-0.56,9.61
75933965,0.035657,-0.048626,0.002543,0.12,-0.10,9.70
75934979,0.043114,-0.047561,0.001478,0.06,-0.07,9.57
75935982,0.044179,-0.039039,0.001478,-0.27,-0.44,9.53
75936992,0.033526,-0.040104,-0.005979,0.24,0.14,10.01
75938002,0.043114,-0.049691,-0.011305,0.21,-0.43,9.75
75939012,0.052701,-0.051822,-0.013436,-0.34,-0.23,9.97
75940029,0.054832,-0.047561,-0.017697,0.36,0.31,10.41
75941032,0.052701,-0.048626,-0.016632,0.35,-0.44,9.79
75942042,0.039918,-0.049691,-0.017697,-0.34,-0.11,9.48
75943078,0.044179,-0.043300,-0.025154,0.39,0.23,9.88
75944067,0.060158,-0.045430,-0.025154,0.45,-0.27,9.57
75945080,0.045244,-0.043300,-0.023024,-0.42,0.01,9.31
75946083,0.030330,-0.034777,-0.025154,0.36,0.06,10.02
75947093,0.050571,-0.045430,-0.021958,0.50,-0.23,9.92
75948103,0.047375,-0.055018,-0.017697,-0.51,0.10,9.60
75949113,0.034592,-0.047561,-0.017697,0.39,-0.06,10.25
75950130,0.051636,-0.048626,-0.015567,0.64,-0.25,9.99
75951133,0.044179,-0.047561,-0.012371,-0.57,-0.04,9.32
75952143,0.025004,-0.036908,-0.014501,0.29,-0.25,9.94
75953178,0.038853,-0.040104,-0.011305,0.64,-0.21,9.93
75954165,0.035657,-0.047561,-0.003849,-0.60,-0.16,9.30
75955179,0.018612,-0.029451,-0.002783,0.04,-0.68,9.75
75956182,0.044179,-0.030516,-0.001718,0.31,-0.23,9.86
75957192,0.066550,-0.047561,0.002543,-0.44,-0.04,9.96
75958202,0.058028,-0.035843,0.006804,-0.07,-0.93,9.98
75959212,0.019678,-0.010276,0.013196,0.04,-0.32,10.44
75960229,0.001568,0.009964,0.015327,-0.28,-0.30,10.29
75961232,0.010090,0.000377,0.018522,-0.31,-0.73,9.71
75962242,-0.002693,-0.016668,0.017457,-0.02,0.02,9.83
75963278,-0.008020,0.001442,0.015327,-0.03,-0.63,9.09
75964267,0.006894,0.015291,0.018522,-0.43,-0.43,9.36
75965280,0.012221,0.013160,0.017457,-0.21,-0.01,9.90
75966283,-0.003759,0.024878,0.015327,0.08,-0.41,10.07
75967293,-0.011215,0.045119,0.014261,-0.31,-0.17,10.30
75968303,-0.005889,0.040858,0.013196,-0.42,-0.46,9.90
75969313,-0.005889,0.031270,0.006804,0.23,-0.06,10.15
75970330,0.003698,0.048315,0.006804,0.04,-0.15,9.88
75971333,0.012221,0.050445,0.006804,-0.51,-0.38,9.08
75972343,-0.003759,0.033401,0.000413,0.34,0.01,9.57
75973378,0.005829,0.035531,-0.005979,0.31,-0.45,9.54
75974365,0.023939,0.042988,-0.008110,-0.40,-0.02,9.45
75975379,0.011155,0.029139,-0.013436,0.42,0.10,10.26
75976382,0.013286,0.017421,-0.014501,0.38,-0.67,9.98
75977392,0.030330,0.007834,-0.015567,-0.39,0.06,9.60
75978402,0.020743,0.003573,-0.024089,0.48,0.14,10.37
75979412,0.023939,0.002507,-0.024089,0.51,-0.61,9.80
75980429,0.034592,-0.006015,-0.018762,-0.49,0.05,9.21
75981432,0.033526,-0.024125,-0.017697,0.43,0.08,10.14
75982442,0.045244,-0.042234,-0.013436,0.60,-0.47,9.89
75983478,0.044179,-0.046495,-0.010240,-0.56,0.03,9.32
75984467,0.035657,-0.042234,-0.012371,0.30,-0.11,10.17
75985480,0.059093,-0.056083,-0.007044,0.57,-0.36,10.06
75986483,0.059093,-0.064605,0.000413,-0.62,0.03,9.31
75987493,0.049506,-0.056083,0.003608,0.17,-0.25,10.10
75988503,0.068681,-0.066736,0.007870,0.53,-0.22,10.15
75989513,0.052701,-0.067801,0.008935,-0.67,-0.08,9.25
75990530,0.051636,-0.055018,0.012131,0.51,-0.14,10.05
75991533,0.028200,-0.055018,0.017457,-0.69,-0.25,9.31
75992543,0.003698,-0.032647,0.018522,-0.11,-0.91,9.78
75993578,0.031396,-0.047561,0.017457,0.18,-0.17,9.90
75994565,0.006894,-0.056083,0.015327,-0.44,-0.17,9.80
75995579,-0.045304,-0.021994,0.018522,-0.07,-1.04,9.83
75996582,-0.067675,0.013160,0.023849,-0.01,-0.19,10.54
75997592,-0.077263,0.040858,0.020653,-0.28,-0.37,10.37
75998602,-0.063414,0.031270,0.018522,-0.26,-0.77,9.56
75999612,-0.057023,0.005703,0.018522,-0.07,0.02,9.49
76000629,-0.071936,0.021682,0.014261,-0.05,-0.69,8.98
76001632,-0.075132,0.049380,0.008935,-0.40,-0.47,9.32
76002672,-0.077263,0.060033,0.003608,-0.25,-0.11,9.87
76003657,-0.083655,0.069620,0.000413,0.14,-0.36,10.24
76004666,-0.079393,0.085599,-0.004914,-0.15,-0.15,10.50
76005686,-0.059153,0.078142,-0.009175,-0.39,-0.49,9.89
76006692,-0.046370,0.063228,-0.015567,0.29,0.05,10.10
76007698,-0.032521,0.078142,-0.016632,0.15,-0.14,9.82
76008712,-0.019738,0.077077,-0.012371,-0.53,-0.25,8.85
76009720,-0.036782,0.048315,-0.017697,0.39,0.14,9.39
76010737,-0.029325,0.051510,-0.023024,0.49,-0.43,9.56
76011745,-0.008020,0.062163,-0.021958,-0.41,0.09,9.72
76012806,-0.019738,0.050445,-0.025154,0.41,0.12,10.61
76013767,-0.019738,0.044053,-0.024089,0.56,-0.59,10.18
76014773,-0.008020,0.046184,-0.020893,-0.39,0.18,9.58
76015785,-0.009085,0.044053,-0.024089,0.53,0.15,10.28
76016792,-0.002693,0.036596,-0.021958,0.76,-0.34,9.72
76017798,-0.009085,0.038727,-0.016632,-0.49,0.09,9.01
76018806,-0.021868,0.049380,-0.016632,0.33,-0.21,9.87
76019825,-0.011215,0.036596,-0.013436,0.68,-0.20,9.84
76020837,-0.025064,0.036596,-0.008110,-0.57,0.08,9.37
76021838,-0.035717,0.057902,-0.007044,0.24,-0.34,10.32
76022873,-0.010150,0.035531,-0.000653,0.59,-0.05,10.29
76023861,-0.014411,0.014226,0.004674,-0.55,-0.13,9.46
76024864,-0.017607,0.038727,0.006804,-0.01,-0.80,9.84
76025884,0.003698,0.036596,0.013196,0.20,-0.03,9.90
76026888,0.005829,0.013160,0.019588,-0.42,-0.08,9.69
76027897,-0.001628,0.021682,0.023849,-0.10,-0.91,9.67
76028906,-0.009085,0.038727,0.028110,0.01,-0.11,10.42
76029913,-0.003759,0.053641,0.024914,-0.19,-0.39,10.26
76030930,0.015417,0.027009,0.027045,-0.32,-0.69,9.65
76031933,0.007960,-0.010276,0.025979,-0.17,0.03,9.71
76032968,-0.003759,0.008899,0.019588,0.03,-0.63,9.17
76033955,0.020743,0.019552,0.020653,-0.31,-0.39,9.50
76034962,0.038853,0.005703,0.020653,-0.26,-0.16,9.88
76035979,0.027135,0.012095,0.016392,0.18,-0.36,10.10
76036982,0.025004,0.020617,0.013196,-0.13,-0.15,10.34
76037992,0.036722,0.000377,0.011065,-0.45,-0.48,9.70
76039002,0.038853,-0.016668,0.004674,0.21,-0.08,10.02
76040012,0.054832,-0.007080,0.001478,0.14,-0.19,9.99
76041029,0.062289,-0.012407,-0.000653,-0.44,-0.23,9.03
76042032,0.034592,-0.032647,-0.009175,0.38,0.04,9.49
76043068,0.051636,-0.035843,-0.010240,0.32,-0.50,9.52
76044057,0.077203,-0.035843,-0.007044,-0.50,0.01,9.53
76045063,0.054832,-0.046495,-0.013436,0.41,0.10,10.55
76046080,0.043114,-0.051822,-0.017697,0.45,-0.63,10.17
76047083,0.058028,-0.051822,-0.020893,-0.49,0.10,9.57
76048093,0.054832,-0.052887,-0.027285,0.45,0.15,10.28
76049103,0.059093,-0.059279,-0.026219,0.61,-0.40,9.72
76050113,0.045244,-0.056083,-0.021958,-0.60,0.02,8.95
76051130,0.031396,-0.050757,-0.023024,0.30,-0.23,9.86
76052133,0.055897,-0.068866,-0.019828,0.69,-0.21,9.97
76053168,0.050571,-0.067801,-0.016632,-0.56,0.06,9.50
76054155,0.031396,-0.046495,-0.016632,0.22,-0.41,10.25
76055162,0.059093,-0.059279,-0.014501,0.57,-0.10,10.20
76056179,0.052701,-0.066736,-0.009175,-0.56,-0.20,9.47
76057182,0.040983,-0.047561,-0.003849,-0.04,-0.85,9.92
76058192,0.066550,-0.065671,0.005739,0.22,-0.02,9.90
76059202,0.058028,-0.094433,0.012131,-0.32,-0.07,9.63
76060212,0.027135,-0.077389,0.015327,-0.06,-0.93,9.67
76061229,-0.004824,-0.034777,0.017457,0.05,-0.13,10.47
76062232,-0.018672,-0.003884,0.016392,-0.16,-0.42,10.38
76063268,-0.000563,-0.020929,0.017457,-0.32,-0.69,9.70
76064257,0.027135,-0.057148,0.018522,-0.10,0.07,9.62
76065263,0.034592,-0.055018,0.018522,0.02,-0.66,9.07
76066280,0.014351,-0.032647,0.021718,-0.33,-0.39,9.52
76067283,-0.008020,-0.030516,0.019588,-0.18,-0.13,9.96
76068293,-0.011215,-0.034777,0.017457,0.17,-0.30,10.15
76069303,-0.023999,-0.019863,0.016392,-0.18,-0.14,10.36
76070313,-0.030391,-0.013472,0.014261,-0.41,-0.54,9.74
76071330,-0.030391,-0.017733,0.004674,0.23,0.03,10.08
76072333,-0.032521,0.007834,-0.000653,0.10,-0.13,9.89
76073368,-0.045304,0.025944,-0.000653,-0.48,-0.35,8.93
76074355,-0.055957,0.004638,-0.005979,0.43,0.06,9.58
76075362,-0.041043,0.000377,-0.008110,0.38,-0.41,9.70
76076379,-0.032521,0.021682,-0.010240,-0.50,0.04,9.62
76077382,-0.046370,0.032335,-0.017697,0.45,0.11,10.46
76078392,-0.042109,0.034466,-0.018762,0.52,-0.58,10.11
76079402,-0.039978,0.041923,-0.017697,-0.46,0.05,9.52
76080412,-0.039978,0.040858,-0.021958,0.48,0.07,10.28
76081429,-0.030391,0.027009,-0.021958,0.64,-0.23,9.74
76082432,-0.042109,0.034466,-0.020893,-0.54,0.05,8.98
76083468,-0.044239,0.044053,-0.021958,0.35,-0.26,9.92
76084457,-0.004824,0.014226,-0.014501,0.64,-0.08,9.95
76085463,-0.016542,0.008899,-0.009175,-0.54,-0.02,9.45
76086480,-0.039978,0.025944,-0.007044,0.03,-0.79,10.05
76087483,-0.011215,-0.001754,0.000413,0.27,-0.16,10.08
76088493,-0.014411,-0.023059,0.006804,-0.29,-0.01,9.97
76089503,-0.041043,0.001442,0.011065,0.00,-0.80,9.96
76090513,-0.055957,0.028074,0.014261,0.06,-0.08,10.38
76091530,-0.064480,0.041923,0.016392,-0.17,-0.37,10.08
76092533,-0.012281,-0.013472,0.029175,-0.05,0.05,9.61
76093568,-0.016542,-0.012406,0.030240,0.12,-0.58,9.23
76094555,-0.039978,0.007834,0.030240,-0.31,-0.33,9.75
76095562,-0.055957,0.011030,0.028110,-0.20,-0.17,10.06
76096579,-0.048500,0.002507,0.023849,0.22,-0.27,10.23
76097582,-0.050631,0.015291,0.021718,-0.10,-0.11,10.43
76098592,-0.053827,0.018487,0.018522,-0.39,-0.43,9.59
76099602,-0.047435,0.008899,0.012131,0.28,-0.03,9.82
76100612,-0.032521,0.025944,0.012131,0.13,-0.14,9.82
76101629,-0.038913,0.040858,0.011065,-0.53,-0.23,8.97
76102658,-0.048500,0.017421,0.004674,0.38,-0.06,9.57
76103647,-0.034652,0.007834,0.000413,0.35,-0.40,9.81
76104653,-0.032521,0.023813,-0.001718,-0.52,0.03,9.76
76105666,-0.044239,0.025944,-0.007044,0.48,0.00,10.51
76106686,-0.042109,0.015291,-0.012371,0.48,-0.46,10.19
76107692,-0.044239,0.024878,-0.018762,-0.56,-0.06,9.35
76108697,-0.029325,0.028074,-0.023024,0.47,-0.12,10.02
76109711,0.005829,-0.000688,-0.023024,0.62,-0.11,9.78
76110720,-0.013346,-0.002819,-0.024089,-0.58,-0.07,9.02
76111737,-0.005889,0.003573,-0.023024,0.21,-0.57,9.84
76112765,0.052701,-0.048626,-0.017697,0.41,0.09,9.93
76113754,0.033526,-0.074193,-0.017697,-0.43,-0.05,9.77
76114769,-0.012281,-0.041169,-0.016632,0.01,-0.91,10.07
76115775,-0.018672,-0.026255,-0.009175,0.16,-0.08,10.55
76116786,-0.010150,-0.024125,-0.002783,-0.25,-0.35,10.27
76117791,-0.000563,-0.031582,0.004674,-0.26,-0.60,9.71
76118797,0.014351,-0.044365,0.006804,0.00,0.08,9.74
76119812,0.027135,-0.045430,0.007870,-0.01,-0.71,9.11
76120823,0.026069,-0.044365,0.015327,-0.34,-0.30,9.39
76121836,0.007960,-0.052887,0.018522,-0.15,-0.01,9.81
76122863,-0.006954,-0.048626,0.017457,0.18,-0.52,9.92
76123851,-0.015477,-0.030516,0.017457,-0.19,-0.14,10.36
76124857,-0.031456,-0.021994,0.016392,-0.33,-0.39,9.91
76125864,-0.046370,-0.012406,0.011065,0.33,-0.07,10.14
76126884,-0.046370,0.012095,0.012131,0.05,-0.01,10.10
76127888,-0.057023,0.021682,0.014261,-0.52,-0.34,9.05
76128897,-0.074067,0.011030,0.011065,0.36,-0.11,9.54
76129906,-0.064480,0.022748,0.008935,0.28,-0.21,9.74
76130913,-0.064480,0.047249,0.005739,-0.51,-0.05,9.26
76131930,-0.079393,0.050445,0.000413,0.39,-0.12,10.06
76132958,-0.063414,0.048315,-0.002783,0.37,-0.36,10.27
76133945,-0.049566,0.057902,-0.004914,-0.47,0.02,9.65
76134952,-0.060218,0.067490,-0.009175,0.48,-0.06,10.31
76135962,-0.055957,0.071751,-0.008110,0.45,-0.35,10.06
76136979,-0.048500,0.078142,-0.007044,-0.62,-0.19,9.07
76137982,-0.044239,0.079208,-0.016632,0.38,-0.15,9.90
76138992,-0.023999,0.058967,-0.019828,0.52,-0.05,9.96
76140002,-0.029325,0.053641,-0.018762,-0.68,-0.22,9.09
76141012,-0.031456,0.061098,-0.020893,0.31,-0.38,10.12
76142029,-0.009085,0.044053,-0.020893,0.51,-0.02,10.38
76143058,-0.019738,0.039792,-0.018762,-0.71,-0.33,9.39
76144047,-0.021868,0.055771,-0.018762,0.26,-0.46,10.20
76145053,-0.000563,0.034466,-0.014501,0.47,0.13,10.23
76146063,-0.005889,0.009964,-0.009175,-0.70,-0.51,9.13
76147080,0.011155,0.019552,-0.005979,-0.10,-1.03,9.60
76148083,0.049506,-0.003884,0.000413,0.22,0.09,9.98
76149093,0.056962,-0.043300,0.006804,-0.40,-0.35,9.80
76150103,0.046310,-0.041169,0.013196,-0.17,-0.93,9.86
76151125,0.027135,-0.016668,0.018522,0.09,-0.08,10.49
76152128,0.023939,0.004638,0.018522,-0.22,-0.68,10.29
76153169,0.043114,-0.023059,0.020653,-0.37,-0.53,9.74
76154147,0.038853,-0.051822,0.017457,0.02,-0.05,9.50
76155155,0.043114,-0.037973,0.018522,0.06,-0.69,9.00
76156165,0.065485,-0.033712,0.025979,-0.37,-0.16,9.65
76157182,0.079333,-0.052887,0.024914,-0.18,-0.23,9.94
76158185,0.078268,-0.055018,0.017457,0.16,-0.36,10.18
76159195,0.084660,-0.052887,0.014261,-0.18,-0.04,10.47
76160205,0.079333,-0.074193,0.014261,-0.34,-0.42,9.66
76161226,0.063354,-0.084846,0.008935,0.33,-0.03,9.89
76162229,0.070811,-0.061409,0.006804,0.08,-0.04,10.02
76163266,0.067615,-0.049691,0.004674,-0.49,-0.14,9.20
76164247,0.052701,-0.065671,-0.001718,0.44,0.01,9.54
76165253,0.075072,-0.069932,-0.003849,0.33,-0.28,9.73
76166263,0.081464,-0.059279,-0.005979,-0.41,0.15,9.55
76167280,0.049506,-0.051822,-0.013436,0.51,0.04,10.33
76168291,0.038853,-0.049691,-0.015567,0.48,-0.44,10.20
76169293,0.031396,-0.044365,-0.018762,-0.33,0.09,9.43
76170303,0.022874,-0.042234,-0.025154,0.55,0.03,10.06
76171325,0.023939,-0.039039,-0.026219,0.54,-0.29,9.82
76172328,-0.001628,-0.019863,-0.026219,-0.47,0.00,9.09
76173369,-0.017607,-0.008145,-0.027285,0.47,-0.11,10.01
76174347,-0.001628,-0.016668,-0.021958,0.52,-0.10,10.09
76175355,-0.013346,-0.008145,-0.017697,-0.60,-0.08,9.36
76176365,-0.027195,0.002507,-0.016632,0.44,-0.25,10.25
76177382,0.005829,-0.021994,-0.009175,0.53,0.04,10.23
76178385,-0.005889,-0.025190,-0.002783,-0.72,-0.17,9.19
76179395,-0.028260,-0.002819,0.000413,0.27,-0.41,10.02
76180405,-0.001628,-0.018798,0.006804,0.44,0.13,10.18
76181426,-0.023999,-0.021994,0.007870,-0.74,-0.44,9.10
76182429,-0.038913,0.005703,0.008935,-0.01,-1.00,9.78
76183466,-0.008020,-0.009211,0.015327,0.16,0.12,10.03
76184447,-0.025064,-0.019863,0.020653,-0.53,-0.28,9.68
76185453,-0.066610,0.009964,0.022783,-0.12,-0.99,9.88
76186463,-0.079393,0.038727,0.024914,-0.07,-0.21,10.46
76187480,-0.076198,0.051510,0.021718,-0.25,-0.56,10.43
76188483,-0.050631,0.033401,0.022783,-0.27,-0.63,9.80
76189493,-0.032521,0.001442,0.023849,-0.17,-0.09,9.43
76190503,-0.044239,0.006769,0.020653,-0.11,-0.75,9.02
76191525,-0.055957,0.022748,0.018522,-0.42,-0.28,9.48
76192561,-0.064480,0.024878,0.015327,-0.26,-0.11,9.79
76193537,-0.075132,0.029139,0.013196,0.07,-0.38,10.05
76194545,-0.078328,0.052576,0.004674,-0.39,-0.52,9.76
76195555,-0.066610,0.051510,-0.001718,0.22,-0.11,10.01
76196565,-0.054892,0.069620,-0.003849,0.04,-0.02,10.14
76197582,-0.055957,0.069620,-0.005979,-0.42,-0.26,8.85
76198585,-0.070871,0.051510,-0.014501,0.45,-0.05,9.23
76199595,-0.065545,0.069620,-0.018762,0.31,-0.29,9.77
76200605,-0.051696,0.086665,-0.020893,-0.41,0.05,9.60
76201626,-0.060218,0.072816,-0.027285,0.47,-0.06,10.37
76202659,-0.055957,0.069620,-0.029415,0.45,-0.55,10.40
76203637,-0.028260,0.065359,-0.028350,-0.34,0.06,9.65
76204643,-0.023999,0.054706,-0.030481,0.55,0.04,10.24
76205653,-0.017607,0.056837,-0.027285,0.58,-0.35,9.89
76206666,-0.014411,0.056837,-0.020893,-0.39,0.06,8.96
76207688,-0.016542,0.044053,-0.024089,0.47,-0.12,9.72
76208692,0.007960,0.030205,-0.020893,0.51,-0.21,9.89
