time_us,gyro_x_rad_s,gyro_y_rad_s,gyro_z_rad_s,acc_x_m_s2,acc_y_m_s2,acc_z_m_s2
473368211,-0.077652,0.052696,0.696346,-1.15,-0.50,9.42
473369216,-0.104284,0.052696,0.698477,-1.08,-0.58,9.92
473369814,-0.112806,0.075066,0.700607,-1.05,-0.49,10.40
473370823,-0.100023,0.093176,0.702738,-1.14,-0.57,10.86
473371829,-0.071260,0.092111,0.703803,-1.14,-0.44,10.85
473372839,-0.048889,0.074001,0.704868,-1.05,-0.31,10.44
473373853,-0.038237,0.056957,0.708064,-0.93,-0.42,9.74
473374863,-0.031845,0.048434,0.710195,-0.93,-0.45,9.05
473375877,-0.019062,0.052696,0.712325,-0.81,-0.32,8.95
473376887,-0.003082,0.071871,0.717652,-0.88,-0.20,9.35
473377893,0.010766,0.088915,0.722978,-0.83,-0.19,9.90
473378942,0.020354,0.102764,0.726174,-0.79,-0.10,10.47
473379953,0.027811,0.117678,0.726174,-0.66,-0.12,10.79
473380938,0.032072,0.140049,0.726174,-0.50,-0.15,11.05
473381929,0.036333,0.158158,0.727239,-0.38,-0.15,10.91
473382939,0.041659,0.173072,0.729370,-0.17,-0.25,10.31
473383953,0.043790,0.184790,0.732566,0.07,-0.37,9.72
473384963,0.041659,0.199704,0.737892,0.23,-0.46,9.48
473385975,0.036333,0.218879,0.744284,0.32,-0.45,9.74
473386986,0.027811,0.234859,0.751741,0.44,-0.54,10.11
473387993,0.021419,0.241250,0.762394,0.55,-0.61,10.49
473389003,0.018223,0.245511,0.774111,0.59,-0.52,10.89
473390010,0.019289,0.246577,0.783699,0.61,-0.58,11.06
473391027,0.025680,0.236989,0.794352,0.52,-0.70,10.88
473392041,0.037398,0.202900,0.808201,0.54,-0.59,10.18
473393080,0.037398,0.162419,0.823115,0.63,-0.56,9.51
473394082,0.019289,0.146440,0.840159,0.57,-0.58,8.94
473395087,-0.009474,0.163485,0.858269,0.41,-0.57,8.63
473396076,-0.024388,0.184790,0.876379,0.20,-0.62,8.81
473397090,-0.024388,0.185856,0.892358,0.05,-0.55,9.13
473398097,-0.027584,0.168811,0.905141,-0.04,-0.45,9.40
473399107,-0.042498,0.149636,0.916859,-0.06,-0.50,9.54
473400132,-0.061673,0.142179,0.926447,-0.07,-0.57,9.77
473401159,-0.076587,0.146440,0.932838,-0.20,-0.50,10.03
473402175,-0.079783,0.149636,0.936034,-0.32,-0.54,10.11
473403189,-0.071260,0.140049,0.936034,-0.41,-0.52,9.96
473404173,-0.057412,0.117678,0.931773,-0.43,-0.50,9.56
473405179,-0.040367,0.098503,0.927512,-0.41,-0.50,9.19
473406215,-0.027584,0.097437,0.922186,-0.37,-0.44,9.07
473407186,-0.019062,0.108090,0.916859,-0.34,-0.53,8.96
473408230,-0.002017,0.120874,0.909402,-0.41,-0.57,9.21
473409214,0.023550,0.124069,0.904076,-0.40,-0.48,9.61
473410214,0.043790,0.117678,0.898749,-0.44,-0.37,10.08
473411223,0.045921,0.108090,0.894488,-0.47,-0.38,10.18
473412233,0.036333,0.098503,0.891292,-0.41,-0.41,10.06
473413243,0.022484,0.079328,0.887031,-0.42,-0.34,9.53
473414253,0.017158,0.069740,0.885966,-0.44,-0.27,9.31
473415263,0.002244,0.062283,0.883835,-0.36,-0.26,9.08
473416275,-0.019062,0.056957,0.880640,-0.27,-0.30,8.99
473417289,-0.037171,0.056957,0.880640,-0.31,-0.27,9.23
473418297,-0.045694,0.059087,0.880640,-0.30,-0.35,9.51
473419308,-0.044628,0.059087,0.880640,-0.28,-0.35,9.83
473420316,-0.038237,0.052696,0.879574,-0.32,-0.26,9.95
473421328,-0.027584,0.039912,0.879574,-0.30,-0.31,9.91
473422352,-0.011605,0.024998,0.881705,-0.25,-0.28,9.80
473423350,0.002244,0.013280,0.884901,-0.27,-0.24,9.58
473424382,0.013962,0.002627,0.885966,-0.26,-0.33,9.36
473425400,0.026745,-0.010156,0.885966,-0.26,-0.28,9.23
473426415,0.034202,-0.019744,0.888097,-0.34,-0.21,9.28
473427413,0.034202,-0.025070,0.891292,-0.34,-0.26,9.33
473428411,0.033137,-0.021874,0.893423,-0.31,-0.21,9.49
473429419,0.028876,-0.017613,0.896619,-0.31,-0.19,9.57
473430419,0.021419,-0.017613,0.899815,-0.33,-0.22,9.73
473431427,0.008636,-0.022939,0.901945,-0.30,-0.28,9.67
473432442,-0.005213,-0.033592,0.905141,-0.27,-0.35,9.64
473433496,-0.015866,-0.044245,0.910468,-0.24,-0.34,9.60
473434459,-0.022257,-0.054898,0.914729,-0.16,-0.37,9.42
473435474,-0.027584,-0.063420,0.916859,-0.12,-0.43,9.41
473436479,-0.032910,-0.069812,0.921120,-0.14,-0.39,9.49
473437483,-0.033976,-0.078334,0.922186,-0.13,-0.44,9.56
473438503,-0.025453,-0.091117,0.922186,-0.14,-0.46,9.74
473439507,-0.011605,-0.104966,0.922186,-0.19,-0.40,9.83
473440517,-0.003082,-0.116684,0.922186,-0.18,-0.40,9.83
473441526,0.002244,-0.123076,0.922186,-0.18,-0.40,9.77
473442535,0.007570,-0.129467,0.918990,-0.19,-0.42,9.61
473443542,0.013962,-0.134794,0.914729,-0.24,-0.39,9.52
473444553,0.018223,-0.139055,0.911533,-0.23,-0.41,9.37
473445566,0.016093,-0.142251,0.910468,-0.23,-0.37,9.34
473446575,0.006505,-0.144381,0.908337,-0.23,-0.34,9.38
473447590,-0.004148,-0.144381,0.908337,-0.15,-0.36,9.43
473448593,-0.010539,-0.143316,0.908337,-0.16,-0.30,9.63
473449603,-0.013735,-0.144381,0.907272,-0.18,-0.31,9.80
473450614,-0.015866,-0.152904,0.904076,-0.13,-0.41,9.83
473451623,-0.015866,-0.164622,0.900880,-0.06,-0.34,9.81
473452633,-0.013735,-0.174209,0.899815,-0.06,-0.33,9.76
473453643,-0.011605,-0.179536,0.901945,-0.05,-0.35,9.68
473454653,-0.011605,-0.182732,0.903011,-0.05,-0.28,9.56
473455666,-0.011605,-0.182732,0.899815,-0.08,-0.31,9.58
473456675,-0.004148,-0.185927,0.896619,-0.10,-0.29,9.67
473457690,0.004375,-0.191254,0.895554,-0.09,-0.24,9.69
473458693,0.010766,-0.193384,0.894488,-0.10,-0.26,9.72
473459703,0.011832,-0.193384,0.894488,-0.10,-0.26,9.80
473460713,0.012897,-0.195515,0.895554,-0.04,-0.25,9.81
473461723,0.013962,-0.198711,0.895554,-0.06,-0.20,9.83
473462733,0.012897,-0.201907,0.894488,-0.07,-0.27,9.76
473463743,0.007570,-0.204037,0.895554,-0.01,-0.28,9.70
473464753,0.003309,-0.206168,0.896619,-0.01,-0.21,9.67
473465766,0.001179,-0.207233,0.897684,0.00,-0.26,9.63
473466775,-0.003082,-0.206168,0.897684,0.04,-0.23,9.73
473467790,-0.007344,-0.207233,0.900880,0.04,-0.26,9.68
473468793,-0.010539,-0.210429,0.901945,0.03,-0.30,9.77
473469803,-0.009474,-0.212559,0.903011,0.07,-0.30,9.84
473470814,-0.008409,-0.215755,0.903011,0.09,-0.28,9.87
473471823,-0.006278,-0.217886,0.900880,0.10,-0.28,9.86
473472833,-0.004148,-0.217886,0.900880,0.12,-0.28,9.85
473473843,-0.000952,-0.218951,0.901945,0.12,-0.29,9.83
473474853,0.003309,-0.221082,0.903011,0.11,-0.31,9.78
473475866,0.005440,-0.223212,0.903011,0.13,-0.30,9.78
473476875,0.003309,-0.225343,0.898749,0.15,-0.31,9.80
473477890,0.003309,-0.228539,0.895554,0.15,-0.30,9.84
473478893,0.003309,-0.228539,0.895554,0.19,-0.28,9.82
473479903,0.001179,-0.227473,0.893423,0.17,-0.29,9.74
473480913,-0.002017,-0.227473,0.889162,0.16,-0.27,9.78
473481923,-0.005213,-0.226408,0.885966,0.18,-0.24,9.82
473482933,-0.006278,-0.226408,0.882770,0.23,-0.34,9.62
473483943,0.005440,-0.218951,0.879574,0.71,0.05,10.27
473484953,0.072553,-0.181666,0.864660,-0.25,-0.24,11.91
473485963,0.111968,-0.155034,0.857203,0.17,-0.20,12.06
473486971,0.115164,-0.134794,0.852942,1.10,0.65,11.35
473487987,0.068291,-0.079399,0.844420,0.54,0.26,11.78
473488989,0.021419,-0.005895,0.828441,0.19,-0.79,11.12
473489999,0.054443,0.024998,0.826310,0.06,-0.37,10.51
473491014,0.052312,0.001562,0.839094,1.55,0.20,9.09
473492023,-0.019062,0.051630,0.848681,1.46,-0.78,8.84
473493033,-0.101088,0.100633,0.850812,0.70,-0.71,9.21
473494043,-0.074456,0.082523,0.855073,0.53,-0.63,10.21
473495053,-0.020127,0.002627,0.865726,1.25,-0.54,9.94
473496066,-0.006278,-0.025070,0.878509,1.72,-0.11,9.57
473497075,-0.035041,0.020737,0.883835,0.75,-0.53,10.65
473498090,-0.060608,0.030325,0.884901,0.42,-0.62,10.60
473499093,-0.039302,-0.018678,0.890227,0.69,-0.33,10.09
473500103,-0.007344,-0.068746,0.895554,0.67,-0.03,9.20
473501113,-0.005213,-0.080465,0.896619,0.34,0.03,8.79
473502120,-0.022257,-0.080465,0.894488,-0.01,-0.40,8.57
473503129,-0.015866,-0.070877,0.895554,-0.03,-0.23,9.24
473504143,0.003309,-0.053833,0.899815,0.28,0.20,9.50
473505153,0.007570,-0.020809,0.897684,-0.25,-0.14,10.00
473506167,-0.000952,-0.011221,0.888097,-0.57,-0.25,10.06
473507175,-0.006278,-0.038919,0.880640,-0.29,-0.09,10.08
473508190,-0.007344,-0.064485,0.878509,0.09,0.12,9.89
473509193,-0.002017,-0.051702,0.864660,-0.40,-0.22,9.74
473510203,0.001179,-0.029331,0.851877,-0.33,-0.38,9.82
473511214,0.017158,-0.017613,0.842289,0.05,0.03,9.84
473512223,0.008636,-0.006960,0.829506,-0.30,-0.28,10.06
473513233,0.010766,-0.021874,0.797548,-0.60,-0.28,10.04
473514243,0.034202,-0.047441,0.787960,0.01,-0.22,9.60
473515253,0.035268,-0.035723,0.780503,0.28,0.38,9.69
473516266,-0.000952,0.005823,0.773046,-0.42,-0.34,9.98
473517275,-0.031845,0.010084,0.766655,-0.30,-0.45,9.58
473518295,-0.016931,-0.032527,0.762394,0.10,0.03,8.94
473519297,0.018223,-0.059159,0.757067,0.16,-0.16,8.92
473520309,0.019288,-0.039984,0.754937,0.13,0.09,9.62
473521316,-0.000952,-0.012287,0.753871,0.19,-0.07,9.96
473522329,-0.017996,-0.011221,0.751741,0.39,-0.17,10.08
473523337,0.005440,-0.030396,0.742153,0.27,-0.11,10.53
473524346,0.048051,-0.057028,0.731500,0.15,-0.28,10.37
473525359,0.066161,-0.080465,0.726174,0.66,0.13,9.72
473526373,0.052312,-0.066616,0.718717,0.68,0.07,9.73
473527382,0.052312,-0.042114,0.703803,-0.18,-0.58,10.00
473528396,0.072553,-0.048506,0.700607,0.08,-0.07,9.97
473529405,0.078944,-0.061290,0.708064,0.68,0.47,9.19
473530417,0.019288,-0.041049,0.711260,0.52,0.01,9.08
473531421,-0.017996,-0.002699,0.703803,-0.19,-0.50,10.05
473532427,0.003309,-0.008025,0.705934,-0.03,-0.35,10.48
473533442,0.020354,-0.047441,0.716586,1.00,0.41,9.93
473534455,-0.020127,-0.028266,0.724043,1.02,0.07,9.74
473535484,-0.044628,0.022868,0.718717,-0.14,-0.79,10.60
473536474,-0.012670,0.021802,0.721913,-0.03,-0.37,10.81
473537476,0.027811,-0.030396,0.732566,1.15,0.24,9.85
473538490,0.009701,-0.031462,0.736827,0.92,-0.13,9.20
473539519,-0.012670,0.001562,0.728304,-0.19,-0.77,9.59
473540507,0.006505,-0.003764,0.729370,-0.12,-0.52,9.83
473541542,0.034202,-0.044245,0.740023,0.97,0.19,9.57
473542526,0.000113,-0.030396,0.744284,0.40,-0.19,9.63
473543535,-0.056346,-0.008025,0.734696,-0.07,-0.58,9.73
473544542,-0.023323,-0.017613,0.721913,-0.52,-0.65,10.09
473545556,0.025680,-0.057028,0.724043,0.47,-0.01,9.83
473546565,0.025680,-0.035723,0.726174,0.65,0.38,9.72
473547580,-0.047824,0.017541,0.718717,-0.18,-0.38,9.95
473548583,-0.056346,0.019672,0.703803,-0.65,-0.81,10.27
473549593,0.021419,-0.032527,0.698477,-0.21,-0.33,9.97
473550603,0.069357,-0.063420,0.699542,0.63,0.42,9.70
473551614,0.018223,-0.018678,0.695281,-0.09,-0.40,9.35
473552623,-0.061673,0.006888,0.682497,-0.02,-0.85,8.96
473553633,-0.024388,-0.001634,0.663322,-0.30,-0.52,9.84
473554643,0.037398,-0.036788,0.655865,0.34,-0.13,10.02
473555656,0.037398,-0.034657,0.648408,0.55,0.15,9.98
473556665,-0.025453,-0.015482,0.634560,-0.22,-0.68,9.69
473557680,-0.033976,-0.025070,0.620711,-0.09,-0.60,9.91
473558683,0.048051,-0.042114,0.607928,-0.48,0.10,10.40
473559693,0.090662,-0.060224,0.608993,0.28,0.17,9.95
473560703,0.055508,-0.036788,0.608993,0.18,0.17,9.37
473561713,-0.017996,-0.018678,0.606862,-0.27,-0.43,8.81
473562723,-0.010539,-0.022939,0.603667,-0.04,-0.41,9.46
473563733,0.058704,-0.033592,0.602601,-0.35,0.25,9.94
473564743,0.060834,-0.047441,0.611124,0.27,0.40,9.66
473565756,0.001179,-0.026135,0.615385,0.16,0.00,9.50
473566765,-0.056346,-0.003764,0.618581,0.04,-0.20,9.90
473567780,-0.011605,0.010084,0.620711,-0.16,-0.16,11.03
473568780,0.055508,-0.009091,0.627103,-0.18,0.15,10.63
473569793,0.039529,-0.036788,0.638821,0.82,0.33,9.32
473570803,-0.026519,-0.005895,0.645213,0.45,-0.60,8.67
473571810,-0.051020,0.030325,0.649474,0.16,-0.58,9.71
473572823,0.019289,0.020737,0.653735,-0.18,-0.02,10.82
473573829,0.050182,-0.041049,0.666518,0.63,0.05,9.74
473574843,0.020354,-0.052767,0.677171,0.92,-0.01,9.28
473575857,-0.045694,0.000497,0.680367,0.01,-0.77,9.40
473576865,-0.033976,0.018607,0.681432,-0.01,-0.62,10.53
473577880,0.036333,-0.027201,0.680367,-0.18,-0.14,10.38
473578883,0.041659,-0.077269,0.688889,0.80,-0.34,9.61
473579893,-0.013735,-0.034657,0.691020,0.76,-0.27,8.84
473580903,-0.071260,0.030325,0.688889,0.09,-0.80,9.86
473581913,-0.035041,0.027129,0.679302,-0.45,-0.71,11.15
473582920,0.022484,-0.037853,0.675040,-0.05,-0.45,10.13
473583933,0.031007,-0.079399,0.677171,0.90,-0.36,9.06
473584943,-0.015866,-0.041049,0.675040,0.19,-0.16,9.14
473585956,-0.051020,0.023933,0.663322,-0.41,-1.01,10.25
473586965,-0.008409,0.033520,0.655865,-0.60,-0.47,10.61
473587973,0.018223,-0.030396,0.656931,0.34,0.31,9.62
473588983,-0.020127,-0.050637,0.655865,0.49,-0.54,8.70
473589989,-0.059542,-0.026135,0.647343,-0.31,-0.80,9.15
473591003,-0.010539,0.000497,0.636690,-0.62,-0.30,10.64
473592014,0.037398,-0.027201,0.634560,0.09,0.18,10.56
473593023,0.013962,-0.045310,0.629233,0.57,0.11,9.34
473594033,-0.044628,-0.029331,0.614319,-0.23,-0.67,9.35
473595043,-0.021192,-0.008025,0.599405,-0.60,-0.57,9.95
473596056,0.039529,-0.025070,0.599405,0.11,0.38,10.33
473597065,0.035268,-0.030396,0.600471,0.77,0.58,9.95
473598073,-0.023323,-0.008025,0.588753,-0.27,-0.48,9.73
473599083,-0.041433,0.001562,0.578100,-0.37,-0.72,9.27
473600093,0.008636,-0.025070,0.581296,0.56,0.27,9.60
473601103,0.032072,-0.024005,0.583426,0.83,0.47,9.98
473602113,0.002244,0.003693,0.568512,-0.25,-0.33,10.30
473603123,-0.025453,-0.011221,0.563186,0.02,-0.55,9.44
473604133,0.007570,-0.047441,0.569578,1.20,0.41,9.54
473605143,0.027811,-0.028266,0.564251,0.44,0.29,10.39
473606156,-0.004148,0.013280,0.553598,0.02,-0.42,10.43
473607165,-0.008409,0.002627,0.550403,0.33,-0.13,9.84
473608173,0.007570,-0.044245,0.551468,0.98,0.16,9.33
473609183,0.018223,-0.030396,0.544011,0.56,-0.11,9.91
473610193,0.009701,0.011150,0.539750,0.05,-0.26,10.06
473611203,0.008636,0.002627,0.544011,0.52,0.16,9.83
473612214,-0.010539,-0.030396,0.541880,0.71,-0.11,9.25
473613223,0.009701,-0.010156,0.532293,0.16,0.14,10.26
473614233,0.015027,-0.014417,0.532293,0.62,0.30,10.22
473615243,-0.010539,-0.022939,0.523771,0.28,-0.19,9.71
473616256,-0.021192,-0.018678,0.517379,0.28,-0.15,9.67
473617265,0.007570,-0.014417,0.514183,0.25,0.26,10.34
473618273,0.008636,-0.015482,0.509922,0.44,0.06,9.78
473619283,0.002244,-0.013352,0.499269,0.04,-0.20,9.75
473620297,-0.008409,-0.011221,0.496073,0.21,-0.10,9.46
473621309,0.001179,-0.012287,0.495008,0.55,0.14,9.76
473622316,-0.004148,-0.000569,0.489682,-0.41,-0.49,9.37
473623329,-0.012670,-0.010156,0.490747,0.57,0.07,9.45
473624338,0.016093,-0.017613,0.482225,-0.02,0.12,10.24
473625348,-0.014800,-0.029331,0.480094,0.39,-0.46,9.54
473626363,0.003309,-0.004830,0.472637,0.24,0.16,10.61
473627374,0.002244,-0.000569,0.468376,-0.32,-0.53,9.95
473628380,-0.005213,-0.018678,0.466245,0.82,0.00,9.91
473629389,0.000113,-0.010156,0.455593,-0.25,-0.10,9.42
473630441,-0.021192,-0.006960,0.455593,0.23,-0.67,9.47
473631451,0.015027,-0.004830,0.450266,0.07,0.24,10.23
473632466,0.005440,-0.026135,0.448136,0.06,-0.41,9.30
473633432,-0.005213,-0.016548,0.443875,0.37,-0.33,10.01
473634442,-0.002017,0.001562,0.436418,-0.41,-0.39,9.54
473635455,-0.009474,-0.018678,0.436418,0.62,-0.15,9.73
473636462,0.011832,-0.020809,0.425765,0.01,0.11,10.24
473637473,-0.014800,-0.021874,0.421504,0.25,-0.62,9.52
473638508,0.006505,-0.009091,0.415112,0.24,0.03,10.38
473639483,0.015027,-0.014417,0.410851,-0.27,-0.32,9.82
473640497,-0.003082,-0.018678,0.407655,0.75,-0.16,9.86
473641507,0.005440,0.007954,0.392741,-0.33,-0.06,9.91
473642517,-0.016931,-0.002699,0.393806,0.20,-0.41,9.30
473643557,0.005440,-0.012287,0.395937,0.30,0.11,10.08
473644571,-0.004148,-0.017613,0.397002,-0.01,-0.51,9.34
473645564,-0.002017,-0.012287,0.394872,0.39,-0.10,9.98
473646600,0.006505,-0.003764,0.388480,-0.26,-0.09,9.85
473647605,-0.014800,-0.018678,0.389545,0.52,-0.44,9.87
473648587,0.007570,-0.009091,0.381023,-0.11,-0.05,10.26
473649587,-0.000952,-0.018678,0.378892,0.19,-0.22,9.67
473650597,0.017158,-0.017613,0.373566,0.36,0.05,10.30
473651606,0.004375,-0.012287,0.371435,-0.14,-0.33,9.40
473652618,-0.010539,-0.005895,0.373566,0.65,-0.09,9.54
473653641,0.003309,0.006888,0.368240,-0.29,-0.14,9.62
473654649,-0.016931,-0.011221,0.369305,0.37,-0.34,9.40
473655671,0.008636,-0.013352,0.365044,0.28,0.15,10.23
473656682,-0.002017,-0.025070,0.365044,0.15,-0.49,9.63
473657689,0.000113,-0.021874,0.362913,0.68,0.09,10.31
473658698,0.012897,-0.004830,0.352260,-0.37,0.00,10.06
473659707,-0.014800,-0.010156,0.351195,0.46,-0.22,9.60
473660693,-0.005213,-0.002699,0.344803,0.17,0.17,9.94
473661712,-0.013735,-0.000569,0.340542,-0.05,-0.66,9.48
473662713,0.003309,0.003693,0.336281,0.37,0.04,10.34
473663723,0.015027,-0.004830,0.332020,-0.22,-0.15,9.76
473664733,-0.012670,-0.024005,0.333085,0.64,-0.41,9.36
473665748,0.001179,-0.005895,0.326694,-0.02,0.15,9.96
473666754,-0.006278,-0.003764,0.326694,0.09,-0.38,9.61
473667763,0.011832,-0.005895,0.323498,0.46,0.01,10.32
473668773,0.004375,-0.010156,0.319237,-0.11,-0.23,9.54
473669783,-0.014800,-0.011221,0.319237,0.50,-0.26,9.57
473670793,0.005440,-0.000569,0.313910,-0.31,-0.03,9.84
473671803,-0.004148,-0.017613,0.313910,0.30,-0.28,9.48
473672854,0.012897,-0.012287,0.304323,0.25,0.08,10.21
473673851,-0.004148,-0.009091,0.297931,0.02,-0.26,9.66
473674833,-0.002017,-0.006960,0.294735,0.41,-0.14,10.10
473675867,0.006505,-0.002699,0.290474,-0.22,-0.21,9.79
473676887,-0.000952,-0.012287,0.291539,0.55,-0.14,9.74
473677863,0.017158,-0.001634,0.284082,-0.05,-0.05,10.00
473678873,-0.005213,-0.006960,0.281952,0.21,-0.37,9.36
473679883,0.002244,-0.006960,0.279821,0.49,0.09,9.91
473680893,-0.006278,-0.002699,0.278756,-0.13,-0.37,9.57
473681903,-0.020127,-0.002699,0.280887,0.67,-0.06,9.76
473682913,-0.000952,0.003693,0.271299,-0.07,-0.05,9.94
473683923,-0.015866,-0.017613,0.267038,0.37,-0.47,9.62
473684933,0.007570,-0.017613,0.260646,0.44,0.23,10.38
473685948,0.005440,-0.014417,0.258516,-0.07,-0.32,9.99
473686954,-0.002017,-0.014417,0.254255,0.61,-0.10,10.03
473687963,0.010766,-0.001634,0.243602,-0.22,-0.05,9.86
473688973,-0.008409,-0.009091,0.242536,0.39,-0.31,9.37
473689983,0.006505,-0.000569,0.236145,0.33,0.17,9.80
473690993,-0.011605,0.001562,0.235079,-0.15,-0.49,9.29
473692003,-0.014800,-0.004830,0.235079,0.63,0.02,9.66
473693014,0.005440,-0.005895,0.227623,-0.02,-0.02,9.92
473694023,-0.004148,-0.016548,0.223361,0.41,-0.35,9.82
473695033,0.015027,-0.011221,0.215904,0.28,0.35,10.22
473696048,-0.004148,-0.014417,0.211643,0.33,-0.23,9.64
473697054,-0.014800,-0.010156,0.204186,0.74,-0.05,10.06
473698063,-0.004148,0.004758,0.192468,-0.01,0.03,10.11
473699073,0.000113,-0.004830,0.186077,0.47,-0.16,9.93
473700083,0.020354,-0.012287,0.176489,0.12,0.11,9.90
473701093,0.007570,-0.021874,0.172228,0.34,-0.12,9.27
473702103,0.008636,-0.008025,0.163706,0.39,0.01,9.76
473703113,-0.000952,0.002627,0.156249,0.11,-0.11,9.66
473704123,-0.004148,-0.003764,0.149857,0.44,-0.03,9.94
473705133,0.002244,-0.006960,0.143465,0.14,0.07,9.89
473706148,-0.005213,-0.011221,0.141335,0.55,0.01,9.74
473707154,0.001179,-0.000569,0.134943,0.28,0.08,9.96
473708163,-0.002017,0.000497,0.128551,0.24,0.03,9.82
473709173,0.001179,-0.003764,0.118964,0.38,0.04,9.95
473710183,-0.002017,-0.008025,0.112572,0.29,0.01,9.67
473711193,-0.002017,-0.005895,0.105115,0.41,-0.02,9.75
473712203,0.002244,0.004758,0.098724,0.21,-0.08,9.82
473713214,0.004375,0.000497,0.088071,0.37,0.00,9.86
473714223,-0.002017,-0.003764,0.081679,0.39,-0.13,9.78
473715233,-0.000952,-0.002699,0.074222,0.39,-0.11,9.82
473716248,-0.000952,-0.000569,0.067830,0.28,-0.04,9.85
473717254,-0.000952,-0.003764,0.060373,0.35,-0.09,9.87
473718263,-0.003082,-0.004830,0.051851,0.27,-0.09,9.84
473719273,-0.004148,-0.005895,0.046525,0.26,-0.10,9.71
473720283,-0.003082,-0.003764,0.042264,0.24,-0.08,9.77
473721297,-0.004148,-0.001634,0.038003,0.25,-0.04,9.88
473722309,-0.005213,-0.000569,0.031611,0.21,-0.08,9.95
473723316,-0.005213,-0.004830,0.026284,0.22,-0.13,9.88
473724330,-0.002017,-0.006960,0.020958,0.20,-0.11,9.86
473725341,0.001179,-0.003764,0.016697,0.11,-0.08,9.92
473726353,0.001179,0.000497,0.011371,0.10,-0.10,9.79
473727358,0.001179,-0.000569,0.006044,0.06,-0.16,9.71
473728373,0.001179,-0.002699,0.003914,0.05,-0.23,9.70
473729380,0.003309,-0.001634,0.002848,0.03,-0.26,9.80
473730388,0.004375,-0.001634,0.000718,0.00,-0.29,9.85
473731400,0.002244,-0.002699,-0.001413,-0.01,-0.35,9.89
473732409,0.000113,-0.003764,-0.003543,0.01,-0.37,9.84
473733418,0.001179,-0.003764,-0.005674,0.01,-0.38,9.84
473734446,0.001179,0.000497,-0.006739,-0.02,-0.36,9.84
473735442,-0.000952,0.000497,-0.006739,-0.02,-0.36,9.80
473736458,-0.002017,-0.001634,-0.003543,0.00,-0.36,9.80
473737460,-0.003082,-0.002699,0.001783,0.00,-0.36,9.78
473738468,-0.004148,0.001562,0.004979,0.01,-0.32,9.83
473739477,-0.005213,0.005823,0.004979,0.04,-0.30,9.82
473740532,-0.005213,0.006888,0.004979,0.04,-0.33,9.83
473741497,-0.003082,0.004758,0.004979,0.05,-0.26,9.81
473742507,-0.002017,0.004758,0.004979,0.06,-0.20,9.74
473743544,-0.000952,0.004758,0.008175,0.07,-0.20,9.77
473744574,-0.000952,0.004758,0.010305,0.07,-0.19,9.86
473745571,-0.000952,0.004758,0.009240,0.06,-0.18,9.85
473746543,-0.000952,0.003693,0.008175,0.07,-0.21,9.78
473747553,0.001179,0.003693,0.007109,0.07,-0.23,9.78
473748563,0.002244,0.003693,0.004979,0.05,-0.23,9.82
473749573,0.002244,0.004758,0.004979,0.04,-0.26,9.81
473750583,0.000113,0.002627,0.004979,0.04,-0.31,9.79
473751593,-0.000952,0.000497,0.003914,0.03,-0.35,9.82
473752603,-0.000952,0.000497,-0.001413,0.02,-0.34,9.83
473753614,-0.000952,0.000497,-0.005674,0.01,-0.32,9.84
473754623,0.000113,0.000497,-0.005674,0.01,-0.33,9.86
473755638,-0.000952,-0.000569,-0.005674,0.00,-0.33,9.86
473756644,-0.003082,-0.000569,-0.005674,0.01,-0.32,9.83
473757663,-0.005213,-0.000569,-0.003543,0.01,-0.32,9.81
473758698,-0.005213,0.000497,-0.000348,0.00,-0.31,9.81
473759714,-0.006278,0.000497,0.001783,-0.01,-0.28,9.82
473760710,-0.006278,0.000497,0.002848,0.04,-0.25,9.81
473761703,-0.004148,0.000497,0.003914,0.06,-0.21,9.85
473762708,-0.002017,0.001562,0.006044,0.06,-0.20,9.87
473763718,-0.002017,0.001562,0.006044,0.05,-0.23,9.81
473764731,-0.003082,0.000497,0.008175,0.02,-0.25,9.76
473765742,-0.002017,0.001562,0.008175,0.01,-0.25,9.80
473766778,0.000113,0.001562,0.008175,0.04,-0.27,9.86
473767765,-0.002017,0.002627,0.006044,0.05,-0.26,9.85
473768786,-0.004148,0.001562,0.004979,0.07,-0.25,9.85
473769782,-0.003082,-0.000569,0.006044,0.06,-0.27,9.87
473770815,-0.000952,-0.000569,0.007109,0.04,-0.30,9.86
473771811,0.000113,-0.000569,0.008175,0.04,-0.28,9.79
473772841,-0.000952,-0.000569,0.006044,0.03,-0.26,9.75
473773814,-0.002017,0.000497,0.006044,0.03,-0.28,9.80
473774823,-0.002017,0.002627,0.003914,0.02,-0.31,9.83
473775838,-0.003082,0.001562,0.002848,0.03,-0.30,9.86
473776866,-0.004148,-0.001634,0.002848,0.04,-0.26,9.87
473777866,-0.003082,-0.000569,0.002848,0.03,-0.25,9.82
473779449,0.002244,0.003693,0.006044,0.04,-0.25,9.78
473780843,0.001179,0.006888,0.009240,0.05,-0.30,9.73
473781864,-0.006278,0.023933,0.017762,0.01,-0.46,9.76
473782875,-0.012670,0.021802,0.011371,0.06,-0.44,9.84
473783900,-0.012670,0.010084,-0.003543,0.15,-0.21,9.87
473784912,-0.012670,0.005823,-0.012066,0.20,-0.35,9.86
473785926,-0.009474,0.003693,-0.017392,0.20,0.01,9.91
473786944,-0.005213,0.002627,-0.016327,0.03,0.04,9.85
473787924,-0.000952,0.001562,-0.002478,-0.18,-0.18,9.78
473788936,0.007570,0.001562,0.010305,-0.37,-0.31,10.04
473789959,0.018223,-0.004830,0.004979,-0.28,-0.86,9.78
473790978,0.011832,-0.005895,-0.017392,0.52,-0.68,9.58
473791980,-0.014800,0.005823,-0.030175,0.88,0.26,9.80
473792979,-0.031845,0.014345,-0.016327,-0.03,0.56,10.01
473793990,-0.012670,0.000497,0.012436,-1.03,-0.99,9.88
473795000,0.026745,-0.025070,0.023089,-0.14,-1.28,9.56
473796025,0.023550,-0.022939,0.007109,1.32,1.07,9.41
473797031,-0.022257,0.021802,0.012436,0.32,0.48,10.03
473798034,-0.031845,0.032455,0.039068,-1.35,-2.65,10.43
473799055,0.035268,-0.022939,0.027350,0.14,0.34,9.69
473800056,0.039529,-0.033592,0.010305,1.60,2.31,9.52
473801064,-0.062738,0.018607,0.025219,-0.84,-4.30,10.26
473802064,-0.039302,0.009019,0.018827,-1.03,-0.24,9.00
473803075,0.097054,-0.027201,0.010305,1.35,3.81,10.24
473804085,0.051247,-0.009091,0.034807,-0.98,-5.02,11.30
473805095,-0.042498,-0.013352,0.030546,-0.90,1.68,8.17
473806109,0.010766,0.003693,0.048655,0.97,0.45,8.89
473807123,0.027811,0.059087,0.067830,-1.44,-2.74,10.67
473808124,0.013962,0.021802,0.072092,0.23,2.67,8.57
473809136,0.005440,0.047369,0.098724,0.24,-3.38,12.11
473810144,-0.033976,0.000497,0.093397,0.39,0.90,7.57
473811155,0.006505,-0.034657,0.116833,0.27,-1.88,10.79
473812164,0.012897,-0.009091,0.118964,-0.03,0.29,9.20
473813175,0.002244,0.018607,0.142400,-0.50,-0.05,10.02
473814185,-0.012670,-0.025070,0.155183,0.32,-0.63,10.22
473815195,0.005440,-0.017613,0.154118,0.33,-0.52,9.22
473816218,0.009701,-0.021874,0.160510,-0.34,0.24,9.07
473817223,0.009701,0.013280,0.166901,0.15,-2.11,9.03
473818224,0.036333,-0.002699,0.178620,-0.54,1.71,9.84
473819236,0.029941,-0.002699,0.191403,0.12,-2.79,10.09
473820254,0.007570,-0.012287,0.196729,-0.02,1.78,9.73
473821266,-0.027584,-0.009091,0.186077,-0.40,-2.89,12.83
473822264,-0.033976,-0.016548,0.190338,0.74,0.80,5.81
473823275,-0.026519,-0.014417,0.203121,-0.15,-0.10,13.07
473824300,0.009701,0.003693,0.191403,0.39,-3.16,6.29
473825303,0.033137,0.006888,0.180750,-0.87,3.44,11.89
473826319,0.006505,0.004758,0.186077,0.23,-3.03,11.23
473827331,-0.003082,0.012215,0.191403,1.02,0.02,7.11
473828328,-0.003082,0.003693,0.192468,-0.64,1.67,13.12
473829342,0.020354,-0.013352,0.179685,0.17,-3.80,6.57
473830352,0.025680,-0.008025,0.161575,0.77,2.35,8.70
473831365,-0.003082,0.000497,0.148792,-0.24,0.26,14.02
473832372,-0.019062,-0.008025,0.146661,0.57,-3.90,6.94
473833386,0.015027,-0.015482,0.142400,0.46,2.93,8.97
473834392,0.015027,-0.001634,0.136008,-0.67,0.41,13.52
473835400,-0.008409,0.012215,0.133878,0.43,-3.81,7.36
473836441,-0.009474,0.001562,0.133878,0.59,2.08,8.24
473837428,-0.006278,-0.005895,0.134943,-0.86,2.15,13.24
473838426,-0.005213,0.000497,0.129617,-0.07,-4.07,8.89
473839443,-0.007344,-0.001634,0.131747,1.17,-0.66,7.03
473840448,-0.016931,-0.004830,0.147726,-0.83,4.50,13.19
473841459,-0.027584,-0.006960,0.155183,-0.78,-2.08,12.26
473842467,-0.029714,-0.000569,0.162640,1.27,-3.77,6.47
473843490,-0.012670,0.006888,0.172228,0.13,2.76,8.74
473844490,-0.006278,0.002627,0.181815,-1.26,3.27,12.80
473845499,-0.008409,-0.001634,0.186077,-0.12,-4.36,9.09
473846511,0.000113,-0.015482,0.180750,1.20,-3.68,6.25
473847523,0.012897,-0.015482,0.182881,-0.13,4.58,10.98
473848524,0.002244,0.011150,0.193534,-1.54,2.52,13.72
473849536,-0.016931,0.021802,0.208447,0.05,-5.05,8.70
473850544,-0.009474,0.014345,0.212709,1.44,-3.25,6.06
473851555,-0.008409,0.009019,0.212709,-0.21,3.83,10.44
473852564,-0.002017,-0.000569,0.227623,-1.43,3.80,13.80
473853575,0.012897,-0.020809,0.215904,-0.11,-4.04,10.07
473854585,-0.007344,-0.033592,0.192468,0.95,-5.53,6.11
473855595,-0.022257,-0.039984,0.189272,0.79,2.00,7.42
473856609,-0.008409,-0.019744,0.218035,-1.24,5.17,12.94
473857623,-0.008409,0.003693,0.242536,-1.39,0.10,13.78
473858624,-0.017996,-0.003764,0.236145,0.85,-6.13,7.38
473859636,-0.008409,-0.008025,0.224427,0.80,-2.91,5.08
473860644,-0.000952,-0.010156,0.226557,0.48,3.48,9.10
473861655,0.003309,-0.011221,0.230818,-1.22,5.05,14.78
473862664,-0.012670,-0.009091,0.237210,-1.34,-0.96,13.04
473863675,0.008636,-0.000569,0.244667,0.82,-5.87,7.31
473864685,0.000113,0.010084,0.252124,0.71,-2.60,5.10
473865700,-0.022257,-0.002699,0.248928,0.87,2.12,8.73
473866712,-0.006278,-0.024005,0.234014,-0.89,4.91,14.54
473867715,0.003309,-0.030396,0.234014,-1.76,2.50,14.26
473868724,0.006505,-0.020809,0.240406,0.46,-4.80,8.33
473869736,0.005440,-0.010156,0.246798,0.33,-5.60,5.28
473870744,-0.011605,-0.011221,0.265973,1.29,-0.22,5.79
473871755,-0.014800,-0.011221,0.281952,0.66,3.27,11.29
473872764,-0.003082,-0.010156,0.286213,-1.57,4.94,15.88
473873775,0.013962,-0.015482,0.286213,-0.89,1.30,13.02
473874785,0.008636,-0.010156,0.288344,-0.43,-5.09,8.10
473875800,-0.011605,-0.005895,0.295800,0.76,-5.00,5.06
473876812,-0.016931,-0.000569,0.294735,1.15,-1.14,5.82
473877815,-0.016931,-0.001634,0.295800,1.24,1.74,9.62
473878824,-0.014800,-0.004830,0.293670,-0.14,4.57,15.22
473879836,-0.007344,0.003693,0.295800,-2.15,4.27,14.45
473880844,-0.002017,-0.002699,0.289409,-0.46,-1.95,10.07
473881873,0.000113,-0.008025,0.285148,0.04,-6.12,7.17
473882872,-0.011605,-0.005895,0.287278,0.78,-3.87,5.32
473883875,0.001179,-0.005895,0.287278,1.50,-0.48,6.06
473884885,0.006505,-0.011221,0.291539,1.31,1.76,10.18
473885900,-0.007344,-0.016548,0.286213,0.00,4.27,15.18
473886912,-0.016931,-0.004830,0.280887,-1.97,4.48,14.80
473887915,0.002244,0.001562,0.283017,-0.78,-0.50,10.71
473888924,0.016093,0.007954,0.290474,-0.27,-5.32,8.08
473889936,0.005440,0.010084,0.300062,0.48,-5.15,6.25
473890944,-0.000952,0.006888,0.292605,1.14,-2.33,5.74
473891955,0.000113,0.000497,0.277691,1.71,0.07,7.19
473892964,0.003309,-0.012287,0.265973,1.30,2.42,11.45
473893975,0.009701,-0.014417,0.272364,-0.87,4.41,15.08
473894995,-0.005213,-0.002699,0.289409,-1.36,4.06,14.06
473896015,0.003309,-0.000569,0.284082,-1.39,0.22,10.48
473897012,-0.019062,0.003693,0.286213,-0.18,-4.52,8.34
473898025,0.019288,-0.019744,0.277691,0.15,-5.36,7.57
473899029,0.002244,-0.003764,0.284082,0.74,-3.21,6.11
473900040,-0.024388,-0.001634,0.278756,1.55,-1.26,6.27
473901047,0.027811,-0.029331,0.264907,1.49,0.49,8.57
473902060,0.024615,-0.003764,0.272364,0.85,2.69,12.58
473903075,-0.057412,0.046304,0.296866,-0.70,4.12,14.92
473904080,-0.075521,0.022868,0.293670,-1.54,3.55,13.29
473905106,-0.007344,-0.048506,0.263842,-1.65,0.61,10.53
473906123,0.074683,-0.097509,0.234014,-0.55,-3.21,9.03
473907127,0.110903,-0.098574,0.221231,0.13,-5.02,8.36
473908122,0.104511,-0.077269,0.225492,0.67,-4.16,6.77
473909138,0.089597,-0.053833,0.232949,1.14,-2.27,6.39
473910136,0.078944,-0.048506,0.241471,1.70,-0.68,7.15
473911144,0.085336,-0.063420,0.241471,1.68,0.78,9.53
473912155,0.069357,-0.084726,0.246798,0.90,2.42,12.63
473913164,0.029941,-0.082595,0.265973,-0.72,3.78,14.14
473914175,-0.048889,0.032455,0.324563,-1.56,1.33,10.67
473915185,-0.012670,0.034586,0.307519,-1.04,-1.71,9.56
473916205,0.024615,-0.022939,0.284082,-0.07,-4.08,8.93
473917212,0.016093,-0.028266,0.294735,0.44,-4.52,8.51
473918215,-0.013735,0.002627,0.316041,0.88,-2.93,6.59
473919224,0.000113,-0.002699,0.310714,1.16,-1.63,6.66
473920245,-0.009474,-0.008025,0.319237,1.94,-0.67,7.36
473921259,0.001179,-0.004830,0.318171,1.59,0.68,9.83
473922270,-0.005213,-0.013352,0.314976,1.00,1.84,11.77
473923273,-0.008409,-0.005895,0.317106,-0.41,3.26,13.53
473924292,-0.009474,-0.001634,0.314976,-1.66,3.57,13.32
473925298,-0.009474,-0.004830,0.318171,-1.66,2.10,11.42
473926305,-0.007344,-0.002699,0.316041,-1.43,0.09,10.10
473927319,-0.008409,-0.018678,0.314976,-0.53,-2.70,9.34
473928320,-0.000952,-0.008025,0.317106,-0.02,-4.10,9.83
473929330,-0.013735,0.004758,0.328824,0.88,-3.99,7.46
473930353,0.002244,0.002627,0.333085,0.66,-2.73,6.80
473931349,0.005440,0.005823,0.332020,1.04,-1.38,6.76
473932364,-0.008409,-0.010156,0.333085,1.91,-0.62,7.58
473933381,0.003309,-0.027201,0.327759,1.34,0.29,9.10
473934383,0.001179,-0.014417,0.326694,1.07,1.57,11.53
473935395,-0.020127,-0.002699,0.332020,0.20,2.86,13.02
473936405,-0.004148,-0.004830,0.337346,-1.45,3.21,13.26
473937416,0.010766,-0.006960,0.335216,-1.78,2.85,12.17
473938419,-0.011605,0.000497,0.335216,-1.68,1.34,10.84
473939434,-0.016931,-0.005895,0.337346,-1.30,-1.04,10.57
473940446,-0.007344,-0.028266,0.334151,-0.40,-3.03,9.59
473941448,-0.003082,-0.029331,0.329889,0.22,-3.81,8.56
473942459,-0.002017,0.000497,0.335216,0.55,-3.58,7.28
473943467,0.006505,0.010084,0.343738,0.68,-2.28,6.48
473944475,0.018223,-0.008025,0.337346,1.33,-1.33,6.92
473945510,0.006505,-0.016548,0.325628,1.77,-0.49,7.85
473946503,-0.014800,0.001562,0.332020,1.47,0.36,9.36
473947514,-0.012670,0.018607,0.343738,0.78,1.59,11.53
473948515,0.011832,0.005823,0.345869,0.06,2.92,12.96
473949524,0.025680,-0.026135,0.336281,-1.20,3.17,13.30
473950536,0.010766,-0.037853,0.323498,-1.88,2.67,11.89
473951544,-0.025453,-0.024005,0.316041,-1.64,1.80,10.78
473952555,-0.045694,0.004758,0.323498,-1.18,-0.43,10.31
473953564,-0.026519,0.020737,0.336281,-0.85,-2.66,9.97
473954575,0.012897,0.021802,0.335216,-0.08,-3.35,9.81
473955585,0.006505,-0.004830,0.327759,0.71,-4.06,7.89
473956600,-0.003082,-0.024005,0.318171,0.00,-2.85,6.36
473957612,-0.002017,-0.017613,0.313910,1.03,-1.85,7.04
473958615,-0.002017,-0.008025,0.314976,1.93,-1.64,7.92
473959624,-0.000952,-0.004830,0.312845,1.22,0.02,8.54
473960636,-0.003082,0.006888,0.306453,1.10,1.16,10.34
473961644,-0.024388,0.006888,0.304323,0.69,1.83,11.56
473962655,-0.029714,-0.008025,0.302192,-0.42,2.35,12.52
473963664,0.009701,-0.003764,0.302192,-1.25,3.15,12.63
473964675,0.032072,0.007954,0.306453,-1.67,2.80,11.94
473965690,0.010766,0.001562,0.308584,-1.88,0.84,11.23
473966703,0.006505,-0.011221,0.304323,-1.32,-0.51,10.10
473967704,0.005440,-0.013352,0.300062,-0.37,-1.91,9.98
473968715,-0.010539,-0.014417,0.296866,-0.14,-3.76,9.09
473969724,-0.002017,-0.017613,0.295800,-0.20,-3.51,7.55
473970736,0.011832,-0.008025,0.298996,0.98,-2.70,7.84
473971744,-0.005213,-0.008025,0.305388,1.41,-2.53,7.46
473972755,-0.011605,-0.017613,0.305388,0.72,-0.85,6.73
473973764,0.004375,-0.014417,0.303257,1.25,0.08,8.51
473974775,-0.010539,-0.013352,0.305388,1.69,0.28,9.84
473975790,-0.020127,-0.025070,0.306453,0.80,1.04,10.78
473976803,0.001179,-0.015482,0.309649,0.04,2.39,12.26
473977804,0.007570,-0.001634,0.317106,-0.64,3.05,12.85
473978815,-0.004148,-0.002699,0.322433,-1.60,2.20,12.61
473979824,0.012897,-0.003764,0.322433,-1.55,2.09,11.48
473980836,0.013962,-0.003764,0.324563,-1.08,0.74,10.54
473981844,-0.012670,-0.015482,0.326694,-1.24,-1.75,9.97
473982855,-0.000952,-0.020809,0.328824,-0.86,-2.48,9.40
473983864,0.016093,-0.006960,0.334151,0.55,-3.06,9.77
473984875,0.010766,0.006888,0.337346,0.54,-3.88,8.16
473985890,0.013962,0.011150,0.334151,-0.06,-2.48,6.54
473986903,0.023550,0.004758,0.328824,1.20,-1.44,7.56
473987904,0.000113,-0.010156,0.325628,1.79,-1.68,7.94
473988915,-0.020127,-0.017613,0.320302,1.10,-0.35,7.78
473989924,-0.005213,-0.003764,0.317106,1.27,0.94,9.78
473990936,-0.010539,0.002627,0.316041,1.14,1.31,10.93
473991944,-0.014800,-0.006960,0.318171,-0.11,1.74,11.91
473992955,0.006505,-0.005895,0.318171,-0.77,3.09,12.97
473993964,-0.003082,-0.006960,0.319237,-1.14,2.93,12.53
473994975,-0.025453,-0.021874,0.320302,-1.95,1.35,11.72
473995990,-0.002017,-0.019744,0.318171,-1.52,1.03,10.56
473997003,0.013962,0.000497,0.320302,-0.57,-0.41,10.13
473998004,0.009701,0.004758,0.321367,-0.92,-2.63,9.27
473999015,0.015027,0.003693,0.313910,-0.67,-2.94,9.29
474000024,0.003309,-0.002699,0.302192,0.81,-3.03,9.67
474001036,-0.022257,-0.021874,0.296866,0.82,-3.58,7.60
474002044,-0.003082,-0.031462,0.297931,0.05,-1.55,6.37
474003055,0.022484,-0.013352,0.302192,1.43,-0.85,7.68
474004064,0.010766,-0.001634,0.313910,1.99,-1.41,7.97
474005075,0.016093,0.004758,0.317106,0.65,0.33,8.62
474006090,0.032072,0.009019,0.306453,1.16,1.47,10.49
474007103,-0.008409,-0.011221,0.293670,1.09,1.69,11.55
474008104,-0.027584,-0.029331,0.290474,-0.48,2.01,12.09
474009115,0.004375,-0.020809,0.297931,-0.89,3.00,12.36
474010124,0.016093,-0.006960,0.310714,-1.09,2.65,12.26
474011136,0.003309,0.001562,0.317106,-1.75,0.92,11.60
474012144,0.015027,0.012215,0.306453,-1.49,0.54,10.76
474013155,0.011832,-0.000569,0.289409,-0.54,-0.57,10.35
474014164,0.005440,-0.021874,0.277691,-0.67,-3.09,8.75
474015175,0.017158,-0.008025,0.286213,0.81,-2.66,9.39
474016190,0.001179,-0.008025,0.296866,0.83,-3.33,7.45
474017203,0.009701,0.002627,0.294735,-0.10,-1.84,6.14
474018204,0.016093,0.009019,0.279821,1.32,-0.65,7.52
474019215,-0.025453,-0.010156,0.262777,1.93,-1.15,8.36
474020224,-0.022257,-0.022939,0.255320,0.67,-0.09,8.79
474021236,0.013962,-0.014417,0.261711,1.15,1.54,10.56
474022244,0.013962,-0.010156,0.274495,0.99,1.81,11.72
474023255,0.005440,-0.000569,0.276625,-0.63,1.90,12.20
474024264,0.016093,0.006888,0.265973,-0.90,3.05,12.71
474025275,-0.004148,-0.011221,0.253189,-1.06,2.61,12.36
474026295,-0.023323,-0.022939,0.253189,-1.86,0.93,11.37
474027307,0.008636,-0.012287,0.259581,-1.41,0.67,10.41
474028307,0.021419,-0.005895,0.268103,-0.52,-0.63,9.79
474029322,0.006505,-0.011221,0.267038,-0.85,-3.13,8.58
474030328,0.011832,-0.002699,0.261711,-0.71,-3.02,8.91
474031342,0.003309,-0.009091,0.258516,0.71,-2.56,9.71
474032350,-0.026519,-0.021874,0.265973,0.66,-3.39,7.91
474033364,-0.010539,-0.014417,0.274495,-0.05,-1.67,6.27
474034371,0.015027,-0.008025,0.276625,1.36,-0.73,7.72
474035385,0.004375,-0.017613,0.274495,1.80,-1.28,8.23
474036397,0.003309,-0.016548,0.273430,0.84,0.04,8.56
474037409,0.012897,-0.002699,0.276625,1.29,1.29,10.56
474038409,-0.003082,-0.005895,0.289409,1.01,1.56,11.47
474039419,-0.004148,-0.005895,0.301127,-0.33,1.74,11.97
474040427,0.011832,0.002627,0.297931,-0.56,2.82,12.55
474041447,-0.009474,-0.012287,0.289409,-0.82,2.28,12.52
474042449,-0.015866,-0.025070,0.289409,-1.70,0.77,11.36
474043459,0.027811,-0.004830,0.298996,-1.34,0.91,10.66
474044467,0.020354,0.001562,0.310714,-0.43,-0.49,10.12
474045475,-0.019062,-0.010156,0.314976,-0.91,-3.27,8.26
474046495,-0.003082,-0.003764,0.307519,-0.75,-3.08,8.89
474047533,-0.002017,-0.011221,0.297931,0.98,-2.70,10.33
474048506,-0.025453,-0.028266,0.297931,0.71,-3.62,7.72
474049515,0.012897,-0.012287,0.307519,-0.24,-1.73,6.43
474050524,0.035268,-0.001634,0.317106,1.60,-0.82,7.80
474051536,-0.002017,-0.015482,0.322433,1.93,-1.30,8.23
474052544,-0.005213,-0.009091,0.318171,0.55,-0.05,8.56
474053555,0.007570,0.003693,0.316041,1.49,1.03,10.34
474054564,-0.015866,-0.011221,0.319237,1.56,1.27,10.93
474055575,-0.000952,-0.011221,0.321367,-0.41,1.55,11.63
474056590,0.032072,0.003693,0.318171,-0.73,2.87,13.02
474057603,-0.008409,-0.015482,0.314976,-0.51,2.56,12.91
474058604,-0.035041,-0.021874,0.314976,-1.78,0.88,11.44
474059615,0.010766,0.002627,0.319237,-1.61,0.94,10.55
474060624,0.009701,0.001562,0.325628,-0.26,0.01,10.14
474061636,-0.011605,-0.012287,0.324563,-0.91,-3.10,8.16
474062644,0.013962,-0.002699,0.316041,-1.00,-3.12,9.24
474063655,0.003309,-0.015482,0.307519,1.10,-2.39,10.42
474064664,-0.026519,-0.030396,0.311780,0.80,-3.82,7.73
474065675,0.015027,-0.008025,0.319237,-0.43,-1.93,6.71
474066690,0.036333,0.001562,0.320302,1.59,-0.77,8.09
474067703,-0.013735,-0.019744,0.313910,1.96,-1.27,7.96
474068704,-0.016931,-0.020809,0.306453,0.45,-0.06,8.27
474069715,0.010766,-0.009091,0.307519,1.50,0.80,10.13
474070724,0.002244,-0.026135,0.314976,1.68,1.22,10.23
474071736,0.015027,-0.017613,0.317106,-0.40,1.57,11.44
474072744,0.034202,0.009019,0.314976,-0.80,2.97,13.07
474073755,-0.026519,-0.004830,0.314976,-0.38,2.87,12.88
474074764,-0.047824,-0.008025,0.323498,-1.82,1.46,11.74
474075780,0.005440,0.005823,0.326694,-1.84,1.50,10.66
474076793,-0.002017,-0.009091,0.321367,-0.45,0.49,10.47
474077808,-0.022257,-0.024005,0.311780,-1.13,-2.40,8.51
474078806,0.015027,-0.005895,0.306453,-1.23,-2.59,9.32
474079818,0.020354,-0.001634,0.312845,0.77,-2.29,10.57
474080826,-0.009474,-0.015482,0.320302,0.54,-3.79,7.60
474081839,0.005440,-0.003764,0.313910,-0.57,-2.06,6.71
474082846,0.004375,-0.002699,0.304323,1.54,-1.23,8.28
474083858,-0.030780,-0.024005,0.306453,1.85,-1.62,7.63
474084866,0.007570,-0.012287,0.316041,0.31,-0.17,7.71
474085882,0.035268,0.007954,0.318171,1.47,0.62,9.72
474086896,-0.027584,-0.015482,0.314976,1.73,0.71,9.50
474087903,-0.029714,-0.024005,0.313910,-0.02,1.03,10.80
474088904,0.020354,-0.004830,0.316041,-0.28,2.52,13.37
474089915,0.006505,-0.010156,0.320302,0.01,2.67,13.49
474090924,0.010766,-0.017613,0.312845,-1.67,1.88,12.13
474091936,0.038464,-0.002699,0.305388,-1.76,2.12,10.97
474092944,-0.014800,-0.013352,0.301127,-0.36,0.62,10.49
474093955,-0.042498,-0.011221,0.308584,-1.42,-2.05,8.92
474094964,0.007570,0.009019,0.313910,-1.29,-2.33,9.63
474095980,0.007570,0.000497,0.308584,0.91,-2.24,10.56
474096993,-0.019062,-0.017613,0.294735,0.27,-3.99,7.47
474098006,0.010766,-0.008025,0.286213,-0.77,-2.79,6.83
474099006,0.013962,-0.005895,0.291539,1.66,-1.50,8.53
474100018,-0.023323,-0.020809,0.296866,1.81,-2.09,7.62
474101026,-0.005213,-0.008025,0.290474,0.04,-0.70,7.70
474102039,0.010766,0.001562,0.279821,1.62,0.52,9.18
474103046,-0.014800,-0.018678,0.280887,2.06,0.38,9.25
474104058,0.004375,-0.010156,0.286213,0.00,0.67,10.65
474105066,0.035268,0.005823,0.281952,0.12,2.31,12.73
474106082,-0.000952,-0.016548,0.274495,0.13,2.57,13.09
474107096,-0.008409,-0.021874,0.275560,-1.71,1.78,12.50
474108103,0.029941,-0.004830,0.281952,-1.49,2.35,11.63
474109104,0.013962,-0.003764,0.287278,-0.71,1.36,10.92
474110115,-0.009474,-0.011221,0.280887,-1.72,-1.32,9.46
474111124,0.020354,-0.003764,0.264907,-1.31,-1.44,9.83
474112136,0.006505,-0.008025,0.260646,0.50,-1.83,10.40
474113144,-0.029714,-0.016548,0.268103,-0.07,-4.03,7.59
474114155,0.006505,-0.000569,0.268103,1.55,-1.79,8.84
474115164,-0.031845,-0.012287,0.269168,1.67,-2.52,7.56
474116180,-0.007344,0.002627,0.276625,-0.09,-0.76,7.29
474117193,0.031007,0.012215,0.279821,1.73,0.35,8.69
474118206,-0.006278,-0.014417,0.273430,2.20,-0.04,9.04
474119206,-0.010539,-0.027201,0.262777,0.15,0.41,10.07
474120218,0.017158,-0.014417,0.264907,0.55,1.98,12.08
474121226,-0.010539,-0.012287,0.275560,0.67,2.34,12.81
474122239,-0.013735,-0.001634,0.276625,-1.42,1.99,12.70
474123246,0.013962,0.010084,0.268103,-1.43,2.75,12.16
474124258,-0.013735,-0.013352,0.259581,-0.65,1.94,11.23
474125266,-0.033976,-0.020809,0.260646,-1.80,-0.53,10.12
474126282,0.004375,-0.001634,0.264907,-1.37,-1.02,10.09
474127300,0.005440,-0.002699,0.261711,0.29,-1.50,10.13
474128312,-0.016931,-0.012287,0.260646,-0.38,-3.88,7.58
474129320,0.010766,-0.000569,0.259581,-0.81,-3.13,7.59
474130323,0.027811,0.003693,0.263842,1.26,-2.06,9.18
474131327,-0.000952,-0.017613,0.260646,1.35,-2.78,7.64
474132342,0.003309,-0.020809,0.247863,-0.02,-1.01,6.81
474133350,0.004375,-0.011221,0.243602,1.68,0.00,8.16
474134364,-0.024388,-0.014417,0.249993,2.10,-0.34,8.87
474135371,-0.008409,0.003693,0.261711,0.38,0.40,9.79
474136388,0.011832,0.018607,0.263842,0.95,1.83,11.68
474137400,-0.027584,-0.004830,0.256385,0.71,2.17,12.37
474138410,-0.028649,-0.022939,0.254255,-1.13,1.97,12.61
474139411,0.018223,-0.014417,0.257450,-1.04,2.88,12.55
474140422,0.013962,-0.008025,0.263842,-0.76,2.14,11.75
474141433,-0.007344,-0.008025,0.262777,-1.76,-0.04,10.26
474142445,0.012897,0.009019,0.258516,-1.43,-0.27,10.14
474143471,-0.009474,0.000497,0.258516,0.02,-1.05,10.03
474144489,-0.035041,-0.016548,0.267038,-0.51,-3.75,7.70
474145481,0.007570,-0.003764,0.270234,-0.94,-3.06,8.06
474146508,0.020354,-0.004830,0.265973,1.33,-2.18,9.57
474147516,-0.016931,-0.021874,0.260646,1.10,-2.98,7.64
474148513,0.002244,-0.009091,0.261711,-0.35,-1.13,6.80
474149510,0.024615,0.003693,0.271299,1.86,-0.09,8.10
474150534,-0.007344,-0.008025,0.279821,2.13,-0.69,8.41
474151538,-0.009474,-0.004830,0.272364,0.31,-0.03,9.24
474152541,0.009701,0.001562,0.262777,1.20,1.64,11.22
474153550,-0.005213,-0.020809,0.263842,1.09,1.73,11.87
474154561,0.006505,-0.018678,0.274495,-1.08,1.81,12.42
474155594,0.040594,0.009019,0.278756,-1.15,3.21,12.88
474156602,0.002244,-0.002699,0.273430,-0.69,2.35,12.30
474157613,-0.031845,-0.016548,0.270234,-1.92,0.49,10.72
474158616,0.005440,-0.000569,0.274495,-1.58,0.30,10.14
474159623,-0.003082,0.002627,0.281952,-0.10,-0.68,10.06
474160638,-0.020127,-0.014417,0.277691,-0.78,-3.53,7.84
474161626,0.015027,-0.010156,0.269168,-1.03,-3.12,8.65
474162639,0.003309,-0.012287,0.265973,1.11,-2.37,9.87
474163646,-0.037171,-0.017613,0.275560,0.93,-3.23,7.60
474164658,-0.009474,0.004758,0.286213,-0.30,-1.23,6.67
474165666,0.006505,0.013280,0.283017,1.66,-0.47,7.87
474166682,-0.026519,-0.009091,0.272364,1.81,-0.85,7.79
474167702,-0.004148,-0.014417,0.269168,0.38,0.01,8.59
474168695,0.029941,-0.005895,0.275560,1.32,1.31,10.96
474169717,0.000113,-0.013352,0.285148,1.27,1.61,11.40
474170715,-0.005213,-0.006960,0.287278,-0.63,1.71,12.32
474171737,0.012897,0.006888,0.279821,-0.75,3.14,13.41
474172737,-0.022257,-0.011221,0.271299,-0.65,2.57,12.95
474173744,-0.021192,-0.025070,0.273430,-1.92,0.92,11.14
474174755,0.032072,-0.011221,0.278756,-1.54,0.69,10.09
474175769,0.031007,-0.006960,0.281952,-0.23,-0.56,9.70
474176783,-0.003082,-0.008025,0.278756,-0.87,-3.32,8.22
474177796,0.000113,-0.001634,0.270234,-1.05,-3.09,8.65
474178798,-0.011605,-0.006960,0.267038,1.07,-2.65,9.69
474179806,-0.031845,-0.016548,0.277691,0.91,-3.54,7.50
474180832,0.008636,-0.001634,0.284082,-0.27,-1.39,6.39
474181836,0.028876,0.005823,0.278756,1.56,-0.52,8.02
474182848,-0.016931,-0.016548,0.271299,1.96,-1.17,7.79
474183846,-0.013735,-0.019744,0.267038,0.60,-0.22,8.51
474184858,0.013962,0.001562,0.271299,1.33,1.28,10.76
474185871,-0.012670,-0.003764,0.279821,1.40,1.39,11.13
474186886,-0.006278,-0.008025,0.279821,-0.46,1.48,12.18
474187893,0.026745,0.002627,0.269168,-0.74,3.07,13.54
474188895,-0.006278,-0.015482,0.260646,-0.48,2.49,13.33
474189904,-0.022257,-0.021874,0.265973,-1.77,1.09,11.44
474190915,0.019289,-0.000569,0.277691,-1.56,0.91,10.26
474191940,0.009701,-0.002699,0.284082,-0.27,-0.34,9.66
474192936,-0.016931,-0.011221,0.283017,-0.85,-3.13,7.63
474193944,0.011832,0.001562,0.276625,-1.12,-3.01,8.83
474194955,0.003309,-0.001634,0.277691,0.87,-2.49,9.96
474195969,-0.027584,-0.019744,0.279821,0.77,-3.54,7.49
474196983,0.003309,-0.010156,0.280887,-0.39,-1.58,6.71
474197996,0.010766,-0.003764,0.276625,1.70,-0.92,8.17
474198998,-0.031845,-0.012287,0.278756,1.98,-1.05,7.85
474200006,-0.008409,0.003693,0.285148,0.30,-0.12,8.55
474201018,0.023550,0.016476,0.291539,1.48,0.73,10.57
474202026,0.004375,-0.005895,0.289409,1.58,1.26,10.98
474203039,0.000113,-0.019744,0.276625,-0.46,1.29,12.09
474204046,0.013962,-0.017613,0.270234,-0.44,2.71,13.29
474205058,-0.008409,-0.026135,0.275560,-0.48,2.58,12.85
474206071,-0.008409,-0.013352,0.289409,-1.66,1.39,11.36
474207086,0.029941,0.021802,0.290474,-1.51,1.47,10.77
474208093,0.004375,0.009019,0.280887,-0.58,0.16,9.94
474209095,-0.037171,-0.020809,0.279821,-0.98,-2.65,7.96
474210104,0.000113,-0.014417,0.285148,-1.22,-2.67,8.93
474211115,0.002244,-0.010156,0.286213,0.76,-2.55,10.17
474212124,-0.028649,-0.018678,0.284082,0.61,-3.82,7.68
474213136,0.007570,-0.002699,0.285148,-0.56,-1.85,7.13
474214144,-0.023323,-0.000569,0.292605,1.66,-1.69,8.06
474215155,-0.010539,-0.010156,0.281952,0.22,-0.50,7.99
474216169,0.008636,-0.011221,0.275560,1.64,0.57,9.42
474217183,-0.014800,-0.025070,0.278756,1.74,0.61,9.55
474218196,-0.000952,-0.018678,0.279821,0.08,0.77,10.90
474219198,0.028876,0.002627,0.272364,-0.31,2.78,13.38
474220206,-0.005213,-0.005895,0.273430,-0.11,2.80,13.10
474221218,-0.035041,-0.013352,0.283017,-1.33,2.02,12.19
474222226,-0.004148,0.002627,0.279821,-1.78,2.14,11.45
474223239,-0.000952,-0.009091,0.265973,-0.64,0.93,10.69
474224246,0.008636,-0.019744,0.259581,-1.17,-1.33,8.79
474225258,0.037398,-0.003764,0.267038,-1.31,-1.75,9.66
474226271,0.019289,-0.000569,0.267038,0.42,-2.18,10.54
474227290,-0.027584,-0.009091,0.264907,0.17,-3.97,7.73
474228298,-0.009474,-0.004830,0.263842,-0.62,-2.37,7.45
474229302,0.007570,0.003693,0.263842,1.46,-2.02,8.45
474230308,-0.011605,-0.012287,0.257450,1.49,-2.38,7.27
474231321,0.008636,-0.019744,0.248928,0.10,-0.59,7.18
474232328,0.018223,-0.013352,0.253189,1.70,0.00,8.66
474233343,-0.005213,-0.022939,0.263842,1.94,-0.01,8.78
474234353,0.004375,-0.009091,0.268103,0.41,0.32,9.95
474235364,0.019289,0.004758,0.267038,0.63,1.75,12.21
474236378,-0.008409,-0.016548,0.268103,0.46,2.09,12.72
474237391,-0.000952,-0.020809,0.270234,-1.11,2.06,12.99
474238395,0.026745,0.000497,0.265973,-1.15,2.69,12.73
474239400,0.001179,-0.014417,0.257450,-0.75,1.68,11.50
474240408,-0.016931,-0.019744,0.264907,-1.62,-0.30,9.71
474241419,0.017158,0.003693,0.274495,-1.36,-0.85,9.83
474242426,0.009701,0.004758,0.270234,0.01,-1.40,10.00
474243444,-0.019062,-0.011221,0.268103,-0.35,-3.82,7.44
474244448,0.015027,-0.003764,0.271299,-0.91,-2.93,8.09
474245459,0.015027,-0.003764,0.272364,1.26,-2.33,9.42
474246474,-0.028649,-0.020809,0.268103,1.27,-3.14,7.42
474247487,-0.000952,-0.009091,0.272364,-0.15,-0.98,7.11
474248490,0.018223,0.007954,0.280887,1.81,-0.38,8.38
474249499,-0.027584,-0.003764,0.284082,2.04,-0.81,8.05
474250506,-0.011605,-0.010156,0.280887,0.46,-0.26,8.94
474251515,0.018223,-0.003764,0.281952,1.20,1.11,11.23
474252540,-0.019062,-0.017613,0.281952,1.26,1.51,11.73
474253551,-0.009474,-0.022939,0.274495,-0.72,1.64,12.56
474254544,0.031007,-0.005895,0.277691,-0.95,2.90,13.17
474255555,0.008636,-0.008025,0.288344,-0.42,2.29,12.48
474256569,-0.007344,-0.004830,0.294735,-1.71,0.98,10.92
474257583,0.018223,0.010084,0.295800,-1.64,0.87,10.34
474258585,-0.010539,-0.002699,0.297931,-0.20,-0.23,9.85
474259595,-0.021192,-0.018678,0.296866,-0.79,-2.82,7.73
474260604,0.020354,-0.005895,0.289409,-1.22,-2.59,8.76
474261615,0.020354,-0.003764,0.288344,0.87,-2.34,10.20
474262624,-0.007344,-0.015482,0.295800,0.76,-3.75,7.71
474263636,0.012897,0.001562,0.296866,-0.59,-1.75,7.15
474264644,0.015027,0.009019,0.294735,1.52,-1.02,8.39
474265655,-0.013735,-0.012287,0.292605,1.84,-1.65,7.53
474266669,0.006505,-0.008025,0.287278,0.33,-0.65,7.83
474267683,0.023550,-0.001634,0.284082,1.55,0.49,9.69
474268685,-0.004148,-0.019744,0.286213,1.76,0.63,10.00
474269695,-0.000952,-0.009091,0.290474,-0.02,0.78,11.33
474270704,0.016093,0.004758,0.288344,0.03,2.52,13.03
474271715,-0.020127,-0.006960,0.285148,0.01,2.42,13.03
474272724,-0.024388,-0.004830,0.287278,-1.49,1.77,12.66
474273736,0.016093,0.000497,0.281952,-1.31,2.26,11.76
474274744,0.011832,-0.017613,0.271299,-0.61,1.16,10.61
474275760,-0.004148,-0.027201,0.271299,-1.29,-1.29,8.48
474276772,0.028876,-0.006960,0.274495,-1.39,-1.43,9.30
474277775,0.017158,-0.005895,0.270234,0.19,-1.80,10.09
474278785,-0.024388,-0.009091,0.276625,-0.06,-4.05,7.53
474279795,0.010766,0.004758,0.280887,-1.13,-2.59,7.54
474280804,0.019288,-0.010156,0.273430,1.39,-1.80,9.08
474281815,-0.025453,-0.032527,0.268103,1.60,-2.43,7.72
474282824,-0.004148,-0.010156,0.271299,-0.26,-0.86,7.36
474283836,0.020354,0.000497,0.273430,1.63,-0.14,8.82
474284844,0.003309,-0.017613,0.278756,2.02,-0.35,8.49
474285860,0.013962,-0.001634,0.286213,0.22,-0.08,9.47
474286872,0.021419,0.009019,0.285148,0.83,1.51,11.67
474287875,-0.026519,-0.017613,0.280887,0.94,1.76,12.15
474288885,-0.032910,-0.017613,0.280887,-0.90,1.68,12.57
474289895,0.009701,0.002627,0.279821,-1.02,2.94,12.92
474290904,0.015027,-0.009091,0.276625,-0.62,2.26,12.22
474291915,0.006505,-0.010156,0.286213,-1.77,0.63,10.41
474292924,0.029941,0.007954,0.291539,-1.56,0.55,9.97
474293936,-0.010539,-0.003764,0.286213,-0.17,-0.54,9.81
474294944,-0.045694,-0.014417,0.288344,-0.89,-3.31,7.67
474295960,0.003309,-0.011221,0.286213,-1.33,-2.59,8.18
474296972,0.018223,-0.026135,0.276625,1.08,-2.39,9.74
474297975,-0.016931,-0.031462,0.278756,0.86,-3.61,7.60
474298985,0.011832,0.000497,0.284082,-0.56,-1.26,7.32
474299995,0.019289,0.014345,0.277691,1.57,-0.73,8.99
474301004,-0.024388,0.000497,0.274495,1.67,-1.71,8.10
474302015,-0.010539,-0.002699,0.276625,0.22,-0.62,7.97
474303024,0.012897,-0.015482,0.271299,1.35,0.84,9.78
474304036,-0.003082,-0.043180,0.267038,1.59,0.74,9.97
474305044,0.002244,-0.024005,0.269168,0.03,0.84,11.12
474306060,0.033137,0.015411,0.270234,-0.35,2.73,13.61
474307072,-0.004148,0.007954,0.272364,-0.11,2.57,13.72
474308075,-0.029714,0.002627,0.286213,-1.55,1.94,12.66
474309085,0.007570,0.001562,0.289409,-1.89,2.46,11.01
474310095,-0.015866,-0.027201,0.283017,-0.52,1.00,9.88
474311104,-0.032910,-0.026135,0.281952,-1.23,-1.61,8.53
474312115,0.012897,0.001562,0.281952,-1.50,-1.79,9.46
474313124,0.001179,-0.009091,0.279821,0.37,-1.91,10.21
474314136,0.012897,0.016476,0.295800,-1.01,-2.25,7.65
474315144,0.005440,0.000497,0.290474,1.28,-1.92,8.71
474316160,-0.036106,-0.029331,0.285148,1.37,-2.16,7.25
474317172,-0.003082,-0.015482,0.285148,-0.03,-0.80,7.47
474318175,0.019288,-0.005895,0.279821,1.65,-0.50,8.81
474319185,-0.010539,-0.024005,0.276625,1.92,0.04,8.52
474320195,-0.000952,-0.010156,0.280887,0.53,0.20,9.77
474321204,0.008636,0.011150,0.283017,0.61,1.71,12.41
474322215,-0.037171,-0.004830,0.279821,0.69,1.96,12.71
474323224,-0.028649,-0.003764,0.280887,-0.97,2.13,13.06
474324236,0.029941,0.007954,0.279821,-1.38,3.22,12.81
474325244,0.009701,-0.018678,0.276625,-0.76,2.04,11.63
474326260,-0.007344,-0.026135,0.280887,-1.63,0.58,9.68
474327272,0.023550,-0.006960,0.287278,-1.45,-0.08,9.25
474328275,-0.002017,-0.018678,0.283017,-0.22,-1.11,9.42
474329288,-0.033976,-0.018678,0.286213,-0.70,-3.20,7.81
474330302,0.007570,0.006888,0.294735,-0.86,-2.77,9.38
474331307,0.004375,-0.005895,0.291539,0.92,-2.30,9.54
474332322,-0.026519,-0.025070,0.286213,0.73,-2.90,7.72
474333328,0.006505,-0.010156,0.288344,-0.04,-1.08,7.70
474334342,0.020354,-0.000569,0.286213,1.79,-1.32,8.58
474335350,-0.016931,-0.016548,0.283017,1.56,-0.90,7.36
474336368,0.006505,-0.006960,0.290474,0.26,-0.01,8.54
474337382,0.017158,-0.000569,0.293670,1.62,0.40,9.91
474338385,-0.019062,-0.022939,0.287278,1.23,1.23,11.06
474339395,-0.007344,-0.021874,0.284082,-0.10,1.14,11.62
474340400,0.031007,-0.002699,0.281952,-0.58,2.96,12.71
474341409,0.005440,-0.003764,0.278756,-0.64,2.42,13.65
474342419,-0.029714,-0.031462,0.279821,-0.89,1.13,11.39
474343427,0.018223,-0.003764,0.286213,-1.55,1.54,10.38
474344443,0.010766,0.003693,0.283017,-0.76,0.10,9.88
474345448,0.004375,0.007954,0.270234,-1.24,-1.61,9.02
474346464,0.021419,0.005823,0.263842,-1.54,-1.84,8.63
474347472,-0.007344,-0.012287,0.264907,0.63,-2.61,9.85
474348483,-0.041433,-0.026135,0.259581,0.37,-4.12,7.38
474349490,0.025680,-0.001634,0.259581,-0.62,-2.28,8.54
474350499,0.036333,0.000497,0.258516,1.61,-1.25,9.04
474351506,-0.019062,-0.012287,0.254255,1.50,-2.13,7.68
474352515,-0.010539,0.001562,0.255320,0.30,-0.97,7.84
474353524,0.010766,0.000497,0.254255,1.74,0.09,8.95
474354539,-0.019062,-0.012287,0.249993,1.86,0.00,9.11
474355548,0.004375,-0.005895,0.249993,0.59,0.29,9.77
474356560,0.039529,0.011150,0.254255,0.48,1.97,12.62
474357572,-0.007344,-0.011221,0.257450,0.43,2.16,12.53
474358575,-0.025453,-0.018678,0.268103,-0.96,1.96,12.94
474359585,0.009701,0.001562,0.276625,-1.22,2.73,12.26
474360595,-0.009474,-0.006960,0.274495,-0.59,1.72,11.33
474361604,-0.013735,-0.015482,0.272364,-1.47,-0.19,9.51
474362615,0.045921,-0.004830,0.275560,-1.37,-0.57,9.89
474363624,0.024615,-0.026135,0.274495,0.07,-1.12,10.19
474364636,-0.016931,-0.027201,0.280887,-0.50,-3.41,7.73
474365644,0.007570,0.004758,0.291539,-1.08,-2.75,8.09
474366660,0.000113,0.005823,0.290474,1.16,-2.48,9.70
474367672,-0.044628,-0.009091,0.293670,0.99,-3.09,7.70
474368675,-0.008409,-0.001634,0.296866,-0.33,-1.02,7.56
474369685,0.007570,-0.004830,0.291539,1.74,-0.74,8.43
474370695,-0.017996,-0.029331,0.288344,1.81,-1.01,7.64
474371704,-0.003082,-0.019744,0.291539,0.65,-0.60,8.08
474372715,0.009701,-0.003764,0.296866,1.59,0.75,10.18
474373724,-0.028649,-0.006960,0.304323,1.52,1.01,10.55
474374736,-0.027584,0.009019,0.309649,-0.18,1.24,12.14
474375749,0.000113,0.016476,0.308584,-0.46,2.85,13.77
474376763,-0.021192,-0.013352,0.306453,-0.39,2.24,13.08
474377779,-0.015866,-0.022939,0.304323,-1.55,1.59,11.96
474378791,0.020354,-0.009091,0.302192,-1.50,1.82,11.00
474379785,0.005440,-0.008025,0.303257,-0.70,0.82,10.24
474380810,-0.017996,-0.016548,0.304323,-1.02,-1.77,8.15
474381804,0.009701,0.003693,0.304323,-1.31,-2.04,9.45
474382815,0.003309,0.005823,0.308584,0.28,-2.01,9.79
474383824,-0.011605,-0.013352,0.305388,0.19,-3.81,7.74
474384836,0.018223,-0.006960,0.300062,-0.89,-2.09,7.57
474385849,0.028876,-0.006960,0.302192,1.43,-1.86,8.80
474386863,-0.006278,-0.025070,0.301127,1.29,-1.99,7.32
474387864,0.017158,-0.005895,0.305388,-0.21,-0.69,7.44
474388875,0.029941,0.005823,0.305388,1.84,-0.39,8.60
474389885,-0.008409,-0.014417,0.301127,1.86,-0.06,8.74
474390895,0.002244,-0.012287,0.300062,0.47,-0.30,9.71
474391904,0.017158,-0.000569,0.292605,0.96,1.54,12.02
474392915,-0.028649,-0.012287,0.281952,0.80,1.88,12.81
474393924,-0.026519,-0.014417,0.280887,-0.96,1.88,13.23
474394936,0.018223,0.000497,0.283017,-1.10,3.01,13.20
474395960,-0.006278,-0.015482,0.279821,-0.53,1.98,11.84
474396972,-0.026519,-0.006960,0.283017,-1.58,0.74,9.96
474397980,-0.004148,0.011150,0.284082,-1.62,0.25,9.62
474398984,-0.020127,-0.003764,0.277691,-0.29,-0.53,9.50
474399992,-0.031845,-0.016548,0.276625,-0.88,-2.83,7.74
474400997,0.016093,0.002627,0.276625,-1.04,-2.73,9.73
474402008,0.006505,-0.002699,0.272364,0.58,-1.99,9.16
