time_us,gyro_x_rad_s,gyro_y_rad_s,gyro_z_rad_s,acc_x_m_s2,acc_y_m_s2,acc_z_m_s2
2146887502,0.002283,0.000540,0.000351,0.03,-0.23,9.89
2146888273,0.002283,0.000540,-0.000714,0.01,-0.25,9.86
2146889254,0.001218,0.000540,0.000351,-0.03,-0.28,9.84
2146890263,-0.000913,0.000540,0.001416,-0.01,-0.25,9.85
2146891274,-0.003043,0.000540,0.002481,-0.01,-0.23,9.80
2146892283,-0.003043,0.002670,0.002481,0.00,-0.23,9.78
2146893309,-0.001978,0.003736,0.000351,0.02,-0.23,9.82
2146894309,0.000153,0.001605,-0.000714,0.01,-0.21,9.83
2146895314,0.001218,0.000540,-0.001780,0.00,-0.22,9.81
2146896323,0.002283,-0.000525,-0.001780,-0.01,-0.24,9.82
2146897334,0.001218,-0.001591,0.001416,-0.01,-0.24,9.83
2146898343,0.001218,0.000540,0.002481,0.03,-0.25,9.84
2146899360,0.002283,0.000540,0.001416,0.04,-0.28,9.85
2146900363,0.003349,0.000540,0.000351,0.04,-0.25,9.87
2146901374,0.002283,0.000540,0.000351,0.05,-0.22,9.87
2146902383,0.002283,0.000540,0.000351,0.02,-0.23,9.83
2146903409,0.003349,0.000540,-0.001780,-0.02,-0.23,9.77
2146904409,0.002283,0.000540,-0.002845,0.00,-0.25,9.77
2146905414,0.001218,0.000540,-0.000714,0.03,-0.25,9.82
2146906423,0.001218,-0.001591,-0.000714,0.02,-0.26,9.86
2146907427,-0.000913,-0.002656,0.000351,0.01,-0.26,9.84
2146908436,-0.001978,-0.001591,0.000351,0.00,-0.26,9.77
2146909453,-0.001978,0.001605,0.000351,0.00,-0.26,9.74
2146910456,-0.000913,0.001605,0.000351,0.01,-0.26,9.81
2146911467,0.002283,0.000540,0.001416,0.01,-0.24,9.86
2146912476,0.003349,-0.000525,0.003547,0.01,-0.24,9.81
2146913502,0.002283,-0.002656,0.002481,-0.02,-0.25,9.80
2146914502,0.002283,-0.004786,0.001416,-0.02,-0.26,9.86
2146915507,0.004414,-0.005852,0.000351,0.00,-0.27,9.84
2146916516,0.004414,-0.004786,-0.000714,0.01,-0.24,9.84
2146917527,0.003349,-0.002656,0.000351,-0.02,-0.22,9.88
2146918536,0.002283,0.000540,0.000351,-0.03,-0.24,9.84
2146919568,0.002283,0.002670,0.001416,0.02,-0.23,9.82
2146920556,0.002283,0.003736,0.001416,0.01,-0.22,9.79
2146921569,0.001218,0.002670,-0.000714,0.02,-0.23,9.76
2146922579,0.000153,0.001605,-0.001780,0.04,-0.26,9.77
2146923609,-0.000913,-0.000525,-0.001780,0.04,-0.26,9.76
2146924605,-0.000913,-0.001591,-0.001780,0.04,-0.23,9.74
2146925613,0.000153,-0.000525,-0.000714,0.01,-0.24,9.74
2146926634,0.000153,0.000540,-0.000714,0.00,-0.24,9.80
2146927631,0.001218,0.000540,-0.001780,0.03,-0.24,9.86
2146928646,0.001218,0.001605,-0.000714,0.01,-0.24,9.88
2146929665,0.000153,0.001605,0.000351,0.01,-0.23,9.84
2146930667,0.000153,0.000540,0.000351,0.00,-0.24,9.79
2146931675,0.000153,0.000540,-0.000714,-0.02,-0.23,9.82
2146932686,-0.000913,0.001605,-0.001780,0.01,-0.23,9.80
2146933717,-0.001978,0.003736,-0.000714,0.01,-0.24,9.76
2146934716,-0.001978,0.002670,-0.000714,0.00,-0.23,9.79
2146935716,-0.000913,-0.000525,-0.001780,0.01,-0.22,9.82
2146936728,-0.000913,-0.002656,-0.000714,0.01,-0.21,9.86
2146937736,-0.001978,-0.001591,0.001416,0.01,-0.22,9.87
2146938748,0.000153,-0.000525,0.001416,0.02,-0.22,9.86
2146939760,0.001218,-0.001591,-0.001780,0.02,-0.22,9.81
2146940763,-0.000913,-0.000525,-0.002845,-0.01,-0.22,9.79
2146941772,-0.000913,-0.000525,-0.001780,-0.03,-0.23,9.81
2146942778,0.001218,-0.000525,-0.001780,-0.03,-0.25,9.83
2146943815,0.000153,-0.000525,0.000351,-0.02,-0.25,9.86
2146944805,0.000153,-0.000525,0.001416,-0.01,-0.26,9.84
2146945811,0.000153,-0.002656,0.001416,-0.02,-0.25,9.81
2146946820,0.000153,-0.005852,0.001416,-0.04,-0.20,9.85
2146947829,-0.000913,-0.006917,0.000351,-0.02,-0.21,9.80
2146948839,-0.000913,-0.003721,-0.000714,-0.01,-0.23,9.78
2146949853,0.001218,0.000540,-0.002845,0.00,-0.25,9.76
2146950856,0.001218,-0.000525,0.000351,0.02,-0.25,9.77
2146951867,0.000153,0.001605,0.002481,0.02,-0.28,9.82
2146952891,0.002283,0.000540,0.001416,0.01,-0.25,9.84
2146953886,0.002283,-0.000525,0.000351,0.01,-0.21,9.82
2146954903,0.000153,0.000540,0.001416,0.04,-0.24,9.78
2146955906,0.000153,0.002670,0.004612,0.06,-0.24,9.77
2146956917,0.003349,0.001605,0.003547,0.01,-0.23,9.81
2146957954,0.004363,0.000544,0.002483,-0.01,-0.26,9.81
2146958937,0.001168,0.001609,0.002483,0.01,-0.28,9.83
2146959952,0.000102,0.004805,0.002483,-0.02,-0.27,9.87
2146960957,0.000102,0.005870,0.000353,-0.02,-0.26,9.88
2146961966,0.001168,0.005870,-0.002843,0.02,-0.27,9.85
2146962991,0.002233,0.003740,-0.003908,0.02,-0.28,9.82
2146963986,0.003298,0.001609,-0.001778,0.01,-0.26,9.80
2146965003,0.003298,-0.001586,0.000353,0.02,-0.28,9.80
2146966006,0.001168,-0.001586,0.002483,0.00,-0.29,9.78
2146967017,-0.000963,0.000544,0.001418,-0.02,-0.25,9.79
2146968026,-0.002028,0.001609,0.001418,-0.04,-0.24,9.80
2146969037,-0.000963,-0.000521,0.000353,-0.04,-0.22,9.83
2146970052,0.001168,-0.000521,-0.000713,-0.01,-0.22,9.86
2146971057,0.001168,-0.000521,0.000353,-0.01,-0.23,9.83
2146972066,-0.002028,-0.000521,0.001418,0.02,-0.25,9.86
2146973091,-0.002028,-0.000521,0.002483,0.04,-0.27,9.88
2146974086,-0.000963,-0.000521,0.000353,0.05,-0.28,9.86
2146975103,-0.000963,-0.000521,-0.000713,0.02,-0.28,9.81
2146976106,-0.000963,-0.000521,-0.001778,0.00,-0.26,9.80
2146977117,0.000102,0.000544,-0.000713,0.02,-0.23,9.83
2146978126,-0.000963,-0.000521,0.001418,0.00,-0.23,9.83
2146979137,-0.000963,-0.001586,0.003548,-0.03,-0.22,9.81
2146980152,0.001168,-0.000521,0.000353,-0.02,-0.21,9.81
2146981157,0.002233,0.000544,-0.001778,0.02,-0.24,9.84
2146982166,0.001168,-0.000521,-0.002843,0.02,-0.25,9.85
2146983191,0.000102,-0.001586,-0.000713,0.02,-0.21,9.84
2146984186,-0.000963,-0.000521,-0.001778,0.02,-0.23,9.79
2146985203,-0.002028,-0.001586,-0.002843,0.00,-0.25,9.81
2146986206,-0.002028,-0.003717,-0.000713,0.00,-0.25,9.83
2146987217,0.001168,-0.003717,0.001418,0.02,-0.27,9.80
2146988226,0.003298,-0.002652,0.002483,0.00,-0.28,9.82
2146989237,0.003298,-0.000521,0.004614,-0.04,-0.25,9.79
2146990252,0.001168,0.000544,0.004614,-0.02,-0.24,9.79
2146991257,0.000102,0.002675,0.004614,-0.01,-0.28,9.82
2146992266,-0.000963,0.004805,0.003548,-0.02,-0.26,9.79
2146993291,-0.003094,0.004805,0.002483,-0.02,-0.25,9.81
2146994286,-0.002028,0.002675,0.001418,0.02,-0.27,9.85
2146995303,-0.000963,0.001609,0.000353,0.04,-0.25,9.84
2146996306,0.001168,0.001609,0.000353,0.03,-0.22,9.83
2146997317,0.001168,0.001609,0.000353,0.02,-0.23,9.85
2146998326,0.001168,0.001609,0.001418,0.01,-0.26,9.84
2146999337,0.001168,0.001609,0.002483,0.04,-0.27,9.83
2147000352,-0.000963,0.000544,0.002483,0.06,-0.25,9.81
2147001357,-0.002028,0.000544,0.001418,0.02,-0.26,9.82
2147002366,-0.003094,0.000544,-0.001778,-0.01,-0.26,9.84
2147003391,-0.002028,0.000544,-0.001778,0.01,-0.26,9.83
2147004386,-0.000963,0.000544,-0.001778,0.01,-0.24,9.83
2147005403,-0.002028,-0.000521,-0.000713,0.01,-0.24,9.82
2147006406,-0.002028,-0.001586,-0.000713,0.01,-0.23,9.84
2147007417,0.001168,-0.001586,0.000353,0.01,-0.19,9.85
2147008426,0.003298,0.001609,0.000353,-0.01,-0.19,9.82
2147009437,0.003298,0.001609,0.001418,-0.02,-0.24,9.82
2147010452,0.002233,-0.001586,0.002483,-0.01,-0.24,9.82
2147011457,0.001168,-0.001586,0.001418,-0.01,-0.20,9.78
2147012466,0.000102,-0.001586,-0.000713,-0.02,-0.23,9.78
2147013491,-0.003094,-0.002652,-0.002843,-0.02,-0.25,9.80
2147014486,-0.004159,-0.003717,-0.002843,-0.02,-0.25,9.86
2147015503,-0.003094,-0.002652,-0.001778,-0.03,-0.24,9.86
2147016506,0.000102,-0.000521,-0.001778,-0.02,-0.21,9.83
2147017517,0.001168,0.000544,-0.000713,-0.02,-0.22,9.86
2147018526,0.000102,0.002675,0.000353,-0.03,-0.27,9.82
2147019537,0.000102,0.003740,0.000353,0.00,-0.27,9.78
2147020552,0.000102,0.002675,0.002483,0.04,-0.25,9.78
2147021557,0.000102,0.001609,0.002483,0.01,-0.24,9.83
2147022566,0.000102,-0.001586,0.003548,0.01,-0.23,9.90
2147023606,0.000102,-0.003717,0.002483,0.02,-0.24,9.89
2147024589,0.001168,-0.004782,0.002483,0.01,-0.27,9.81
2147025607,0.001168,-0.002652,0.001418,0.04,-0.28,9.83
2147026614,0.000102,-0.000521,0.001418,0.03,-0.28,9.88
2147027624,0.000102,-0.000521,0.001418,0.01,-0.23,9.86
2147028641,0.001168,-0.001586,0.001418,0.01,-0.22,9.85
2147029645,0.000102,-0.001586,-0.000713,-0.01,-0.23,9.83
2147030667,-0.000963,-0.002652,-0.000713,-0.01,-0.23,9.82
2147031666,0.000102,0.000544,-0.000713,-0.01,-0.25,9.83
2147032678,0.001168,0.001609,-0.000713,-0.02,-0.26,9.84
2147033703,0.002233,-0.000521,0.000353,-0.01,-0.23,9.80
2147034696,0.001168,-0.002652,0.000353,0.02,-0.22,9.79
2147035715,0.000102,-0.002652,-0.000713,0.00,-0.22,9.81
2147036715,0.000102,-0.002652,-0.001778,-0.04,-0.22,9.80
2147037727,0.002233,-0.000521,-0.001778,-0.02,-0.22,9.78
2147038736,0.003298,0.001609,-0.001778,0.00,-0.21,9.80
2147039746,0.001168,0.001609,-0.002843,0.00,-0.25,9.85
2147040759,0.000102,0.000544,-0.000713,-0.01,-0.25,9.84
2147041763,0.001168,-0.001586,0.000353,-0.01,-0.22,9.78
2147042772,0.003298,-0.002652,-0.000713,0.00,-0.22,9.80
2147043797,0.004363,-0.001586,0.000353,0.01,-0.26,9.81
2147044786,0.004363,-0.000521,0.001418,0.02,-0.26,9.75
2147045806,0.003298,0.001609,0.002483,0.04,-0.23,9.79
2147046810,-0.000963,0.001609,0.001418,0.03,-0.22,9.83
2147047821,-0.002028,0.001609,-0.001778,0.00,-0.21,9.84
2147048828,0.000102,0.000544,-0.002843,0.03,-0.23,9.84
2147049841,0.003298,-0.001586,-0.002843,0.04,-0.26,9.86
2147050852,0.004363,-0.001586,-0.001778,0.01,-0.26,9.87
2147051857,0.001168,0.001609,-0.001778,-0.02,-0.25,9.79
2147052882,-0.002028,0.001609,0.000353,-0.01,-0.21,9.80
2147053876,-0.003094,0.000544,-0.000713,0.01,-0.21,9.82
2147054887,-0.000963,0.000544,-0.000713,0.01,-0.22,9.84
2147055902,0.002233,0.001609,0.000353,0.02,-0.20,9.85
2147056907,0.003298,0.002675,0.000353,0.00,-0.21,9.82
2147057916,0.002233,0.002675,-0.002843,0.01,-0.23,9.77
2147058927,0.002233,0.002675,-0.004974,0.01,-0.22,9.78
2147059936,0.003298,0.001609,-0.002843,-0.02,-0.24,9.82
2147060953,0.003298,0.000544,-0.000713,-0.01,-0.25,9.82
2147061956,0.000102,-0.001586,0.000353,0.01,-0.24,9.82
2147062982,-0.000963,-0.003717,0.000353,0.00,-0.26,9.81
2147063976,-0.000963,-0.004782,0.000353,0.00,-0.27,9.81
2147064987,0.000102,-0.004782,-0.000713,0.00,-0.26,9.85
2147066002,0.000102,-0.002652,-0.001778,0.02,-0.27,9.82
2147067007,0.000102,-0.002652,-0.002843,0.03,-0.23,9.81
2147068016,0.000102,-0.003717,-0.000713,0.01,-0.23,9.83
2147069027,0.000102,-0.002652,0.002483,0.03,-0.27,9.80
2147070036,-0.002028,-0.000521,0.002483,0.01,-0.24,9.77
2147071053,-0.003094,0.000544,0.001418,-0.03,-0.22,9.79
2147072056,-0.002028,0.001609,0.001418,-0.02,-0.21,9.82
2147073082,-0.002028,0.002675,0.001418,0.00,-0.23,9.85
2147074076,-0.000963,0.002675,0.002483,0.01,-0.24,9.83
2147075087,-0.000963,-0.000521,0.001418,0.00,-0.23,9.79
2147076102,-0.002028,-0.002652,-0.001778,0.00,-0.24,9.82
2147077107,-0.002028,-0.003717,-0.003908,0.00,-0.22,9.81
2147078116,0.000102,-0.002652,-0.001778,-0.01,-0.20,9.77
2147079127,0.001168,-0.001586,-0.000713,0.00,-0.22,9.79
2147080136,0.001168,0.000544,-0.001778,-0.02,-0.26,9.83
2147081153,0.003298,-0.000521,-0.002843,-0.02,-0.27,9.83
2147082156,0.003298,-0.001586,-0.001778,0.02,-0.28,9.82
2147083182,0.000102,-0.001586,-0.000713,0.00,-0.27,9.85
2147084176,-0.000963,-0.001586,-0.001778,-0.05,-0.24,9.86
2147085187,0.000102,0.000544,-0.001778,-0.04,-0.23,9.88
2147086202,0.000102,0.001609,-0.000713,-0.02,-0.24,9.87
2147087233,0.000067,0.002690,-0.000712,-0.01,-0.22,9.86
2147088216,-0.000998,0.000560,0.000353,0.01,-0.20,9.85
2147089227,-0.002064,-0.001571,0.002484,0.00,-0.22,9.86
2147090236,-0.000998,-0.000506,0.001419,-0.01,-0.24,9.85
2147091253,-0.000998,0.000560,0.000353,0.01,-0.27,9.83
2147092256,-0.000998,0.001625,-0.000712,-0.01,-0.26,9.84
2147093282,-0.002064,0.001625,0.000353,-0.02,-0.26,9.83
2147094276,-0.002064,0.002690,0.001419,0.01,-0.26,9.80
2147095287,0.001132,0.002690,0.001419,0.00,-0.23,9.77
2147096302,0.003263,0.001625,-0.000712,-0.03,-0.22,9.80
2147097307,0.002197,0.001625,0.000353,-0.01,-0.22,9.80
2147098316,0.002197,0.001625,-0.000712,0.03,-0.20,9.77
2147099327,0.001132,0.000560,-0.001777,0.06,-0.21,9.80
2147100336,0.001132,-0.001571,-0.002843,0.04,-0.21,9.80
2147101353,0.000067,-0.000506,-0.001777,0.03,-0.20,9.81
2147102356,-0.000998,-0.000506,0.000353,0.03,-0.23,9.82
2147103382,-0.002064,-0.000506,0.001419,0.00,-0.27,9.83
2147104376,-0.002064,-0.001571,0.000353,0.01,-0.25,9.83
2147105387,-0.000998,-0.000506,0.002484,0.01,-0.24,9.78
2147106402,-0.000998,0.001625,0.003549,-0.01,-0.23,9.79
2147107407,-0.002064,0.000560,0.001419,-0.02,-0.23,9.86
2147108416,-0.002064,-0.000506,0.000353,0.03,-0.23,9.85
2147109427,0.000067,-0.000506,-0.000712,0.03,-0.23,9.84
2147110436,0.001132,0.000560,0.000353,0.01,-0.23,9.84
2147111453,0.001132,0.000560,-0.000712,0.01,-0.21,9.81
2147112456,0.001132,0.001625,-0.001777,0.00,-0.22,9.80
2147113482,0.000067,0.002690,-0.001777,0.02,-0.25,9.87
2147114476,-0.002064,0.000560,-0.000712,0.03,-0.24,9.92
2147115487,-0.000998,-0.002636,0.001419,0.01,-0.22,9.85
2147116502,0.002197,-0.002636,0.001419,0.01,-0.20,9.84
2147117507,0.003263,-0.001571,-0.000712,0.03,-0.22,9.84
2147118516,0.003263,-0.000506,-0.001777,0.04,-0.23,9.80
2147119527,0.000067,0.000560,-0.001777,0.02,-0.23,9.77
2147120536,0.000067,0.000560,-0.001777,0.01,-0.21,9.76
2147121553,0.001132,0.000560,-0.002843,0.05,-0.20,9.77
2147122556,0.002197,-0.002636,-0.001777,0.03,-0.23,9.79
2147123585,0.003263,-0.003701,0.000353,0.01,-0.25,9.81
2147124582,0.000067,-0.002636,0.000353,0.04,-0.21,9.86
2147125609,-0.002064,-0.003701,-0.001777,0.04,-0.19,9.86
2147126607,-0.002064,-0.002636,-0.002843,-0.02,-0.22,9.83
2147127613,-0.000998,0.001625,0.000353,-0.05,-0.22,9.79
2147128629,-0.000998,0.001625,0.002484,0.01,-0.24,9.79
2147129634,-0.000998,-0.001571,0.001419,0.04,-0.23,9.84
2147130666,-0.002064,-0.000506,0.001419,0.03,-0.20,9.88
2147131668,-0.002064,-0.000506,-0.000712,0.04,-0.19,9.88
2147132670,-0.002064,-0.002636,0.000353,0.00,-0.21,9.85
2147133683,-0.002064,-0.001571,0.001419,-0.02,-0.26,9.83
2147134687,-0.002064,0.000560,0.001419,0.02,-0.26,9.81
2147135716,-0.000998,0.000560,0.000353,0.03,-0.26,9.80
2147136719,0.001132,-0.001571,-0.000712,-0.01,-0.25,9.80
2147137716,0.000067,-0.001571,-0.001777,-0.01,-0.22,9.76
2147138728,-0.002064,0.000560,-0.001777,0.03,-0.26,9.78
2147139736,-0.003129,-0.000506,0.001419,0.01,-0.25,9.82
2147140748,-0.000998,-0.001571,0.003549,0.00,-0.24,9.80
2147141760,-0.000998,-0.001571,0.001419,0.00,-0.23,9.79
2147142763,-0.002064,-0.000506,0.001419,-0.02,-0.22,9.78
2147143789,-0.002064,0.001625,0.001419,0.00,-0.25,9.76
2147144780,-0.000998,0.002690,-0.000712,0.01,-0.27,9.78
2147145807,0.000067,0.000560,-0.001777,-0.01,-0.25,9.85
2147146806,0.001132,-0.000506,-0.001777,-0.01,-0.26,9.83
2147147811,0.001132,-0.001571,0.001419,-0.01,-0.26,9.79
2147148820,0.000067,-0.001571,0.003549,0.02,-0.25,9.83
2147149829,-0.000998,-0.000506,0.001419,0.03,-0.27,9.82
2147150839,-0.000998,0.000560,0.000353,0.01,-0.25,9.80
2147151853,0.001132,0.000560,0.000353,-0.04,-0.22,9.78
2147152870,0.002197,0.000560,0.000353,-0.03,-0.21,9.77
2147153868,0.000067,0.002690,0.005680,0.04,-0.24,9.82
2147154893,-0.000998,0.001625,0.005680,0.01,-0.27,9.78
2147155887,-0.000998,0.001625,0.001419,-0.01,-0.28,9.72
2147156903,-0.000998,0.000560,-0.001777,0.02,-0.26,9.78
2147157906,-0.000998,-0.000506,-0.001777,0.00,-0.22,9.86
2147158917,0.000067,0.000560,-0.000712,0.02,-0.20,9.85
2147159926,0.001132,0.001625,0.001419,0.01,-0.24,9.79
2147160937,-0.000998,0.000560,0.002484,-0.03,-0.24,9.77
2147161952,-0.003129,-0.000506,0.002484,-0.02,-0.21,9.83
2147162969,-0.005260,-0.000506,0.001419,0.02,-0.23,9.85
2147163968,-0.003129,-0.000506,0.000353,0.02,-0.23,9.79
2147164993,-0.000998,0.000560,0.000353,0.02,-0.21,9.80
2147165987,0.000067,0.001625,0.000353,0.00,-0.23,9.86
2147167003,-0.000998,0.001625,0.000353,-0.02,-0.24,9.84
2147168006,-0.002064,0.000560,0.001419,0.00,-0.21,9.81
2147169017,0.001132,-0.000506,0.000353,0.01,-0.21,9.78
2147170026,0.003263,-0.002636,-0.001777,-0.01,-0.22,9.79
2147171037,0.003263,-0.002636,-0.002843,-0.02,-0.25,9.81
2147172052,0.001132,-0.003701,-0.000712,0.00,-0.29,9.84
2147173069,-0.000998,-0.003701,0.001419,-0.01,-0.27,9.86
2147174068,-0.003129,-0.002636,0.000353,-0.03,-0.20,9.88
2147175093,-0.002064,-0.000506,-0.001777,-0.01,-0.21,9.88
2147176087,0.000067,-0.000506,-0.000712,0.00,-0.24,9.78
2147177103,0.002197,-0.001571,0.000353,0.01,-0.24,9.77
2147178106,0.001132,-0.001571,0.001419,0.01,-0.25,9.80
2147179117,0.000067,0.000560,0.002484,0.03,-0.23,9.78
2147180126,0.003263,0.000560,-0.000712,0.03,-0.21,9.77
2147181137,0.002197,-0.000506,-0.002843,0.00,-0.22,9.80
2147182152,-0.000998,-0.000506,-0.001777,-0.03,-0.26,9.81
2147183169,-0.002064,0.001625,0.000353,-0.01,-0.28,9.84
2147184168,-0.000998,0.001625,0.002484,0.01,-0.27,9.84
2147185193,0.001132,0.000560,0.002484,-0.01,-0.24,9.81
2147186187,0.001132,-0.001571,-0.001777,-0.01,-0.22,9.81
2147187203,0.000067,-0.001571,-0.003908,0.00,-0.25,9.84
2147188206,-0.004194,0.000560,-0.002843,0.02,-0.28,9.86
2147189217,-0.006325,0.000560,-0.000712,0.00,-0.24,9.82
2147190226,-0.004194,-0.000506,0.001419,0.00,-0.22,9.83
2147191237,-0.002064,-0.001571,0.000353,0.00,-0.23,9.84
2147192252,-0.002064,-0.001571,0.000353,-0.01,-0.21,9.85
2147193269,-0.002064,-0.001571,-0.000712,-0.01,-0.23,9.85
2147194268,0.000067,-0.002636,-0.002843,-0.04,-0.25,9.86
2147195293,0.002197,-0.004767,-0.002843,-0.03,-0.25,9.85
2147196287,0.002197,-0.005832,-0.002843,-0.02,-0.23,9.81
2147197303,-0.000998,-0.004767,-0.000712,-0.03,-0.23,9.80
2147198306,-0.003129,-0.001571,0.002484,-0.01,-0.23,9.82
2147199317,-0.000998,0.000560,0.002484,0.02,-0.21,9.87
2147200326,0.002197,0.001625,0.001419,0.03,-0.22,9.83
2147201337,0.001132,0.000560,-0.000712,0.02,-0.25,9.82
2147202352,0.001132,-0.001571,-0.001777,0.00,-0.27,9.83
2147203369,-0.000998,-0.000506,-0.002843,0.00,-0.26,9.80
2147204368,-0.000998,0.000560,-0.001777,-0.02,-0.24,9.77
2147205393,0.000067,-0.001571,-0.000712,-0.03,-0.23,9.75
2147206387,0.000067,-0.002636,-0.001777,0.01,-0.20,9.77
2147207403,0.001132,0.000560,-0.001777,0.02,-0.18,9.77
2147208406,0.002197,0.002690,-0.000712,0.03,-0.22,9.80
2147209417,0.003263,0.001625,0.000353,0.01,-0.24,9.83
2147210426,0.003263,-0.002636,0.000353,0.00,-0.22,9.80
2147211437,0.002197,-0.003701,-0.000712,0.02,-0.21,9.83
2147212452,0.001132,-0.001571,-0.001777,0.00,-0.21,9.85
2147213469,-0.000998,-0.000506,-0.001777,-0.02,-0.23,9.81
2147214468,-0.002064,-0.000506,-0.000712,-0.01,-0.23,9.83
2147215493,0.000067,-0.000506,0.001419,0.01,-0.24,9.83
2147216513,0.001167,-0.001521,0.000352,0.01,-0.25,9.81
2147217503,0.000102,-0.002586,-0.000713,0.01,-0.24,9.83
2147218506,-0.000963,-0.002586,-0.000713,-0.02,-0.25,9.88
2147219517,-0.000963,-0.001521,-0.000713,-0.02,-0.24,9.82
2147220526,0.001167,-0.000456,0.000352,0.01,-0.20,9.79
2147221537,0.002232,-0.001521,0.001417,0.00,-0.23,9.83
2147222552,0.001167,-0.002586,0.001417,-0.02,-0.27,9.84
2147223570,-0.000963,-0.000456,0.001417,-0.03,-0.26,9.85
2147224569,-0.000963,0.002740,0.000352,-0.01,-0.22,9.81
2147225601,-0.000963,0.004871,0.000352,0.02,-0.21,9.78
2147226610,-0.000963,0.003805,0.000352,0.04,-0.23,9.78
2147227607,0.000102,0.002740,-0.000713,0.04,-0.23,9.82
2147228613,-0.000963,0.000610,0.000352,0.04,-0.24,9.84
2147229624,-0.002029,0.000610,0.000352,0.04,-0.22,9.83
2147230634,-0.002029,0.001675,0.000352,0.06,-0.22,9.82
2147231647,0.001167,0.001675,-0.001779,0.04,-0.23,9.79
2147232665,0.002232,0.000610,-0.002844,-0.01,-0.25,9.81
2147233702,0.002232,0.000610,-0.002844,-0.01,-0.24,9.79
2147234676,-0.000963,0.000610,-0.001779,-0.02,-0.23,9.77
2147235705,-0.003094,-0.000456,-0.000713,-0.01,-0.25,9.80
2147236697,-0.003094,-0.000456,-0.000713,-0.01,-0.26,9.81
2147237716,-0.000963,-0.000456,-0.001779,0.01,-0.24,9.79
2147238715,0.000102,0.001675,-0.001779,0.00,-0.25,9.77
2147239727,0.000102,0.002740,-0.001779,0.00,-0.25,9.76
2147240737,0.001167,0.001675,-0.000713,0.04,-0.25,9.78
2147241749,0.002232,-0.000456,0.000352,0.01,-0.22,9.84
2147242759,0.003298,-0.002586,0.001417,0.02,-0.21,9.84
2147243780,0.004363,-0.000456,0.000352,0.02,-0.23,9.85
2147244773,0.004363,0.000610,-0.000713,-0.02,-0.25,9.82
2147245794,0.004363,-0.000456,-0.002844,0.00,-0.27,9.78
2147246787,0.002232,0.001675,-0.002844,0.00,-0.26,9.80
2147247806,0.001167,0.000610,-0.000713,0.00,-0.23,9.78
2147248810,0.002232,-0.000456,0.003548,0.03,-0.23,9.83
2147249821,0.003298,-0.000456,0.004613,0.01,-0.22,9.86
2147250828,0.001167,-0.000456,0.003548,-0.03,-0.20,9.83
2147251841,-0.002029,-0.002586,0.001417,-0.03,-0.24,9.84
2147252866,-0.003094,-0.000456,0.002482,-0.01,-0.28,9.88
2147253858,-0.002029,0.002740,0.003548,-0.01,-0.26,9.83
2147254867,-0.000963,0.002740,0.001417,0.01,-0.26,9.78
2147255893,-0.000963,-0.000456,-0.000713,0.00,-0.23,9.84
2147256901,-0.000963,-0.002586,0.000352,-0.03,-0.24,9.84
2147257903,-0.000963,-0.003652,0.000352,-0.03,-0.25,9.81
2147258906,-0.000963,-0.001521,-0.000713,-0.01,-0.25,9.82
2147259917,0.000102,-0.000456,-0.000713,0.01,-0.27,9.87
2147260926,0.001167,-0.000456,0.000352,-0.02,-0.27,9.86
2147261937,0.001167,0.000610,0.002482,-0.02,-0.25,9.86
2147262966,0.001167,0.003805,0.001417,0.03,-0.23,9.85
2147263958,0.001167,0.002740,-0.001779,0.00,-0.21,9.82
2147264967,0.000102,0.000610,-0.002844,-0.02,-0.18,9.79
2147265993,0.001167,-0.002586,-0.000713,0.00,-0.20,9.79
2147266987,0.001167,-0.002586,0.001417,0.02,-0.26,9.82
2147268003,0.001167,-0.001521,0.001417,0.02,-0.28,9.84
2147269006,0.001167,0.002740,0.000352,0.00,-0.25,9.84
2147270017,0.000102,0.003805,0.001417,0.02,-0.22,9.84
2147271026,0.001167,0.001675,0.001417,0.01,-0.23,9.84
2147272037,0.001167,-0.000456,-0.000713,-0.02,-0.24,9.86
2147273066,0.001167,0.000610,-0.001779,-0.04,-0.22,9.84
2147274058,0.001167,0.000610,-0.000713,-0.03,-0.23,9.85
2147275067,0.000102,-0.000456,0.000352,0.01,-0.26,9.86
2147276093,-0.000963,-0.003652,0.002482,0.01,-0.26,9.82
2147277087,-0.002029,-0.004717,0.001417,0.00,-0.26,9.85
2147278103,-0.004159,-0.002586,0.000352,0.00,-0.26,9.87
2147279106,-0.004159,-0.000456,0.000352,0.01,-0.25,9.84
2147280117,-0.003094,0.001675,0.000352,0.02,-0.24,9.79
2147281126,-0.000963,0.003805,0.001417,0.02,-0.25,9.78
2147282137,-0.002029,0.002740,0.001417,0.01,-0.25,9.86
2147283167,-0.002029,0.000610,0.000352,-0.01,-0.24,9.82
2147284158,-0.003094,-0.001521,-0.001779,0.00,-0.25,9.75
2147285167,-0.000963,-0.001521,-0.000713,0.04,-0.21,9.82
2147286176,0.001167,-0.000456,0.001417,0.03,-0.21,9.80
2147287187,-0.002029,-0.002586,-0.001779,-0.01,-0.25,9.76
2147288202,-0.002029,-0.003652,-0.004975,-0.02,-0.26,9.80
2147289207,-0.000963,-0.001521,-0.004975,0.02,-0.27,9.78
2147290216,0.002232,-0.000456,-0.001779,0.03,-0.26,9.78
2147291227,0.002232,0.000610,-0.000713,0.02,-0.26,9.82
2147292236,0.001167,0.000610,-0.000713,0.02,-0.26,9.80
2147293267,0.000102,0.001675,-0.000713,0.00,-0.23,9.82
2147294258,-0.000963,0.002740,0.001417,0.01,-0.22,9.89
2147295267,-0.003094,0.000610,0.002482,0.00,-0.21,9.89
2147296276,-0.002029,-0.001521,0.002482,-0.01,-0.24,9.88
2147297287,0.000102,-0.000456,0.001417,0.01,-0.25,9.86
2147298302,0.001167,0.000610,0.000352,0.05,-0.26,9.85
2147299307,0.001167,-0.000456,0.000352,0.04,-0.28,9.86
2147300316,0.000102,-0.000456,0.001417,0.01,-0.23,9.81
2147301327,-0.000963,0.001675,0.000352,0.01,-0.22,9.79
2147302336,-0.002029,0.002740,-0.001779,0.00,-0.25,9.77
2147303408,-0.003094,0.000610,0.000352,-0.01,-0.25,9.83
2147304379,-0.002029,0.000610,0.002482,-0.02,-0.22,9.86
2147305390,0.000102,0.000610,0.003548,-0.01,-0.23,9.89
2147306380,0.001167,-0.000456,0.002482,-0.02,-0.26,9.92
2147307387,0.000102,-0.001521,0.000352,-0.02,-0.26,9.85
2147308402,-0.002029,0.000610,0.000352,-0.02,-0.21,9.81
2147309413,-0.002029,-0.000456,0.000352,-0.02,-0.21,9.82
2147310418,-0.000963,-0.001521,0.001417,-0.01,-0.24,9.85
2147311428,-0.000963,-0.000456,0.000352,0.01,-0.24,9.84
2147312436,-0.002029,0.001675,-0.000713,0.02,-0.25,9.82
2147313467,-0.002029,0.001675,-0.000713,0.02,-0.26,9.85
2147314458,0.000102,-0.001521,0.000352,0.01,-0.27,9.89
2147315467,0.000102,-0.001521,0.000352,0.00,-0.26,9.86
2147316476,-0.002029,0.000610,0.001417,-0.04,-0.22,9.79
2147317487,-0.002029,0.001675,0.001417,-0.04,-0.19,9.81
2147318502,-0.000963,0.000610,0.000352,-0.01,-0.23,9.81
2147319507,-0.000963,0.001675,-0.000713,0.02,-0.25,9.78
2147320514,0.000102,0.001675,-0.000713,0.03,-0.24,9.82
2147321623,0.000102,0.001675,0.001417,0.03,-0.25,9.84
2147322529,0.000102,0.002740,0.003548,0.01,-0.27,9.80
2147323550,-0.015877,-0.011109,-0.001779,-0.08,-0.36,9.74
2147324541,-0.027595,-0.038806,-0.008170,-0.02,-0.24,9.78
2147325549,-0.012681,-0.032414,-0.011366,-0.03,-0.25,9.88
2147326559,-0.000963,-0.013239,-0.014562,-0.04,-0.31,9.82
2147327572,-0.004159,-0.004717,-0.017758,0.10,-0.26,9.85
2147328590,-0.000963,-0.003652,-0.019889,0.05,-0.25,9.84
2147329591,-0.000963,-0.002586,-0.019889,0.09,-0.28,9.81
2147330609,-0.006290,-0.004717,-0.018823,0.13,-0.07,9.92
2147331621,-0.003094,-0.002586,-0.022019,-0.08,0.00,9.81
2147332626,-0.015877,0.003805,-0.024150,-0.31,-0.18,9.77
2147333660,-0.023334,-0.004717,-0.013497,-0.13,-0.33,9.76
2147334657,-0.026530,-0.007913,0.004613,0.26,-0.40,9.73
2147335682,-0.026530,0.000610,0.015266,0.31,-0.07,9.89
2147336670,-0.013747,0.013393,0.014200,-0.27,-0.09,10.06
2147337683,0.006494,0.005936,0.008874,-0.55,-0.66,9.88
2147338691,0.023538,-0.013239,0.014200,0.45,-0.23,9.68
2147339700,0.002232,-0.001521,0.019527,0.52,0.38,9.75
2147340706,-0.020138,0.020850,0.009939,-0.47,-1.05,9.84
2147341719,0.011820,0.003805,0.005678,-0.25,-0.72,9.95
2147342730,0.033126,-0.024957,0.012070,0.57,1.19,9.84
2147343765,-0.010551,-0.003652,0.007809,-0.05,-1.17,9.74
2147344749,-0.018008,0.003805,0.003548,-0.44,-1.21,9.63
2147345754,0.039517,-0.007913,0.004613,0.64,1.51,10.05
2147346763,-0.003094,0.018719,-0.000713,-0.22,-1.50,9.95
2147347769,-0.039313,0.016589,0.001417,-0.79,-0.20,9.01
2147348788,0.024603,0.007001,-0.003909,0.74,0.71,10.09
2147349793,-0.015877,0.007001,-0.001779,-0.07,-1.13,10.28
2147350803,-0.014812,-0.005782,-0.000713,-0.32,0.32,9.28
2147351811,-0.002029,0.003805,-0.006040,0.16,-0.42,10.95
2147352823,-0.015877,-0.011109,-0.003909,0.12,-0.25,8.93
2147353851,0.012885,0.001675,-0.009236,-0.25,-0.05,9.90
2147354841,-0.041444,0.013393,-0.001779,0.30,-0.35,10.17
2147355849,0.001167,0.015523,-0.006040,-0.18,-0.41,9.49
2147356859,-0.014812,0.005936,0.000352,-0.14,0.01,10.23
2147357869,-0.011616,0.018719,0.006744,-0.19,-0.57,10.07
2147358884,0.006494,0.009132,0.002482,-0.17,0.37,9.57
2147359889,-0.009486,0.007001,0.004613,0.14,-0.93,10.06
2147360899,-0.005224,0.005936,0.001417,0.29,0.02,9.68
2147361909,-0.007355,0.005936,0.004613,-1.01,0.08,9.91
2147362919,0.003298,-0.000456,0.007809,0.74,-0.43,9.66
2147363949,-0.002029,-0.017500,0.000352,0.40,-0.20,9.20
2147364941,0.022473,0.001675,-0.000713,-0.16,-0.63,10.61
2147365949,0.017146,0.018719,-0.008170,0.70,0.45,10.41
2147366959,-0.004159,0.001675,-0.012432,-0.82,-0.34,9.08
2147367969,-0.000963,-0.011109,-0.017758,0.06,-0.27,9.81
2147368984,0.009689,0.001675,-0.020954,0.51,0.01,9.61
2147369989,0.008624,0.005936,-0.020954,-0.55,-0.46,10.28
2147370999,0.010755,-0.006847,-0.020954,0.13,-0.07,10.06
2147372009,-0.000963,-0.002586,-0.018823,0.08,-0.21,9.09
2147373019,-0.000963,-0.001521,-0.014562,-0.44,-0.69,9.96
2147374051,0.010755,-0.006847,-0.011366,0.29,0.06,10.07
2147375041,0.008624,-0.010043,-0.010301,0.19,-0.20,9.31
2147376049,-0.002029,-0.001521,-0.003909,-0.67,-0.74,9.96
2147377059,-0.011616,0.001675,0.000352,0.13,-0.12,10.39
2147378069,-0.007355,-0.001521,0.002482,0.47,-0.26,9.57
2147379084,-0.004159,-0.000456,0.006744,-0.65,-0.47,9.70
2147380089,-0.007355,0.003805,0.007809,-0.13,-0.43,9.94
2147381099,-0.005224,0.008067,0.007809,0.67,-0.05,10.06
2147382109,-0.010551,0.004871,0.008874,-0.17,-0.18,9.77
2147383133,-0.015877,-0.000456,0.012070,-0.62,-0.51,9.93
2147384136,-0.016943,0.001675,0.013135,0.37,-0.11,10.16
2147385139,-0.009486,0.002740,0.014200,0.71,-0.23,9.74
2147386149,-0.000963,0.005936,0.018462,-0.40,-0.28,9.58
2147387159,0.001167,0.004871,0.020592,-0.52,-0.27,9.86
2147388169,-0.004159,0.003805,0.017396,0.54,-0.04,10.09
2147389184,-0.000963,0.001675,0.012070,0.65,-0.28,9.79
2147390189,-0.018008,-0.000456,0.008874,-0.30,-0.23,9.53
2147391199,0.003298,-0.003652,0.006744,-0.51,-0.07,9.80
2147392209,0.028865,-0.003652,0.005678,0.31,-0.36,10.08
2147393235,0.034191,-0.005782,0.002482,0.66,-0.16,9.93
2147394236,0.013951,-0.013239,-0.002844,0.12,-0.10,9.75
2147395239,-0.005224,-0.011109,-0.006040,-0.61,0.00,9.60
2147396249,-0.011616,-0.010043,-0.010301,-0.32,-0.44,9.73
2147397259,-0.005224,-0.005782,-0.011366,0.45,-0.46,10.06
2147398269,-0.007355,-0.001521,-0.012432,0.45,-0.18,9.91
2147399284,-0.003094,0.000610,-0.011366,-0.04,0.12,9.77
2147400289,-0.000963,0.000610,-0.008170,-0.75,0.09,9.53
2147401299,0.001167,-0.002586,-0.006040,-0.44,-0.90,9.62
2147402309,0.006494,-0.002586,-0.003909,0.22,-0.63,10.05
2147403333,0.007559,-0.001521,0.000352,0.30,0.10,9.97
2147404336,0.005428,0.003805,0.002482,0.19,0.19,9.97
2147405339,-0.000963,0.007001,0.002482,-0.35,-0.03,9.68
2147406349,-0.004159,0.004871,0.003548,-0.61,-0.71,9.45
2147407359,0.002232,0.001675,0.005678,-0.15,-0.96,9.70
2147408369,-0.002029,0.004871,0.007809,0.17,-0.28,9.86
2147409384,-0.014812,0.008067,0.005678,0.39,0.35,10.06
2147410389,-0.019073,0.008067,0.004613,0.50,0.25,10.32
2147411399,-0.018008,0.008067,0.003548,0.07,-0.12,10.09
2147412409,-0.013747,0.003805,0.002482,-0.43,-0.63,9.28
2147413435,0.002232,0.002740,0.005678,-0.38,-1.02,9.31
2147414436,0.001167,0.002740,0.008874,-0.01,-0.49,9.80
2147415439,0.001167,-0.000456,0.008874,0.28,0.23,9.98
2147416449,0.003298,0.001675,0.006744,0.60,0.53,10.32
2147417459,-0.002029,0.002740,0.004613,0.67,0.24,10.39
2147418469,-0.014812,-0.004717,0.003548,0.17,-0.31,10.04
2147419484,-0.026530,-0.013239,0.002482,-0.40,-0.67,9.23
2147420489,-0.019073,-0.012174,0.000352,-0.68,-0.93,8.99
2147421499,0.000102,-0.001521,-0.000713,-0.52,-0.74,9.49
2147422509,0.004363,0.002740,-0.000713,-0.12,-0.18,9.83
2147423533,-0.000963,-0.004717,-0.001779,0.18,0.40,10.26
2147424536,-0.000963,-0.001521,-0.001779,0.45,0.55,10.41
2147425539,0.003298,0.007001,0.000352,0.63,0.08,10.37
2147426549,0.002232,0.000610,-0.001779,0.39,-0.36,10.21
2147427559,-0.005224,-0.008978,-0.003909,-0.21,-0.66,9.50
2147428572,-0.011616,-0.000456,-0.004975,-0.60,-0.86,8.89
2147429590,-0.009486,0.016589,-0.004975,-0.69,-0.82,9.04
2147430592,-0.006290,0.024046,-0.001779,-0.59,-0.54,9.52
2147431608,-0.007355,0.019785,-0.002844,-0.26,-0.07,9.87
2147432622,-0.011616,0.014458,-0.006040,0.10,0.32,10.18
2147433643,-0.008420,0.013393,-0.006040,0.48,0.40,10.36
2147434642,0.005428,0.009132,-0.003909,0.69,0.22,10.32
2147435657,0.006494,-0.000456,0.003548,0.69,-0.11,10.30
2147436656,-0.000963,-0.002586,0.004613,0.48,-0.42,10.28
2147437671,-0.009486,-0.002586,0.000352,0.06,-0.59,9.90
2147438693,0.003298,0.001675,0.000352,-0.29,-0.69,9.23
2147439692,0.004363,0.004871,0.002482,-0.54,-0.66,8.81
2147440696,0.009689,-0.000456,0.003548,-0.59,-0.50,8.98
2147441703,0.008624,-0.002586,0.002482,-0.47,-0.31,9.47
2147442721,-0.009486,-0.006847,0.000352,-0.28,-0.11,9.82
2147443746,-0.020138,-0.015370,-0.000713,-0.04,0.03,10.01
2147444745,-0.009486,-0.013239,-0.000713,0.18,0.13,10.25
2147445747,0.008624,-0.001521,0.000352,0.39,0.15,10.37
2147446754,0.023538,0.009132,0.002482,0.51,0.04,10.30
2147447763,0.025669,0.010197,0.001417,0.57,-0.13,10.22
2147448769,0.018212,0.007001,0.000352,0.49,-0.29,10.24
2147449788,0.015016,0.005936,0.000352,0.24,-0.39,10.27
2147450793,0.015016,0.008067,-0.001779,0.04,-0.46,10.10
2147451803,0.010755,0.007001,-0.002844,-0.15,-0.49,9.64
2147452811,0.003298,-0.000456,-0.001779,-0.39,-0.50,9.18
2147453839,0.002232,-0.004717,0.000352,-0.51,-0.45,8.94
2147454836,0.002232,-0.000456,0.002482,-0.52,-0.39,8.97
2147455839,-0.004159,0.002740,-0.000713,-0.53,-0.30,9.25
2147456849,-0.007355,0.000610,-0.002844,-0.44,-0.20,9.54
2147457859,-0.007355,0.002740,-0.001779,-0.25,-0.17,9.79
2147458869,-0.007355,0.003805,-0.000713,-0.11,-0.12,9.93
2147459884,0.001167,0.003805,0.002482,0.16,-0.02,10.15
2147460889,-0.004159,-0.001521,0.000352,0.28,-0.04,10.21
2147461899,-0.006290,-0.004717,-0.000713,0.34,-0.08,10.22
2147462909,-0.007355,-0.001521,0.001417,0.41,-0.11,10.22
2147463933,-0.011616,0.004871,0.002482,0.48,-0.18,10.14
2147464936,0.000102,0.004871,0.001417,0.49,-0.26,10.13
2147465939,0.004363,0.002740,0.000352,0.42,-0.27,10.22
2147466949,-0.000963,0.002740,-0.001779,0.29,-0.29,10.26
2147467959,-0.000963,0.000610,-0.001779,0.17,-0.33,10.20
2147468969,0.016081,-0.003652,0.000352,0.08,-0.29,10.10
2147469984,0.020342,-0.001521,0.000352,-0.02,-0.29,9.90
2147470989,-0.004159,0.001675,-0.002844,-0.11,-0.34,9.60
2147471999,-0.027595,0.000610,-0.004975,-0.24,-0.33,9.30
2147473009,-0.032922,-0.004717,-0.003909,-0.28,-0.34,9.11
2147474035,-0.026530,-0.012174,-0.001779,-0.28,-0.35,9.02
2147475036,-0.014812,-0.012174,0.000352,-0.35,-0.31,9.07
2147476039,-0.000963,-0.010043,0.002482,-0.40,-0.28,9.23
2147477049,0.008624,-0.008978,0.005678,-0.40,-0.26,9.43
2147478059,0.015016,-0.010043,0.005678,-0.35,-0.24,9.61
2147479069,0.017146,-0.011109,0.003548,-0.29,-0.21,9.74
2147480084,0.011820,-0.008978,0.003548,-0.22,-0.17,9.85
2147481089,0.004363,-0.002586,0.004613,-0.14,-0.20,9.86
2147482099,-0.002029,0.001675,0.002482,-0.07,-0.21,9.91
2147483124,-0.005224,0.000610,0.000352,-0.02,-0.20,10.02
2147484121,-0.004159,0.000610,-0.000713,0.03,-0.18,10.07
2147485134,-0.007355,-0.001521,-0.001779,0.08,-0.16,10.13
2147486139,-0.012681,-0.001521,-0.003909,0.16,-0.16,10.11
2147487149,-0.006290,-0.000456,-0.003909,0.22,-0.18,10.08
2147488159,0.010755,-0.000456,-0.002844,0.23,-0.19,10.08
2147489169,0.012885,-0.002586,-0.002844,0.26,-0.22,10.03
2147490184,0.003298,-0.003652,-0.001779,0.29,-0.23,10.01
2147491189,-0.000963,-0.001521,-0.001779,0.28,-0.22,10.01
2147492199,0.001167,0.003805,-0.002844,0.33,-0.21,10.03
2147493227,0.006494,0.003805,-0.001779,0.36,-0.26,10.00
2147494221,0.005428,0.001675,0.001417,0.32,-0.27,10.02
2147495234,0.002232,0.002740,0.001417,0.25,-0.25,10.11
2147496239,0.002232,0.004871,0.000352,0.22,-0.26,10.13
2147497249,0.001167,-0.000456,-0.000713,0.19,-0.27,10.17
2147498259,-0.008420,-0.002586,0.000352,0.10,-0.25,10.20
2147499269,-0.018008,-0.000456,-0.000713,0.06,-0.26,10.12
2147500284,-0.009486,0.000610,-0.001779,0.06,-0.30,10.03
2147501289,0.000102,0.000610,-0.002844,0.07,-0.31,9.91
2147502299,-0.002029,-0.000456,-0.001779,0.02,-0.33,9.82
2147503324,-0.003094,0.000610,-0.000713,-0.07,-0.36,9.77
2147504321,0.000102,0.000610,0.001417,-0.08,-0.35,9.67
2147505334,0.001167,0.000610,0.003548,-0.09,-0.36,9.56
2147506339,0.003298,0.000610,0.004613,-0.15,-0.34,9.46
2147507349,0.002232,-0.000456,0.004613,-0.17,-0.33,9.40
2147508359,0.003298,0.001675,0.003548,-0.19,-0.38,9.33
2147509369,0.003298,0.007001,0.002482,-0.21,-0.30,9.26
2147510384,0.000102,0.004871,0.002482,-0.21,-0.30,9.27
2147511389,0.005428,0.000610,0.003548,-0.20,-0.29,9.34
2147512399,0.006494,-0.003652,0.002482,-0.19,-0.26,9.41
2147513427,-0.004159,-0.005782,0.000352,-0.23,-0.30,9.46
2147514421,-0.008420,-0.003652,-0.002844,-0.23,-0.24,9.53
2147515434,-0.007355,-0.004717,-0.002844,-0.21,-0.25,9.55
2147516439,-0.004159,-0.005782,-0.003909,-0.23,-0.26,9.65
2147517449,-0.002029,-0.006847,-0.006040,-0.19,-0.23,9.74
2147518459,-0.002029,-0.010043,-0.004975,-0.14,-0.22,9.82
2147519469,-0.003094,-0.007913,-0.002844,-0.14,-0.26,9.86
2147520484,0.001167,-0.005782,-0.003909,-0.10,-0.31,9.89
2147521489,0.001167,-0.002586,-0.003909,-0.07,-0.29,9.90
2147522499,0.002232,-0.001521,-0.001779,-0.04,-0.27,9.91
2147523524,-0.004159,0.002740,-0.000713,-0.06,-0.29,9.95
2147524521,0.001167,0.001675,-0.002844,-0.03,-0.28,9.98
2147525534,-0.003094,0.003805,-0.001779,-0.02,-0.24,10.00
2147526539,0.003298,-0.000456,0.000352,-0.03,-0.23,10.00
2147527549,-0.005224,0.002740,0.001417,-0.02,-0.24,10.02
2147528559,-0.002029,0.002740,0.002482,0.01,-0.26,9.99
2147529573,-0.006290,0.003805,0.002482,0.06,-0.23,10.03
2147530589,0.002232,-0.000456,0.001417,0.06,-0.21,9.98
2147531593,0.001167,-0.001521,0.002482,0.09,-0.18,9.99
2147532606,0.006494,-0.003652,0.002482,0.12,-0.20,9.99
2147533634,0.007559,-0.002586,0.002482,0.12,-0.22,9.96
2147534627,0.006494,-0.001521,0.002482,0.15,-0.20,9.92
2147535642,0.008624,-0.002586,0.003548,0.13,-0.23,9.89
2147536658,0.005428,-0.001521,0.003548,0.16,-0.24,9.90
2147537656,0.009689,-0.003652,0.002482,0.19,-0.20,9.92
2147538674,-0.002029,-0.001521,0.000352,0.16,-0.22,9.96
2147539679,0.001167,-0.006847,-0.000713,0.16,-0.24,9.93
2147540715,-0.006290,-0.000456,-0.000713,0.17,-0.23,9.93
2147541693,0.001167,0.000610,-0.000713,0.20,-0.24,9.92
2147542706,0.005428,0.000610,0.001417,0.16,-0.22,9.96
2147543740,0.007559,0.003805,0.003548,0.17,-0.19,9.96
2147544734,0.016081,0.001675,0.000352,0.20,-0.23,9.94
2147545740,0.008624,0.005936,-0.001779,0.14,-0.26,10.01
2147546748,0.012885,0.002740,-0.001779,0.14,-0.25,10.00
2147547754,-0.003094,0.002740,-0.002844,0.17,-0.22,10.00
2147548763,-0.003094,0.002740,0.000352,0.13,-0.23,10.00
2147549769,0.006494,0.001675,0.001417,0.08,-0.25,9.98
2147550788,-0.002029,0.004871,0.001417,0.09,-0.21,10.02
2147551793,0.004363,0.000610,0.000352,0.05,-0.21,9.98
2147552803,-0.007355,0.002740,-0.002844,0.05,-0.23,9.99
2147553829,-0.009486,0.002740,-0.001779,0.07,-0.24,10.06
2147554825,0.003298,-0.003652,0.001417,0.02,-0.23,9.97
2147555834,-0.003094,-0.001521,0.004613,0.01,-0.20,9.90
2147556839,0.002232,-0.002586,0.004613,0.04,-0.18,9.95
2147557849,-0.003094,-0.003652,0.002482,0.02,-0.16,9.90
2147558859,-0.013747,-0.002586,0.000352,0.00,-0.18,9.83
2147559869,0.002232,-0.004717,0.000352,0.03,-0.19,9.88
2147560884,-0.003094,-0.001521,0.000352,0.03,-0.21,9.85
2147561889,0.003298,-0.001521,0.002482,-0.02,-0.28,9.78
2147562899,-0.003094,-0.000456,0.000352,0.00,-0.24,9.72
2147563924,-0.002029,-0.000456,0.000352,-0.01,-0.23,9.66
2147564921,0.005428,-0.003652,0.000352,-0.04,-0.26,9.67
2147565934,-0.005224,0.003805,-0.001779,-0.04,-0.28,9.64
2147566939,0.000102,0.003805,-0.000713,-0.06,-0.29,9.62
2147567949,0.007559,0.001675,-0.000713,-0.12,-0.26,9.62
2147568959,-0.006290,0.009132,-0.000713,-0.11,-0.27,9.56
2147569969,-0.002029,0.005936,0.000352,-0.11,-0.26,9.53
2147570984,0.010755,-0.003652,-0.000713,-0.14,-0.27,9.52
2147571989,-0.000963,0.001675,-0.002844,-0.12,-0.25,9.55
2147572999,-0.004159,0.004871,-0.001779,-0.10,-0.24,9.56
2147574027,0.010755,0.000610,-0.000713,-0.09,-0.31,9.57
2147575021,0.001167,0.003805,-0.001779,-0.11,-0.28,9.56
2147576034,-0.013747,0.009132,-0.000713,-0.12,-0.26,9.57
2147577039,0.003298,0.001675,-0.000713,-0.11,-0.25,9.64
2147578049,0.007559,-0.004717,-0.003909,-0.14,-0.24,9.63
2147579059,-0.014812,0.000610,-0.004975,-0.14,-0.25,9.56
2147580069,-0.008420,0.001675,-0.001779,-0.12,-0.23,9.63
2147581084,0.009689,-0.003652,0.000352,-0.13,-0.21,9.70
2147582089,-0.004159,-0.001521,-0.000713,-0.10,-0.22,9.68
2147583113,-0.020138,0.002740,-0.001779,-0.07,-0.23,9.65
2147584111,0.000102,-0.002586,-0.001779,-0.09,-0.23,9.70
2147585119,0.012885,-0.005782,-0.001779,-0.10,-0.23,9.71
2147586134,-0.008420,0.002740,-0.000713,-0.11,-0.23,9.66
2147587139,-0.023334,0.005936,0.001417,-0.09,-0.24,9.71
2147588149,0.000102,-0.002586,0.003548,-0.08,-0.23,9.77
2147589159,0.017146,-0.005782,0.002482,-0.09,-0.24,9.83
2147590169,-0.003094,0.005936,-0.002844,-0.08,-0.24,9.82
2147591184,-0.019073,0.011262,-0.004975,-0.09,-0.22,9.78
2147592189,0.003298,-0.004717,-0.002844,-0.10,-0.22,9.76
2147593215,0.020342,-0.014304,-0.001779,-0.04,-0.23,9.81
2147594211,0.002232,-0.001521,-0.002844,-0.03,-0.24,9.85
2147595219,-0.019073,0.010197,-0.002844,-0.04,-0.26,9.85
2147596234,-0.005224,0.005936,-0.000713,-0.05,-0.23,9.86
2147597239,0.021408,-0.004717,0.000352,-0.04,-0.21,9.85
2147598249,0.015016,-0.003652,-0.001779,-0.03,-0.22,9.83
2147599259,-0.014812,0.009132,-0.001779,-0.03,-0.24,9.81
2147600269,-0.021204,0.012328,0.001417,-0.05,-0.23,9.81
2147601284,0.008624,0.002740,0.006744,-0.08,-0.23,9.82
2147602289,0.029930,-0.004717,0.006744,-0.05,-0.29,9.80
2147603313,0.013951,-0.000456,0.001417,-0.03,-0.26,9.80
2147604311,-0.018008,0.009132,-0.000713,-0.05,-0.23,9.81
2147605319,-0.021204,0.005936,0.002482,-0.04,-0.21,9.85
2147606334,0.008624,-0.005782,0.004613,-0.01,-0.22,9.91
2147607339,0.030995,-0.008978,0.003548,-0.01,-0.23,9.88
2147608349,0.012885,0.001675,0.000352,-0.01,-0.27,9.85
2147609359,-0.025465,0.009132,-0.001779,-0.02,-0.27,9.86
2147610369,-0.031857,0.002740,0.001417,-0.01,-0.23,9.88
2147611384,0.001167,-0.008978,0.005678,0.00,-0.23,9.91
2147612389,0.026734,-0.013239,0.005678,-0.01,-0.26,9.92
2147613415,0.017146,-0.006847,0.001417,0.00,-0.27,9.90
2147614411,-0.014812,0.002740,-0.000713,0.02,-0.27,9.85
2147615419,-0.038248,0.005936,0.000352,0.04,-0.26,9.82
2147616434,-0.023334,0.001675,0.002482,0.01,-0.28,9.85
2147617439,0.013951,-0.005782,0.000352,-0.02,-0.28,9.87
2147618449,0.033126,-0.007913,-0.001779,0.04,-0.24,9.88
2147619459,0.016081,-0.002586,-0.004975,0.04,-0.25,9.91
2147620469,-0.016943,0.003805,-0.004975,-0.02,-0.25,9.92
2147621484,-0.035052,0.003805,-0.001779,0.02,-0.23,9.86
2147622489,-0.015877,-0.003652,0.002482,0.05,-0.23,9.82
2147623513,0.019277,-0.008978,0.003548,0.03,-0.25,9.85
2147624511,0.033126,-0.013239,0.001417,0.03,-0.24,9.86
2147625519,0.019277,-0.010043,-0.001779,0.03,-0.24,9.83
2147626534,-0.005224,0.000610,-0.003909,0.03,-0.21,9.87
2147627539,-0.026530,0.007001,-0.006040,0.01,-0.23,9.93
2147628549,-0.028661,0.010197,-0.003909,0.03,-0.28,9.87
2147629559,-0.002029,0.007001,0.001417,0.05,-0.24,9.87
2147630572,0.030995,-0.000456,0.003548,0.04,-0.21,9.91
2147631589,0.040583,-0.002586,0.005678,0.04,-0.23,9.91
2147632592,0.022473,0.001675,0.001417,0.07,-0.23,9.90
2147633622,-0.004159,0.004871,-0.002844,0.06,-0.22,9.88
2147634620,-0.025465,0.007001,-0.003909,0.03,-0.25,9.88
2147635628,-0.026530,0.004871,-0.000713,0.04,-0.27,9.86
2147636645,-0.013747,0.001675,0.003548,0.03,-0.26,9.82
2147637651,0.013951,-0.001521,0.005678,0.03,-0.24,9.85
2147638656,0.038452,-0.006847,0.006744,0.05,-0.24,9.83
2147639670,0.037387,-0.001521,0.004613,0.05,-0.24,9.82
2147640678,0.015016,0.007001,0.000352,0.03,-0.26,9.90
2147641691,-0.014812,0.011262,-0.004975,0.03,-0.26,9.92
2147642727,-0.033987,0.009132,-0.003909,0.04,-0.25,9.91
2147643733,-0.036118,0.002740,0.002482,0.04,-0.21,9.90
2147644722,-0.019073,-0.003652,0.006744,0.06,-0.22,9.86
2147645729,0.015016,-0.008978,0.007809,0.07,-0.26,9.81
2147646741,0.040583,-0.011109,0.004613,0.04,-0.30,9.81
2147647747,0.040583,-0.011109,0.001417,-0.01,-0.26,9.87
2147648754,0.022473,-0.007913,-0.000713,0.02,-0.25,9.83
2147649763,-0.003094,-0.001521,-0.001779,0.04,-0.25,9.82
2147650769,-0.025465,-0.000456,-0.003909,0.04,-0.23,9.88
2147651788,-0.038248,-0.000456,-0.002844,0.06,-0.23,9.87
2147652793,-0.041444,-0.002586,-0.000713,0.03,-0.26,9.84
2147653819,-0.030791,-0.007913,0.001417,0.05,-0.28,9.84
2147654813,-0.003094,-0.012174,0.005678,0.05,-0.25,9.87
2147655823,0.024603,-0.010043,0.008874,0.06,-0.24,9.83
2147656834,0.041648,-0.002586,0.007809,0.07,-0.27,9.79
2147657839,0.041648,0.000610,0.002482,0.02,-0.27,9.85
2147658849,0.027799,-0.001521,-0.003909,0.02,-0.27,9.86
2147659859,0.011820,-0.003652,-0.006040,0.02,-0.25,9.85
2147660869,-0.004159,-0.005782,-0.003909,0.00,-0.21,9.87
2147661884,-0.019073,-0.001521,-0.001779,0.01,-0.23,9.85
2147662889,-0.035052,0.000610,-0.003909,0.03,-0.23,9.82
2147663913,-0.031857,-0.001521,-0.001779,0.03,-0.23,9.80
2147664911,-0.009486,-0.004717,0.004613,-0.01,-0.22,9.84
2147665919,0.009689,-0.006847,0.006744,0.00,-0.22,9.84
2147666934,0.028865,-0.005782,0.007809,0.03,-0.23,9.82
2147667939,0.036321,-0.005782,0.004613,0.03,-0.19,9.84
2147668949,0.025669,-0.005782,0.000352,0.04,-0.22,9.83
2147669959,0.008624,0.002740,-0.001779,0.08,-0.22,9.82
2147670969,-0.006290,0.014458,0.000352,0.07,-0.20,9.83
2147671984,-0.012681,0.015523,0.002482,0.04,-0.26,9.83
2147672989,-0.000963,0.000610,0.004613,0.04,-0.25,9.88
2147674015,0.011820,-0.013239,0.004613,0.07,-0.23,9.89
2147675011,0.011820,-0.004717,0.002482,0.10,-0.23,9.91
2147676019,-0.000963,0.009132,0.002482,0.10,-0.19,9.97
2147677034,0.001167,0.004871,0.003548,0.11,-0.21,9.92
2147678039,0.007559,0.002740,0.002482,0.11,-0.25,9.91
2147679049,0.003298,0.007001,0.001417,0.07,-0.22,9.93
2147680059,0.006494,-0.000456,0.001417,0.08,-0.20,9.91
2147681069,0.003298,0.000610,-0.000713,0.12,-0.24,9.91
2147682084,0.004363,0.001675,-0.000713,0.14,-0.23,9.96
2147683104,0.006494,0.000610,0.000352,0.16,-0.21,9.97
2147684101,0.000102,-0.000456,0.002482,0.16,-0.23,10.01
2147685109,0.003298,-0.004717,0.001417,0.13,-0.21,10.05
2147686119,-0.005224,-0.000456,0.001417,0.12,-0.19,10.03
2147687134,0.002232,-0.001521,0.002482,0.11,-0.20,10.07
2147688139,-0.003094,0.000610,-0.000713,0.04,-0.21,10.06
2147689149,-0.004159,-0.004717,-0.003909,0.02,-0.20,9.96
2147690159,-0.008420,-0.004717,-0.004975,0.04,-0.20,9.97
2147691169,-0.009486,-0.005782,-0.003909,0.02,-0.21,9.96
2147692184,-0.000963,-0.005782,-0.003909,0.00,-0.25,9.92
2147693207,-0.003094,-0.001521,-0.001779,0.00,-0.26,9.95
2147694201,0.005428,-0.005782,-0.000713,0.01,-0.23,9.87
2147695209,0.000102,-0.003652,-0.000713,-0.01,-0.25,9.75
2147696219,0.002232,-0.003652,-0.000713,-0.06,-0.25,9.68
2147697234,0.005428,-0.002586,0.000352,-0.08,-0.28,9.64
2147698239,0.004363,0.001675,0.000352,-0.08,-0.25,9.68
2147699249,0.016081,0.001675,0.000352,-0.10,-0.21,9.58
2147700259,0.012885,0.001675,-0.000713,-0.11,-0.26,9.51
2147701269,0.011820,-0.002586,-0.000713,-0.10,-0.26,9.55
2147702284,0.009689,-0.004717,-0.000713,-0.06,-0.25,9.51
2147703304,-0.007355,-0.003652,-0.000713,-0.08,-0.28,9.48
2147704301,-0.000963,-0.004717,-0.001779,-0.13,-0.25,9.51
2147705309,0.000102,-0.001521,-0.000713,-0.12,-0.24,9.46
2147706319,-0.000963,0.000610,0.002482,-0.12,-0.25,9.51
2147707334,0.013951,-0.006847,0.006744,-0.12,-0.23,9.59
2147708339,0.008624,-0.007913,0.005678,-0.14,-0.25,9.55
2147709349,-0.013747,-0.007913,0.003548,-0.16,-0.25,9.58
2147710359,-0.014812,-0.010043,0.001417,-0.14,-0.25,9.55
2147711369,-0.013747,-0.003652,-0.001779,-0.13,-0.23,9.57
2147712384,-0.010551,-0.001521,-0.001779,-0.17,-0.24,9.60
2147713407,0.008624,-0.008978,-0.000713,-0.20,-0.27,9.61
2147714401,0.008624,-0.004717,-0.001779,-0.15,-0.25,9.69
2147715409,-0.016943,0.002740,-0.002844,-0.12,-0.26,9.70
2147716419,-0.020138,-0.002586,-0.000713,-0.13,-0.27,9.69
2147717434,0.004363,-0.004717,0.000352,-0.13,-0.28,9.68
2147718439,0.003298,-0.000456,-0.002844,-0.11,-0.26,9.70
2147719449,-0.012681,-0.001521,-0.004975,-0.10,-0.24,9.75
2147720459,0.003298,-0.003652,-0.000713,-0.14,-0.25,9.79
2147721469,0.016081,0.002740,-0.000713,-0.10,-0.25,9.82
2147722484,-0.002029,0.008067,-0.000713,-0.06,-0.26,9.80
2147723504,-0.015877,0.002740,0.001417,-0.05,-0.26,9.80
2147724501,0.007559,-0.001521,0.003548,-0.03,-0.24,9.79
2147725509,0.024603,0.003805,0.002482,-0.06,-0.25,9.79
2147726519,0.006494,0.005936,-0.002844,-0.07,-0.26,9.82
2147727534,-0.018008,0.002740,-0.003909,-0.06,-0.24,9.82
2147728539,-0.011616,0.000610,0.001417,-0.01,-0.24,9.82
2147729549,0.018212,0.001675,0.004613,-0.01,-0.26,9.86
2147730559,0.025669,-0.000456,0.001417,-0.04,-0.23,9.86
2147731572,0.002232,0.000610,-0.000713,-0.03,-0.25,9.91
2147732590,-0.021204,0.005936,-0.001779,-0.05,-0.27,9.93
2147733612,-0.014812,0.001675,-0.000713,-0.02,-0.28,9.89
2147734609,0.015016,-0.003652,0.002482,0.00,-0.29,9.86
2147735619,0.024603,-0.000456,0.000352,-0.02,-0.27,9.85
2147736626,0.008624,-0.000456,-0.002844,-0.01,-0.22,9.90
2147737641,-0.018008,-0.004717,-0.003909,0.00,-0.23,9.86
2147738663,-0.033987,-0.011109,-0.000713,-0.02,-0.25,9.82
2147739660,-0.024400,-0.016435,0.001417,-0.04,-0.25,9.84
2147740675,-0.002029,-0.015370,0.004613,-0.03,-0.26,9.88
2147741679,0.017146,-0.007913,0.002482,-0.01,-0.25,9.83
2147742691,0.015016,-0.002586,-0.000713,-0.03,-0.23,9.78
2147743714,-0.000963,0.001675,-0.001779,-0.04,-0.22,9.86
2147744711,-0.016943,0.005936,-0.002844,0.02,-0.23,9.91
2147745733,-0.021204,0.002740,-0.000713,0.03,-0.27,9.86
2147746731,-0.008420,-0.004717,0.002482,0.01,-0.24,9.87
2147747743,0.008624,-0.005782,0.001417,0.00,-0.23,9.90
2147748748,0.004363,-0.001521,-0.001779,-0.01,-0.23,9.91
2147749754,-0.013747,0.002740,-0.002844,-0.01,-0.21,9.90
2147750763,-0.021204,0.008067,-0.000713,0.01,-0.23,9.92
2147751769,-0.000963,0.007001,0.000352,0.01,-0.25,9.91
2147752788,0.019277,0.007001,0.000352,0.00,-0.28,9.92
2147753811,0.010755,0.013393,-0.000713,0.04,-0.28,9.97
2147754806,-0.007355,0.011262,-0.001779,0.05,-0.27,9.94
2147755811,0.002232,-0.000456,0.000352,0.06,-0.25,9.93
2147756825,0.018212,0.000610,-0.000713,0.04,-0.27,9.90
2147757834,0.013951,0.011262,-0.001779,0.04,-0.25,9.89
2147758839,-0.004159,0.013393,-0.001779,0.07,-0.24,9.91
2147759849,0.000102,0.002740,-0.000713,0.06,-0.22,9.92
2147760859,0.016081,-0.005782,-0.000713,0.00,-0.19,9.92
2147761869,0.012885,-0.001521,-0.000713,0.04,-0.26,9.88
2147762884,-0.002029,0.002740,0.000352,0.04,-0.26,9.83
2147763904,0.002232,-0.000456,0.001417,0.05,-0.21,9.82
2147764901,0.013951,0.001675,0.001417,0.08,-0.22,9.86
2147765909,-0.009486,0.004871,0.002482,0.08,-0.25,9.87
2147766919,-0.004159,-0.005782,0.004613,0.10,-0.24,9.89
2147767934,0.007559,-0.007913,0.004613,0.11,-0.23,9.87
2147768939,0.004363,-0.002586,0.001417,0.08,-0.22,9.83
2147769949,-0.007355,-0.002586,0.000352,0.08,-0.23,9.87
2147770959,-0.005224,-0.004717,-0.000713,0.10,-0.22,9.88
2147771969,0.003298,-0.001521,-0.001779,0.09,-0.24,9.86
2147772984,-0.003094,0.004871,-0.004975,0.09,-0.27,9.84
2147774007,-0.012681,0.001675,-0.003909,0.09,-0.23,9.87
2147775001,-0.002029,-0.005782,0.000352,0.09,-0.24,9.93
2147776027,0.005428,-0.001521,0.001417,0.08,-0.22,9.91
2147777019,-0.000963,0.005936,-0.001779,0.08,-0.20,9.88
2147778032,-0.009486,-0.000456,-0.004975,0.14,-0.23,9.86
2147779038,0.001167,-0.010043,-0.004975,0.16,-0.22,9.91
2147780048,0.011820,-0.004717,-0.001779,0.11,-0.23,9.88
2147781058,0.004363,0.009132,-0.001779,0.08,-0.24,9.84
2147782068,-0.006290,0.009132,-0.000713,0.06,-0.23,9.85
2147783104,0.000102,0.001675,0.001417,0.08,-0.24,9.89
2147784089,0.010755,0.000610,0.000352,0.08,-0.22,9.93
2147785099,0.009689,0.008067,-0.001779,0.08,-0.23,9.93
2147786125,-0.000963,0.009132,-0.001779,0.11,-0.26,9.92
2147787119,0.003298,-0.000456,0.000352,0.10,-0.24,9.89
2147788132,0.017146,-0.004717,0.002482,0.11,-0.24,9.85
2147789138,0.015016,0.001675,0.002482,0.12,-0.24,9.89
2147790148,0.000102,0.004871,-0.000713,0.07,-0.21,9.98
2147791158,-0.004159,-0.000456,0.000352,0.04,-0.20,9.97
2147792168,0.008624,-0.002586,0.003548,0.06,-0.19,9.93
2147793205,0.010755,0.001675,0.003548,0.08,-0.20,9.89
2147794189,-0.003094,0.004871,0.002482,0.03,-0.21,9.90
2147795199,-0.012681,0.002740,0.001417,0.00,-0.24,9.95
2147796225,-0.003094,-0.001521,0.002482,0.03,-0.23,9.92
2147797219,0.003298,-0.004717,0.001417,0.04,-0.22,9.90
2147798232,-0.005224,-0.001521,0.001417,0.02,-0.24,9.93
2147799238,-0.016943,0.001675,0.002482,-0.02,-0.19,9.95
2147800248,-0.007355,0.001675,0.002482,-0.02,-0.21,9.93
2147801258,0.000102,-0.001521,0.001417,0.04,-0.26,9.92
2147802268,-0.007355,-0.005782,-0.000713,0.05,-0.21,9.89
2147803354,-0.018008,-0.005782,-0.000713,0.00,-0.18,9.88
2147804290,-0.013747,-0.005782,-0.001779,0.00,-0.22,9.89
2147805300,0.000102,-0.011109,-0.002844,0.01,-0.23,9.87
2147806325,0.004363,-0.011109,-0.001779,0.02,-0.21,9.81
2147807319,-0.002029,0.001675,-0.001779,0.02,-0.22,9.80
2147808332,-0.007355,0.009132,-0.001779,-0.02,-0.22,9.82
2147809338,0.003298,0.000610,-0.001779,-0.02,-0.22,9.82
2147810348,0.012885,-0.005782,-0.000713,0.03,-0.26,9.79
2147811358,0.001167,0.002740,-0.001779,0.03,-0.25,9.76
2147812368,-0.012681,0.005936,-0.003909,0.00,-0.21,9.80
2147813405,-0.008420,-0.002586,-0.003909,0.00,-0.25,9.81
2147814389,0.007559,-0.005782,-0.001779,0.00,-0.24,9.81
2147815399,0.008624,0.002740,-0.000713,-0.01,-0.26,9.78
2147816425,-0.003094,0.013393,-0.000713,-0.02,-0.28,9.77
2147817419,-0.011616,0.009132,-0.001779,-0.05,-0.28,9.71
2147818432,0.002232,-0.000456,-0.002844,-0.04,-0.28,9.68
2147819438,0.016081,0.001675,-0.003909,-0.03,-0.23,9.77
2147820448,0.011820,0.013393,-0.000713,-0.08,-0.23,9.77
2147821458,-0.002029,0.015523,0.000352,-0.08,-0.27,9.70
2147822468,-0.008420,0.002740,0.001417,-0.03,-0.29,9.68
2147823504,0.004363,-0.005782,0.002482,-0.05,-0.30,9.68
2147824489,0.017146,-0.000456,0.002482,-0.09,-0.27,9.69
2147825499,0.010755,0.010197,0.002482,-0.13,-0.25,9.64
2147826525,-0.005224,0.008067,0.000352,-0.09,-0.25,9.60
2147827519,-0.006290,-0.006847,0.001417,-0.06,-0.27,9.61
2147828532,0.015016,-0.014304,0.003548,-0.10,-0.28,9.62
2147829538,0.020342,-0.005782,0.004613,-0.08,-0.26,9.63
2147830548,0.003298,0.007001,0.001417,-0.05,-0.26,9.64
2147831558,-0.014812,0.007001,0.000352,-0.07,-0.24,9.68
2147832572,-0.015877,-0.004717,0.001417,-0.05,-0.25,9.60
2147833611,0.002232,-0.013239,0.004613,-0.05,-0.27,9.62
2147834593,0.010755,-0.006847,0.005678,-0.08,-0.26,9.68
2147835606,0.003298,0.005936,0.001417,-0.06,-0.27,9.65
2147836631,-0.007355,0.010197,-0.002844,-0.04,-0.24,9.68
2147837626,-0.015877,0.003805,-0.003909,-0.04,-0.23,9.70
2147838641,-0.007355,-0.007913,-0.001779,-0.06,-0.25,9.65
2147839654,0.006494,-0.006847,-0.000713,-0.07,-0.23,9.64
2147840657,0.000102,0.005936,-0.002844,-0.07,-0.21,9.72
2147841676,-0.015877,0.012328,-0.004975,-0.11,-0.25,9.72
2147842679,-0.030791,0.002740,-0.004975,-0.09,-0.28,9.71
2147843723,-0.024400,-0.012174,-0.002844,-0.07,-0.24,9.77
2147844700,0.007559,-0.014304,-0.002844,-0.08,-0.22,9.73
2147845706,0.029930,-0.002586,-0.003909,-0.06,-0.23,9.72
2147846735,0.020342,0.011262,-0.004975,-0.07,-0.21,9.74
2147847761,0.002232,0.015523,-0.002844,-0.10,-0.22,9.73
2147848746,-0.009486,0.007001,0.000352,-0.09,-0.20,9.69
2147849746,-0.003094,-0.003652,0.001417,-0.09,-0.24,9.67
2147850753,0.015016,-0.002586,0.001417,-0.09,-0.26,9.69
2147851762,0.011820,0.010197,-0.001779,-0.08,-0.24,9.72
2147852768,-0.009486,0.014458,-0.003909,-0.05,-0.27,9.71
2147853809,-0.010551,0.005936,-0.000713,-0.08,-0.27,9.70
2147854796,0.010755,-0.003652,0.002482,-0.11,-0.27,9.76
2147855803,0.018212,-0.001521,0.001417,-0.07,-0.22,9.78
2147856828,0.006494,0.008067,0.000352,-0.06,-0.23,9.81
2147857823,0.000102,0.004871,0.002482,-0.09,-0.25,9.83
2147858832,0.011820,-0.001521,0.002482,-0.09,-0.23,9.81
2147859838,0.005428,0.004871,0.000352,-0.08,-0.23,9.86
2147860848,-0.009486,0.008067,-0.000713,-0.07,-0.27,9.86
2147861858,0.005428,-0.001521,0.003548,-0.07,-0.27,9.84
2147862868,0.015016,-0.002586,0.003548,-0.05,-0.26,9.86
2147863904,-0.006290,0.003805,0.001417,-0.05,-0.27,9.85
2147864889,-0.012681,0.000610,0.002482,-0.05,-0.26,9.90
2147865899,0.002232,-0.005782,0.001417,-0.03,-0.27,9.87
2147866925,-0.004159,-0.002586,-0.001779,-0.02,-0.27,9.80
2147867919,0.001167,-0.008978,0.002482,0.00,-0.26,9.90
2147868932,0.003298,-0.005782,0.000352,0.00,-0.27,9.97
2147869938,-0.012681,-0.004717,-0.001779,0.00,-0.27,9.93
2147870948,-0.003094,-0.014304,-0.002844,0.03,-0.26,9.91
2147871958,0.008624,-0.013239,-0.001779,0.00,-0.22,9.92
2147872968,-0.006290,-0.002586,0.000352,0.00,-0.23,9.95
2147874005,-0.012681,-0.002586,0.002482,0.05,-0.23,9.94
2147874989,0.008624,-0.005782,0.000352,0.01,-0.20,9.85
2147876015,0.010755,0.000610,-0.004975,-0.02,-0.25,9.89
2147877009,-0.011616,0.004871,-0.004975,0.03,-0.27,9.94
2147878018,-0.012681,-0.000456,-0.000713,0.05,-0.28,9.92
2147879032,0.013951,0.000610,0.002482,0.03,-0.25,9.91
2147880038,0.020342,0.009132,0.001417,0.03,-0.22,9.90
2147881048,0.001167,0.011262,-0.002844,0.02,-0.25,9.86
2147882058,-0.015877,-0.001521,-0.002844,0.02,-0.24,9.87
2147883089,-0.003094,-0.012174,-0.001779,0.06,-0.23,9.87
2147884084,0.026734,-0.005782,0.000352,0.06,-0.24,9.89
2147885089,0.038452,0.007001,0.002482,0.02,-0.24,9.85
2147886115,0.019277,0.013393,0.001417,0.03,-0.27,9.88
2147887109,-0.008420,0.008067,0.000352,0.03,-0.26,9.93
2147888118,-0.021204,-0.003652,-0.000713,0.04,-0.25,9.87
2147889132,-0.009486,-0.007913,0.001417,0.07,-0.24,9.87
2147890138,0.017146,-0.003652,0.003548,0.04,-0.22,9.88
2147891148,0.035256,0.002740,0.005678,0.06,-0.26,9.89
2147892158,0.029930,0.005936,0.003548,0.06,-0.23,9.85
2147893190,0.007559,0.008067,0.000352,-0.01,-0.20,9.84
2147894184,-0.013747,0.008067,-0.003909,-0.01,-0.19,9.88
2147895189,-0.021204,0.004871,-0.003909,0.03,-0.22,9.88
2147896215,-0.018008,0.005936,0.000352,0.03,-0.28,9.81
2147897209,-0.011616,0.009132,0.004613,0.06,-0.26,9.83
2147898218,0.001167,0.002740,0.003548,0.10,-0.24,9.86
2147899232,0.004363,-0.004717,0.001417,0.09,-0.20,9.83
2147900238,-0.007355,-0.003652,-0.000713,0.05,-0.22,9.86
2147901248,-0.019073,-0.000456,-0.001779,0.02,-0.26,9.89
2147902258,-0.011616,-0.005782,0.000352,0.06,-0.26,9.88
2147903289,0.003298,-0.010043,0.002482,0.10,-0.27,9.87
2147904284,-0.000963,0.000610,0.001417,0.11,-0.26,9.91
2147905289,-0.005224,0.004871,0.002482,0.11,-0.23,9.88
2147906315,0.003298,-0.002586,0.003548,0.10,-0.20,9.90
2147907309,0.000102,-0.001521,0.001417,0.15,-0.23,9.92
2147908318,-0.004159,0.000610,0.001417,0.17,-0.25,9.85
2147909332,-0.000963,-0.002586,0.001417,0.17,-0.22,9.88
2147910338,-0.005224,0.002740,0.002482,0.15,-0.18,9.94
2147911348,0.001167,0.003805,0.003548,0.18,-0.23,9.92
2147912358,0.006494,0.007001,0.002482,0.22,-0.23,9.98
2147913390,0.005428,0.004871,0.000352,0.19,-0.21,10.02
2147914384,0.004363,0.007001,-0.000713,0.18,-0.22,9.96
2147915389,-0.007355,0.005936,-0.002844,0.18,-0.21,10.02
2147916415,-0.006290,0.000610,-0.002844,0.14,-0.23,10.08
2147917409,-0.008420,0.003805,-0.002844,0.11,-0.20,10.03
2147918418,0.001167,-0.000456,-0.001779,0.12,-0.21,10.03
2147919432,-0.000963,0.001675,-0.000713,0.07,-0.21,10.00
2147920438,0.004363,-0.000456,0.000352,0.04,-0.22,10.02
