time_us,gyro_x_rad_s,gyro_y_rad_s,gyro_z_rad_s,acc_x_m_s2,acc_y_m_s2,acc_z_m_s2
2124645325,-0.002178,-0.000552,0.004449,0.02,-0.23,9.91
2124646037,-0.002178,0.000514,0.001253,-0.01,-0.22,9.88
2124647035,-0.001113,0.001579,-0.000878,-0.01,-0.26,9.79
2124648044,-0.002178,0.001579,-0.000878,0.02,-0.24,9.78
2124649093,-0.003243,0.001579,-0.001943,-0.01,-0.23,9.83
2124650089,-0.002178,0.001579,-0.003008,-0.02,-0.27,9.82
2124651077,-0.001113,0.001579,-0.000878,0.03,-0.26,9.83
2124652084,-0.001113,0.000514,0.000188,0.03,-0.24,9.86
2124653106,-0.001113,-0.001617,-0.001943,0.00,-0.23,9.85
2124654113,-0.001113,-0.001617,-0.004073,0.00,-0.22,9.83
2124655115,-0.000048,0.000514,-0.003008,-0.01,-0.23,9.81
2124656124,-0.000048,0.002644,0.000188,0.02,-0.24,9.80
2124657135,-0.001113,0.002644,0.000188,0.05,-0.25,9.79
2124658144,-0.002178,0.001579,-0.000878,0.03,-0.27,9.81
2124659162,-0.001113,0.000514,0.000188,-0.02,-0.27,9.83
2124660164,-0.002178,-0.001617,0.000188,-0.03,-0.26,9.82
2124661175,-0.003243,-0.000552,0.000188,-0.02,-0.22,9.81
2124662184,-0.002178,0.000514,0.000188,-0.03,-0.23,9.82
2124663206,-0.000048,0.001579,0.001253,0.02,-0.25,9.84
2124664206,0.002083,0.001579,0.001253,0.01,-0.23,9.85
2124665207,0.001018,0.001579,-0.000878,-0.02,-0.22,9.81
2124666216,-0.001113,0.000514,-0.000878,-0.01,-0.21,9.79
2124667227,0.001018,-0.000552,0.000188,-0.02,-0.22,9.81
2124668236,0.001018,-0.000552,0.000188,-0.01,-0.23,9.85
2124669253,-0.000048,0.000514,0.000188,0.00,-0.21,9.85
2124670256,-0.000048,0.001579,0.002318,0.00,-0.20,9.83
2124671267,-0.000048,0.001579,0.003384,-0.01,-0.24,9.90
2124672276,-0.000048,-0.000552,0.001253,-0.03,-0.28,9.92
2124673299,-0.002178,-0.001617,-0.000878,-0.03,-0.28,9.83
2124674305,-0.003243,-0.001617,-0.001943,-0.01,-0.24,9.80
2124675307,-0.002178,-0.000552,-0.000878,-0.01,-0.23,9.83
2124676316,-0.001113,0.000514,0.001253,0.02,-0.23,9.86
2124677327,-0.000048,0.001579,0.000188,0.02,-0.23,9.85
2124678336,-0.001113,-0.001617,-0.000878,0.01,-0.23,9.84
2124679354,-0.000048,-0.002682,0.000188,-0.02,-0.22,9.80
2124680356,-0.000048,-0.000552,-0.000878,-0.03,-0.21,9.80
2124681367,-0.000048,0.001579,-0.001943,0.01,-0.23,9.81
2124682376,-0.000048,0.000514,-0.001943,0.03,-0.23,9.83
2124683399,-0.002178,-0.000552,-0.001943,0.01,-0.23,9.82
2124684406,-0.004309,-0.001617,-0.000878,-0.02,-0.26,9.78
2124685407,-0.003243,-0.002682,-0.001943,-0.01,-0.24,9.80
2124686416,-0.001113,-0.004813,-0.001943,0.00,-0.20,9.84
2124687427,-0.001113,-0.004813,-0.001943,-0.02,-0.20,9.81
2124688436,-0.003243,-0.001617,-0.000878,-0.01,-0.20,9.80
2124689453,-0.002178,0.000514,0.000188,0.02,-0.21,9.84
2124690456,-0.001113,0.000514,-0.000878,0.02,-0.23,9.85
2124691467,-0.001113,0.000514,-0.001943,0.02,-0.28,9.78
2124692476,-0.002178,-0.000552,-0.000878,0.00,-0.29,9.71
2124693499,-0.002178,0.000514,0.001253,-0.02,-0.26,9.71
2124694505,-0.002178,0.000514,0.002318,0.00,-0.23,9.76
2124695507,-0.000048,0.000514,0.001253,0.04,-0.23,9.82
2124696516,0.002083,-0.000552,-0.001943,0.06,-0.24,9.82
2124697527,0.003148,-0.000552,-0.001943,0.03,-0.23,9.83
2124698547,0.003148,-0.001617,-0.001943,-0.01,-0.25,9.82
2124699554,0.002083,-0.001617,-0.000878,-0.04,-0.27,9.79
2124700556,0.002083,-0.000552,0.000188,-0.04,-0.28,9.84
2124701568,0.001018,0.002644,0.001253,0.03,-0.26,9.90
2124702585,0.002083,0.002644,0.000188,0.00,-0.24,9.84
2124703602,0.001018,0.002644,-0.000878,0.01,-0.25,9.80
2124704614,0.001018,0.000514,-0.001943,0.05,-0.26,9.84
2124705645,0.001018,-0.001617,-0.000878,0.01,-0.27,9.80
2124706625,-0.000048,-0.002682,0.001253,-0.02,-0.25,9.81
2124707633,-0.000048,-0.002682,0.002318,-0.03,-0.24,9.83
2124708646,-0.001113,-0.001617,0.001253,-0.01,-0.25,9.84
2124709665,-0.001113,0.000514,-0.000878,0.02,-0.22,9.88
2124710664,-0.001113,0.000514,0.000188,0.03,-0.21,9.82
2124711675,-0.001113,-0.000552,0.000188,0.03,-0.23,9.77
2124712685,-0.002178,-0.002682,0.001253,0.01,-0.21,9.78
2124713713,-0.000048,-0.002682,0.000188,0.01,-0.22,9.78
2124714719,0.002083,-0.001617,-0.001943,0.02,-0.22,9.79
2124715718,0.001018,0.000514,-0.001943,0.03,-0.23,9.84
2124716728,-0.000048,0.000514,-0.001943,0.02,-0.25,9.81
2124717735,-0.001113,-0.002682,-0.001943,-0.02,-0.25,9.85
2124718745,-0.001113,-0.003747,-0.003008,-0.01,-0.24,9.92
2124719762,-0.000048,-0.003747,-0.003008,0.00,-0.24,9.91
2124720763,-0.000048,-0.002682,-0.000878,-0.01,-0.26,9.87
2124721773,-0.001113,0.000514,0.000188,-0.01,-0.27,9.83
2124722783,-0.001113,0.001579,0.000188,0.04,-0.26,9.82
2124723799,0.002083,0.000514,0.000188,0.06,-0.25,9.85
2124724810,-0.003243,0.001579,-0.000878,0.00,-0.23,9.81
2124725811,-0.003243,0.001579,0.000188,-0.03,-0.22,9.89
2124726820,-0.001113,0.000514,0.000188,-0.01,-0.23,9.88
2124727829,-0.000048,0.000514,-0.001943,0.00,-0.23,9.81
2124728868,-0.000024,0.001604,-0.001923,-0.02,-0.24,9.81
2124729853,-0.000024,0.001604,0.000207,0.00,-0.26,9.81
2124730856,0.002107,0.000539,-0.000858,0.00,-0.23,9.81
2124731867,0.003172,-0.001592,-0.002989,0.01,-0.23,9.84
2124732890,0.002107,-0.001592,-0.005119,0.01,-0.21,9.82
2124733889,0.002107,-0.000526,-0.002989,-0.02,-0.23,9.84
2124734903,0.001041,0.000539,-0.000858,-0.03,-0.25,9.84
2124735906,-0.000024,0.001604,-0.001923,0.01,-0.21,9.79
2124736917,0.002107,0.001604,-0.001923,0.02,-0.21,9.82
2124737926,0.001041,0.000539,-0.001923,-0.01,-0.25,9.82
2124738937,-0.000024,0.000539,-0.000858,-0.01,-0.28,9.84
2124739953,-0.000024,0.001604,0.001272,0.00,-0.27,9.81
2124740957,-0.000024,0.002670,0.002338,-0.02,-0.22,9.78
2124741966,0.001041,0.002670,0.002338,-0.04,-0.22,9.82
2124742990,0.003172,0.000539,0.002338,-0.01,-0.25,9.86
2124743989,0.005303,-0.001592,0.000207,0.01,-0.24,9.87
2124745004,0.004237,-0.001592,-0.000858,-0.02,-0.23,9.82
2124746006,0.002107,-0.000526,-0.001923,0.00,-0.24,9.80
2124747017,-0.000024,0.000539,-0.001923,0.04,-0.26,9.82
2124748026,-0.001089,-0.000526,-0.001923,0.01,-0.26,9.80
2124749037,-0.002154,-0.002657,-0.002989,-0.02,-0.26,9.78
2124750052,-0.002154,-0.002657,-0.001923,-0.01,-0.26,9.78
2124751057,-0.001089,-0.001592,-0.000858,0.02,-0.25,9.85
2124752066,-0.000024,-0.000526,0.000207,0.00,-0.19,9.89
2124753090,-0.000024,0.001604,-0.000858,-0.02,-0.22,9.88
2124754089,0.001041,0.002670,-0.002989,-0.03,-0.26,9.86
2124755103,0.001041,0.002670,-0.004054,0.01,-0.24,9.85
2124756106,0.001041,0.001604,-0.002989,0.03,-0.26,9.83
2124757117,-0.001089,-0.000526,-0.001923,0.01,-0.26,9.85
2124758126,-0.001089,-0.001592,0.001272,0.00,-0.24,9.86
2124759137,-0.001089,-0.000526,0.002338,-0.03,-0.26,9.84
2124760153,-0.001089,0.001604,0.002338,-0.03,-0.30,9.82
2124761157,-0.002154,0.000539,-0.001923,0.00,-0.28,9.77
2124762166,-0.001089,-0.001592,-0.002989,-0.02,-0.26,9.75
2124763190,-0.001089,-0.000526,-0.001923,-0.03,-0.25,9.81
2124764189,-0.000024,-0.001592,-0.000858,-0.01,-0.24,9.86
2124765204,-0.000024,-0.000526,-0.000858,0.00,-0.26,9.88
2124766206,0.001041,0.001604,0.002338,0.00,-0.25,9.82
2124767217,0.001041,0.001604,0.002338,0.01,-0.26,9.77
2124768226,-0.000024,0.000539,0.000207,0.03,-0.25,9.86
2124769237,0.002107,0.001604,-0.001923,0.02,-0.23,9.86
2124770252,0.004237,0.001604,-0.001923,-0.02,-0.24,9.81
2124771257,0.002107,0.000539,-0.000858,0.03,-0.24,9.81
2124772266,-0.001089,-0.002657,-0.000858,0.05,-0.23,9.81
2124773290,-0.002154,-0.001592,-0.000858,0.02,-0.25,9.82
2124774289,-0.001089,-0.000526,-0.000858,0.02,-0.26,9.84
2124775303,-0.000024,-0.000526,-0.002989,0.01,-0.24,9.84
2124776306,-0.001089,-0.002657,-0.002989,-0.02,-0.26,9.80
2124777317,-0.002154,-0.002657,-0.004054,-0.03,-0.25,9.83
2124778326,-0.004285,-0.001592,-0.002989,-0.01,-0.24,9.87
2124779337,-0.003220,0.000539,-0.001923,0.00,-0.27,9.85
2124780353,-0.003220,0.000539,-0.000858,0.00,-0.26,9.81
2124781357,-0.003220,-0.003722,-0.001923,-0.01,-0.28,9.82
2124782366,-0.002154,-0.004787,-0.004054,-0.02,-0.28,9.81
2124783390,-0.002154,-0.001592,-0.004054,0.00,-0.24,9.79
2124784389,-0.005350,-0.000526,-0.002989,0.02,-0.25,9.82
2124785404,-0.005350,-0.000526,-0.000858,-0.03,-0.27,9.85
2124786406,-0.003220,0.000539,-0.000858,-0.03,-0.23,9.85
2124787417,-0.001089,0.001604,-0.001923,0.01,-0.22,9.78
2124788426,-0.002154,-0.000526,-0.000858,-0.01,-0.25,9.79
2124789437,-0.002154,-0.001592,0.000207,0.00,-0.25,9.82
2124790452,-0.001089,0.000539,0.001272,0.01,-0.22,9.80
2124791457,0.001041,0.000539,0.001272,-0.01,-0.21,9.82
2124792466,-0.000024,-0.000526,0.000207,-0.02,-0.23,9.82
2124793490,-0.003220,-0.001592,0.002338,-0.02,-0.24,9.79
2124794489,-0.001089,-0.003722,0.003403,-0.01,-0.23,9.84
2124795503,0.003172,-0.004787,0.003403,-0.01,-0.23,9.86
2124796506,0.003172,-0.004787,0.001272,0.02,-0.25,9.78
2124797517,0.002107,-0.001592,-0.000858,0.03,-0.27,9.78
2124798526,-0.001089,-0.001592,-0.001923,0.02,-0.27,9.78
2124799537,-0.002154,-0.002657,-0.001923,0.01,-0.28,9.78
2124800553,-0.001089,-0.003722,-0.004054,0.02,-0.29,9.84
2124801557,-0.001089,-0.002657,-0.002989,-0.01,-0.23,9.82
2124802566,-0.001089,0.001604,-0.000858,-0.02,-0.20,9.76
2124803598,-0.002154,0.001604,-0.000858,0.01,-0.20,9.81
2124804596,-0.002154,-0.000526,-0.001923,0.02,-0.23,9.84
2124805608,-0.000024,-0.002657,-0.001923,0.03,-0.23,9.81
2124806613,0.001041,-0.002657,0.000207,0.04,-0.24,9.76
2124807656,0.001041,-0.001592,0.002338,0.02,-0.27,9.75
2124808632,0.002107,-0.001592,0.003403,0.01,-0.26,9.82
2124809646,0.002107,-0.000526,0.000207,0.02,-0.27,9.86
2124810664,0.002107,-0.001592,-0.002989,0.03,-0.24,9.80
2124811667,0.003172,-0.002657,-0.000858,0.01,-0.24,9.79
2124812670,0.002107,-0.002657,0.001272,-0.04,-0.27,9.85
2124813701,-0.000024,-0.001592,0.000207,-0.05,-0.24,9.87
2124814700,-0.001089,-0.001592,-0.001923,-0.04,-0.23,9.84
2124815717,-0.001089,-0.001592,-0.000858,-0.04,-0.26,9.81
2124816715,-0.001089,-0.000526,0.001272,0.01,-0.25,9.79
2124817727,-0.000024,-0.000526,0.002338,0.03,-0.25,9.80
2124818737,-0.000024,0.000539,0.001272,0.01,-0.24,9.83
2124819749,-0.001089,-0.000526,-0.000858,0.00,-0.21,9.83
2124820760,0.001041,-0.002657,-0.002989,0.02,-0.21,9.82
2124821764,-0.000024,-0.001592,-0.004054,0.01,-0.23,9.84
2124822777,-0.003220,-0.000526,-0.001923,-0.01,-0.22,9.86
2124823792,-0.003220,0.000539,0.000207,0.00,-0.24,9.82
2124824789,-0.002154,0.003735,0.001272,0.00,-0.28,9.79
2124825807,-0.001089,0.001604,0.002338,0.03,-0.22,9.83
2124826810,-0.000024,-0.002657,-0.000858,-0.02,-0.24,9.85
2124827821,0.001041,-0.002657,-0.000858,-0.01,-0.23,9.85
2124828828,0.002107,-0.000526,0.000207,-0.02,-0.22,9.84
2124829841,0.001041,-0.000526,0.000207,-0.01,-0.23,9.82
2124830852,-0.001089,-0.000526,0.001272,0.00,-0.24,9.83
2124831857,-0.000024,-0.000526,0.000207,0.00,-0.23,9.76
2124832879,-0.000024,0.001604,-0.000858,-0.01,-0.22,9.70
2124833879,0.001041,0.004800,0.001272,-0.02,-0.22,9.79
2124834887,0.003172,0.002670,0.002338,0.00,-0.25,9.82
2124835902,0.002107,-0.000526,0.003403,0.04,-0.27,9.78
2124836907,-0.000024,-0.003722,0.003403,0.02,-0.25,9.84
2124837916,-0.002154,-0.003722,0.002338,0.01,-0.24,9.85
2124838927,-0.001089,-0.001592,-0.001923,0.00,-0.27,9.80
2124839936,0.001041,0.000539,-0.002989,-0.01,-0.26,9.78
2124840954,0.001041,0.000539,-0.001923,0.01,-0.28,9.76
2124841956,-0.001089,-0.001592,0.000207,0.01,-0.28,9.75
2124842979,-0.003220,-0.002657,-0.000858,0.01,-0.24,9.80
2124843979,-0.003220,-0.000526,-0.001923,0.02,-0.23,9.86
2124844987,-0.002154,0.002670,-0.000858,0.01,-0.23,9.84
2124846003,-0.000024,0.001604,-0.000858,0.01,-0.23,9.81
2124847007,-0.000024,-0.000526,-0.000858,0.01,-0.23,9.80
2124848016,-0.002154,-0.002657,0.000207,-0.01,-0.23,9.80
2124849027,-0.003220,-0.002657,0.002338,-0.02,-0.25,9.80
2124850036,-0.001089,0.000539,0.001272,-0.03,-0.26,9.79
2124851053,0.001041,0.000539,-0.000858,0.00,-0.26,9.87
2124852056,0.002107,0.000539,0.000207,0.02,-0.25,9.91
2124853079,0.004237,-0.000526,0.000207,0.00,-0.26,9.86
2124854079,0.004237,0.000539,-0.000858,-0.02,-0.27,9.82
2124855087,0.002107,-0.001592,-0.001923,-0.01,-0.23,9.79
2124856102,-0.002154,-0.002657,-0.000858,0.03,-0.22,9.76
2124857107,-0.002154,-0.001592,0.001272,0.04,-0.24,9.74
2124858142,-0.002132,0.001672,0.001344,0.03,-0.25,9.81
2124859127,-0.001066,0.001672,-0.000787,0.04,-0.24,9.88
2124860136,0.001064,0.000606,-0.002917,0.04,-0.27,9.81
2124861154,0.001064,-0.000459,-0.003983,0.01,-0.26,9.78
2124862156,0.002130,-0.002590,-0.001852,0.01,-0.21,9.83
2124863179,0.001064,-0.002590,0.000278,0.03,-0.23,9.86
2124864179,0.001064,-0.001524,0.001344,0.01,-0.27,9.86
2124865187,0.003195,-0.001524,0.000278,-0.01,-0.25,9.86
2124866203,0.004260,-0.000459,0.000278,0.00,-0.25,9.80
2124867207,0.004260,-0.000459,0.001344,0.00,-0.25,9.82
2124868216,0.003195,-0.001524,0.000278,0.00,-0.24,9.85
2124869227,0.002130,-0.003655,0.000278,-0.01,-0.25,9.81
2124870236,-0.000001,-0.001524,-0.000787,-0.03,-0.23,9.83
2124871253,-0.001066,-0.000459,-0.001852,-0.02,-0.22,9.83
2124872256,-0.002132,-0.000459,0.000278,0.00,-0.24,9.82
2124873279,0.001064,-0.001524,0.001344,0.00,-0.23,9.82
2124874279,0.003195,-0.000459,0.001344,-0.01,-0.22,9.82
2124875287,0.002130,-0.000459,0.000278,0.01,-0.25,9.86
2124876302,0.001064,-0.000459,-0.000787,0.02,-0.28,9.87
2124877307,0.001064,0.000606,-0.001852,-0.01,-0.25,9.85
2124878316,0.003195,-0.000459,-0.001852,-0.01,-0.22,9.80
2124879327,0.003195,-0.001524,-0.002917,-0.02,-0.23,9.81
2124880336,-0.000001,-0.000459,-0.002917,-0.01,-0.25,9.84
2124881354,-0.002132,-0.000459,-0.001852,0.03,-0.26,9.83
2124882356,-0.002132,-0.000459,-0.000787,0.02,-0.24,9.81
2124883379,-0.002132,0.000606,0.000278,0.00,-0.27,9.80
2124884379,-0.001066,0.002737,0.001344,0.00,-0.29,9.85
2124885387,-0.001066,0.001672,0.001344,0.00,-0.26,9.84
2124886403,-0.001066,-0.001524,0.001344,0.01,-0.24,9.77
2124887407,-0.000001,-0.002590,0.001344,0.01,-0.23,9.78
2124888416,-0.000001,-0.002590,-0.001852,0.03,-0.24,9.82
2124889427,-0.002132,-0.002590,-0.002917,0.03,-0.25,9.82
2124890436,-0.002132,-0.003655,-0.001852,0.01,-0.27,9.84
2124891453,-0.000001,-0.002590,0.000278,0.02,-0.26,9.86
2124892456,0.002130,-0.002590,0.002409,0.03,-0.22,9.86
2124893479,-0.000001,-0.001524,0.002409,0.03,-0.23,9.85
2124894479,-0.001066,-0.000459,0.001344,0.02,-0.24,9.82
2124895487,-0.000001,-0.000459,-0.000787,0.00,-0.26,9.78
2124896502,0.001064,-0.000459,0.000278,-0.01,-0.27,9.81
2124897507,0.001064,0.000606,-0.000787,0.01,-0.25,9.82
2124898516,-0.001066,0.001672,-0.002917,0.03,-0.25,9.82
2124899527,-0.003197,0.001672,-0.002917,0.04,-0.23,9.86
2124900536,-0.001066,-0.000459,0.000278,0.01,-0.23,9.81
2124901554,-0.001066,-0.003655,0.002409,-0.01,-0.25,9.78
2124902556,-0.001066,-0.002590,0.000278,0.00,-0.26,9.78
2124903608,-0.000001,-0.001524,-0.000787,0.00,-0.26,9.81
2124904580,0.002130,-0.001524,0.001344,0.01,-0.26,9.84
2124905597,0.002130,-0.001524,0.001344,0.00,-0.28,9.83
2124906608,0.002130,-0.000459,-0.000787,-0.02,-0.26,9.82
2124907613,0.002130,0.001672,-0.002917,0.01,-0.23,9.84
2124908623,0.002130,0.002737,-0.001852,0.02,-0.22,9.88
2124909634,0.001064,0.001672,0.001344,0.03,-0.21,9.83
2124910649,-0.001066,0.000606,0.002409,0.02,-0.21,9.82
2124911663,-0.001066,0.001672,0.003474,-0.03,-0.25,9.86
2124912666,-0.000001,0.001672,0.002409,-0.01,-0.25,9.82
2124913683,-0.001066,0.001672,-0.000787,0.01,-0.23,9.85
2124914688,-0.001066,-0.000459,-0.002917,-0.03,-0.23,9.86
2124915697,0.002130,-0.001524,-0.001852,-0.01,-0.21,9.79
2124916717,0.004260,-0.000459,0.001344,0.02,-0.24,9.81
2124917717,0.003195,0.001672,0.001344,-0.02,-0.26,9.80
2124918728,0.002130,0.003802,-0.000787,-0.02,-0.26,9.79
2124919735,0.001064,0.001672,-0.001852,0.01,-0.25,9.82
2124920748,0.001064,-0.001524,-0.001852,-0.01,-0.27,9.81
2124921761,-0.000001,-0.001524,-0.000787,-0.02,-0.28,9.80
2124922765,-0.001066,-0.002590,-0.001852,-0.01,-0.26,9.86
2124923784,-0.000001,-0.003655,-0.002917,0.02,-0.24,9.90
2124924781,0.002130,-0.004720,-0.000787,0.02,-0.27,9.87
2124925787,0.003195,-0.004720,-0.000787,0.02,-0.30,9.79
2124926806,0.003195,-0.002590,-0.001852,-0.01,-0.28,9.75
2124927811,0.002130,-0.000459,-0.000787,-0.02,-0.26,9.80
2124928821,-0.001066,0.000606,0.000278,0.01,-0.26,9.78
2124929829,-0.002132,0.001672,0.001344,0.03,-0.27,9.76
2124930839,-0.003197,0.001672,0.001344,0.00,-0.27,9.78
2124931853,-0.003197,0.000606,0.001344,0.00,-0.27,9.80
2124932870,0.001064,0.000606,-0.000787,0.03,-0.25,9.85
2124933869,0.004260,0.002737,-0.001852,0.04,-0.22,9.79
2124934877,0.002130,0.003802,-0.000787,0.03,-0.20,9.76
2124935886,-0.000001,0.003802,0.000278,-0.01,-0.21,9.78
2124936903,-0.000001,0.001672,0.000278,-0.02,-0.24,9.81
2124937906,-0.000001,-0.000459,-0.000787,0.03,-0.25,9.82
2124938917,-0.001066,0.000606,-0.000787,0.06,-0.23,9.79
2124939926,0.001064,-0.000459,-0.000787,0.03,-0.23,9.81
2124940937,0.001064,-0.004720,-0.002917,0.00,-0.26,9.81
2124941953,0.001064,-0.004720,-0.003983,-0.02,-0.25,9.77
2124942970,-0.000001,-0.002590,-0.001852,-0.02,-0.25,9.76
2124943969,-0.000001,-0.000459,0.000278,0.00,-0.25,9.82
2124944977,-0.001066,-0.000459,0.000278,0.01,-0.23,9.84
2124945986,0.001064,-0.000459,-0.000787,0.03,-0.24,9.82
2124947004,0.001064,-0.000459,-0.001852,-0.02,-0.23,9.88
2124948006,0.001064,0.001672,-0.001852,-0.04,-0.20,9.87
2124949017,-0.000001,0.001672,-0.000787,0.01,-0.22,9.80
2124950026,-0.001066,-0.000459,-0.000787,0.03,-0.24,9.78
2124951037,-0.001066,-0.001524,0.000278,0.00,-0.23,9.79
2124952052,-0.000001,0.000606,0.002409,0.00,-0.23,9.83
2124953070,-0.001066,0.003802,0.004540,0.00,-0.25,9.85
2124954069,-0.003197,0.003802,0.002409,0.00,-0.23,9.80
2124955077,-0.001066,0.003802,-0.000787,0.02,-0.23,9.79
2124956086,0.001064,0.003802,-0.001852,0.03,-0.25,9.84
2124957103,-0.000001,0.001672,-0.001852,-0.02,-0.24,9.83
2124958106,-0.000001,-0.002590,-0.001852,-0.03,-0.23,9.83
2124959117,-0.001066,-0.002590,-0.002917,0.01,-0.25,9.86
2124960126,-0.002132,0.000606,-0.002917,0.01,-0.26,9.80
2124961137,-0.002132,0.000606,-0.000787,0.01,-0.26,9.78
2124962153,-0.002132,-0.000459,0.001344,0.00,-0.24,9.80
2124963170,-0.001066,0.001672,0.000278,-0.01,-0.22,9.78
2124964169,-0.000001,0.003802,-0.000787,0.02,-0.23,9.76
2124965177,0.001064,0.002737,-0.001852,0.01,-0.23,9.75
2124966186,-0.000001,0.000606,-0.000787,-0.02,-0.24,9.81
2124967204,-0.002132,-0.000459,0.000278,0.01,-0.26,9.84
2124968206,-0.002132,-0.000459,-0.000787,0.06,-0.26,9.79
2124969217,-0.002132,0.000606,0.000278,0.07,-0.27,9.81
2124970226,-0.002132,0.001672,0.002409,0.05,-0.26,9.82
2124971237,-0.003197,0.001672,0.003474,0.03,-0.25,9.83
2124972252,-0.003197,0.002737,0.003474,0.00,-0.23,9.83
2124973270,-0.004262,0.000606,0.001344,0.00,-0.24,9.82
2124974269,-0.004262,-0.001524,-0.000787,-0.01,-0.28,9.83
2124975277,-0.004262,-0.001524,-0.001852,-0.01,-0.26,9.82
2124976286,-0.003197,0.001672,-0.002917,-0.02,-0.23,9.80
2124977303,-0.000001,0.002737,-0.001852,-0.01,-0.21,9.77
2124978306,-0.000001,0.000606,-0.000787,0.02,-0.22,9.78
2124979317,-0.002132,-0.001524,-0.000787,0.00,-0.25,9.82
2124980326,-0.001066,-0.002590,-0.000787,0.00,-0.25,9.80
2124981337,0.001064,-0.001524,-0.000787,0.02,-0.24,9.76
2124982353,0.003195,-0.001524,-0.001852,0.01,-0.24,9.81
2124983370,0.002130,-0.001524,-0.001852,-0.01,-0.24,9.83
2124984369,-0.000001,-0.001524,-0.002917,-0.01,-0.23,9.81
2124985377,-0.002132,-0.002590,-0.002917,-0.02,-0.22,9.84
2124986386,-0.003197,-0.002590,-0.000787,-0.02,-0.23,9.82
2124987430,-0.003196,-0.001494,0.000333,-0.01,-0.22,9.82
2124988406,-0.002130,-0.001494,0.000333,-0.01,-0.22,9.80
2124989417,-0.003196,-0.000429,0.003529,0.00,-0.23,9.78
2124990426,-0.001065,0.000637,0.005659,-0.02,-0.22,9.81
2124991437,0.002131,-0.001494,0.004594,-0.04,-0.22,9.81
2124992452,0.002131,-0.002559,0.000333,0.01,-0.25,9.80
2124993470,0.002131,0.000637,-0.000732,0.04,-0.26,9.77
2124994469,0.002131,0.001702,-0.000732,0.04,-0.24,9.79
2124995477,0.001065,0.001702,0.001398,0.02,-0.24,9.85
2124996486,0.001065,-0.000429,0.002464,0.00,-0.24,9.83
2124997503,0.001065,0.000637,0.001398,0.03,-0.25,9.85
2124998506,0.001065,0.002767,-0.000732,0.04,-0.24,9.86
2124999517,0.002131,0.001702,-0.000732,0.04,-0.22,9.81
2125000526,0.004261,0.000637,0.001398,0.03,-0.22,9.83
2125001545,0.004261,-0.001494,0.002464,0.01,-0.22,9.81
2125002553,0.002131,-0.000429,0.000333,-0.01,-0.23,9.80
2125003574,0.002131,0.003832,0.000333,0.02,-0.23,9.81
2125004575,0.002131,0.003832,-0.000732,0.03,-0.25,9.81
2125005579,0.002131,0.000637,-0.001798,0.00,-0.26,9.80
2125006595,0.001065,-0.002559,-0.001798,0.00,-0.25,9.79
2125007607,0.001065,-0.001494,-0.002863,0.03,-0.24,9.78
2125008613,0.001065,-0.001494,-0.001798,0.05,-0.21,9.77
2125009625,0.000000,-0.000429,-0.001798,0.04,-0.23,9.77
2125010632,-0.001065,-0.000429,-0.000732,0.03,-0.23,9.78
2125011646,-0.002130,-0.000429,0.002464,0.01,-0.21,9.80
2125012684,-0.001065,-0.001494,0.001398,0.02,-0.25,9.80
2125013719,0.000000,-0.001494,0.000333,0.02,-0.25,9.79
2125014698,0.002131,-0.000429,0.000333,0.01,-0.24,9.79
2125015685,0.003196,0.000637,0.000333,-0.01,-0.21,9.78
2125016698,0.003196,0.000637,-0.001798,-0.03,-0.22,9.78
2125017715,0.003196,-0.001494,-0.001798,-0.01,-0.28,9.82
2125018717,0.003196,-0.000429,0.001398,0.02,-0.25,9.83
2125019725,0.002131,-0.000429,0.004594,0.01,-0.23,9.81
2125020739,0.001065,0.001702,0.002464,-0.01,-0.26,9.80
2125021745,-0.001065,0.004898,-0.000732,0.01,-0.25,9.80
2125022764,-0.002130,0.005963,-0.002863,0.00,-0.21,9.80
2125023777,-0.004261,0.003832,-0.001798,-0.02,-0.23,9.76
2125024788,-0.005326,0.002767,-0.000732,0.00,-0.24,9.77
2125025779,-0.005326,0.001702,0.000333,0.01,-0.22,9.83
2125026787,-0.002130,0.002767,0.003529,0.02,-0.24,9.82
2125027805,0.000000,0.001702,0.002464,0.02,-0.28,9.81
2125028816,0.002131,-0.000429,-0.000732,-0.01,-0.28,9.83
2125029820,0.002131,-0.001494,-0.000732,0.00,-0.26,9.84
2125030829,0.001065,0.002767,0.000333,0.01,-0.25,9.82
2125031839,-0.001065,0.002767,-0.000732,-0.02,-0.24,9.84
2125032864,-0.003196,-0.001494,-0.000732,-0.01,-0.22,9.81
2125033873,-0.001065,-0.004690,-0.001798,0.00,-0.23,9.80
2125034867,0.002131,-0.004690,-0.001798,0.01,-0.26,9.84
2125035877,0.003196,-0.002559,0.000333,0.01,-0.24,9.83
2125036886,0.003196,-0.001494,0.000333,-0.01,-0.22,9.82
2125037903,0.002131,0.000637,0.000333,0.01,-0.23,9.81
2125038906,0.001065,0.002767,-0.000732,0.03,-0.24,9.82
2125039917,0.001065,0.002767,-0.000732,0.02,-0.21,9.83
2125040926,0.001065,0.000637,0.000333,-0.02,-0.21,9.82
2125041937,0.002131,0.000637,0.000333,-0.02,-0.25,9.80
2125042966,0.002131,0.000637,-0.000732,0.02,-0.24,9.77
2125043973,0.001065,-0.001494,-0.001798,-0.01,-0.24,9.82
2125044967,0.002131,-0.001494,-0.001798,-0.02,-0.24,9.87
2125045977,0.002131,0.001702,-0.000732,0.01,-0.22,9.87
2125046986,0.001065,0.002767,-0.000732,0.02,-0.21,9.87
2125048003,-0.001065,0.000637,-0.001798,0.00,-0.22,9.89
2125049006,-0.002130,-0.001494,-0.001798,-0.02,-0.23,9.86
2125050017,-0.001065,-0.001494,0.000333,-0.03,-0.26,9.85
2125051026,0.001065,-0.000429,0.000333,-0.02,-0.26,9.84
2125052037,0.001065,-0.000429,-0.000732,-0.01,-0.23,9.83
2125053066,0.000000,0.000637,-0.001798,-0.01,-0.25,9.83
2125054073,-0.001065,0.001702,0.001398,0.01,-0.24,9.79
2125055067,-0.001065,-0.000429,0.002464,0.01,-0.23,9.78
2125056077,0.000000,0.000637,0.002464,0.00,-0.24,9.81
2125057086,-0.001065,0.002767,0.002464,-0.02,-0.27,9.81
2125058103,-0.003196,0.002767,0.002464,-0.03,-0.26,9.82
2125059106,-0.002130,-0.000429,0.001398,-0.02,-0.24,9.82
2125060117,0.001065,-0.001494,0.000333,-0.01,-0.23,9.82
2125061126,0.001065,0.000637,0.000333,0.02,-0.25,9.82
2125062137,0.000000,0.002767,0.000333,0.03,-0.27,9.82
2125063166,-0.002130,0.001702,0.001398,0.04,-0.27,9.82
2125064173,-0.001065,0.000637,0.001398,0.03,-0.25,9.82
2125065167,0.000000,0.000637,0.000333,0.00,-0.24,9.84
2125066177,-0.003196,0.000637,0.001398,0.01,-0.24,9.82
2125067186,-0.005326,0.002767,0.002464,0.02,-0.24,9.78
2125068203,-0.005326,0.003832,0.003529,-0.01,-0.24,9.81
2125069206,-0.001065,0.003832,0.003529,-0.01,-0.23,9.87
2125070217,0.002131,0.001702,0.002464,0.00,-0.22,9.83
2125071226,0.001065,-0.000429,0.000333,0.04,-0.26,9.77
2125072237,0.001065,-0.000429,-0.000732,0.04,-0.28,9.79
2125073266,0.001065,0.000637,-0.001798,0.05,-0.25,9.80
2125074273,0.003196,0.000637,-0.001798,0.03,-0.23,9.81
2125075267,0.002131,0.000637,-0.001798,-0.01,-0.23,9.83
2125076277,-0.001065,0.000637,-0.001798,-0.02,-0.23,9.86
2125077286,-0.003196,0.000637,-0.001798,-0.02,-0.22,9.84
2125078303,-0.004261,0.000637,0.000333,-0.01,-0.23,9.84
2125079306,-0.004261,0.000637,0.001398,-0.01,-0.25,9.88
2125080317,-0.003196,0.001702,0.000333,-0.01,-0.26,9.84
2125081326,-0.003196,0.001702,-0.001798,-0.01,-0.26,9.79
2125082337,-0.002130,-0.000429,0.000333,0.00,-0.25,9.81
2125083660,-0.002130,-0.002559,0.000333,-0.02,-0.23,9.83
2125084367,-0.001065,-0.001494,-0.000732,0.03,-0.13,9.81
2125085349,0.002131,0.014485,0.008855,0.01,-0.29,9.80
2125086358,-0.001065,0.030464,0.012051,-0.12,-0.46,9.77
2125087368,-0.003196,0.020877,-0.000732,-0.02,-0.34,9.75
2125088382,-0.006392,0.011289,-0.014581,0.03,-0.21,9.84
2125089388,-0.008522,0.003832,-0.022038,0.05,-0.31,9.77
2125090398,-0.001065,-0.001494,-0.020973,0.14,0.20,9.86
2125091408,0.002131,-0.001494,-0.013516,-0.07,0.27,9.86
2125092418,0.000000,-0.002559,-0.003928,-0.29,-0.30,9.91
2125093451,0.007457,-0.005755,0.001398,-0.37,-0.34,9.99
2125094457,0.013849,-0.003625,0.002464,-0.14,-0.89,9.77
2125095449,0.005327,0.008093,-0.003928,0.57,-0.62,9.53
2125096458,-0.014914,0.024073,-0.009254,0.67,0.53,9.66
2125097468,-0.026632,0.026203,0.003529,-0.13,0.16,10.27
2125098482,-0.009587,-0.001494,0.015247,-0.81,-1.24,10.28
2125099488,0.021306,-0.033452,0.006725,0.03,-0.87,9.48
2125100498,0.001065,-0.013212,-0.008189,1.06,1.23,9.12
2125101508,-0.045807,0.033660,0.004594,-0.39,-0.12,10.05
2125102518,-0.018110,0.014485,0.022704,-1.14,-2.32,10.25
2125103553,0.053264,-0.045171,0.005659,0.86,2.07,9.58
2125104557,-0.001065,-0.013212,0.001398,0.84,0.75,9.93
2125105549,-0.077765,0.048574,0.019508,-1.42,-4.53,9.66
2125106558,0.030893,-0.004690,-0.000732,-0.06,3.07,9.34
2125107572,0.055395,-0.018539,-0.006059,1.16,1.18,11.13
2125108590,-0.088418,0.025138,0.002464,-1.24,-4.78,9.15
2125109592,0.001065,-0.020669,-0.013516,0.19,3.60,8.09
2125110603,0.074570,-0.018539,-0.000732,1.38,-1.94,12.66
2125111615,-0.033024,0.005963,-0.011385,-0.85,-0.72,8.86
2125112626,0.000000,0.001702,-0.003928,-0.34,1.20,8.92
2125113660,-0.012783,0.004898,0.000333,0.40,-1.68,11.80
2125114699,0.013849,-0.041975,-0.008189,0.55,1.46,7.44
2125115660,0.001065,0.032595,0.008855,-1.13,-1.38,11.53
2125116675,-0.036219,0.011289,-0.007124,0.84,0.06,9.32
2125117679,0.035154,-0.013212,0.004594,-0.64,-0.11,9.70
2125118690,0.007457,-0.023865,-0.014581,0.09,-0.02,10.14
2125119698,-0.007457,-0.025996,-0.006059,0.30,-0.53,8.77
2125120704,-0.010653,0.021942,-0.013516,-0.67,-0.62,11.24
2125121717,0.014914,-0.024930,0.003529,0.44,0.88,8.67
2125122732,0.008522,-0.000429,0.001398,-0.06,-2.08,10.99
2125123759,-0.009587,-0.002559,0.014182,0.10,1.46,8.68
2125124765,-0.008522,0.012355,0.015247,0.20,-1.95,10.43
2125125753,-0.006392,0.008093,0.008855,0.15,0.87,10.14
2125126762,0.002131,-0.002559,0.003529,-0.51,0.61,9.67
2125127768,-0.019175,0.010224,-0.004993,0.82,-3.06,8.51
2125128791,0.004261,-0.004690,0.000333,-1.67,3.52,10.50
2125129792,-0.028762,-0.000429,-0.009254,0.27,-3.50,9.78
2125130802,0.002131,0.007028,-0.013516,0.87,0.94,9.76
2125131810,-0.015979,0.002767,-0.016711,0.08,-0.44,13.73
2125132821,0.006392,-0.016408,-0.036952,-1.81,3.85,10.61
2125133851,0.008522,0.003832,-0.043343,0.17,-2.61,10.86
2125134857,0.006392,0.020877,-0.046539,1.27,-1.47,7.09
2125135849,0.001065,0.013420,-0.043343,-1.11,4.08,11.99
2125136858,-0.013848,0.014485,-0.041213,-0.21,-3.89,9.15
2125137868,-0.018110,0.024073,-0.039082,1.47,-1.28,7.89
2125138882,0.004261,0.013420,-0.032691,-0.54,4.68,13.09
2125139888,0.005327,0.003832,-0.028430,-0.16,-3.51,10.38
2125140898,-0.012783,0.004898,-0.025234,1.47,-2.15,6.83
2125141908,-0.002130,0.005963,-0.022038,-0.51,4.96,11.88
2125142918,-0.001065,0.007028,-0.015646,-0.33,-1.15,11.84
2125143952,-0.013848,-0.005755,-0.014581,1.21,-3.75,6.36
2125144957,0.007457,-0.005755,-0.014581,-0.05,2.39,9.27
2125145949,0.020241,-0.006820,-0.010320,-0.71,3.13,12.17
2125146958,0.006392,-0.015343,-0.000732,0.36,-4.28,7.82
2125147968,0.011718,-0.005755,0.009921,1.01,-2.85,7.56
2125148982,0.013849,-0.001494,0.016312,-0.30,4.67,12.70
2125149988,0.001065,-0.008951,0.015247,-0.99,1.03,13.06
2125150998,0.008522,-0.022800,0.010986,0.31,-4.73,7.34
2125152008,0.018110,-0.016408,0.014182,1.06,-1.68,6.13
2125153018,0.015979,0.009159,0.028030,-0.95,4.49,12.12
2125154095,0.005327,0.017681,0.037618,-1.02,1.23,12.80
2125155074,-0.010653,0.008093,0.033357,0.75,-5.38,8.11
2125156052,-0.009587,0.002767,0.025900,0.79,-2.30,6.97
2125157058,-0.007457,0.009159,0.031226,-0.23,4.23,11.35
2125158068,0.000000,0.014485,0.041879,-1.21,3.51,13.01
2125159082,0.004261,0.013420,0.042944,0.13,-4.62,9.28
2125160088,-0.005326,0.018746,0.036553,0.95,-4.06,7.26
2125161098,-0.010653,-0.000429,0.016312,0.66,1.75,7.86
2125162108,0.006392,-0.015343,0.005659,-1.24,4.94,12.57
2125163137,0.009588,-0.008951,0.008855,-1.08,1.34,12.84
2125164134,0.014914,0.002767,0.017378,0.53,-6.10,8.16
2125165157,0.021306,0.011289,0.020573,0.66,-2.31,6.84
2125166149,0.004261,-0.006820,0.018443,1.15,1.71,8.01
2125167158,0.003196,-0.011082,0.015247,-1.36,4.87,13.41
2125168168,0.021306,-0.017473,0.013116,-1.40,2.05,13.07
2125169182,0.029828,-0.015343,0.017378,0.43,-5.93,8.51
2125170188,0.023436,0.008093,0.020573,0.44,-3.45,6.94
2125171198,-0.006392,0.009159,0.021639,1.44,0.57,5.98
2125172208,-0.004261,0.016616,0.021639,-0.32,2.55,12.21
2125173237,-0.006392,0.011289,0.016312,-1.61,4.73,15.38
2125174234,-0.004261,-0.003625,0.009921,-0.37,-1.72,11.94
2125175239,0.015979,0.000637,0.006725,0.38,-5.68,8.08
2125176249,0.002131,-0.007886,0.005659,1.01,-2.40,4.26
2125177259,-0.005326,0.000637,0.005659,1.03,-1.19,5.73
2125178269,-0.008522,0.015550,0.007790,0.33,2.80,12.52
2125179284,-0.023436,0.012355,0.008855,-1.10,5.59,16.01
2125180289,-0.022371,0.009159,0.009921,-1.14,-0.13,12.55
2125181299,-0.005326,0.019812,0.006725,0.38,-5.40,7.96
2125182309,-0.011718,0.011289,0.000333,0.51,-4.58,5.60
2125183337,-0.018110,-0.001494,-0.001798,0.53,-1.64,5.73
2125184334,-0.009587,-0.012147,-0.003928,1.56,0.90,8.55
2125185339,-0.008522,-0.018539,-0.012450,0.61,3.36,13.54
2125186349,-0.011718,-0.002559,-0.011385,-1.42,4.55,14.98
2125187359,-0.014914,0.017681,-0.002863,-1.35,1.43,11.57
2125188369,-0.015979,0.013420,0.000333,-0.46,-4.17,8.65
2125189384,0.001065,-0.001494,-0.002863,-0.19,-4.76,6.81
2125190389,0.014914,-0.001494,-0.003928,0.60,-1.75,5.76
2125191399,0.003196,0.015550,-0.003928,1.20,-0.71,6.98
2125192409,-0.023436,0.027269,-0.007124,0.95,1.19,10.00
2125193437,-0.021305,0.009159,-0.017777,0.21,4.00,14.45
2125194434,-0.012783,-0.014277,-0.022038,-0.91,4.13,15.36
2125195439,-0.006392,-0.008951,-0.012450,-1.59,1.19,12.16
2125196449,-0.018110,0.000637,-0.016711,-1.10,-2.52,9.28
2125197459,0.012784,-0.010016,-0.024168,-0.39,-4.34,7.24
2125198469,-0.002130,0.016616,-0.014581,-0.28,-2.82,5.85
2125199484,-0.037285,0.027269,-0.004993,0.55,-1.08,5.76
2125200489,-0.001065,-0.018539,-0.017777,1.58,-0.74,6.96
2125201499,0.077766,-0.050497,-0.035887,1.33,1.02,10.43
2125202509,0.098006,-0.038779,-0.038017,0.50,3.08,14.30
2125203537,0.067113,-0.012147,-0.030560,-0.70,3.22,15.36
2125204534,0.052199,0.005963,-0.025234,-1.43,1.92,13.21
2125205539,0.054329,-0.008951,-0.029495,-0.83,-0.46,9.91
2125206549,0.071374,-0.041975,-0.036952,-0.76,-3.26,8.27
2125207559,0.069243,-0.051562,-0.033756,-0.82,-3.12,7.44
2125208572,0.006392,-0.028126,-0.018842,0.51,-2.68,6.87
2125209589,-0.045807,0.011289,-0.003928,0.64,-2.06,6.58
2125210594,-0.012783,0.019812,-0.008189,0.59,-0.86,6.70
2125211607,0.013849,-0.008951,-0.018842,2.04,-0.45,7.70
2125212620,0.014914,-0.000429,-0.018842,0.89,1.14,12.08
2125213645,0.003196,-0.006820,-0.022038,0.23,2.35,14.11
2125214641,-0.011718,-0.011082,-0.014581,-0.65,2.53,14.59
2125215657,0.010653,0.002767,-0.013516,-1.21,2.41,12.92
2125216656,0.005327,-0.012147,-0.016711,-0.76,0.06,10.74
2125217682,0.018110,0.015550,-0.016711,-1.05,-1.23,9.55
2125218683,-0.008522,0.007028,-0.011385,-1.14,-1.89,6.23
2125219693,0.003196,0.000637,-0.016711,-0.66,-3.76,9.41
2125220696,-0.046872,-0.023865,-0.019907,0.57,-1.80,7.23
2125221703,-0.019175,-0.003625,-0.022038,-0.08,-3.38,5.90
2125222728,0.006392,0.035791,-0.022038,1.25,-1.12,6.64
2125223747,0.011718,0.021942,-0.027364,0.63,0.30,8.18
2125224740,0.003196,0.003832,-0.033756,0.72,-1.39,9.17
2125225747,0.015979,-0.038779,-0.036952,1.21,2.45,12.31
2125226754,0.009588,-0.023865,-0.039082,0.39,1.86,14.34
2125227763,-0.031958,-0.013212,-0.031625,-0.21,1.94,13.01
2125228775,-0.025567,0.031530,-0.030560,-1.44,2.65,13.41
2125229788,-0.035154,0.010224,-0.032691,-0.78,0.97,12.54
2125230793,-0.002130,-0.003625,-0.035887,-1.45,0.90,10.89
2125231803,-0.011718,-0.040909,-0.040148,-0.96,-1.00,7.60
2125232811,0.039416,-0.020669,-0.042278,-0.26,-2.35,8.49
2125233840,0.028763,0.005963,-0.038017,-0.90,-0.80,7.04
2125234834,-0.044742,-0.010016,-0.015646,0.51,-2.00,7.77
2125235839,-0.011718,-0.012147,-0.012450,0.23,-3.06,6.46
2125236849,0.044742,0.040052,-0.029495,1.35,-1.04,7.00
2125237859,0.043677,0.044313,-0.042278,0.93,0.57,8.49
2125238869,-0.020240,0.011289,-0.039082,1.06,-2.25,9.08
2125239884,-0.038350,-0.046236,-0.031625,1.68,1.39,11.94
2125240889,-0.005326,-0.036648,-0.027364,1.19,1.15,12.46
2125241899,0.025567,-0.000429,-0.025234,-0.03,1.85,12.54
2125242909,0.008522,0.034726,-0.024168,-0.43,2.55,13.41
2125243937,-0.043676,0.020877,-0.020973,-0.28,1.21,12.96
2125244934,-0.014914,0.004898,-0.028430,-1.55,2.06,11.97
2125245939,-0.009587,-0.039844,-0.034821,-0.69,0.78,9.92
2125246949,0.024502,-0.021734,-0.039082,-1.05,-0.03,10.44
2125247959,-0.003196,0.003832,-0.040148,-1.27,-0.37,7.99
2125248969,-0.007457,0.031530,-0.036952,-0.49,-2.07,8.94
2125249984,-0.028762,0.007028,-0.039082,-0.85,-1.43,7.32
2125250989,-0.002130,-0.027061,-0.044409,0.01,-3.02,7.90
2125251999,0.004261,-0.011082,-0.048670,0.39,-1.32,8.03
2125253009,0.005327,0.008093,-0.046539,0.05,-2.63,8.47
2125254037,-0.014914,0.000637,-0.046539,0.88,-1.80,7.48
2125255034,-0.006392,-0.027061,-0.046539,0.56,-0.43,8.51
2125256039,0.009588,-0.011082,-0.046539,1.25,-1.33,8.02
2125257049,0.013849,-0.000429,-0.040148,0.89,0.58,10.01
2125258059,0.001065,0.014485,-0.036952,1.22,-0.57,10.45
2125259069,-0.019175,-0.001494,-0.032691,0.99,0.99,11.03
2125260084,-0.009587,0.003832,-0.039082,0.00,0.94,12.79
2125261089,0.010653,-0.019604,-0.043343,0.51,1.92,12.54
2125262099,0.015979,-0.011082,-0.043343,-0.61,2.02,13.33
2125263125,0.001065,-0.021734,-0.041213,-0.34,0.99,11.54
2125264119,0.011718,0.009159,-0.036952,-1.10,2.07,11.37
2125265134,-0.008522,0.009159,-0.036952,-1.21,0.93,10.40
2125266139,-0.002130,0.011289,-0.032691,-0.88,0.47,10.37
2125267149,-0.029828,0.002767,-0.030560,-1.10,-0.46,8.56
2125268159,0.020241,0.001702,-0.033756,-0.68,-1.44,9.69
2125269169,0.002131,0.009159,-0.029495,-0.96,-0.36,7.72
2125270184,0.001065,-0.004690,-0.030560,-0.18,-3.03,8.44
2125271189,-0.012783,-0.013212,-0.028430,-0.08,-1.55,7.23
2125272199,0.019175,-0.000429,-0.029495,0.10,-2.55,7.60
2125273225,0.023436,0.011289,-0.032691,0.70,-1.44,7.98
2125274219,-0.006392,0.004898,-0.025234,0.26,-1.32,9.09
2125275234,-0.031958,-0.003625,-0.025234,1.15,-1.91,8.03
2125276239,0.019175,-0.020669,-0.027364,0.79,-0.22,8.90
2125277249,0.030893,0.012355,-0.028430,1.26,-0.87,8.97
2125278259,-0.003196,0.001702,-0.028430,1.13,0.65,10.37
2125279269,-0.025567,-0.005755,-0.026299,0.80,-0.57,11.15
2125280284,-0.008522,-0.010016,-0.024168,0.82,1.34,10.75
2125281289,0.054329,0.013420,-0.031625,-0.07,1.86,12.82
2125282299,0.007457,0.013420,-0.031625,0.13,1.67,13.18
2125283325,-0.050068,0.012355,-0.024168,-0.71,1.83,13.40
2125284319,-0.024501,-0.016408,-0.023103,-0.32,0.70,10.85
2125285334,0.042611,0.008093,-0.020973,-1.01,2.16,10.42
2125286339,0.007457,0.016616,-0.025234,-1.53,1.23,10.01
2125287349,-0.020240,-0.004690,-0.027364,-0.92,-0.43,10.59
2125288359,-0.035154,-0.023865,-0.025234,-1.13,-0.68,8.71
2125289369,0.050068,-0.002559,-0.025234,-0.56,-1.07,9.20
2125290384,0.050068,0.011289,-0.028430,-0.83,-0.14,7.37
2125291389,-0.018110,0.011289,-0.020973,-0.38,-3.13,8.61
2125292399,-0.058590,-0.000429,-0.018842,-0.11,-1.63,7.73
2125293425,0.033024,-0.005755,-0.018842,0.31,-2.38,7.02
2125294419,0.040481,0.027269,-0.016711,0.69,-1.23,8.03
2125295434,-0.013848,0.013420,-0.017777,0.17,-1.40,10.03
2125296439,-0.037285,-0.023865,-0.024168,1.12,-2.28,8.45
2125297449,0.015979,-0.021734,-0.025234,0.69,-0.09,8.94
2125298459,0.041546,0.014485,-0.029495,1.36,-0.68,8.62
2125299469,0.002131,-0.000429,-0.030560,1.15,0.44,9.95
2125300484,-0.055394,0.001702,-0.023103,0.76,-0.85,10.82
2125301489,-0.027697,0.003832,-0.017777,0.94,1.18,10.13
2125302499,0.054329,0.020877,-0.024168,0.07,1.77,12.62
2125303525,0.013849,0.018746,-0.022038,0.06,1.66,13.71
2125304519,-0.052199,-0.003625,-0.020973,-0.43,1.44,13.95
2125305534,-0.021305,-0.035583,-0.028430,-0.24,0.60,11.18
2125306539,0.066048,0.001702,-0.028430,-1.16,2.61,10.44
2125307549,0.017045,0.016616,-0.027364,-1.32,1.31,10.24
2125308559,-0.031958,-0.003625,-0.026299,-0.82,-0.25,10.48
2125309572,-0.041546,-0.012147,-0.023103,-1.18,-0.39,8.92
2125310590,0.022371,0.013420,-0.025234,-0.62,-0.56,9.17
2125311593,0.020241,0.015550,-0.032691,-0.94,-0.04,7.81
2125312606,-0.022371,-0.000429,-0.024168,-0.41,-3.24,8.94
2125313641,-0.055394,-0.008951,-0.018842,-0.19,-1.69,7.39
2125314626,0.036220,-0.004690,-0.024168,0.16,-2.53,7.35
2125315641,0.056460,0.012355,-0.029495,0.70,-1.07,7.96
2125316658,-0.012783,0.007028,-0.025234,0.16,-1.58,9.74
2125317657,-0.052199,-0.016408,-0.028430,1.01,-2.30,8.42
2125318673,0.026632,-0.020669,-0.026299,0.79,-0.34,8.37
2125319698,0.047938,0.027269,-0.017777,1.26,-0.93,8.43
2125320691,-0.014914,0.019812,-0.014581,1.06,0.10,10.54
2125321700,-0.058590,-0.015343,-0.018842,1.21,-1.13,10.65
2125322720,-0.017044,-0.022800,-0.020973,0.92,1.06,10.04
2125323735,0.045807,0.008093,-0.027364,0.02,1.73,11.95
2125324730,0.030893,-0.004690,-0.030560,0.27,1.91,12.84
2125325741,-0.026632,-0.006820,-0.019907,-0.36,1.50,13.57
2125326748,-0.038350,-0.018539,-0.019907,0.03,0.76,10.82
2125327754,0.063917,-0.004690,-0.032691,-0.66,2.55,10.83
2125328766,0.072439,0.027269,-0.040148,-1.30,1.89,11.30
2125329769,-0.009587,0.032595,-0.043343,-0.84,0.61,11.65
2125330788,-0.066047,-0.033452,-0.055062,-0.75,-0.37,9.67
2125331793,0.004261,-0.040909,-0.058257,-0.42,-0.33,8.73
2125332803,0.018110,0.011289,-0.059323,-0.81,0.31,7.09
2125333828,0.014914,0.028334,-0.065714,-0.47,-2.44,9.54
2125334823,-0.033024,-0.008951,-0.072106,-0.21,-1.44,7.77
2125335834,-0.019175,-0.019604,-0.073171,0.42,-3.01,7.24
2125336839,0.031959,0.005963,-0.067845,0.12,-1.93,9.56
2125337849,-0.027697,0.020877,-0.058257,1.01,-1.95,8.35
2125338859,-0.024501,0.012355,-0.060388,0.67,-0.82,8.71
2125339869,0.012784,0.010224,-0.069976,1.28,-1.06,8.51
2125340884,0.026632,-0.010016,-0.068910,0.96,0.54,9.48
2125341889,-0.004261,-0.007886,-0.063584,1.15,-0.96,9.86
2125342899,0.006392,-0.016408,-0.061453,0.91,0.96,10.47
2125343925,0.013849,0.018746,-0.055062,0.39,0.80,12.36
2125344919,-0.017044,0.019812,-0.047605,0.66,1.38,12.08
2125345934,-0.020240,-0.006820,-0.048670,-0.28,1.32,12.90
2125346939,-0.005326,-0.024930,-0.045474,-0.14,0.99,10.56
2125347949,0.015979,0.020877,-0.039082,-1.09,2.19,11.55
2125348959,0.003196,0.028334,-0.038017,-1.03,1.59,12.24
2125349969,0.012784,0.000637,-0.032691,-0.92,1.16,11.64
2125350984,-0.014914,-0.022800,-0.026299,-1.23,0.18,9.82
2125351989,0.024502,-0.015343,-0.030560,-0.90,0.41,9.58
2125352999,0.022371,-0.002559,-0.038017,-1.42,0.24,8.03
2125354025,-0.001065,0.005963,-0.032691,-0.69,-2.62,8.89
2125355019,-0.044742,-0.004690,-0.028430,-0.65,-1.08,7.59
2125356034,0.013849,-0.010016,-0.029495,-0.02,-2.77,8.01
2125357039,0.009588,0.029399,-0.026299,0.17,-1.30,8.15
2125358049,-0.010653,0.035791,-0.024168,-0.06,-2.46,9.35
2125359059,-0.018110,-0.012147,-0.035887,0.59,-2.19,8.16
2125360069,0.021306,-0.038779,-0.039082,0.63,-1.51,7.47
2125361084,0.008522,0.005963,-0.038017,1.33,-1.45,8.02
2125362089,0.000000,0.014485,-0.035887,0.73,-0.33,10.01
2125363117,-0.013848,-0.001494,-0.030560,1.05,-1.66,9.39
2125364109,-0.005326,-0.012147,-0.026299,0.87,0.80,9.76
2125365119,0.025567,0.012355,-0.034821,0.83,0.38,11.10
2125366134,0.018110,0.015550,-0.038017,0.88,1.12,11.97
2125367139,-0.026632,0.012355,-0.025234,-0.08,0.81,13.07
2125368149,-0.030893,-0.021734,-0.024168,0.12,1.12,10.45
2125369159,0.035154,-0.007886,-0.030560,-0.75,2.36,11.72
2125370169,0.013849,0.021942,-0.029495,-0.80,1.65,12.85
2125371184,-0.017044,0.009159,-0.033756,-0.96,1.35,12.52
2125372189,-0.019175,-0.033452,-0.038017,-1.06,0.38,10.35
2125373217,0.024502,-0.008951,-0.031625,-0.88,1.09,9.51
2125374209,-0.004261,0.026203,-0.029495,-1.32,0.60,8.16
2125375219,-0.007457,0.017681,-0.023103,-0.63,-2.12,9.17
2125376234,-0.028762,-0.004690,-0.016711,-0.84,-0.89,7.98
2125377239,0.018110,-0.002559,-0.019907,-0.02,-2.46,8.37
2125378249,0.030893,0.005963,-0.031625,0.09,-1.03,8.12
2125379259,0.008522,0.001702,-0.027364,-0.09,-2.87,9.25
2125380269,-0.041546,-0.008951,-0.023103,0.45,-2.03,7.92
2125381284,0.011718,-0.019604,-0.025234,0.56,-1.67,7.28
2125382289,0.027697,0.018746,-0.023103,1.35,-1.56,7.88
2125383317,-0.014914,0.029399,-0.016711,0.68,-0.46,9.87
2125384309,-0.039415,-0.004690,-0.019907,1.04,-1.85,9.08
2125385319,0.003196,-0.028126,-0.020973,0.86,0.74,9.85
2125386334,0.013849,0.013420,-0.017777,1.04,0.07,10.70
2125387339,0.001065,0.005963,-0.018842,1.00,0.86,11.32
2125388349,-0.004261,-0.014277,-0.014581,0.06,0.43,12.48
2125389359,-0.006392,-0.019604,-0.011385,0.25,1.22,10.32
2125390369,0.042611,0.002767,-0.022038,-0.61,2.27,12.19
2125391384,0.026632,0.008093,-0.027364,-0.61,1.57,13.16
2125392389,-0.026632,0.013420,-0.019907,-0.97,1.62,12.81
2125393417,-0.045807,-0.011082,-0.019907,-0.91,0.53,10.54
2125394409,0.029828,-0.001494,-0.019907,-0.93,1.41,9.62
2125395419,0.006392,0.030464,-0.014581,-1.45,0.67,8.58
2125396434,-0.021305,0.014485,-0.019907,-0.77,-1.56,9.62
2125397439,-0.022371,-0.035583,-0.031625,-0.99,-0.55,8.26
2125398449,0.027697,-0.021734,-0.028430,-0.10,-2.31,8.41
2125399459,0.012784,0.018746,-0.028430,-0.10,-0.93,7.97
2125400469,0.005327,0.014485,-0.023103,-0.14,-3.02,9.07
2125401484,-0.028762,0.003832,-0.014581,0.26,-1.86,7.80
2125402489,0.003196,0.003832,-0.014581,0.52,-1.95,7.13
2125403517,0.029828,0.017681,-0.026299,1.23,-1.59,7.85
2125404509,0.007457,0.010224,-0.026299,0.46,-0.57,10.01
2125405519,-0.041546,-0.007886,-0.025234,1.02,-1.90,9.03
2125406534,0.001065,-0.032387,-0.029495,0.86,0.61,9.72
2125407539,0.035154,0.003832,-0.028430,1.27,-0.21,10.01
2125408549,-0.008522,0.024073,-0.019907,1.14,0.69,10.77
2125409559,-0.029828,-0.002559,-0.019907,0.28,0.14,12.06
2125410572,-0.003196,-0.025996,-0.019907,0.48,1.25,10.18
2125411589,0.027697,0.012355,-0.020973,-0.39,2.27,12.40
2125412592,0.008522,0.017681,-0.024168,-0.44,1.69,13.63
2125413623,-0.017044,0.003832,-0.012450,-0.94,1.75,13.38
2125414620,-0.033024,-0.016408,-0.008189,-0.80,0.59,10.75
2125415626,0.046873,-0.005755,-0.015646,-0.94,1.85,9.58
2125416642,0.038350,0.017681,-0.017777,-1.59,0.90,8.85
2125417657,-0.021305,0.010224,-0.015646,-0.94,-1.42,9.82
2125418656,-0.040481,-0.032387,-0.020973,-1.08,-0.49,8.57
2125419670,0.030893,-0.016408,-0.018842,-0.15,-1.98,8.71
2125420678,0.010653,0.029399,-0.016711,-0.31,-0.74,7.93
2125421691,-0.017044,0.020877,-0.012450,-0.29,-3.28,9.05
2125422728,-0.037285,-0.007886,-0.010320,0.17,-1.94,7.65
2125423724,0.014914,-0.007886,-0.013516,0.53,-2.24,6.90
2125424721,0.046873,0.008093,-0.025234,1.16,-1.65,7.86
2125425729,0.011718,0.001702,-0.025234,0.38,-0.80,10.17
2125426741,-0.052199,-0.013212,-0.023103,1.06,-2.05,8.93
2125427748,-0.003196,-0.028126,-0.022038,0.96,0.43,9.35
2125428760,0.035154,0.017681,-0.016711,1.39,-0.44,9.56
2125429763,-0.010653,0.037921,-0.010320,1.07,0.68,10.63
2125430769,-0.035154,0.003832,-0.012450,0.42,-0.05,11.77
2125431788,-0.006392,-0.022800,-0.014581,0.61,1.20,10.03
2125432793,0.034089,0.009159,-0.019907,-0.30,2.24,12.39
2125433820,0.021306,0.011289,-0.026299,-0.40,1.78,13.81
2125434811,-0.021305,-0.003625,-0.018842,-0.86,1.81,13.55
2125435823,-0.036219,-0.027061,-0.013516,-0.59,0.58,10.82
2125436834,0.047938,-0.005755,-0.016711,-0.93,2.03,9.57
2125437839,0.030893,0.032595,-0.015646,-1.61,1.05,9.05
2125438849,-0.042611,-0.028126,-0.026299,-1.03,-0.54,8.70
2125439859,0.023436,-0.014277,-0.022038,-0.13,-1.85,8.67
2125440869,0.020241,0.019812,-0.023103,-0.35,-0.55,7.83
2125441884,0.003196,0.010224,-0.017777,-0.32,-3.26,9.22
2125442889,-0.037285,-0.011082,-0.010320,0.11,-1.98,7.67
2125443917,0.021306,-0.012147,-0.013516,0.63,-2.41,6.72
2125444909,0.059656,0.014485,-0.022038,1.17,-1.55,7.80
2125445919,0.009588,0.023007,-0.017777,0.33,-0.89,10.32
2125446934,-0.057525,-0.010016,-0.018842,1.07,-2.05,8.98
2125447939,-0.005326,-0.032387,-0.020973,0.90,0.35,9.17
2125448949,0.021306,0.016616,-0.018842,1.39,-0.57,9.38
2125449959,-0.006392,0.018746,-0.019907,1.05,0.68,10.62
2125450969,-0.029828,-0.008951,-0.018842,0.43,-0.13,11.73
2125451984,-0.014914,-0.020669,-0.016711,0.57,1.21,9.94
2125452989,0.051134,0.005963,-0.026299,-0.31,2.18,12.48
2125454017,0.035154,0.014485,-0.028430,-0.43,1.85,13.70
2125455009,-0.039415,0.004898,-0.020973,-0.93,1.83,13.51
2125456019,-0.045807,-0.032387,-0.022038,-0.58,0.57,10.84
2125457034,0.028763,0.000637,-0.018842,-1.02,2.16,9.65
2125458039,0.006392,0.035791,-0.018842,-1.62,1.13,9.13
2125459049,-0.013848,0.013420,-0.018842,-0.91,-1.01,10.09
2125460059,-0.035154,-0.024930,-0.017777,-1.02,-0.52,8.70
2125461069,0.028763,-0.013212,-0.023103,-0.15,-1.90,8.65
2125462084,0.046873,0.004898,-0.031625,-0.40,-0.52,7.79
2125463105,-0.001065,0.005963,-0.026299,-0.30,-3.31,9.20
2125464099,-0.062851,-0.020669,-0.024168,0.18,-1.99,7.59
2125465109,0.007457,-0.022800,-0.019907,0.68,-2.45,6.76
2125466119,0.021306,0.028334,-0.014581,1.17,-1.52,7.88
2125467134,-0.009587,0.028334,-0.013516,0.37,-0.92,10.35
2125468139,-0.037285,-0.010016,-0.014581,1.12,-2.11,8.98
2125469149,0.001065,-0.020669,-0.017777,0.90,0.44,9.21
2125470159,0.050068,0.001702,-0.026299,1.38,-0.45,9.48
2125471169,0.026632,0.002767,-0.027364,1.08,0.75,10.62
2125472184,-0.050068,-0.006820,-0.022038,0.43,-0.12,11.79
2125473205,-0.027697,-0.030257,-0.022038,0.53,1.23,9.89
2125474199,0.033024,0.012355,-0.013516,-0.32,2.18,12.41
2125475209,-0.001065,0.031530,-0.009254,-0.38,1.79,13.67
2125476219,-0.023436,0.002767,-0.009254,-0.95,1.88,13.53
2125477234,-0.023436,-0.025996,-0.011385,-0.72,0.59,10.90
2125478239,0.039416,-0.002559,-0.019907,-1.03,2.11,9.64
2125479249,0.040481,0.004898,-0.027364,-1.61,1.12,9.05
2125480259,-0.015979,0.002767,-0.019907,-1.02,-1.06,10.11
2125481269,-0.058590,-0.021734,-0.017777,-1.07,-0.43,8.67
2125482284,0.022371,-0.007886,-0.015646,-0.19,-1.88,8.57
2125483305,0.013849,0.033660,-0.012450,-0.39,-0.59,7.83
2125484299,-0.015979,0.025138,-0.012450,-0.22,-3.27,9.18
2125485309,-0.028762,-0.017473,-0.016711,0.11,-1.98,7.63
2125486319,0.022371,-0.014277,-0.017777,0.63,-2.39,6.92
2125487334,0.039416,0.005963,-0.025234,1.21,-1.51,8.00
2125488339,0.011718,-0.002559,-0.023103,0.38,-0.90,10.32
2125489349,-0.052199,-0.014277,-0.014581,1.10,-2.09,8.88
2125490359,-0.004261,-0.021734,-0.014581,0.89,0.45,9.18
2125491369,0.041546,0.020877,-0.013516,1.39,-0.49,9.47
2125492384,-0.003196,0.036856,-0.007124,1.03,0.72,10.61
2125493405,-0.036219,-0.002559,-0.009254,0.44,-0.10,11.77
2125494399,-0.010653,-0.033452,-0.012450,0.57,1.19,9.76
2125495409,0.034089,0.001702,-0.017777,-0.34,2.19,12.28
2125496419,0.026632,0.005963,-0.023103,-0.45,1.83,13.61
2125497434,-0.029828,-0.002559,-0.015646,-0.97,1.85,13.54
2125498439,-0.043676,-0.027061,-0.014581,-0.76,0.59,10.97
2125499449,0.044742,0.000637,-0.015646,-1.08,2.25,9.60
2125500459,0.023436,0.034726,-0.012450,-1.60,1.11,9.03
2125501469,-0.024501,0.019812,-0.012450,-0.97,-1.11,10.08
2125502484,-0.031958,-0.023865,-0.016711,-1.11,-0.43,8.71
2125503505,0.025567,-0.004690,-0.017777,-0.17,-1.91,8.52
2125504499,0.029828,0.013420,-0.025234,-0.37,-0.56,7.90
2125505509,-0.001065,0.001702,-0.019907,-0.20,-3.29,9.37
2125506519,-0.054329,-0.021734,-0.015646,0.24,-2.03,7.67
2125507534,0.014914,-0.020669,-0.018842,0.63,-2.42,6.90
2125508539,0.038350,0.020877,-0.018842,1.18,-1.47,7.96
2125509549,-0.009587,0.031530,-0.014581,0.40,-0.82,10.35
2125510559,-0.042611,-0.012147,-0.013516,1.16,-2.18,9.01
2125511572,0.001065,-0.023865,-0.015646,0.98,0.40,9.05
2125512590,0.031959,0.013420,-0.023103,1.40,-0.49,9.37
2125513614,0.020241,0.011289,-0.026299,1.04,0.70,10.75
2125514606,-0.043676,-0.007886,-0.015646,0.45,-0.05,11.88
2125515619,-0.028762,-0.032387,-0.014581,0.56,1.10,9.85
2125516626,0.051134,0.001702,-0.016711,-0.41,2.26,12.20
2125517641,0.017045,0.034726,-0.015646,-0.59,1.98,13.76
2125518655,-0.035154,0.008093,-0.015646,-0.92,1.77,13.59
2125519658,-0.036219,-0.033452,-0.016711,-0.67,0.44,11.03
2125520674,0.021306,-0.000429,-0.017777,-1.05,2.24,9.38
2125521679,0.031959,0.019812,-0.023103,-1.72,1.20,8.87
2125522702,-0.014914,0.010224,-0.014581,-1.08,-1.12,10.47
2125523721,-0.068178,-0.027061,-0.012450,-0.95,-0.57,8.66
2125524728,0.024502,-0.016408,-0.013516,-0.03,-2.32,7.89
2125525719,0.041546,0.026203,-0.016711,-0.23,-0.53,7.66
2125526728,-0.003196,0.026203,-0.017777,-0.20,-3.25,9.66
2125527740,-0.051133,-0.014277,-0.016711,0.24,-2.16,7.78
2125528749,-0.001065,-0.006820,-0.017777,0.71,-2.33,7.10
2125529754,0.036220,0.020877,-0.026299,1.38,-1.47,7.79
2125530763,0.015979,0.014485,-0.023103,0.57,-0.67,10.32
2125531769,-0.053264,-0.012147,-0.018842,1.17,-2.12,9.15
2125532788,-0.003196,-0.033452,-0.017777,0.92,0.61,9.28
2125533810,0.037285,0.005963,-0.014581,1.29,-0.36,9.59
2125534803,0.003196,0.018746,-0.011385,0.96,0.92,10.95
2125535811,-0.033024,0.002767,-0.007124,0.32,0.21,12.42
2125536823,-0.026632,-0.006820,-0.007124,0.46,1.13,10.13
2125537834,0.044742,0.018746,-0.013516,-0.55,2.28,12.06
2125538839,0.039416,0.018746,-0.017777,-0.62,1.96,13.10
2125539849,-0.034089,-0.000429,-0.017777,-0.98,1.81,13.32
2125540859,0.028763,-0.011082,-0.018842,-1.13,2.04,9.66
2125541869,0.017045,0.019812,-0.016711,-1.59,1.07,8.68
2125542884,-0.006392,0.010224,-0.012450,-0.98,-1.37,10.00
2125543905,-0.046872,-0.010016,-0.007124,-1.07,-0.52,8.53
2125544899,0.022371,0.003832,-0.011385,0.07,-2.36,8.00
2125545909,0.049003,0.024073,-0.017777,-0.09,-0.74,7.77
2125546919,0.000000,0.020877,-0.014581,-0.07,-3.19,9.58
2125547934,-0.056460,-0.023865,-0.016711,0.36,-2.14,8.15
2125548939,0.005327,-0.034518,-0.016711,0.64,-2.24,7.32
2125549949,0.026632,0.010224,-0.017777,1.33,-1.55,7.70
2125550959,0.012784,0.014485,-0.016711,0.68,-0.71,10.25
2125551969,-0.036219,0.003832,-0.009254,1.15,-2.09,9.05
2125552984,-0.015979,-0.001494,-0.010320,0.85,0.72,8.99
2125554005,0.047938,0.023007,-0.017777,1.29,-0.27,9.73
2125554999,0.021306,0.033660,-0.014581,1.00,1.00,11.14
2125556009,-0.041546,0.002767,-0.015646,0.25,0.28,12.57
2125557019,-0.022371,-0.038779,-0.022038,0.33,1.13,10.10
2125558034,0.025567,-0.001494,-0.020973,-0.57,2.51,12.00
2125559039,0.015979,0.008093,-0.024168,-0.61,1.85,13.13
2125560049,-0.017044,0.001702,-0.014581,-1.12,1.72,13.17
2125561059,-0.046872,-0.011082,-0.008189,-1.05,0.53,10.85
2125562069,0.036220,0.004898,-0.013516,-1.09,1.87,9.47
2125563101,0.034089,0.030464,-0.013516,-1.55,0.95,8.57
2125564089,-0.010653,0.018746,-0.013516,-0.83,-1.62,9.92
2125565099,-0.033024,-0.030257,-0.017777,-1.01,-0.68,8.51
2125566109,0.018110,-0.018539,-0.015646,0.00,-2.51,7.93
2125567119,0.024502,0.009159,-0.020973,-0.02,-0.83,7.77
2125568134,0.007457,0.001702,-0.018842,-0.06,-3.10,9.59
2125569139,-0.050068,-0.013212,-0.010320,0.37,-2.21,8.12
2125570149,0.001065,-0.011082,-0.010320,0.68,-2.00,7.19
2125571159,0.041546,0.024073,-0.012450,1.35,-1.53,7.75
2125572169,0.004261,0.034726,-0.011385,0.65,-0.60,10.16
2125573201,-0.034089,-0.011082,-0.017777,1.20,-2.11,9.24
2125574189,0.001065,-0.036648,-0.019907,0.94,0.66,9.15
2125575199,0.033024,0.007028,-0.016711,1.23,-0.15,9.86
2125576209,0.025567,0.013420,-0.015646,0.92,0.98,11.28
2125577219,-0.038350,-0.002559,-0.009254,0.15,0.42,12.80
2125578234,-0.044742,-0.028126,-0.010320,0.34,0.95,10.13
2125579239,0.038350,0.003832,-0.015646,-0.62,2.51,11.73
2125580249,0.023436,0.043248,-0.013516,-0.79,1.98,13.06
2125581259,-0.015979,0.018746,-0.013516,-1.01,1.54,13.20
2125582269,-0.026632,-0.030257,-0.015646,-0.99,0.41,11.08
2125583301,0.022371,-0.006820,-0.014581,-1.05,1.77,9.48
2125584289,0.033024,0.012355,-0.020973,-1.50,0.99,8.43
2125585299,-0.003196,0.004898,-0.014581,-0.85,-1.77,9.82
2125586309,-0.057525,-0.019604,-0.012450,-0.97,-0.79,8.41
2125587319,0.013849,-0.013212,-0.017777,0.07,-2.62,7.75
2125588334,0.026632,0.023007,-0.018842,0.02,-0.88,7.78
2125589339,-0.004261,0.023007,-0.015646,-0.03,-3.01,9.61
2125590349,-0.031958,-0.015343,-0.015646,0.48,-2.33,8.09
2125591359,0.009588,-0.014277,-0.014581,0.65,-1.81,7.33
2125592369,0.035154,0.013420,-0.022038,1.37,-1.45,7.72
2125593401,0.017045,0.003832,-0.023103,0.79,-0.52,10.01
2125594389,-0.052199,-0.014277,-0.015646,1.22,-2.01,9.25
2125595399,-0.020240,-0.029191,-0.015646,0.87,0.74,9.20
2125596409,0.033024,0.013420,-0.015646,1.14,-0.02,10.14
2125597419,0.004261,0.033660,-0.012450,0.91,1.03,11.32
2125598434,-0.023436,0.000637,-0.012450,0.13,0.52,12.82
2125599439,-0.013848,-0.024930,-0.014581,0.24,0.96,10.22
2125600449,0.038350,0.007028,-0.017777,-0.74,2.60,11.85
2125601459,0.037285,0.013420,-0.020973,-0.84,1.91,13.07
2125602469,-0.025567,0.001702,-0.014581,-1.04,1.53,13.01
2125603501,-0.050068,-0.034518,-0.017777,-1.08,0.42,10.88
2125604489,0.023436,-0.014277,-0.018842,-1.08,1.56,9.34
2125605499,0.013849,0.025138,-0.017777,-1.54,0.87,8.34
2125606509,-0.008522,0.020877,-0.011385,-0.84,-2.03,9.79
2125607519,-0.036219,-0.011082,-0.008189,-0.88,-0.94,8.18
2125608534,0.023436,-0.003625,-0.012450,0.19,-2.77,7.67
2125609539,0.053264,0.015550,-0.019907,0.22,-0.93,7.84
2125610549,0.007457,0.014485,-0.017777,0.03,-2.95,9.65
2125611559,-0.057525,-0.021734,-0.020973,0.51,-2.37,8.14
2125612572,-0.006392,-0.032387,-0.017777,0.67,-1.70,7.54
2125613608,0.021306,0.011289,-0.016711,1.45,-1.44,7.80
2125614592,0.013849,0.015550,-0.014581,0.85,-0.37,10.03
2125615606,-0.029828,-0.000429,-0.008189,1.21,-1.92,9.42
2125616620,-0.020240,-0.004690,-0.009254,0.86,0.79,9.05
2125617628,0.045807,0.019812,-0.018842,0.98,0.15,10.34
2125618641,0.029828,0.027269,-0.019907,0.77,1.29,11.49
2125619657,-0.030893,-0.002559,-0.022038,0.02,0.71,13.11
2125620659,-0.022371,-0.045171,-0.026299,0.14,0.83,10.39
2125621671,0.025567,-0.006820,-0.019907,-0.90,2.62,11.63
2125622684,0.029828,0.011289,-0.020973,-1.02,1.97,12.55
2125623714,-0.002130,0.005963,-0.012450,-1.07,1.47,12.66
2125624697,-0.049003,-0.011082,-0.008189,-1.09,0.33,10.87
2125625703,0.019175,0.003832,-0.012450,-1.05,1.24,9.36
2125626743,0.028763,0.029399,-0.013516,-1.47,0.76,8.18
2125627728,-0.009587,0.017681,-0.015646,-0.67,-2.15,9.76
2125628747,-0.040481,-0.030257,-0.022038,-0.72,-1.15,8.07
2125629747,0.005327,-0.017473,-0.019907,0.26,-3.11,7.26
2125630754,0.035154,0.015550,-0.022038,0.27,-1.04,7.78
2125631763,0.024502,0.011289,-0.017777,0.10,-2.66,9.99
2125632769,-0.051133,-0.013212,-0.013516,0.74,-2.43,8.35
2125633805,-0.012783,-0.022800,-0.016711,0.81,-1.55,7.75
2125634793,0.031959,0.021942,-0.017777,1.46,-1.36,7.88
2125635803,0.011718,0.038987,-0.013516,0.86,-0.21,9.99
2125636811,-0.027697,-0.001494,-0.014581,1.27,-1.75,9.63
2125637823,-0.018110,-0.027061,-0.017777,0.91,0.82,8.83
2125638834,0.035154,0.001702,-0.024168,0.85,0.34,10.47
2125639839,0.049003,0.009159,-0.028430,0.57,1.57,11.99
2125640849,-0.024501,-0.001494,-0.022038,-0.12,1.03,13.53
2125641859,-0.041546,-0.037714,-0.020973,0.07,0.70,10.52
2125642869,0.008522,0.027269,-0.016711,-1.14,2.14,12.34
2125643901,-0.015979,0.018746,-0.011385,-1.08,1.28,12.61
2125644889,-0.050068,-0.011082,-0.009254,-1.16,0.17,10.71
2125645899,0.022371,0.000637,-0.015646,-1.00,0.89,8.91
2125646909,0.053264,0.021942,-0.018842,-1.36,0.71,7.87
2125647919,0.007457,0.009159,-0.019907,-0.51,-2.55,9.70
2125648934,-0.042611,-0.045171,-0.025234,-0.51,-1.44,7.92
2125649939,0.002131,-0.032387,-0.020973,0.48,-3.33,7.04
2125650949,0.031959,0.015550,-0.020973,0.46,-1.06,7.89
2125651959,0.015979,0.026203,-0.008189,0.09,-2.30,10.32
2125652969,-0.059656,-0.000429,-0.003928,0.94,-2.47,8.38
2125654001,-0.015979,-0.020669,-0.011385,0.83,-1.15,7.92
2125654989,0.024502,0.021942,-0.017777,1.51,-1.20,7.85
2125655999,0.008522,0.029399,-0.019907,0.95,0.12,10.06
2125657009,-0.035154,-0.006820,-0.016711,1.22,-1.48,10.01
2125658019,-0.026632,-0.022800,-0.014581,0.87,0.95,8.83
2125659077,0.052199,0.012355,-0.019907,0.43,0.82,11.07
2125660047,0.047938,0.031530,-0.016711,0.17,1.94,12.65
2125661049,-0.017044,0.002767,-0.017777,-0.36,1.44,13.91
2125662059,-0.037285,-0.036648,-0.022038,-0.15,0.64,10.85
2125663085,0.010653,-0.005755,-0.024168,-1.37,2.90,10.90
2125664084,0.029828,0.008093,-0.024168,-1.51,2.06,11.46
2125665107,-0.013848,0.000637,-0.017777,-1.18,0.95,11.97
2125666099,-0.044742,-0.040909,-0.019907,-1.21,-0.05,10.15
2125667108,0.015979,-0.016408,-0.017777,-0.83,-0.23,8.85
2125668118,0.023436,0.015550,-0.019907,-1.17,0.25,7.53
2125669132,0.000000,0.020877,-0.006059,-0.29,-3.06,9.39
2125670138,-0.056460,-0.001494,-0.000732,-0.04,-1.86,7.77
2125671148,0.006392,-0.001494,-0.004993,0.66,-3.56,6.97
2125672158,0.029828,0.031530,-0.011385,0.69,-1.32,7.81
2125673185,0.006392,0.024073,-0.010320,0.32,-1.64,10.45
2125674184,-0.044742,-0.010016,-0.007124,1.36,-2.35,8.69
2125675207,-0.008522,-0.019604,-0.007124,0.98,-0.46,8.49
2125676199,0.053264,0.018746,-0.012450,1.43,-1.11,8.28
2125677208,0.027697,0.035791,-0.014581,0.94,0.78,10.11
2125678218,-0.028762,0.004898,-0.015646,0.98,-0.63,11.07
