t,dt_s,gyro_x,gyro_y,gyro_z,acc_x,acc_y,acc_z,rates.x,rates.y,rates.z,ratesTarget.x,ratesTarget.y,ratesTarget.z,attitude.x,attitude.y,attitude.z,attitudeTarget.x,attitudeTarget.y,attitudeTarget.z,thrustTarget,battery_v,rc_roll,rc_pitch,rc_yaw,rc_throttle,rc_mode,flight_mode,rc_age_s,armed,fault_mask,motor_rl,motor_rr,motor_fr,motor_fl,rate_i_x,rate_i_y,rate_i_z,mix_scale,control_source,accel_correction_confidence
151.884,0.001014,-0.01171875,0.06054688,0.015625,0.546875,-0.5,7.859375,0.005859375,-0.001953125,0.001953125,0.009765625,0.07617188,0,-0.001586914,-0.01269531,-0.04064941,0,0,-0.02294922,0.3105164,4.009,0,0,0,0.2999878,nan,4,7.675,1,0,0.3668213,0.2973022,0.3016052,0.2763672,0.01074219,0.02148438,0,1,3,0
151.895,0.001064,-0.05664062,0.06835938,0,0.1640625,3.8125,13.32031,-0.04296875,0.04492188,0.001953125,0.01171875,0.07617188,0,-0.001831055,-0.01281738,-0.04052734,0,0,-0.02294922,0.3105164,4.009,0,0,0,0.2999878,nan,4,7.685,1,0,0.3405151,0.3069153,0.2773132,0.3173523,0.01074219,0.02148438,0,1,3,0
151.905,0.001063,-0.04101562,0.04296875,0.001953125,-2.554688,1.015625,12.82812,-0.0390625,0.01953125,0.001953125,0.01171875,0.07617188,0,-0.002075195,-0.01281738,-0.04052734,0,0,-0.02294922,0.3105164,4.009,0,0,0,0.2999878,nan,4,7.695,1,0,0.3427124,0.3199768,0.2679749,0.3114319,0.01074219,0.02148438,0,1,3,0
151.915,0.001053,0.02539062,-0.009765625,0.005859375,0.71875,-4.023438,6.546875,0.005859375,0.01953125,-0.001953125,0.01367188,0.07617188,0,-0.002197266,-0.01257324,-0.04052734,0,0,-0.02294922,0.3105164,4.009,0,0,0,0.2999878,nan,4,7.705,1,0,0.3452759,0.3259888,0.2796021,0.2912292,0.01074219,0.02148438,0,1,3,0
151.925,0.001008,0.03515625,-0.02929688,0,0.7734375,2.539062,9.140625,-0.01757812,-0.00390625,-0.00390625,0.015625,0.07421875,0,-0.002441406,-0.0123291,-0.04064941,0,0,-0.02294922,0.3105164,4.009,0,0,0,0.2999878,nan,4,7.715,1,0,0.3547058,0.3288269,0.2705994,0.2879639,0.01074219,0.02148438,0,1,3,0.2539683
151.934,0.001031,0.02734375,0.04492188,0.001953125,-0.4296875,3.835938,13.92969,0.03125,-0.01953125,0,0.01367188,0.078125,0,-0.002075195,-0.01293945,-0.04064941,0,0,-0.02294922,0.3105164,4.009,0,0,0,0.2999878,nan,4,7.724,1,0,0.3447571,0.3197327,0.283905,0.2937012,0.01074219,0.02148438,0,1,3,0
151.944,0.001003,-0.01367188,0.0234375,0,-1.195312,-4.523438,10.36719,0.005859375,-0.009765625,0.005859375,0.01367188,0.078125,0,-0.002197266,-0.01318359,-0.04064941,0,0,-0.02294922,0.3105164,4.009,0,0,0,0.2999878,nan,4,7.735,1,0,0.357605,0.3102417,0.2906494,0.2836304,0.01074219,0.02148438,0,1,3,0
151.954,0.001039,0.05664062,-0.0078125,0.01367188,2.515625,-1.179688,6.4375,0.03125,0.01367188,0.00390625,0.01367188,0.078125,0,-0.002197266,-0.01306152,-0.04064941,0,0,-0.02294922,0.3105164,4.009,0,0,0,0.2999878,nan,4,7.745,1,0,0.3517456,0.3174438,0.2944336,0.2784729,0.01074219,0.02148438,0,1,3,0
151.964,0.001008,-0.01367188,-0.04296875,-0.02148438,-0.25,4.015625,11.8125,-0.02929688,-0.01171875,-0.01757812,0.01171875,0.08007812,0,-0.002075195,-0.01318359,-0.04064941,0,0,-0.02294922,0.3105164,4.009,0,0,0,0.2999878,nan,4,7.755,1,0,0.3302307,0.3457642,0.2380981,0.3280029,0.01074219,0.02148438,0,1,3,0
151.974,0.001013,0.02929688,-0.1523438,0.015625,-1.367188,-2.921875,9.59375,0.009765625,-0.05664062,0.005859375,0.01171875,0.078125,0,-0.001953125,-0.01318359,-0.04077148,0,0,-0.02294922,0.3105164,4.009,0,0,0,0.2999878,nan,4,7.765,1,0,0.3847046,0.3205261,0.2781677,0.258728,0.01074219,0.02148438,0,1,3,0.2380952
151.984,0.001013,0.09375,0.009765625,0.015625,2.421875,0.59375,6.351562,0.01171875,-0.00390625,0.009765625,0.01171875,0.08007812,0,-0.001953125,-0.01330566,-0.04077148,0,0,-0.02294922,0.3105164,4.009,0,0,0,0.2999878,nan,4,7.775,1,0,0.3637085,0.3097534,0.2965393,0.2721252,0.01074219,0.02246094,0,1,3,0
151.994,0.001013,0.03320312,-0.01953125,-0.01171875,0.4375,5.273438,12.59375,0.015625,0,-0.0078125,0.009765625,0.08007812,0,-0.001708984,-0.01330566,-0.04064941,0,0,-0.02294922,0.3105164,4.009,0,0,0,0.2999878,nan,4,7.785,1,0,0.3251953,0.3500671,0.2474365,0.319397,0.01074219,0.02246094,0,1,3,0
152.005,0.001013,-0.1386719,0.0234375,-0.0546875,-1.804688,-3.25,9.101562,-0.02929688,0.00390625,-0.02734375,0.009765625,0.08007812,0,-0.001464844,-0.01318359,-0.04077148,0,0,-0.02294922,0.3105164,4.009,0,0,0,0.2999878,nan,4,7.795,1,0,0.3141174,0.3599243,0.2132874,0.3547668,0.01074219,0.02246094,0,1,3,0.2539683
152.015,0.001013,-0.1386719,-0.001953125,-0.001953125,1.1875,-2.242188,7.492188,-0.02929688,-0.01171875,-0.01367188,0.009765625,0.08007812,0,-0.001708984,-0.01330566,-0.04101562,0,0,-0.02294922,0.3105164,4.009,0,0,0,0.2999878,nan,4,7.805,1,0,0.3631287,0.3144836,0.2711792,0.2933044,0.01074219,0.02246094,0,1,3,0
152.025,0.001013,0.03515625,0.08203125,0.01953125,-0.3515625,4.570312,15.09375,0.01757812,0.01171875,0.01757812,0.01171875,0.08007812,0,-0.001831055,-0.01342773,-0.04089355,0,0,-0.02294922,0.3105164,4.009,0,0,0,0.2999878,nan,4,7.815,1,0,0.3659058,0.2966309,0.3132629,0.2663269,0.01074219,0.02246094,0,1,3,0
152.035,0.001013,0.046875,0.09960938,-0.01757812,-1.5,0.296875,13.09375,0.0234375,0.03710938,-0.009765625,0.01171875,0.08007812,0,-0.001831055,-0.01330566,-0.04089355,0,0,-0.02294922,0.3105164,4.009,0,0,0,0.2999878,nan,4,7.825,1,0,0.3102112,0.3507996,0.259613,0.3214722,0.01074219,0.02246094,0,1,3,0
152.044,0.001024,0.08398438,0.04492188,-0.01367188,-1.367188,-6.054688,8.835938,0.03125,0.02929688,-0.01953125,0.009765625,0.078125,0,-0.001708984,-0.01293945,-0.04101562,0,0,-0.02294922,0.3105164,4.009,0,0,0,0.2999878,nan,4,7.835,1,0,0.3276367,0.3417664,0.2685852,0.3041382,0.01074219,0.02246094,0,1,3,0
152.054,0.00102,-0.05859375,0.04492188,-0.02929688,2.414062,0.1796875,5.539062,0.01367188,0.0234375,-0.02734375,0.009765625,0.07617188,0,-0.001464844,-0.01281738,-0.04138184,0,0,-0.02294922,0.3105164,4.009,0,0,0,0.2999878,nan,4,7.845,1,0,0.3388672,0.3301697,0.2665405,0.3065186,0.01074219,0.02246094,0,1,3,0
152.064,0.000999,-0.01953125,0.01757812,0.02929688,-1.304688,4.984375,14.40625,-0.009765625,-0.03515625,0.01367188,0.0078125,0.078125,0,-0.001464844,-0.01293945,-0.04138184,0,0,-0.02294922,0.3105164,4.009,0,0,0,0.2999878,nan,4,7.855,1,0,0.3945007,0.2897034,0.2991943,0.258728,0.01074219,0.02246094,0,1,3,0
152.074,0.001005,0.02734375,-0.03515625,0.001953125,-1.296875,-2.085938,10.35938,0.03515625,0.01171875,0.009765625,0.0078125,0.078125,0,-0.001220703,-0.01306152,-0.0411377,0,0,-0.02294922,0.3105164,4.009,0,0,0,0.2999878,nan,4,7.865,1,0,0.3327942,0.335907,0.2698364,0.3035889,0.01074219,0.02246094,0,1,3,0
152.084,0.000977,0.0234375,0.03515625,-0.00390625,1.53125,0.734375,8.765625,0.03320312,0,-0.0078125,0.005859375,0.078125,0,-0.0009765625,-0.01306152,-0.04125977,0,0,-0.02294922,0.3105164,4.009,0,0,0,0.2999878,nan,4,7.875,1,0,0.3422241,0.3333435,0.271759,0.2947693,0.01074219,0.02246094,0,1,3,0
152.094,0.001021,-0.04101562,0.03515625,-0.02929688,-1.476562,3.609375,13.70312,0,-0.005859375,-0.01757812,0.00390625,0.078125,0,-0.0008544922,-0.01318359,-0.04138184,0,0,-0.02294922,0.3105164,4.009,0,0,0,0.2999878,nan,4,7.885,1,0,0.3357849,0.335144,0.2568665,0.3143311,0.01074219,0.02246094,0,1,3,0
152.105,0.00098,-0.03515625,0.00390625,0.005859375,-1.234375,-4.664062,10.4375,-0.04492188,0.03320312,0.00390625,0.0078125,0.07617188,0,-0.001342773,-0.01269531,-0.04150391,0,0,-0.02294922,0.3105164,4.009,0,0,0,0.2999878,nan,4,7.895,1,0,0.3786011,0.2959595,0.2981262,0.2694397,0.01074219,0.02246094,0,1,3,0
152.115,0.001023,-0.03710938,0,-0.00390625,2.203125,-0.484375,5.492188,-0.01757812,0.02734375,0.001953125,0.009765625,0.07421875,0,-0.001464844,-0.01245117,-0.04150391,0,0,-0.02294922,0.3105164,4.009,0,0,0,0.2999878,nan,4,7.905,1,0,0.3479309,0.3274841,0.2674255,0.2992554,0.01074219,0.02246094,0,1,3,0
152.124,0.001007,-0.02148438,-0.02929688,-0.02734375,2.117188,2.195312,9.4375,-0.0078125,0.00390625,-0.01367188,0.009765625,0.07421875,0,-0.001586914,-0.01220703,-0.04150391,0,0,-0.02294922,0.3105164,4.009,0,0,0,0.2999878,nan,4,7.914,1,0,0.3287048,0.354248,0.2446899,0.3144836,0.01074219,0.0234375,0,1,3,0.4920635
152.134,0.001005,-0.0078125,0.005859375,-0.009765625,-2.695312,3.742188,12.94531,-0.01953125,0.02148438,-0.009765625,0.009765625,0.07226562,0,-0.001708984,-0.01208496,-0.04162598,0,0,-0.02294922,0.3105164,4.009,0,0,0,0.2999878,nan,4,7.924,1,0,0.349884,0.322998,0.2707214,0.2984924,0.01074219,0.0234375,0,1,3,0
152.144,0.000999,-0.05078125,-0.06640625,-0.001953125,0.1015625,-4.960938,8.195312,-0.01757812,-0.02929688,-0.00390625,0.009765625,0.07421875,0,-0.001586914,-0.01220703,-0.04162598,0,0,-0.02294922,0.3105164,4.009,0,0,0,0.2999878,nan,4,7.935,1,0,0.3607483,0.3262329,0.2570801,0.2980652,0.01074219,0.0234375,0,1,3,0.07936508
152.154,0.001024,-0.03515625,-0.001953125,0,1.273438,0.84375,5.203125,-0.02929688,-0.01757812,0.00390625,0.01171875,0.07421875,0,-0.001831055,-0.01245117,-0.04162598,0,0,-0.02294922,0.3105164,4.009,0,0,0,0.2999878,nan,4,7.945,1,0,0.359436,0.3193665,0.2701416,0.2931519,0.01074219,0.0234375,0,1,3,0
152.164,0.001008,-0.00390625,-0.00390625,0.01367188,0.359375,5.484375,13.71094,-0.03320312,-0.005859375,0.005859375,0.01367188,0.07421875,0,-0.002197266,-0.01245117,-0.04162598,0,0,-0.02294922,0.3105164,4.009,0,0,0,0.2999878,nan,4,7.955,1,0,0.3605347,0.3184509,0.2758789,0.287262,0.01074219,0.0234375,0,1,3,0
152.174,0.001018,0.0390625,-0.08398438,-0.01171875,-3,-3.039062,8.609375,0.02148438,0.0078125,-0.001953125,0.01367188,0.07226562,0,-0.002197266,-0.01208496,-0.04162598,0,0,-0.02294922,0.3105164,4.009,0,0,0,0.2999878,nan,4,7.965,1,0,0.3352051,0.3493347,0.2604675,0.2971191,0.01074219,0.0234375,0,1,3,0.3809524
152.184,0.001017,-0.04882812,-0.1347656,-0.005859375,2.585938,0.125,8.59375,-0.02539062,-0.046875,-0.01171875,0.01367188,0.07226562,0,-0.002319336,-0.01220703,-0.04174805,0,0,-0.02294922,0.3105164,4.009,0,0,0,0.2999878,nan,4,7.975,1,0,0.36203,0.3384399,0.2492676,0.2923889,0.01074219,0.0234375,0,1,3,0
152.194,0.001019,0.001953125,-0.06640625,0.01757812,-1.609375,4.851562,12.23438,-0.01367188,-0.05078125,0.01171875,0.015625,0.07617188,0,-0.002441406,-0.01257324,-0.04162598,0,0,-0.02294922,0.3105164,4.009,0,0,0,0.2999878,nan,4,7.985,1,0,0.3739929,0.3171082,0.2792053,0.2717896,0.01074219,0.0234375,0,1,3,0
152.205,0.001018,0.03710938,0.00390625,0.02539062,-1.203125,-3.273438,11.01562,0.02929688,-0.009765625,0.01757812,0.01367188,0.07617188,0,-0.002319336,-0.01281738,-0.04150391,0,0,-0.02294922,0.3105164,4.009,0,0,0,0.2999878,nan,4,7.995,1,0,0.3517151,0.3210754,0.2853394,0.2839661,0.01074219,0.0234375,0,1,3,0
152.215,0.000982,0.05664062,-0.07226562,0.0078125,0.28125,-3.53125,4.765625,0.005859375,-0.01757812,0.01171875,0.01367188,0.07617188,0,-0.002197266,-0.01281738,-0.04138184,0,0,-0.02294922,0.3105164,4.009,0,0,0,0.2999878,nan,4,8.005,1,0,0.3534241,0.333252,0.2645874,0.2908325,0.01074219,0.0234375,0,1,3,0
152.224,0.001009,0.03515625,-0.04101562,-0.02929688,2.21875,1.460938,9.109375,0.01757812,-0.03710938,-0.01757812,0.01171875,0.078125,0,-0.002075195,-0.01306152,-0.04138184,0,0,-0.02294922,0.3105164,4.009,0,0,0,0.2999878,nan,4,8.014,1,0,0.3179626,0.369873,0.2310791,0.3231506,0.01074219,0.0234375,0,1,3,0.0952381
152.235,0.001038,0.03515625,-0.07226562,-0.001953125,-2.523438,2.085938,12.16406,0.009765625,-0.046875,-0.009765625,0.01171875,0.08007812,0,-0.002075195,-0.01330566,-0.04150391,0,0,-0.02294922,0.3105164,4.009,0,0,0,0.2999878,nan,4,8.025,1,0,0.3607788,0.3362427,0.26828,0.276825,0.01074219,0.0234375,0,1,3,0
152.244,0.001001,0.01171875,-0.0625,0.015625,0.046875,-5.570312,7.859375,0,-0.01953125,0,0.01171875,0.08007812,0,-0.002075195,-0.01330566,-0.04150391,0,0,-0.02294922,0.3105164,4.009,0,0,0,0.2999878,nan,4,8.035,1,0,0.3669434,0.3200989,0.2784119,0.2766418,0.01074219,0.02441406,0,1,3,0.4761905
152.254,0.000997,-0.009765625,0.03710938,-0.03320312,2.039062,0.8828125,9.0625,0.0234375,0.01367188,-0.005859375,0.01171875,0.08007812,0,-0.002075195,-0.01330566,-0.04150391,0,0,-0.02294922,0.3105164,4.009,0,0,0,0.2999878,nan,4,8.045,1,0,0.3182068,0.3514709,0.2557983,0.3166199,0.01074219,0.02441406,0,1,3,0.01587302
152.264,0.000969,0.009765625,0.001953125,0,-1.757812,3.726562,14.57031,0,0.01171875,-0.0078125,0.01171875,0.08007812,0,-0.002075195,-0.01318359,-0.04162598,0,0,-0.02294922,0.3105164,4.009,0,0,0,0.2999878,nan,4,8.055,1,0,0.3510132,0.3249207,0.2723694,0.2937927,0.01074219,0.02441406,0,1,3,0
152.274,0.001006,0.009765625,0.1484375,-0.001953125,-0.15625,-4.6875,8.867188,0.00390625,0.05273438,-0.0078125,0.01171875,0.078125,0,-0.002075195,-0.01293945,-0.04174805,0,0,-0.02294922,0.3105164,4.009,0,0,0,0.2999878,nan,4,8.065,1,0,0.3446045,0.3136597,0.2844849,0.2993469,0.01074219,0.02441406,0,1,3,0.04761905
152.284,0.001035,0.03125,-0.03125,0.00390625,0.5625,4.632812,11.5625,0.0078125,0.01171875,-0.005859375,0.01171875,0.07421875,0,-0.001953125,-0.01245117,-0.04187012,0,0,-0.02294922,0.3105164,4.009,0,0,0,0.2999878,nan,4,8.075,1,0,0.3655701,0.3245544,0.2739563,0.2780151,0.01074219,0.02441406,0,1,3,0
152.295,0.001024,-0.02148438,-0.05664062,0.01367188,-0.8515625,-2.25,9.15625,-0.01757812,0,0.009765625,0.01171875,0.07421875,0,-0.001953125,-0.01220703,-0.04174805,0,0,-0.02294922,0.3105164,4.009,0,0,0,0.2999878,nan,4,8.085,1,0,0.3690796,0.3191833,0.2706909,0.2831421,0.01074219,0.02441406,0,1,3,0.04761905
152.305,0.001033,0.015625,-0.0703125,-0.001953125,0.34375,-4,4.476562,-0.01953125,-0.009765625,-0.01367188,0.01171875,0.07226562,0,-0.001953125,-0.01208496,-0.04174805,0,0,-0.02294922,0.3105164,4.009,0,0,0,0.2999878,nan,4,8.095,1,0,0.3413086,0.347229,0.2389832,0.3145447,0.01074219,0.02441406,0,1,3,0
152.315,0.001086,0.0703125,0.04296875,-0.03125,0.828125,4.828125,12.42969,0.03125,0,-0.02539062,0.009765625,0.07421875,0,-0.001831055,-0.01245117,-0.04187012,0,0,-0.02294922,0.3105164,4.009,0,0,0,0.2999878,nan,4,8.105,1,0,0.3097534,0.3623657,0.2488403,0.3211365,0.01074219,0.02441406,0,1,3,0
152.325,0.001019,0.02734375,0.046875,0.005859375,-1.898438,-2.0625,10.14844,0.001953125,0,-0.001953125,0.01171875,0.07421875,0,-0.001831055,-0.01245117,-0.04199219,0,0,-0.02294922,0.3105164,4.009,0,0,0,0.2999878,nan,4,8.115,1,0,0.3635864,0.315155,0.2844849,0.2788696,0.01074219,0.02441406,0,1,3,0
152.334,0.001041,-0.046875,0.1386719,0.015625,0.7265625,-5.890625,8.4375,-0.01953125,0.05859375,0.0078125,0.01171875,0.07226562,0,-0.001831055,-0.01220703,-0.04199219,0,0,-0.02294922,0.3105164,4.009,0,0,0,0.2999878,nan,4,8.124,1,0,0.3578491,0.298584,0.290741,0.2949219,0.01074219,0.02441406,0,1,3,0
152.344,0.001002,-0.02539062,0.00390625,0.0078125,0.9921875,1.46875,9.921875,0,-0.001953125,0.009765625,0.01171875,0.07226562,0,-0.001831055,-0.01196289,-0.04187012,0,0,-0.02294922,0.3105164,4.009,0,0,0,0.2999878,nan,4,8.135,1,0,0.3561401,0.3294678,0.2658081,0.2906799,0.01074219,0.02441406,0,1,3,0.1111111
152.354,0.00102,0.02929688,0.046875,-0.009765625,-1.101562,4.859375,15.64844,0.03320312,0.0078125,0.00390625,0.009765625,0.07226562,0,-0.001831055,-0.01184082,-0.04174805,0,0,-0.02294922,0.3105164,4.009,0,0,0,0.2999878,nan,4,8.145,1,0,0.3339233,0.3416748,0.2676392,0.2988892,0.01074219,0.02441406,0,1,3,0
152.364,0.001,0.07421875,0.05273438,0.01367188,0.1484375,-5.851562,8.664062,0.01171875,0.04882812,0.001953125,0.01171875,0.06835938,0,-0.001953125,-0.01159668,-0.04187012,0,0,-0.02294922,0.3105164,4.009,0,0,0,0.2999878,nan,4,8.155,1,0,0.3495178,0.3156433,0.2944641,0.2824707,0.01074219,0.02441406,0,1,3,0
152.374,0.001012,-0.078125,-0.02929688,-0.01757812,1.601562,0.7265625,8.03125,-0.04492188,-0.02148438,-0.005859375,0.01171875,0.06835938,0,-0.001953125,-0.01147461,-0.04187012,0,0,-0.02294922,0.3105164,4.009,0,0,0,0.2999878,nan,4,8.165,1,0,0.3521423,0.3360901,0.2413025,0.3125305,0.01074219,0.02441406,0,1,3,0
152.384,0.001038,0.0390625,0.00390625,0.02734375,-2.195312,0.3046875,12.45312,0.001953125,-0.01367188,0.01953125,0.01367188,0.0703125,0,-0.002197266,-0.01171875,-0.04174805,0,0,-0.02294922,0.3105164,4.009,0,0,0,0.2999878,nan,4,8.175,1,0,0.3746643,0.3036194,0.2983093,0.2655334,0.01074219,0.02441406,0,1,3,0
152.394,0.001009,0.07226562,-0.04101562,0,0.171875,-3.351562,6.734375,0.02929688,-0.00390625,0.005859375,0.01171875,0.0703125,0,-0.002075195,-0.01184082,-0.04162598,0,0,-0.02294922,0.3105164,4.009,0,0,0,0.2999878,nan,4,8.185,1,0,0.3432922,0.3372192,0.2743225,0.2872925,0.01074219,0.02539062,0,1,3,0
152.405,0.001007,0.07617188,0.02148438,-0.02148438,1.492188,3.164062,11.21875,0.015625,-0.0078125,-0.01367188,0.01171875,0.07226562,0,-0.002075195,-0.01208496,-0.04174805,0,0,-0.02294922,0.3105164,4.009,0,0,0,0.2999878,nan,4,8.195,1,0,0.3326721,0.3430481,0.2628174,0.3035583,0.01074219,0.02539062,0,1,3,0
152.415,0.001007,-0.01367188,-0.01953125,-0.02148438,-2.421875,0.390625,10.90625,-0.01171875,0.04882812,-0.01367188,0.01171875,0.0703125,0,-0.002075195,-0.01184082,-0.04187012,0,0,-0.02294922,0.3105164,4.009,0,0,0,0.2999878,nan,4,8.205,1,0,0.3345947,0.3285217,0.267334,0.311615,0.01074219,0.02539062,0,1,3,0
152.425,0.001007,0.001953125,0.03320312,0.0078125,0.9375,-4.101562,4.90625,0.0078125,0.02539062,0.001953125,0.01171875,0.06835938,0,-0.002075195,-0.01123047,-0.04199219,0,0,-0.02294922,0.3105164,4.009,0,0,0,0.2999878,nan,4,8.215,1,0,0.3739319,0.3126221,0.2868347,0.2687073,0.01074219,0.02539062,0,1,3,0
152.435,0.001007,-0.015625,-0.009765625,-0.00390625,0.9375,5.375,11.04688,-0.02148438,0.01367188,0.00390625,0.01367188,0.06640625,0,-0.002075195,-0.01098633,-0.04187012,0,0,-0.02294922,0.3105164,4.009,0,0,0,0.2999878,nan,4,8.225,1,0,0.3465576,0.3380432,0.2511597,0.3063354,0.01074219,0.02539062,0,1,3,0
152.444,0.001027,-0.009765625,0.04882812,-0.0234375,-0.7890625,5,13.92188,0.005859375,0.01367188,-0.01367188,0.01367188,0.06640625,0,-0.002319336,-0.01098633,-0.04187012,0,0,-0.02294922,0.3105164,4.009,0,0,0,0.2999878,nan,4,8.235,1,0,0.3252869,0.349823,0.2537537,0.3132324,0.01171875,0.02539062,0,1,3,0
152.454,0.001025,0.02148438,0.1054688,-0.00390625,-0.5390625,-7.398438,7.171875,0.00390625,0.04296875,-0.005859375,0.01367188,0.06445312,0,-0.002319336,-0.01074219,-0.04199219,0,0,-0.02294922,0.3105164,4.009,0,0,0,0.2999878,nan,4,8.245,1,0,0.3460693,0.3177185,0.2819214,0.2963867,0.01171875,0.02539062,0,1,3,0
152.464,0.001026,0.0625,0.2011719,-0.02148438,2.75,0.28125,9.3125,0.03125,0.03710938,-0.01171875,0.01367188,0.06445312,0,-0.002197266,-0.01062012,-0.04211426,0,0,-0.02294922,0.3105164,4.009,0,0,0,0.2999878,nan,4,8.255,1,0,0.3190308,0.3363647,0.2722778,0.3144226,0.01171875,0.02539062,0,1,3,0.3809524
152.474,0.001013,-0.03320312,0.00390625,0.01171875,-1.78125,5.179688,14.86719,-0.005859375,0.01953125,0.00390625,0.01171875,0.0625,0,-0.002075195,-0.01049805,-0.04211426,0,0,-0.02294922,0.3105164,4.009,0,0,0,0.2999878,nan,4,8.265,1,0,0.3655396,0.3086548,0.2795715,0.2883606,0.01171875,0.02539062,0,1,3,0
152.484,0.001013,0.04492188,0,-0.01367188,1.210938,-5.242188,7.804688,0.03710938,-0.005859375,0.00390625,0.009765625,0.0625,0,-0.001831055,-0.01049805,-0.04199219,0,0,-0.02294922,0.3105164,4.009,0,0,0,0.2999878,nan,4,8.275,1,0,0.3358765,0.3434143,0.2632751,0.2994995,0.01171875,0.02539062,0,1,3,0.2698413
152.494,0.001013,-0.04882812,-0.1835938,0.00390625,0.9140625,1.5,9.328125,-0.05078125,-0.0625,-0.015625,0.01171875,0.06445312,0,-0.002075195,-0.01062012,-0.04211426,0,0,-0.02294922,0.3105164,4.009,0,0,0,0.2999878,nan,4,8.285,1,0,0.374939,0.3341675,0.2469177,0.2861023,0.01171875,0.02539062,0,1,3,0.2222222
152.504,0.000966,0.01953125,-0.00390625,-0.009765625,-2.109375,1.742188,15.66406,0.0234375,-0.05664062,-0.0078125,0.01171875,0.06835938,0,-0.001831055,-0.01147461,-0.04223633,0,0,-0.02294922,0.3105164,4.009,0,0,0,0.2999878,nan,4,8.295,1,0,0.3518677,0.3304138,0.2700806,0.2897644,0.01171875,0.02539062,0,1,3,0
152.515,0.001023,-0.05273438,0.05078125,0.00390625,0.625,-3.960938,6.164062,-0.02929688,0.009765625,0.001953125,0.01171875,0.0703125,0,-0.001953125,-0.01184082,-0.0423584,0,0,-0.02294922,0.3105164,4.009,0,0,0,0.2999878,nan,4,8.305,1,0,0.3588562,0.3022156,0.2804871,0.3005676,0.01171875,0.02539062,0,1,3,0
152.525,0.001013,-0.06640625,-0.01757812,-0.00390625,1.898438,3.375,9.1875,-0.001953125,0,0.005859375,0.01171875,0.0703125,0,-0.001831055,-0.01171875,-0.04223633,0,0,-0.02294922,0.3105164,4.009,0,0,0,0.2999878,nan,4,8.315,1,0,0.3536072,0.3297729,0.2635803,0.295166,0.01171875,0.02539062,0,1,3,0.2857143
152.535,0.001072,-0.0859375,-0.02539062,-0.04882812,-2.601562,2.335938,13.78906,0.0078125,-0.0078125,-0.015625,0.009765625,0.0703125,0,-0.001831055,-0.01184082,-0.04223633,0,0,-0.02294922,0.3105164,4.009,0,0,0,0.2999878,nan,4,8.325,1,0,0.3119507,0.3727722,0.2214355,0.335907,0.01171875,0.02636719,0,1,3,0
152.544,0.00101,-0.05273438,0.02929688,-0.015625,-1.03125,-6.992188,6.96875,-0.03125,0.03710938,-0.009765625,0.01171875,0.0703125,0,-0.002075195,-0.01171875,-0.04223633,0,0,-0.02294922,0.3105164,4.009,0,0,0,0.2999878,nan,4,8.334,1,0,0.3419495,0.3216248,0.2644958,0.3140564,0.01171875,0.02636719,0,1,3,0.6349207
152.554,0.000999,0.02539062,-0.01171875,0.01367188,2.28125,0.734375,8.890625,-0.03125,0.01171875,0,0.01367188,0.06835938,0,-0.002197266,-0.01147461,-0.0423584,0,0,-0.02294922,0.3105164,4.009,0,0,0,0.2999878,nan,4,8.345,1,0,0.3670349,0.3158264,0.2744446,0.28479,0.01171875,0.02636719,0,1,3,0
152.564,0.000999,-0.06640625,0.05273438,0.01171875,-1.601562,5.28125,12.92188,-0.009765625,-0.015625,0.0078125,0.01367188,0.0703125,0,-0.002197266,-0.01159668,-0.04223633,0,0,-0.02294922,0.3105164,4.009,0,0,0,0.2999878,nan,4,8.355,1,0,0.3626099,0.3217468,0.2677002,0.2900696,0.01171875,0.02636719,0,1,3,0
152.574,0.001007,0.08203125,0.02734375,0.009765625,-0.0625,-6.617188,9.734375,0.01953125,0.01171875,0.01171875,0.01367188,0.06835938,0,-0.002197266,-0.01147461,-0.04211426,0,0,-0.02294922,0.3105164,4.009,0,0,0,0.2999878,nan,4,8.365,1,0,0.3482971,0.3294373,0.2778931,0.286499,0.01171875,0.02636719,0,1,3,0
152.584,0.001007,-0.1210938,0.01367188,-0.001953125,1.226562,2.921875,9.515625,-0.03710938,0.015625,-0.0078125,0.01367188,0.06835938,0,-0.002197266,-0.01135254,-0.04223633,0,0,-0.02294922,0.3105164,4.009,0,0,0,0.2999878,nan,4,8.375,1,0,0.3513794,0.3254089,0.2554321,0.3098755,0.01171875,0.02636719,0,1,3,0.2063492
152.594,0.001007,-0.02734375,0.1640625,-0.005859375,-1.34375,0.453125,14.28906,-0.04101562,0.03320312,-0.0078125,0.015625,0.06835938,0,-0.002441406,-0.01135254,-0.04223633,0,0,-0.02294922,0.3105164,4.009,0,0,0,0.2999878,nan,4,8.385,1,0,0.3484497,0.3145142,0.2697449,0.3094177,0.01171875,0.02636719,0,1,3,0
152.604,0.001007,-0.07617188,-0.0078125,0.00390625,0.84375,-2.5625,4.671875,-0.01171875,-0.01953125,0.001953125,0.015625,0.06835938,0,-0.002685547,-0.01135254,-0.04223633,0,0,-0.02294922,0.3105164,4.009,0,0,0,0.2999878,nan,4,8.395,1,0,0.3667603,0.3214417,0.2732544,0.2806091,0.01171875,0.02636719,0,1,3,0
152.615,0.001007,-0.0390625,0.01171875,0,0.6171875,4.898438,13.625,-0.00390625,-0.01367188,0.009765625,0.015625,0.0703125,0,-0.002685547,-0.01159668,-0.04223633,0,0,-0.02294922,0.3105164,4.009,0,0,0,0.2999878,nan,4,8.405,1,0,0.3630066,0.3200989,0.2737427,0.2852478,0.01171875,0.02636719,0,1,3,0
152.625,0.001007,-0.03125,-0.01171875,-0.02734375,-2.125,-4.09375,8.484375,0.0078125,0.01367188,-0.01367188,0.015625,0.0703125,0,-0.002685547,-0.01159668,-0.04223633,0,0,-0.02294922,0.3105164,4.009,0,0,0,0.2999878,nan,4,8.415,1,0,0.3204041,0.3554688,0.2420654,0.3241577,0.01171875,0.02636719,0,1,3,0.4444444
152.634,0.001054,0.02734375,-0.125,-0.01953125,1.0625,-3.359375,7.09375,0.01953125,-0.02929688,-0.0078125,0.015625,0.0703125,0,-0.002685547,-0.01159668,-0.04223633,0,0,-0.02294922,0.3105164,4.009,0,0,0,0.2999878,nan,4,8.424,1,0,0.3502808,0.3451538,0.2555847,0.2910767,0.01171875,0.02636719,0,1,3,0
152.644,0.001025,0.0859375,0.1503906,0.001953125,0.625,5.234375,11.21875,0.02929688,0.03515625,-0.005859375,0.015625,0.0703125,0,-0.002441406,-0.01171875,-0.0423584,0,0,-0.02294922,0.3105164,4.009,0,0,0,0.2999878,nan,4,8.434,1,0,0.3399658,0.3229675,0.2854919,0.2937012,0.01171875,0.02636719,0,1,3,0
152.654,0.001021,-0.02148438,-0.1289062,0.00390625,-1.125,-3.265625,9.789062,0.01367188,-0.046875,0.00390625,0.01367188,0.06835938,0,-0.002197266,-0.01147461,-0.0423584,0,0,-0.02294922,0.3105164,4.009,0,0,0,0.2999878,nan,4,8.445,1,0,0.3765259,0.335907,0.2584229,0.2712708,0.01171875,0.02636719,0,1,3,0
152.664,0.001022,0.08007812,0.02929688,0.001953125,1.320312,-2.132812,6.921875,0.02148438,0.009765625,0.005859375,0.01367188,0.0703125,0,-0.002197266,-0.01159668,-0.04223633,0,0,-0.02294922,0.3105164,4.009,0,0,0,0.2999878,nan,4,8.455,1,0,0.3457031,0.3313599,0.2740173,0.2910767,0.01171875,0.02636719,0,1,3,0
152.674,0.000982,0.03125,0.015625,0.009765625,-0.4765625,5.140625,12.75781,0.005859375,-0.00390625,-0.001953125,0.01367188,0.06835938,0,-0.002197266,-0.01147461,-0.0423584,0,0,-0.02294922,0.3105164,4.009,0,0,0,0.2999878,nan,4,8.465,1,0,0.3574219,0.3282166,0.2721558,0.2843323,0.01171875,0.02734375,0,1,3,0
152.684,0.001028,0.01171875,0.04492188,0.001953125,0.453125,-4.867188,5.734375,-0.001953125,0.01757812,-0.00390625,0.01367188,0.06835938,0,-0.002197266,-0.01147461,-0.0423584,0,0,-0.02294922,0.3105164,4.009,0,0,0,0.2999878,nan,4,8.475,1,0,0.3519592,0.324646,0.2714233,0.2940979,0.01171875,0.02734375,0,1,3,0
152.694,0.000973,-0.0390625,-0.06835938,0,0.7578125,3.21875,10.39844,-0.01367188,-0.01757812,0.001953125,0.01367188,0.06835938,0,-0.002319336,-0.01135254,-0.0423584,0,0,-0.02294922,0.3105164,4.009,0,0,0,0.2999878,nan,4,8.485,1,0,0.3683472,0.3250732,0.2661743,0.2825317,0.01171875,0.02734375,0,1,3,0
152.704,0.001013,0.009765625,-0.1191406,0.0078125,-1.710938,0.578125,11.92969,-0.009765625,-0.001953125,0.01367188,0.015625,0.06835938,0,-0.002685547,-0.01123047,-0.04223633,0,0,-0.02294922,0.3105164,4.009,0,0,0,0.2999878,nan,4,8.495,1,0,0.3676758,0.3251953,0.2762146,0.2730408,0.01171875,0.02734375,0,1,3,0
152.715,0.000989,0.03125,0.01953125,-0.00390625,-0.4609375,-4.585938,6.1875,0.0234375,0.04101562,0.0078125,0.015625,0.06640625,0,-0.002563477,-0.0111084,-0.04223633,0,0,-0.02294922,0.3105164,4.009,0,0,0,0.2999878,nan,4,8.505,1,0,0.3372192,0.3318787,0.2740784,0.2989502,0.01171875,0.02734375,0,1,3,0
152.725,0.001075,-0.08203125,0.009765625,-0.02539062,1.476562,3.617188,10.8125,-0.01757812,0.0078125,-0.009765625,0.015625,0.06640625,0,-0.002563477,-0.01098633,-0.04211426,0,0,-0.02294922,0.3105164,4.009,0,0,0,0.2999878,nan,4,8.515,1,0,0.3358459,0.3483582,0.2364502,0.3214111,0.01171875,0.02734375,0,1,3,0
152.735,0.001013,-0.09179688,0.06835938,-0.02539062,-2.78125,0.3125,12.95312,-0.02148438,0.02148438,-0.01171875,0.015625,0.06445312,0,-0.002685547,-0.01086426,-0.04223633,0,0,-0.02294922,0.3105164,4.009,0,0,0,0.2999878,nan,4,8.525,1,0,0.3382263,0.3388977,0.2474365,0.3175354,0.01171875,0.02734375,0,1,3,0
152.744,0.001015,0.06445312,-0.04296875,0.0078125,-0.2265625,-5.75,6.09375,0.009765625,0.03515625,-0.0078125,0.01757812,0.0625,0,-0.002807617,-0.01049805,-0.0423584,0,0,-0.02294922,0.3105164,4.009,0,0,0,0.2999878,nan,4,8.534,1,0,0.3534546,0.326416,0.2808838,0.2813416,0.01171875,0.02734375,0,1,3,0
152.754,0.001126,-0.009765625,-0.05273438,0.005859375,2.398438,2.210938,10.42188,-0.005859375,-0.02539062,0.00390625,0.01757812,0.06445312,0,-0.002807617,-0.01062012,-0.0423584,0,0,-0.02294922,0.3105164,4.009,0,0,0,0.2999878,nan,4,8.545,1,0,0.3665771,0.3254089,0.2663879,0.2837219,0.01171875,0.02734375,0,1,3,0
152.764,0.001012,0.0703125,0.05664062,0.01757812,-1.953125,3.976562,12.9375,0.0078125,0.01953125,0.01171875,0.01757812,0.06445312,0,-0.002929688,-0.01062012,-0.04223633,0,0,-0.02294922,0.3105164,4.009,0,0,0,0.2999878,nan,4,8.555,1,0,0.3527832,0.3222961,0.2811584,0.2858582,0.01171875,0.02734375,0,1,3,0
152.774,0.001014,-0.03125,-0.009765625,-0.01171875,0.90625,-5.9375,8.625,0.005859375,0.0078125,-0.005859375,0.01757812,0.0625,0,-0.002929688,-0.01062012,-0.04223633,0,0,-0.02294922,0.3105164,4.009,0,0,0,0.2999878,nan,4,8.565,1,0,0.3348694,0.3461914,0.2512512,0.3098145,0.01171875,0.02734375,0,1,3,0
152.784,0.001018,0.04492188,0.015625,-0.01367188,-1,3.984375,13.51562,0.0078125,-0.0078125,-0.0078125,0.01757812,0.06445312,0,-0.002929688,-0.01062012,-0.04223633,0,0,-0.02294922,0.3105164,4.009,0,0,0,0.2999878,nan,4,8.575,1,0,0.3457336,0.3378601,0.2615662,0.296936,0.01171875,0.02734375,0,1,3,0
152.794,0.001018,-0.03125,0.0859375,-0.00390625,-1,-3.234375,11.39844,-0.0078125,0.09765625,-0.001953125,0.01757812,0.06054688,0,-0.002929688,-0.01000977,-0.0423584,0,0,-0.02294922,0.3105164,4.009,0,0,0,0.2999878,nan,4,8.585,1,0,0.3437805,0.3135071,0.2783508,0.306488,0.01171875,0.02734375,0,1,3,0
152.804,0.001018,0.09570312,-0.07421875,0.009765625,1.898438,-1.453125,4.523438,0.02734375,0.04101562,0.0078125,0.01757812,0.05664062,0,-0.002807617,-0.009277344,-0.0423584,0,0,-0.02294922,0.3105164,4.009,0,0,0,0.2999878,nan,4,8.595,1,0,0.3720398,0.3224487,0.2857361,0.2619019,0.01171875,0.02734375,0,1,3,0
152.815,0.001018,0.06640625,-0.01171875,0.01367188,0.7109375,5.101562,12.96875,0.01171875,-0.03515625,0.01171875,0.01757812,0.05664062,0,-0.002929688,-0.009521484,-0.04223633,0,0,-0.02294922,0.3105164,4.009,0,0,0,0.2999878,nan,4,8.605,1,0,0.3731689,0.3213196,0.2826843,0.2649231,0.01171875,0.02734375,0,1,3,0
152.825,0.001018,0.0625,0,0.01171875,-1.796875,-3.578125,8.171875,0.015625,-0.0078125,0.005859375,0.01757812,0.05859375,0,-0.002929688,-0.009643555,-0.04223633,0,0,-0.02294922,0.3105164,4.009,0,0,0,0.2999878,nan,4,8.615,1,0,0.3564453,0.3264771,0.2796021,0.2795715,0.01171875,0.02734375,0,1,3,0
152.834,0.001019,0.02539062,-0.02929688,0.02148438,-1.007812,-6.398438,5.65625,-0.009765625,-0.001953125,0.001953125,0.01757812,0.05859375,0,-0.002929688,-0.009643555,-0.04223633,0,0,-0.02294922,0.3105164,4.009,0,0,0,0.2999878,nan,4,8.624,1,0,0.3655701,0.3180847,0.2743225,0.2841187,0.01171875,0.02734375,0,1,3,0
152.844,0.001018,0.04882812,0.0703125,-0.005859375,3.03125,2.289062,8.757812,-0.02734375,0.04882812,-0.01367188,0.01757812,0.05859375,0,-0.002929688,-0.009643555,-0.0423584,0,0,-0.02294922,0.3105164,4.009,0,0,0,0.2999878,nan,4,8.634,1,0,0.3378906,0.3232422,0.2660217,0.3149719,0.01171875,0.02734375,0,1,3,0.3650794
152.854,0.00102,0.00390625,0.01367188,-0.0078125,-2.304688,3.75,13.17188,-0.001953125,-0.02929688,-0.001953125,0.01953125,0.05664062,0,-0.003173828,-0.009399414,-0.0423584,0,0,-0.02294922,0.3105164,4.009,0,0,0,0.2999878,nan,4,8.645,1,0,0.362915,0.339447,0.2598267,0.2799072,0.01171875,0.02734375,0,1,3,0
152.864,0.001005,0.04296875,0.05664062,0.0234375,0.109375,-5.78125,8.734375,0.0078125,0.02148438,0.01953125,0.01953125,0.0546875,0,-0.003051758,-0.009277344,-0.0423584,0,0,-0.02294922,0.3105164,4.009,0,0,0,0.2999878,nan,4,8.655,1,0,0.3747253,0.3038025,0.296875,0.2666931,0.01171875,0.02734375,0,1,3,0
152.874,0.000971,-0.01171875,0.01171875,-0.001953125,1.5,-0.3125,8.109375,-0.0078125,0.005859375,0.009765625,0.01757812,0.0546875,0,-0.003051758,-0.009277344,-0.04211426,0,0,-0.02294922,0.3105164,4.009,0,0,0,0.2999878,nan,4,8.665,1,0,0.3496704,0.3305054,0.2585449,0.3033752,0.01171875,0.02832031,0,1,3,0
152.884,0.001005,0.046875,-0.03710938,-0.009765625,-1.445312,2.835938,14.00781,0.01367188,-0.02734375,-0.005859375,0.01953125,0.05664062,0,-0.003295898,-0.009277344,-0.04223633,0,0,-0.02294922,0.3105164,4.009,0,0,0,0.2999878,nan,4,8.675,1,0,0.3443604,0.3504944,0.2590332,0.288208,0.01171875,0.02832031,0,1,3,0
152.895,0.001014,-0.0234375,0.1152344,-0.001953125,0.6796875,-5.085938,7.085938,0.02929688,0.03515625,-0.0078125,0.01953125,0.05664062,0,-0.003173828,-0.009277344,-0.0423584,0,0,-0.02294922,0.3105164,4.008,0,0,0,0.2999878,nan,4,8.685,1,0,0.3512878,0.315155,0.2887268,0.2869263,0.01171875,0.02832031,0,1,3,0
152.905,0.001038,-0.01757812,-0.02929688,0.015625,0.7109375,2.976562,9.929688,-0.02929688,0.01757812,-0.0078125,0.01953125,0.05273438,0,-0.003173828,-0.008789062,-0.04248047,0,0,-0.02294922,0.3105164,4.008,0,0,0,0.2999878,nan,4,8.695,1,0,0.3770752,0.3136902,0.2658081,0.285553,0.01171875,0.02832031,0,1,3,0
152.915,0.001013,-0.0546875,0.01953125,0.005859375,-2.25,0.5703125,11.53125,-0.015625,0.0390625,0.0078125,0.01953125,0.05078125,0,-0.003295898,-0.008544922,-0.0423584,0,0,-0.02294922,0.3105164,4.008,0,0,0,0.2999878,nan,4,8.705,1,0,0.3606262,0.3163757,0.2733765,0.291687,0.01171875,0.02832031,0,1,3,0
152.925,0.001023,0.01171875,-0.0390625,0.00390625,-0.03125,-4.109375,4.59375,-0.0234375,0.005859375,-0.001953125,0.01953125,0.05078125,0,-0.003295898,-0.008300781,-0.0423584,0,0,-0.02294922,0.3105164,4.008,0,0,0,0.2999878,nan,4,8.715,1,0,0.3556824,0.3328247,0.2511597,0.3024292,0.01171875,0.02832031,0,1,3,0
152.935,0.001013,-0.009765625,-0.0234375,0.00390625,1.507812,4.351562,10.91406,0.005859375,-0.005859375,-0.009765625,0.01953125,0.05078125,0,-0.003295898,-0.008422852,-0.04248047,0,0,-0.02294922,0.3105164,4.008,0,0,0,0.2999878,nan,4,8.725,1,0,0.3519287,0.3348389,0.2616577,0.2936707,0.01171875,0.02832031,0,1,3,0
152.945,0.001013,-0.01953125,-0.02929688,-0.015625,-3.28125,-1.71875,10.6875,0.015625,-0.05078125,-0.01367188,0.01953125,0.05078125,0,-0.003295898,-0.008666992,-0.04248047,0,0,-0.02294922,0.3105164,4.008,0,0,0,0.2999878,nan,4,8.735,1,0,0.3477173,0.3535156,0.2486267,0.2922363,0.01171875,0.02832031,0,1,3,0
152.954,0.000991,0.01953125,-0.1054688,0.001953125,0.8125,-5.132812,7.671875,0.001953125,-0.05664062,-0.00390625,0.01953125,0.05273438,0,-0.003295898,-0.008666992,-0.04260254,0,0,-0.02294922,0.3105164,4.008,0,0,0,0.2999878,nan,4,8.745,1,0,0.375061,0.3328247,0.2657166,0.2684937,0.01171875,0.02832031,0,1,3,0
152.964,0.001006,0.01953125,0.06445312,0.001953125,0.3984375,3.132812,12.96875,0.01367188,0.009765625,0.005859375,0.01953125,0.05273438,0,-0.003417969,-0.008666992,-0.04260254,0,0,-0.02294922,0.3105164,4.008,0,0,0,0.2999878,nan,4,8.755,1,0,0.3542175,0.3243713,0.278717,0.28479,0.01171875,0.02832031,0,1,3,0
152.974,0.000976,0.07226562,0.02929688,-0.00390625,-1.085938,-0.7890625,12.28125,0.02148438,-0.01367188,0.001953125,0.01953125,0.05273438,0,-0.003417969,-0.008666992,-0.04260254,0,0,-0.02294922,0.3105164,4.008,0,0,0,0.2999878,nan,4,8.765,1,0,0.3483276,0.339447,0.2663879,0.2879639,0.01171875,0.02832031,0,1,3,0
152.984,0.001007,-0.015625,-0.1230469,-0.001953125,0.859375,1.28125,8.953125,-0.009765625,-0.00390625,-0.01171875,0.01953125,0.05078125,0,-0.003417969,-0.008666992,-0.04272461,0,0,-0.02294922,0.3105164,4.008,0,0,0,0.2999878,nan,4,8.775,1,0,0.3617249,0.3283386,0.2627563,0.2892761,0.01171875,0.02832031,0,1,3,0
152.994,0.001021,-0.005859375,-0.09179688,-0.0078125,-1.757812,1.453125,10.16406,-0.02929688,-0.04492188,-0.005859375,0.0234375,0.05273438,0,-0.00378418,-0.008666992,-0.04272461,0,0,-0.02294922,0.3105164,4.008,0,0,0,0.2999878,nan,4,8.785,1,0,0.3713684,0.3330383,0.2573242,0.2803955,0.01171875,0.02832031,0,1,3,0
153.004,0.000929,-0.04296875,-0.015625,0.01367188,1.5,-3.507812,5.914062,-0.01171875,0.01953125,0.009765625,0.0234375,0.05078125,0,-0.00402832,-0.008666992,-0.04272461,0,0,-0.02294922,0.3105164,4.008,0,0,0,0.2999878,nan,4,8.795,1,0,0.3697815,0.3094177,0.2838135,0.2791138,0.01269531,0.02832031,0,1,3,0
153.015,0.001006,0.04101562,0.1152344,0.005859375,0.6875,5.773438,11.72656,-0.01953125,0.046875,0,0.0234375,0.05078125,0,-0.00402832,-0.008422852,-0.04272461,0,0,-0.02294922,0.3105164,4.008,0,0,0,0.2999878,nan,4,8.805,1,0,0.3394165,0.32724,0.2610474,0.3144226,0.01269531,0.02832031,0,1,3,0
153.025,0.001026,-0.04296875,-0.08789062,-0.001953125,-0.9453125,-2.710938,9.59375,-0.01757812,-0.01953125,-0.01367188,0.0234375,0.04882812,0,-0.00402832,-0.008178711,-0.04272461,0,0,-0.02294922,0.3105164,4.008,0,0,0,0.2999878,nan,4,8.815,1,0,0.3532715,0.3496704,0.2341309,0.3050232,0.01269531,0.02832031,0,1,3,0.2857143
153.035,0.000977,0.02929688,0.0390625,0.01171875,1.65625,-1.171875,6.695312,-0.00390625,-0.02734375,0.009765625,0.0234375,0.05078125,0,-0.00402832,-0.008422852,-0.04272461,0,0,-0.02294922,0.3105164,4.008,0,0,0,0.2999878,nan,4,8.825,1,0,0.3779297,0.3060303,0.2870789,0.2710571,0.01269531,0.02832031,0,1,3,0
153.045,0.000996,0.05078125,0.0390625,0.01757812,-0.46875,4.367188,14.58594,-0.02148438,0.0625,0.00390625,0.02539062,0.05078125,0,-0.004272461,-0.008422852,-0.04272461,0,0,-0.02294922,0.3105164,4.008,0,0,0,0.2999878,nan,4,8.835,1,0,0.3483887,0.3069458,0.2851562,0.3016357,0.01269531,0.02832031,0,1,3,0
153.054,0.001003,-0.04882812,0.04296875,-0.00390625,-2.164062,-0.3046875,12.9375,-0.01757812,0.01757812,-0.001953125,0.02539062,0.04882812,0,-0.004394531,-0.008178711,-0.04272461,0,0,-0.02294922,0.3105164,4.008,0,0,0,0.2999878,nan,4,8.845,1,0,0.3544922,0.3279114,0.2605286,0.2991638,0.01269531,0.02832031,0,1,3,0
153.064,0.001672,0.005859375,0.0078125,-0.001953125,2.71875,-2.054688,6.34375,0.01367188,0.00390625,0.005859375,0.02539062,0.04882812,0,-0.004394531,-0.008056641,-0.04272461,0,0,-0.02294922,0.3105164,4.008,0,0,0,0.2999878,nan,4,8.854,1,128,0.3587341,0.3262024,0.2737427,0.2834167,0.01269531,0.02832031,0,1,3,0
153.074,0.001002,0.009765625,-0.09570312,0.009765625,-2.742188,3.5625,13.38281,0.01953125,-0.0078125,0.00390625,0.02539062,0.046875,0,-0.004272461,-0.00793457,-0.04272461,0,0,-0.02294922,0.3105164,4.008,0,0,0,0.2999878,nan,4,8.865,1,128,0.3704834,0.3274536,0.2720032,0.2721558,0.01269531,0.02832031,0,1,3,0
153.084,0.0009860001,0.078125,-0.09179688,-0.0234375,-1.367188,-4.945312,9.617188,0.015625,-0.0390625,-0.009765625,0.02539062,0.046875,0,-0.004272461,-0.0078125,-0.04272461,0,0,-0.02294922,0.3105164,4.008,0,0,0,0.2999878,nan,4,8.875,1,128,0.3464966,0.3623657,0.2381897,0.2950439,0.01269531,0.02929688,0,1,3,0
153.094,0.001001,-0.005859375,-0.08203125,0.0078125,1.84375,3.265625,9.851562,-0.00390625,-0.0234375,0.00390625,0.02734375,0.046875,0,-0.004516602,-0.00793457,-0.04272461,0,0,-0.02294922,0.3105164,4.008,0,0,0,0.2999878,nan,4,8.885,1,128,0.3684082,0.3259583,0.2701111,0.2776184,0.01269531,0.02929688,0,1,3,0
153.104,0.001006,-0.02148438,0.08203125,0.0078125,-1.78125,1.398438,12.55469,-0.001953125,0.01757812,0.009765625,0.02734375,0.046875,0,-0.004516602,-0.00793457,-0.04260254,0,0,-0.02294922,0.3105164,4.008,0,0,0,0.2999878,nan,4,8.895,1,128,0.3569031,0.3161316,0.2771301,0.2919617,0.01269531,0.02929688,0,1,3,0
153.115,0.001006,-0.0390625,0.00390625,-0.0234375,0.625,-4.671875,7.890625,0.001953125,0.001953125,-0.01757812,0.02734375,0.046875,0,-0.004394531,-0.0078125,-0.04272461,0,0,-0.02294922,0.3105164,4.008,0,0,0,0.2999878,nan,4,8.905,1,128,0.3251038,0.3605347,0.2292175,0.3272705,0.01269531,0.02929688,0,1,3,0
153.125,0.001006,0.015625,-0.01757812,0.0078125,0.4296875,4.257812,11.71094,0.01171875,-0.02734375,-0.001953125,0.02539062,0.046875,0,-0.004272461,-0.00793457,-0.04272461,0,0,-0.02294922,0.3105164,4.008,0,0,0,0.2999878,nan,4,8.915,1,128,0.3729553,0.3215332,0.271759,0.2758484,0.01269531,0.02929688,0,1,3,0
153.134,0.001076,-0.08007812,0.046875,0.01757812,-2.046875,3.078125,14.99219,-0.06445312,-0.02734375,0,0.02734375,0.05078125,0,-0.004638672,-0.008300781,-0.04284668,0,0,-0.02294922,0.3105164,4.008,0,0,0,0.2999878,nan,4,8.924,1,128,0.3779602,0.3055725,0.2672119,0.2913513,0.01269531,0.02929688,0,1,3,0
153.145,0.001005,0.015625,-0.01367188,0.0078125,2.039062,0.5703125,5.039062,-0.01171875,0.0078125,0.009765625,0.02929688,0.04882812,0,-0.005004883,-0.008300781,-0.04272461,0,0,-0.02294922,0.3105164,4.008,0,0,0,0.2999878,nan,4,8.935,1,128,0.3625488,0.3199768,0.2772217,0.2823486,0.01269531,0.02929688,0,1,3,0
153.154,0.000996,0.03710938,-0.01953125,-0.0078125,1.15625,4.5625,14.30469,0.01757812,-0.0078125,0.00390625,0.02929688,0.04882812,0,-0.005004883,-0.008300781,-0.04260254,0,0,-0.02294922,0.3105164,4.008,0,0,0,0.2999878,nan,4,8.945,1,128,0.3500977,0.3414307,0.2595825,0.2910156,0.01269531,0.02929688,0,1,3,0
153.164,0.001001,0.02929688,0.01367188,0.009765625,-2.757812,-3.828125,9.578125,0.01757812,0.005859375,-0.001953125,0.02929688,0.04882812,0,-0.005004883,-0.008300781,-0.04272461,0,0,-0.02294922,0.3105164,4.008,0,0,0,0.2999878,nan,4,8.955,1,128,0.3551636,0.3271179,0.272644,0.2872314,0.01269531,0.02929688,0,1,3,0
153.174,0.001009,0.015625,-0.09375,-0.015625,2.90625,-0.171875,8.25,0.01367188,-0.04296875,-0.0078125,0.02929688,0.05078125,0,-0.005004883,-0.008300781,-0.04272461,0,0,-0.02294922,0.3105164,4.008,0,0,0,0.2999878,nan,4,8.965,1,128,0.3547363,0.3521118,0.2455139,0.2897339,0.01269531,0.02929688,0,1,3,0
153.184,0.001008,0.06835938,0.203125,-0.00390625,-1.757812,4.671875,14.45312,0.046875,0.03125,0,0.02929688,0.05078125,0,-0.004760742,-0.008544922,-0.04284668,0,0,-0.02294922,0.3105164,4.008,0,0,0,0.2999878,nan,4,8.975,1,128,0.3451233,0.3128357,0.2952576,0.2888794,0.01269531,0.02929688,0,1,3,0
153.194,0.001009,-0.009765625,0.07617188,0.001953125,1.429688,-1.335938,7.59375,-0.009765625,0.0546875,0.001953125,0.02734375,0.04882812,0,-0.004638672,-0.008178711,-0.04284668,0,0,-0.02294922,0.3105164,4.008,0,0,0,0.2999878,nan,4,8.985,1,128,0.3547668,0.3121948,0.2718811,0.3032837,0.01269531,0.02929688,0,1,3,0
153.204,0.001009,-0.05078125,-0.02539062,-0.00390625,-1.117188,3.734375,12.76562,-0.01367188,0.0078125,-0.00390625,0.02734375,0.04882812,0,-0.004638672,-0.008056641,-0.04284668,0,0,-0.02294922,0.3105164,4.008,0,0,0,0.2999878,nan,4,8.995,1,128,0.3569031,0.3325806,0.2512817,0.3013611,0.01269531,0.02929688,0,1,3,0
153.215,0.001009,0.02539062,-0.0078125,-0.00390625,-1.226562,-5.1875,8.53125,-0.00390625,0.01171875,-0.001953125,0.02929688,0.046875,0,-0.004760742,-0.0078125,-0.04284668,0,0,-0.02294922,0.3105164,4.008,0,0,0,0.2999878,nan,4,9.005,1,128,0.355011,0.330719,0.2598572,0.2965088,0.01269531,0.02929688,0,1,3,0.4126984
153.225,0.001009,0.02539062,-0.05859375,-0.005859375,2.109375,1.53125,6.359375,-0.01367188,0.0234375,-0.005859375,0.02929688,0.04492188,0,-0.004882812,-0.007568359,-0.04284668,0,0,-0.02294922,0.3105164,4.008,0,0,0,0.2999878,nan,4,9.015,1,128,0.3468323,0.3383789,0.2536621,0.3032227,0.01269531,0.02929688,0,1,3,0
153.235,0.0009860001,0.009765625,-0.08984375,0.00390625,-1.914062,4.40625,14.1875,0.01171875,-0.02148438,0.001953125,0.02929688,0.04296875,0,-0.004760742,-0.007202148,-0.04284668,0,0,-0.02294922,0.3105164,4.008,0,0,0,0.2999878,nan,4,9.025,1,128,0.3759766,0.3327942,0.2609558,0.2723694,0.01269531,0.02929688,0,1,3,0
153.244,0.001007,0.015625,0.00390625,-0.015625,-0.7421875,-4.921875,8.851562,0,-0.0078125,-0.001953125,0.02929688,0.04296875,0,-0.004760742,-0.007202148,-0.04284668,0,0,-0.02294922,0.3105164,4.008,0,0,0,0.2999878,nan,4,9.034,1,128,0.3469238,0.3434143,0.2496643,0.3020935,0.01269531,0.02929688,0,1,3,0.0952381
153.254,0.001025,0.009765625,-0.04296875,0.01367188,1.28125,-1.15625,5.226562,0,-0.009765625,0.00390625,0.02929688,0.04296875,0,-0.004760742,-0.007202148,-0.04284668,0,0,-0.02294922,0.3105164,4.008,0,0,0,0.2999878,nan,4,9.045,1,128,0.3696289,0.3234558,0.2677612,0.28125,0.01269531,0.02929688,0,1,3,0
153.264,0.001013,0.02734375,0.06835938,0,-1.25,5.742188,14.71875,-0.01171875,0.04101562,0,0.02734375,0.04296875,0,-0.004638672,-0.007080078,-0.04284668,0,0,-0.02294922,0.3105164,4.008,0,0,0,0.2999878,nan,4,9.055,1,128,0.3465576,0.3216553,0.2641296,0.3097534,0.01269531,0.02929688,0,1,3,0
153.274,0.000983,-0.06835938,0.05273438,-0.01757812,-0.3671875,-5.398438,9.140625,-0.005859375,-0.02734375,-0.01367188,0.02734375,0.04296875,0,-0.004760742,-0.007080078,-0.04284668,0,0,-0.02294922,0.3105164,4.008,0,0,0,0.2999878,nan,4,9.065,1,128,0.3477783,0.3452454,0.2418518,0.307251,0.01269531,0.02929688,0,1,3,0
153.284,0.000998,0.01953125,0.0546875,0.02929688,1.15625,1.765625,10.23438,-0.04492188,-0.009765625,0.01171875,0.03125,0.04492188,0,-0.005126953,-0.007446289,-0.04296875,0,0,-0.02294922,0.3105164,4.008,0,0,0,0.2999878,nan,4,9.075,1,128,0.3905029,0.2887268,0.2936096,0.2692566,0.01269531,0.02929688,0,1,3,0
153.294,0.001007,-0.01171875,-0.0078125,0.0234375,-1.195312,-3.601562,9.46875,-0.03320312,0.0078125,0.015625,0.03125,0.04492188,0,-0.005249023,-0.007324219,-0.04284668,0,0,-0.02294922,0.3105164,4.008,0,0,0,0.2999878,nan,4,9.085,1,128,0.3759155,0.3063965,0.276947,0.2828369,0.01269531,0.03027344,0,1,3,0.06349207
153.304,0.001006,-0.0390625,0.04882812,0.01953125,1.429688,-0.0859375,4.984375,0.00390625,0.01171875,0.015625,0.03125,0.04296875,0,-0.005249023,-0.007324219,-0.04260254,0,0,-0.02294922,0.3105164,4.008,0,0,0,0.2999878,nan,4,9.095,1,128,0.359436,0.3208313,0.2715149,0.2903442,0.01367188,0.03027344,0,1,3,0
153.315,0.001014,-0.0390625,-0.05664062,-0.01953125,0.296875,4.929688,14.03125,-0.001953125,0.00390625,0.001953125,0.03125,0.04296875,0,-0.005249023,-0.007202148,-0.04248047,0,0,-0.02294922,0.3105164,4.008,0,0,0,0.2999878,nan,4,9.105,1,128,0.3374939,0.3500061,0.2348633,0.3197327,0.01367188,0.03027344,0,1,3,0
153.325,0.001007,0.05859375,-0.03710938,-0.005859375,-2.382812,-4.171875,8.03125,0.009765625,-0.00390625,-0.00390625,0.03125,0.04296875,0,-0.005249023,-0.007202148,-0.04248047,0,0,-0.02294922,0.3105164,4.008,0,0,0,0.2999878,nan,4,9.115,1,128,0.3518982,0.3400879,0.2564087,0.2937012,0.01367188,0.03027344,0,1,3,0.06349207
153.335,0.001006,-0.05664062,0.09765625,-0.0078125,2.78125,-0.1875,8.648438,-0.01171875,0.02734375,-0.009765625,0.03125,0.04296875,0,-0.005249023,-0.007324219,-0.04260254,0,0,-0.02294922,0.3105164,4.008,0,0,0,0.2999878,nan,4,9.125,1,128,0.3491211,0.3197021,0.2627869,0.3104858,0.01367188,0.03027344,0,1,3,0
153.345,0.001006,0.02734375,-0.0390625,0,-2.492188,5.171875,13.875,0,0.005859375,0.00390625,0.03320312,0.04101562,0,-0.005615234,-0.006958008,-0.04260254,0,0,-0.02294922,0.3105164,4.008,0,0,0,0.2999878,nan,4,9.135,1,128,0.3652039,0.3292847,0.2742615,0.2733459,0.01367188,0.03027344,0,1,3,0
153.354,0.001001,-0.04492188,-0.009765625,0.02148438,-1.203125,-3,11.46094,-0.01367188,-0.005859375,0.015625,0.03515625,0.04101562,0,-0.005737305,-0.006958008,-0.04248047,0,0,-0.02294922,0.3105164,4.008,0,0,0,0.2999878,nan,4,9.145,1,128,0.3725891,0.3145752,0.2723389,0.2826233,0.01367188,0.03027344,0,1,3,0
153.364,0.001001,-0.0078125,0.05273438,0.0078125,2.015625,-1.382812,5.984375,-0.009765625,0.03320312,0.00390625,0.03515625,0.04101562,0,-0.005737305,-0.006958008,-0.0423584,0,0,-0.02294922,0.3105164,4.008,0,0,0,0.2999878,nan,4,9.155,1,128,0.3449402,0.3278809,0.2588806,0.3104248,0.01367188,0.03027344,0,1,3,0
153.374,0.001015,-0.05859375,0.09765625,-0.01953125,-0.96875,5.09375,14.03906,0.00390625,0.02734375,-0.005859375,0.03320312,0.04101562,0,-0.005615234,-0.006835938,-0.0423584,0,0,-0.02294922,0.3105164,4.008,0,0,0,0.2999878,nan,4,9.165,1,128,0.339325,0.3355103,0.2508545,0.3164368,0.01367188,0.03027344,0,1,3,0
153.384,0.001011,-0.02539062,-0.03320312,-0.001953125,0.1484375,-4.242188,9.28125,-0.0078125,-0.01171875,0,0.03515625,0.04101562,0,-0.005737305,-0.006713867,-0.04248047,0,0,-0.02294922,0.3105164,4.008,0,0,0,0.2999878,nan,4,9.175,1,128,0.3704834,0.3226624,0.2650757,0.283844,0.01367188,0.03027344,0,1,3,0
153.395,0.001032,-0.009765625,-0.009765625,-0.001953125,-0.234375,4.21875,12.66406,-0.03515625,0.01171875,-0.009765625,0.03710938,0.0390625,0,-0.006103516,-0.006591797,-0.04260254,0,0,-0.02294922,0.3105164,4.008,0,0,0,0.2999878,nan,4,9.185,1,128,0.3531494,0.3297729,0.2543945,0.3047791,0.01367188,0.03027344,0,1,3,0
153.405,0.000998,0,0.05859375,-0.001953125,-0.78125,-4.648438,8.460938,-0.01757812,0.015625,0.001953125,0.0390625,0.0390625,0,-0.006347656,-0.006469727,-0.04248047,0,0,-0.02294922,0.3105164,4.008,0,0,0,0.2999878,nan,4,9.195,1,128,0.3554382,0.32547,0.2641296,0.2970581,0.01367188,0.03027344,0,1,3,0.4444444
153.415,0.001005,-0.04492188,-0.04882812,-0.015625,2.054688,0.53125,7.007812,-0.015625,-0.001953125,-0.005859375,0.0390625,0.03710938,0,-0.006469727,-0.006347656,-0.04248047,0,0,-0.02294922,0.3105164,4.008,0,0,0,0.2999878,nan,4,9.205,1,128,0.3492737,0.34375,0.2416382,0.3074341,0.01367188,0.03027344,0,1,3,0
153.425,0.00101,0.05078125,0.00390625,0.001953125,-1.414062,5.367188,12.70312,0.00390625,0.005859375,-0.001953125,0.0390625,0.03710938,0,-0.006591797,-0.006225586,-0.04260254,0,0,-0.02294922,0.3105164,4.008,0,0,0,0.2999878,nan,4,9.215,1,128,0.3595276,0.3285217,0.2653809,0.2886658,0.01367188,0.03027344,0,1,3,0
153.435,0.001021,0.05078125,-0.001953125,0.001953125,0.046875,-5.570312,8,0.015625,0.01367188,-0.01171875,0.0390625,0.03710938,0,-0.006469727,-0.006103516,-0.04260254,0,0,-0.02294922,0.3105164,4.008,0,0,0,0.2999878,nan,4,9.225,1,128,0.3423157,0.3385315,0.2554321,0.3058167,0.01367188,0.03027344,0,1,3,0.7142857
153.444,0.001026,0.01367188,0.03125,0.005859375,1.515625,-0.5390625,6.578125,0.01171875,0.009765625,-0.001953125,0.03710938,0.03710938,0,-0.006347656,-0.006225586,-0.04260254,0,0,-0.02294922,0.3105164,4.008,0,0,0,0.2999878,nan,4,9.234,1,128,0.3637695,0.3141785,0.275177,0.2889709,0.01367188,0.03027344,0,1,3,0
153.454,0.001053,0.03515625,0.06445312,0.02929688,-1.53125,4.195312,16.57812,-0.0078125,0.01367188,0.01757812,0.0390625,0.03710938,0,-0.006347656,-0.006103516,-0.04260254,0,0,-0.02294922,0.3105164,4.008,0,0,0,0.2999878,nan,4,9.245,1,128,0.3858643,0.2942505,0.2916565,0.2703247,0.01367188,0.03027344,0,1,3,0
153.464,0.000998,0.04296875,-0.015625,0.01953125,-0.2265625,-4.765625,6.953125,0.01171875,0.0390625,0.01757812,0.0390625,0.03515625,0,-0.006347656,-0.005737305,-0.04248047,0,0,-0.02294922,0.3105164,4.008,0,0,0,0.2999878,nan,4,9.255,1,128,0.3644104,0.3145142,0.2801514,0.2830505,0.01367188,0.03027344,0,1,3,0
153.474,0.000994,-0.005859375,-0.005859375,-0.001953125,2.882812,1.140625,9.46875,-0.015625,-0.009765625,0.001953125,0.0390625,0.03515625,0,-0.006347656,-0.005737305,-0.0423584,0,0,-0.02294922,0.3105164,4.008,0,0,0,0.2999878,nan,4,9.265,1,128,0.3475342,0.3454895,0.2351074,0.3139954,0.01367188,0.03027344,0,1,3,0.4285714
153.484,0.000999,-0.01367188,0.009765625,-0.005859375,-2.546875,3.054688,13.55469,0.01367188,0.005859375,-0.005859375,0.03710938,0.03320312,0,-0.006347656,-0.005737305,-0.0423584,0,0,-0.02294922,0.3105164,4.008,0,0,0,0.2999878,nan,4,9.275,1,128,0.3465576,0.3371582,0.2562866,0.302124,0.01367188,0.03027344,0,1,3,0
153.495,0.001042,0.015625,0.0546875,0.01171875,2.296875,-1.929688,5.9375,0.00390625,0.02148438,-0.001953125,0.03710938,0.03320312,0,-0.006225586,-0.005615234,-0.0423584,0,0,-0.02294922,0.3105164,4.008,0,0,0,0.2999878,nan,4,9.285,1,128,0.3612061,0.3153381,0.2731018,0.2924805,0.01367188,0.03027344,0,1,3,0
153.505,0.001012,0.06445312,0.05859375,-0.02148438,-0.6953125,5.375,11.625,0.0546875,0.00390625,-0.01171875,0.03515625,0.03125,0,-0.005981445,-0.005371094,-0.04248047,0,0,-0.02294922,0.3105164,4.008,0,0,0,0.2999878,nan,4,9.295,1,128,0.3318481,0.358429,0.2475891,0.3042297,0.01367188,0.03027344,0,1,3,0
153.515,0.001012,-0.03125,0.08203125,-0.001953125,-0.5703125,-5.164062,8.984375,0.0078125,0.02734375,0.001953125,0.03320312,0.03125,0,-0.005615234,-0.005249023,-0.04248047,0,0,-0.02294922,0.3105164,4.008,0,0,0,0.2999878,nan,4,9.305,1,128,0.3645325,0.31073,0.2709656,0.2958679,0.01367188,0.03027344,0,1,3,0
153.525,0.001012,0.0234375,0.02539062,0.01367188,1.851562,1.71875,9.0625,0.0078125,0.01367188,0.01171875,0.03320312,0.02929688,0,-0.005737305,-0.004882812,-0.04248047,0,0,-0.02294922,0.3105164,4.008,0,0,0,0.2999878,nan,4,9.315,1,128,0.3737488,0.3121948,0.2801208,0.276062,0.01367188,0.03027344,0,1,3,0.0952381
153.535,0.001012,-0.03125,0.01367188,-0.01953125,-2.148438,2.695312,13.52344,0.00390625,-0.00390625,-0.0078125,0.03320312,0.02929688,0,-0.005615234,-0.005004883,-0.0423584,0,0,-0.02294922,0.3105164,4.008,0,0,0,0.2999878,nan,4,9.325,1,128,0.3379517,0.3453674,0.2418518,0.3169556,0.01367188,0.03027344,0,1,3,0
153.544,0.001074,-0.09375,-0.03710938,-0.01953125,0.6796875,-5.28125,7.1875,-0.015625,-0.02734375,-0.01171875,0.03320312,0.03125,0,-0.005615234,-0.005126953,-0.04248047,0,0,-0.02294922,0.3105164,4.007,0,0,0,0.2999878,nan,4,9.334,1,128,0.360321,0.3338318,0.2441101,0.3038635,0.01367188,0.03027344,0,1,3,0
153.555,0.001026,0.0078125,-0.0078125,0.00390625,-0.9296875,4.507812,13.03125,-0.02929688,-0.00390625,-0.009765625,0.03515625,0.03320312,0,-0.005737305,-0.005493164,-0.04272461,0,0,-0.02294922,0.3105164,4.007,0,0,0,0.2999878,nan,4,9.346,1,128,0.3637695,0.3134155,0.2673645,0.2975769,0.01367188,0.03027344,0,1,3,0
153.564,0.000995,-0.01757812,0.001953125,-0.001953125,-1,-0.9140625,10.28125,0.0078125,-0.0078125,0.00390625,0.03320312,0.03320312,0,-0.005493164,-0.005493164,-0.04260254,0,0,-0.02294922,0.3105164,4.007,0,0,0,0.2999878,nan,4,9.355,1,128,0.3679504,0.3207092,0.2619934,0.2914734,0.01367188,0.03027344,0,1,3,0
153.574,0.001009,0.01953125,0.01171875,0,1.703125,-1.828125,5.929688,0,0.001953125,0.005859375,0.03320312,0.03320312,0,-0.005493164,-0.005371094,-0.04260254,0,0,-0.02294922,0.3105164,4.007,0,0,0,0.2999878,nan,4,9.365,1,128,0.3579712,0.3303833,0.2588196,0.2949219,0.01367188,0.03027344,0,1,3,0
153.584,0.001004,0.02734375,-0.04492188,-0.01367188,0.140625,6.195312,13.78125,-0.009765625,0.001953125,-0.01171875,0.03320312,0.03125,0,-0.005615234,-0.005249023,-0.04260254,0,0,-0.02294922,0.3105164,4.007,0,0,0,0.2999878,nan,4,9.375,1,128,0.3453979,0.346405,0.241333,0.30896,0.01464844,0.03027344,0,1,3,0
153.594,0.001013,-0.0390625,0.1816406,-0.015625,0.6328125,-5.671875,7.59375,-0.0390625,0.08007812,-0.02148438,0.03515625,0.03125,0,-0.005859375,-0.005126953,-0.04272461,0,0,-0.02294922,0.3105164,4.007,0,0,0,0.2999878,nan,4,9.385,1,128,0.333313,0.3174438,0.2609253,0.3304138,0.01464844,0.03027344,0,1,3,0.3174603
153.604,0.001014,0.02929688,-0.03125,0.001953125,-0.671875,4.484375,13.23438,0.01953125,0.015625,-0.01171875,0.03515625,0.02734375,0,-0.005981445,-0.004516602,-0.04296875,0,0,-0.02294922,0.3105164,4.007,0,0,0,0.2999878,nan,4,9.395,1,128,0.3740845,0.3204346,0.2814636,0.2661133,0.01464844,0.03027344,0,1,3,0
153.615,0.001013,0.046875,0.01953125,0.02148438,-0.3203125,-4.921875,7.71875,0.005859375,0.02539062,0.009765625,0.03515625,0.02539062,0,-0.005981445,-0.004272461,-0.04309082,0,0,-0.02294922,0.3105164,4.007,0,0,0,0.2999878,nan,4,9.405,1,128,0.3877563,0.2958374,0.2963562,0.262146,0.01464844,0.03027344,0,1,3,0
153.625,0.001013,-0.07226562,-0.02539062,-0.00390625,2.015625,2.460938,6.539062,-0.0234375,0.0234375,0.005859375,0.03515625,0.0234375,0,-0.005859375,-0.00402832,-0.04296875,0,0,-0.02294922,0.3105164,4.007,0,0,0,0.2999878,nan,4,9.415,1,128,0.3541565,0.3304443,0.244751,0.3127747,0.01464844,0.03027344,0,1,3,0
153.635,0.001013,-0.0390625,-0.0234375,0.005859375,-1.882812,4.179688,13.77344,0.0078125,-0.001953125,0.0078125,0.03515625,0.0234375,0,-0.005737305,-0.00402832,-0.04284668,0,0,-0.02294922,0.3105164,4.007,0,0,0,0.2999878,nan,4,9.425,1,128,0.3573608,0.3293457,0.2561951,0.2991638,0.01464844,0.03027344,0,1,3,0
153.645,0.001013,0.015625,-0.01757812,0.00390625,-0.578125,-7.820312,5.640625,0.01757812,-0.005859375,0.00390625,0.03515625,0.0234375,0,-0.005737305,-0.00402832,-0.04272461,0,0,-0.02294922,0.3105164,4.007,0,0,0,0.2999878,nan,4,9.435,1,128,0.3589478,0.3294678,0.264679,0.2890015,0.01464844,0.03027344,0,1,3,0.4603175
153.655,0.00102,0.009765625,0,0.01367188,2.070312,2.945312,11.8125,0.001953125,0,0,0.03515625,0.0234375,0,-0.005859375,-0.00390625,-0.04284668,0,0,-0.02294922,0.3105164,4.007,0,0,0,0.2999878,nan,4,9.445,1,128,0.365448,0.3230896,0.2677307,0.2858582,0.01464844,0.03027344,0,1,3,0
153.664,0.001041,-0.015625,-0.01757812,-0.005859375,-2.453125,5.445312,13.95312,0,-0.02148438,0.001953125,0.03515625,0.0234375,0,-0.005859375,-0.00378418,-0.04272461,0,0,-0.02294922,0.3105164,4.007,0,0,0,0.2999878,nan,4,9.455,1,128,0.3601685,0.3364868,0.252533,0.2929382,0.01464844,0.03027344,0,1,3,0
153.674,0.000988,-0.02148438,0.05078125,0.01171875,0.1328125,-4.992188,7.84375,0.009765625,-0.005859375,0.015625,0.03515625,0.02539062,0,-0.005737305,-0.004150391,-0.04260254,0,0,-0.02294922,0.3105164,4.007,0,0,0,0.2999878,nan,4,9.465,1,128,0.3677063,0.3089905,0.2799683,0.2854614,0.01464844,0.03125,0,1,3,0
153.684,0.000953,-0.02734375,0.01953125,0.009765625,1.6875,2.789062,10.75781,0.005859375,0.02539062,0.01171875,0.03515625,0.02539062,0,-0.005737305,-0.004150391,-0.04248047,0,0,-0.02294922,0.3105164,4.007,0,0,0,0.2999878,nan,4,9.475,1,128,0.3509216,0.3223877,0.2635803,0.3052368,0.01464844,0.03125,0,1,3,0
153.694,0.001,-0.04101562,0.02929688,-0.01953125,-2.3125,-4.023438,9.070312,-0.009765625,0.02929688,-0.01171875,0.03515625,0.0234375,0,-0.005737305,-0.00402832,-0.04248047,0,0,-0.02294922,0.3105164,4.007,0,0,0,0.2999878,nan,4,9.485,1,128,0.3305054,0.3423767,0.2398682,0.3293457,0.01464844,0.03125,0,1,3,0.1428571
153.705,0.001051,0.1035156,-0.2070312,-0.0078125,2.109375,1.773438,7.453125,0.03125,-0.02734375,-0.005859375,0.03320312,0.0234375,0,-0.005737305,-0.00378418,-0.04260254,0,0,-0.02294922,0.3105164,4.007,0,0,0,0.2999878,nan,4,9.495,1,128,0.3695068,0.3417969,0.261261,0.2695618,0.01464844,0.03125,0,1,3,0
153.714,0.001002,0,0.09179688,0.0078125,-2.570312,4.523438,12.36719,0,0.01757812,0,0.03320312,0.0234375,0,-0.005371094,-0.00402832,-0.04272461,0,0,-0.02294922,0.3105164,4.007,0,0,0,0.2999878,nan,4,9.505,1,128,0.3677368,0.3045349,0.2763977,0.2934265,0.01464844,0.03125,0,1,3,0
153.725,0.001002,-0.03320312,0.046875,0.00390625,1.46875,-5.46875,6.921875,-0.03125,0.00390625,0.005859375,0.03320312,0.0234375,0,-0.005615234,-0.00390625,-0.04260254,0,0,-0.02294922,0.3105164,4.007,0,0,0,0.2999878,nan,4,9.515,1,128,0.3640442,0.3206482,0.2576599,0.2997742,0.01464844,0.03125,0,1,3,0
153.735,0.001001,0.03710938,-0.001953125,-0.01171875,1.117188,3.367188,11.5,0.005859375,0.0078125,0.001953125,0.03515625,0.02148438,0,-0.005859375,-0.003540039,-0.04248047,0,0,-0.02294922,0.3105164,4.007,0,0,0,0.2999878,nan,4,9.525,1,128,0.3511353,0.3387451,0.2575073,0.2947388,0.01464844,0.03125,0,1,3,0
153.745,0.001001,0.04296875,-0.02539062,-0.0078125,-1.46875,0.1796875,11.82812,0.001953125,-0.01367188,-0.0078125,0.03515625,0.02148438,0,-0.005859375,-0.003540039,-0.04260254,0,0,-0.02294922,0.3105164,4.007,0,0,0,0.2999878,nan,4,9.535,1,128,0.3543091,0.3396606,0.2525024,0.2956238,0.01464844,0.03125,0,1,3,0
153.755,0.001,-0.0078125,-0.04882812,-0.0078125,1.820312,-1.085938,6.226562,-0.00390625,-0.001953125,-0.0078125,0.03515625,0.02148438,0,-0.005859375,-0.003540039,-0.04272461,0,0,-0.02294922,0.3105164,4.007,0,0,0,0.2999878,nan,4,9.545,1,128,0.3615112,0.3275146,0.2566833,0.2963867,0.01464844,0.03125,0,1,3,0
153.764,0.001011,-0.01757812,-0.05078125,-0.01171875,-0.4296875,4.476562,12.71875,-0.001953125,-0.04296875,-0.0078125,0.03515625,0.02148438,0,-0.005859375,-0.003662109,-0.04272461,0,0,-0.02294922,0.3105164,4.007,0,0,0,0.2999878,nan,4,9.555,1,128,0.3681335,0.3330383,0.2539368,0.2870178,0.01464844,0.03125,0,1,3,0
153.774,0.000985,0.04882812,-0.02929688,0.001953125,-0.6875,-5.515625,9.265625,0.02148438,-0.03320312,-0.00390625,0.03515625,0.02539062,0,-0.005737305,-0.004150391,-0.04284668,0,0,-0.02294922,0.3105164,4.007,0,0,0,0.2999878,nan,4,9.565,1,128,0.3643188,0.3231201,0.2727966,0.2818604,0.01464844,0.03125,0,1,3,0
153.784,0.001045,0.01367188,-0.009765625,0.0078125,2.101562,1.242188,7.078125,0.0078125,-0.015625,0.01171875,0.03320312,0.02734375,0,-0.005615234,-0.004394531,-0.04272461,0,0,-0.02294922,0.3105164,4.007,0,0,0,0.2999878,nan,4,9.575,1,128,0.3733215,0.3121033,0.2752686,0.2814331,0.01464844,0.03125,0,1,3,0
153.794,0.000966,0.01953125,-0.125,-0.0078125,-1.1875,-0.9765625,11.23438,0.001953125,-0.0234375,-0.00390625,0.03515625,0.02539062,0,-0.005737305,-0.004394531,-0.04272461,0,0,-0.02294922,0.3105164,4.007,0,0,0,0.2999878,nan,4,9.585,1,128,0.355896,0.3443909,0.2443542,0.2974548,0.01464844,0.03125,0,1,3,0
153.804,0.000998,0.04296875,0.1152344,-0.005859375,0.5234375,-0.6875,6.476562,0.005859375,0.03710938,-0.01367188,0.03515625,0.02539062,0,-0.005737305,-0.004394531,-0.04296875,0,0,-0.02294922,0.3105164,4.007,0,0,0,0.2999878,nan,4,9.595,1,128,0.3477173,0.318634,0.2751465,0.3006287,0.01464844,0.03125,0,1,3,0
153.815,0.001051,-0.08398438,0.0234375,-0.015625,-1.335938,4.171875,14.85156,0.02734375,0.02148438,-0.009765625,0.03320312,0.02539062,0,-0.005371094,-0.004150391,-0.04309082,0,0,-0.02294922,0.3105164,4.007,0,0,0,0.2999878,nan,4,9.605,1,128,0.3581238,0.3256226,0.2584534,0.2998962,0.01464844,0.03125,0,1,3,0
153.825,0.00104,0.01757812,-0.0390625,0.005859375,0.0234375,-5.640625,6.945312,0.009765625,0.009765625,0.00390625,0.03125,0.0234375,0,-0.005249023,-0.00390625,-0.04309082,0,0,-0.02294922,0.3105164,4.007,0,0,0,0.2999878,nan,4,9.615,1,128,0.3755188,0.3164062,0.27005,0.2801208,0.01464844,0.03125,0,1,3,0
153.835,0.001019,0.02148438,-0.01171875,-0.005859375,2.570312,3.15625,9.476562,-0.005859375,0.015625,-0.005859375,0.03125,0.0234375,0,-0.005249023,-0.00378418,-0.04309082,0,0,-0.02294922,0.3105164,4.007,0,0,0,0.2999878,nan,4,9.625,1,128,0.3519592,0.3323059,0.2514954,0.306366,0.01464844,0.03125,0,1,3,0
153.844,0.001006,-0.009765625,0.03125,-0.01171875,-2.140625,4.835938,13.33594,0.00390625,0,-0.005859375,0.03125,0.0234375,0,-0.005249023,-0.00390625,-0.04309082,0,0,-0.02294922,0.3105164,4.007,0,0,0,0.2999878,nan,4,9.634,1,128,0.3479004,0.3361511,0.2516174,0.306427,0.01464844,0.03125,0,1,3,0
153.855,0.001077,0.01953125,0.0625,0.005859375,1.507812,-2.734375,5.945312,-0.001953125,-0.01953125,-0.00390625,0.03125,0.0234375,0,-0.005249023,-0.00402832,-0.04321289,0,0,-0.02294922,0.3105164,4.007,0,0,0,0.2999878,nan,4,9.646,1,128,0.3668518,0.3244629,0.2626953,0.2880859,0.01464844,0.03125,0,1,3,0
153.864,0.001014,0.02929688,-0.03320312,0.01367188,2.109375,3.078125,10.46875,0.009765625,0.01367188,0,0.03125,0.0234375,0,-0.005249023,-0.00390625,-0.04321289,0,0,-0.02294922,0.3105164,4.007,0,0,0,0.2999878,nan,4,9.655,1,128,0.3606567,0.3226929,0.2709351,0.2878418,0.01464844,0.03125,0,1,3,0
153.874,0.001014,0.03320312,0.03515625,0.009765625,-2.53125,2.882812,13.04688,0.02734375,0.001953125,0.01171875,0.03125,0.0234375,0,-0.005126953,-0.00390625,-0.04309082,0,0,-0.02294922,0.3105164,4.007,0,0,0,0.2999878,nan,4,9.665,1,128,0.3636169,0.3208618,0.2757874,0.2818604,0.01464844,0.03125,0,1,3,0
153.884,0.001003,0.06445312,-0.0390625,0.04101562,1.171875,-4.421875,6.890625,0.01367188,0.005859375,0.03320312,0.03125,0.02148438,0,-0.005126953,-0.00378418,-0.04284668,0,0,-0.02294922,0.3105164,4.007,0,0,0,0.2999878,nan,4,9.675,1,128,0.3928833,0.2947388,0.2999878,0.2545166,0.015625,0.03125,0,1,3,0
153.894,0.000997,-0.046875,-0.0078125,-0.01171875,-0.8984375,4.039062,12.60938,-0.0078125,-0.0078125,0,0.03125,0.0234375,0,-0.005126953,-0.00378418,-0.04272461,0,0,-0.02294922,0.3105164,4.007,0,0,0,0.2999878,nan,4,9.685,1,128,0.3383484,0.3495178,0.2302246,0.3240356,0.015625,0.03125,0,1,3,0
153.904,0.001007,-0.02734375,-0.03710938,-0.0078125,-0.8671875,-5.960938,9.59375,-0.015625,0.00390625,0,0.03125,0.0234375,0,-0.005126953,-0.00378418,-0.04272461,0,0,-0.02294922,0.3105164,4.007,0,0,0,0.2999878,nan,4,9.695,1,128,0.3581238,0.3261414,0.2542725,0.3035583,0.015625,0.03125,0,1,3,0
153.914,0.001006,0.01171875,-0.03320312,0.01171875,2.195312,0.796875,5.6875,-0.01171875,-0.01367188,0.0078125,0.03320312,0.0234375,0,-0.005615234,-0.00390625,-0.04272461,0,0,-0.02294922,0.3105164,4.007,0,0,0,0.2999878,nan,4,9.705,1,128,0.3702393,0.3217163,0.2712097,0.2789612,0.015625,0.03125,0,1,3,0
153.925,0.001006,-0.05859375,-0.005859375,0.001953125,-2.1875,4.679688,14.14844,-0.001953125,0.02539062,0.001953125,0.03320312,0.02148438,0,-0.005615234,-0.003662109,-0.04260254,0,0,-0.02294922,0.3105164,4.007,0,0,0,0.2999878,nan,4,9.715,1,128,0.3547058,0.3277588,0.2575378,0.302124,0.015625,0.03125,0,1,3,0
153.935,0.001007,-0.04296875,0.08398438,-0.005859375,0.375,-7.148438,7.25,-0.009765625,0.01367188,0,0.03320312,0.02148438,0,-0.005615234,-0.003540039,-0.04260254,0,0,-0.02294922,0.3105164,4.007,0,0,0,0.2999878,nan,4,9.725,1,128,0.3510132,0.3296814,0.250946,0.3104553,0.015625,0.03125,0,1,3,0.1587302
153.945,0.001007,0.01757812,0.05664062,0.01367188,0.578125,2.625,10.50781,-0.0234375,0.05664062,-0.001953125,0.03515625,0.01953125,0,-0.005737305,-0.003417969,-0.04260254,0,0,-0.02294922,0.3105164,4.007,0,0,0,0.2999878,nan,4,9.735,1,128,0.3521423,0.3093262,0.2704468,0.3102112,0.015625,0.03125,0,1,3,0
153.955,0.000984,-0.06054688,0.09179688,0.0078125,-1.625,-0.0546875,12.99219,-0.05859375,0.01367188,0.005859375,0.03515625,0.02148438,0,-0.005981445,-0.003417969,-0.04260254,0,0,-0.02294922,0.3105164,4.007,0,0,0,0.2999878,nan,4,9.745,1,128,0.3691711,0.3088684,0.2558289,0.3082275,0.015625,0.03125,0,1,3,0
153.964,0.001005,-0.03710938,0.009765625,0.001953125,-0.2421875,-5.375,5.835938,-0.01757812,0.0078125,-0.001953125,0.03710938,0.01953125,0,-0.006103516,-0.003417969,-0.04248047,0,0,-0.02294922,0.3105164,4.007,0,0,0,0.2999878,nan,4,9.755,1,128,0.3509216,0.3327026,0.2505188,0.3079529,0.015625,0.03125,0,1,3,0
153.974,0.00101,0.0234375,-0.005859375,-0.001953125,1.414062,3.867188,13.46094,0.01367188,0.01367188,0.001953125,0.03710938,0.01953125,0,-0.006103516,-0.003295898,-0.04248047,0,0,-0.02294922,0.3105164,4.007,0,0,0,0.2999878,nan,4,9.765,1,128,0.3537598,0.330719,0.2626648,0.2949524,0.015625,0.03125,0,1,3,0
153.984,0.00101,0.04101562,-0.1367188,0.00390625,-2.234375,-4.257812,8.914062,0.01757812,-0.05078125,0,0.03710938,0.01953125,0,-0.006103516,-0.003417969,-0.04248047,0,0,-0.02294922,0.3105164,4.007,0,0,0,0.2999878,nan,4,9.775,1,128,0.37146,0.3382263,0.2550049,0.2774048,0.015625,0.03125,0,1,3,0.2698413
153.994,0.001013,0.2402344,-0.1621094,-0.00390625,2.320312,3.632812,12.125,0.07617188,-0.04296875,-0.005859375,0.03710938,0.01953125,0,-0.006103516,-0.003295898,-0.04260254,0,0,-0.02294922,0.3105164,4.007,0,0,0,0.2999878,nan,4,9.785,1,128,0.3497314,0.3631592,0.2630005,0.2662048,0.015625,0.03125,0,1,3,0
154.004,0.001013,0.0546875,0.08007812,0.01171875,-2.273438,-0.4921875,9.953125,0.03710938,0.01171875,0.0078125,0.03320312,0.02148438,0,-0.005615234,-0.003540039,-0.04260254,0,0,-0.02294922,0.3105164,4.007,0,0,0,0.2999878,nan,4,9.795,1,128,0.3713379,0.3045654,0.2882996,0.2779236,0.015625,0.03125,0,1,3,0.0952381
154.014,0.001013,-0.04492188,0.01367188,-0.005859375,2.046875,-0.3828125,8,0,0.02148438,0.001953125,0.03320312,0.01953125,0,-0.005371094,-0.003295898,-0.04248047,0,0,-0.02294922,0.3105164,4.007,0,0,0,0.2999878,nan,4,9.805,1,128,0.3526001,0.3296814,0.2478943,0.3119507,0.015625,0.03125,0,1,3,0
154.025,0.00108,0.00390625,0.05664062,-0.01757812,-1.664062,4.34375,12.21875,-0.015625,0.05078125,-0.01171875,0.03320312,0.01757812,0,-0.005493164,-0.002929688,-0.04248047,0,0,-0.02294922,0.3105164,4.007,0,0,0,0.2999878,nan,4,9.815,1,128,0.3358459,0.3383179,0.2436523,0.3243103,0.015625,0.03125,0,1,3,0
154.035,0.001013,0.06445312,-0.1132812,-0.0078125,0.1484375,-5.765625,8.601562,0.015625,0.00390625,-0.009765625,0.03320312,0.01367188,0,-0.005615234,-0.002441406,-0.04260254,0,0,-0.02294922,0.3105164,4.007,0,0,0,0.2999878,nan,4,9.825,1,128,0.3573914,0.3437805,0.2539368,0.2869873,0.015625,0.03125,0,1,3,0
154.045,0.001013,-0.001953125,-0.06835938,-0.009765625,1.78125,3.492188,8.960938,0.001953125,-0.005859375,-0.0078125,0.03320312,0.015625,0,-0.005493164,-0.002563477,-0.04272461,0,0,-0.02294922,0.3105164,4.007,0,0,0,0.2999878,nan,4,9.835,1,128,0.3592224,0.3321533,0.2488403,0.3019104,0.015625,0.03125,0,1,3,0.7142857
154.055,0.001013,0.0390625,0.06640625,-0.005859375,-1.757812,0.5234375,12.16406,0.02148438,0.0078125,-0.005859375,0.03125,0.015625,0,-0.005249023,-0.002563477,-0.04272461,0,0,-0.02294922,0.3105164,4.007,0,0,0,0.2999878,nan,4,9.845,1,128,0.3531494,0.3288879,0.2632446,0.296814,0.015625,0.03125,0,1,3,0
154.064,0.000998,0.03515625,0.1191406,-0.00390625,0.9453125,-6.640625,7.320312,0.00390625,0.015625,-0.01367188,0.03125,0.015625,0,-0.005371094,-0.002563477,-0.04284668,0,0,-0.02294922,0.3105164,4.007,0,0,0,0.2999878,nan,4,9.855,1,128,0.3526306,0.322998,0.2649536,0.3015137,0.015625,0.03125,0,1,3,0.5555556
154.074,0.000959,-0.009765625,0.07617188,-0.005859375,0.9921875,2.101562,8.882812,-0.03515625,0.05664062,-0.01171875,0.03320312,0.01367188,0,-0.005615234,-0.002197266,-0.04296875,0,0,-0.02294922,0.3105164,4.007,0,0,0,0.2999878,nan,4,9.865,1,128,0.3535767,0.3137512,0.2624817,0.3122559,0.015625,0.03125,0,1,3,0
154.084,0.000994,-0.015625,-0.02148438,0.009765625,-2.6875,0.4453125,12.60156,0.01171875,-0.01367188,0.00390625,0.03320312,0.01171875,0,-0.005615234,-0.001831055,-0.04309082,0,0,-0.02294922,0.3105164,4.007,0,0,0,0.2999878,nan,4,9.875,1,128,0.3857422,0.3137512,0.2785034,0.2640991,0.015625,0.03125,0,1,3,0
154.094,0.001012,-0.01367188,-0.009765625,0.001953125,1.625,2.398438,6.554688,0.01171875,-0.0078125,0.005859375,0.03320312,0.01171875,0,-0.005615234,-0.001953125,-0.04296875,0,0,-0.02294922,0.3105164,4.007,0,0,0,0.2999878,nan,4,9.885,1,128,0.3609619,0.3262634,0.2605286,0.2943726,0.015625,0.03125,0,1,3,0
154.104,0.001029,-0.01953125,-0.04101562,-0.0234375,-2.296875,4.804688,14.28125,-0.01171875,0.001953125,-0.009765625,0.03320312,0.01171875,0,-0.005615234,-0.001953125,-0.04296875,0,0,-0.02294922,0.3105164,4.007,0,0,0,0.2999878,nan,4,9.895,1,128,0.3384094,0.3485107,0.2298889,0.3253174,0.015625,0.03125,0,1,3,0
154.114,0.0009869999,-0.0078125,-0.06054688,0.0234375,0.2265625,-6.195312,5.695312,-0.001953125,-0.03320312,0.009765625,0.03320312,0.01367188,0,-0.005615234,-0.002197266,-0.04296875,0,0,-0.02294922,0.3105164,4.007,0,0,0,0.2999878,nan,4,9.905,1,128,0.3876648,0.3097534,0.2761536,0.2685242,0.015625,0.03125,0,1,3,0
154.125,0.001014,-0.02734375,0.015625,0.009765625,1,3.070312,12.15625,-0.015625,-0.00390625,0.00390625,0.03515625,0.01367188,0,-0.005737305,-0.002319336,-0.04284668,0,0,-0.02294922,0.3105164,4.007,0,0,0,0.2999878,nan,4,9.915,1,128,0.3589478,0.322937,0.2580566,0.3021851,0.015625,0.03125,0,1,3,0
154.135,0.00102,-0.02734375,-0.02148438,0.009765625,-1.421875,-3.226562,9.25,-0.0078125,0.00390625,0.005859375,0.03515625,0.01171875,0,-0.005859375,-0.002075195,-0.04284668,0,0,-0.02294922,0.3105164,4.007,0,0,0,0.2999878,nan,4,9.925,1,128,0.365448,0.3246765,0.2590637,0.2929077,0.015625,0.03125,0,1,3,0.2222222
154.145,0.001043,-0.01367188,-0.00390625,0.00390625,1.953125,0.1171875,8,0.001953125,0.01171875,0.00390625,0.03515625,0.01171875,0,-0.005859375,-0.001953125,-0.04272461,0,0,-0.02294922,0.3105164,4.007,0,0,0,0.2999878,nan,4,9.935,1,128,0.3588562,0.3249207,0.2576599,0.3006287,0.015625,0.03125,0,1,3,0
154.155,0.001012,0.046875,0.01953125,-0.001953125,-2.304688,4.609375,12.79688,0.02148438,-0.005859375,0,0.03515625,0.01171875,0,-0.005737305,-0.002075195,-0.04284668,0,0,-0.02294922,0.3105164,4.007,0,0,0,0.2999878,nan,4,9.945,1,128,0.3598022,0.3276672,0.2666016,0.2880249,0.015625,0.03125,0,1,3,0
154.164,0.000992,0.01367188,-0.001953125,0.0078125,-0.875,-4.476562,10.10938,0.0078125,0.00390625,0.005859375,0.03320312,0.01367188,0,-0.005615234,-0.002075195,-0.04272461,0,0,-0.02294922,0.3105164,4.007,0,0,0,0.2999878,nan,4,9.955,1,128,0.3654175,0.3141174,0.2702942,0.2922668,0.01660156,0.03125,0,1,3,0
154.174,0.001017,0.06835938,-0.09960938,0.00390625,2.414062,0.4609375,5.390625,0.02734375,-0.005859375,0.0078125,0.03320312,0.009765625,0,-0.005493164,-0.001586914,-0.04272461,0,0,-0.02294922,0.3105164,4.007,0,0,0,0.2999878,nan,4,9.965,1,128,0.3772888,0.3300781,0.2626953,0.2720642,0.01660156,0.03125,0,1,3,0
154.184,0.001008,-0.05078125,-0.05078125,0.005859375,-1.757812,5.039062,13.35156,0.0078125,-0.01367188,0.005859375,0.03125,0.009765625,0,-0.005371094,-0.001708984,-0.04272461,0,0,-0.02294922,0.3105164,4.007,0,0,0,0.2999878,nan,4,9.975,1,128,0.3706055,0.3221741,0.2589722,0.2903442,0.01660156,0.03125,0,1,3,0
154.194,0.001013,-0.03710938,0.01953125,-0.015625,0.8515625,-2.929688,7.367188,0.00390625,-0.005859375,0,0.03125,0.009765625,0,-0.005249023,-0.001708984,-0.04260254,0,0,-0.02294922,0.3105164,4.007,0,0,0,0.2999878,nan,4,9.985,1,128,0.3474121,0.3384705,0.2441406,0.3121033,0.01660156,0.03125,0,1,3,0
154.204,0.001013,-0.04492188,-0.00390625,0,-0.53125,4.515625,13.85938,0.009765625,-0.01953125,0.005859375,0.03125,0.01171875,0,-0.005249023,-0.001831055,-0.04248047,0,0,-0.02294922,0.3105164,4.008,0,0,0,0.2999878,nan,4,9.995,1,128,0.3638916,0.3251343,0.259552,0.2935181,0.01660156,0.03125,0,1,3,0
154.214,0.001013,-0.04492188,0.203125,0.00390625,-0.1640625,-4.664062,10.11719,-0.01171875,0.05859375,-0.00390625,0.03125,0.01171875,0,-0.005126953,-0.001953125,-0.04260254,0,0,-0.02294922,0.3105164,4.008,0,0,0,0.2999878,nan,4,10.005,1,128,0.3468018,0.3055115,0.2686768,0.3211365,0.01660156,0.03125,0,1,3,0
154.225,0.001054,0.02734375,-0.015625,0.0078125,1.859375,1.578125,7.265625,-0.009765625,0.0234375,0.001953125,0.03125,0.005859375,0,-0.005249023,-0.001098633,-0.04260254,0,0,-0.02294922,0.3105164,4.008,0,0,0,0.2999878,nan,4,10.015,1,128,0.3748169,0.3242798,0.262207,0.2807922,0.01660156,0.03125,0,1,3,0
154.235,0.001013,-0.015625,-0.01367188,0,-1.320312,3.460938,13.48438,-0.009765625,0.02148438,0.001953125,0.03125,0.005859375,0,-0.005371094,-0.0009765625,-0.04248047,0,0,-0.02294922,0.3105164,4.008,0,0,0,0.2999878,nan,4,10.025,1,128,0.3592224,0.3247986,0.2561951,0.3018799,0.01660156,0.03125,0,1,3,0
154.245,0.001017,0.001953125,-0.0234375,-0.001953125,-0.1640625,-6.953125,4.671875,-0.00390625,0.005859375,-0.001953125,0.03125,0.00390625,0,-0.005371094,-0.0007324219,-0.04260254,0,0,-0.02294922,0.3105164,4.008,0,0,0,0.2999878,nan,4,10.035,1,128,0.3634338,0.3262329,0.2576904,0.2947388,0.01660156,0.03125,0,1,3,0
154.255,0.001001,0.02539062,0.05859375,0.01367188,1.617188,4.820312,13.46875,0.01757812,0.00390625,-0.001953125,0.03320312,0.00390625,0,-0.005371094,-0.0006103516,-0.04260254,0,0,-0.02294922,0.3105164,4.008,0,0,0,0.2999878,nan,4,10.045,1,128,0.3616028,0.3230591,0.2709656,0.2864685,0.01660156,0.03125,0,1,3,0
154.264,0.001025,-0.1660156,-0.09765625,0.005859375,-2.320312,2.40625,10.10938,-0.06054688,-0.01757812,0.001953125,0.03320312,0.00390625,0,-0.005371094,-0.0006103516,-0.04260254,0,0,-0.02294922,0.3105164,4.008,0,0,0,0.2999878,nan,4,10.055,1,128,0.3843079,0.3136597,0.2407532,0.3033752,0.01660156,0.03125,0,1,3,0
154.274,0.001018,0.0234375,0.1191406,0.0078125,1.257812,-4.304688,8,-0.01367188,0.05273438,0.001953125,0.03515625,0.001953125,0,-0.005859375,-0.0002441406,-0.04260254,0,0,-0.02294922,0.3105164,4.008,0,0,0,0.2999878,nan,4,10.065,1,128,0.3579712,0.3108826,0.2784119,0.2948608,0.01660156,0.03125,0,1,3,0
154.284,0.001004,0.01171875,0.03320312,0.01367188,0.890625,3.4375,11.09375,0.009765625,0.03320312,0.00390625,0.03515625,-0.001953125,0,-0.005859375,0.0002441406,-0.04260254,0,0,-0.02294922,0.3105164,4.008,0,0,0,0.2999878,nan,4,10.075,1,128,0.3615112,0.3178711,0.2715149,0.2912292,0.01660156,0.03125,0,1,3,0
154.294,0.001007,-0.015625,-0.00390625,-0.01953125,0.15625,-5.679688,9.453125,0.009765625,-0.00390625,-0.001953125,0.03515625,-0.001953125,0,-0.005859375,0.0002441406,-0.04260254,0,0,-0.02294922,0.3105164,4.008,0,0,0,0.2999878,nan,4,10.085,1,128,0.3511963,0.3369446,0.2490234,0.3049316,0.01660156,0.03125,0,1,3,0
154.304,0.001007,0.015625,-0.04882812,-0.005859375,1.9375,2.367188,7.875,-0.00390625,0.00390625,-0.005859375,0.03515625,-0.001953125,0,-0.005859375,0.0003662109,-0.04260254,0,0,-0.02294922,0.3105164,4.008,0,0,0,0.2999878,nan,4,10.095,1,128,0.3574829,0.32724,0.2568665,0.3005066,0.01660156,0.03125,0,1,3,0
154.314,0.001014,0.01757812,0.03125,-0.00390625,-1.84375,1.210938,12.33594,-0.0078125,0.06835938,-0.009765625,0.03515625,-0.005859375,0,-0.005859375,0.0009765625,-0.04272461,0,0,-0.02294922,0.3105164,4.008,0,0,0,0.2999878,nan,4,10.105,1,128,0.3478699,0.3238831,0.2571716,0.3132324,0.01660156,0.03125,0,1,3,0
154.325,0.001006,-0.01953125,0.0234375,-0.009765625,1.539062,-2.507812,6.757812,0.00390625,0.01757812,-0.009765625,0.03515625,-0.0078125,0,-0.005981445,0.001342773,-0.04284668,0,0,-0.02294922,0.3105164,4.008,0,0,0,0.2999878,nan,4,10.115,1,128,0.358429,0.3310547,0.2524414,0.3001709,0.01660156,0.03125,0,1,3,0
154.335,0.00102,0.00390625,-0.005859375,0.009765625,-0.6171875,6.382812,15.26562,0.02148438,0,0.01757812,0.03515625,-0.009765625,0,-0.005859375,0.001464844,-0.04272461,0,0,-0.02294922,0.3105164,4.008,0,0,0,0.2999878,nan,4,10.125,1,128,0.3817444,0.3057251,0.2844238,0.2702026,0.01660156,0.03125,0,1,3,0
154.345,0.001007,0.06640625,0.06445312,0.001953125,0.53125,-4.773438,7.546875,0.01757812,0.03515625,0,0.03515625,-0.009765625,0,-0.005859375,0.001708984,-0.04272461,0,0,-0.02294922,0.3105164,4.008,0,0,0,0.2999878,nan,4,10.135,1,128,0.3431091,0.3282776,0.2662659,0.3044434,0.01660156,0.03125,0,1,3,0
154.355,0.001007,-0.04296875,0.05859375,-0.001953125,0.46875,3.210938,12.03125,0.009765625,0.046875,-0.001953125,0.03515625,-0.01171875,0,-0.005859375,0.001831055,-0.04272461,0,0,-0.02294922,0.3105164,4.008,0,0,0,0.2999878,nan,4,10.145,1,128,0.3519592,0.312561,0.2722168,0.3053589,0.01660156,0.03125,0,1,3,0
154.364,0.000953,-0.01171875,0.0078125,-0.01367188,-2.585938,2.703125,14.92188,0.01757812,-0.02148438,-0.01171875,0.03320312,-0.009765625,0,-0.005737305,0.001708984,-0.04284668,0,0,-0.02294922,0.3105164,4.008,0,0,0,0.2999878,nan,4,10.155,1,128,0.3499756,0.3357239,0.2496948,0.3067017,0.01660156,0.03125,0,1,3,0
154.374,0.001007,-0.03125,-0.02929688,-0.005859375,0.75,-3.539062,3.820312,-0.005859375,-0.01367188,-0.009765625,0.03320312,-0.009765625,0,-0.005615234,0.001464844,-0.04296875,0,0,-0.02294922,0.3105164,4.008,0,0,0,0.2999878,nan,4,10.165,1,128,0.3643494,0.3194885,0.2559509,0.3023071,0.01660156,0.03125,0,1,3,0
154.384,0.001019,-0.07226562,0.009765625,-0.02148438,0.046875,5.695312,13.72656,0.0078125,0.005859375,-0.005859375,0.03320312,-0.009765625,0,-0.005371094,0.001586914,-0.04296875,0,0,-0.02294922,0.3105164,4.008,0,0,0,0.2999878,nan,4,10.175,1,128,0.3482361,0.3318176,0.2480164,0.3140259,0.01660156,0.03125,0,1,3,0
154.394,0.001007,-0.005859375,-0.0546875,-0.02148438,-1.414062,-5.882812,10.32812,0.02539062,-0.03710938,-0.009765625,0.03125,-0.0078125,0,-0.005371094,0.001220703,-0.04296875,0,0,-0.02294922,0.3105164,4.008,0,0,0,0.2999878,nan,4,10.185,1,128,0.3482056,0.3426208,0.2494507,0.3018188,0.01660156,0.03125,0,1,3,0
154.404,0.001007,-0.07226562,0.05664062,0.009765625,1.171875,3.96875,13.47656,-0.0546875,0.02148438,0.009765625,0.03125,-0.005859375,0,-0.005371094,0.0009765625,-0.04296875,0,0,-0.02294922,0.3105164,4.008,0,0,0,0.2999878,nan,4,10.195,1,128,0.3820496,0.282135,0.2750549,0.302887,0.01660156,0.03125,0,1,3,0
154.414,0.001007,-0.03515625,-0.01171875,0.01367188,-1.351562,-3.070312,11.51562,-0.01757812,0.01757812,0.01171875,0.03320312,-0.0078125,0,-0.005493164,0.001220703,-0.04284668,0,0,-0.02294922,0.3105164,4.008,0,0,0,0.2999878,nan,4,10.205,1,128,0.364502,0.3130188,0.2671509,0.2974243,0.01660156,0.03125,0,1,3,0
154.425,0.001006,0.0078125,-0.03320312,0.009765625,2.5,-1.117188,5.789062,-0.0078125,-0.005859375,0.00390625,0.03320312,-0.0078125,0,-0.005615234,0.001220703,-0.04284668,0,0,-0.02294922,0.3105164,4.008,0,0,0,0.2999878,nan,4,10.215,1,128,0.3597107,0.3265686,0.2547913,0.3010559,0.01660156,0.03125,0,1,3,0
154.435,0.001007,-0.01367188,0.03710938,0.005859375,-1.09375,4.492188,12.92188,0.0078125,-0.001953125,0.009765625,0.03320312,-0.005859375,0,-0.005493164,0.001098633,-0.04272461,0,0,-0.02294922,0.3105164,4.008,0,0,0,0.2999878,nan,4,10.225,1,128,0.3666992,0.3123169,0.2719727,0.2911072,0.01660156,0.03125,0,1,3,0
154.445,0.001007,0.07226562,-0.1425781,0,-0.9921875,-7.4375,8.023438,0.01367188,0,-0.001953125,0.03320312,-0.0078125,0,-0.005615234,0.001098633,-0.04272461,0,0,-0.02294922,0.3105164,4.008,0,0,0,0.2999878,nan,4,10.235,1,128,0.3526611,0.3354187,0.2566833,0.2973328,0.01660156,0.03125,0,1,3,0
154.455,0.001007,0.009765625,-0.02734375,-0.01953125,2.585938,2.25,8.992188,0.009765625,-0.02929688,-0.001953125,0.03320312,-0.005859375,0,-0.005493164,0.001098633,-0.04272461,0,0,-0.02294922,0.3105164,4.008,0,0,0,0.2999878,nan,4,10.245,1,128,0.3577576,0.339325,0.2467041,0.2983093,0.01660156,0.03125,0,1,3,0.4444444
154.464,0.001022,0.04882812,-0.046875,-0.00390625,-1.453125,5.765625,12.82031,0.04492188,-0.015625,0,0.03125,-0.005859375,0,-0.005126953,0.0009765625,-0.04272461,0,0,-0.02294922,0.3105164,4.008,0,0,0,0.2999878,nan,4,10.255,1,128,0.3589478,0.3302002,0.2652893,0.2876587,0.01660156,0.03125,0,1,3,0
154.474,0.00102,-0.04296875,0.01953125,-0.00390625,0.2421875,-7.257812,8.726562,-0.0078125,0.01757812,0,0.03125,-0.0078125,0,-0.005126953,0.001098633,-0.04272461,0,0,-0.02294922,0.3105164,4.008,0,0,0,0.2999878,nan,4,10.265,1,128,0.3587952,0.3216553,0.2528381,0.3088379,0.01660156,0.03125,0,1,3,0
154.484,0.001016,-0.0546875,0.02148438,-0.015625,0.71875,1.476562,8.648438,-0.01367188,-0.01367188,-0.005859375,0.03125,-0.005859375,0,-0.005126953,0.001098633,-0.04272461,0,0,-0.02294922,0.3105164,4.008,0,0,0,0.2999878,nan,4,10.275,1,128,0.3508911,0.3354187,0.2411499,0.3146667,0.01757812,0.03125,0,1,3,0
154.494,0.001013,-0.06640625,0.09765625,-0.001953125,-1.601562,0.8828125,15.17969,-0.01757812,0.03515625,-0.001953125,0.03125,-0.0078125,0,-0.005126953,0.001342773,-0.04272461,0,0,-0.02294922,0.3105164,4.008,0,0,0,0.2999878,nan,4,10.285,1,128,0.3655701,0.3032837,0.2687073,0.3045349,0.01757812,0.03125,0,1,3,0
154.504,0.001013,-0.01757812,-0.01757812,0.0078125,1.320312,0.8125,5.710938,-0.04296875,0.02148438,0,0.03320312,-0.009765625,0,-0.005493164,0.001464844,-0.04284668,0,0,-0.02294922,0.3105164,4.008,0,0,0,0.2999878,nan,4,10.295,1,128,0.3727417,0.3084106,0.2651978,0.2957458,0.01757812,0.03125,0,1,3,0
154.514,0.001013,0.015625,0.02539062,-0.001953125,-2.179688,4.304688,15.15625,-0.0078125,0.005859375,0.005859375,0.03515625,-0.009765625,0,-0.005737305,0.001708984,-0.04272461,0,0,-0.02294922,0.3105164,4.008,0,0,0,0.2999878,nan,4,10.305,1,128,0.3612976,0.3233948,0.2637329,0.2937012,0.01757812,0.03125,0,1,3,0
154.525,0.001014,-0.02734375,0.02929688,0.00390625,0.171875,-7.945312,4.960938,-0.005859375,0.001953125,0.001953125,0.03515625,-0.01171875,0,-0.005737305,0.001831055,-0.04272461,0,0,-0.02294922,0.3105164,4.008,0,0,0,0.2999878,nan,4,10.315,1,128,0.3598328,0.323761,0.2565918,0.3019409,0.01757812,0.03125,0,1,3,0.07936508
154.535,0.001013,0.0546875,-0.05664062,-0.0078125,1.59375,5.148438,10.74219,0.01171875,-0.00390625,-0.009765625,0.03515625,-0.01171875,0,-0.005737305,0.001831055,-0.04284668,0,0,-0.02294922,0.3105164,4.008,0,0,0,0.2999878,nan,4,10.325,1,128,0.352478,0.3336487,0.2572021,0.2987976,0.01757812,0.03125,0,1,3,0
154.545,0.001013,-0.05078125,0.02929688,-0.03320312,-1.820312,-0.703125,10.875,-0.03125,0.0078125,-0.02539062,0.03515625,-0.009765625,0,-0.005737305,0.001831055,-0.04296875,0,0,-0.02294922,0.3105164,4.008,0,0,0,0.2999878,nan,4,10.335,1,128,0.3440552,0.3349609,0.2324829,0.3305969,0.01757812,0.03125,0,1,3,0
154.555,0.001012,-0.001953125,-0.02148438,0,1.109375,-0.203125,7.5,-0.0234375,0.05273438,-0.01171875,0.03710938,-0.01367188,0,-0.006103516,0.002197266,-0.04321289,0,0,-0.02294922,0.3105164,4.008,0,0,0,0.2999878,nan,4,10.345,1,128,0.3664551,0.3043823,0.2767944,0.2944641,0.01757812,0.03125,0,1,3,0
154.564,0.001013,0.0078125,0.02734375,0.009765625,0.53125,3.875,12.73438,-0.009765625,0.0234375,0.001953125,0.03710938,-0.01367188,0,-0.006225586,0.002319336,-0.04321289,0,0,-0.02294922,0.3105164,4.008,0,0,0,0.2999878,nan,4,10.354,1,128,0.3766479,0.3015442,0.2803345,0.2835999,0.01757812,0.03125,0,1,3,0
154.574,0.000997,-0.05664062,0.0390625,-0.009765625,-1.523438,-4.445312,9.382812,0,0.03320312,-0.001953125,0.03710938,-0.015625,0,-0.006225586,0.002563477,-0.04321289,0,0,-0.02294922,0.3105164,4.008,0,0,0,0.2999878,nan,4,10.365,1,128,0.3501892,0.3204346,0.2591858,0.3123169,0.01757812,0.03125,0,1,3,0
154.584,0.001008,-0.02539062,0.001953125,-0.01171875,2.78125,-0.03125,6.6875,-0.005859375,0.01171875,-0.00390625,0.03710938,-0.015625,0,-0.006225586,0.002563477,-0.04321289,0,0,-0.02294922,0.3105164,4.008,0,0,0,0.2999878,nan,4,10.375,1,128,0.3546753,0.3220825,0.2553711,0.309967,0.01757812,0.03125,0,1,3,0
154.594,0.001011,-0.03515625,0.0078125,-0.01953125,-2.648438,4.171875,14.23438,0.005859375,0.0390625,-0.00390625,0.03710938,-0.015625,0,-0.006103516,0.002685547,-0.04321289,0,0,-0.02294922,0.3105164,4.008,0,0,0,0.2999878,nan,4,10.385,1,128,0.3423157,0.3269653,0.2522888,0.3205566,0.01757812,0.03125,0,1,3,0
154.604,0.001013,0.0546875,0.005859375,0.0078125,2.523438,-3.046875,7.492188,-0.0078125,0.03125,-0.005859375,0.0390625,-0.01757812,0,-0.006347656,0.003051758,-0.04333496,0,0,-0.02294922,0.3105164,4.008,0,0,0,0.2999878,nan,4,10.395,1,128,0.3595886,0.3198242,0.2675476,0.2951355,0.01757812,0.03125,0,1,3,0
154.614,0.001013,0.06054688,0.0234375,0,-0.9296875,5.828125,14.67969,0,0.03125,-0.001953125,0.0390625,-0.01953125,0,-0.006591797,0.003417969,-0.04333496,0,0,-0.02294922,0.3105164,4.008,0,0,0,0.2999878,nan,4,10.405,1,128,0.3526001,0.3230591,0.2648926,0.3015442,0.01757812,0.03125,0,1,3,0
154.625,0.001013,-0.009765625,0.01171875,0.001953125,0.203125,-5.289062,9.734375,-0.005859375,0.001953125,0.00390625,0.0390625,-0.01953125,0,-0.006713867,0.003417969,-0.04333496,0,0,-0.02294922,0.3105164,4.008,0,0,0,0.2999878,nan,4,10.415,1,128,0.361908,0.3175354,0.2649536,0.297699,0.01757812,0.03125,0,1,3,0
154.635,0.001013,0.01953125,0.02734375,0.005859375,1.492188,1.171875,7.617188,-0.005859375,0.02929688,0.001953125,0.04101562,-0.02148438,0,-0.006713867,0.003662109,-0.04333496,0,0,-0.02294922,0.3105164,4.008,0,0,0,0.2999878,nan,4,10.425,1,128,0.3630981,0.3139954,0.2676086,0.2973938,0.01757812,0.03027344,0,1,3,0
154.645,0.001013,-0.04101562,0.01757812,-0.01757812,-2.328125,2.492188,13.4375,-0.00390625,-0.00390625,-0.009765625,0.04101562,-0.0234375,0,-0.006713867,0.00378418,-0.04333496,0,0,-0.02294922,0.3105164,4.008,0,0,0,0.2999878,nan,4,10.435,1,128,0.3506165,0.3330383,0.2452393,0.3132324,0.01757812,0.03027344,0,1,3,0
154.655,0.001014,0.001953125,0.005859375,-0.0234375,0.3828125,-3.390625,6.929688,0.005859375,0.04882812,-0.015625,0.0390625,-0.0234375,0,-0.006713867,0.00390625,-0.04345703,0,0,-0.02294922,0.3105164,4.008,0,0,0,0.2999878,nan,4,10.445,1,128,0.3411865,0.3226929,0.2564697,0.3217468,0.01757812,0.03027344,0,1,3,0
154.664,0.001005,0.02539062,-0.03710938,0.03125,1.765625,3.109375,9.75,0.015625,0.0078125,0.01757812,0.0390625,-0.02539062,0,-0.006591797,0.004150391,-0.0435791,0,0,-0.02294922,0.3105164,4.008,0,0,0,0.2999878,nan,4,10.454,1,128,0.4060364,0.2774658,0.3088074,0.2498169,0.01757812,0.03027344,0,1,3,0
154.674,0.001012,0.03320312,-0.07421875,-0.01171875,-1.84375,-0.09375,10.64062,0.009765625,-0.02734375,0.001953125,0.0390625,-0.0234375,0,-0.006469727,0.00402832,-0.04345703,0,0,-0.02294922,0.3105164,4.008,0,0,0,0.2999878,nan,4,10.465,1,128,0.3512573,0.3415833,0.2417908,0.3074646,0.01757812,0.03027344,0,1,3,0
154.684,0.001003,-0.02148438,-0.01171875,-0.02929688,0.3984375,-2.648438,4.273438,-0.01171875,-0.01171875,-0.01367188,0.0390625,-0.0234375,0,-0.006591797,0.00402832,-0.04345703,0,0,-0.02294922,0.3105164,4.008,0,0,0,0.2999878,nan,4,10.475,1,128,0.3343811,0.3477173,0.2281799,0.3318481,0.01757812,0.03027344,0,1,3,0
154.694,0.001005,0.03320312,-0.08007812,-0.015625,-0.7578125,6.132812,14.78125,0.02539062,-0.04882812,-0.01757812,0.0390625,-0.0234375,0,-0.006591797,0.00378418,-0.0435791,0,0,-0.02294922,0.3105164,4.008,0,0,0,0.2999878,nan,4,10.485,1,128,0.3490601,0.3485107,0.2442322,0.300293,0.01757812,0.03027344,0,1,3,0
154.704,0.001008,-0.125,0.06640625,0.005859375,0.71875,-4.109375,5.148438,-0.05664062,-0.0703125,-0.009765625,0.0390625,-0.01953125,0,-0.006591797,0.003173828,-0.04370117,0,0,-0.02294922,0.3105164,4.008,0,0,0,0.2999878,nan,4,10.495,1,128,0.3897705,0.2981262,0.2562866,0.2979126,0.01757812,0.03027344,0,1,3,0
154.714,0.001007,0.03710938,0.0234375,0.01757812,0.0078125,5.265625,14.55469,-0.0078125,0.005859375,0.01367188,0.04101562,-0.01757812,0,-0.006835938,0.003051758,-0.04370117,0,0,-0.02294922,0.3105164,4.008,0,0,0,0.2999878,nan,4,10.505,1,128,0.3736572,0.297699,0.288147,0.2826233,0.01855469,0.03027344,0,1,3,0
154.724,0.001007,0.015625,-0.05664062,-0.00390625,-1.390625,-7.242188,7.570312,0.001953125,-0.015625,0,0.04101562,-0.01757812,0,-0.006958008,0.003051758,-0.0435791,0,0,-0.02294922,0.3105164,4.008,0,0,0,0.2999878,nan,4,10.515,1,128,0.3555298,0.3340454,0.2491455,0.3034058,0.01855469,0.03027344,0,1,3,0
154.735,0.001007,0.03125,-0.02148438,0.00390625,2.453125,2.953125,10.33594,0.001953125,-0.015625,-0.00390625,0.04101562,-0.01757812,0,-0.006958008,0.003051758,-0.04370117,0,0,-0.02294922,0.3105164,4.008,0,0,0,0.2999878,nan,4,10.525,1,128,0.3632202,0.323761,0.2603149,0.2947998,0.01855469,0.03027344,0,1,3,0
154.745,0.001007,-0.02148438,0.15625,-0.01757812,-2.289062,1.539062,12.65625,0.00390625,0.0234375,-0.01171875,0.04101562,-0.01757812,0,-0.006958008,0.003051758,-0.04370117,0,0,-0.02294922,0.3105164,4.008,0,0,0,0.2999878,nan,4,10.535,1,128,0.3392029,0.3276978,0.2534485,0.3217773,0.01855469,0.03027344,0,1,3,0
154.755,0.001006,-0.009765625,0.08789062,-0.01367188,1.726562,-2.3125,6.90625,-0.01367188,0.04492188,-0.009765625,0.04296875,-0.01953125,0,-0.007080078,0.003417969,-0.04382324,0,0,-0.02294922,0.3105164,4.008,0,0,0,0.2999878,nan,4,10.545,1,128,0.3512268,0.3141174,0.2636108,0.3131409,0.01855469,0.03027344,0,1,3,0
154.765,0.001005,0.04101562,0.03125,0.02734375,-0.765625,4.148438,14.53906,0.005859375,0.01953125,0.009765625,0.04296875,-0.02148438,0,-0.007202148,0.003417969,-0.04382324,0,0,-0.02294922,0.3105164,4.008,0,0,0,0.2999878,nan,4,10.555,1,128,0.3816528,0.2901306,0.2975769,0.2727356,0.01855469,0.03027344,0,1,3,0
154.774,0.001003,0.005859375,0.00390625,0.015625,-2.390625,-0.5078125,11.25781,-0.00390625,-0.005859375,0.005859375,0.04296875,-0.02148438,0,-0.007202148,0.003417969,-0.04382324,0,0,-0.02294922,0.3105164,4.008,0,0,0,0.2999878,nan,4,10.565,1,128,0.368866,0.3148193,0.2604065,0.2980042,0.01855469,0.03027344,0,1,3,0
154.784,0.001014,-0.00390625,-0.0078125,0.009765625,1.71875,-1.179688,6.445312,0.01171875,0.005859375,0.01171875,0.04296875,-0.02148438,0,-0.007080078,0.003540039,-0.04370117,0,0,-0.02294922,0.3105164,4.008,0,0,0,0.2999878,nan,4,10.575,1,128,0.3626404,0.31604,0.2650146,0.2984009,0.01855469,0.03027344,0,1,3,0
154.794,0.001009,-0.001953125,0.03710938,-0.005859375,-1.601562,3.84375,13.42188,0.01171875,0,0,0.04296875,-0.02148438,0,-0.007080078,0.003417969,-0.0435791,0,0,-0.02294922,0.3105164,4.008,0,0,0,0.2999878,nan,4,10.585,1,128,0.3494873,0.3277893,0.253418,0.3114014,0.01855469,0.03027344,0,1,3,0
154.804,0.001014,0.05273438,0.1054688,-0.01171875,0.859375,-4.101562,6.21875,0.001953125,0.02929688,-0.01171875,0.04296875,-0.02148438,0,-0.007202148,0.003417969,-0.04370117,0,0,-0.02294922,0.3105164,4.008,0,0,0,0.2999878,nan,4,10.595,1,128,0.3373718,0.325531,0.2587891,0.3204346,0.01855469,0.03027344,0,1,3,0
154.814,0.001021,-0.02734375,-0.06054688,-0.02539062,-0.0859375,5.101562,11.17188,0.00390625,-0.01171875,-0.01171875,0.04296875,-0.0234375,0,-0.007324219,0.00390625,-0.04382324,0,0,-0.02294922,0.3105164,4.008,0,0,0,0.2999878,nan,4,10.605,1,128,0.3586121,0.3403931,0.2417297,0.3013611,0.01855469,0.03027344,0,1,3,0
154.824,0.001013,-0.09765625,0.01953125,-0.01171875,-0.28125,-4.78125,9.59375,-0.005859375,0.001953125,0,0.04296875,-0.0234375,0,-0.007080078,0.00402832,-0.04382324,0,0,-0.02294922,0.3105164,4.008,0,0,0,0.2999878,nan,4,10.615,1,128,0.3666687,0.3143311,0.2531128,0.3080139,0.01855469,0.03027344,0,1,3,0
154.835,0.001013,0.001953125,0.06445312,-0.005859375,0.953125,0.0546875,7.140625,0,0.01171875,-0.001953125,0.04296875,-0.02539062,0,-0.007202148,0.004150391,-0.04382324,0,0,-0.02294922,0.3105164,4.008,0,0,0,0.2999878,nan,4,10.625,1,128,0.3607788,0.3175354,0.2616272,0.3021545,0.01855469,0.03027344,0,1,3,0
154.845,0.001013,-0.078125,0.1035156,0.005859375,-2.085938,4.664062,15.02344,-0.02734375,0.04882812,0.005859375,0.04296875,-0.02539062,0,-0.007202148,0.004394531,-0.04382324,0,0,-0.02294922,0.3105164,4.008,0,0,0,0.2999878,nan,4,10.635,1,128,0.3672791,0.2921448,0.274353,0.3083191,0.01855469,0.03027344,0,1,3,0
154.855,0.001013,0.0078125,0.02734375,-0.009765625,0.3125,-4.8125,7.726562,0,-0.001953125,-0.00390625,0.04492188,-0.02734375,0,-0.007324219,0.004638672,-0.04382324,0,0,-0.02294922,0.3105164,4.006,0,0,0,0.2999878,nan,4,10.645,1,128,0.3547363,0.3323059,0.2492065,0.3058472,0.01855469,0.03027344,0,1,3,0
154.865,0.001015,0.01171875,-0.1113281,0.01367188,1.265625,3.492188,9.828125,-0.01757812,-0.009765625,0,0.04492188,-0.02929688,0,-0.007568359,0.004882812,-0.04394531,0,0,-0.02294922,0.3105164,4.006,0,0,0,0.2999878,nan,4,10.655,1,128,0.3777161,0.3150635,0.2621765,0.2871399,0.01855469,0.03027344,0,1,3,0
154.874,0.00101,-0.02148438,-0.05273438,0.01171875,-1.828125,3.296875,14.61719,-0.05664062,-0.04882812,0.00390625,0.046875,-0.02734375,0,-0.0078125,0.004760742,-0.04394531,0,0,-0.02294922,0.3105164,4.006,0,0,0,0.2999878,nan,4,10.665,1,128,0.387085,0.3079224,0.2529907,0.2940979,0.01855469,0.03027344,0,1,3,0
154.884,0.001003,0.01367188,0.06445312,0.01953125,0.40625,-3.914062,7.421875,0,0.03515625,0.0078125,0.04882812,-0.02734375,0,-0.008056641,0.004516602,-0.04382324,0,0,-0.02294922,0.3105164,4.006,0,0,0,0.2999878,nan,4,10.675,1,128,0.3569946,0.2972412,0.2870483,0.3008118,0.01855469,0.03027344,0,1,3,0
154.894,0.001003,-0.0625,-0.01953125,0.005859375,1.828125,3.59375,9.125,-0.01757812,-0.001953125,0.009765625,0.04882812,-0.02734375,0,-0.00793457,0.004638672,-0.04370117,0,0,-0.02294922,0.3105164,4.006,0,0,0,0.2999878,nan,4,10.685,1,128,0.3626709,0.3202515,0.2487488,0.3104553,0.01855469,0.03027344,0,1,3,0.0952381
154.904,0.001001,-0.02539062,-0.04492188,-0.009765625,-1.046875,-5.445312,7.960938,0.005859375,-0.03320312,-0.001953125,0.04882812,-0.02734375,0,-0.008056641,0.004516602,-0.0435791,0,0,-0.02294922,0.3105164,4.006,0,0,0,0.2999878,nan,4,10.695,1,128,0.3510132,0.340332,0.2416687,0.3091125,0.01953125,0.03027344,0,1,3,0.3492064
154.914,0.001,0.046875,-0.07617188,0.005859375,1.921875,-0.578125,5.671875,0.00390625,-0.009765625,-0.001953125,0.04882812,-0.02734375,0,-0.008056641,0.004638672,-0.04370117,0,0,-0.02294922,0.3105164,4.006,0,0,0,0.2999878,nan,4,10.705,1,128,0.3675232,0.3191223,0.2625122,0.2929382,0.01953125,0.03027344,0,1,3,0
154.924,0.00099,0.0625,-0.109375,0.001953125,-0.7265625,5.84375,14.21875,0.01367188,-0.0390625,-0.00390625,0.04882812,-0.02734375,0,-0.008056641,0.004516602,-0.04370117,0,0,-0.02294922,0,4.006,0,0,0,0.2999878,nan,4,10.715,0,0,0,0,0,0,0,0,0,1,3,0
154.934,0.000996,0.05078125,-0.05859375,0.01953125,1.546875,3.578125,11.09375,0.03125,-0.0546875,0.00390625,0.04882812,-0.02734375,0,-0.008178711,0.004394531,-0.04370117,0,0,-0.02294922,0,4.006,0,0,0,0.2999878,nan,4,10.725,0,0,0,0,0,0,0,0,0,1,3,0
154.944,0.000996,0.00390625,0.02929688,0.02734375,1.34375,4.609375,15.21094,0.01171875,0.015625,0.01953125,0.04882812,-0.02734375,0,-0.008056641,0.004516602,-0.0435791,0,0,-0.02294922,0,4.006,0,0,0,0.2999878,nan,4,10.735,0,0,0,0,0,0,0,0,0,1,3,0
154.955,0.001016,-0.009765625,-0.005859375,0.01367188,-0.8671875,-6.882812,8.984375,-0.005859375,0.005859375,0.01953125,0.04882812,-0.02734375,0,-0.008178711,0.004516602,-0.04333496,0,0,-0.02294922,0,4.006,0,0,0,0.2999878,nan,4,10.745,0,0,0,0,0,0,0,0,0,1,3,0
154.965,0.001016,0.06445312,-0.04296875,0.0234375,0.5703125,5.796875,14.10938,0.01171875,-0.001953125,0.02148438,0.04882812,-0.02734375,0,-0.008178711,0.004638672,-0.04309082,0,0,-0.02294922,0,4.006,0,0,0,0.2999878,nan,4,10.755,0,0,0,0,0,0,0,0,0,1,3,0
154.975,0.001013,-0.001953125,-0.05664062,0.04492188,2.898438,4.953125,18.19531,-0.005859375,-0.03515625,0.03320312,0.04882812,-0.02734375,0,-0.008056641,0.004638672,-0.04284668,0,0,-0.02294922,0,4.006,0,0,0,0.2999878,nan,4,10.766,0,0,0,0,0,0,0,0,0,1,3,0
154.985,0.001021,-0.01171875,-0.03710938,0.09179688,1.828125,-3.625,9.164062,-0.02929688,-0.04101562,0.08007812,0.04882812,-0.02734375,0,-0.008422852,0.004272461,-0.04223633,0,0,-0.02294922,0,4.006,0,0,0,0.2999878,nan,4,10.776,0,0,0,0,0,0,0,0,0,1,3,1
154.994,0.000988,0.0703125,0.02734375,0.015625,1.476562,-2.953125,7.351562,0.01953125,0.02734375,0.046875,0.04882812,-0.02734375,0,-0.008422852,0.004394531,-0.04162598,0,0,-0.02294922,0,4.006,0,0,0,0.2999878,nan,4,10.785,0,0,0,0,0,0,0,0,0,1,3,0
155.004,0.001031,0.01953125,-0.06640625,0.02539062,-2.953125,0.5546875,4.28125,0.04101562,-0.009765625,0.01757812,0.04882812,-0.02734375,0,-0.008056641,0.004638672,-0.04150391,0,0,-0.02294922,0,4.006,0,0,0,0.2999878,nan,4,10.795,0,0,0,0,0,0,0,0,0,1,3,0
155.014,0.000992,0.015625,0.06835938,-0.01171875,0.4609375,3.0625,9.179688,0.00390625,0.001953125,0.00390625,0.04882812,-0.02734375,0,-0.008056641,0.004394531,-0.04125977,0,0,-0.02294922,0,4.006,0,0,0,0.2999878,nan,4,10.805,0,0,0,0,0,0,0,0,0,1,3,1
155.024,0.001011,0.06640625,-0.01171875,-0.03320312,2.0625,4.523438,11.9375,0.01367188,0.005859375,-0.02734375,0.04882812,-0.02734375,0,-0.008178711,0.004394531,-0.04150391,0,0,-0.02294922,0,4.006,0,0,0,0.2999878,nan,4,10.815,0,0,0,0,0,0,0,0,0,1,3,0
155.034,0.001031,-0.03710938,-0.01367188,-0.0234375,0.7578125,-1.351562,14.4375,0.00390625,-0.01367188,-0.02148438,0.04882812,-0.02734375,0,-0.00793457,0.004272461,-0.04174805,0,0,-0.02294922,0,4.006,0,0,0,0.2999878,nan,4,10.825,0,0,0,0,0,0,0,0,0,1,3,0
155.045,0.001011,0.02734375,0.02734375,-0.05859375,-0.8671875,0.6875,9.132812,0.0078125,0.0078125,-0.05859375,0.04882812,-0.02734375,0,-0.00793457,0.004150391,-0.04211426,0,0,-0.02294922,0,4.006,0,0,0,0.2999878,nan,4,10.835,0,0,0,0,0,0,0,0,0,1,3,1
155.055,0.001031,-0.03710938,-0.06054688,-0.03515625,-0.1953125,0.140625,10.35938,-0.00390625,0.005859375,-0.04296875,0.04882812,-0.02734375,0,-0.00793457,0.004272461,-0.04272461,0,0,-0.02294922,0,4.006,0,0,0,0.2999878,nan,4,10.845,0,0,0,0,0,0,0,0,0,1,3,1
155.065,0.001031,0.005859375,-0.001953125,-0.07421875,-1.085938,-1.203125,10.98438,0.005859375,0.005859375,-0.05664062,0.04882812,-0.02734375,0,-0.00793457,0.004272461,-0.04309082,0,0,-0.02294922,0,4.006,0,0,0,0.2999878,nan,4,10.855,0,0,0,0,0,0,0,0,0,1,3,0
155.075,0.000994,0.0546875,0.0546875,-0.06445312,-0.203125,-1.351562,8.445312,-0.0078125,0.015625,-0.07617188,0.04882812,-0.02734375,0,-0.00793457,0.004150391,-0.04394531,0,0,-0.02294922,0,4.006,0,0,0,0.2999878,nan,4,10.866,0,0,0,0,0,0,0,0,0,1,3,0
155.084,0.00102,-0.009765625,-0.046875,-0.03515625,0.421875,2.484375,10.23438,0.00390625,0.01171875,-0.04882812,0.04882812,-0.02734375,0,-0.0078125,0.004394531,-0.04455566,0,0,-0.02294922,0,4.006,0,0,0,0.2999878,nan,4,10.875,0,0,0,0,0,0,0,0,0,1,3,1
155.094,0.001006,-0.0234375,-0.05664062,-0.01953125,1.148438,-1.9375,11.07812,0,-0.01367188,-0.02148438,0.04882812,-0.02734375,0,-0.0078125,0.004272461,-0.0447998,0,0,-0.02294922,0,4.006,0,0,0,0.2999878,nan,4,10.885,0,0,0,0,0,0,0,0,0,1,3,0
155.104,0.000988,0.08007812,0.05078125,-0.04101562,0.4921875,0.3671875,8.523438,0.02734375,0.02148438,-0.03515625,0.04882812,-0.02734375,0,-0.0078125,0.004150391,-0.04504395,0,0,-0.02294922,0,4.006,0,0,0,0.2999878,nan,4,10.895,0,0,0,0,0,0,0,0,0,1,3,0
155.114,0.001009,0.05859375,0.0546875,-0.015625,-0.671875,-2.132812,13.46875,-0.01367188,0.001953125,-0.03320312,0.04882812,-0.02734375,0,-0.00793457,0.004272461,-0.04553223,0,0,-0.02294922,0,4.006,0,0,0,0.2999878,nan,4,10.905,0,0,0,0,0,0,0,0,0,1,3,0
155.124,0.001009,-0.02148438,-0.02148438,-0.009765625,-0.0546875,-1.328125,14.79688,0.005859375,0.009765625,-0.01953125,0.04882812,-0.02734375,0,-0.0078125,0.004394531,-0.04577637,0,0,-0.02294922,0,4.006,0,0,0,0.2999878,nan,4,10.915,0,0,0,0,0,0,0,0,0,1,3,0
155.134,0.00103,0.08007812,0.02148438,-0.01171875,-0.4296875,-2.773438,14.67969,0.005859375,0.005859375,-0.01367188,0.04882812,-0.02734375,0,-0.0078125,0.004394531,-0.04589844,0,0,-0.02294922,0,4.006,0,0,0,0.2999878,nan,4,10.925,0,0,0,0,0,0,0,0,0,1,3,0
155.144,0.00101,0.001953125,-0.01367188,-0.01171875,0.421875,-1.773438,14.15625,-0.0078125,-0.0078125,-0.01757812,0.04882812,-0.02734375,0,-0.0078125,0.004394531,-0.04614258,0,0,-0.02294922,0,4.006,0,0,0,0.2999878,nan,4,10.935,0,0,0,0,0,0,0,0,0,1,3,0
155.155,0.001028,0.00390625,-0.015625,-0.005859375,1.375,3.28125,6.664062,0.00390625,-0.001953125,-0.009765625,0.04882812,-0.02734375,0,-0.0078125,0.004516602,-0.04626465,0,0,-0.02294922,0,4.006,0,0,0,0.2999878,nan,4,10.945,0,0,0,0,0,0,0,0,0,1,3,0
155.165,0.001009,0.046875,0.02734375,0.00390625,-0.84375,-1.539062,11.60156,0.015625,0.0078125,0.009765625,0.04882812,-0.02734375,0,-0.0078125,0.004516602,-0.04614258,0,0,-0.02294922,0,4.006,0,0,0,0.2999878,nan,4,10.955,0,0,0,0,0,0,0,0,0,1,3,0
155.175,0.00099,-0.01367188,0.009765625,-0.0078125,0.578125,0.65625,5.398438,-0.005859375,0.00390625,-0.005859375,0.04882812,-0.02734375,0,-0.0078125,0.004516602,-0.04626465,0,0,-0.02294922,0,4.006,0,0,0,0.2999878,nan,4,10.966,0,0,0,0,0,0,0,0,0,1,3,0
155.185,0.000997,0.00390625,-0.001953125,0.009765625,0.03125,-1.578125,13.95312,-0.001953125,0.001953125,0.005859375,0.04882812,-0.02734375,0,-0.0078125,0.004638672,-0.04614258,0,0,-0.02294922,0,4.006,0,0,0,0.2999878,nan,4,10.976,0,0,0,0,0,0,0,0,0,1,3,0
155.194,0.001035,-0.0234375,0.01171875,-0.0234375,-0.7265625,-2.421875,9.742188,-0.01171875,0.00390625,-0.0078125,0.04882812,-0.02734375,0,-0.0078125,0.004638672,-0.04626465,0,0,-0.02294922,0,4.006,0,0,0,0.2999878,nan,4,10.985,0,0,0,0,0,0,0,0,0,1,3,1
155.204,0.000992,-0.015625,0.04101562,0.005859375,-1.414062,1.023438,5.304688,-0.001953125,0.0078125,-0.001953125,0.04882812,-0.02734375,0,-0.0078125,0.004638672,-0.04626465,0,0,-0.02294922,0,4.006,0,0,0,0.2999878,nan,4,10.995,0,0,0,0,0,0,0,0,0,1,3,0
155.214,0.00099,0.02734375,0.02734375,-0.00390625,-2.046875,-0.1875,8.726562,0.01953125,0.0078125,-0.005859375,0.04882812,-0.02734375,0,-0.007568359,0.004638672,-0.04626465,0,0,-0.02294922,0,4.006,0,0,0,0.2999878,nan,4,11.005,0,0,0,0,0,0,0,0,0,1,3,1
155.224,0.001002,-0.02734375,0.04882812,-0.001953125,-1.421875,-0.9296875,7.882812,-0.001953125,0.01367188,-0.015625,0.04882812,-0.02734375,0,-0.007568359,0.004638672,-0.04650879,0,0,-0.02294922,0,4.006,0,0,0,0.2999878,nan,4,11.015,0,0,0,0,0,0,0,0,0,1,3,0
155.234,0.000992,-0.06054688,-0.02539062,-0.0078125,0.4140625,-3.429688,8.851562,-0.0078125,0,-0.01367188,0.04882812,-0.02734375,0,-0.007568359,0.004638672,-0.04663086,0,0,-0.02294922,0,4.006,0,0,0,0.2999878,nan,4,11.025,0,0,0,0,0,0,0,0,0,1,3,1
155.244,0.001029,0.0234375,-0.03125,-0.02148438,2.109375,3.726562,10.50781,0.01171875,-0.00390625,-0.00390625,0.04882812,-0.02734375,0,-0.007446289,0.004638672,-0.04663086,0,0,-0.02294922,0,4.006,0,0,0,0.2999878,nan,4,11.035,0,0,0,0,0,0,0,0,0,1,3,0
155.255,0.000976,-0.01171875,0.02539062,0.009765625,-1.46875,-3.109375,10.17969,-0.00390625,0.005859375,-0.005859375,0.04882812,-0.02734375,0,-0.007446289,0.004760742,-0.04663086,0,0,-0.02294922,0,4.006,0,0,0,0.2999878,nan,4,11.045,0,0,0,0,0,0,0,0,0,1,3,1
155.265,0.001029,0.03515625,0.015625,-0.015625,0.03125,3.953125,10.73438,0.00390625,0,-0.005859375,0.04882812,-0.02734375,0,-0.007324219,0.004638672,-0.04675293,0,0,-0.02294922,0,4.006,0,0,0,0.2999878,nan,4,11.055,0,0,0,0,0,0,0,0,0,1,3,0
155.275,0.001044,-0.0078125,-0.04296875,0,1.171875,-0.1796875,9.125,0,-0.00390625,-0.001953125,0.04882812,-0.02734375,0,-0.007324219,0.004638672,-0.04675293,0,0,-0.02294922,0,4.006,0,0,0,0.2999878,nan,4,11.066,0,0,0,0,0,0,0,0,0,1,3,1
155.284,0.001048,0.009765625,-0.02734375,-0.00390625,-0.3203125,0.7109375,9.609375,0.00390625,-0.01171875,-0.005859375,0.04882812,-0.02734375,0,-0.007202148,0.004638672,-0.04675293,0,0,-0.02294922,0,4.006,0,0,0,0.2999878,nan,4,11.075,0,0,0,0,0,0,0,0,0,1,3,1
155.294,0.001019,0.02539062,0.05664062,0.00390625,-1.085938,-1.664062,10.73438,0.0078125,0.0078125,-0.0078125,0.04882812,-0.02734375,0,-0.007202148,0.004516602,-0.046875,0,0,-0.02294922,0,4.006,0,0,0,0.2999878,nan,4,11.085,0,0,0,0,0,0,0,0,0,1,3,0
155.304,0.000999,-0.04882812,-0.02734375,0.005859375,0.8125,-1.835938,10.60938,-0.01171875,-0.009765625,0.005859375,0.04882812,-0.02734375,0,-0.007080078,0.004516602,-0.046875,0,0,-0.02294922,0,4.006,0,0,0,0.2999878,nan,4,11.095,0,0,0,0,0,0,0,0,0,1,3,0
155.314,0.001002,-0.00390625,0.0703125,-0.00390625,-0.9453125,-1.703125,11.39844,-0.00390625,0.015625,0.005859375,0.04882812,-0.02734375,0,-0.007080078,0.004516602,-0.046875,0,0,-0.02294922,0,4.006,0,0,0,0.2999878,nan,4,11.105,0,0,0,0,0,0,0,0,0,1,3,0
155.324,0.000978,0.02734375,0.08398438,0.0078125,-2.539062,-1.171875,10.58594,-0.00390625,0.02734375,-0.00390625,0.04882812,-0.02734375,0,-0.007080078,0.004516602,-0.046875,0,0,-0.02294922,0,4.006,0,0,0,0.2999878,nan,4,11.115,0,0,0,0,0,0,0,0,0,1,3,0
155.334,0.000981,-0.02148438,0.1035156,-0.00390625,-1.453125,-2.429688,10.9375,-0.009765625,0.0234375,-0.001953125,0.04882812,-0.02734375,0,-0.007080078,0.004516602,-0.046875,0,0,-0.02294922,0,4.006,0,0,0,0.2999878,nan,4,11.125,0,0,0,0,0,0,0,0,0,1,3,0
155.344,0.000978,-0.04101562,0.08984375,-0.01367188,-1.296875,0.015625,11.16406,-0.001953125,0.01171875,0.001953125,0.04882812,-0.02734375,0,-0.006958008,0.004516602,-0.046875,0,0,-0.02294922,0,4.006,0,0,0,0.2999878,nan,4,11.135,0,0,0,0,0,0,0,0,0,1,3,0
155.355,0.001021,-0.01367188,0.05664062,-0.01367188,-0.1484375,-1.40625,11.17188,-0.001953125,0,0.001953125,0.04882812,-0.02734375,0,-0.006958008,0.004394531,-0.046875,0,0,-0.02294922,0,4.006,0,0,0,0.2999878,nan,4,11.145,0,0,0,0,0,0,0,0,0,1,3,0
155.365,0.000978,-0.05859375,0,0.01367188,-0.234375,-0.3671875,9.25,-0.005859375,-0.0078125,-0.005859375,0.04882812,-0.02734375,0,-0.006958008,0.004394531,-0.046875,0,0,-0.02294922,0,4.006,0,0,0,0.2999878,nan,4,11.155,0,0,0,0,0,0,0,0,0,1,3,1
155.375,0.001122,0.078125,-0.005859375,0.0078125,-0.59375,1.085938,10.04688,0.01367188,0,0.00390625,0.04882812,-0.02734375,0,-0.006958008,0.004394531,-0.046875,0,0,-0.02294922,0,4.006,0,0,0,0.2999878,nan,4,11.165,0,0,0,0,0,0,0,0,0,1,3,1
155.384,0.001053,-0.0625,-0.01953125,0.001953125,0.1640625,0.140625,9.523438,-0.009765625,-0.005859375,0,0.04882812,-0.02734375,0,-0.006835938,0.004272461,-0.046875,0,0,-0.02294922,0,4.006,0,0,0,0.2999878,nan,4,11.175,0,0,0,0,0,0,0,0,0,1,3,1
155.395,0.000961,0.04492188,0.001953125,0.01171875,-0.5,1.023438,9.578125,0.01757812,0.0078125,0,0.04882812,-0.02734375,0,-0.006835938,0.004394531,-0.046875,0,0,-0.02294922,0,4.006,0,0,0,0.2999878,nan,4,11.185,0,0,0,0,0,0,0,0,0,1,3,1
155.404,0.00097,-0.009765625,-0.01367188,0.02929688,-0.046875,-0.109375,9.625,-0.001953125,-0.0078125,0.01367188,0.04882812,-0.02734375,0,-0.006835938,0.004272461,-0.046875,0,0,-0.02294922,0,4.006,0,0,0,0.2999878,nan,4,11.195,0,0,0,0,0,0,0,0,0,1,3,1
155.414,0.000851,0.02734375,0.009765625,0.001953125,-0.2265625,0.609375,11.24219,0.00390625,0,0.005859375,0.04882812,-0.02734375,0,-0.006835938,0.004272461,-0.046875,0,0,-0.02294922,0,4.006,0,0,0,0,nan,4,0.006,0,0,0,0,0,0,0,0,0,1,3,0
155.425,0.000924,0.04101562,0.01367188,-0.01757812,-0.3359375,0.265625,10.375,0.0078125,0.00390625,-0.00390625,0.04882812,-0.02734375,0,-0.006835938,0.004272461,-0.046875,0,0,-0.02294922,0,4.006,0,0,0,0,nan,4,0.016,0,0,0,0,0,0,0,0,0,1,3,1
155.483,0.001105,0.05078125,0.01367188,0.02539062,-0.421875,0.6171875,11.39844,0.005859375,0,0.00390625,0.04882812,-0.02734375,0,-0.006835938,0.004272461,-0.046875,0,0,-0.02294922,0,4.006,0,0,0,0,nan,4,0.022,0,0,0,0,0,0,0,0,0,1,3,0
155.484,0.053139,0.0078125,0.009765625,-0.005859375,0.296875,0.078125,10.19531,0.0078125,0.009765625,-0.005859375,0.04882812,-0.02734375,0,-0.006469727,0.004638672,-0.04711914,0,0,-0.02294922,0,4.006,0,0,0,0,nan,4,0.075,0,0,0,0,0,0,0,0,0,1,3,1
155.494,0.000982,-0.001953125,-0.00390625,0.0234375,-0.1875,-0.15625,9.859375,0.001953125,-0.001953125,0,0.04882812,-0.02734375,0,-0.006347656,0.004638672,-0.04724121,0,0,-0.02294922,0,4.006,0,0,0,0,nan,4,0.086,0,0,0,0,0,0,0,0,0,1,3,1
155.504,0.001024,-0.001953125,0.00390625,-0.0078125,-0.265625,-0.0859375,9.710938,0.005859375,0.005859375,-0.00390625,0.04882812,-0.02734375,0,-0.006225586,0.004638672,-0.04711914,0,0,-0.02294922,0,4.006,0,0,0,0,nan,4,0.096,0,0,0,0,0,0,0,0,0,1,3,1
155.514,0.00102,0,-0.001953125,0.0234375,-0.0234375,0.171875,9.765625,-0.00390625,-0.00390625,0.009765625,0.04882812,-0.02734375,0,-0.006225586,0.004638672,-0.04711914,0,0,-0.02294922,0,4.006,0,0,0,0,nan,4,0.106,0,0,0,0,0,0,0,0,0,1,3,1
155.525,0.001008,-0.009765625,-0.001953125,-0.001953125,-0.1171875,0.0625,9.703125,0.001953125,0,0,0.04882812,-0.02734375,0,-0.006103516,0.004638672,-0.04711914,0,0,-0.02294922,0,4.006,0,0,0,0,nan,4,0.116,0,0,0,0,0,0,0,0,0,1,3,1
155.535,0.00102,0.00390625,0,0.01367188,-0.0546875,-0.140625,9.65625,0.001953125,0,0.001953125,0.04882812,-0.02734375,0,-0.006103516,0.004516602,-0.04711914,0,0,-0.02294922,0,4.006,0,0,0,0,nan,4,0.126,0,0,0,0,0,0,0,0,0,1,3,1
155.545,0.000996,-0.009765625,-0.00390625,0,-0.0703125,-0.015625,9.882812,0,0,-0.001953125,0.04882812,-0.02734375,0,-0.005981445,0.004516602,-0.04711914,0,0,-0.02294922,0,4.077,0,0,0,0,nan,4,0.136,0,0,0,0,0,0,0,0,0,1,3,1
155.555,0.001043,0.009765625,0.005859375,-0.00390625,0.2578125,0.203125,9.890625,0.001953125,0.001953125,-0.00390625,0.04882812,-0.02734375,0,-0.005981445,0.004516602,-0.04711914,0,0,-0.02294922,0,4.077,0,0,0,0,nan,4,0.147,0,0,0,0,0,0,0,0,0,1,3,1
155.564,0.001034,-0.0078125,-0.00390625,0,-0.078125,-0.0546875,9.765625,0,-0.001953125,0.005859375,0.04882812,-0.02734375,0,-0.005981445,0.004516602,-0.04711914,0,0,-0.02294922,0,4.077,0,0,0,0,nan,4,0.156,0,0,0,0,0,0,0,0,0,1,3,1
155.574,0.000989,0.001953125,-0.005859375,-0.00390625,-0.0625,0.0078125,9.929688,0,-0.00390625,-0.005859375,0.04882812,-0.02734375,0,-0.005981445,0.004516602,-0.04711914,0,0,-0.02294922,0,4.077,0,0,0,0,nan,4,0.166,0,0,0,0,0,0,0,0,0,1,3,1
155.584,0.001031,-0.001953125,0,-0.001953125,0.0390625,0.0234375,9.90625,-0.001953125,-0.001953125,0.001953125,0.04882812,-0.02734375,0,-0.005859375,0.004516602,-0.04711914,0,0,-0.02294922,0,4.077,0,0,0,0,nan,4,0.176,0,0,0,0,0,0,0,0,0,1,3,1
155.594,0.001046,-0.00390625,-0.005859375,0.00390625,-0.09375,0.0078125,9.789062,-0.001953125,-0.00390625,0,0.04882812,-0.02734375,0,-0.005859375,0.004394531,-0.04711914,0,0,-0.02294922,0,4.077,0,0,0,0,nan,4,0.006,0,0,0,0,0,0,0,0,0,1,3,1
155.604,0.001011,0,0,-0.005859375,0.046875,0.109375,9.78125,0,0.001953125,-0.001953125,0.04882812,-0.02734375,0,-0.005859375,0.004516602,-0.04711914,0,0,-0.02294922,0,4.077,0,0,0,0,nan,4,0.016,0,0,0,0,0,0,0,0,0,1,3,1
155.614,0.001014,0.00390625,-0.001953125,0.001953125,-0.015625,0.0859375,9.875,0,-0.001953125,0.001953125,0.04882812,-0.02734375,0,-0.005737305,0.004394531,-0.04724121,0,0,-0.02294922,0,4.077,0,0,0,0,nan,4,0.026,0,0,0,0,0,0,0,0,0,1,3,1
155.625,0.001045,-0.001953125,0,-0.005859375,-0.1015625,0.015625,9.851562,0,0,-0.001953125,0.04882812,-0.02734375,0,-0.005737305,0.004394531,-0.04724121,0,0,-0.02294922,0,4.077,0,0,0,0,nan,4,0.036,0,0,0,0,0,0,0,0,0,1,3,1
155.635,0.001009,0.005859375,0.005859375,0.00390625,0.0625,0.0078125,9.867188,0.001953125,0.001953125,0.001953125,0.04882812,-0.02734375,0,-0.005737305,0.004394531,-0.04724121,0,0,-0.02294922,0,4.077,0,0,0,0,nan,4,0.046,0,0,0,0,0,0,0,0,0,1,3,1
155.645,0.001009,-0.001953125,-0.001953125,-0.005859375,-0.03125,0.0078125,9.851562,0.001953125,0,0,0.04882812,-0.02734375,0,-0.005615234,0.004394531,-0.04711914,0,0,-0.02294922,0,4.077,0,0,0,0,nan,4,0.057,0,0,0,0,0,0,0,0,0,1,3,1
155.655,0.001001,0.00390625,0,0.001953125,-0.0234375,0.109375,9.890625,0,0,-0.001953125,0.04882812,-0.02734375,0,-0.005615234,0.004394531,-0.04724121,0,0,-0.02294922,0,4.077,0,0,0,0,nan,4,0.067,0,0,0,0,0,0,0,0,0,1,3,1
155.664,0.000959,-0.001953125,-0.001953125,0.001953125,-0.0390625,0,9.828125,0,-0.001953125,0.001953125,nan,nan,nan,-0.005615234,0.004394531,-0.04711914,0,0,-0.04711914,0,4.077,0,0,0,0,nan,2,0.076,0,0,0,0,0,0,0,0,0,1,2,1
155.674,0.001012,0,-0.00390625,-0.001953125,-0.015625,0.03125,9.828125,-0.001953125,-0.001953125,-0.001953125,nan,nan,nan,-0.005493164,0.004394531,-0.04724121,0,0,-0.04724121,0,4.077,0,0,0,0,nan,2,0.086,0,0,0,0,0,0,0,0,0,1,2,1
155.684,0.001006,0,0,0,-0.046875,0.03125,9.835938,0,0,0,nan,nan,nan,-0.005493164,0.004394531,-0.04711914,0,0,-0.04711914,0,4.077,0,0,0,0,nan,2,0.096,0,0,0,0,0,0,0,0,0,1,2,1
155.694,0.001087,0,0,0,0.015625,0.0546875,9.859375,0,0,0,nan,nan,nan,-0.005493164,0.004394531,-0.04711914,0,0,-0.04711914,0,4.077,0,0,0,0,nan,2,0.106,0,0,0,0,0,0,0,0,0,1,2,1
155.704,0.001013,0,0,0,-0.0625,0.0234375,9.828125,0,0.001953125,0.001953125,nan,nan,nan,-0.005371094,0.004272461,-0.04711914,0,0,-0.04711914,0,4.077,0,0,0,0,nan,2,0.116,0,0,0,0,0,0,0,0,0,1,2,1
155.714,0.001013,0.001953125,-0.001953125,-0.001953125,0.015625,0.0078125,9.804688,0,0,-0.001953125,nan,nan,nan,-0.005371094,0.004272461,-0.04711914,0,0,-0.04711914,0,4.077,0,0,0,0,nan,2,0.126,0,0,0,0,0,0,0,0,0,1,2,1
155.725,0.001014,0.001953125,0.001953125,0.001953125,-0.046875,0.0234375,9.90625,-0.001953125,0,0.001953125,nan,nan,nan,-0.005371094,0.004272461,-0.04711914,0,0,-0.04711914,0,4.077,0,0,0,0,nan,2,0.136,0,0,0,0,0,0,0,0,0,1,2,1
155.735,0.001013,0.001953125,0,0.001953125,0.0078125,0.03125,9.796875,0,0,0,nan,nan,nan,-0.005371094,0.004272461,-0.04711914,0,0,-0.04711914,0,4.077,0,0,0,0,nan,2,0.146,0,0,0,0,0,0,0,0,0,1,2,1
155.745,0.001016,0.001953125,0,0.001953125,-0.0390625,0.0390625,9.835938,0,0,0,nan,nan,nan,-0.005249023,0.004272461,-0.04711914,0,0,-0.04711914,0,4.077,0,0,0,0,nan,2,0.157,0,0,0,0,0,0,0,0,0,1,2,1
155.754,0.00101,0,0,-0.00390625,-0.015625,0.0546875,9.796875,0,0.001953125,-0.001953125,nan,nan,nan,-0.005249023,0.004272461,-0.04711914,0,0,-0.04711914,0,4.077,0,0,0,0,nan,2,0.166,0,0,0,0,0,0,0,0,0,1,2,1
155.764,0.001009,0.001953125,-0.00390625,0.001953125,-0.015625,0.0234375,9.789062,0.001953125,-0.001953125,0,nan,nan,nan,-0.005249023,0.004272461,-0.04711914,0,0,-0.04711914,0,4.077,0,0,0,0,nan,2,0.176,0,0,0,0,0,0,0,0,0,1,2,1
155.774,0.001005,0,-0.00390625,0.001953125,0.0078125,0.0078125,9.84375,0,-0.001953125,0,nan,nan,nan,-0.005126953,0.004272461,-0.04711914,0,0,-0.04711914,0,4.077,0,0,0,0,nan,2,0.186,0,0,0,0,0,0,0,0,0,1,2,1
155.784,0.001023,-0.001953125,-0.00390625,0.001953125,-0.0390625,-0.015625,9.84375,0,-0.001953125,0,nan,nan,nan,-0.005126953,0.004272461,-0.04711914,0,0,-0.04711914,0,4.077,0,0,0,0,nan,2,0.196,0,0,0,0,0,0,0,0,0,1,2,1
155.794,0.001009,0,-0.001953125,0.001953125,-0.0078125,0.0234375,9.773438,-0.001953125,0,0,nan,nan,nan,-0.005126953,0.004150391,-0.04711914,0,0,-0.04711914,0,4.077,0,0,0,0,nan,2,0.206,0,0,0,0,0,0,0,0,0,1,2,1
155.804,0.001009,0.001953125,-0.001953125,0.001953125,-0.0078125,0.0234375,9.875,0,-0.001953125,0,nan,nan,nan,-0.005126953,0.004150391,-0.04711914,0,0,-0.04711914,0,4.077,0,0,0,0,nan,2,0.216,0,0,0,0,0,0,0,0,0,1,2,1
155.814,0.001009,0.001953125,0,-0.001953125,0.0078125,0.0859375,9.828125,0,0,0,nan,nan,nan,-0.005004883,0.004150391,-0.04711914,0,0,-0.04711914,0,4.077,0,0,0,0,nan,2,0.226,0,0,0,0,0,0,0,0,0,1,2,1
155.825,0.001008,0.001953125,0,0,-0.0390625,0.0078125,9.859375,0.001953125,-0.001953125,0,nan,nan,nan,-0.005004883,0.004150391,-0.04711914,0,0,-0.04711914,0,4.077,0,0,0,0,nan,2,0.236,0,0,0,0,0,0,0,0,0,1,2,1
155.835,0.000988,0,-0.001953125,0.001953125,-0.015625,0.0234375,9.828125,0,0,0,nan,nan,nan,-0.005004883,0.004150391,-0.04711914,0,0,-0.04711914,0,4.077,0,0,0,0,nan,2,0.246,0,0,0,0,0,0,0,0,0,1,2,1
155.845,0.001009,-0.00390625,-0.001953125,0,-0.0078125,0.03125,9.867188,-0.001953125,-0.001953125,0,nan,nan,nan,-0.004882812,0.00402832,-0.04711914,0,0,-0.04711914,0,4.077,0,0,0,0,nan,2,0.257,0,0,0,0,0,0,0,0,0,1,2,1
155.855,0.001031,-0.001953125,0.001953125,-0.001953125,-0.015625,0.0234375,9.820312,-0.001953125,0,0,nan,nan,nan,-0.004882812,0.00402832,-0.04711914,0,0,-0.04711914,0,4.077,0,0,0,0,nan,2,0.267,0,0,0,0,0,0,0,0,0,1,2,1
155.864,0.001011,0.001953125,0,-0.001953125,0,-0.015625,9.742188,0,0.001953125,0,nan,nan,nan,-0.004882812,0.00402832,-0.04711914,0,0,-0.04711914,0,4.077,0,0,0,0,nan,2,0.276,0,0,0,0,0,0,0,0,0,1,2,1
155.874,0.000951,0.001953125,0,0.001953125,0.0078125,0.0546875,9.859375,0.001953125,0,0,nan,nan,nan,-0.004882812,0.00402832,-0.04711914,0,0,-0.04711914,0,4.077,0,0,0,0,nan,2,0.003,0,0,0,0,0,0,0,0,0,1,2,1
155.884,0.001007,0,-0.00390625,0,-0.015625,0.015625,9.851562,0,0,0,nan,nan,nan,-0.004760742,0.00402832,-0.04711914,0,0,-0.04711914,0,4.077,0,0,0,0,nan,2,0.013,0,0,0,0,0,0,0,0,0,1,2,1
155.894,0.001001,-0.001953125,-0.001953125,-0.001953125,-0.015625,0,9.882812,-0.001953125,-0.001953125,0,nan,nan,nan,-0.004760742,0.00402832,-0.04711914,0,0,-0.04711914,0,4.077,0,0,0,0,nan,2,0.023,0,0,0,0,0,0,0,0,0,1,2,1
155.904,0.001009,0,-0.001953125,0.001953125,-0.0546875,0.03125,9.851562,0.001953125,0,0.001953125,nan,nan,nan,-0.004760742,0.00402832,-0.04711914,0,0,-0.04711914,0,4.077,0,0,0,0,nan,2,0.033,0,0,0,0,0,0,0,0,0,1,2,1
155.914,0.001009,-0.001953125,0.00390625,0.001953125,0,0.0234375,9.835938,0,0,0,nan,nan,nan,-0.004638672,0.00402832,-0.04711914,0,0,-0.04711914,0,4.077,0,0,0,0,nan,2,0.043,0,0,0,0,0,0,0,0,0,1,2,1
