t,dt_s,gyro_x,gyro_y,gyro_z,acc_x,acc_y,acc_z,rates.x,rates.y,rates.z,ratesTarget.x,ratesTarget.y,ratesTarget.z,attitude.x,attitude.y,attitude.z,attitudeTarget.x,attitudeTarget.y,attitudeTarget.z,thrustTarget,battery_v,rc_roll,rc_pitch,rc_yaw,rc_throttle,rc_mode,flight_mode,rc_age_s,armed,fault_mask,motor_rl,motor_rr,motor_fr,motor_fl,rate_i_x,rate_i_y,rate_i_z,mix_scale,control_source,accel_correction_confidence
54.294,0.001057,0.02539062,-0.1679688,-0.01171875,1.53125,-0.0390625,10.99219,0.03515625,-0.01171875,-0.01367188,-0.02539062,-0.01757812,0,0.004150391,0.003051758,-0.009277344,0,0,-0.001586914,0.3105164,4.077,0,0,0,0.2999878,nan,4,9.485,1,0,0.2669983,0.3140869,0.3617859,0.2992249,-0.01855469,-0.02929688,0,1,3,0
54.304,0.00101,-0.0078125,-0.04101562,0.01953125,-1.1875,1.15625,11.5625,-0.009765625,-0.02539062,0.01367188,-0.0234375,-0.01367188,0,0.00390625,0.002441406,-0.009277344,0,0,-0.001586914,0.3105164,4.077,0,0,0,0.2999878,nan,4,9.495,1,0,0.2814636,0.2797852,0.3835449,0.2973022,-0.01855469,-0.02929688,0,1,3,0
54.314,0.00101,-0.015625,-0.01953125,-0.02148438,1.539062,-0.4921875,8.960938,0,0.00390625,-0.0078125,-0.0234375,-0.01367188,0,0.00402832,0.002441406,-0.009155273,0,0,-0.001586914,0.3105164,4.077,0,0,0,0.2999878,nan,4,9.505,1,0,0.2308044,0.3267212,0.3339539,0.3506165,-0.01855469,-0.02929688,0,1,3,0
54.324,0.00101,0.06835938,-0.009765625,-0.0234375,-2.226562,-0.0625,10.58594,0.01757812,-0.009765625,-0.03515625,-0.0234375,-0.01367188,0,0.00402832,0.002441406,-0.009399414,0,0,-0.001586914,0.3105164,4.077,0,0,0,0.2999878,nan,4,9.515,1,0,0.2292786,0.3389282,0.3303528,0.3435669,-0.01855469,-0.02929688,0,1,3,0
54.334,0.00101,0.001953125,-0.04296875,0.04492188,1.90625,-0.796875,8.351562,-0.01953125,-0.00390625,0.01953125,-0.0234375,-0.01367188,0,0.00390625,0.002319336,-0.009521484,0,0,-0.001586914,0.3105164,4.077,0,0,0,0.2999878,nan,4,9.525,1,0,0.3189392,0.2444153,0.4141235,0.2646179,-0.01855469,-0.02929688,0,1,3,0
54.343,0.001033,0.05078125,0.0078125,-0.005859375,-1.007812,0.4609375,10.95312,0.02929688,0.01757812,0.01171875,-0.0234375,-0.01367188,0,0.00390625,0.002319336,-0.009277344,0,0,-0.001586914,0.3105164,4.077,0,0,0,0.2999878,nan,4,9.534,1,0,0.2407532,0.3154297,0.361084,0.3248291,-0.01855469,-0.02929688,0,1,3,0
54.353,0.00103,-0.01953125,-0.0625,-0.015625,1.328125,-0.6171875,8.820312,-0.005859375,0.01171875,-0.0234375,-0.0234375,-0.015625,0,0.00402832,0.002685547,-0.009399414,0,0,-0.001586914,0.3105164,4.077,0,0,0,0.2999878,nan,4,9.544,1,0,0.2347412,0.330658,0.325592,0.3511047,-0.01855469,-0.02929688,0,1,3,0
54.363,0.001005,-0.00390625,0.009765625,0.01367188,-1.320312,1.039062,10.96875,-0.001953125,0.0234375,-0.00390625,-0.0234375,-0.015625,0,0.00390625,0.002563477,-0.009643555,0,0,-0.001586914,0.3105164,4.077,0,0,0,0.2999878,nan,4,9.555,1,0,0.2776794,0.2744141,0.3910217,0.2989807,-0.01855469,-0.02929688,0,1,3,0
54.373,0.001018,0.06835938,0.08984375,0.02734375,1.484375,-0.6484375,9.164062,0.02539062,0.02734375,0.03125,-0.0234375,-0.015625,0,0.00390625,0.002685547,-0.009399414,0,0,-0.001586914,0.3105164,4.077,0,0,0,0.2999878,nan,4,9.565,1,0,0.2801819,0.2702942,0.4042053,0.2874146,-0.01953125,-0.02929688,0,1,3,0
54.384,0.001061,0.06445312,-0.06835938,-0.01757812,-0.1953125,-0.125,9.601562,0.02929688,-0.01953125,-0.00390625,-0.02539062,-0.01757812,0,0.004150391,0.002807617,-0.009277344,0,0,-0.001586914,0.3105164,4.077,0,0,0,0.2999878,nan,4,9.575,1,0,0.2263489,0.348175,0.3202209,0.3473511,-0.01953125,-0.02929688,0,1,3,0.4285714
54.393,0.001017,-0.02929688,-0.08398438,0,0.0546875,-1.578125,8.367188,-0.0234375,-0.04101562,-0.015625,-0.02734375,-0.01367188,0,0.004516602,0.002075195,-0.009399414,0,0,-0.001586914,0.3105164,4.077,0,0,0,0.2999878,nan,4,9.585,1,0,0.2507935,0.3067932,0.3349609,0.3495483,-0.01953125,-0.02929688,0,1,3,0
54.404,0.000983,0.04101562,0.1855469,0.05273438,-1.148438,1.90625,11.74219,-0.009765625,0.04101562,0.02539062,-0.02734375,-0.009765625,0,0.004394531,0.001708984,-0.009277344,0,0,-0.001586914,0.3105164,4.077,0,0,0,0.2999878,nan,4,9.595,1,0,0.2862244,0.238739,0.4225159,0.2945862,-0.01953125,-0.02929688,0,1,3,0
54.414,0.001017,0.078125,-0.0625,-0.015625,-0.7109375,0.4921875,10.54688,0.0234375,-0.0390625,0.00390625,-0.02734375,-0.01171875,0,0.004516602,0.001953125,-0.009033203,0,0,-0.001586914,0.3105164,4.077,0,0,0,0.2999878,nan,4,9.605,1,0,0.2391968,0.3429565,0.33078,0.3291626,-0.01953125,-0.02929688,0,1,3,0
54.424,0.001017,-0.05273438,-0.04882812,-0.02734375,0.6875,1.0625,10.05469,-0.01367188,0.009765625,-0.03515625,-0.02734375,-0.01171875,0,0.004516602,0.001831055,-0.009277344,0,0,-0.001586914,0.3105164,4.077,0,0,0,0.2999878,nan,4,9.615,1,0,0.2297363,0.3311157,0.3243408,0.3569031,-0.01953125,-0.02929688,0,1,3,0.2698413
54.434,0.001017,0.0390625,0.07421875,0.03515625,0.8359375,-1.03125,8.835938,0.01171875,0.04101562,0.0234375,-0.02734375,-0.015625,0,0.004394531,0.002441406,-0.009399414,0,0,-0.001586914,0.3105164,4.077,0,0,0,0.2999878,nan,4,9.625,1,0,0.3090515,0.2485352,0.4235229,0.2609863,-0.01953125,-0.02929688,0,1,3,0
54.443,0.001004,-0.03125,0.015625,-0.05273438,0.4140625,0.5390625,9.585938,0.015625,0.03125,-0.015625,-0.02734375,-0.015625,0,0.004638672,0.002685547,-0.009277344,0,0,-0.001586914,0.3105164,4.077,0,0,0,0.2999878,nan,4,9.634,1,0,0.2107239,0.3470154,0.3166809,0.3676453,-0.01953125,-0.02929688,0,1,3,0.4761905
54.453,0.001003,-0.1074219,0.02734375,-0.01757812,-1.757812,-0.7109375,9.890625,-0.00390625,-0.04492188,-0.02148438,-0.02929688,-0.015625,0,0.004882812,0.002685547,-0.009521484,0,0,-0.001586914,0.3105164,4.077,0,0,0,0.2999878,nan,4,9.644,1,0,0.2659607,0.3101196,0.3407898,0.3252258,-0.01953125,-0.02929688,0,1,3,0.3650794
54.463,0.001009,0.08007812,0.02148438,0.02929688,1.203125,0.3515625,9.078125,0,0.02734375,0.01171875,-0.02734375,-0.01757812,0,0.004516602,0.003051758,-0.009521484,0,0,-0.001586914,0.3105164,4.077,0,0,0,0.2999878,nan,4,9.655,1,0,0.2913818,0.2704773,0.4019775,0.2782288,-0.01953125,-0.02929688,0,1,3,0
54.473,0.001012,0.01953125,-0.07617188,0.00390625,-1.070312,1.148438,9.523438,0.02539062,0.015625,0.01367188,-0.02734375,-0.02148438,0,0.004638672,0.003540039,-0.009399414,0,0,-0.001586914,0.3105164,4.077,0,0,0,0.2999878,nan,4,9.665,1,0,0.2554016,0.3127747,0.3571777,0.3167419,-0.01953125,-0.02929688,0,1,3,0.2380952
54.483,0.001003,-0.05078125,0.1035156,-0.0078125,1.179688,0.4921875,9.726562,-0.03710938,0.07226562,-0.02539062,-0.02929688,-0.02148438,0,0.004760742,0.003540039,-0.009521484,0,0,-0.001586914,0.3105164,4.077,0,0,0,0.2999878,nan,4,9.675,1,0,0.2255249,0.3016052,0.3418579,0.3731384,-0.01953125,-0.02929688,0,1,3,0.4920635
54.493,0.001003,-0.001953125,0.08789062,0.04101562,-1.53125,-0.1953125,10.86719,-0.001953125,0.04296875,0.01953125,-0.02734375,-0.0234375,0,0.004516602,0.00390625,-0.009521484,0,0,-0.001586914,0.3105164,4.077,0,0,0,0.2999878,nan,4,9.685,1,0,0.3008118,0.2510071,0.41745,0.2728271,-0.01953125,-0.03027344,0,1,3,0
54.503,0.001003,0.01171875,0.02148438,0,0.3828125,0.6171875,11.25,0.01953125,0.02929688,0.02148438,-0.02734375,-0.02539062,0,0.004516602,0.004394531,-0.009277344,0,0,-0.001586914,0.3105164,4.077,0,0,0,0.2999878,nan,4,9.695,1,0,0.2539368,0.3030396,0.3694458,0.3156738,-0.01953125,-0.03027344,0,1,3,0
54.514,0.000997,0.09960938,-0.1328125,-0.03710938,-1.8125,0.0078125,10.50781,0.03125,-0.015625,-0.01953125,-0.02734375,-0.02539062,0,0.004638672,0.004394531,-0.009399414,0,0,-0.001586914,0.3105164,4.077,0,0,0,0.2999878,nan,4,9.705,1,0,0.2204285,0.3520203,0.3244629,0.3451843,-0.01953125,-0.03027344,0,1,3,0
54.523,0.001095,-0.02148438,0,0.015625,0.6875,-0.8203125,9.992188,-0.03320312,0.01171875,0.001953125,-0.02734375,-0.0234375,0,0.004638672,0.00402832,-0.009521484,0,0,-0.001586914,0.3105164,4.077,0,0,0,0.2999878,nan,4,9.714,1,0,0.2849121,0.2564392,0.3896179,0.3111267,-0.01953125,-0.03027344,0,1,3,0.3650794
54.534,0.000997,0.04882812,0.02539062,0.02148438,-1.15625,1.578125,11.16406,0,0.01367188,0.02148438,-0.02539062,-0.0234375,0,0.004394531,0.00390625,-0.009277344,0,0,-0.001586914,0.3105164,4.077,0,0,0,0.2999878,nan,4,9.725,1,0,0.2694702,0.282074,0.3918457,0.2987366,-0.01953125,-0.03027344,0,1,3,0
54.543,0.001063,0.015625,0.05078125,-0.01953125,1.015625,-0.5078125,7.9375,0,0.02148438,-0.001953125,-0.02734375,-0.0234375,0,0.004394531,0.00402832,-0.009155273,0,0,-0.001586914,0.3105164,4.077,0,0,0,0.2999878,nan,4,9.734,1,0,0.2293091,0.322052,0.3411865,0.3495483,-0.01953125,-0.03027344,0,1,3,0
54.553,0.001096,-0.109375,0.03710938,-0.03515625,-1.757812,0.6484375,11.11719,-0.05273438,0.02734375,-0.03320312,-0.02539062,-0.02539062,0,0.004394531,0.004150391,-0.009399414,0,0,-0.001586914,0.3105164,4.077,0,0,0,0.2999878,nan,4,9.745,1,0,0.2333069,0.3168335,0.322052,0.3699341,-0.01953125,-0.03027344,0,1,3,0
54.563,0.000871,0.01367188,0.1484375,0.03515625,0.75,-1.609375,8.945312,-0.02539062,-0.00390625,0.015625,-0.02539062,-0.02148438,0,0.004150391,0.003417969,-0.009521484,0,0,-0.001586914,0.3105164,4.077,0,0,0,0.2999878,nan,4,9.755,1,0,0.2955017,0.2380371,0.4205017,0.2880554,-0.01953125,-0.03027344,0,1,3,0
54.573,0.000846,-0.02539062,0.01757812,-0.00390625,-0.78125,0.609375,10.14062,0.02734375,0.02734375,0.01171875,-0.02539062,-0.02148438,0,0.004272461,0.003417969,-0.009277344,0,0,-0.001586914,0.3105164,4.077,0,0,0,0.2999878,nan,4,9.765,1,0,0.2412109,0.3051758,0.366333,0.3294067,-0.01953125,-0.03027344,0,1,3,0.2063492
54.583,0.000991,0.0390625,-0.01171875,-0.015625,0.3125,-0.6953125,10.03906,0.0078125,0.00390625,-0.01171875,-0.02539062,-0.0234375,0,0.004272461,0.00378418,-0.009399414,0,0,-0.001586914,0.3105164,4.077,0,0,0,0.2999878,nan,4,9.775,1,0,0.2418213,0.3215637,0.3450623,0.3336792,-0.01953125,-0.03027344,0,1,3,0.3492064
54.593,0.000951,-0.02148438,0.1230469,0.02148438,0.078125,0.5859375,9.25,-0.01367188,0.09179688,0,-0.02539062,-0.0234375,0,0.004394531,0.00402832,-0.009521484,0,0,-0.001586914,0.3105164,4.077,0,0,0,0.2999878,nan,4,9.785,1,0,0.26828,0.2565308,0.3994751,0.3178406,-0.01953125,-0.03027344,0,1,3,0
54.604,0.000965,0.01757812,0.06835938,0.03125,0.1171875,-0.265625,9.101562,-0.01171875,0.0390625,0.02734375,-0.02734375,-0.02734375,0,0.004394531,0.004516602,-0.009277344,0,0,-0.001586914,0.3105164,4.077,0,0,0,0.2999878,nan,4,9.795,1,0,0.2882996,0.2655029,0.3927002,0.2955933,-0.01953125,-0.03027344,0,1,3,0
54.614,0.001005,0,-0.07617188,-0.01953125,0.75,-1.023438,8.703125,0.01171875,-0.005859375,-0.0078125,-0.02734375,-0.02734375,0,0.004516602,0.004638672,-0.009277344,0,0,-0.001586914,0.3105164,4.077,0,0,0,0.2999878,nan,4,9.805,1,0,0.2276611,0.3390198,0.3273621,0.3480835,-0.01953125,-0.03027344,0,1,3,0
54.623,0.000896,-0.07226562,0.15625,-0.03320312,-1.71875,0.40625,10.61719,-0.01757812,0.0546875,-0.02539062,-0.02734375,-0.02734375,0,0.004638672,0.004516602,-0.009399414,0,0,-0.001586914,0.3105164,4.077,0,0,0,0.2999878,nan,4,9.814,1,0,0.2253113,0.3023376,0.346344,0.3681335,-0.01953125,-0.03027344,0,1,3,0
54.634,0.001017,0.05664062,0.1914062,0.01757812,1.007812,-0.59375,8.59375,-0.02734375,0.01953125,0.009765625,-0.02734375,-0.02539062,0,0.004394531,0.004150391,-0.009399414,0,0,-0.001586914,0.3105164,4.077,0,0,0,0.2999878,nan,4,9.825,1,0,0.2682495,0.258728,0.4025879,0.312561,-0.01953125,-0.03027344,0,1,3,0
54.643,0.0009860001,0.01367188,-0.08789062,-0.00390625,-0.6015625,1.304688,8.742188,0.01953125,-0.0078125,0.009765625,-0.02734375,-0.02539062,0,0.004394531,0.004150391,-0.009277344,0,0,-0.001586914,0.3105164,4.077,0,0,0,0.2999878,nan,4,9.834,1,0,0.249115,0.3126526,0.3596191,0.3207397,-0.01953125,-0.03027344,0,1,3,0
54.653,0.000989,-0.109375,0.1699219,-0.03320312,0.828125,-0.4453125,8.515625,-0.03710938,0.04101562,-0.0234375,-0.02734375,-0.02539062,0,0.004516602,0.004272461,-0.009399414,0,0,-0.001586914,0.3105164,4.077,0,0,0,0.2999878,nan,4,9.844,1,0,0.2159119,0.3207397,0.3215332,0.3839111,-0.01953125,-0.03027344,0,1,3,0
54.663,0.000985,-0.001953125,-0.2109375,0.01757812,-1.8125,2.65625,12.26562,-0.01953125,-0.1015625,-0.005859375,-0.02539062,-0.02539062,0,0.004272461,0.004150391,-0.009521484,0,0,-0.001586914,0.3105164,4.077,0,0,0,0.2999878,nan,4,9.855,1,0,0.2998657,0.3022156,0.3617249,0.2783203,-0.01953125,-0.03027344,0,1,3,0
54.673,0.000984,-0.02734375,0.06054688,0.015625,1.53125,-0.65625,9.609375,-0.0078125,0.02539062,0.01367188,-0.0234375,-0.0234375,0,0.00390625,0.00378418,-0.009399414,0,0,-0.001586914,0.3105164,4.077,0,0,0,0.2999878,nan,4,9.865,1,0,0.2588806,0.2790527,0.3852539,0.3189392,-0.01953125,-0.03027344,0,1,3,0.8888889
54.683,0.0009869999,-0.00390625,0.03320312,-0.0390625,-2.164062,0.984375,11.71094,0.02148438,0.00390625,-0.01953125,-0.02539062,-0.02148438,0,0.004150391,0.003662109,-0.009399414,0,0,-0.001586914,0.3105164,4.077,0,0,0,0.2999878,nan,4,9.875,1,0,0.2096558,0.3434753,0.3256531,0.3633118,-0.01953125,-0.03027344,0,1,3,0
54.693,0.000988,-0.0390625,0.03515625,0.0234375,1.929688,-0.9296875,9.164062,-0.02539062,-0.009765625,-0.0078125,-0.0234375,-0.0234375,0,0.00378418,0.00378418,-0.009643555,0,0,-0.001586914,0.3105164,4.077,0,0,0,0.2999878,nan,4,9.885,1,0,0.2818604,0.281189,0.3799438,0.2990723,-0.01953125,-0.03027344,0,1,3,0.1428571
54.703,0.001002,-0.001953125,-0.06835938,0.03125,-1.34375,1.429688,10.86719,-0.01367188,0.01367188,0.02539062,-0.02148438,-0.02539062,0,0.003417969,0.00402832,-0.009521484,0,0,-0.001586914,0.3105164,4.077,0,0,0,0.2999878,nan,4,9.895,1,0,0.292572,0.2710876,0.3965454,0.2818909,-0.01953125,-0.03027344,0,1,3,0
54.714,0.000988,-0.0703125,-0.1152344,-0.001953125,1.820312,-1.328125,6.210938,-0.0390625,-0.03320312,0.001953125,-0.02148438,-0.02539062,0,0.003540039,0.004272461,-0.009399414,0,0,-0.001586914,0.3105164,4.077,0,0,0,0.2999878,nan,4,9.905,1,0,0.2550049,0.3253479,0.3199158,0.3418579,-0.01953125,-0.03027344,0,1,3,0
54.724,0.000998,-0.06640625,0.05273438,-0.02734375,-2.570312,0.2734375,12.23438,-0.04296875,0.04101562,-0.02734375,-0.02148438,-0.02734375,0,0.003417969,0.004394531,-0.009521484,0,0,-0.001586914,0.3105164,4.077,0,0,0,0.2999878,nan,4,9.915,1,0,0.2255554,0.3181152,0.327301,0.3711243,-0.01953125,-0.03027344,0,1,3,0
54.734,0.000998,0.01171875,0.02539062,0.01953125,1.53125,-1.195312,9.9375,0.015625,-0.01757812,0.01757812,-0.02148438,-0.02148438,0,0.003540039,0.003662109,-0.009521484,0,0,-0.001586914,0.3105164,4.077,0,0,0,0.2999878,nan,4,9.925,1,0,0.2792053,0.2608948,0.407135,0.2948608,-0.01953125,-0.03027344,0,1,3,0.3174603
54.743,0.001023,0.0703125,0.03710938,0.00390625,-1.375,0.1484375,12.35156,0.04101562,-0.001953125,0.005859375,-0.02148438,-0.02148438,0,0.003540039,0.003540039,-0.009399414,0,0,-0.001586914,0.3105164,4.077,0,0,0,0.2999878,nan,4,9.934,1,0,0.2390747,0.3121033,0.3669739,0.3239746,-0.01953125,-0.03027344,0,1,3,0
54.753,0.001023,0.1308594,-0.1953125,-0.02539062,1.070312,-1.070312,9.710938,0.05859375,-0.05273438,-0.01953125,-0.0234375,-0.02148438,0,0.00378418,0.003540039,-0.009521484,0,0,-0.001586914,0.3105164,4.077,0,0,0,0.2999878,nan,4,9.944,1,0,0.2344666,0.3488464,0.3373718,0.3214111,-0.02050781,-0.03027344,0,1,3,0.7142857
54.763,0.001026,0.02148438,-0.1035156,0.0234375,-1.015625,0.9453125,11.35156,0.03515625,-0.06445312,0.00390625,-0.02539062,-0.01757812,0,0.004272461,0.003051758,-0.009643555,0,0,-0.001586914,0.3105164,4.077,0,0,0,0.2999878,nan,4,9.955,1,0,0.2994385,0.2758789,0.3913574,0.2754211,-0.02050781,-0.03027344,0,1,3,0
54.773,0.000978,0.02148438,0.02929688,-0.00390625,0.75,-0.671875,9.007812,0.009765625,0.015625,0.01367188,-0.02539062,-0.01757812,0,0.004394531,0.002929688,-0.009399414,0,0,-0.001586914,0.3105164,4.077,0,0,0,0.2999878,nan,4,9.965,1,0,0.2500916,0.2969666,0.3692017,0.3258362,-0.02050781,-0.03027344,0,1,3,0
54.783,0.001043,-0.005859375,-0.04296875,-0.02148438,-1.414062,0.3359375,10.9375,0.00390625,-0.04492188,-0.01953125,-0.02734375,-0.015625,0,0.004516602,0.002563477,-0.009521484,0,0,-0.001586914,0.3105164,4.077,0,0,0,0.2999878,nan,4,9.975,1,0,0.2359009,0.3344421,0.3263855,0.3453674,-0.02050781,-0.03027344,0,1,3,0
54.793,0.001017,0.0234375,-0.1308594,0.01367188,1.070312,-1.5,8.101562,0.009765625,-0.1015625,-0.005859375,-0.02929688,-0.01171875,0,0.004760742,0.002075195,-0.009643555,0,0,-0.001586914,0.3105164,4.077,0,0,0,0.2999878,nan,4,9.985,1,0,0.2904663,0.3001709,0.3642578,0.2871704,-0.02050781,-0.03027344,0,1,3,0
54.804,0.001017,-0.015625,0.07226562,0.009765625,-0.3671875,0.359375,9.796875,0.01757812,0.009765625,0.01367188,-0.02929688,-0.0078125,0,0.004882812,0.001464844,-0.009521484,0,0,-0.001586914,0.3105164,4.077,0,0,0,0.2999878,nan,4,9.995,1,0,0.2624512,0.2782898,0.3868103,0.3145752,-0.02050781,-0.03027344,0,1,3,0.968254
54.814,0.00095,-0.02539062,-0.03125,-0.02148438,-0.0703125,0.5078125,10.32031,0.02148438,-0.02148438,-0.009765625,-0.02929688,-0.009765625,0,0.005004883,0.001586914,-0.009521484,0,0,-0.001586914,0.3105164,4.077,0,0,0,0.2999878,nan,4,10.005,1,0,0.2384338,0.3328857,0.3365173,0.334259,-0.02050781,-0.03027344,0,1,3,0
54.824,0.001017,-0.005859375,-0.1601562,-0.015625,0.65625,-0.5078125,9.03125,0.015625,-0.09960938,-0.0234375,-0.03125,-0.009765625,0,0.005126953,0.001586914,-0.009765625,0,0,-0.001586914,0.3105164,4.077,0,0,0,0.2999878,nan,4,10.015,1,0,0.2726135,0.334137,0.3348694,0.3004456,-0.02050781,-0.03027344,0,1,3,0
54.834,0.001017,0.05078125,0.03710938,0.046875,-0.5,0.375,9.9375,0,-0.04101562,0.02929688,-0.03125,-0.00390625,0,0.005126953,0.0006103516,-0.009765625,0,0,-0.001586914,0.3105164,4.077,0,0,0,0.2999878,nan,4,10.025,1,0,0.3089905,0.2428894,0.42099,0.2692261,-0.02050781,-0.03027344,0,1,3,0.3809524
54.844,0.001017,0.1171875,0.06835938,-0.02148438,1.046875,-1.085938,9.078125,0.02734375,0.02929688,-0.0078125,-0.03125,-0.00390625,0,0.005249023,0.0007324219,-0.009643555,0,0,-0.001586914,0.3105164,4.077,0,0,0,0.2999878,nan,4,10.035,1,0,0.2097473,0.3355713,0.342804,0.3540039,-0.02050781,-0.03027344,0,1,3,0
54.853,0.001005,-0.0078125,0.1035156,-0.01171875,-2.414062,1.109375,11.48438,-0.0625,0.1035156,-0.01953125,-0.02929688,-0.0078125,0,0.005004883,0.001342773,-0.009887695,0,0,-0.001586914,0.3105164,4.077,0,0,0,0.2999878,nan,4,10.044,1,0,0.2403564,0.2889709,0.3571472,0.3556213,-0.02050781,-0.03027344,0,1,3,0
54.863,0.000998,-0.00390625,0.1464844,0.01953125,1.851562,-0.734375,9.351562,-0.05273438,0.109375,0.015625,-0.02539062,-0.01367188,0,0.004150391,0.002197266,-0.009887695,0,0,-0.001586914,0.3105164,4.077,0,0,0,0.2999878,nan,4,10.055,1,0,0.2821655,0.2540283,0.4100647,0.2958984,-0.02050781,-0.03027344,0,1,3,0.3650794
54.873,0.001006,0,-0.07226562,0,-1.640625,3.476562,13.01562,0.01171875,0.01757812,0.009765625,-0.0234375,-0.015625,0,0.00390625,0.002685547,-0.009643555,0,0,-0.001586914,0.3105164,4.077,0,0,0,0.2999878,nan,4,10.065,1,0,0.2532043,0.3181152,0.3604736,0.3103333,-0.02050781,-0.03027344,0,1,3,0
54.883,0.001003,0.01367188,0.07421875,-0.009765625,0.453125,-1.570312,9.695312,0.02148438,0.001953125,-0.001953125,-0.0234375,-0.015625,0,0.00390625,0.002685547,-0.009765625,0,0,-0.001586914,0.3105164,4.077,0,0,0,0.2999878,nan,4,10.075,1,0,0.2479858,0.3091125,0.3670959,0.3179016,-0.02050781,-0.03027344,0,1,3,0.4126984
54.893,0.001003,-0.09765625,0.02734375,-0.009765625,-1.507812,2.3125,11.58594,0,-0.009765625,-0.005859375,-0.02539062,-0.01367188,0,0.004150391,0.002441406,-0.009765625,0,0,-0.001586914,0.3105164,4.077,0,0,0,0.2999878,nan,4,10.085,1,0,0.2598572,0.2965698,0.3579407,0.3277283,-0.02050781,-0.03027344,0,1,3,0
54.904,0.000963,-0.05664062,0.078125,0.02734375,0.2265625,-1.898438,9.9375,-0.03710938,0.02539062,0.01953125,-0.02148438,-0.015625,0,0.003662109,0.002563477,-0.009643555,0,0,-0.001586914,0.3105164,4.077,0,0,0,0.2999878,nan,4,10.095,1,0,0.2787781,0.2699585,0.3901672,0.3032227,-0.02050781,-0.03027344,0,1,3,0.3492064
54.914,0.001003,0.015625,0.00390625,0.001953125,-0.7734375,1.835938,12.01562,0.01757812,0,0.009765625,-0.02148438,-0.015625,0,0.003662109,0.002563477,-0.009521484,0,0,-0.001586914,0.3105164,4.077,0,0,0,0.2999878,nan,4,10.105,1,0,0.2446289,0.3181152,0.3544617,0.3249207,-0.02050781,-0.03027344,0,1,3,0
54.924,0.001056,0.03710938,-0.046875,-0.02539062,0.9609375,-0.7890625,8.882812,0.02734375,0.005859375,-0.01757812,-0.0234375,-0.015625,0,0.00378418,0.002685547,-0.009521484,0,0,-0.001586914,0.3105164,4.077,0,0,0,0.2999878,nan,4,10.115,1,0,0.2223816,0.3366089,0.3361206,0.3470154,-0.02050781,-0.03027344,0,1,3,0
54.933,0.001015,-0.06835938,0.1035156,0.009765625,-0.203125,-0.0234375,10.90625,-0.0390625,0.0078125,-0.01171875,-0.02148438,-0.015625,0,0.003662109,0.002685547,-0.009765625,0,0,-0.001586914,0.3105164,4.077,0,0,0,0.2999878,nan,4,10.124,1,0,0.2747498,0.2812195,0.3694458,0.3167114,-0.02050781,-0.03027344,0,1,3,0
54.943,0.001028,0.0703125,0.2050781,0.02929688,-0.0078125,-1.203125,9.5,-0.01953125,-0.01953125,0.02148438,-0.01953125,-0.01367188,0,0.003295898,0.002075195,-0.009765625,0,0,-0.001586914,0.3105164,4.077,0,0,0,0.2999878,nan,4,10.134,1,0,0.2858582,0.2546692,0.4144897,0.2871094,-0.02050781,-0.03027344,0,1,3,0.4285714
54.953,0.001009,0.02734375,-0.0234375,0.005859375,0.8359375,-0.8359375,6.398438,0.01757812,0.01171875,0.00390625,-0.01953125,-0.01367188,0,0.003417969,0.002197266,-0.009521484,0,0,-0.001586914,0.3105164,4.077,0,0,0,0.2999878,nan,4,10.144,1,0,0.2378235,0.3156128,0.3570251,0.3316345,-0.02050781,-0.03027344,0,1,3,0
54.963,0.00102,-0.015625,-0.1367188,-0.02929688,-1,-0.375,8.5,0,-0.0546875,-0.02148438,-0.02148438,-0.01367188,0,0.003540039,0.002319336,-0.009643555,0,0,-0.001586914,0.3105164,4.077,0,0,0,0.2999878,nan,4,10.155,1,0,0.2454224,0.3428345,0.3161621,0.337677,-0.02050781,-0.03027344,0,1,3,0
54.973,0.001009,-0.09765625,0.1875,0.01367188,1.375,-0.0546875,8.21875,-0.02734375,0.0625,0.0078125,-0.02148438,-0.01367188,0,0.003662109,0.002197266,-0.009765625,0,0,-0.001586914,0.3105164,4.077,0,0,0,0.2999878,nan,4,10.165,1,0,0.278595,0.2478943,0.4005127,0.3151245,-0.02050781,-0.03027344,0,1,3,0
54.983,0.001021,-0.08398438,0.015625,-0.005859375,-0.828125,1.382812,11.34375,0.001953125,0.046875,0.01367188,-0.02148438,-0.01757812,0,0.003662109,0.003051758,-0.009643555,0,0,-0.001586914,0.3105164,4.077,0,0,0,0.2999878,nan,4,10.175,1,0,0.2579651,0.3020935,0.3602905,0.3217468,-0.02050781,-0.03027344,0,1,3,0
54.993,0.00102,0.001953125,0.02148438,-0.01953125,0.75,-0.9296875,10.53125,0.02539062,0.00390625,-0.001953125,-0.02148438,-0.01757812,0,0.003662109,0.003051758,-0.009521484,0,0,-0.001586914,0.3105164,4.077,0,0,0,0.2999878,nan,4,10.185,1,0,0.2323608,0.3256531,0.3483887,0.3357239,-0.02050781,-0.03027344,0,1,3,0
55.003,0.00102,-0.08984375,0.2070312,0.009765625,-1.640625,0.3203125,10.39844,-0.01171875,0.03125,-0.005859375,-0.02148438,-0.01757812,0,0.003540039,0.002929688,-0.009643555,0,0,-0.001586914,0.3105164,4.077,0,0,0,0.2999878,nan,4,10.195,1,0,0.2541504,0.2808838,0.3757324,0.3313599,-0.02050781,-0.03027344,0,1,3,0
55.014,0.00102,0.009765625,0.009765625,0.02148438,1.046875,-1.085938,9.851562,-0.00390625,-0.06640625,0.01953125,-0.02148438,-0.015625,0,0.003662109,0.002563477,-0.009521484,0,0,-0.001586914,0.3105164,4.077,0,0,0,0.2999878,nan,4,10.205,1,0,0.2826843,0.2922363,0.3684692,0.2987061,-0.02050781,-0.03027344,0,1,3,0.4126984
55.024,0.001017,0.07226562,0.05664062,0.005859375,-1.710938,2.84375,11.71094,0.01171875,-0.01171875,0.01171875,-0.02148438,-0.01171875,0,0.003662109,0.002075195,-0.009277344,0,0,-0.001586914,0.3105164,4.077,0,0,0,0.2999878,nan,4,10.215,1,0,0.2441406,0.3017578,0.3709106,0.3253174,-0.02050781,-0.03027344,0,1,3,0
55.034,0.001017,0.02734375,0.03320312,-0.02148438,1.296875,-0.9296875,7.203125,0,0.04296875,-0.01757812,-0.0234375,-0.01367188,0,0.00378418,0.002319336,-0.009399414,0,0,-0.001586914,0.3105164,4.077,0,0,0,0.2999878,nan,4,10.225,1,0,0.2203064,0.3225403,0.3392639,0.3599854,-0.02050781,-0.03027344,0,1,3,0
55.044,0.001017,-0.06054688,-0.04882812,0.0078125,-1.898438,2.03125,10.74219,-0.02929688,-0.02148438,-0.001953125,-0.02148438,-0.015625,0,0.003662109,0.002563477,-0.009521484,0,0,-0.001586914,0.3105164,4.077,0,0,0,0.2999878,nan,4,10.235,1,0,0.2901001,0.285553,0.3687439,0.297699,-0.02050781,-0.03125,0,1,3,0
55.053,0.001002,-0.02734375,-0.02734375,0.02539062,0.9296875,-1.414062,8.890625,-0.03710938,0.07226562,0.02539062,-0.01953125,-0.01953125,0,0.003173828,0.003173828,-0.009399414,0,0,-0.001586914,0.3105164,4.077,0,0,0,0.2999878,nan,4,10.244,1,0,0.2803345,0.2662048,0.3960876,0.299469,-0.02050781,-0.03125,0,1,3,0
55.063,0.001019,-0.01953125,0.02734375,-0.0234375,-1.515625,2.640625,13.54688,0.015625,0.00390625,0.009765625,-0.01953125,-0.02148438,0,0.003051758,0.003417969,-0.009155273,0,0,-0.001586914,0.3105164,4.077,0,0,0,0.2999878,nan,4,10.255,1,0,0.2341919,0.3295898,0.3447876,0.3335266,-0.02050781,-0.03125,0,1,3,0
55.073,0.000974,0.03125,0.03515625,-0.02148438,0.953125,-1.625,8.117188,0.01171875,0.01171875,-0.015625,-0.01953125,-0.01953125,0,0.003173828,0.003417969,-0.009155273,0,0,-0.001586914,0.3105164,4.077,0,0,0,0.2999878,nan,4,10.265,1,0,0.2300415,0.3225098,0.3473511,0.3421936,-0.02050781,-0.03125,0,1,3,0
55.083,0.000994,0.02734375,-0.07421875,0.005859375,-0.6015625,1.765625,11.20312,0.005859375,-0.06054688,-0.00390625,-0.01757812,-0.02148438,0,0.003051758,0.003540039,-0.009277344,0,0,-0.001586914,0.3105164,4.077,0,0,0,0.2999878,nan,4,10.275,1,0,0.2816162,0.3080444,0.3621826,0.2902527,-0.02050781,-0.03125,0,1,3,0
55.093,0.001013,0.05078125,0.001953125,0.0078125,0.6171875,-1.335938,8.679688,-0.03710938,0.03515625,0.01171875,-0.015625,-0.01953125,0,0.002685547,0.003417969,-0.009277344,0,0,-0.001586914,0.3105164,4.077,0,0,0,0.2999878,nan,4,10.285,1,0,0.2580872,0.2761841,0.3849182,0.3229065,-0.02050781,-0.03125,0,1,3,0
55.104,0.000998,-0.01171875,-0.01757812,-0.005859375,-0.4921875,0.0625,10.15625,0.0078125,0.01171875,-0.00390625,-0.015625,-0.02148438,0,0.002685547,0.003417969,-0.009155273,0,0,-0.001586914,0.3105164,4.077,0,0,0,0.2999878,nan,4,10.295,1,0,0.2394714,0.3129883,0.3549194,0.3347473,-0.02050781,-0.03125,0,1,3,0.1428571
55.114,0.001018,0.06054688,-0.0390625,0.00390625,-0.3046875,-0.796875,11.03125,0.03515625,-0.03125,-0.00390625,-0.01757812,-0.02148438,0,0.002929688,0.003417969,-0.009277344,0,0,-0.001586914,0.3105164,4.077,0,0,0,0.2999878,nan,4,10.305,1,0,0.2624207,0.309967,0.3658752,0.303833,-0.02050781,-0.03125,0,1,3,0
55.123,0.000966,-0.07617188,-0.0078125,-0.001953125,0.421875,0.953125,9.789062,-0.02539062,0.02539062,-0.005859375,-0.01757812,-0.01953125,0,0.002929688,0.003295898,-0.009399414,0,0,-0.001586914,0.3105164,4.077,0,0,0,0.2999878,nan,4,10.314,1,0,0.2576294,0.2829895,0.3704834,0.3309937,-0.02050781,-0.03125,0,1,3,0.6825397
55.133,0.001021,-0.04882812,0.1210938,0.001953125,-0.875,0.515625,12.34375,0.02539062,0.046875,0.01367188,-0.01757812,-0.02148438,0,0.002929688,0.003662109,-0.009277344,0,0,-0.001586914,0.3105164,4.077,0,0,0,0.2999878,nan,4,10.324,1,0,0.256958,0.2865906,0.3850403,0.3134766,-0.02050781,-0.03125,0,1,3,0
55.143,0.001017,0.00390625,0.01953125,-0.0078125,0.796875,-1.398438,9.90625,0.02148438,0.015625,-0.00390625,-0.01757812,-0.0234375,0,0.002929688,0.00402832,-0.009277344,0,0,-0.001586914,0.3105164,4.077,0,0,0,0.2999878,nan,4,10.334,1,0,0.2443542,0.3146057,0.3564453,0.3266907,-0.02050781,-0.03125,0,1,3,0.3650794
55.153,0.001048,-0.009765625,-0.1582031,0.01171875,-1.757812,1.71875,12.65625,0.01367188,-0.1152344,0.005859375,-0.01757812,-0.02148438,0,0.002929688,0.003540039,-0.009277344,0,0,-0.001586914,0.3105164,4.077,0,0,0,0.2999878,nan,4,10.344,1,0,0.2923584,0.308075,0.3613892,0.2802734,-0.02050781,-0.03125,0,1,3,0
55.163,0.00103,0.01171875,-0.02734375,0.02148438,1.335938,-1.804688,8.484375,0,0.005859375,0.0078125,-0.01757812,-0.01953125,0,0.002929688,0.003173828,-0.009277344,0,0,-0.001586914,0.3105164,4.077,0,0,0,0.2999878,nan,4,10.355,1,0,0.2567749,0.2879028,0.3797913,0.317627,-0.02050781,-0.03125,0,1,3,0
55.173,0.000974,-0.001953125,-0.01171875,-0.0078125,-1.570312,2.171875,12.10156,-0.0078125,0.0078125,-0.005859375,-0.01757812,-0.01953125,0,0.002929688,0.003295898,-0.009155273,0,0,-0.001586914,0.3105164,4.077,0,0,0,0.2999878,nan,4,10.365,1,0,0.2382812,0.319458,0.3420715,0.3423157,-0.02050781,-0.03125,0,1,3,0
55.183,0.001008,-0.03125,-0.1367188,0.005859375,1.351562,-1.53125,7.929688,-0.001953125,-0.08984375,-0.001953125,-0.01757812,-0.01953125,0,0.003051758,0.003173828,-0.009277344,0,0,-0.001586914,0.3105164,4.077,0,0,0,0.2999878,nan,4,10.375,1,0,0.2859192,0.3109436,0.3507996,0.2944336,-0.02148438,-0.03125,0,1,3,0
55.193,0.001025,0.01757812,0.0078125,0.0078125,-1.203125,2.945312,12.375,0.015625,-0.03710938,0.0078125,-0.01757812,-0.015625,0,0.003051758,0.002807617,-0.009155273,0,0,-0.001586914,0.3105164,4.077,0,0,0,0.2999878,nan,4,10.385,1,0,0.2618713,0.2958679,0.3763123,0.3080444,-0.02148438,-0.03125,0,1,3,0
55.203,0.001017,-0.005859375,-0.03125,0.0078125,0.7578125,-2.257812,8.742188,0.01171875,-0.01953125,0.005859375,-0.01757812,-0.015625,0,0.003051758,0.002563477,-0.009155273,0,0,-0.001586914,0.3105164,4.077,0,0,0,0.2999878,nan,4,10.395,1,0,0.2620544,0.2962952,0.3722229,0.311554,-0.02148438,-0.03125,0,1,3,0
55.214,0.001007,0.046875,-0.1425781,-0.005859375,-1.492188,1.726562,11.63281,0.0078125,-0.04296875,-0.0078125,-0.01757812,-0.01367188,0,0.003051758,0.002441406,-0.009277344,0,0,-0.001586914,0.3105164,4.077,0,0,0,0.2999878,nan,4,10.405,1,0,0.2563782,0.3186646,0.3508911,0.3161621,-0.02148438,-0.03125,0,1,3,0
55.224,0.000982,-0.02734375,0.02929688,0.009765625,1.054688,-1.828125,8.21875,-0.01953125,0.001953125,0.01367188,-0.01757812,-0.01171875,0,0.003051758,0.002075195,-0.009277344,0,0,-0.001586914,0.3105164,4.077,0,0,0,0.2999878,nan,4,10.415,1,0,0.2828674,0.26297,0.3938599,0.3023987,-0.02148438,-0.03125,0,1,3,0
55.234,0.001018,0.02148438,-0.1191406,0.00390625,-0.625,2.882812,12.46875,0.01367188,-0.04882812,0.01171875,-0.01953125,-0.01171875,0,0.003173828,0.001831055,-0.009033203,0,0,-0.001586914,0.3105164,4.077,0,0,0,0.2999878,nan,4,10.425,1,0,0.26651,0.3094788,0.3578796,0.3082275,-0.02148438,-0.03125,0,1,3,0
55.244,0.001017,0.02539062,0.02539062,0.001953125,0.3203125,-2.109375,9.273438,0.01171875,-0.015625,0.005859375,-0.01953125,-0.009765625,0,0.003173828,0.001464844,-0.009033203,0,0,-0.001586914,0.3105164,4.077,0,0,0,0.2999878,nan,4,10.435,1,0,0.2426147,0.311554,0.3589172,0.3290405,-0.02148438,-0.03125,0,1,3,0.3650794
55.253,0.000969,0.00390625,0.009765625,0.04296875,1.078125,1.15625,9.90625,0,0.009765625,0.02734375,-0.01953125,-0.009765625,0,0.003173828,0.001464844,-0.008789062,0,0,-0.001586914,0.3105164,4.077,0,0,0,0.2999878,nan,4,10.444,1,0,0.2849426,0.2667847,0.3988342,0.2915344,-0.02148438,-0.03125,0,1,3,0.2857143
55.263,0.000984,-0.03710938,0.06835938,0.04882812,-1.671875,-0.5,11.46094,-0.015625,-0.01367188,0.046875,-0.01953125,-0.0078125,0,0.003051758,0.001342773,-0.008422852,0,0,-0.001586914,0.3105164,4.077,0,0,0,0.2999878,nan,4,10.454,1,0,0.285553,0.2735596,0.3872375,0.2957458,-0.02148438,-0.03125,0,1,3,0
55.273,0.000985,0.04101562,-0.08007812,0.03125,1.25,-1.273438,8.304688,0.009765625,-0.01953125,0.03515625,-0.01953125,-0.0078125,0,0.003051758,0.001342773,-0.00793457,0,0,-0.001586914,0.3105164,4.077,0,0,0,0.2999878,nan,4,10.465,1,0,0.2592773,0.3077087,0.3618469,0.3132629,-0.02148438,-0.03125,0,1,3,0
55.283,0.000984,0.0234375,0.01367188,0.04296875,-1.070312,1.585938,11.92188,0.00390625,0,0.04296875,-0.01757812,-0.0078125,0,0.003051758,0.001220703,-0.007568359,0,0,-0.001586914,0.3105164,4.077,0,0,0,0.2999878,nan,4,10.475,1,0,0.2680054,0.2872314,0.381897,0.3049622,-0.02148438,-0.03125,0,1,3,0
55.293,0.000988,-0.04101562,-0.0859375,0.09375,1.921875,-1.539062,7.59375,-0.03125,-0.04882812,0.0625,-0.01757812,-0.005859375,0,0.002807617,0.0009765625,-0.007080078,0,0,-0.001586914,0.3105164,4.077,0,0,0,0.2999878,nan,4,10.485,1,0,0.321106,0.2557983,0.4007568,0.2644348,-0.02148438,-0.03125,0,1,3,0
55.303,0.0009869999,0.06835938,0.1289062,0.05859375,-1.5,1.578125,10.5,-0.01953125,0.06445312,0.05859375,-0.015625,-0.005859375,0,0.002685547,0.0008544922,-0.006469727,0,0,-0.001586914,0.3105164,4.077,0,0,0,0.2999878,nan,4,10.495,1,0,0.2574768,0.269104,0.3963928,0.3190918,-0.02148438,-0.03125,0,1,3,0
55.314,0.000966,-0.0234375,-0.078125,0.05664062,1.953125,-1.78125,6.382812,-0.03125,-0.08007812,0.05273438,-0.015625,-0.005859375,0,0.002563477,0.0008544922,-0.005859375,0,0,-0.001586914,0.3105164,4.077,0,0,0,0.2999878,nan,4,10.505,1,0,0.289978,0.3049927,0.3485718,0.2985535,-0.02148438,-0.03125,0,1,3,0
55.324,0.0009869999,-0.03515625,-0.1269531,0.04492188,-0.765625,2.171875,10.80469,-0.00390625,0.005859375,0.04101562,-0.015625,-0.00390625,0,0.002563477,0.0007324219,-0.005371094,0,0,-0.001586914,0.3105164,4.077,0,0,0,0.2999878,nan,4,10.515,1,0,0.2647095,0.2923889,0.3713379,0.3136597,-0.02148438,-0.03125,0,1,3,0
55.333,0.001066,-0.046875,0.1230469,0.02734375,0.3046875,-1.15625,10.09375,0.01367188,0.01757812,0.03125,-0.015625,-0.005859375,0,0.002685547,0.0008544922,-0.005126953,0,0,-0.001586914,0.3105164,4.077,0,0,0,0.2999878,nan,4,10.524,1,0,0.2450562,0.3040161,0.3613586,0.331665,-0.02148438,-0.03125,0,1,3,0.2539683
55.343,0.000877,-0.078125,0.2675781,0.03125,-1.9375,1.0625,12.75,-0.0078125,-0.015625,0.03125,-0.01757812,-0.001953125,0,0.002929688,0.0002441406,-0.004760742,0,0,-0.001586914,0.3105164,4.077,0,0,0,0.2999878,nan,4,10.534,1,0,0.264679,0.2698975,0.3838196,0.3237,-0.02148438,-0.03125,0,1,3,0
55.353,0.001009,-0.05664062,0.06640625,0.03515625,0.796875,-1.578125,8.03125,-0.005859375,0.0078125,0.0390625,-0.01757812,-0.001953125,0,0.002929688,0.0004882812,-0.004394531,0,0,-0.001586914,0.3105164,4.077,0,0,0,0.2999878,nan,4,10.544,1,0,0.2773438,0.2782898,0.3782959,0.3081665,-0.02148438,-0.03125,0,1,3,0
55.363,0.001003,-0.01171875,0.08007812,-0.00390625,-0.359375,0.4921875,10.01562,0.0078125,0.03320312,0.01757812,-0.01757812,-0.00390625,0,0.003051758,0.0004882812,-0.004150391,0,0,-0.001586914,0.3105164,4.077,0,0,0,0.2999878,nan,4,10.554,1,0,0.2262878,0.3202209,0.34552,0.3500671,-0.02148438,-0.03125,0,1,3,0.3650794
55.373,0.001004,0.009765625,0.05859375,-0.02148438,0.03125,-0.515625,10.10156,0.03125,0.02148438,-0.00390625,-0.01953125,-0.00390625,0,0.003173828,0.0007324219,-0.00402832,0,0,-0.001586914,0.3105164,4.077,0,0,0,0.2999878,nan,4,10.565,1,0,0.2302246,0.3247681,0.3493652,0.3377075,-0.02148438,-0.03125,0,1,3,0.1111111
55.383,0.001015,-0.0625,0.08398438,0.001953125,-0.34375,0.3203125,10.67188,-0.001953125,0.03710938,-0.0078125,-0.01953125,-0.005859375,0,0.003295898,0.001098633,-0.004150391,0,0,-0.001586914,0.3105164,4.077,0,0,0,0.2999878,nan,4,10.575,1,0,0.2615662,0.2895813,0.3702698,0.3206787,-0.02148438,-0.03125,0,1,3,0
55.393,0.001017,0.0078125,0.0703125,0.046875,0.3671875,-0.296875,10.91406,0.005859375,0.005859375,0.02929688,-0.01953125,-0.005859375,0,0.003295898,0.0008544922,-0.004150391,0,0,-0.001586914,0.3105164,4.077,0,0,0,0.2999878,nan,4,10.585,1,0,0.294281,0.2519531,0.4178772,0.2779846,-0.02148438,-0.03125,0,1,3,0
55.403,0.001017,-0.015625,-0.05664062,-0.009765625,0.640625,-0.9375,9.179688,0,-0.001953125,0.005859375,-0.01953125,-0.005859375,0,0.003417969,0.0008544922,-0.00390625,0,0,-0.001586914,0.3105164,4.077,0,0,0,0.2999878,nan,4,10.595,1,0,0.234314,0.3267212,0.3356628,0.3454285,-0.02148438,-0.03125,0,1,3,0
55.414,0.001017,-0.02734375,0.07421875,-0.02148438,-1.515625,-0.5234375,9.914062,0.01757812,-0.0390625,-0.01171875,-0.02148438,-0.001953125,0,0.00378418,0.0003662109,-0.00390625,0,0,-0.001586914,0.3105164,4.077,0,0,0,0.2999878,nan,4,10.605,1,0,0.2385559,0.3180542,0.3448486,0.3406372,-0.02148438,-0.03125,0,1,3,0.3968254
55.424,0.001017,0.0078125,-0.0703125,-0.0078125,1.132812,-0.515625,8.632812,0.01757812,-0.05273438,-0.01171875,-0.0234375,0.001953125,0,0.00402832,-0.0002441406,-0.00402832,0,0,-0.001586914,0.3105164,4.077,0,0,0,0.2999878,nan,4,10.615,1,0,0.2624512,0.3034363,0.3618469,0.3143616,-0.02148438,-0.03125,0,1,3,0
55.434,0.001017,0.03515625,-0.0078125,-0.015625,-1.3125,1.101562,11.64844,0.01953125,0.009765625,-0.00390625,-0.0234375,0.001953125,0,0.00402832,-0.0002441406,-0.00402832,0,0,-0.001586914,0.3105164,4.077,0,0,0,0.2999878,nan,4,10.625,1,0,0.2420044,0.3095093,0.3642883,0.3263245,-0.02148438,-0.03125,0,1,3,0
55.444,0.001017,-0.07421875,-0.07226562,-0.005859375,1.476562,-0.125,8.726562,0,-0.05273438,-0.01757812,-0.0234375,0,0,0.00402832,-0.0001220703,-0.004272461,0,0,-0.001586914,0.3105164,4.077,0,0,0,0.2999878,nan,4,10.635,1,0,0.2655945,0.323822,0.3422852,0.3104248,-0.02148438,-0.03125,0,1,3,0
55.453,0.001012,-0.0703125,0.09765625,0.02734375,-1.296875,1.375,10.76562,-0.0078125,-0.0078125,0.01757812,-0.0234375,0.001953125,0,0.00402832,-0.0003662109,-0.004150391,0,0,-0.001586914,0.3105164,4.077,0,0,0,0.2999878,nan,4,10.644,1,0,0.2901306,0.2643738,0.3964539,0.2911377,-0.02148438,-0.03125,0,1,3,0
55.463,0.001003,-0.02148438,-0.04296875,-0.01757812,1.03125,-0.4921875,9.859375,0.00390625,-0.001953125,0.00390625,-0.02539062,0.001953125,0,0.00402832,-0.0001220703,-0.00402832,0,0,-0.001586914,0.3105164,4.077,0,0,0,0.2999878,nan,4,10.654,1,0,0.236145,0.3285217,0.3377686,0.3396606,-0.02148438,-0.03125,0,1,3,0.6031746
55.473,0.00104,0.02734375,-0.08984375,-0.01367188,-1.609375,1.820312,11.625,0.02148438,-0.05078125,-0.02148438,-0.02539062,0.00390625,0,0.004150391,-0.0004882812,-0.004150391,0,0,-0.001586914,0.3105164,4.077,0,0,0,0.2999878,nan,4,10.665,1,0,0.2365417,0.3374939,0.3380737,0.3299866,-0.02148438,-0.03125,0,1,3,0
55.483,0.001001,-0.01171875,0.1210938,0.03515625,1.578125,-0.7109375,9.515625,-0.03125,0.09765625,0.01757812,-0.0234375,0,0,0.00390625,0.0001220703,-0.004150391,0,0,-0.001586914,0.3105164,4.077,0,0,0,0.2999878,nan,4,10.675,1,0,0.2917786,0.2397156,0.4181519,0.29245,-0.02148438,-0.03125,0,1,3,0.5714286
55.493,0.000998,0.07226562,0.001953125,0.01367188,-1.390625,1.851562,10.98438,0.01367188,0.01367188,0.01953125,-0.0234375,-0.001953125,0,0.00378418,0.0004882812,-0.00402832,0,0,-0.001586914,0.3105164,4.077,0,0,0,0.2999878,nan,4,10.685,1,0,0.2625732,0.303772,0.3742371,0.3015137,-0.02148438,-0.03125,0,1,3,0
55.503,0.000991,-0.01953125,0.1191406,-0.01953125,0.6484375,-0.7890625,7.5625,0.01757812,-0.02539062,-0.005859375,-0.0234375,-0.001953125,0,0.00402832,0.0002441406,-0.00390625,0,0,-0.001586914,0.3105164,4.077,0,0,0,0.2999878,nan,4,10.695,1,0,0.2344055,0.3276062,0.3404541,0.3396301,-0.02148438,-0.03125,0,1,3,0
55.513,0.000998,-0.03320312,-0.1035156,0.01757812,-0.875,2.15625,11.05469,0.01367188,-0.08203125,0.009765625,-0.0234375,-0.001953125,0,0.00402832,0.0001220703,-0.00402832,0,0,-0.001586914,0.3105164,4.077,0,0,0,0.2999878,nan,4,10.705,1,0,0.2935791,0.3002014,0.3729553,0.2753906,-0.02148438,-0.03125,0,1,3,0
55.524,0.000998,-0.02539062,-0.06054688,-0.001953125,1.234375,-1.507812,8.53125,0.01367188,-0.03515625,0.01171875,-0.0234375,0.001953125,0,0.00402832,-0.0004882812,-0.00378418,0,0,-0.001586914,0.3105164,4.077,0,0,0,0.2999878,nan,4,10.715,1,0,0.2518921,0.3067627,0.3651123,0.3183289,-0.02148438,-0.03125,0,1,3,0
55.534,0.000998,0.03125,0.02148438,-0.01953125,-1.367188,0.0234375,10.96875,0.01367188,0.005859375,-0.01367188,-0.02539062,0.00390625,0,0.004150391,-0.0004882812,-0.00390625,0,0,-0.001586914,0.3105164,4.077,0,0,0,0.2999878,nan,4,10.725,1,0,0.230896,0.3235474,0.3460693,0.3416138,-0.02148438,-0.03125,0,1,3,0
55.544,0.000998,-0.08007812,0.03515625,0.01171875,0.171875,-1.15625,9.890625,-0.0234375,-0.01953125,-0.001953125,-0.02539062,0.00390625,0,0.004150391,-0.0006103516,-0.00402832,0,0,-0.001586914,0.3105164,4.077,0,0,0,0.2999878,nan,4,10.735,1,0,0.2758179,0.2869263,0.3683167,0.3110657,-0.02148438,-0.03125,0,1,3,0.5079365
55.553,0.001028,0.03125,0.02148438,0.01757812,-0.390625,0.7109375,11.14844,-0.009765625,0.009765625,0.009765625,-0.0234375,0.00390625,0,0.00378418,-0.0006103516,-0.00390625,0,0,-0.001586914,0.3105164,4.077,0,0,0,0.2999878,nan,4,10.744,1,0,0.2629395,0.2901306,0.3836365,0.3053894,-0.02148438,-0.03125,0,1,3,0
55.563,0.001022,0.07421875,0,-0.01757812,0.265625,-0.2734375,9.890625,0.02539062,0.01171875,-0.01171875,-0.0234375,0.00390625,0,0.00390625,-0.0006103516,-0.00390625,0,0,-0.001586914,0.3105164,4.077,0,0,0,0.2999878,nan,4,10.754,1,0,0.2174377,0.3387451,0.3397522,0.3461914,-0.02148438,-0.03125,0,1,3,0.3333333
55.573,0.001065,0.03710938,-0.1035156,0.01757812,0.953125,-0.203125,8.460938,0.02148438,-0.03125,-0.001953125,-0.02734375,0.005859375,0,0.004394531,-0.0008544922,-0.00402832,0,0,-0.001586914,0.3105164,4.077,0,0,0,0.2999878,nan,4,10.765,1,0,0.2793274,0.2889099,0.3753052,0.298584,-0.02246094,-0.03125,0,1,3,0
55.583,0.001021,-0.03515625,0.0078125,0.01953125,-0.8359375,0.7265625,10.46094,-0.0078125,-0.0546875,0.015625,-0.02734375,0.009765625,0,0.004516602,-0.001586914,-0.00390625,0,0,-0.001586914,0.3105164,4.077,0,0,0,0.2999878,nan,4,10.775,1,0,0.2842102,0.2752686,0.3836365,0.2989807,-0.02246094,-0.03125,0,1,3,0
55.593,0.001024,-0.01171875,0.08398438,-0.03515625,1.078125,-1.1875,9.085938,0.001953125,0.03710938,-0.01367188,-0.02734375,0.01171875,0,0.004394531,-0.001831055,-0.00390625,0,0,-0.001586914,0.3105164,4.077,0,0,0,0.2999878,nan,4,10.785,1,0,0.214447,0.3204346,0.3488464,0.3583679,-0.02246094,-0.03125,0,1,3,0
55.603,0.001024,0.01953125,-0.08398438,0.005859375,-1.90625,0.84375,11.65625,0.01367188,0.01367188,0,-0.02734375,0.0078125,0,0.004516602,-0.001342773,-0.00402832,0,0,-0.001586914,0.3105164,4.077,0,0,0,0.2999878,nan,4,10.795,1,0,0.2759399,0.2953491,0.3773804,0.293457,-0.02246094,-0.03125,0,1,3,0
55.614,0.001024,0.02148438,0.09179688,0.001953125,0.65625,-1.242188,9.78125,0.009765625,0.01757812,0.009765625,-0.02734375,0.0078125,0,0.004394531,-0.001220703,-0.00390625,0,0,-0.001586914,0.3105164,4.077,0,0,0,0.2999878,nan,4,10.805,1,0,0.2557983,0.2979431,0.3764343,0.3119507,-0.02246094,-0.03125,0,1,3,0.3968254
55.624,0.00095,-0.0078125,0.1699219,-0.005859375,-1.851562,1.5,12.67188,-0.01367188,0.05664062,0.00390625,-0.02539062,0.005859375,0,0.004394531,-0.0009765625,-0.00390625,0,0,-0.001586914,0.3105164,4.077,0,0,0,0.2999878,nan,4,10.815,1,0,0.2430725,0.2946472,0.3685608,0.3358459,-0.02246094,-0.03125,0,1,3,0
55.633,0.000812,0,0.06835938,0.005859375,1.6875,-1.328125,6.882812,-0.03710938,-0.01367188,-0.00390625,-0.02539062,0.0078125,0,0.004272461,-0.001098633,-0.00390625,0,0,-0.001586914,0.3105164,4.077,0,0,0,0.2999878,nan,4,10.824,1,0,0.2544861,0.3050232,0.3518372,0.33078,-0.02246094,-0.03125,0,1,3,0
55.643,0.00101,0.01171875,-0.04101562,0.009765625,-0.8046875,3,8.960938,-0.0078125,0.02734375,0.009765625,-0.02539062,0.0078125,0,0.004272461,-0.001220703,-0.00378418,0,0,-0.001586914,0.3105164,4.077,0,0,0,0.2999878,nan,4,10.834,1,0,0.2561035,0.2903137,0.3761902,0.3194885,-0.02246094,-0.03125,0,1,3,0.1269841
55.653,0.00099,-0.04492188,0.03515625,-0.001953125,0.84375,-1.554688,8.710938,-0.00390625,0.01757812,-0.001953125,-0.02734375,0.005859375,0,0.004516602,-0.0009765625,-0.003662109,0,0,-0.001586914,0.3105164,4.077,0,0,0,0.2999878,nan,4,10.844,1,0,0.2453308,0.3093567,0.3517456,0.3356628,-0.02246094,-0.03125,0,1,3,0
55.663,0.001027,-0.0390625,-0.1035156,0.001953125,-1.570312,2.5625,12.34375,-0.005859375,-0.0390625,-0.001953125,-0.02734375,0.005859375,0,0.004394531,-0.0009765625,-0.00378418,0,0,-0.001586914,0.3105164,4.077,0,0,0,0.2999878,nan,4,10.854,1,0,0.270813,0.3106995,0.3562012,0.3044128,-0.02246094,-0.03125,0,1,3,0
55.673,0.001002,-0.07226562,0.1152344,0.01367188,0.8125,-2.226562,9.203125,-0.04101562,0.0546875,0.01757812,-0.02539062,0.00390625,0,0.004150391,-0.0007324219,-0.003662109,0,0,-0.001586914,0.3105164,4.077,0,0,0,0.2999878,nan,4,10.865,1,0,0.2738342,0.2666321,0.3916016,0.3100281,-0.02246094,-0.03125,0,1,3,0.3809524
55.683,0.001012,0.09570312,0.02734375,-0.0078125,-1.203125,2.03125,12.04688,0.02929688,0.009765625,0.005859375,-0.0234375,0.001953125,0,0.00402832,-0.0003662109,-0.003540039,0,0,-0.001586914,0.3105164,4.077,0,0,0,0.2999878,nan,4,10.875,1,0,0.2447205,0.3192139,0.3669128,0.3112488,-0.02246094,-0.03125,0,1,3,0
55.693,0.000999,-0.02929688,0.1191406,-0.0234375,0.8125,-1.671875,9.820312,0.009765625,0.02539062,-0.01171875,-0.02539062,0.00390625,0,0.004150391,-0.0006103516,-0.003662109,0,0,-0.001586914,0.3105164,4.077,0,0,0,0.2999878,nan,4,10.885,1,0,0.2288818,0.309082,0.3605347,0.3436279,-0.02246094,-0.03125,0,1,3,0.2857143
55.703,0.000997,0.02539062,0.06835938,0.01367188,0.0625,1.617188,10.74219,-0.0078125,0.01953125,0.00390625,-0.0234375,0,0,0.00390625,-0.0001220703,-0.00378418,0,0,-0.001586914,0.3105164,4.077,0,0,0,0.2999878,nan,4,10.895,1,0,0.2742615,0.2850952,0.3851929,0.2975464,-0.02246094,-0.03125,0,1,3,0
55.714,0.001033,0.015625,-0.05664062,-0.0078125,0.1796875,-1.039062,7.890625,0.00390625,-0.02929688,-0.001953125,-0.0234375,0,0,0.00402832,-0.0001220703,-0.003662109,0,0,-0.001586914,0.3105164,4.077,0,0,0,0.2999878,nan,4,10.905,1,0,0.2518005,0.3216248,0.3479309,0.3207703,-0.02246094,-0.03125,0,1,3,0
55.724,0.00102,-0.0234375,-0.04492188,0,0.8828125,-0.09375,7.90625,-0.0234375,-0.015625,-0.005859375,-0.0234375,0.001953125,0,0.00402832,-0.0002441406,-0.00378418,0,0,-0.001586914,0.3105164,4.077,0,0,0,0.2999878,nan,4,10.915,1,0,0.2658081,0.3004761,0.355835,0.3199768,-0.02246094,-0.03125,0,1,3,0
55.734,0.001064,0.015625,0.005859375,0.0078125,-1.085938,-0.5078125,9.0625,-0.00390625,0.00390625,0.005859375,-0.0234375,0,0,0.00402832,-0.0001220703,-0.00378418,0,0,-0.001586914,0.3105164,4.077,0,0,0,0.2999878,nan,4,10.925,1,0,0.2640686,0.295166,0.3713989,0.3114624,-0.02246094,-0.03125,0,1,3,0
55.744,0.001025,0.0234375,-0.015625,0.005859375,0.7578125,-1.210938,7.351562,0.005859375,-0.0078125,-0.001953125,-0.0234375,0.001953125,0,0.00402832,-0.0001220703,-0.00378418,0,0,-0.001586914,0.3105164,4.077,0,0,0,0.2999878,nan,4,10.935,1,0,0.2574463,0.3053894,0.3646851,0.3145447,-0.02246094,-0.03125,0,1,3,0
55.753,0.000984,-0.01367188,-0.01367188,-0.00390625,-0.6328125,1.945312,11.33594,-0.005859375,-0.001953125,0.001953125,-0.0234375,0.001953125,0,0.00402832,-0.0001220703,-0.00378418,0,0,-0.001586914,0.3105164,4.077,0,0,0,0.2999878,nan,4,10.944,1,0,0.2612,0.2991638,0.367981,0.3137512,-0.02246094,-0.03125,0,1,3,0
55.763,0.001022,-0.015625,0.03320312,0.009765625,0.734375,-1.226562,9.046875,0.01171875,0.01953125,0.001953125,-0.0234375,0,0,0.00390625,-0.0001220703,-0.00378418,0,0,-0.001586914,0.3105164,4.077,0,0,0,0.2999878,nan,4,10.954,1,0,0.2572327,0.2943115,0.3797913,0.310791,-0.02246094,-0.03125,0,1,3,0
55.773,0.001003,0.03710938,0.03125,-0.00390625,-0.953125,2.507812,13.19531,0.01367188,0.01367188,-0.001953125,-0.0234375,0,0,0.00390625,0,-0.00378418,0,0,-0.001586914,0.3105164,4.077,0,0,0,0.2999878,nan,4,10.965,1,0,0.2455139,0.3093262,0.3653564,0.3219299,-0.02246094,-0.03125,0,1,3,0
55.783,0.00103,0.04492188,0.06640625,0.01367188,0.078125,-2.015625,9.765625,-0.005859375,0.0078125,0.0078125,-0.0234375,0,0,0.00378418,-0.0001220703,-0.00378418,0,0,-0.001586914,0.3105164,4.077,0,0,0,0.2999878,nan,4,10.975,1,0,0.2662048,0.283844,0.3870239,0.3050232,-0.02246094,-0.03125,0,1,3,0.4126984
55.793,0.001017,0.0703125,-0.02539062,0.009765625,0.3984375,1.734375,10.46875,0.005859375,0,0.01171875,-0.0234375,0,0,0.00378418,-0.0001220703,-0.003662109,0,0,-0.001586914,0.3105164,4.077,0,0,0,0.2999878,nan,4,10.985,1,0,0.2569275,0.3053284,0.3676453,0.3121948,-0.02246094,-0.03125,0,1,3,0
55.803,0.001017,0.0546875,0.03515625,-0.01171875,-1.226562,-2.164062,9.265625,-0.02148438,0.02734375,-0.01367188,-0.0234375,0,0,0.00378418,0,-0.003662109,0,0,-0.001586914,0.3105164,4.077,0,0,0,0.2999878,nan,4,10.995,1,0,0.2342834,0.315918,0.3452454,0.3466492,-0.02246094,-0.03125,0,1,3,0.4761905
55.813,0.001017,-0.03320312,-0.00390625,0.00390625,1.164062,2.125,11.49219,-0.01367188,-0.04882812,0.001953125,-0.02148438,0.001953125,0,0.003662109,-0.0004882812,-0.00378418,0,0,-0.001586914,0.3105164,4.077,0,0,0,0.2999878,nan,4,11.005,1,0,0.2809143,0.2865906,0.3781128,0.2964783,-0.02246094,-0.03125,0,1,3,0
55.824,0.001017,-0.01367188,0.06054688,0.001953125,-0.8984375,-2.039062,10.67969,0.01953125,0.01757812,0.01171875,-0.02148438,0.00390625,0,0.003662109,-0.0006103516,-0.003662109,0,0,-0.001586914,0.3105164,4.077,0,0,0,0.2999878,nan,4,11.015,1,0,0.2485962,0.2947693,0.3834229,0.3153381,-0.02246094,-0.03125,0,1,3,0
55.834,0.001017,-0.0546875,-0.01367188,-0.0234375,0.703125,1.578125,10.67188,0.03320312,-0.078125,-0.01171875,-0.0234375,0.0078125,0,0.00402832,-0.001220703,-0.003662109,0,0,-0.001586914,0.3105164,4.077,0,0,0,0.2999878,nan,4,11.025,1,0,0.2363281,0.3377075,0.3322449,0.3358459,-0.02246094,-0.03027344,0,1,3,0
55.844,0.001017,-0.09179688,-0.046875,0.01367188,-0.375,-1.851562,9.539062,-0.04101562,-0.078125,0,-0.0234375,0.01171875,0,0.00390625,-0.001831055,-0.00378418,0,0,-0.001586914,0.3105164,4.077,0,0,0,0.2999878,nan,4,11.035,1,0,0.2906189,0.2823181,0.3686829,0.3005066,-0.02246094,-0.03027344,0,1,3,0.6507937
55.853,0.000997,0.03320312,0.05859375,0.01367188,1.359375,1.078125,10.83594,0.009765625,0.001953125,0.01953125,-0.02148438,0.01171875,0,0.00378418,-0.001953125,-0.003662109,0,0,-0.001586914,0.3105164,4.077,0,0,0,0.2999878,nan,4,11.044,1,0,0.2600403,0.2889709,0.388855,0.3042603,-0.02246094,-0.03027344,0,1,3,0
55.863,0.000988,0.0234375,0.09570312,-0.009765625,-1.84375,-0.9375,9.367188,-0.02539062,0.109375,-0.01757812,-0.02148438,0.0078125,0,0.003662109,-0.001342773,-0.003662109,0,0,-0.001586914,0.3105164,4.077,0,0,0,0.2999878,nan,4,11.054,1,0,0.2124634,0.3171997,0.3443604,0.368103,-0.02246094,-0.03027344,0,1,3,0.3492064
55.873,0.001004,0.00390625,0.0546875,0.01757812,1.648438,-0.2734375,9.65625,-0.01757812,0.0703125,-0.001953125,-0.01953125,0.00390625,0,0.003417969,-0.0004882812,-0.00378418,0,0,-0.001586914,0.3105164,4.077,0,0,0,0.2999878,nan,4,11.065,1,0,0.2715454,0.2795715,0.3884277,0.3025513,-0.02246094,-0.03027344,0,1,3,0.4603175
55.883,0.000989,0,-0.001953125,0.01757812,-0.9140625,0.6484375,11.00781,0.0078125,0.01171875,0.01757812,-0.01953125,0.001953125,0,0.003417969,-0.0004882812,-0.003662109,0,0,-0.001586914,0.3105164,4.077,0,0,0,0.2999878,nan,4,11.075,1,0,0.2740479,0.2867737,0.3879089,0.293396,-0.02246094,-0.03125,0,1,3,0
55.893,0.0009869999,0.02734375,0.0546875,-0.02929688,1.59375,-0.8359375,7.289062,-0.00390625,0.03320312,-0.005859375,-0.02148438,0.001953125,0,0.003417969,-0.0002441406,-0.003662109,0,0,-0.001586914,0.3105164,4.077,0,0,0,0.2999878,nan,4,11.085,1,0,0.2333069,0.3190918,0.3478088,0.3418884,-0.02246094,-0.03125,0,1,3,0
55.903,0.000988,0.04492188,0.08203125,-0.005859375,-1.1875,0.8671875,10.64062,-0.03125,0.0625,-0.01367188,-0.01953125,0,0,0.003417969,0,-0.00378418,0,0,-0.001586914,0.3105164,4.077,0,0,0,0.2999878,nan,4,11.095,1,0,0.2471313,0.2874451,0.3710632,0.3364868,-0.02246094,-0.03125,0,1,3,0
55.913,0.0009869999,0.00390625,0.09375,0.04882812,0.2421875,-1.140625,9.828125,0.03125,0.01953125,0.02539062,-0.02148438,-0.00390625,0,0.003540039,0.0007324219,-0.003662109,0,0,-0.001586914,0.3105164,4.077,0,0,0,0.2999878,nan,4,11.105,1,0,0.3018799,0.2700806,0.4084778,0.2617188,-0.02246094,-0.03125,0,1,3,0.5079365
55.924,0.000988,0.04296875,-0.0546875,0.00390625,0.8125,-1.039062,8.664062,0.02734375,0.015625,0.02148438,-0.02148438,-0.005859375,0,0.003662109,0.001098633,-0.003417969,0,0,-0.001586914,0.3105164,4.077,0,0,0,0.2999878,nan,4,11.115,1,0,0.2509766,0.3145447,0.3638306,0.3127136,-0.02246094,-0.03125,0,1,3,0
55.934,0.000993,0.0234375,0.04882812,-0.009765625,-1.9375,0.953125,12.50781,0.00390625,-0.01367188,-0.0078125,-0.02148438,-0.005859375,0,0.003540039,0.0009765625,-0.003417969,0,0,-0.001586914,0.3105164,4.077,0,0,0,0.2999878,nan,4,11.125,1,0,0.2354431,0.3257751,0.3468933,0.3339844,-0.02246094,-0.03125,0,1,3,0
55.944,0.000988,-0.02539062,0.2382812,0,1.367188,-1.015625,7,-0.04101562,0.05664062,-0.00390625,-0.01953125,-0.005859375,0,0.003417969,0.0009765625,-0.003540039,0,0,-0.001586914,0.3105164,4.077,0,0,0,0.2999878,nan,4,11.135,1,0,0.2522583,0.2732544,0.3820801,0.3345337,-0.02246094,-0.03125,0,1,3,0
55.953,0.001014,-0.08984375,-0.06445312,0.005859375,-0.28125,0.7109375,7.773438,-0.0390625,0.02148438,0.01953125,-0.01757812,-0.009765625,0,0.003051758,0.001464844,-0.003417969,0,0,-0.001586914,0.3105164,4.077,0,0,0,0.2999878,nan,4,11.144,1,0,0.2780457,0.2843323,0.3748779,0.3048706,-0.02246094,-0.03125,0,1,3,0
55.963,0.00101,-0.1542969,-0.05859375,-0.01953125,0.96875,-1.554688,8.695312,-0.0390625,0.005859375,0.001953125,-0.01757812,-0.0078125,0,0.002929688,0.001464844,-0.003173828,0,0,-0.001586914,0.3105164,4.077,0,0,0,0.2999878,nan,4,11.154,1,0,0.2328796,0.3212891,0.3309326,0.3569946,-0.02246094,-0.03125,0,1,3,0
55.973,0.000999,0.0390625,0.1289062,-0.01367188,-1.664062,2,14.14844,0.02539062,0.02929688,-0.00390625,-0.01757812,-0.009765625,0,0.002929688,0.001586914,-0.003173828,0,0,-0.001586914,0.3105164,4.077,0,0,0,0.2999878,nan,4,11.165,1,0,0.2316589,0.3159485,0.3632202,0.3312683,-0.02246094,-0.03125,0,1,3,0
55.983,0.001011,0.015625,-0.06835938,0.009765625,0.78125,-1.367188,9.226562,0.015625,-0.0234375,-0.00390625,-0.01757812,-0.009765625,0,0.003051758,0.001708984,-0.003295898,0,0,-0.001586914,0.3105164,4.077,0,0,0,0.2999878,nan,4,11.175,1,0,0.2717285,0.3035278,0.3734131,0.293457,-0.02246094,-0.03125,0,1,3,0.04761905
55.993,0.001018,-0.01171875,-0.02148438,0.01953125,-0.9296875,2.132812,12.6875,0,-0.03515625,0.005859375,-0.01757812,-0.01171875,0,0.002807617,0.001831055,-0.003417969,0,0,-0.001586914,0.3105164,4.077,0,0,0,0.2999878,nan,4,11.185,1,0,0.2837524,0.2998352,0.3768921,0.2816467,-0.02246094,-0.03125,0,1,3,0
56.003,0.001014,-0.0234375,0.1210938,0.0078125,0.1875,-2.898438,8.875,0.02539062,0.02929688,0.001953125,-0.01757812,-0.01171875,0,0.002807617,0.001831055,-0.003295898,0,0,-0.001586914,0.3105164,4.077,0,0,0,0.2999878,nan,4,11.195,1,0,0.2388306,0.2972107,0.37854,0.3275146,-0.02246094,-0.03125,0,1,3,0.04761905
56.013,0.001014,0.01953125,-0.05664062,-0.015625,-0.4375,2.242188,11.66406,-0.009765625,-0.0546875,-0.009765625,-0.015625,-0.009765625,0,0.002685547,0.001464844,-0.003417969,0,0,-0.001586914,0.3105164,4.077,0,0,0,0.2999878,nan,4,11.205,1,0,0.2618408,0.3118591,0.3551941,0.3132019,-0.02246094,-0.03125,0,1,3,0
56.024,0.001023,-0.01367188,-0.02148438,0.001953125,1.007812,-2.664062,5.617188,-0.04882812,-0.06445312,-0.00390625,-0.015625,-0.005859375,0,0.002563477,0.0008544922,-0.003540039,0,0,-0.001586914,0.3105164,4.077,0,0,0,0.2999878,nan,4,11.215,1,0,0.274353,0.2948608,0.3585815,0.3143311,-0.02246094,-0.03125,0,1,3,0
56.034,0.001023,0.01171875,0.03125,-0.01171875,-0.0546875,2.164062,9.875,0.005859375,0.03515625,0.005859375,-0.015625,-0.005859375,0,0.002563477,0.0009765625,-0.003417969,0,0,-0.001586914,0.3105164,4.077,0,0,0,0.2999878,nan,4,11.225,1,0,0.2467957,0.2951355,0.3736267,0.3265686,-0.02246094,-0.03125,0,1,3,0.3333333
56.044,0.001023,0.05078125,-0.005859375,-0.01757812,-0.703125,-2.117188,9.679688,0.03320312,0.03710938,-0.009765625,-0.01757812,-0.0078125,0,0.002929688,0.001220703,-0.003540039,0,0,-0.001586914,0.3105164,4.077,0,0,0,0.2999878,nan,4,11.235,1,0,0.2340088,0.3164368,0.3601379,0.3315125,-0.02246094,-0.03125,0,1,3,0.3492064
56.053,0.001003,0.0859375,-0.06835938,-0.009765625,1.070312,0.8828125,11.14844,0.01757812,-0.001953125,-0.01367188,-0.01757812,-0.009765625,0,0.002929688,0.001464844,-0.003662109,0,0,-0.001586914,0.3105164,4.077,0,0,0,0.2999878,nan,4,11.244,1,0,0.2553406,0.3164062,0.3612366,0.3091431,-0.02246094,-0.03125,0,1,3,0
56.063,0.001003,0,0.00390625,0.01367188,-0.8359375,-0.15625,10.67969,0.00390625,0.0078125,0.01367188,-0.01757812,-0.0078125,0,0.002807617,0.001464844,-0.003662109,0,0,-0.001586914,0.3105164,4.077,0,0,0,0.2999878,nan,4,11.254,1,0,0.2704468,0.2829895,0.3924255,0.2962646,-0.02246094,-0.03125,0,1,3,0
56.073,0.001013,0.02148438,-0.01367188,-0.01171875,1.304688,0.5703125,9.703125,0.0078125,0,-0.005859375,-0.01757812,-0.0078125,0,0.002807617,0.001464844,-0.003540039,0,0,-0.001586914,0.3105164,4.077,0,0,0,0.2999878,nan,4,11.265,1,0,0.2323608,0.3272705,0.3442383,0.3382263,-0.0234375,-0.03125,0,1,3,0.2222222
56.083,0.001008,-0.04296875,-0.02734375,-0.009765625,-2.289062,-0.09375,10.97656,-0.02539062,-0.009765625,-0.01953125,-0.015625,-0.009765625,0,0.002685547,0.001708984,-0.003662109,0,0,-0.001586914,0.3105164,4.077,0,0,0,0.2999878,nan,4,11.275,1,0,0.2512207,0.3214111,0.3406677,0.3288269,-0.0234375,-0.03125,0,1,3,0
56.093,0.001009,-0.03710938,0.02734375,0.03710938,1.671875,-0.703125,9.570312,-0.0234375,0.04492188,0.01171875,-0.01367188,-0.01367188,0,0.002319336,0.002197266,-0.003662109,0,0,-0.001586914,0.3105164,4.077,0,0,0,0.2999878,nan,4,11.285,1,0,0.2833862,0.2687073,0.4009399,0.2890625,-0.02246094,-0.03125,0,1,3,0.4285714
56.103,0.001003,0.0078125,0.04101562,-0.001953125,-1.132812,1.085938,11.6875,0.01171875,0.02734375,0.015625,-0.01367188,-0.01367188,0,0.002319336,0.002319336,-0.003540039,0,0,-0.001586914,0.3105164,4.077,0,0,0,0.2999878,nan,4,11.295,1,0,0.2458496,0.3067017,0.3675842,0.3219604,-0.0234375,-0.03125,0,1,3,0
56.113,0.000998,-0.01171875,0,-0.0078125,1.25,-1.492188,8.25,0.009765625,-0.001953125,-0.001953125,-0.015625,-0.015625,0,0.002563477,0.002563477,-0.003417969,0,0,-0.001586914,0.3105164,4.077,0,0,0,0.2999878,nan,4,11.305,1,0,0.2371826,0.3235474,0.3456116,0.3357544,-0.0234375,-0.03125,0,1,3,0
56.124,0.001004,0.08789062,-0.2089844,0.00390625,-1.960938,0.4140625,11.57031,0.03320312,-0.05664062,-0.0078125,-0.015625,-0.015625,0,0.002563477,0.002685547,-0.003540039,0,0,-0.001586914,0.3105164,4.077,0,0,0,0.2999878,nan,4,11.315,1,0,0.2772827,0.3178711,0.3670654,0.2798767,-0.0234375,-0.03125,0,1,3,0
56.134,0.000997,-0.03710938,-0.0390625,0.02734375,1,-1.65625,9.101562,0.00390625,-0.06054688,0.015625,-0.015625,-0.01367188,0,0.002563477,0.002319336,-0.003540039,0,0,-0.001586914,0.3105164,4.077,0,0,0,0.2999878,nan,4,11.325,1,0,0.295105,0.2799683,0.3902893,0.2767029,-0.0234375,-0.03125,0,1,3,0
56.143,0.001011,0.046875,-0.001953125,0.015625,0.46875,-0.0234375,9.9375,0.009765625,0.0078125,0.0234375,-0.01367188,-0.01367188,0,0.002197266,0.002075195,-0.003417969,0,0,-0.001586914,0.3105164,4.077,0,0,0,0.2999878,nan,4,11.334,1,0,0.2582092,0.288269,0.3917236,0.3039246,-0.0234375,-0.03125,0,1,3,0.4444444
56.153,0.001001,0.05273438,0.046875,-0.0078125,-0.8359375,0.3359375,9.859375,0.01953125,0.02148438,-0.0078125,-0.015625,-0.01367188,0,0.002441406,0.002197266,-0.003295898,0,0,-0.001586914,0.3105164,4.077,0,0,0,0.2999878,nan,4,11.344,1,0,0.2220459,0.3233337,0.3544312,0.3422852,-0.0234375,-0.03125,0,1,3,0.5396826
56.163,0.000979,-0.0234375,-0.1308594,-0.0078125,0.078125,-0.0859375,9.179688,-0.005859375,-0.0390625,-0.02148438,-0.015625,-0.01367188,0,0.002563477,0.002319336,-0.003540039,0,0,-0.001586914,0.3105164,4.077,0,0,0,0.2999878,nan,4,11.354,1,0,0.2590942,0.3237915,0.3405151,0.3186951,-0.0234375,-0.03125,0,1,3,0
56.173,0.001007,-0.02929688,0.09765625,0.0234375,-0.015625,-0.8828125,9.664062,-0.0546875,0.04296875,0.0078125,-0.01367188,-0.01367188,0,0.002319336,0.002319336,-0.003662109,0,0,-0.001586914,0.3105164,4.077,0,0,0,0.2999878,nan,4,11.365,1,0,0.2839355,0.2494812,0.4014587,0.307251,-0.0234375,-0.03125,0,1,3,0.4126984
56.183,0.001031,-0.00390625,0.015625,-0.01757812,0.4921875,-0.71875,8.929688,0.01757812,0.02929688,0,-0.01367188,-0.015625,0,0.002319336,0.002563477,-0.003540039,0,0,-0.001586914,0.3105164,4.077,0,0,0,0.2999878,nan,4,11.375,1,0,0.228241,0.3222961,0.3539124,0.3376465,-0.0234375,-0.03125,0,1,3,0
56.193,0.001041,0.0234375,-0.1035156,-0.01367188,-0.78125,-0.2734375,9.601562,0.001953125,0.009765625,-0.01757812,-0.015625,-0.01757812,0,0.002441406,0.002807617,-0.003540039,0,0,-0.001586914,0.3105164,4.077,0,0,0,0.2999878,nan,4,11.385,1,0,0.2363281,0.3233337,0.3421021,0.340332,-0.0234375,-0.03125,0,1,3,0.2380952
56.204,0.00106,0.03515625,-0.1738281,0.009765625,1.640625,-1,8.3125,0.0078125,-0.01953125,-0.00390625,-0.01367188,-0.01757812,0,0.002319336,0.003051758,-0.003662109,0,0,-0.001586914,0.3105164,4.077,0,0,0,0.2999878,nan,4,11.395,1,0,0.2745667,0.3048096,0.3734436,0.2893066,-0.0234375,-0.03125,0,1,3,0
56.213,0.001022,0.04882812,0.015625,0.01367188,-0.78125,2.070312,11.625,0.0234375,0.09375,0.01757812,-0.01367188,-0.02148438,0,0.002197266,0.00378418,-0.003540039,0,0,-0.001586914,0.3105164,4.077,0,0,0,0.2999878,nan,4,11.405,1,0,0.2542114,0.284729,0.3998718,0.3032837,-0.0234375,-0.03125,0,1,3,0
56.224,0.001022,-0.00390625,0.01953125,-0.00390625,0.828125,-2.890625,8.445312,0.015625,0.00390625,-0.0078125,-0.015625,-0.02539062,0,0.002441406,0.00402832,-0.003540039,0,0,-0.001586914,0.3093567,4.077,0,0,0,0.298584,nan,4,11.415,1,0,0.2435608,0.3199768,0.3477173,0.3261414,-0.0234375,-0.03125,0,1,3,0
56.234,0.001022,-0.009765625,-0.015625,-0.005859375,-1.507812,2.296875,12.91406,-0.00390625,-0.01171875,-0.00390625,-0.015625,-0.0234375,0,0.002441406,0.00402832,-0.003662109,0,0,-0.001586914,0.3076782,4.077,0,0,0,0.2965698,nan,4,11.425,1,0,0.2542114,0.2994385,0.3606873,0.3163147,-0.0234375,-0.03125,0,1,3,0
56.244,0.001022,0.00390625,0.005859375,0.001953125,0.640625,-3.195312,8.554688,0.0078125,0.015625,0.0078125,-0.015625,-0.02539062,0,0.002441406,0.00402832,-0.003540039,0,0,-0.001586914,0.3059692,4.077,0,0,0,0.2946167,nan,4,11.435,1,0,0.2549744,0.2841797,0.3773193,0.3074341,-0.0234375,-0.03125,0,1,3,0
56.253,0.001003,0.1289062,-0.06835938,0,0.6171875,2.078125,12.35938,0.03320312,0.009765625,0.00390625,-0.015625,-0.02539062,0,0.002563477,0.004272461,-0.003540039,0,0,-0.001586914,0.3044739,4.077,0,0,0,0.2927856,nan,4,11.444,1,0,0.2368164,0.3081055,0.3652954,0.3076172,-0.0234375,-0.03125,0,1,3,0
56.263,0.00099,0.04101562,-0.02929688,0.01367188,-0.140625,-0.9765625,10.09375,0.0078125,-0.02148438,0.009765625,-0.015625,-0.0234375,0,0.002441406,0.00390625,-0.003540039,0,0,-0.001586914,0.3026123,4.077,0,0,0,0.2905884,nan,4,11.454,1,0,0.2540283,0.2869263,0.3752441,0.2942505,-0.0234375,-0.03125,0,1,3,0.3015873
56.273,0.001006,0.08007812,0.1796875,-0.01757812,0.3984375,0.75,10.78906,0.03320312,0.00390625,0.001953125,-0.01367188,-0.02148438,0,0.002441406,0.003662109,-0.003417969,0,0,-0.001586914,0.3009338,4.077,0,0,0,0.2885742,nan,4,11.464,1,0,0.2196655,0.3033752,0.3639221,0.3167419,-0.0234375,-0.03125,0,1,3,0
56.283,0.001011,0.046875,-0.1230469,-0.009765625,-1.109375,-1.96875,6.992188,0.0078125,-0.02929688,-0.01171875,-0.015625,-0.0234375,0,0.002685547,0.00390625,-0.003540039,0,0,-0.001586914,0.2992554,4.077,0,0,0,0.2866211,nan,4,11.475,1,0,0.2420959,0.3141174,0.3283081,0.312439,-0.0234375,-0.03125,0,1,3,0
56.293,0.001002,-0.0390625,-0.0390625,0.03125,1.804688,0.46875,9.195312,-0.02148438,0.04492188,0.015625,-0.01367188,-0.02734375,0,0.002441406,0.004516602,-0.003540039,0,0,-0.001586914,0.2975464,4.077,0,0,0,0.2846069,nan,4,11.485,1,0,0.2732544,0.2552795,0.3834229,0.2782898,-0.0234375,-0.03222656,0,1,3,0.1111111
56.303,0.001003,0.00390625,-0.001953125,0.009765625,-1.773438,2.75,12.10156,0.01757812,0.02539062,0.01953125,-0.01367188,-0.02929688,0,0.002441406,0.004760742,-0.003295898,0,0,-0.001586914,0.2958679,4.077,0,0,0,0.2825928,nan,4,11.495,1,0,0.2345886,0.287323,0.3610535,0.3005371,-0.0234375,-0.03222656,0,1,3,0
56.313,0.001003,0.01367188,0.005859375,-0.02929688,1.265625,-1.109375,9.210938,0.0234375,0,-0.015625,-0.015625,-0.02929688,0,0.002685547,0.004760742,-0.003295898,0,0,-0.001586914,0.2941895,4.077,0,0,0,0.2805786,nan,4,11.505,1,0,0.2006531,0.3230591,0.3181763,0.3348694,-0.0234375,-0.03222656,0,1,3,0.03174603
56.324,0.001003,0.05859375,-0.2792969,0.01757812,-1.25,1.664062,8.796875,0,-0.046875,-0.01757812,-0.01757812,-0.02929688,0,0.002807617,0.004760742,-0.003540039,0,0,-0.001586914,0.292511,4.077,0,0,0,0.2786255,nan,4,11.515,1,0,0.2662354,0.2829285,0.3478088,0.2730408,-0.0234375,-0.03222656,0,1,3,0
56.334,0.000992,-0.01171875,0.1640625,0.0078125,0.7421875,-1.640625,8.429688,-0.02148438,0.02929688,0.01757812,-0.01757812,-0.0234375,0,0.002807617,0.00402832,-0.003540039,0,0,-0.001586914,0.2908325,4.077,0,0,0,0.2766113,nan,4,11.525,1,0,0.2388306,0.2337952,0.3887024,0.3019409,-0.0234375,-0.03222656,0,1,3,0
56.343,0.001022,-0.05859375,0,-0.005859375,-0.59375,2.726562,12.05469,0.01367188,0.0234375,0.00390625,-0.01757812,-0.02539062,0,0.002929688,0.004150391,-0.003417969,0,0,-0.001586914,0.2893066,4.077,0,0,0,0.2747803,nan,4,11.534,1,0,0.2130432,0.290802,0.337677,0.3156738,-0.0234375,-0.03222656,0,1,3,0
56.354,0.001003,-0.02148438,-0.00390625,-0.02734375,1.210938,-1.859375,8.34375,-0.015625,-0.009765625,-0.01953125,-0.01757812,-0.02539062,0,0.002807617,0.004150391,-0.003417969,0,0,-0.001586914,0.2874451,4.077,0,0,0,0.272583,nan,4,11.545,1,0,0.2084351,0.303894,0.3126526,0.3247986,-0.0234375,-0.03222656,0,1,3,0
56.363,0.001006,-0.009765625,0,-0.009765625,-1.710938,1.742188,12.22656,0.009765625,0.001953125,-0.009765625,-0.01757812,-0.02539062,0,0.002807617,0.004150391,-0.003540039,0,0,-0.001586914,0.2857666,4.077,0,0,0,0.2706299,nan,4,11.554,1,0,0.2207031,0.2816467,0.3443298,0.2963867,-0.0234375,-0.03222656,0,1,3,0
56.373,0.000995,-0.05078125,0.09375,-0.03710938,1.15625,-0.59375,8.695312,0.01953125,0.02148438,-0.01367188,-0.01757812,-0.02539062,0,0.002929688,0.004150391,-0.003662109,0,0,-0.001586914,0.2840881,4.077,0,0,0,0.2686157,nan,4,11.564,1,0,0.2025452,0.2890015,0.3314514,0.3133545,-0.0234375,-0.03222656,0,1,3,0
56.383,0.001019,-0.03320312,0.01953125,0.01757812,-1.59375,1.203125,11.92188,0.009765625,0.0234375,-0.001953125,-0.01757812,-0.02734375,0,0.002929688,0.004394531,-0.00378418,0,0,-0.001586914,0.2824097,4.077,0,0,0,0.2666016,nan,4,11.575,1,0,0.2382507,0.2559204,0.359314,0.276123,-0.0234375,-0.03222656,0,1,3,0
56.393,0.000974,0.08007812,0.01953125,0.015625,1.914062,-0.3828125,8.648438,0.009765625,0.005859375,0.0078125,-0.01757812,-0.02734375,0,0.002929688,0.004394531,-0.003662109,0,0,-0.001586914,0.2807007,4.077,0,0,0,0.2645874,nan,4,11.585,1,0,0.2254028,0.266571,0.3511658,0.2797241,-0.0234375,-0.03222656,0,1,3,0
56.403,0.001057,-0.06835938,-0.04296875,-0.02148438,-2.390625,0.0625,10.4375,0.01171875,-0.1113281,-0.0078125,-0.01953125,-0.0234375,0,0.003173828,0.00390625,-0.003662109,0,0,-0.001586914,0.2790222,4.077,0,0,0,0.2625732,nan,4,11.595,1,0,0.2208862,0.3028259,0.298584,0.2938232,-0.0234375,-0.03222656,0,1,3,0
56.413,0.001017,-0.06835938,-0.078125,0.03125,1.890625,-1.484375,7.234375,-0.04101562,-0.02734375,0.00390625,-0.01757812,-0.02148438,0,0.003051758,0.003540039,-0.00378418,0,0,-0.001586914,0.2773438,4.077,0,0,0,0.2606201,nan,4,11.605,1,0,0.2531433,0.2416687,0.348114,0.2664795,-0.0234375,-0.03222656,0,1,3,0
56.424,0.001011,-0.1328125,0.00390625,-0.01367188,-1.5,3.960938,12.78906,-0.02929688,0.02929688,0.005859375,-0.01757812,-0.01953125,0,0.002807617,0.003417969,-0.003662109,0,0,-0.001586914,0.2756653,4.077,0,0,0,0.258606,nan,4,11.615,1,0,0.2087097,0.258728,0.3314209,0.3038025,-0.0234375,-0.03222656,0,1,3,0
56.434,0.001039,0.1035156,0.01953125,0.01953125,0.109375,-3.25,9.148438,0.06445312,-0.01757812,0.0234375,-0.01757812,-0.02148438,0,0.002929688,0.003540039,-0.003540039,0,0,-0.001586914,0.2739868,4.077,0,0,0,0.2565918,nan,4,11.625,1,0,0.2272034,0.2644653,0.3592224,0.2450256,-0.0234375,-0.03222656,0,1,3,0.5396826
56.444,0.001051,0,0.1191406,-0.00390625,-1.4375,2.09375,12.375,-0.00390625,0.02148438,-0.001953125,-0.01757812,-0.01953125,0,0.003051758,0.003173828,-0.003417969,0,0,-0.001586914,0.2723083,4.077,0,0,0,0.2545776,nan,4,11.635,1,0,0.1913452,0.265564,0.322937,0.3093262,-0.0234375,-0.03222656,0,1,3,0
56.453,0.001032,-0.03710938,-0.03320312,-0.001953125,1.875,-0.3984375,5.625,-0.01757812,-0.01757812,0.005859375,-0.01757812,-0.01953125,0,0.002807617,0.003295898,-0.003417969,0,0,-0.001586914,0.2705994,4.077,0,0,0,0.2526245,nan,4,11.644,1,0,0.2210388,0.2608948,0.3234863,0.2770081,-0.0234375,-0.03222656,0,1,3,0
56.463,0.001038,-0.1542969,0.06835938,-0.05078125,-1.851562,-1.90625,7.296875,-0.09570312,-0.001953125,-0.03320312,-0.015625,-0.02148438,0,0.002685547,0.003417969,-0.003540039,0,0,-0.001586914,0.2689209,4.077,0,0,0,0.2506104,nan,4,11.654,1,0,0.1897888,0.2865295,0.2604065,0.3389893,-0.0234375,-0.03222656,0,1,3,0
56.473,0.001024,-0.02539062,-0.09960938,0.01757812,1.828125,0.2734375,9.1875,-0.01953125,-0.0546875,0.005859375,-0.01367188,-0.01953125,0,0.002075195,0.003417969,-0.003662109,0,0,-0.001586914,0.2672424,4.077,0,0,0,0.2485962,nan,4,11.664,1,0,0.2547302,0.2360535,0.348175,0.230011,-0.0234375,-0.03222656,0,1,3,0.0952381
56.483,0.001011,0.01953125,-0.009765625,0.03320312,-0.6796875,2.125,10.96875,-0.001953125,0.0234375,0.01367188,-0.01171875,-0.01953125,0,0.001953125,0.003295898,-0.003662109,0,0,-0.001586914,0.265564,4.077,0,0,0,0.246582,nan,4,11.675,1,0,0.2204895,0.2327576,0.3537598,0.255249,-0.0234375,-0.03222656,0,1,3,0
56.493,0.000978,0.08203125,0.05273438,-0.00390625,0.25,-1.929688,7.570312,0.03320312,0.02929688,0.001953125,-0.01367188,-0.02148438,0,0.002075195,0.003417969,-0.003417969,0,0,-0.001586914,0.2638855,4.077,0,0,0,0.2446289,nan,4,11.685,1,0,0.1729126,0.2769775,0.3112793,0.2943115,-0.0234375,-0.03222656,0,1,3,0
56.503,0.00101,-0.03710938,-0.02734375,-0.009765625,-1.242188,0.40625,9.523438,-0.04296875,0.01171875,-0.01757812,-0.01367188,-0.02148438,0,0.002197266,0.003540039,-0.003540039,0,0,-0.001586914,0.2621765,4.077,0,0,0,0.2426147,nan,4,11.695,1,0,0.1871338,0.2712708,0.2824402,0.3078918,-0.0234375,-0.03222656,0,1,3,0.01587302
56.513,0.000919,0.01367188,0.00390625,0.01171875,1.265625,0.9765625,10.14844,0.01953125,-0.01367188,0.0078125,-0.01367188,-0.02148438,0,0.002319336,0.003540039,-0.003540039,0,0,-0.001586914,0.260498,4.077,0,0,0,0.2406006,nan,4,11.705,1,0,0.2192688,0.2400208,0.3346252,0.2481079,-0.0234375,-0.03222656,0,1,3,0.03174603
56.524,0.000991,0.06835938,-0.1992188,-0.01367188,-1.484375,0.3671875,11.20312,0.0625,-0.140625,-0.02148438,-0.015625,-0.01953125,0,0.002685547,0.003173828,-0.003662109,0,0,-0.001586914,0.2588196,4.077,0,0,0,0.2385864,nan,4,11.715,1,0,0.1972656,0.3106384,0.2734985,0.2539062,-0.0234375,-0.03222656,0,1,3,0
56.534,0.000991,0.04882812,0.0546875,0.046875,1.21875,1.78125,10.24219,-0.01171875,-0.0625,0.03125,-0.015625,-0.01171875,0,0.002563477,0.002075195,-0.003540039,0,0,-0.001586914,0.2571411,4.077,0,0,0,0.2365723,nan,4,11.725,1,0,0.255188,0.186615,0.3745422,0.2121887,-0.0234375,-0.03222656,0,1,3,0
56.544,0.000991,0.09375,0.0703125,0.0078125,-1.15625,-3.351562,8.835938,0.0390625,0.02148438,0.01171875,-0.015625,-0.01171875,0,0.002685547,0.001831055,-0.003417969,0,0,-0.001586914,0.2554626,4.077,0,0,0,0.2346191,nan,4,11.735,1,0,0.170166,0.2539673,0.3223267,0.2753906,-0.0234375,-0.03222656,0,1,3,0.4126984
56.553,0.001079,-0.02539062,-0.09375,0.009765625,1.1875,1.851562,10.47656,-0.00390625,-0.01953125,0.0078125,-0.01757812,-0.01171875,0,0.002807617,0.002075195,-0.003295898,0,0,-0.001586914,0.2537537,4.077,0,0,0,0.232605,nan,4,11.744,1,0,0.2152405,0.2415771,0.3081055,0.2501221,-0.0234375,-0.03222656,0,1,3,0
56.563,0.001006,0.03710938,-0.07226562,0.015625,0.90625,-0.25,8.328125,-0.005859375,-0.001953125,0.015625,-0.015625,-0.01171875,0,0.002685547,0.002075195,-0.003173828,0,0,-0.001586914,0.2520752,4.077,0,0,0,0.2305908,nan,4,11.754,1,0,0.2081604,0.2356567,0.318573,0.2459717,-0.0234375,-0.03222656,0,1,3,0
56.573,0.001009,0.05273438,-0.015625,-0.0078125,-1.390625,2.148438,12.07031,0.03515625,0.01171875,-0.01171875,-0.01757812,-0.01367188,0,0.002807617,0.002197266,-0.003295898,0,0,-0.001586914,0.2503967,4.077,0,0,0,0.2285767,nan,4,11.764,1,0,0.1680908,0.268219,0.2941895,0.2711182,-0.0234375,-0.03222656,0,1,3,0
56.583,0.000959,-0.03515625,-0.09375,-0.005859375,1.953125,-0.625,7.296875,-0.015625,0.005859375,-0.0078125,-0.01757812,-0.01367188,0,0.002807617,0.002441406,-0.003417969,0,0,-0.001586914,0.2487183,4.077,0,0,0,0.2266235,nan,4,11.775,1,0,0.204834,0.2322693,0.3071594,0.2506104,-0.0234375,-0.03222656,0,1,3,0
56.593,0.000992,-0.09570312,0.2167969,-0.01367188,-2.945312,-1.34375,11.63281,-0.01171875,0.06835938,0.001953125,-0.015625,-0.01367188,0,0.002685547,0.002197266,-0.003295898,0,0,-0.001586914,0.2470398,4.077,0,0,0,0.2246094,nan,4,11.785,1,0,0.1656189,0.2237244,0.3145752,0.2842102,-0.0234375,-0.03222656,0,1,3,0
56.603,0.001005,-0.009765625,-0.009765625,0.02734375,1.46875,-0.921875,8.945312,-0.03125,0.02734375,0.01367188,-0.015625,-0.01757812,0,0.002563477,0.002929688,-0.003295898,0,0,-0.001586914,0.2453613,4.077,0,0,0,0.2225952,nan,4,11.795,1,0,0.2110596,0.2158813,0.3156128,0.2388306,-0.0234375,-0.03222656,0,1,3,0
56.613,0.001005,0.01757812,-0.1074219,-0.02148438,-1.851562,-2.164062,8.320312,0.001953125,-0.0625,0,-0.015625,-0.01757812,0,0.002563477,0.002807617,-0.003173828,0,0,-0.001586914,0.2436523,4.077,0,0,0,0.2205811,nan,4,11.805,1,0,0.1839905,0.2671814,0.2725525,0.2509155,-0.0234375,-0.03222656,0,1,3,0
56.624,0.001005,-0.05273438,-0.1601562,0.03320312,1.25,2.3125,9.664062,0.01757812,-0.08984375,0.009765625,-0.015625,-0.01367188,0,0.002685547,0.002441406,-0.003173828,0,0,-0.001586914,0.2419739,4.077,0,0,0,0.2186279,nan,4,11.815,1,0,0.2189941,0.2325745,0.3009949,0.2153625,-0.0234375,-0.03222656,0,1,3,0.4920635
56.634,0.001005,0.00390625,-0.001953125,0.0234375,1.414062,-2.96875,9.03125,0.005859375,0.01171875,0.02734375,-0.015625,-0.01367188,0,0.002685547,0.002197266,-0.002929688,0,0,-0.001586914,0.2402954,4.077,0,0,0,0.2166138,nan,4,11.825,1,0,0.1897278,0.2124329,0.3202209,0.2388,-0.0234375,-0.03222656,0,1,3,0.3968254
56.644,0.001013,0.015625,0.1289062,-0.009765625,-0.5859375,5,13.79688,0.0078125,0.07617188,0,-0.015625,-0.01367188,0,0.002563477,0.002441406,-0.002929688,0,0,-0.001586914,0.2386169,4.077,0,0,0,0.2145996,nan,4,11.835,1,0,0.1482544,0.2324219,0.3001099,0.2736511,-0.0234375,-0.03222656,0,1,3,0
56.654,0.001005,-0.02148438,0.02734375,0.02148438,1.773438,-1.203125,7.765625,-0.01367188,-0.00390625,0.01367188,-0.015625,-0.01757812,0,0.002563477,0.002807617,-0.002807617,0,0,-0.001586914,0.2369385,4.077,0,0,0,0.2125854,nan,4,11.845,1,0,0.2064209,0.2137756,0.3025208,0.2249756,-0.0234375,-0.03222656,0,1,3,0
56.663,0.001017,0.01171875,-0.0078125,0,-1.0625,3.28125,11.03125,0.0078125,0.01367188,-0.00390625,-0.01757812,-0.01757812,0,0.002807617,0.003051758,-0.002807617,0,0,-0.001586914,0.2352295,4.077,0,0,0,0.2105713,nan,4,11.854,1,0,0.1642151,0.2400513,0.276825,0.2598572,-0.0234375,-0.03222656,0,1,3,0
56.673,0.001011,-0.01367188,0.009765625,-0.001953125,1.046875,2.125,11.82031,-0.01171875,-0.015625,-0.01367188,-0.01757812,-0.01757812,0,0.002807617,0.002929688,-0.002929688,0,0,-0.001586914,0.233551,4.077,0,0,0,0.2086182,nan,4,11.864,1,0,0.1766968,0.227356,0.2818604,0.2483215,-0.02441406,-0.03222656,0,1,3,0
56.683,0.001007,-0.01171875,0.06640625,-0.02929688,1.726562,-0.515625,7.164062,0.01171875,-0.00390625,-0.0234375,-0.01757812,-0.015625,0,0.002929688,0.002685547,-0.003051758,0,0,-0.001586914,0.2318726,4.077,0,0,0,0.206604,nan,4,11.875,1,0,0.1451416,0.2449341,0.2694702,0.2679443,-0.02441406,-0.03222656,0,1,3,0
56.693,0.001001,-0.02539062,-0.04101562,-0.009765625,-2.554688,-0.5078125,11.78125,-0.02539062,-0.02148438,-0.01171875,-0.01757812,-0.015625,0,0.002807617,0.002685547,-0.003295898,0,0,-0.001586914,0.2301941,4.077,0,0,0,0.2045898,nan,4,11.885,1,0,0.1879578,0.2128601,0.2891541,0.2308044,-0.02441406,-0.03222656,0,1,3,0
56.703,0.000996,0.015625,0.00390625,0.001953125,-0.046875,0.6015625,9.078125,0.03320312,-0.02929688,-0.009765625,-0.01757812,-0.01367188,0,0.002807617,0.002197266,-0.003417969,0,0,-0.001586914,0.2285156,4.077,0,0,0,0.2025757,nan,4,11.895,1,0,0.1683044,0.2203979,0.3007812,0.2245178,-0.02441406,-0.03222656,0,1,3,0
56.714,0.001017,0.04882812,0.01757812,0,0.3046875,-5.265625,8.34375,0.00390625,-0.001953125,0.005859375,-0.015625,-0.01171875,0,0.002685547,0.001953125,-0.003417969,0,0,-0.001586914,0.2268066,4.077,0,0,0,0.2006226,nan,4,11.905,1,0,0.1708679,0.2087402,0.2992249,0.2284546,-0.02441406,-0.03222656,0,1,3,0.6984127
56.724,0.000981,-0.01953125,0.01171875,0.03710938,-2.664062,-0.7578125,11.30469,0.001953125,0.04101562,0.01171875,-0.01757812,-0.01367188,0,0.002807617,0.002197266,-0.003417969,0,0,-0.001586914,0.2251282,4.077,0,0,0,0.1986084,nan,4,11.915,1,0,0.1904907,0.1830139,0.3147888,0.2122498,-0.02441406,-0.03222656,0,1,3,0
56.734,0.000961,0.01367188,0,0.015625,1.078125,2.4375,10.08594,-0.00390625,0.005859375,0.01953125,-0.015625,-0.015625,0,0.002685547,0.002441406,-0.003173828,0,0,-0.001586914,0.2234497,4.077,0,0,0,0.1965942,nan,4,11.925,1,0,0.1773682,0.2082825,0.2888794,0.2192688,-0.02441406,-0.03222656,0,1,3,0
56.744,0.001003,-0.015625,0.01367188,0.03125,0.359375,-2.625,8.273438,-0.00390625,0.02148438,0.0234375,-0.01757812,-0.015625,0,0.002807617,0.002563477,-0.002929688,0,0,-0.001586914,0.2217712,4.077,0,0,0,0.1945801,nan,4,11.935,1,0,0.1756287,0.1956177,0.2954712,0.2203674,-0.02441406,-0.03222656,0,1,3,0
56.754,0.001003,-0.01171875,-0.009765625,0.005859375,-1.242188,4.445312,12.65625,0.009765625,-0.01367188,0.0234375,-0.01757812,-0.015625,0,0.002807617,0.002441406,-0.002685547,0,0,-0.001586914,0.2200928,4.077,0,0,0,0.192627,nan,4,11.945,1,0,0.1565552,0.2210999,0.2722778,0.2303772,-0.02441406,-0.03222656,0,1,3,0
56.763,0.001012,-0.02734375,-0.02148438,-0.001953125,2.40625,1.234375,10.50781,-0.009765625,-0.0234375,0.005859375,-0.01757812,-0.01367188,0,0.002807617,0.002441406,-0.002563477,0,0,-0.001586914,0.2183838,4.077,0,0,0,0.1906128,nan,4,11.954,1,0,0.1531372,0.2259216,0.2543945,0.2401428,-0.02441406,-0.03222656,0,1,3,0
56.773,0.001014,-0.04296875,-0.04296875,0.0078125,0.203125,-5.90625,7.445312,-0.03710938,-0.009765625,0.01757812,-0.015625,-0.01367188,0,0.002441406,0.002319336,-0.002441406,0,0,-0.001586914,0.2167053,4.077,0,0,0,0.1885986,nan,4,11.964,1,0,0.1717834,0.1985168,0.277832,0.2187195,-0.02441406,-0.03222656,0,1,3,0.3809524
56.783,0.001006,-0.05859375,0.03515625,0.005859375,-2.945312,-1.546875,10.17969,-0.009765625,-0.02539062,0.00390625,-0.01367188,-0.01367188,0,0.002319336,0.002319336,-0.002319336,0,0,-0.001586914,0.2150269,4.077,0,0,0,0.1865845,nan,4,11.975,1,0,0.1582031,0.2137756,0.2628174,0.2253418,-0.02441406,-0.03222656,0,1,3,0
56.793,0.001014,-0.05078125,-0.08398438,-0.001953125,1.625,4.6875,10.35938,-0.04882812,0.01171875,0.005859375,-0.01171875,-0.015625,0,0.001953125,0.002441406,-0.002319336,0,0,-0.001586914,0.2133484,4.077,0,0,0,0.1845703,nan,4,11.985,1,0,0.161438,0.2000427,0.2632141,0.2286987,-0.02441406,-0.03222656,0,1,3,0
56.803,0.001017,-0.1191406,-0.06445312,0.0234375,2,-1.5,8.273438,-0.03515625,-0.0234375,0.01171875,-0.01171875,-0.015625,0,0.001953125,0.002441406,-0.002197266,0,0,-0.001586914,0.2116699,4.077,0,0,0,0.1826172,nan,4,11.995,1,0,0.1828918,0.1829834,0.2730408,0.2077332,-0.02441406,-0.03222656,0,1,3,0
56.813,0.001017,0.02734375,0.04296875,-0.01171875,-2.703125,-2.046875,11,0.01367188,0.01757812,0.00390625,-0.01171875,-0.015625,0,0.001831055,0.002563477,-0.002075195,0,0,-0.001586914,0.2099915,4.077,0,0,0,0.180603,nan,4,12.005,1,0,0.1292114,0.21875,0.259552,0.2323914,-0.02441406,-0.03222656,0,1,3,0
56.823,0.001017,0.00390625,-0.001953125,0.001953125,-0.6953125,2.171875,10.96875,0.00390625,0.02539062,0.001953125,-0.009765625,-0.01757812,0,0.001708984,0.003051758,-0.002197266,0,0,-0.001586914,0.2082825,4.077,0,0,0,0.1785889,nan,4,12.015,1,0,0.1552124,0.1968384,0.2752686,0.2058411,-0.02441406,-0.03222656,0,1,3,0
56.834,0.001017,0.09179688,-0.1230469,-0.01757812,3.226562,1.585938,7.53125,0.00390625,-0.08007812,-0.01367188,-0.009765625,-0.015625,0,0.001464844,0.002685547,-0.002197266,0,0,-0.001586914,0.206604,4.077,0,0,0,0.1765747,nan,4,12.025,1,0,0.1405029,0.2362976,0.2366333,0.2129822,-0.02441406,-0.03222656,0,1,3,0
56.844,0.001007,-0.03710938,-0.1191406,-0.01367188,-1.515625,-5,5.539062,-0.03515625,-0.03710938,-0.009765625,-0.009765625,-0.015625,0,0.001586914,0.002441406,-0.002319336,0,0,-0.001586914,0.2049255,4.077,0,0,0,0.1746216,nan,4,12.035,1,0,0.1596069,0.197113,0.245636,0.2173767,-0.02441406,-0.03222656,0,1,3,0
56.854,0.000992,-0.08398438,0.03125,0.001953125,-1.640625,1.867188,12.95312,0,-0.005859375,-0.01367188,-0.009765625,-0.01171875,0,0.001708984,0.002075195,-0.002441406,0,0,-0.001586914,0.2032471,4.077,0,0,0,0.1726074,nan,4,12.045,1,0,0.1435547,0.1850586,0.2640991,0.2202454,-0.02441406,-0.03222656,0,1,3,0
56.863,0.001008,-0.0234375,0.02148438,-0.02734375,-0.6171875,1.953125,9.664062,-0.0078125,-0.005859375,-0.01367188,-0.009765625,-0.009765625,0,0.001464844,0.001831055,-0.002563477,0,0,-0.001586914,0.2015686,4.077,0,0,0,0.1705933,nan,4,12.054,1,0,0.1237183,0.2042542,0.2494507,0.2287903,-0.02441406,-0.03222656,0,1,3,0.4444444
56.873,0.000974,0.04882812,-0.02539062,0.001953125,2.867188,2.109375,9.59375,0.005859375,-0.03515625,0.009765625,-0.0078125,-0.009765625,0,0.001342773,0.001708984,-0.002563477,0,0,-0.001586914,0.1998596,4.077,0,0,0,0.1685791,nan,4,12.064,1,0,0.1616516,0.1824036,0.2753296,0.1800842,-0.02441406,-0.03222656,0,1,3,0.04761905
56.883,0.000963,0.01367188,0,0.005859375,1.257812,-2.46875,7.335938,-0.015625,0,-0.0078125,-0.0078125,-0.009765625,0,0.001220703,0.001586914,-0.002685547,0,0,-0.001586914,0.1981812,4.077,0,0,0,0.166626,nan,4,12.075,1,0,0.1388855,0.1863708,0.2578125,0.2096863,-0.02441406,-0.03222656,0,1,3,0
56.893,0.0009869999,0.08398438,-0.09960938,-0.01171875,-2.210938,-3.65625,10.04688,0.02734375,0.00390625,-0.01367188,-0.0078125,-0.009765625,0,0.001220703,0.001586914,-0.002685547,0,0,-0.001586914,0.1965027,4.077,0,0,0,0.1646118,nan,4,12.085,1,0,0.1157227,0.212677,0.2449341,0.2126465,-0.02441406,-0.03222656,0,1,3,0
56.903,0.001033,0.0078125,-0.09960938,-0.01171875,-3.101562,0.9140625,11.875,-0.005859375,-0.01953125,-0.001953125,-0.0078125,-0.009765625,0,0.001220703,0.001831055,-0.002807617,0,0,-0.001586914,0.1948242,4.077,0,0,0,0.1625977,nan,4,12.095,1,0,0.1483154,0.1910095,0.2467651,0.1932068,-0.02441406,-0.03222656,0,1,3,0
56.913,0.001003,-0.04296875,0.01367188,0.001953125,1.75,4.34375,13.25781,0.0078125,0.01171875,-0.005859375,-0.009765625,-0.01171875,0,0.001464844,0.001831055,-0.002807617,0,0,-0.001586914,0.1931458,4.077,0,0,0,0.1605835,nan,4,12.105,1,0,0.14328,0.1721497,0.2557373,0.2013855,-0.02441406,-0.03222656,0,1,3,0
56.923,0.001003,0.05078125,0.1210938,-0.015625,-0.203125,-2.4375,7.695312,0.03125,0.005859375,-0.009765625,-0.009765625,-0.009765625,0,0.001464844,0.001586914,-0.002929688,0,0,-0.001586914,0.1914368,4.077,0,0,0,0.1585693,nan,4,12.115,1,0,0.1083679,0.1930237,0.2521973,0.2122192,-0.02441406,-0.03222656,0,1,3,0
56.934,0.001003,0.046875,0.0078125,-0.02929688,0.34375,-0.890625,5.15625,0.01757812,-0.015625,-0.015625,-0.0078125,-0.009765625,0,0.001464844,0.001586914,-0.003051758,0,0,-0.001586914,0.1897583,4.077,0,0,0,0.1566162,nan,4,12.125,1,0,0.1139221,0.206604,0.2330322,0.2055054,-0.02441406,-0.03222656,0,1,3,0
56.944,0.001003,-0.009765625,-0.02539062,-0.02148438,-0.2109375,2.914062,9.992188,-0.02734375,-0.009765625,-0.01953125,-0.009765625,-0.009765625,0,0.001586914,0.001708984,-0.003173828,0,0,-0.001586914,0.1880798,4.077,0,0,0,0.1546021,nan,4,12.135,1,0,0.1313477,0.1874695,0.2236328,0.2098694,-0.02441406,-0.03222656,0,1,3,0
56.954,0.001003,-0.08203125,-0.02148438,-0.015625,-1.992188,3.335938,11.29688,-0.03125,0.009765625,-0.0234375,-0.009765625,-0.01171875,0,0.001708984,0.001831055,-0.003417969,0,0,-0.001586914,0.1864014,4.077,0,0,0,0.1525879,nan,4,12.145,1,0,0.1324463,0.1733093,0.2289734,0.2108459,-0.02441406,-0.03222656,0,1,3,0
56.963,0.001099,-0.09179688,-0.04101562,-0.0078125,-1.820312,2.453125,13.3125,0.00390625,0.0078125,-0.01953125,-0.009765625,-0.01171875,0,0.001708984,0.001831055,-0.003662109,0,0,-0.001586914,0.1847229,4.077,0,0,0,0.1505737,nan,4,12.154,1,0,0.1246643,0.1754456,0.2408447,0.1979065,-0.02441406,-0.03222656,0,1,3,0
56.973,0.001016,-0.001953125,0.07421875,-0.005859375,0.3203125,1.65625,12.99219,0.04296875,-0.00390625,-0.00390625,-0.009765625,-0.009765625,0,0.001708984,0.001708984,-0.003662109,0,0,-0.001586914,0.1830444,4.077,0,0,0,0.1486206,nan,4,12.164,1,0,0.1183167,0.1751709,0.256958,0.1817017,-0.02441406,-0.03222656,0,1,3,0
56.983,0.001015,0.04492188,0.078125,0.01171875,3.007812,1.398438,9.992188,-0.0078125,0.0078125,0,-0.0078125,-0.009765625,0,0.001464844,0.001708984,-0.00378418,0,0,-0.001586914,0.1813354,4.077,0,0,0,0.1466064,nan,4,12.175,1,0,0.1266785,0.1650085,0.2548828,0.1788025,-0.02441406,-0.03222656,0,1,3,0
56.993,0.000999,0.08203125,-0.1660156,0.03125,3.328125,0.9296875,6.757812,0.001953125,-0.06054688,0.02734375,-0.0078125,-0.009765625,0,0.001342773,0.001586914,-0.003417969,0,0,-0.001586914,0.179657,4.077,0,0,0,0.1445923,nan,4,12.185,1,0,0.1445923,0.1734924,0.2445068,0.1560364,-0.02441406,-0.03222656,0,1,3,0
57.003,0.001012,-0.05078125,-0.0234375,0.02539062,0.3515625,2.578125,10.24219,-0.02929688,-0.01367188,0.03515625,-0.0078125,-0.009765625,0,0.001342773,0.001464844,-0.003173828,0,0,-0.001586914,0.1779785,4.077,0,0,0,0.1425781,nan,4,12.195,1,0,0.1423645,0.1512146,0.2397766,0.1785278,-0.02441406,-0.03222656,0,1,3,0
57.013,0.001012,-0.1289062,-0.04882812,0.01171875,-2.570312,-0.015625,10.67969,0,0.005859375,0.0078125,-0.0078125,-0.009765625,0,0.001342773,0.001586914,-0.003051758,0,0,-0.001586914,0.1763,4.077,0,0,0,0.140625,nan,4,12.205,1,0,0.1135559,0.1766357,0.2179565,0.197052,-0.02441406,-0.03222656,0,1,3,0
57.023,0.001012,0.06835938,-0.00390625,0.02148438,-3.664062,1.453125,13.76562,0.04296875,-0.0234375,0.0234375,-0.0078125,-0.009765625,0,0.001220703,0.001586914,-0.002807617,0,0,-0.002807617,0.1769714,4.077,0,0,0,0.1400146,nan,4,12.215,1,0,0.1777039,0.1833191,0.2003784,0.1464844,0,0,0,1,6,0
57.034,0.001013,0.0703125,-0.1113281,-0.0078125,-1,0.6796875,11.21875,-0.001953125,-0.05273438,0.02929688,-0.0078125,-0.0078125,0,0.001220703,0.001342773,-0.002441406,0,0,-0.002441406,0.1786499,4.077,0,0,0,0.1400146,nan,4,12.225,1,0,0.1838684,0.1922913,0.1701965,0.1682434,0,0,0,1,6,0
57.044,0.001013,-0.03710938,0.03125,-0.01953125,0.890625,5.28125,14.48438,0.015625,0.001953125,-0.03710938,-0.009765625,-0.0078125,0,0.001586914,0.001220703,-0.002685547,0,0,-0.002685547,0.1803284,4.077,0,0,0,0.1400146,nan,4,12.235,1,0,0.1367188,0.2188416,0.1370544,0.2286987,0,0,0,1,6,0
57.054,0.000975,0.07226562,0.03710938,-0.01953125,-1.195312,1.890625,14.95312,0.05078125,0.02929688,-0.01953125,-0.009765625,-0.0078125,0,0.001586914,0.001220703,-0.002929688,0,0,-0.002929688,0.1820068,4.077,0,0,0,0.1400146,nan,4,12.245,1,0,0.1637268,0.1845093,0.2043457,0.1754456,0,0,0,1,6,0
57.063,0.000997,-0.1035156,-0.03710938,-0.01757812,-2.273438,-2.289062,11.10938,-0.02734375,-0.02539062,-0.01953125,-0.009765625,-0.0078125,0,0.001708984,0.001342773,-0.003173828,0,0,-0.003173828,0.1835327,4.077,0,0,0,0.1400146,nan,4,12.254,1,0,0.2096558,0.1731567,0.178009,0.1733704,0,0,0,1,6,0
57.073,0.000999,-0.05859375,-0.03320312,0.005859375,3.03125,0.125,8.390625,-0.001953125,-0.03125,-0.015625,-0.009765625,-0.0078125,0,0.001586914,0.001342773,-0.003540039,0,0,-0.003540039,0.1852112,4.077,0,0,0,0.1400146,nan,4,12.264,1,0,0.2170715,0.1661377,0.20224,0.1553955,0,0,0,1,6,0
57.083,0.001042,0.03320312,0.03515625,-0.015625,-0.5546875,5.140625,16.46094,0.03125,0.009765625,0.00390625,-0.0078125,-0.005859375,0,0.001342773,0.001220703,-0.003417969,0,0,-0.003417969,0.1869202,4.077,0,0,0,0.1400146,nan,4,12.275,1,0,0.1752319,0.188324,0.209198,0.1748962,0,0,0,1,6,0
57.093,0.001004,0.06054688,0.02734375,-0.0390625,0.015625,-2.125,11.19531,0.01367188,0.009765625,-0.046875,-0.009765625,-0.0078125,0,0.001586914,0.001342773,-0.00378418,0,0,-0.00378418,0.1885681,4.077,0,0,0,0.1400146,nan,4,12.285,1,0,0.1416321,0.2326355,0.1462402,0.2337952,0,0,0,1,6,0
57.103,0.001002,0.0078125,0.03320312,0.009765625,1.140625,3,9.46875,-0.04296875,0.005859375,-0.009765625,-0.0078125,-0.0078125,0,0.001342773,0.001342773,-0.00402832,0,0,-0.00402832,0.1902771,4.077,0,0,0,0.1400146,nan,4,12.295,1,0,0.2178955,0.1578369,0.2119141,0.1734009,0,0,0,1,6,0.1269841
57.113,0.001002,0.05859375,-0.02734375,-0.0078125,0.25,3.367188,13.42188,0.00390625,0.02929688,-0.009765625,-0.0078125,-0.009765625,0,0.001220703,0.001586914,-0.00402832,0,0,-0.00402832,0.1919556,4.077,0,0,0,0.1400146,nan,4,12.305,1,0,0.1783142,0.2032166,0.1893921,0.1968689,0,0,0,1,6,0
57.123,0.001002,0.001953125,-0.1230469,0.02734375,1.203125,-1.640625,5.429688,-0.01757812,-0.04296875,-0.00390625,-0.0078125,-0.009765625,0,0.001220703,0.001708984,-0.004150391,0,0,-0.004150391,0.193634,4.077,0,0,0,0.1400146,nan,4,12.315,1,0,0.2231445,0.1891479,0.1932068,0.1690063,0,0,0,1,6,0
57.134,0.001002,0.046875,-0.03125,0.015625,-0.5546875,6.351562,14.54688,0.009765625,0.015625,0.009765625,-0.005859375,-0.009765625,0,0.001098633,0.001586914,-0.00402832,0,0,-0.00402832,0.1953125,4.077,0,0,0,0.1400146,nan,4,12.325,1,0,0.1968079,0.1856689,0.2151184,0.1836853,0,0,0,1,6,0
57.144,0.001002,-0.01171875,0.06640625,-0.04882812,0.9453125,-0.109375,8.484375,0.02929688,0.04492188,-0.01757812,-0.0078125,-0.01171875,0,0.001342773,0.001831055,-0.00402832,0,0,-0.00402832,0.196991,4.077,0,0,0,0.1400146,nan,4,12.335,1,0,0.1479187,0.2315979,0.1672974,0.2411804,0,0,0,1,6,0
57.154,0.001002,-0.06835938,0.0625,-0.009765625,1.109375,8.054688,12.94531,-0.05859375,0.0234375,-0.01757812,-0.0078125,-0.01171875,0,0.001220703,0.001953125,-0.004272461,0,0,-0.004272461,0.1986694,4.077,0,0,0,0.1400146,nan,4,12.345,1,0,0.2014771,0.1850891,0.1884766,0.2196655,0,0,0,1,6,0
57.164,0.00099,0.09960938,0.03125,0.0546875,-0.125,-2.328125,9.070312,0.0234375,-0.03320312,0.04492188,-0.005859375,-0.0078125,0,0.0008544922,0.001464844,-0.00402832,0,0,-0.00402832,0.2003479,4.077,0,0,0,0.1400146,nan,4,12.355,1,0,0.2486572,0.1506653,0.271637,0.1304626,0,0,0,1,6,0.01587302
57.173,0.001035,-0.1074219,-0.046875,0.01953125,2.164062,0.9296875,4.851562,-0.015625,-0.005859375,0.02539062,-0.005859375,-0.009765625,0,0.001098633,0.001586914,-0.00378418,0,0,-0.00378418,0.2018738,4.077,0,0,0,0.1400146,nan,4,12.364,1,0,0.2086182,0.1983337,0.1913147,0.2092896,0,0,0,1,6,0
57.183,0.001019,-0.05664062,-0.08203125,0.04492188,-2.078125,4.1875,11.90625,-0.02734375,-0.09375,0.04492188,-0.005859375,-0.005859375,0,0.0009765625,0.0008544922,-0.003295898,0,0,-0.003295898,0.2035522,4.077,0,0,0,0.1400146,nan,4,12.375,1,0,0.2472839,0.1816711,0.2138977,0.1714172,0,0,0,1,6,0
57.193,0.001036,0.08398438,-0.02539062,0.04492188,-0.1875,-4.789062,5.984375,0.01367188,-0.0078125,0.046875,-0.005859375,-0.00390625,0,0.0008544922,0.0004882812,-0.002807617,0,0,-0.002807617,0.2052612,4.077,0,0,0,0.1400146,nan,4,12.385,1,0,0.2038574,0.1983032,0.2232971,0.1955261,0,0,0,1,6,0
57.203,0.00103,0.06835938,-0.08984375,0.00390625,1.054688,-1.695312,3.210938,0.0546875,-0.01171875,0.001953125,-0.0078125,-0.00390625,0,0.001220703,0.0007324219,-0.002563477,0,0,-0.002563477,0.2069397,4.077,0,0,0,0.1400146,nan,4,12.395,1,0,0.170166,0.2543945,0.1750183,0.2281494,0,0,0,1,6,0
57.213,0.00103,-0.04492188,-0.1855469,0.02539062,0.5390625,5.125,10.55469,-0.02539062,-0.1152344,0.009765625,-0.0078125,0,0,0.001464844,-0.0001220703,-0.002685547,0,0,-0.002685547,0.2086182,4.077,0,0,0,0.1400146,nan,4,12.405,1,0,0.2505798,0.1984253,0.2013855,0.1840515,0,0,0,1,6,0
57.223,0.00103,0.0546875,0.09960938,0.02539062,-0.3515625,-0.25,10.97656,0.00390625,0.001953125,0.02539062,-0.0078125,0.005859375,0,0.001220703,-0.0008544922,-0.002441406,0,0,-0.002441406,0.2102966,4.077,0,0,0,0.1400146,nan,4,12.415,1,0,0.2071533,0.1841736,0.2477417,0.2020874,0,0,0,1,6,0
57.234,0.00103,-0.03125,-0.06835938,-0.03125,2.1875,1.914062,5.523438,0.01367188,0.0234375,-0.02734375,-0.009765625,0.00390625,0,0.001586914,-0.0006103516,-0.002441406,0,0,-0.002441406,0.2119751,4.077,0,0,0,0.1400146,nan,4,12.425,1,0,0.1594238,0.2622681,0.1582642,0.2680054,0,0,0,1,6,0
57.244,0.00103,0.04296875,0.07617188,-0.01757812,0.34375,7,16.14062,-0.015625,-0.01757812,-0.015625,-0.009765625,0.005859375,0,0.001464844,-0.0008544922,-0.002685547,0,0,-0.002685547,0.2136536,4.077,0,0,0,0.1400146,nan,4,12.435,1,0,0.2162476,0.2116394,0.2148743,0.2118835,0,0,0,1,6,0
57.253,0.001001,0.03125,0.0703125,-0.01953125,-1.445312,-2.8125,10.63281,0.02929688,0.05078125,-0.02734375,-0.009765625,0.00390625,0,0.001586914,-0.0006103516,-0.002807617,0,0,-0.002807617,0.2151794,4.077,0,0,0,0.1400146,nan,4,12.444,1,0,0.1877441,0.2247314,0.217926,0.2302856,0,0,0,1,6,0
57.263,0.001013,0.06054688,0.03320312,-0.01953125,1.515625,0.3515625,5.5625,-0.001953125,0.0078125,-0.01367188,-0.009765625,0.00390625,0,0.001464844,-0.0006103516,-0.003051758,0,0,-0.003051758,0.2168579,4.077,0,0,0,0.1400146,nan,4,12.454,1,0,0.2126465,0.2193298,0.2192993,0.216156,0,0,0,1,6,0
57.273,0.001007,0.04492188,-0.03320312,-0.05078125,-1.46875,4.984375,12.84375,0.01367188,0.001953125,-0.0390625,-0.009765625,0.001953125,0,0.001708984,-0.0004882812,-0.003295898,0,0,-0.003295898,0.2185364,4.077,0,0,0,0.1400146,nan,4,12.464,1,0,0.1900635,0.2513733,0.1897278,0.2430115,0,0,0,1,6,0
57.283,0.001012,-0.04296875,0.02734375,-0.05859375,0.171875,-3.703125,6.757812,0,-0.0078125,-0.046875,-0.009765625,0.00390625,0,0.001708984,-0.0006103516,-0.00378418,0,0,-0.00378418,0.2202454,4.077,0,0,0,0.1400146,nan,4,12.474,1,0,0.1960449,0.2438965,0.1971436,0.2438354,0,0,0,1,6,0
57.293,0.001023,-0.08203125,-0.01757812,-0.04296875,0.46875,2.882812,8.921875,-0.03710938,-0.03710938,-0.0390625,-0.009765625,0.00390625,0,0.001708984,-0.0008544922,-0.004150391,0,0,-0.00402832,0,4.077,0,0,0,0.1400146,nan,4,12.485,0,0,0,0,0,0,0,0,0,1,6,1
57.303,0.001019,-0.01171875,-0.08007812,0.03320312,-0.3359375,-4.742188,8.382812,0,-0.03710938,0.005859375,-0.009765625,0.00390625,0,0.001464844,-0.0009765625,-0.004394531,0,0,-0.00402832,0,4.077,0,0,0,0.1400146,nan,4,12.495,0,0,0,0,0,0,0,0,0,1,6,1
57.313,0.001016,0.02734375,0.01953125,-0.0078125,-0.7578125,-1.78125,12.44531,0.02929688,0.001953125,0.00390625,-0.009765625,0.00390625,0,0.001586914,-0.001220703,-0.004272461,0,0,-0.00402832,0,4.077,0,0,0,0.1400146,nan,4,12.505,0,0,0,0,0,0,0,0,0,1,6,0
57.323,0.001005,0.02539062,-0.0234375,-0.02148438,1.09375,-2.6875,11.4375,0.001953125,0.009765625,-0.0234375,-0.009765625,0.00390625,0,0.001708984,-0.0009765625,-0.004394531,0,0,-0.00402832,0,4.077,0,0,0,0.1400146,nan,4,12.515,0,0,0,0,0,0,0,0,0,1,6,0
57.333,0.001016,-0.07421875,-0.09570312,0.02734375,-0.125,-3.210938,6.585938,-0.03320312,-0.0390625,0.0078125,-0.009765625,0.00390625,0,0.001586914,-0.001098633,-0.004638672,0,0,-0.00402832,0,4.077,0,0,0,0.1400146,nan,4,12.525,0,0,0,0,0,0,0,0,0,1,6,0
57.343,0.001005,-0.01757812,0.02148438,0.08984375,-1.039062,-4.6875,9.140625,-0.005859375,0.01171875,0.06445312,-0.009765625,0.00390625,0,0.001342773,-0.001342773,-0.004150391,0,0,-0.00402832,0,4.077,0,0,0,0.1400146,nan,4,12.535,0,0,0,0,0,0,0,0,0,1,6,1
57.354,0.001016,0.07421875,-0.009765625,0.05078125,1.265625,1.351562,16.17969,0.00390625,0,0.07226562,-0.009765625,0.00390625,0,0.001098633,-0.001342773,-0.003417969,0,0,-0.00402832,0,4.077,0,0,0,0.1400146,nan,4,12.545,0,0,0,0,0,0,0,0,0,1,6,0
57.364,0.001005,-0.03515625,-0.03320312,0.001953125,-0.0703125,-2.65625,14.28906,0.001953125,0.01367188,0.01757812,-0.009765625,0.00390625,0,0.001586914,-0.001098633,-0.003051758,0,0,-0.00402832,0,4.077,0,0,0,0.1400146,nan,4,12.555,0,0,0,0,0,0,0,0,0,1,6,0
57.374,0.0009860001,0.04296875,0.02734375,-0.04882812,0.1796875,2.882812,11.04688,0.01953125,0.0078125,-0.02539062,-0.009765625,0.00390625,0,0.001586914,-0.001098633,-0.003051758,0,0,-0.00402832,0,4.077,0,0,0,0.1400146,nan,4,12.565,0,0,0,0,0,0,0,0,0,1,6,0
57.383,0.001013,0.02734375,-0.005859375,-0.04492188,-2.546875,3.921875,9.132812,0.01171875,0,-0.04492188,-0.009765625,0.00390625,0,0.001831055,-0.0009765625,-0.003417969,0,0,-0.00402832,0,4.077,0,0,0,0.1400146,nan,4,12.574,0,0,0,0,0,0,0,0,0,1,6,1
57.393,0.001008,-0.02148438,-0.001953125,-0.03515625,-1.390625,-1.976562,3.164062,-0.01171875,0.005859375,-0.0390625,-0.009765625,0.00390625,0,0.001953125,-0.0009765625,-0.00378418,0,0,-0.00402832,0,4.077,0,0,0,0.1400146,nan,4,12.585,0,0,0,0,0,0,0,0,0,1,6,0
57.403,0.001014,-0.01171875,-0.02734375,-0.0546875,0.6875,-2.882812,8.546875,-0.01953125,0,-0.0390625,-0.009765625,0.00390625,0,0.001831055,-0.0008544922,-0.004150391,0,0,-0.00402832,0,4.077,0,0,0,0.1400146,nan,4,12.595,0,0,0,0,0,0,0,0,0,1,6,1
57.413,0.001019,-0.05273438,0.009765625,-0.04296875,1.71875,-2.179688,5.851562,-0.02734375,-0.009765625,-0.04101562,-0.009765625,0.00390625,0,0.001586914,-0.0008544922,-0.004638672,0,0,-0.00402832,0,4.077,0,0,0,0.1400146,nan,4,12.605,0,0,0,0,0,0,0,0,0,1,6,0
57.423,0.001028,0.001953125,0.0078125,-0.02929688,1.445312,2.546875,9.203125,-0.001953125,0.01367188,-0.02929688,-0.009765625,0.00390625,0,0.001464844,-0.0007324219,-0.005004883,0,0,-0.00402832,0,4.077,0,0,0,0.1400146,nan,4,12.615,0,0,0,0,0,0,0,0,0,1,6,1
57.433,0.001019,-0.005859375,-0.03125,-0.001953125,-0.953125,-0.5078125,13.96875,0.00390625,-0.00390625,-0.01171875,-0.009765625,0.00390625,0,0.001464844,-0.0007324219,-0.005126953,0,0,-0.00402832,0,4.077,0,0,0,0.1400146,nan,4,12.625,0,0,0,0,0,0,0,0,0,1,6,0
57.443,0.001012,0.05078125,0.05664062,-0.01953125,-0.7734375,1.484375,12.10156,0.02929688,0.02539062,-0.01953125,-0.009765625,0.00390625,0,0.001586914,-0.0006103516,-0.005371094,0,0,-0.00402832,0,4.077,0,0,0,0.1400146,nan,4,12.635,0,0,0,0,0,0,0,0,0,1,6,0
57.454,0.001011,-0.02539062,-0.02148438,0.001953125,0.515625,-0.1953125,12.16406,-0.01171875,-0.015625,-0.001953125,-0.009765625,0.00390625,0,0.001586914,-0.0007324219,-0.005371094,0,0,-0.00402832,0,4.077,0,0,0,0.1400146,nan,4,12.645,0,0,0,0,0,0,0,0,0,1,6,0
57.464,0.001016,-0.009765625,0.02539062,-0.00390625,0.296875,-0.3203125,9.898438,-0.00390625,0.009765625,-0.01171875,-0.009765625,0.00390625,0,0.001586914,-0.0007324219,-0.005493164,0,0,-0.00402832,0,4.077,0,0,0,0.1400146,nan,4,12.655,0,0,0,0,0,0,0,0,0,1,6,1
57.474,0.001019,-0.01367188,-0.08007812,0.001953125,0,1.007812,9.96875,-0.0078125,-0.02734375,0.001953125,-0.009765625,0.00390625,0,0.001586914,-0.0007324219,-0.005493164,0,0,-0.00402832,0,4.077,0,0,0,0.1400146,nan,4,12.665,0,0,0,0,0,0,0,0,0,1,6,1
57.483,0.001006,0.005859375,0.0078125,0.01757812,-0.3125,-0.2421875,10.71094,0,0,0.01757812,-0.009765625,0.00390625,0,0.001586914,-0.0007324219,-0.005371094,0,0,-0.00402832,0,4.077,0,0,0,0.1400146,nan,4,12.674,0,0,0,0,0,0,0,0,0,1,6,1
57.493,0.001015,-0.02734375,0.02734375,0.03125,-0.1875,-0.53125,8.257812,-0.01171875,-0.005859375,0.0234375,-0.009765625,0.00390625,0,0.001586914,-0.0007324219,-0.005249023,0,0,-0.00402832,0,4.077,0,0,0,0.1400146,nan,4,12.685,0,0,0,0,0,0,0,0,0,1,6,0
57.503,0.001004,-0.04492188,0,0.02148438,-0.3046875,0.1953125,11.33594,-0.005859375,0.001953125,0.02148438,-0.009765625,0.00390625,0,0.001586914,-0.0006103516,-0.005004883,0,0,-0.00402832,0,4.077,0,0,0,0.1400146,nan,4,12.695,0,0,0,0,0,0,0,0,0,1,6,0
57.513,0.001009,0.0390625,-0.02929688,-0.02539062,0.6328125,2.984375,5.882812,0.02929688,0.01171875,-0.00390625,-0.009765625,0.00390625,0,0.001708984,-0.0006103516,-0.004882812,0,0,-0.00402832,0,4.077,0,0,0,0.1400146,nan,4,12.705,0,0,0,0,0,0,0,0,0,1,6,0
57.523,0.001009,-0.009765625,-0.04101562,0.005859375,0.40625,-0.3515625,3.351562,-0.015625,-0.01757812,-0.0078125,-0.009765625,0.00390625,0,0.001708984,-0.0006103516,-0.005004883,0,0,-0.00402832,0,4.077,0,0,0,0.1400146,nan,4,12.715,0,0,0,0,0,0,0,0,0,1,6,0
57.533,0.001021,-0.06835938,-0.03515625,0.01953125,0.9609375,-0.828125,7.789062,-0.02148438,0,0.01171875,-0.009765625,0.00390625,0,0.001586914,-0.0006103516,-0.004882812,0,0,-0.00402832,0,4.077,0,0,0,0.1400146,nan,4,12.725,0,0,0,0,0,0,0,0,0,1,6,0
57.543,0.001009,0.05273438,0.05273438,0.00390625,-0.6875,-0.5234375,10.75781,0.02734375,0.01367188,0.01757812,-0.009765625,0.00390625,0,0.001586914,-0.0006103516,-0.004760742,0,0,-0.00402832,0,4.077,0,0,0,0.1400146,nan,4,12.735,0,0,0,0,0,0,0,0,0,1,6,0
57.554,0.001009,-0.00390625,-0.0546875,-0.009765625,1.421875,2.085938,2.484375,-0.00390625,-0.0078125,-0.001953125,-0.009765625,0.00390625,0,0.001708984,-0.0004882812,-0.004638672,0,0,-0.00402832,0,4.077,0,0,0,0.1400146,nan,4,12.745,0,0,0,0,0,0,0,0,0,1,6,0
57.564,0.001021,-0.01953125,0.02734375,0.0078125,-1.078125,-1.609375,13.82031,-0.009765625,0.009765625,-0.00390625,-0.009765625,0.00390625,0,0.001708984,-0.0004882812,-0.004760742,0,0,-0.00402832,0,4.077,0,0,0,0.1400146,nan,4,12.755,0,0,0,0,0,0,0,0,0,1,6,0
57.574,0.001009,-0.06445312,-0.06835938,0.01367188,1.796875,-2.546875,10.60156,-0.01367188,-0.009765625,0.015625,-0.009765625,0.00390625,0,0.001708984,-0.0003662109,-0.004638672,0,0,-0.00402832,0,4.077,0,0,0,0.1400146,nan,4,12.765,0,0,0,0,0,0,0,0,0,1,6,0
57.584,0.001024,-0.01953125,0.01171875,-0.03125,1.703125,2.695312,9.171875,-0.01757812,0.00390625,-0.01367188,-0.009765625,0.00390625,0,0.001586914,-0.0003662109,-0.004516602,0,0,-0.00402832,0,4.077,0,0,0,0.1400146,nan,4,12.775,0,0,0,0,0,0,0,0,0,1,6,1
57.593,0.001007,0,0.00390625,-0.02929688,0.6796875,3.46875,5.4375,0.0078125,0.00390625,-0.0234375,-0.009765625,0.00390625,0,0.001586914,-0.0003662109,-0.004760742,0,0,-0.00402832,0,4.077,0,0,0,0.1400146,nan,4,12.785,0,0,0,0,0,0,0,0,0,1,6,0
57.603,0.000992,-0.03125,-0.00390625,0,1.40625,-2.21875,6.179688,0.001953125,-0.00390625,-0.001953125,-0.009765625,0.00390625,0,0.001708984,-0.0002441406,-0.004882812,0,0,-0.00402832,0,4.077,0,0,0,0.1400146,nan,4,12.795,0,0,0,0,0,0,0,0,0,1,6,0
57.613,0.001003,-0.01171875,-0.03320312,-0.02734375,0.5,-1.265625,9.953125,0.01171875,0.0078125,-0.01367188,-0.009765625,0.00390625,0,0.001708984,-0.0002441406,-0.004882812,0,0,-0.00402832,0,4.077,0,0,0,0.1400146,nan,4,12.805,0,0,0,0,0,0,0,0,0,1,6,1
57.623,0.001021,-0.0234375,-0.06054688,0,0.8046875,-0.453125,11.47656,-0.0078125,-0.01757812,-0.0078125,-0.009765625,0.00390625,0,0.001708984,-0.0001220703,-0.005004883,0,0,-0.00402832,0,4.077,0,0,0,0,nan,4,0.005,0,0,0,0,0,0,0,0,0,1,6,0
57.633,0.001011,0.0546875,-0.02929688,0.009765625,1.039062,1.210938,7.5,0.01367188,0.001953125,0.01367188,-0.009765625,0.00390625,0,0.001708984,-0.0001220703,-0.005004883,0,0,-0.00402832,0,4.077,0,0,0,0,nan,4,0.015,0,0,0,0,0,0,0,0,0,1,6,0
57.643,0.001007,0.06054688,0,-0.01367188,1.5,2.320312,10.92969,0.0078125,-0.00390625,0.001953125,-0.009765625,0.00390625,0,0.001708984,-0.0001220703,-0.004882812,0,0,-0.00402832,0,4.077,0,0,0,0,nan,4,0.025,0,0,0,0,0,0,0,0,0,1,6,0
57.654,0.001023,-0.0078125,0.02929688,-0.005859375,-1.117188,-1.953125,10.41406,0.00390625,0.009765625,-0.01367188,-0.009765625,0.00390625,0,0.001708984,0,-0.004882812,0,0,-0.00402832,0,4.077,0,0,0,0,nan,4,0.035,0,0,0,0,0,0,0,0,0,1,6,1
57.664,0.000998,-0.04492188,-0.02539062,-0.005859375,0.5234375,0.265625,8.773438,-0.00390625,-0.01171875,0.00390625,-0.009765625,0.00390625,0,0.001831055,0,-0.005004883,0,0,-0.00402832,0,4.077,0,0,0,0,nan,4,0.045,0,0,0,0,0,0,0,0,0,1,6,0
57.674,0.000993,0.03320312,0.009765625,0.02539062,-0.4296875,-0.59375,10.39844,0.00390625,0.0078125,0.0078125,-0.009765625,0.00390625,0,0.001708984,0,-0.004882812,0,0,-0.00402832,0,4.077,0,0,0,0,nan,4,0.056,0,0,0,0,0,0,0,0,0,1,6,1
57.683,0.001025,-0.01953125,-0.03710938,-0.0390625,1.234375,0.765625,9,0.00390625,-0.0078125,-0.009765625,-0.009765625,0.00390625,0,0.001953125,0,-0.004882812,0,0,-0.00402832,0,4.077,0,0,0,0,nan,4,0.004,0,0,0,0,0,0,0,0,0,1,6,1
57.693,0.000993,-0.01757812,0.03515625,-0.0078125,-1.125,-0.4453125,10.26562,-0.001953125,0.00390625,-0.009765625,-0.009765625,0.00390625,0,0.001953125,0,-0.005004883,0,0,-0.00402832,0,4.077,0,0,0,0,nan,4,0.014,0,0,0,0,0,0,0,0,0,1,6,1
57.703,0.001034,0.01757812,0.02539062,0.01757812,-0.921875,-0.5625,10.73438,-0.00390625,0.00390625,0,nan,nan,nan,0.001953125,0,-0.005004883,0,0,-0.005004883,0,4.077,0,0,0,0,nan,2,0.024,0,0,0,0,0,0,0,0,0,1,2,1
57.713,0.000991,0.02734375,-0.01953125,0.0078125,-0.0546875,-0.890625,9.320312,0.00390625,0.00390625,0,nan,nan,nan,0.001953125,0,-0.005004883,0,0,-0.005004883,0,4.077,0,0,0,0,nan,2,0.034,0,0,0,0,0,0,0,0,0,1,2,1
57.723,0.001004,0.0234375,0.01953125,0,-0.8125,-0.890625,10.50781,0,0.001953125,0.001953125,nan,nan,nan,0.001953125,0,-0.005004883,0,0,-0.005004883,0,4.077,0,0,0,0,nan,2,0.044,0,0,0,0,0,0,0,0,0,1,2,1
57.733,0.000992,0.02929688,0.00390625,0.0234375,-0.5078125,-0.7578125,9.148438,0.00390625,0.01171875,0.005859375,nan,nan,nan,0.001953125,0,-0.005004883,0,0,-0.005004883,0,4.077,0,0,0,0,nan,2,0.055,0,0,0,0,0,0,0,0,0,1,2,1
57.744,0.001004,-0.02148438,-0.02148438,0.01953125,-0.0234375,0.015625,9.21875,-0.005859375,-0.001953125,-0.00390625,nan,nan,nan,0.001953125,0,-0.005004883,0,0,-0.005004883,0,4.077,0,0,0,0,nan,2,0.065,0,0,0,0,0,0,0,0,0,1,2,1
57.754,0.001017,-0.009765625,0.09179688,-0.015625,-1.460938,0.4609375,11.85938,-0.00390625,0.005859375,-0.00390625,nan,nan,nan,0.001953125,0,-0.005004883,0,0,-0.005004883,0,4.077,0,0,0,0,nan,2,0.075,0,0,0,0,0,0,0,0,0,1,2,0
57.764,0.001018,0.01757812,0.0625,-0.01757812,-0.6015625,-0.0625,11.50781,0,0,0.001953125,nan,nan,nan,0.001953125,0,-0.005004883,0,0,-0.005004883,0,4.077,0,0,0,0,nan,2,0.085,0,0,0,0,0,0,0,0,0,1,2,0
57.774,0.001005,0.01171875,0.04296875,0.009765625,-1.179688,-0.9375,10.96875,0,0.0078125,0.001953125,nan,nan,nan,0.002075195,0,-0.005004883,0,0,-0.005004883,0,4.077,0,0,0,0,nan,2,0.095,0,0,0,0,0,0,0,0,0,1,2,0
57.783,0.000985,0,0.09960938,-0.01953125,-0.640625,0.3671875,11.89844,-0.00390625,0.00390625,-0.001953125,nan,nan,nan,0.002075195,0,-0.005004883,0,0,-0.005004883,0,4.077,0,0,0,0,nan,2,0.104,0,0,0,0,0,0,0,0,0,1,2,0
57.793,0.001013,-0.009765625,0.0234375,0.02148438,-0.4765625,-0.3671875,10.10938,-0.001953125,-0.0078125,0.00390625,nan,nan,nan,0.002075195,-0.0001220703,-0.005004883,0,0,-0.005004883,0,4.077,0,0,0,0,nan,2,0.114,0,0,0,0,0,0,0,0,0,1,2,1
57.803,0.001012,-0.00390625,-0.02148438,-0.0078125,0.5859375,0.0546875,9.023438,0.001953125,-0.01171875,-0.001953125,nan,nan,nan,0.002075195,0,-0.005004883,0,0,-0.005004883,0,4.077,0,0,0,0,nan,2,0.124,0,0,0,0,0,0,0,0,0,1,2,1
57.813,0.001023,0.001953125,0,-0.009765625,-0.0390625,0.171875,10.09375,0,0.005859375,0,nan,nan,nan,0.002075195,0,-0.005004883,0,0,-0.005004883,0,4.077,0,0,0,0,nan,2,0.134,0,0,0,0,0,0,0,0,0,1,2,1
57.823,0.000942,-0.0078125,-0.00390625,0.01953125,-0.15625,0.1953125,9.492188,-0.001953125,-0.001953125,0,nan,nan,nan,0.002197266,0,-0.005004883,0,0,-0.005004883,0,4.077,0,0,0,0,nan,2,0.144,0,0,0,0,0,0,0,0,0,1,2,1
57.834,0.001025,0.015625,-0.005859375,0.009765625,-0.40625,-0.0546875,10.42188,0,0.001953125,0.00390625,nan,nan,nan,0.002197266,0,-0.005004883,0,0,-0.005004883,0,4.077,0,0,0,0,nan,2,0.155,0,0,0,0,0,0,0,0,0,1,2,1
57.843,0.001022,0.01757812,-0.01367188,0.01367188,-0.2578125,0.078125,9.617188,0.005859375,-0.001953125,0.00390625,nan,nan,nan,0.002197266,0.0001220703,-0.005004883,0,0,-0.005004883,0,4.077,0,0,0,0,nan,2,0.005,0,0,0,0,0,0,0,0,0,1,2,1
57.853,0.000946,-0.01171875,-0.0078125,0.01757812,-0.0078125,-0.1796875,9.046875,-0.001953125,-0.00390625,0.00390625,nan,nan,nan,0.002197266,0.0001220703,-0.005004883,0,0,-0.005004883,0,4.077,0,0,0,0,nan,2,0.015,0,0,0,0,0,0,0,0,0,1,2,1
57.864,0.000978,0.01171875,0.00390625,0.001953125,-0.375,0.0078125,10.53125,0,0,0.005859375,nan,nan,nan,0.002197266,0.0001220703,-0.005004883,0,0,-0.005004883,0,4.077,0,0,0,0,nan,2,0.026,0,0,0,0,0,0,0,0,0,1,2,1
57.873,0.001038,0.015625,0.001953125,0.0078125,-0.28125,0.3984375,10.19531,0.001953125,0,0.001953125,nan,nan,nan,0.002197266,0.0001220703,-0.005004883,0,0,-0.005004883,0,4.077,0,0,0,0,nan,2,0.035,0,0,0,0,0,0,0,0,0,1,2,1
57.883,0.001022,0.005859375,0.005859375,-0.009765625,-0.0234375,0.2734375,9.023438,0.001953125,0.00390625,-0.005859375,nan,nan,nan,0.002197266,0.0001220703,-0.005004883,0,0,-0.005004883,0,4.077,0,0,0,0,nan,2,0.045,0,0,0,0,0,0,0,0,0,1,2,1
57.893,0.001029,0.0078125,0.009765625,-0.015625,0.0546875,0.015625,8.945312,0.00390625,0.005859375,-0.001953125,nan,nan,nan,0.002197266,0.0002441406,-0.004882812,0,0,-0.004882812,0,4.077,0,0,0,0,nan,2,0.056,0,0,0,0,0,0,0,0,0,1,2,1
57.903,0.00104,0.0078125,-0.005859375,0.0078125,-0.2578125,0.1015625,9.515625,0.00390625,0,0.0078125,nan,nan,nan,0.002319336,0.0002441406,-0.004882812,0,0,-0.004882812,0,4.077,0,0,0,0,nan,2,0.066,0,0,0,0,0,0,0,0,0,1,2,1
57.913,0.001026,-0.005859375,-0.00390625,0,0.125,0.1953125,10.25781,-0.001953125,-0.001953125,-0.001953125,nan,nan,nan,0.002319336,0.0002441406,-0.005004883,0,0,-0.005004883,0,4.077,0,0,0,0,nan,2,0.076,0,0,0,0,0,0,0,0,0,1,2,1
57.923,0.00103,0.00390625,0,0.001953125,-0.1484375,-0.0234375,10.28125,0.001953125,-0.00390625,0.00390625,nan,nan,nan,0.002319336,0.0002441406,-0.004882812,0,0,-0.004882812,0,4.077,0,0,0,0,nan,2,0.086,0,0,0,0,0,0,0,0,0,1,2,1
57.933,0.001026,-0.00390625,-0.001953125,-0.0078125,0.0234375,0.15625,9.804688,-0.001953125,0.001953125,-0.005859375,nan,nan,nan,0.002319336,0.0002441406,-0.005004883,0,0,-0.005004883,0,4.077,0,0,0,0,nan,2,0.096,0,0,0,0,0,0,0,0,0,1,2,1
57.944,0.00103,0.0078125,0.00390625,0.00390625,-0.171875,0.0078125,9.679688,0.001953125,0,0.00390625,nan,nan,nan,0.002319336,0.0002441406,-0.005004883,0,0,-0.005004883,0,4.077,0,0,0,0,nan,2,0.106,0,0,0,0,0,0,0,0,0,1,2,1
57.954,0.001026,-0.0078125,-0.001953125,-0.005859375,0.015625,0,9.78125,-0.00390625,0,-0.001953125,nan,nan,nan,0.002319336,0.0003662109,-0.005004883,0,0,-0.005004883,0,4.077,0,0,0,0,nan,2,0.116,0,0,0,0,0,0,0,0,0,1,2,1
57.963,0.001009,0.009765625,0.005859375,-0.001953125,-0.0859375,0.0625,9.710938,0.001953125,0,-0.001953125,nan,nan,nan,0.002319336,0.0003662109,-0.005004883,0,0,-0.005004883,0,4.077,0,0,0,0,nan,2,0.125,0,0,0,0,0,0,0,0,0,1,2,1
57.974,0.001017,-0.009765625,-0.005859375,0,-0.1171875,-0.0078125,9.90625,-0.00390625,-0.001953125,0,nan,nan,nan,0.002441406,0.0003662109,-0.005004883,0,0,-0.005004883,0,4.077,0,0,0,0,nan,2,0.136,0,0,0,0,0,0,0,0,0,1,2,1
57.983,0.001008,0.0078125,0.0078125,0.00390625,0,0.0703125,9.835938,0.001953125,0.005859375,0.001953125,nan,nan,nan,0.002441406,0.0004882812,-0.005004883,0,0,-0.005004883,0,4.077,0,0,0,0,nan,2,0.145,0,0,0,0,0,0,0,0,0,1,2,1
57.993,0.001005,-0.00390625,-0.0078125,-0.005859375,-0.0703125,0.0234375,9.804688,-0.001953125,-0.00390625,-0.001953125,nan,nan,nan,0.002441406,0.0004882812,-0.005004883,0,0,-0.005004883,0,4.077,0,0,0,0,nan,2,0.156,0,0,0,0,0,0,0,0,0,1,2,1
58.003,0.001004,0.0078125,0,0,-0.0859375,0.078125,9.84375,0.001953125,0,-0.001953125,nan,nan,nan,0.002441406,0.0004882812,-0.005004883,0,0,-0.005004883,0,4.077,0,0,0,0,nan,2,0.166,0,0,0,0,0,0,0,0,0,1,2,1
58.013,0.001044,-0.00390625,-0.001953125,0.00390625,-0.0625,0.0078125,9.773438,0,0,0.00390625,nan,nan,nan,0.002441406,0.0004882812,-0.005004883,0,0,-0.005004883,0,4.077,0,0,0,0,nan,2,0.176,0,0,0,0,0,0,0,0,0,1,2,1
58.023,0.001028,0.001953125,0.001953125,0,-0.046875,0.0625,9.851562,0.001953125,0,-0.001953125,nan,nan,nan,0.002441406,0.0004882812,-0.005004883,0,0,-0.005004883,0,4.077,0,0,0,0,nan,2,0.186,0,0,0,0,0,0,0,0,0,1,2,1
58.033,0.000972,0,0.001953125,0,-0.0703125,0.015625,9.8125,0,0,0,nan,nan,nan,0.002441406,0.0006103516,-0.005004883,0,0,-0.005004883,0,4.077,0,0,0,0,nan,2,0.196,0,0,0,0,0,0,0,0,0,1,2,1
58.043,0.001,0.001953125,0.00390625,0.005859375,-0.0625,0.0625,9.78125,0,0.001953125,0.001953125,nan,nan,nan,0.002563477,0.0006103516,-0.005004883,0,0,-0.005004883,0,4.077,0,0,0,0,nan,2,0.206,0,0,0,0,0,0,0,0,0,1,2,1
58.054,0.000967,0,-0.001953125,-0.00390625,-0.109375,0.046875,9.84375,0.001953125,-0.001953125,0,nan,nan,nan,0.002563477,0.0006103516,-0.005004883,0,0,-0.005004883,0,4.077,0,0,0,0,nan,2,0.216,0,0,0,0,0,0,0,0,0,1,2,1
58.064,0.001017,0,-0.001953125,0,-0.0625,0.109375,9.796875,0,0,-0.001953125,nan,nan,nan,0.002563477,0.0006103516,-0.005004883,0,0,-0.005004883,0,4.077,0,0,0,0,nan,2,0.226,0,0,0,0,0,0,0,0,0,1,2,1
58.074,0.001032,0,0,0.001953125,-0.0546875,0.0234375,9.898438,-0.001953125,0,0.001953125,nan,nan,nan,0.002563477,0.0006103516,-0.005004883,0,0,-0.005004883,0,4.077,0,0,0,0,nan,2,0.236,0,0,0,0,0,0,0,0,0,1,2,1
58.083,0.001021,0,0,0.001953125,-0.0859375,0.09375,9.859375,0,0,0,nan,nan,nan,0.002563477,0.0007324219,-0.005004883,0,0,-0.005004883,0,4.077,0,0,0,0,nan,2,0.245,0,0,0,0,0,0,0,0,0,1,2,1
58.093,0.001011,0.001953125,0,0.001953125,-0.0078125,0.03125,9.796875,0,0,0.001953125,nan,nan,nan,0.002563477,0.0007324219,-0.005004883,0,0,-0.005004883,0,4.077,0,0,0,0,nan,2,0.256,0,0,0,0,0,0,0,0,0,1,2,1
58.103,0.001005,-0.001953125,0,-0.001953125,-0.078125,0.046875,9.835938,-0.001953125,0,0.001953125,nan,nan,nan,0.002563477,0.0007324219,-0.004882812,0,0,-0.004882812,0,4.077,0,0,0,0,nan,2,0.266,0,0,0,0,0,0,0,0,0,1,2,1
58.113,0.001031,0,-0.00390625,0.001953125,-0.0703125,0.0703125,9.820312,0,0,0.001953125,nan,nan,nan,0.002563477,0.0007324219,-0.004882812,0,0,-0.004882812,0,4.077,0,0,0,0,nan,2,0.276,0,0,0,0,0,0,0,0,0,1,2,1
58.123,0.000946,-0.005859375,0.001953125,-0.001953125,-0.0625,0.03125,9.828125,-0.001953125,0,0,nan,nan,nan,0.002563477,0.0007324219,-0.004882812,0,0,-0.004882812,0,4.077,0,0,0,0,nan,2,0.286,0,0,0,0,0,0,0,0,0,1,2,1
58.134,0.000979,0.001953125,0,0.00390625,-0.09375,0.0703125,9.835938,0.001953125,0,0,nan,nan,nan,0.002563477,0.0007324219,-0.004882812,0,0,-0.004882812,0,4.077,0,0,0,0,nan,2,0.296,0,0,0,0,0,0,0,0,0,1,2,1
58.144,0.000998,0,-0.001953125,0.001953125,-0.03125,0.0625,9.78125,0,-0.001953125,0,nan,nan,nan,0.002685547,0.0008544922,-0.004882812,0,0,-0.004882812,0,4.077,0,0,0,0,nan,2,0.306,0,0,0,0,0,0,0,0,0,1,2,1
58.154,0.001022,-0.001953125,-0.001953125,-0.001953125,-0.078125,0.078125,9.789062,0,0.001953125,0,nan,nan,nan,0.002685547,0.0008544922,-0.004882812,0,0,-0.004882812,0,4.077,0,0,0,0,nan,2,0.316,0,0,0,0,0,0,0,0,0,1,2,1
58.163,0.001003,-0.001953125,-0.001953125,0,-0.0625,0.078125,9.828125,0,0,0,nan,nan,nan,0.002685547,0.0008544922,-0.004882812,0,0,-0.004882812,0,4.077,0,0,0,0,nan,2,0.325,0,0,0,0,0,0,0,0,0,1,2,1
58.173,0.001058,0.001953125,0.001953125,-0.001953125,-0.109375,0.0703125,9.796875,0,0,0,nan,nan,nan,0.002685547,0.0008544922,-0.004882812,0,0,-0.004882812,0,4.077,0,0,0,0,nan,2,0.335,0,0,0,0,0,0,0,0,0,1,2,1
58.183,0.000984,0,-0.001953125,0,-0.078125,0.0625,9.859375,0,-0.001953125,0,nan,nan,nan,0.002685547,0.0009765625,-0.004882812,0,0,-0.004882812,0,4.077,0,0,0,0,nan,2,0.345,0,0,0,0,0,0,0,0,0,1,2,1
58.193,0.000989,0,-0.00390625,0.001953125,-0.078125,0.0546875,9.8125,0,-0.001953125,0,nan,nan,nan,0.002685547,0.0009765625,-0.004882812,0,0,-0.004882812,0,4.077,0,0,0,0,nan,2,0.356,0,0,0,0,0,0,0,0,0,1,2,1
58.203,0.000998,0,-0.001953125,0,-0.0546875,0.0546875,9.8125,-0.001953125,0,0,nan,nan,nan,0.002685547,0.0009765625,-0.004882812,0,0,-0.004882812,0,4.077,0,0,0,0,nan,2,0.366,0,0,0,0,0,0,0,0,0,1,2,1
58.213,0.00097,0,0.001953125,0,-0.078125,0.0390625,9.84375,0,0,0,nan,nan,nan,0.002685547,0.0009765625,-0.004882812,0,0,-0.004882812,0,4.077,0,0,0,0,nan,2,0.376,0,0,0,0,0,0,0,0,0,1,2,1
58.223,0.000964,0,0.001953125,0.001953125,-0.0625,0.046875,9.828125,0,0,0,nan,nan,nan,0.002685547,0.0009765625,-0.004882812,0,0,-0.004882812,0,4.077,0,0,0,0,nan,2,0.386,0,0,0,0,0,0,0,0,0,1,2,1
58.233,0.001042,0,0,0.00390625,-0.078125,0.0546875,9.796875,0,0,0.001953125,nan,nan,nan,0.002685547,0.0009765625,-0.004882812,0,0,-0.004882812,0,4.077,0,0,0,0,nan,2,0.396,0,0,0,0,0,0,0,0,0,1,2,1
58.244,0.000994,0,-0.001953125,0,-0.0546875,0.09375,9.851562,0,0,0,nan,nan,nan,0.002685547,0.001098633,-0.004882812,0,0,-0.004882812,0,4.077,0,0,0,0,nan,2,0.406,0,0,0,0,0,0,0,0,0,1,2,1
58.254,0.001035,-0.00390625,0.001953125,0.001953125,-0.046875,0.0390625,9.835938,-0.001953125,-0.001953125,0,nan,nan,nan,0.002807617,0.001098633,-0.004882812,0,0,-0.004882812,0,4.077,0,0,0,0,nan,2,0.416,0,0,0,0,0,0,0,0,0,1,2,1
58.264,0.001195,0,-0.00390625,0.001953125,-0.0625,0.046875,9.796875,-0.001953125,-0.001953125,0.001953125,nan,nan,nan,0.002807617,0.001098633,-0.004882812,0,0,-0.004882812,0,4.077,0,0,0,0,nan,2,0.426,0,0,0,0,0,0,0,0,0,1,2,1
58.274,0.001142,0.001953125,0,0.001953125,-0.0546875,0.0703125,9.84375,0,0,0.001953125,nan,nan,nan,0.002807617,0.001098633,-0.004882812,0,0,-0.004882812,0,4.077,0,0,0,0,nan,2,0.436,0,0,0,0,0,0,0,0,0,1,2,1
58.283,0.001219,0.001953125,-0.001953125,0,-0.0390625,0.0703125,9.867188,0,0,0,nan,nan,nan,0.002807617,0.001098633,-0.004882812,0,0,-0.004882812,0,4.077,0,0,0,0,nan,2,0.445,0,0,0,0,0,0,0,0,0,1,2,1
