t,dt_s,gyro_x,gyro_y,gyro_z,acc_x,acc_y,acc_z,rates.x,rates.y,rates.z,ratesTarget.x,ratesTarget.y,ratesTarget.z,attitude.x,attitude.y,attitude.z,attitudeTarget.x,attitudeTarget.y,attitudeTarget.z,thrustTarget,battery_v,rc_roll,rc_pitch,rc_yaw,rc_throttle,rc_mode,flight_mode,rc_age_s,armed,fault_mask,motor_rl,motor_rr,motor_fr,motor_fl,rate_i_x,rate_i_y,rate_i_z,mix_scale,control_source,accel_correction_confidence
275.613,0.001003,-0.02148438,0.02734375,0.04101562,-1.5625,0.1015625,11.13281,-0.001953125,-0.0078125,0.02734375,0.0078125,-0.06640625,0,-0.001220703,0.01098633,-0.005981445,0,0,-0.004272461,0.3105164,4.077,0,0,0,0.2999878,nan,4,9.488,1,128,0.2741699,0.2486572,0.3974609,0.3218079,-0.01464844,-0.04003906,0,1,3,0
275.623,0.00101,0.00390625,0.09960938,0.04492188,1.382812,-0.6015625,10.57031,0.001953125,0.01171875,0.03515625,0.005859375,-0.06640625,0,-0.001098633,0.01098633,-0.005737305,0,0,-0.004272461,0.3105164,4.077,0,0,0,0.2999878,nan,4,9.498,1,128,0.2828979,0.2409363,0.40802,0.3102417,-0.01464844,-0.04003906,0,1,3,0
275.633,0.00101,0.1074219,-0.06640625,0.06445312,-1.53125,0.2890625,10.1875,0.01953125,-0.01953125,0.046875,0.005859375,-0.06445312,0,-0.001098633,0.01086426,-0.005371094,0,0,-0.004272461,0.3105164,4.077,0,0,0,0.2999878,nan,4,9.508,1,128,0.2825928,0.2581787,0.4042664,0.2970581,-0.01464844,-0.04003906,0,1,3,0
275.644,0.00101,0.02929688,-0.00390625,0.04296875,0.8984375,-1.476562,9.554688,0.00390625,0.01757812,0.04492188,0.0078125,-0.06445312,0,-0.001220703,0.01086426,-0.005004883,0,0,-0.004272461,0.3105164,4.077,0,0,0,0.2999878,nan,4,9.518,1,128,0.2680969,0.2576599,0.3959961,0.3203735,-0.01464844,-0.04003906,0,1,3,0.4285714
275.654,0.00101,0.0234375,0.1269531,0.01367188,-1.023438,2.4375,12.14844,-0.00390625,0.02148438,0.03320312,0.0078125,-0.06445312,0,-0.001342773,0.01086426,-0.004638672,0,0,-0.004272461,0.3105164,4.077,0,0,0,0.2999878,nan,4,9.528,1,128,0.2478943,0.2754211,0.3763733,0.3424072,-0.01464844,-0.04003906,0,1,3,0
275.664,0.00101,-0.02929688,0.04492188,0.00390625,0.3828125,-1.195312,8.25,-0.005859375,0.02539062,0.02734375,0.0078125,-0.06640625,0,-0.001342773,0.01098633,-0.004272461,0,0,-0.004272461,0.3105164,4.077,0,0,0,0.2999878,nan,4,9.538,1,128,0.2519836,0.2709656,0.3760071,0.3431396,-0.01464844,-0.04003906,0,1,3,0
275.674,0.00101,0,0.015625,-0.01171875,-0.8359375,1.695312,11.82031,0.0078125,-0.02734375,0.0078125,0.0078125,-0.06640625,0,-0.001342773,0.01086426,-0.004150391,0,0,-0.004272461,0.3105164,4.077,0,0,0,0.2999878,nan,4,9.549,1,128,0.2360535,0.3092346,0.3454285,0.3513794,-0.01464844,-0.04003906,0,1,3,0
275.683,0.001012,0.01757812,-0.04101562,-0.0234375,0.953125,-2.023438,7.625,0.02539062,-0.0078125,-0.015625,0.0078125,-0.06640625,0,-0.001220703,0.0111084,-0.004272461,0,0,-0.004272461,0.3105164,4.077,0,0,0,0.2999878,nan,4,9.558,1,128,0.2333679,0.3064575,0.348999,0.3532715,-0.01464844,-0.04003906,0,1,3,0
275.693,0.001017,-0.046875,-0.06054688,-0.0703125,-0.59375,0.6171875,9.039062,0.01171875,-0.02539062,-0.04882812,0.005859375,-0.06445312,0,-0.0008544922,0.01074219,-0.004516602,0,0,-0.004272461,0.3105164,4.077,0,0,0,0.2999878,nan,4,9.568,1,128,0.2030945,0.3314819,0.3113098,0.3962097,-0.01464844,-0.04003906,0,1,3,0
275.703,0.001004,-0.1445312,0.08398438,-0.03710938,-0.71875,-1.015625,10.11719,0.001953125,-0.1074219,-0.05664062,0.001953125,-0.06054688,0,-0.0004882812,0.01000977,-0.005126953,0,0,-0.004272461,0.3105164,4.077,0,0,0,0.2999878,nan,4,9.578,1,128,0.2538757,0.3001404,0.3314819,0.3565979,-0.01464844,-0.04003906,0,1,3,0.1904762
275.713,0.001003,-0.04101562,0.08203125,-0.02929688,0.234375,1.515625,9.3125,-0.02539062,-0.02539062,-0.0390625,0.00390625,-0.05664062,0,-0.0007324219,0.009643555,-0.005615234,0,0,-0.004272461,0.3105164,4.077,0,0,0,0.2999878,nan,4,9.588,1,128,0.2590942,0.2681885,0.3746033,0.34021,-0.01464844,-0.04003906,0,1,3,0.1428571
275.723,0.001009,-0.0703125,0.05664062,-0.0234375,0.46875,-0.34375,9.171875,-0.0234375,0.01367188,-0.02734375,0.005859375,-0.05859375,0,-0.0008544922,0.009765625,-0.005981445,0,0,-0.004272461,0.3105164,4.077,0,0,0,0.2999878,nan,4,9.598,1,128,0.2617493,0.2671814,0.3728638,0.340332,-0.01464844,-0.04003906,0,1,3,0
275.733,0.001009,0.1171875,0.001953125,-0.03125,0.34375,-1.929688,7.546875,0.02929688,-0.02539062,-0.03710938,0.00390625,-0.05859375,0,-0.0007324219,0.009643555,-0.006347656,0,0,-0.004272461,0.3105164,4.077,0,0,0,0.2999878,nan,4,9.608,1,128,0.2399597,0.3041077,0.3592834,0.3387756,-0.01464844,-0.04003906,0,1,3,0
275.744,0.001044,-0.06054688,0.03320312,-0.04101562,0,0.734375,9.609375,-0.00390625,0.03515625,-0.04296875,0.00390625,-0.05859375,0,-0.0004882812,0.009765625,-0.006713867,0,0,-0.004272461,0.3105164,4.077,0,0,0,0.2999878,nan,4,9.618,1,128,0.2405396,0.2792358,0.3596802,0.3626404,-0.01464844,-0.04003906,0,1,3,0.03174603
275.754,0.001035,0.009765625,-0.03515625,0.01953125,1.304688,-1.023438,9.484375,0.01171875,-0.00390625,0.00390625,0.00390625,-0.05859375,0,-0.0006103516,0.009887695,-0.006958008,0,0,-0.004272461,0.3105164,4.077,0,0,0,0.2999878,nan,4,9.628,1,128,0.2998657,0.2396851,0.416626,0.2859497,-0.01464844,-0.04101562,0,1,3,0.3015873
275.763,0.001049,0.03515625,0.1367188,0.06640625,-1.40625,1.578125,13.28125,-0.01757812,0.1347656,0.0546875,0.005859375,-0.06054688,0,-0.0009765625,0.01013184,-0.006591797,0,0,-0.004272461,0.3105164,4.077,0,0,0,0.2999878,nan,4,9.637,1,128,0.2878113,0.1915588,0.4609985,0.3017578,-0.01464844,-0.04101562,0,1,3,0
275.773,0.000992,-0.009765625,-0.2070312,0.03515625,1.203125,-1.648438,9.070312,0.01367188,-0.08398438,0.05078125,0.005859375,-0.0625,0,-0.0009765625,0.01062012,-0.006103516,0,0,-0.004272461,0.3105164,4.077,0,0,0,0.2999878,nan,4,9.648,1,128,0.295166,0.2935181,0.3661194,0.2872925,-0.01464844,-0.04101562,0,1,3,0
275.783,0.0009860001,0.046875,0.1679688,0.0078125,-1.523438,1.976562,11.46094,0.00390625,0.03320312,0.0234375,0.005859375,-0.06054688,0,-0.001098633,0.01013184,-0.005737305,0,0,-0.004272461,0.3105164,4.077,0,0,0,0.2999878,nan,4,9.658,1,128,0.2188416,0.2847595,0.3706665,0.3678284,-0.01464844,-0.04101562,0,1,3,0
275.793,0.001051,-0.06835938,0.0546875,0.01171875,0.4921875,-1.460938,7.695312,-0.03320312,0.07617188,0.00390625,0.0078125,-0.06445312,0,-0.001220703,0.01086426,-0.005737305,0,0,-0.004272461,0.3105164,4.077,0,0,0,0.2999878,nan,4,9.668,1,128,0.2493896,0.2657471,0.3710327,0.355957,-0.01464844,-0.04101562,0,1,3,0
275.803,0.001007,0.0078125,-0.02734375,0.01367188,-0.3515625,0.9296875,10.14062,0.015625,-0.009765625,0.02734375,0.009765625,-0.06640625,0,-0.001464844,0.01098633,-0.005493164,0,0,-0.004272461,0.3105164,4.077,0,0,0,0.2999878,nan,4,9.678,1,128,0.2632446,0.2793274,0.3794556,0.3200684,-0.01464844,-0.04101562,0,1,3,0.1587302
275.813,0.001061,-0.01171875,0.001953125,-0.0234375,-0.2734375,-0.328125,9.296875,0.02148438,-0.01757812,0.005859375,0.005859375,-0.06445312,0,-0.001098633,0.01086426,-0.005249023,0,0,-0.004272461,0.3105164,4.077,0,0,0,0.2999878,nan,4,9.688,1,128,0.2271423,0.3077087,0.3417053,0.3655396,-0.01464844,-0.04101562,0,1,3,0
275.823,0.001065,0.05078125,-0.05273438,-0.015625,-0.03125,-1.570312,9.023438,0.0078125,-0.015625,0,0.0078125,-0.06640625,0,-0.001220703,0.01098633,-0.005371094,0,0,-0.004272461,0.3105164,4.077,0,0,0,0.2999878,nan,4,9.698,1,128,0.2478638,0.2950134,0.3615417,0.337677,-0.01464844,-0.04101562,0,1,3,0
275.833,0.001008,-0.1269531,-0.03515625,-0.04492188,-0.828125,1.34375,10.98438,-0.04296875,-0.02734375,-0.03125,0.0078125,-0.06445312,0,-0.001220703,0.01074219,-0.005493164,0,0,-0.004272461,0.3105164,4.077,0,0,0,0.2999878,nan,4,9.708,1,128,0.2215271,0.3131104,0.3122864,0.3952026,-0.01464844,-0.04101562,0,1,3,0
275.844,0.001016,0.02148438,0.296875,-0.03125,0.6953125,-0.2265625,10.0625,-0.02539062,0.1503906,-0.02734375,0.009765625,-0.06640625,0,-0.001586914,0.0111084,-0.005737305,0,0,-0.004272461,0.3105164,4.077,0,0,0,0.2999878,nan,4,9.718,1,128,0.2097778,0.2570801,0.3944092,0.3808289,-0.01464844,-0.04101562,0,1,3,0.2222222
275.854,0.001016,-0.07421875,-0.02148438,-0.0234375,-1.289062,0.734375,11.44531,0.009765625,-0.07617188,-0.0234375,0.0078125,-0.06835938,0,-0.001342773,0.01135254,-0.006103516,0,0,-0.004272461,0.3105164,4.077,0,0,0,0.2999878,nan,4,9.728,1,128,0.2764282,0.29422,0.3482971,0.3231506,-0.01464844,-0.04101562,0,1,3,0
275.864,0.001016,-0.01171875,-0.009765625,-0.03125,0.921875,-2.15625,8.226562,0.02734375,-0.0625,-0.02539062,0.0078125,-0.06640625,0,-0.001220703,0.01098633,-0.006347656,0,0,-0.004272461,0.3105164,4.077,0,0,0,0.2999878,nan,4,9.738,1,128,0.245697,0.2978516,0.3572083,0.3413696,-0.01464844,-0.04101562,0,1,3,0
275.874,0.001016,-0.0546875,-0.0703125,-0.0078125,-0.359375,3.054688,12.49219,-0.01367188,-0.0546875,-0.01757812,0.0078125,-0.0625,0,-0.001342773,0.01049805,-0.006591797,0,0,-0.004272461,0.3105164,4.077,0,0,0,0.2999878,nan,4,9.749,1,128,0.2680969,0.274353,0.3692627,0.3303833,-0.01464844,-0.04101562,0,1,3,0
275.883,0.001001,-0.06054688,0.0078125,-0.01171875,-0.2734375,-1.6875,8.898438,-0.005859375,-0.02734375,-0.00390625,0.0078125,-0.0625,0,-0.001464844,0.01025391,-0.006591797,0,0,-0.004272461,0.3105164,4.077,0,0,0,0.2999878,nan,4,9.758,1,128,0.2576599,0.276886,0.3717651,0.3357849,-0.01464844,-0.04101562,0,1,3,0
275.893,0.001059,0.00390625,0.00390625,0.02929688,0.4765625,0.6875,10.41406,0.0078125,0.01757812,0.02148438,0.009765625,-0.0625,0,-0.001464844,0.01025391,-0.006469727,0,0,-0.004272461,0.3105164,4.077,0,0,0,0.2999878,nan,4,9.768,1,128,0.2724609,0.2487793,0.4042358,0.3166199,-0.01464844,-0.04101562,0,1,3,0
275.903,0.001007,-0.04492188,0.03320312,-0.00390625,-0.3515625,-0.9296875,8.351562,0.005859375,0.001953125,0.01367188,0.0078125,-0.06054688,0,-0.001220703,0.01013184,-0.006347656,0,0,-0.004272461,0.3105164,4.077,0,0,0,0.2999878,nan,4,9.778,1,128,0.2442017,0.2822266,0.3613586,0.3543091,-0.01464844,-0.04199219,0,1,3,0
275.913,0.001009,-0.05078125,-0.0546875,0.01953125,1.570312,0.0078125,7.265625,-0.03320312,0.03125,0.015625,0.009765625,-0.0625,0,-0.001464844,0.01049805,-0.006225586,0,0,-0.004272461,0.3105164,4.077,0,0,0,0.2999878,nan,4,9.788,1,128,0.2707214,0.2575684,0.3806458,0.3331909,-0.01464844,-0.04199219,0,1,3,0
275.923,0.00101,-0.07421875,-0.1191406,0.01757812,-1.664062,0.9765625,10.75,-0.015625,-0.0546875,0.01953125,0.009765625,-0.0625,0,-0.001586914,0.01037598,-0.005981445,0,0,-0.004272461,0.3105164,4.077,0,0,0,0.2999878,nan,4,9.798,1,128,0.2695312,0.2834473,0.3595276,0.3296204,-0.01464844,-0.04199219,0,1,3,0
275.933,0.00101,-0.01757812,-0.1933594,0.0234375,1.617188,-1.65625,6.734375,-0.01757812,-0.0703125,0.015625,0.009765625,-0.06054688,0,-0.001586914,0.01025391,-0.005859375,0,0,-0.004272461,0.3105164,4.077,0,0,0,0.2999878,nan,4,9.808,1,128,0.2721252,0.2886047,0.3501587,0.3312073,-0.01464844,-0.04199219,0,1,3,0
275.944,0.00101,-0.1757812,0.1386719,-0.0078125,-0.921875,2.40625,10.44531,-0.07226562,0.1113281,-0.005859375,0.009765625,-0.06054688,0,-0.001586914,0.01013184,-0.005737305,0,0,-0.004272461,0.3105164,4.077,0,0,0,0.2999878,nan,4,9.818,1,128,0.2150879,0.2619324,0.3502197,0.4148865,-0.01464844,-0.04199219,0,1,3,0
275.954,0.00101,0.00390625,0.234375,-0.015625,-0.71875,-2.570312,9.640625,0.01757812,0.09570312,0.00390625,0.009765625,-0.06640625,0,-0.001586914,0.01098633,-0.005737305,0,0,-0.004272461,0.3105164,4.077,0,0,0,0.2999878,nan,4,9.828,1,128,0.2270508,0.271759,0.3820496,0.3612671,-0.01464844,-0.04199219,0,1,3,0.4126984
275.964,0.000995,0.05078125,0.2011719,0.04101562,0.6328125,1.351562,10.46094,-0.0390625,0.005859375,0.01367188,0.009765625,-0.06445312,0,-0.001708984,0.01062012,-0.005737305,0,0,-0.004272461,0.3105164,4.077,0,0,0,0.2999878,nan,4,9.838,1,128,0.28125,0.2301025,0.407074,0.3236694,-0.01464844,-0.04199219,0,1,3,0
275.974,0.00101,0.015625,-0.07617188,0.02148438,-0.734375,0.1328125,8.335938,0,0.005859375,0.009765625,0.009765625,-0.06640625,0,-0.001708984,0.01098633,-0.005615234,0,0,-0.004272461,0.3105164,4.077,0,0,0,0.2999878,nan,4,9.848,1,128,0.267334,0.2683105,0.3826904,0.323761,-0.01464844,-0.04199219,0,1,3,0
275.983,0.001025,-0.02539062,0.03710938,-0.009765625,1.015625,-0.8828125,9.390625,0.01171875,-0.015625,-0.00390625,0.009765625,-0.06445312,0,-0.001464844,0.01074219,-0.005615234,0,0,-0.004272461,0.3105164,4.077,0,0,0,0.2999878,nan,4,9.858,1,128,0.2355957,0.2949219,0.3504028,0.3612061,-0.01464844,-0.04199219,0,1,3,0.1746032
275.993,0.001026,0.03320312,0.04492188,-0.005859375,-2.257812,0.1171875,11.89062,0.04296875,0.015625,0.0078125,0.0078125,-0.06445312,0,-0.001342773,0.01074219,-0.005493164,0,0,-0.004272461,0.3105164,4.077,0,0,0,0.2999878,nan,4,9.868,1,128,0.2426758,0.2785034,0.3845825,0.3363037,-0.01464844,-0.04199219,0,1,3,0
276.003,0.000995,0.078125,-0.3007812,0.015625,1.382812,0.5625,8.914062,0.0390625,-0.078125,0.01367188,0.0078125,-0.06640625,0,-0.001342773,0.01086426,-0.005493164,0,0,-0.004272461,0.3105164,4.077,0,0,0,0.2999878,nan,4,9.878,1,128,0.2888794,0.2864685,0.3795166,0.2872314,-0.01464844,-0.04199219,0,1,3,0
276.013,0.001007,-0.0859375,0.06445312,-0.009765625,-1.429688,0.9765625,10.85938,-0.046875,0,-0.009765625,0.009765625,-0.0625,0,-0.001586914,0.01037598,-0.005615234,0,0,-0.004272461,0.3105164,4.077,0,0,0,0.2999878,nan,4,9.888,1,128,0.2459106,0.2682495,0.3625793,0.3653564,-0.01464844,-0.04199219,0,1,3,0
276.023,0.001009,-0.0625,0.1152344,-0.02148438,1.039062,-0.8359375,8.757812,-0.009765625,0.02539062,-0.005859375,0.01171875,-0.0625,0,-0.001831055,0.01037598,-0.005737305,0,0,-0.004272461,0.3105164,4.077,0,0,0,0.2999878,nan,4,9.898,1,128,0.2461853,0.2653503,0.3846741,0.3458862,-0.01464844,-0.04199219,0,1,3,0
276.033,0.001009,0.05664062,-0.171875,0.001953125,-1.03125,1.46875,10.03906,0.0234375,-0.015625,-0.00390625,0.009765625,-0.0625,0,-0.001708984,0.01049805,-0.005737305,0,0,-0.004272461,0.3105164,4.077,0,0,0,0.2999878,nan,4,9.908,1,128,0.2587585,0.289032,0.3692932,0.3250122,-0.01464844,-0.04199219,0,1,3,0.1746032
276.044,0.001009,-0.02929688,0.05664062,-0.03710938,0.078125,-0.5,10.15625,-0.00390625,0.0078125,-0.02148438,0.009765625,-0.0625,0,-0.001586914,0.01037598,-0.005859375,0,0,-0.004272461,0.3105164,4.077,0,0,0,0.2999878,nan,4,9.918,1,128,0.2192078,0.3016968,0.3448792,0.3763123,-0.01464844,-0.04199219,0,1,3,0.2063492
276.054,0.001009,0.06835938,-0.001953125,-0.0078125,0.5625,-0.78125,9.265625,0.05078125,-0.01367188,-0.00390625,0.009765625,-0.0625,0,-0.001586914,0.01037598,-0.005981445,0,0,-0.004272461,0.3105164,4.077,0,0,0,0.2999878,nan,4,9.928,1,128,0.2514954,0.2867126,0.3805237,0.3233643,-0.01464844,-0.04296875,0,1,3,0
276.064,0.001001,0.05273438,0.1484375,0.00390625,-1.921875,1.84375,12.51562,0.01757812,0.08007812,0.00390625,0.0078125,-0.06445312,0,-0.001342773,0.01086426,-0.005981445,0,0,-0.004272461,0.3105164,4.077,0,0,0,0.2999878,nan,4,9.938,1,128,0.2451782,0.2522583,0.4003601,0.3442993,-0.01464844,-0.04296875,0,1,3,0
276.074,0.001009,-0.08007812,0.07617188,0.005859375,0.7734375,0.03125,9.3125,-0.09570312,0.05273438,0,0.01171875,-0.06640625,0,-0.002075195,0.0111084,-0.005981445,0,0,-0.004272461,0.3105164,4.077,0,0,0,0.2999878,nan,4,9.948,1,128,0.2541809,0.2547607,0.3702393,0.362915,-0.01464844,-0.04296875,0,1,3,0.03174603
276.083,0.001005,0.109375,-0.08203125,-0.0078125,-1.0625,1.101562,10.94531,0.01171875,0.015625,0.01367188,0.01367188,-0.06640625,0,-0.002197266,0.01098633,-0.005859375,0,0,-0.004272461,0.3105164,4.077,0,0,0,0.2999878,nan,4,9.958,1,128,0.2343445,0.2848511,0.3781128,0.3448181,-0.01367188,-0.04296875,0,1,3,0
276.093,0.001008,0.06640625,0.1816406,-0.01171875,1.28125,-0.671875,9.382812,-0.04492188,0.1191406,0,0.01367188,-0.06445312,0,-0.002319336,0.01062012,-0.005737305,0,0,-0.004272461,0.3105164,4.077,0,0,0,0.2999878,nan,4,9.968,1,128,0.2042236,0.2552795,0.3843689,0.3982544,-0.01367188,-0.04296875,0,1,3,0.2539683
276.103,0.001012,-0.08984375,0.2460938,-0.015625,-0.3984375,1.234375,10.42188,-0.05078125,0.03710938,-0.02148438,0.01367188,-0.06054688,0,-0.002197266,0.01013184,-0.005981445,0,0,-0.004272461,0.3105164,4.077,0,0,0,0.2999878,nan,4,9.978,1,128,0.2293396,0.258728,0.3623047,0.3917236,-0.01367188,-0.04296875,0,1,3,0
276.113,0.001042,0.05664062,-0.01171875,-0.01171875,-0.40625,-1.390625,9.28125,0.009765625,-0.01367188,-0.01171875,0.01367188,-0.06445312,0,-0.002197266,0.01062012,-0.006103516,0,0,-0.004272461,0.3105164,4.077,0,0,0,0.2999878,nan,4,9.988,1,128,0.263092,0.2757263,0.3733521,0.3299255,-0.01367188,-0.04296875,0,1,3,0.1111111
276.123,0.001006,-0.005859375,-0.1269531,0.001953125,1.1875,-0.78125,7.265625,-0.015625,-0.03515625,-0.001953125,0.01367188,-0.0625,0,-0.002197266,0.01049805,-0.006225586,0,0,-0.004272461,0.3105164,4.077,0,0,0,0.2999878,nan,4,9.998,1,128,0.2714844,0.2731934,0.3697815,0.3276062,-0.01367188,-0.04296875,0,1,3,0
276.133,0.001006,0.0625,-0.02539062,0.03515625,-0.828125,0.7109375,9.445312,0.005859375,-0.02734375,0.01953125,0.01367188,-0.06054688,0,-0.002319336,0.01025391,-0.006103516,0,0,-0.004272461,0.3105164,4.077,0,0,0,0.2999878,nan,4,10.008,1,128,0.2775574,0.2537231,0.400177,0.3106384,-0.01367188,-0.04296875,0,1,3,0.1269841
276.144,0.001006,0.06054688,-0.05273438,0.01953125,0.609375,-0.78125,9.492188,0.01171875,-0.01367188,0.015625,0.01367188,-0.06054688,0,-0.002319336,0.01025391,-0.005981445,0,0,-0.004272461,0.3105164,4.077,0,0,0,0.2999878,nan,4,10.018,1,128,0.2586975,0.2767334,0.3786926,0.3279724,-0.01367188,-0.04296875,0,1,3,0.2857143
276.154,0.001008,0.06445312,0.02734375,0.02148438,-1.804688,0.703125,12.8125,-0.005859375,0.009765625,0,0.01367188,-0.06054688,0,-0.002319336,0.01013184,-0.005981445,0,0,-0.004272461,0.3105164,4.077,0,0,0,0.2999878,nan,4,10.028,1,128,0.2494507,0.2730713,0.3760071,0.3435974,-0.01367188,-0.04296875,0,1,3,0
276.164,0.000996,0.05078125,0.1816406,-0.0078125,0.828125,-0.8359375,7.554688,0.0078125,0.05078125,-0.00390625,0.01367188,-0.0625,0,-0.002441406,0.01025391,-0.005981445,0,0,-0.004272461,0.3105164,4.077,0,0,0,0.2999878,nan,4,10.038,1,128,0.2333984,0.2709961,0.3831482,0.3545532,-0.01367188,-0.04296875,0,1,3,0
276.174,0.001014,0.02734375,0.06835938,-0.001953125,-0.8046875,2.101562,11.9375,-0.015625,0.05859375,-0.00390625,0.01367188,-0.06445312,0,-0.002441406,0.01086426,-0.005981445,0,0,-0.004272461,0.3105164,4.077,0,0,0,0.2999878,nan,4,10.048,1,128,0.2438354,0.2751465,0.3664246,0.3566895,-0.01367188,-0.04296875,0,1,3,0
276.183,0.00101,-0.1035156,-0.09570312,-0.0078125,-0.21875,-2.164062,8.585938,0.0078125,-0.0390625,0.009765625,0.01367188,-0.06445312,0,-0.002319336,0.01086426,-0.005859375,0,0,-0.004272461,0.3105164,4.077,0,0,0,0.2999878,nan,4,10.058,1,128,0.2636108,0.2825012,0.3636475,0.3323364,-0.01367188,-0.04296875,0,1,3,0
276.193,0.001003,0.05078125,0.03515625,0.0234375,0.0234375,2.375,12.71094,0.01757812,0.02929688,0.01953125,0.01367188,-0.06640625,0,-0.002319336,0.0111084,-0.005859375,0,0,-0.004272461,0.3105164,4.077,0,0,0,0.2999878,nan,4,10.068,1,128,0.2662048,0.2544556,0.399231,0.3222046,-0.01367188,-0.04394531,0,1,3,0
276.203,0.00101,-0.03710938,-0.0078125,-0.03320312,-1.25,-0.359375,11.47656,0.01367188,-0.03125,-0.01171875,0.01171875,-0.06445312,0,-0.002075195,0.01074219,-0.005737305,0,0,-0.004272461,0.3105164,4.077,0,0,0,0.2999878,nan,4,10.078,1,128,0.2200012,0.3120728,0.3358154,0.3742371,-0.01367188,-0.04394531,0,1,3,0
276.213,0.001003,0.05859375,0.01953125,0.01367188,0.890625,-0.453125,8.132812,-0.02734375,-0.01367188,-0.0078125,0.01367188,-0.06445312,0,-0.002441406,0.01062012,-0.005981445,0,0,-0.004272461,0.3105164,4.077,0,0,0,0.2999878,nan,4,10.088,1,128,0.2614441,0.2632446,0.3787842,0.3386536,-0.01367188,-0.04394531,0,1,3,0
276.223,0.00101,0.02929688,0.0390625,-0.01171875,-1.421875,1.101562,10.51562,0.02148438,0.0234375,0,0.01367188,-0.06445312,0,-0.002197266,0.01062012,-0.005859375,0,0,-0.004272461,0.3105164,4.077,0,0,0,0.2999878,nan,4,10.098,1,128,0.2416382,0.2719116,0.3804626,0.3480835,-0.01367188,-0.04394531,0,1,3,0
276.233,0.00101,-0.04101562,0.1210938,0,0.7421875,0.1171875,9.007812,-0.009765625,0.001953125,-0.001953125,0.01171875,-0.06445312,0,-0.002075195,0.01062012,-0.005859375,0,0,-0.004272461,0.3105164,4.077,0,0,0,0.2999878,nan,4,10.108,1,128,0.2414551,0.2784729,0.3576965,0.3644714,-0.01367188,-0.04394531,0,1,3,0
276.244,0.00101,-0.03710938,-0.0390625,-0.01367188,-1.257812,1.265625,10.46094,0.01171875,-0.02539062,-0.001953125,0.01171875,-0.0625,0,-0.001953125,0.01062012,-0.005859375,0,0,-0.004272461,0.3105164,4.077,0,0,0,0.2999878,nan,4,10.118,1,128,0.2495422,0.2866821,0.3626099,0.3432617,-0.01367188,-0.04394531,0,1,3,0
276.254,0.00101,0.0859375,-0.05664062,-0.009765625,-0.203125,-1.609375,9.859375,0.02539062,0.0078125,-0.00390625,0.01367188,-0.06640625,0,-0.002197266,0.01098633,-0.005981445,0,0,-0.004272461,0.3105164,4.077,0,0,0,0.2999878,nan,4,10.128,1,128,0.2513428,0.2832336,0.3816528,0.3258667,-0.01367188,-0.04394531,0,1,3,0.5555556
276.264,0.00101,0.0625,0.1347656,0.001953125,-0.828125,1.640625,9.296875,0.009765625,0.04882812,-0.00390625,0.015625,-0.06835938,0,-0.002563477,0.01123047,-0.006103516,0,0,-0.004272461,0.3105164,4.077,0,0,0,0.2999878,nan,4,10.138,1,128,0.2498779,0.2649231,0.4006348,0.3266907,-0.01367188,-0.04394531,0,1,3,0.2539683
276.274,0.00101,-0.0546875,-0.08203125,0.04101562,-0.0703125,-1.289062,8.34375,0.001953125,-0.02148438,0.02148438,0.015625,-0.0703125,0,-0.002685547,0.01184082,-0.006103516,0,0,-0.004272461,0.3105164,4.077,0,0,0,0.2999878,nan,4,10.148,1,128,0.3052673,0.247345,0.4046936,0.2848206,-0.01367188,-0.04394531,0,1,3,0
276.283,0.00101,0.1152344,-0.2011719,-0.005859375,1.492188,-0.0078125,9.53125,0.06054688,-0.05859375,0.015625,0.015625,-0.06835938,0,-0.002441406,0.01147461,-0.005859375,0,0,-0.004272461,0.3105164,4.077,0,0,0,0.2999878,nan,4,10.158,1,128,0.2449646,0.3022766,0.3654785,0.3294067,-0.01367188,-0.04394531,0,1,3,0.6190476
276.293,0.000989,-0.06054688,0.1386719,0,-1.398438,1.117188,10.96875,0.01953125,-0.001953125,0.005859375,0.01171875,-0.06445312,0,-0.002075195,0.01074219,-0.005737305,0,0,-0.004272461,0.3105164,4.077,0,0,0,0.2999878,nan,4,10.168,1,128,0.2286682,0.2769775,0.3643799,0.3721008,-0.01367188,-0.04394531,0,1,3,0
276.303,0.00106,0.01757812,0.0390625,-0.00390625,0.765625,-1.726562,9.484375,0.03125,0,0.015625,0.01171875,-0.06640625,0,-0.001953125,0.01086426,-0.005615234,0,0,-0.004272461,0.3105164,4.077,0,0,0,0.2999878,nan,4,10.178,1,128,0.2444153,0.2786865,0.3776855,0.3413391,-0.01367188,-0.04394531,0,1,3,0.6825397
276.313,0.000994,0.0078125,0.078125,0.03125,-1.609375,0.578125,12.25,-0.0234375,0.05273438,0.005859375,0.01171875,-0.06640625,0,-0.002075195,0.01123047,-0.005615234,0,0,-0.004272461,0.3105164,4.077,0,0,0,0.2999878,nan,4,10.188,1,128,0.2581787,0.2501526,0.3916321,0.3421326,-0.01367188,-0.04394531,0,1,3,0
276.323,0.000958,-0.05078125,0.078125,0.01171875,0.609375,-0.3671875,8.945312,-0.02539062,0.04101562,0.0078125,0.01367188,-0.06835938,0,-0.002197266,0.01123047,-0.005493164,0,0,-0.004272461,0.3105164,4.077,0,0,0,0.2999878,nan,4,10.198,1,128,0.2444763,0.2616272,0.3762817,0.3597107,-0.01367188,-0.04394531,0,1,3,0
276.333,0.001009,0.1035156,-0.09179688,0.02734375,0.546875,-1.015625,9.0625,0.03320312,-0.015625,0.01171875,0.01367188,-0.0703125,0,-0.002441406,0.01171875,-0.005371094,0,0,-0.004272461,0.3105164,4.077,0,0,0,0.2999878,nan,4,10.208,1,128,0.2649841,0.2824402,0.3882141,0.3064575,-0.01367188,-0.04492188,0,1,3,0
276.343,0.001009,0.08984375,-0.21875,-0.03515625,0.2109375,-1.429688,10.77344,0.0390625,0.009765625,-0.02539062,0.01367188,-0.0703125,0,-0.002197266,0.01159668,-0.005493164,0,0,-0.004272461,0.3105164,4.077,0,0,0,0.2999878,nan,4,10.218,1,128,0.1937561,0.3326416,0.3323059,0.3833923,-0.01367188,-0.04492188,0,1,3,0
276.354,0.001009,-0.03515625,-0.1015625,-0.0234375,0.5546875,-0.4921875,9.023438,0.03125,-0.07421875,-0.0234375,0.01171875,-0.06835938,0,-0.002075195,0.01123047,-0.005737305,0,0,-0.004272461,0.3105164,4.077,0,0,0,0.2999878,nan,4,10.228,1,128,0.249054,0.307312,0.3468018,0.3389282,-0.01367188,-0.04492188,0,1,3,0
276.364,0.000971,-0.0234375,-0.01757812,-0.03320312,-0.90625,0.9453125,10.75781,-0.001953125,-0.02148438,-0.02734375,0.01171875,-0.06835938,0,-0.002075195,0.01147461,-0.005981445,0,0,-0.004272461,0.3105164,4.077,0,0,0,0.2999878,nan,4,10.238,1,128,0.2528381,0.2855835,0.3554382,0.3482666,-0.01367188,-0.04492188,0,1,3,0
276.373,0.001191,0.005859375,-0.03515625,-0.0078125,0.6953125,-2.90625,8.640625,0.009765625,-0.015625,-0.015625,0.01171875,-0.06835938,0,-0.001953125,0.01135254,-0.006103516,0,0,-0.004272461,0.3105164,4.077,0,0,0,0.2999878,nan,4,10.248,1,128,0.2559509,0.2722168,0.3774414,0.3365173,-0.01367188,-0.04492188,0,1,3,0
276.383,0.001026,0.0078125,-0.03320312,0,0.0234375,3.257812,12.53125,0.00390625,0.001953125,0,0.01171875,-0.06835938,0,-0.001953125,0.01135254,-0.006225586,0,0,-0.004272461,0.3105164,4.077,0,0,0,0.2999878,nan,4,10.258,1,128,0.2521973,0.2687073,0.3790588,0.3421631,-0.01367188,-0.04492188,0,1,3,0
276.393,0.001018,0.02734375,-0.08789062,0.01367188,-0.484375,-1.484375,9.835938,0.02148438,-0.05664062,0.01367188,0.01171875,-0.06835938,0,-0.001953125,0.01123047,-0.006103516,0,0,-0.004272461,0.3105164,4.077,0,0,0,0.2999878,nan,4,10.268,1,128,0.2669983,0.2779846,0.379425,0.317688,-0.01367188,-0.04492188,0,1,3,0.6507937
276.403,0.001137,0.0234375,0.1074219,-0.005859375,0.84375,0.046875,10.48438,0.00390625,0.03710938,-0.001953125,0.01171875,-0.06640625,0,-0.001831055,0.0111084,-0.005981445,0,0,-0.004272461,0.3105164,4.077,0,0,0,0.2999878,nan,4,10.278,1,128,0.2200317,0.2831726,0.3656006,0.373291,-0.01367188,-0.04492188,0,1,3,0
276.413,0.001021,0.005859375,0.09570312,0.015625,-0.8203125,1.742188,10.85938,0,0.08398438,0.01171875,0.01171875,-0.0703125,0,-0.002075195,0.01184082,-0.005981445,0,0,-0.004272461,0.3105164,4.077,0,0,0,0.2999878,nan,4,10.288,1,128,0.2538757,0.2503967,0.4033508,0.3344421,-0.01367188,-0.04492188,0,1,3,0
276.423,0.001068,-0.009765625,-0.00390625,0.05078125,1.125,-1.015625,7.960938,0.01171875,0,0.0234375,0.01367188,-0.07421875,0,-0.002319336,0.0123291,-0.005859375,0,0,-0.004272461,0.3105164,4.077,0,0,0,0.2999878,nan,4,10.298,1,128,0.2844238,0.2540894,0.4041443,0.299469,-0.01367188,-0.04492188,0,1,3,0
276.433,0.001016,0.0625,-0.04101562,0.02929688,-1.6875,1.65625,11.15625,0.01953125,0.015625,0.01757812,0.01367188,-0.07617188,0,-0.002441406,0.01257324,-0.005737305,0,0,-0.004272461,0.3105164,4.077,0,0,0,0.2999878,nan,4,10.308,1,128,0.2620544,0.2644043,0.3956909,0.3199158,-0.01367188,-0.04492188,0,1,3,0
276.444,0.00103,0.04492188,-0.07226562,-0.01367188,1.984375,-0.046875,6.8125,-0.0078125,-0.0078125,-0.005859375,0.01367188,-0.07617188,0,-0.002441406,0.01257324,-0.005615234,0,0,-0.004272461,0.3105164,4.077,0,0,0,0.2999878,nan,4,10.318,1,128,0.2197876,0.3094177,0.3360596,0.3768616,-0.01367188,-0.04492188,0,1,3,0
276.454,0.000982,-0.1289062,0.1230469,-0.0078125,-0.7578125,0.796875,8.867188,-0.1035156,0.0625,-0.005859375,0.015625,-0.07421875,0,-0.002685547,0.0123291,-0.005615234,0,0,-0.004272461,0.3105164,4.077,0,0,0,0.2999878,nan,4,10.328,1,128,0.2350464,0.2514038,0.3540039,0.4016418,-0.01367188,-0.04492188,0,1,3,0
276.464,0.001016,0.009765625,0.2167969,-0.03125,-0.578125,0.0390625,10.10156,-0.01171875,0.1875,-0.02539062,0.01757812,-0.08203125,0,-0.002807617,0.01379395,-0.005737305,0,0,-0.004272461,0.3105164,4.077,0,0,0,0.2999878,nan,4,10.338,1,128,0.1902466,0.2800598,0.3641663,0.4076538,-0.01367188,-0.04589844,0,1,3,0.1904762
276.474,0.001016,0.0703125,-0.02929688,-0.04882812,0.3984375,0.6015625,9.226562,0.03125,0.0234375,-0.03125,0.015625,-0.0859375,0,-0.002807617,0.0144043,-0.005981445,0,0,-0.004272461,0.3105164,4.077,0,0,0,0.2999878,nan,4,10.348,1,128,0.214447,0.3179016,0.3431396,0.3666077,-0.01367188,-0.04589844,0,1,3,0
276.483,0.00101,-0.07421875,0.1035156,-0.02539062,-1.117188,1.023438,10.39062,-0.0078125,-0.0234375,-0.03125,0.01757812,-0.0859375,0,-0.002807617,0.01416016,-0.006225586,0,0,-0.004272461,0.3105164,4.077,0,0,0,0.2999878,nan,4,10.358,1,128,0.2494202,0.2798157,0.3638306,0.3490295,-0.01367188,-0.04589844,0,1,3,0
276.493,0.001016,0.04492188,0.0703125,-0.02148438,1.578125,-1.476562,8.953125,0.00390625,0.05078125,-0.01367188,0.01757812,-0.0859375,0,-0.002807617,0.0144043,-0.006469727,0,0,-0.004272461,0.3105164,4.077,0,0,0,0.2999878,nan,4,10.368,1,128,0.2363281,0.2574158,0.3919678,0.3563843,-0.01367188,-0.04589844,0,1,3,0
276.503,0.001009,0.08789062,0.04492188,-0.005859375,-0.6640625,2.34375,11.27344,0.04882812,0.01953125,0.001953125,0.015625,-0.0859375,0,-0.002685547,0.0144043,-0.006469727,0,0,-0.004272461,0.3105164,4.077,0,0,0,0.2999878,nan,4,10.378,1,128,0.2396545,0.273407,0.3912048,0.3378296,-0.01367188,-0.04589844,0,1,3,0
276.513,0.001011,-0.08007812,0.0078125,-0.01367188,-0.40625,-2.78125,9.140625,-0.02929688,0.03320312,-0.01953125,0.01367188,-0.08789062,0,-0.002319336,0.01477051,-0.006591797,0,0,-0.004272461,0.3105164,4.077,0,0,0,0.2999878,nan,4,10.388,1,128,0.2417908,0.2704773,0.3544312,0.3753967,-0.01367188,-0.04589844,0,1,3,0.4920635
276.523,0.00101,0.0546875,-0.046875,0.015625,0.578125,0.9296875,9.890625,-0.015625,-0.04101562,0.01367188,0.01757812,-0.08984375,0,-0.002807617,0.01489258,-0.006591797,0,0,-0.004272461,0.3105164,4.077,0,0,0,0.2999878,nan,4,10.398,1,128,0.2762146,0.2596436,0.3880615,0.3181458,-0.01367188,-0.04589844,0,1,3,0.1746032
276.533,0.00101,0.0625,0.01757812,0.02148438,-1.101562,1.03125,9.820312,0.00390625,-0.005859375,0.02148438,0.01757812,-0.08789062,0,-0.002929688,0.01477051,-0.006469727,0,0,-0.004272461,0.3105164,4.077,0,0,0,0.2999878,nan,4,10.408,1,128,0.2592163,0.2601318,0.3951416,0.3276062,-0.01367188,-0.04589844,0,1,3,0.2380952
276.543,0.00101,-0.04296875,-0.0546875,0.05078125,1.132812,-1.453125,6.953125,0.01367188,-0.04101562,0.04882812,0.015625,-0.08789062,0,-0.002685547,0.01464844,-0.006103516,0,0,-0.004272461,0.3105164,4.077,0,0,0,0.2999878,nan,4,10.418,1,128,0.29422,0.2374878,0.4084473,0.3019409,-0.01367188,-0.046875,0,1,3,0
276.554,0.00101,-0.06835938,-0.03710938,0.04492188,-1.210938,2.554688,11.78906,-0.00390625,-0.005859375,0.02929688,0.015625,-0.08789062,0,-0.002685547,0.01464844,-0.005737305,0,0,-0.004272461,0.3105164,4.077,0,0,0,0.2999878,nan,4,10.428,1,128,0.2679749,0.2510681,0.3890991,0.3339539,-0.01367188,-0.046875,0,1,3,0
276.564,0.001003,0.03515625,0.1484375,0.01953125,-0.0390625,-1.109375,9.171875,-0.009765625,0.06445312,0.01953125,0.01757812,-0.08789062,0,-0.002807617,0.01477051,-0.005493164,0,0,-0.004272461,0.3105164,4.077,0,0,0,0.2999878,nan,4,10.438,1,128,0.2285156,0.2629395,0.3863525,0.3643188,-0.01367188,-0.046875,0,1,3,0
276.574,0.00101,0.02734375,-0.00390625,-0.001953125,-0.125,2,11.17188,0.01171875,0.04296875,0.015625,0.01757812,-0.08984375,0,-0.002807617,0.01513672,-0.005249023,0,0,-0.004272461,0.3105164,4.077,0,0,0,0.2999878,nan,4,10.448,1,128,0.2269592,0.2781982,0.3720398,0.3649292,-0.01367188,-0.046875,0,1,3,0
276.584,0.00101,0.06640625,-0.1035156,0,0.1875,-1.859375,9.09375,0.01757812,-0.01367188,0.00390625,0.01757812,-0.08984375,0,-0.002807617,0.01501465,-0.005126953,0,0,-0.004272461,0.3105164,4.077,0,0,0,0.2999878,nan,4,10.459,1,128,0.2255859,0.2993164,0.3563538,0.3608398,-0.01367188,-0.046875,0,1,3,0
276.593,0.00098,-0.1347656,0.005859375,-0.04101562,1.148438,0.625,9.429688,-0.046875,0.04882812,-0.02148438,0.01757812,-0.08984375,0,-0.002807617,0.01501465,-0.005249023,0,0,-0.004272461,0.3105164,4.077,0,0,0,0.2999878,nan,4,10.468,1,128,0.2026062,0.2915649,0.3305664,0.4173584,-0.01367188,-0.046875,0,1,3,0.3015873
276.603,0.001026,-0.1445312,0.1699219,-0.06835938,-1.476562,-1.484375,9,-0.05859375,0.03710938,-0.0546875,0.01953125,-0.08984375,0,-0.003173828,0.01513672,-0.005615234,0,0,-0.004272461,0.3105164,4.077,0,0,0,0.2999878,nan,4,10.478,1,128,0.1958618,0.3029175,0.323822,0.4194641,-0.01367188,-0.046875,0,1,3,0
276.613,0.001007,-0.1015625,0.1132812,-0.05078125,1.804688,0.3984375,8.507812,-0.06054688,0.02734375,-0.0546875,0.01953125,-0.09179688,0,-0.003295898,0.01538086,-0.006103516,0,0,-0.004272461,0.3105164,4.077,0,0,0,0.2999878,nan,4,10.488,1,128,0.2255554,0.2729492,0.3450623,0.3985291,-0.01367188,-0.046875,0,1,3,0
276.623,0.001033,-0.05078125,0.05273438,-0.0234375,-2.15625,0.8203125,11.86719,-0.02929688,-0.02734375,-0.03710938,0.02148438,-0.08984375,0,-0.003417969,0.01513672,-0.006591797,0,0,-0.004272461,0.3105164,4.077,0,0,0,0.2999878,nan,4,10.498,1,128,0.2531433,0.2703552,0.3668823,0.3517456,-0.01367188,-0.046875,0,1,3,0
276.633,0.000998,0.0703125,-0.03515625,0,1.34375,-1.96875,7.242188,0,-0.0390625,-0.01757812,0.02148438,-0.08984375,0,-0.003540039,0.01489258,-0.006835938,0,0,-0.004272461,0.3105164,4.077,0,0,0,0.2999878,nan,4,10.508,1,128,0.2679749,0.2555237,0.3924866,0.3261108,-0.01367188,-0.046875,0,1,3,0
276.644,0.000998,0.0234375,-0.06054688,-0.01953125,-0.1796875,2.734375,9.359375,0.03125,-0.01367188,-0.01757812,0.01953125,-0.08789062,0,-0.003295898,0.01477051,-0.006958008,0,0,-0.004272461,0.3105164,4.077,0,0,0,0.2999878,nan,4,10.518,1,128,0.2359009,0.2854309,0.3664551,0.3543396,-0.01367188,-0.046875,0,1,3,0.7301587
276.654,0.00099,-0.0390625,-0.00390625,0.005859375,-1.007812,-1.210938,9.375,-0.02148438,0.01953125,-0.01953125,0.01757812,-0.08984375,0,-0.003051758,0.01489258,-0.007202148,0,0,-0.004272461,0.3105164,4.077,0,0,0,0.2999878,nan,4,10.528,1,128,0.2514038,0.2613525,0.3686218,0.3607178,-0.01367188,-0.04785156,0,1,3,0.2539683
276.664,0.001052,-0.05859375,-0.09570312,0.04296875,0.4375,0.546875,8.59375,-0.00390625,-0.01757812,0.01953125,0.01953125,-0.08984375,0,-0.003295898,0.01489258,-0.007202148,0,0,-0.004272461,0.3105164,4.077,0,0,0,0.2999878,nan,4,10.538,1,128,0.2993164,0.2289734,0.4145813,0.2992249,-0.01367188,-0.04785156,0,1,3,0
276.674,0.001015,-0.009765625,-0.02929688,0.08007812,-0.71875,2.210938,12.625,0.03710938,-0.046875,0.05859375,0.01953125,-0.0859375,0,-0.003173828,0.0144043,-0.006713867,0,0,-0.004272461,0.3105164,4.077,0,0,0,0.2999878,nan,4,10.548,1,128,0.3027344,0.221344,0.4342041,0.2838135,-0.01367188,-0.04785156,0,1,3,0
276.683,0.00101,0.09179688,-0.01171875,0.05664062,0.15625,-2.03125,10.86719,0.04101562,-0.015625,0.05664062,0.01953125,-0.0859375,0,-0.003295898,0.01428223,-0.006225586,0,0,-0.004272461,0.3105164,4.077,0,0,0,0.2999878,nan,4,10.558,1,128,0.2605896,0.2561646,0.4122925,0.3130493,-0.01269531,-0.04785156,0,1,3,0
276.693,0.00101,0.046875,-0.01367188,0.03710938,0.5859375,0.625,10.96094,0.01171875,-0.01757812,0.03710938,0.01953125,-0.08398438,0,-0.003295898,0.01416016,-0.005859375,0,0,-0.004272461,0.3105164,4.077,0,0,0,0.2999878,nan,4,10.568,1,128,0.2475891,0.2727051,0.3829956,0.3388062,-0.01269531,-0.04785156,0,1,3,0
276.703,0.001015,0.02539062,0.06054688,0.01367188,-1.421875,-0.0859375,9.1875,-0.01757812,0.01757812,0.01953125,0.01953125,-0.0859375,0,-0.003295898,0.01428223,-0.005615234,0,0,-0.004272461,0.3105164,4.077,0,0,0,0.2999878,nan,4,10.578,1,128,0.2426453,0.2647095,0.3728943,0.3618774,-0.01269531,-0.04785156,0,1,3,0
276.713,0.000977,0.03710938,-0.03515625,0.04492188,0.2734375,-0.4921875,9.601562,0.0078125,-0.01367188,0.02539062,0.01953125,-0.0859375,0,-0.003417969,0.0144043,-0.005493164,0,0,-0.004272461,0.3105164,4.077,0,0,0,0.2999878,nan,4,10.588,1,128,0.275238,0.2502747,0.4039917,0.3125916,-0.01269531,-0.04785156,0,1,3,0.1428571
276.723,0.00101,0.015625,0.02734375,0.0078125,-0.5234375,1.484375,12.01562,0.015625,-0.009765625,0.03515625,0.01953125,-0.08398438,0,-0.003295898,0.01391602,-0.005126953,0,0,-0.004272461,0.3105164,4.077,0,0,0,0.2999878,nan,4,10.598,1,128,0.2454834,0.2639465,0.3835449,0.3491211,-0.01269531,-0.04785156,0,1,3,0
276.734,0.001021,0.1132812,0.015625,0.01953125,0.4375,-0.7421875,10.28125,0.04101562,0.02734375,0.015625,0.01953125,-0.08398438,0,-0.003173828,0.01416016,-0.004882812,0,0,-0.004272461,0.3105164,4.077,0,0,0,0.2999878,nan,4,10.608,1,128,0.224762,0.2796021,0.3823853,0.3553772,-0.01269531,-0.04785156,0,1,3,0
276.743,0.00101,0.03515625,0,-0.03710938,-1,0.6796875,11.125,0.01171875,0.02539062,-0.02734375,0.01953125,-0.08398438,0,-0.003173828,0.01416016,-0.005004883,0,0,-0.004272461,0.3105164,4.077,0,0,0,0.2999878,nan,4,10.618,1,128,0.1900024,0.315033,0.3374939,0.3995972,-0.01269531,-0.04785156,0,1,3,0
276.754,0.000951,-0.005859375,0.04101562,-0.03515625,0,0.46875,9.84375,-0.01953125,0.0390625,-0.0390625,0.01953125,-0.0859375,0,-0.003173828,0.0144043,-0.005371094,0,0,-0.004272461,0.3105164,4.077,0,0,0,0.2999878,nan,4,10.628,1,128,0.2179871,0.2843628,0.3525696,0.3871765,-0.01269531,-0.04785156,0,1,3,0.7936508
276.764,0.00101,-0.02929688,0.08007812,-0.03125,-0.1328125,-0.125,9.007812,-0.01953125,0.06445312,-0.04296875,0.01953125,-0.08789062,0,-0.003173828,0.01464844,-0.005737305,0,0,-0.004272461,0.3105164,4.077,0,0,0,0.2999878,nan,4,10.638,1,128,0.2147827,0.2755432,0.3613586,0.3904419,-0.01269531,-0.04882812,0,1,3,0
276.774,0.00101,-0.04492188,-0.2949219,-0.0234375,-0.8515625,-0.078125,8.6875,-0.0234375,-0.09375,-0.02929688,0.01953125,-0.08789062,0,-0.003173828,0.01464844,-0.006103516,0,0,-0.004272461,0.3105164,4.077,0,0,0,0.2999878,nan,4,10.648,1,128,0.2796936,0.2849731,0.3519592,0.32547,-0.01269531,-0.04882812,0,1,3,0
276.784,0.00101,0.02929688,-0.08789062,-0.03710938,1.421875,-0.234375,8.4375,0.009765625,0.01367188,-0.02148438,0.01953125,-0.08984375,0,-0.003417969,0.01489258,-0.006225586,0,0,-0.004272461,0.3105164,4.077,0,0,0,0.2999878,nan,4,10.659,1,128,0.2374878,0.285553,0.3678894,0.3511963,-0.01269531,-0.04882812,0,1,3,0
276.793,0.001027,0.0234375,0.01171875,-0.01953125,-1.164062,2.59375,12.86719,-0.009765625,0.01757812,-0.02929688,0.02148438,-0.08789062,0,-0.003417969,0.01464844,-0.006591797,0,0,-0.004272461,0.3105164,4.077,0,0,0,0.2999878,nan,4,10.668,1,128,0.2281189,0.2685852,0.3739624,0.3714294,-0.01269531,-0.04882812,0,1,3,0
276.803,0.000998,0.09179688,-0.001953125,-0.03125,0.28125,-2.976562,10.10156,0.04296875,0.001953125,-0.03320312,0.01953125,-0.08789062,0,-0.003417969,0.01464844,-0.006835938,0,0,-0.004272461,0.3105164,4.077,0,0,0,0.2999878,nan,4,10.678,1,128,0.2256775,0.2872009,0.3761292,0.3530884,-0.01269531,-0.04882812,0,1,3,0
276.813,0.001005,0.0078125,0.06640625,0.005859375,-0.4140625,2.40625,13.08594,-0.001953125,0.01171875,-0.01171875,0.01953125,-0.08789062,0,-0.003417969,0.01477051,-0.007080078,0,0,-0.004272461,0.3105164,4.077,0,0,0,0.2999878,nan,4,10.688,1,128,0.2605286,0.2485657,0.3928223,0.34021,-0.01269531,-0.04882812,0,1,3,0
276.823,0.000963,0.07617188,-0.05273438,0.06054688,-0.1328125,-1.171875,9.023438,-0.005859375,-0.01953125,0.04101562,0.02148438,-0.08789062,0,-0.003540039,0.01464844,-0.006958008,0,0,-0.004272461,0.3105164,4.077,0,0,0,0.2999878,nan,4,10.698,1,128,0.3054504,0.2157898,0.4328613,0.2879944,-0.01269531,-0.04882812,0,1,3,0
276.833,0.001004,0.03125,-0.06054688,0.06054688,0.5546875,-0.3828125,8.242188,-0.01171875,0.01171875,0.05273438,0.0234375,-0.08789062,0,-0.00378418,0.01477051,-0.006469727,0,0,-0.004272461,0.3105164,4.077,0,0,0,0.2999878,nan,4,10.708,1,128,0.2740479,0.2378235,0.410614,0.3196106,-0.01269531,-0.04882812,0,1,3,0
276.843,0.001004,0.01367188,-0.02539062,0.03710938,-1.132812,1.90625,10.19531,0.009765625,-0.0078125,0.03710938,0.0234375,-0.08789062,0,-0.00378418,0.01477051,-0.005981445,0,0,-0.004272461,0.3105164,4.077,0,0,0,0.2999878,nan,4,10.718,1,128,0.2436523,0.2745972,0.3762207,0.3476562,-0.01269531,-0.04882812,0,1,3,0
276.854,0.001004,-0.04882812,0.09960938,0.005859375,0.5625,-1.367188,7.59375,-0.0234375,0.02539062,0.01953125,0.0234375,-0.08984375,0,-0.00390625,0.01489258,-0.005737305,0,0,-0.004272461,0.3105164,4.077,0,0,0,0.2999878,nan,4,10.728,1,128,0.2344055,0.2657166,0.3666992,0.3752747,-0.01269531,-0.04882812,0,1,3,0
276.864,0.001004,-0.02539062,-0.1191406,0.05078125,-0.7578125,1.953125,10.85156,0.01171875,-0.05664062,0.03710938,0.0234375,-0.08984375,0,-0.00402832,0.01489258,-0.005493164,0,0,-0.004272461,0.3105164,4.077,0,0,0,0.2999878,nan,4,10.738,1,128,0.2936707,0.2463989,0.4016113,0.3004456,-0.01269531,-0.04882812,0,1,3,0
276.874,0.001004,0.01953125,-0.07617188,0.04101562,0.7265625,-1.703125,7.796875,0.02148438,-0.0078125,0.03125,0.0234375,-0.08789062,0,-0.00402832,0.01464844,-0.005126953,0,0,-0.004272461,0.3105164,4.077,0,0,0,0.2999878,nan,4,10.748,1,128,0.2488708,0.262146,0.3923035,0.3388062,-0.01269531,-0.04980469,0,1,3,0
276.883,0.001017,-0.08203125,0.08789062,-0.0078125,-0.0859375,0.2265625,9.757812,-0.02734375,0.005859375,0.009765625,0.0234375,-0.08789062,0,-0.00402832,0.01464844,-0.005004883,0,0,-0.004272461,0.3105164,4.077,0,0,0,0.2999878,nan,4,10.758,1,128,0.2304993,0.276886,0.3544312,0.3802795,-0.01269531,-0.04980469,0,1,3,0.5079365
276.893,0.001018,-0.02148438,0.08007812,-0.02929688,-1.289062,-0.671875,10.03125,-0.015625,0.02929688,-0.009765625,0.0234375,-0.08789062,0,-0.00402832,0.01477051,-0.005004883,0,0,-0.004272461,0.3105164,4.077,0,0,0,0.2999878,nan,4,10.768,1,128,0.2123108,0.2835693,0.3519287,0.3943176,-0.01269531,-0.04980469,0,1,3,0.1428571
276.903,0.001015,-0.01171875,0.08007812,-0.05273438,0.9375,1.046875,10.40625,-0.015625,0.03515625,-0.04882812,0.02539062,-0.09179688,0,-0.004272461,0.01513672,-0.005371094,0,0,-0.004272461,0.3105164,4.077,0,0,0,0.2999878,nan,4,10.778,1,128,0.2004395,0.3049622,0.3348083,0.401886,-0.01269531,-0.04980469,0,1,3,0
276.913,0.00099,0.04882812,0.0703125,-0.0546875,-1.445312,-2.039062,8.164062,-0.02734375,0.07617188,-0.05273438,0.02734375,-0.09375,0,-0.004516602,0.01574707,-0.005859375,0,0,-0.004272461,0.3105164,4.077,0,0,0,0.2999878,nan,4,10.788,1,128,0.2106934,0.2818298,0.3565063,0.3930664,-0.01269531,-0.04980469,0,1,3,0
276.923,0.001067,-0.1152344,0.0625,-0.01367188,1.65625,1.265625,10.23438,-0.03320312,0.03710938,-0.03515625,0.02539062,-0.09570312,0,-0.004394531,0.01599121,-0.006347656,0,0,-0.004272461,0.3105164,4.077,0,0,0,0.2999878,nan,4,10.798,1,128,0.2546997,0.2442322,0.3753967,0.3677673,-0.01269531,-0.04980469,0,1,3,0
276.934,0.001068,-0.06640625,-0.04101562,-0.009765625,-1.4375,0.3046875,11.23438,-0.03515625,-0.01171875,-0.01367188,0.02929688,-0.09570312,0,-0.004760742,0.01586914,-0.006469727,0,0,-0.004272461,0.3105164,4.077,0,0,0,0.2999878,nan,4,10.808,1,128,0.2601929,0.2557068,0.3792419,0.3469543,-0.01269531,-0.04980469,0,1,3,0
276.944,0.001063,-0.09375,0.005859375,-0.02148438,1.273438,-1.109375,9.140625,-0.02539062,0.05273438,-0.01171875,0.03125,-0.09765625,0,-0.005004883,0.01611328,-0.006591797,0,0,-0.004272461,0.3105164,4.077,0,0,0,0.2999878,nan,4,10.818,1,128,0.2289734,0.2629395,0.3777161,0.372467,-0.01269531,-0.04980469,0,1,3,0
276.954,0.001022,0.01171875,0.1308594,0.001953125,-2.226562,2.601562,14.48438,0.0234375,0.01953125,0.00390625,0.02929688,-0.09570312,0,-0.005004883,0.01611328,-0.006591797,0,0,-0.004272461,0.3105164,4.077,0,0,0,0.2999878,nan,4,10.828,1,128,0.2419739,0.2518921,0.3993835,0.348877,-0.01269531,-0.04980469,0,1,3,0
276.964,0.0009869999,0.09960938,0,0.02929688,0.4140625,-1.632812,8.664062,0.01367188,-0.001953125,0.005859375,0.03125,-0.09765625,0,-0.005126953,0.01635742,-0.006591797,0,0,-0.004272461,0.3105164,4.077,0,0,0,0.2999878,nan,4,10.838,1,128,0.2655945,0.2547913,0.3999939,0.3216858,-0.01269531,-0.05078125,0,1,3,0
276.973,0.001119,0.0390625,0.078125,0.02539062,-0.8046875,0.2578125,10.03906,-0.02539062,0.02929688,0.02148438,0.03125,-0.09765625,0,-0.005249023,0.01623535,-0.006469727,0,0,-0.004272461,0.3105164,4.077,0,0,0,0.2999878,nan,4,10.848,1,128,0.2522888,0.2386475,0.3965149,0.3546448,-0.01269531,-0.05078125,0,1,3,0.2857143
276.983,0.00104,0.0234375,0.09375,0.015625,-0.8984375,0.84375,11.79688,0.01171875,-0.009765625,0.03515625,0.03125,-0.09570312,0,-0.005371094,0.01611328,-0.006103516,0,0,-0.004272461,0.3105164,4.077,0,0,0,0.2999878,nan,4,10.858,1,128,0.2528381,0.2549438,0.3964844,0.3378296,-0.01269531,-0.05078125,0,1,3,0
276.993,0.001105,0.02734375,-0.06054688,0.005859375,1.820312,-2.226562,8.820312,0.02539062,0.00390625,0.01367188,0.03125,-0.09570312,0,-0.005371094,0.01611328,-0.005859375,0,0,-0.004272461,0.3105164,4.077,0,0,0,0.2999878,nan,4,10.868,1,128,0.224884,0.2830811,0.3691406,0.3649902,-0.01269531,-0.05078125,0,1,3,0
277.003,0.001019,0.06640625,0.1015625,0.00390625,-1.992188,1.867188,13.57812,0.02148438,0.015625,0,0.03125,-0.09765625,0,-0.005249023,0.01623535,-0.005859375,0,0,-0.004272461,0.3105164,4.077,0,0,0,0.2999878,nan,4,10.878,1,128,0.2376404,0.267334,0.3804932,0.3566284,-0.01269531,-0.05078125,0,1,3,0
277.013,0.001056,0.01171875,-0.0546875,-0.0234375,1.117188,-1.328125,8.914062,-0.02148438,0,-0.0234375,0.03320312,-0.09765625,0,-0.005371094,0.01635742,-0.006103516,0,0,-0.004272461,0.3105164,4.077,0,0,0,0.2999878,nan,4,10.888,1,128,0.2306824,0.2811279,0.3564453,0.3738403,-0.01269531,-0.05078125,0,1,3,0
277.023,0.001003,0.0234375,-0.21875,0.01367188,-1.148438,0.953125,10.71875,-0.00390625,-0.0859375,0.00390625,0.03320312,-0.09765625,0,-0.005615234,0.01611328,-0.006103516,0,0,-0.004272461,0.3105164,4.077,0,0,0,0.2999878,nan,4,10.898,1,128,0.2799377,0.2667236,0.3795471,0.3158875,-0.01171875,-0.05078125,0,1,3,0
277.033,0.001016,-0.04101562,-0.08789062,0.02148438,1.039062,-1.09375,7.476562,0.00390625,-0.06445312,0.02148438,0.03320312,-0.09375,0,-0.005615234,0.01550293,-0.005981445,0,0,-0.004272461,0.3105164,4.077,0,0,0,0.2999878,nan,4,10.908,1,128,0.2680054,0.2563171,0.3848267,0.3329773,-0.01171875,-0.05078125,0,1,3,0
277.043,0.001016,-0.07617188,0.005859375,-0.0234375,-0.8828125,2.148438,11.75781,-0.01367188,-0.005859375,-0.00390625,0.03320312,-0.09375,0,-0.005493164,0.01550293,-0.005859375,0,0,-0.004272461,0.3105164,4.077,0,0,0,0.2999878,nan,4,10.918,1,128,0.2290039,0.2807922,0.3477783,0.3845215,-0.01171875,-0.05078125,0,1,3,0
277.054,0.001016,-0.01953125,0.03710938,-0.01953125,1.125,-2.757812,7.359375,0.0078125,-0.001953125,-0.015625,0.03320312,-0.09375,0,-0.005493164,0.01550293,-0.005981445,0,0,-0.004272461,0.3105164,4.077,0,0,0,0.2999878,nan,4,10.928,1,128,0.2245789,0.2792358,0.3617249,0.3765564,-0.01171875,-0.05078125,0,1,3,0
277.064,0.001006,-0.06835938,0.0625,-0.03125,-1.257812,2.632812,12.60156,-0.02929688,0.06054688,-0.02148438,0.03320312,-0.09570312,0,-0.005615234,0.01586914,-0.006225586,0,0,-0.004272461,0.3105164,4.077,0,0,0,0.2999878,nan,4,10.938,1,128,0.2255859,0.2643433,0.3661804,0.3859863,-0.01171875,-0.05078125,0,1,3,0
277.073,0.001014,-0.02539062,0.09375,-0.0078125,-0.1640625,-3.210938,8.945312,-0.0390625,0.046875,-0.015625,0.03710938,-0.09765625,0,-0.006103516,0.01635742,-0.006347656,0,0,-0.004272461,0.3105164,4.077,0,0,0,0.2999878,nan,4,10.947,1,128,0.2494812,0.2511292,0.3855896,0.355896,-0.01171875,-0.05175781,0,1,3,0.3174603
277.084,0.001005,-0.02734375,-0.1542969,0.04101562,0.3046875,2.359375,12.30469,-0.00390625,-0.0546875,0.02148438,0.03710938,-0.09960938,0,-0.006225586,0.01660156,-0.006347656,0,0,-0.004272461,0.3105164,4.077,0,0,0,0.2999878,nan,4,10.958,1,128,0.3033142,0.2364197,0.4051514,0.2972412,-0.01171875,-0.05175781,0,1,3,0
277.093,0.001021,-0.1171875,0.02539062,0.00390625,-0.859375,-1.5,9.585938,-0.03710938,0.01171875,0.01171875,0.03710938,-0.09960938,0,-0.006225586,0.01672363,-0.006225586,0,0,-0.004272461,0.3105164,4.077,0,0,0,0.2999878,nan,4,10.968,1,128,0.251709,0.2514954,0.3706055,0.3682861,-0.01171875,-0.05175781,0,1,3,0.7301587
277.103,0.00103,-0.03710938,-0.05078125,0.02148438,1.320312,0.2109375,9.3125,-0.00390625,-0.02539062,0.01757812,0.03710938,-0.09960938,0,-0.006347656,0.01660156,-0.006103516,0,0,-0.004272461,0.3105164,4.077,0,0,0,0.2999878,nan,4,10.978,1,128,0.2667847,0.2513733,0.3864441,0.3374939,-0.01171875,-0.05175781,0,1,3,0.06349207
277.113,0.001016,-0.02148438,0.0546875,0.00390625,-0.890625,1.21875,9.007812,-0.02734375,0.009765625,0.01757812,0.0390625,-0.09960938,0,-0.006347656,0.01660156,-0.005981445,0,0,-0.004272461,0.3105164,4.077,0,0,0,0.2999878,nan,4,10.988,1,128,0.2514954,0.24646,0.3806763,0.3634949,-0.01171875,-0.05175781,0,1,3,0
277.123,0.000935,0.0234375,-0.08007812,0.05664062,0.96875,-1.117188,7.9375,0.0078125,0.015625,0.03515625,0.0390625,-0.09960938,0,-0.006347656,0.01660156,-0.005737305,0,0,-0.004272461,0.3105164,4.077,0,0,0,0.2999878,nan,4,10.998,1,128,0.2664185,0.2364197,0.4102173,0.329071,-0.01171875,-0.05175781,0,1,3,0
277.133,0.000982,0.1210938,0.1367188,0.046875,-1.804688,2.265625,13.60938,0.01953125,0.04101562,0.03320312,0.0390625,-0.09960938,0,-0.006469727,0.01672363,-0.005371094,0,0,-0.004272461,0.3105164,4.077,0,0,0,0.2999878,nan,4,11.008,1,128,0.2367859,0.2461853,0.4103394,0.3487549,-0.01171875,-0.05175781,0,1,3,0
277.144,0.001016,0.09375,-0.09179688,0.03320312,0.9140625,-1.171875,8.460938,0.0234375,-0.005859375,0.02734375,0.0390625,-0.1015625,0,-0.006347656,0.01696777,-0.005004883,0,0,-0.004272461,0.3105164,4.077,0,0,0,0.2999878,nan,4,11.018,1,128,0.2519531,0.2646484,0.3871765,0.3383179,-0.01171875,-0.05175781,0,1,3,0
277.154,0.00101,0.03515625,-0.08789062,0.0234375,-0.5859375,1.039062,10.39062,0.01171875,-0.005859375,0.01367188,0.0390625,-0.1015625,0,-0.006347656,0.01696777,-0.005004883,0,0,-0.004272461,0.3105164,4.077,0,0,0,0.2999878,nan,4,11.028,1,128,0.2538147,0.2594604,0.3862,0.3426514,-0.01171875,-0.05273438,0,1,3,0
277.164,0.00101,-0.03320312,-0.04492188,-0.001953125,-0.3515625,0.625,8.96875,0.005859375,-0.0234375,-0.001953125,0.0390625,-0.1015625,0,-0.006347656,0.01696777,-0.005004883,0,0,-0.004272461,0.3105164,4.077,0,0,0,0.2999878,nan,4,11.038,1,128,0.2488403,0.2694397,0.3719788,0.3518372,-0.01171875,-0.05273438,0,1,3,0
277.174,0.00101,-0.04101562,0.08203125,-0.0390625,-0.140625,-0.53125,9.296875,-0.02539062,0.07617188,-0.02929688,0.0390625,-0.1035156,0,-0.006469727,0.01708984,-0.005126953,0,0,-0.004272461,0.3105164,4.077,0,0,0,0.2999878,nan,4,11.048,1,128,0.1951294,0.2772522,0.3529663,0.416748,-0.01171875,-0.05273438,0,1,3,0
277.184,0.00101,-0.04882812,0.02734375,-0.0546875,-0.546875,0.890625,10.46875,-0.015625,0.02539062,-0.04882812,0.0390625,-0.1054688,0,-0.006591797,0.01745605,-0.005493164,0,0,-0.004272461,0.3105164,4.077,0,0,0,0.2999878,nan,4,11.058,1,128,0.2127686,0.2902832,0.3455811,0.3934631,-0.01171875,-0.05273438,0,1,3,0
277.193,0.00101,-0.1015625,0.1347656,-0.06054688,1.4375,-1.53125,8.65625,-0.03320312,0,-0.04492188,0.04101562,-0.1054688,0,-0.006835938,0.01745605,-0.005981445,0,0,-0.004272461,0.3105164,4.077,0,0,0,0.2999878,nan,4,11.068,1,128,0.2276001,0.2714844,0.3567505,0.386261,-0.01171875,-0.05273438,0,1,3,0
277.203,0.001011,0.0625,0.1503906,-0.02734375,-0.984375,1.367188,12.14844,-0.00390625,0.08789062,-0.02929688,0.04296875,-0.1054688,0,-0.007080078,0.0177002,-0.006347656,0,0,-0.004272461,0.3105164,4.077,0,0,0,0.2999878,nan,4,11.078,1,128,0.2241211,0.2425232,0.404541,0.3709412,-0.01171875,-0.05273438,0,1,3,0
277.213,0.001022,0.06835938,0.01367188,-0.0703125,0.703125,-2.5625,7.695312,0.02734375,-0.04882812,-0.05078125,0.04101562,-0.1074219,0,-0.006958008,0.01794434,-0.006713867,0,0,-0.004272461,0.3105164,4.077,0,0,0,0.2999878,nan,4,11.088,1,128,0.2106323,0.3188477,0.3319092,0.3807068,-0.01171875,-0.05273438,0,1,3,0
277.223,0.000989,-0.001953125,-0.05664062,-0.0078125,-1.25,2.585938,11.10938,0.009765625,-0.02539062,-0.02539062,0.04101562,-0.1054688,0,-0.006835938,0.0177002,-0.007202148,0,0,-0.004272461,0.3105164,4.077,0,0,0,0.2999878,nan,4,11.098,1,128,0.2703247,0.2350464,0.4052124,0.3315125,-0.01171875,-0.05273438,0,1,3,0
277.233,0.00101,-0.046875,-0.1074219,0.0390625,1.289062,-1.3125,6.765625,-0.0234375,-0.05273438,0.015625,0.04101562,-0.1054688,0,-0.006958008,0.01745605,-0.007202148,0,0,-0.004272461,0.3105164,4.077,0,0,0,0.2999878,nan,4,11.108,1,128,0.3096619,0.2119751,0.4164124,0.3040771,-0.01171875,-0.05273438,0,1,3,0
277.243,0.00101,-0.01171875,-0.01757812,0.05664062,-0.59375,2.039062,11.63281,-0.00390625,0.01171875,0.04296875,0.04101562,-0.1015625,0,-0.006958008,0.01708984,-0.006835938,0,0,-0.004272461,0.3105164,4.077,0,0,0,0.2999878,nan,4,11.118,1,128,0.2684631,0.2185059,0.4197998,0.3353271,-0.01074219,-0.05273438,0,1,3,0
277.253,0.00101,-0.09570312,0.02734375,0.0625,-0.359375,-1.179688,9.054688,-0.01757812,0.009765625,0.04492188,0.04101562,-0.1015625,0,-0.006835938,0.01708984,-0.006469727,0,0,-0.004272461,0.3105164,4.077,0,0,0,0.2999878,nan,4,11.128,1,128,0.2698975,0.2263794,0.3970032,0.3488159,-0.01074219,-0.05371094,0,1,3,0
277.264,0.00101,0.05273438,0.0078125,0.04492188,1.148438,-0.25,9.101562,-0.01367188,-0.015625,0.04296875,0.04296875,-0.1015625,0,-0.007080078,0.0168457,-0.005859375,0,0,-0.004272461,0.3105164,4.077,0,0,0,0.2999878,nan,4,11.138,1,128,0.2434998,0.255249,0.3848572,0.35849,-0.01074219,-0.05371094,0,1,3,0
277.274,0.001075,0.08984375,-0.1972656,0.0625,-1.304688,0.5,10.27344,-0.01757812,-0.02539062,0.05859375,0.04296875,-0.09765625,0,-0.007202148,0.01611328,-0.005371094,0,0,-0.004272461,0.3105164,4.077,0,0,0,0.2999878,nan,4,11.148,1,128,0.2734375,0.2234802,0.4134827,0.3316956,-0.01074219,-0.05371094,0,1,3,0
277.284,0.001035,-0.04296875,0.078125,0.0546875,1.34375,-0.5078125,11,-0.001953125,0.01171875,0.05664062,0.04296875,-0.09570312,0,-0.007202148,0.01586914,-0.004760742,0,0,-0.004272461,0.3105164,4.077,0,0,0,0.2999878,nan,4,11.158,1,128,0.2495728,0.2379456,0.401825,0.3527832,-0.01074219,-0.05371094,0,1,3,0
277.293,0.001015,0.1757812,-0.0234375,0.03125,-1.15625,0.78125,9.476562,0.009765625,0.009765625,0.03515625,0.04492188,-0.09570312,0,-0.007324219,0.01586914,-0.004394531,0,0,-0.004272461,0.3105164,4.077,0,0,0,0.2999878,nan,4,11.168,1,128,0.2232056,0.2762756,0.3752747,0.3673401,-0.01074219,-0.05371094,0,1,3,0.1428571
277.303,0.001016,0.001953125,-0.01953125,-0.001953125,0.25,-1.570312,7.140625,-0.01757812,0.01757812,0.005859375,0.04296875,-0.09570312,0,-0.007324219,0.01599121,-0.004150391,0,0,-0.004272461,0.3105164,4.077,0,0,0,0.2999878,nan,4,11.178,1,128,0.2171326,0.2798462,0.348938,0.3961792,-0.01074219,-0.05371094,0,1,3,0
277.313,0.001009,-0.08007812,0.078125,-0.02734375,-0.4296875,1.835938,9.3125,-0.04296875,0.009765625,-0.015625,0.04296875,-0.09570312,0,-0.007324219,0.01599121,-0.004272461,0,0,-0.004272461,0.3105164,4.077,0,0,0,0.2999878,nan,4,11.188,1,128,0.2255249,0.2714233,0.3439941,0.4011536,-0.01074219,-0.05371094,0,1,3,0.3492064
277.323,0.001075,-0.03710938,-0.04882812,-0.02929688,1.398438,-1.890625,8.726562,0.01367188,-0.01367188,-0.02148438,0.04296875,-0.09570312,0,-0.007202148,0.01611328,-0.004516602,0,0,-0.004272461,0.3105164,4.077,0,0,0,0.2999878,nan,4,11.198,1,128,0.237793,0.2727661,0.3681335,0.3634033,-0.01074219,-0.05371094,0,1,3,0
277.333,0.00099,0.04101562,0.08789062,-0.05664062,-1.125,-0.3125,10.92969,0.02539062,0.046875,-0.04296875,0.04296875,-0.09570312,0,-0.007202148,0.01599121,-0.004760742,0,0,-0.004272461,0.3105164,4.077,0,0,0,0.2999878,nan,4,11.208,1,128,0.1930237,0.2829285,0.3663635,0.3997803,-0.01074219,-0.05371094,0,1,3,0
277.343,0.00101,0.01953125,0.001953125,-0.0390625,-0.125,0.1640625,8.960938,-0.009765625,0.03710938,-0.05078125,0.04296875,-0.09960938,0,-0.007202148,0.01647949,-0.005371094,0,0,-0.004272461,0.3105164,4.077,0,0,0,0.2999878,nan,4,11.218,1,128,0.2333679,0.2670593,0.3707886,0.3709106,-0.01074219,-0.05371094,0,1,3,0
277.354,0.00101,-0.1347656,-0.04296875,-0.0390625,0.9609375,0.7109375,8.390625,-0.0546875,-0.07617188,-0.04492188,0.04296875,-0.09570312,0,-0.007202148,0.01599121,-0.005859375,0,0,-0.004272461,0.3105164,4.077,0,0,0,0.2999878,nan,4,11.228,1,128,0.2554932,0.2637634,0.3458252,0.3770447,-0.01074219,-0.0546875,0,1,3,0
277.364,0.00101,-0.01171875,0.1425781,-0.04101562,-1,-0.453125,10.64844,-0.02929688,0.1015625,-0.03515625,0.046875,-0.09960938,0,-0.00769043,0.01660156,-0.006225586,0,0,-0.004272461,0.3105164,4.077,0,0,0,0.2999878,nan,4,11.238,1,128,0.2251282,0.2478943,0.3874512,0.3816528,-0.01074219,-0.0546875,0,1,3,0
277.374,0.00101,0.01367188,0.00390625,-0.05664062,0.5703125,0.328125,8.796875,0.001953125,0.0390625,-0.0390625,0.04492188,-0.1035156,0,-0.007568359,0.01708984,-0.006591797,0,0,-0.004272461,0.3105164,4.077,0,0,0,0.2999878,nan,4,11.248,1,128,0.226593,0.2713928,0.3647766,0.379364,-0.01074219,-0.0546875,0,1,3,0
277.384,0.00101,-0.1308594,0.1953125,-0.05273438,-1.179688,-0.5078125,9.726562,-0.05078125,0.05273438,-0.03515625,0.046875,-0.1015625,0,-0.00769043,0.01708984,-0.006958008,0,0,-0.004272461,0.3105164,4.077,0,0,0,0.2999878,nan,4,11.258,1,128,0.2272034,0.2454834,0.3638611,0.4055786,-0.01074219,-0.0546875,0,1,3,0.7777778
277.393,0.00101,-0.00390625,-0.01367188,-0.001953125,0.9375,0.4453125,11.125,-0.01367188,0.0234375,-0.0078125,0.046875,-0.1054688,0,-0.0078125,0.0177002,-0.007202148,0,0,-0.004272461,0.3105164,4.077,0,0,0,0.2999878,nan,4,11.268,1,128,0.2650757,0.239563,0.395813,0.3416443,-0.01074219,-0.0546875,0,1,3,0
277.403,0.001008,-0.07617188,-0.02148438,0.02734375,-0.4765625,-0.1875,10.51562,0.00390625,-0.01757812,0.0234375,0.046875,-0.1074219,0,-0.00793457,0.01782227,-0.006958008,0,0,-0.004272461,0.3105164,4.077,0,0,0,0.2999878,nan,4,11.278,1,128,0.2722473,0.2417908,0.3987122,0.3293457,-0.01074219,-0.0546875,0,1,3,0
277.413,0.001011,0.109375,0.05664062,0.02929688,-1.257812,1.25,13.1875,0.0234375,0.01171875,0.02539062,0.04882812,-0.1054688,0,-0.008178711,0.0177002,-0.006835938,0,0,-0.004272461,0.3105164,4.077,0,0,0,0.2999878,nan,4,11.288,1,128,0.2399597,0.2465515,0.4105835,0.3450012,-0.01074219,-0.0546875,0,1,3,0
277.423,0.001015,0.01953125,0.06640625,0.0234375,0.7890625,-1.578125,7.984375,0.009765625,0.0390625,0.01953125,0.04882812,-0.1074219,0,-0.00793457,0.01782227,-0.006591797,0,0,-0.004272461,0.3105164,4.077,0,0,0,0.2999878,nan,4,11.298,1,128,0.2369385,0.2487793,0.3904114,0.3659973,-0.01074219,-0.0546875,0,1,3,0
277.433,0.001074,0.0390625,0.02148438,0.0078125,-0.6953125,1.695312,12,-0.01367188,-0.009765625,0.01171875,0.04882812,-0.1074219,0,-0.00793457,0.01794434,-0.006347656,0,0,-0.004272461,0.3105164,4.077,0,0,0,0.2999878,nan,4,11.308,1,128,0.2434387,0.2639771,0.3648987,0.369812,-0.009765625,-0.05566406,0,1,3,0
277.444,0.001047,-0.0078125,-0.1074219,0.05078125,0.9296875,-2.023438,9.546875,0.01171875,-0.001953125,0.04296875,0.04882812,-0.1054688,0,-0.008178711,0.0177002,-0.006103516,0,0,-0.004272461,0.3105164,4.077,0,0,0,0.2999878,nan,4,11.318,1,128,0.2776794,0.2170105,0.4269104,0.3204956,-0.009765625,-0.05566406,0,1,3,0.9365079
277.454,0.001027,0.078125,0.03125,0.0390625,-0.3515625,2.421875,13.42969,0.01953125,0.01953125,0.04101562,0.04882812,-0.1074219,0,-0.008056641,0.01794434,-0.005615234,0,0,-0.004272461,0.3105164,4.077,0,0,0,0.2999878,nan,4,11.328,1,128,0.2471008,0.2467957,0.3980103,0.3501892,-0.009765625,-0.05566406,0,1,3,0
277.464,0.001034,-0.03125,-0.0546875,0.015625,-0.546875,-1.289062,9.023438,-0.03125,-0.03515625,0.01953125,0.04882812,-0.1054688,0,-0.008178711,0.0177002,-0.005371094,0,0,-0.004272461,0.3105164,4.077,0,0,0,0.2999878,nan,4,11.338,1,128,0.2390442,0.2695312,0.3550415,0.378479,-0.009765625,-0.05566406,0,1,3,0
277.474,0.00101,-0.01367188,0.02734375,-0.01367188,0.859375,0.03125,8.34375,-0.00390625,0.01367188,0.005859375,0.04882812,-0.1074219,0,-0.008178711,0.01782227,-0.005249023,0,0,-0.004272461,0.3105164,4.077,0,0,0,0.2999878,nan,4,11.348,1,128,0.2219849,0.2705078,0.3650513,0.3845825,-0.009765625,-0.05566406,0,1,3,0
277.483,0.001036,-0.04101562,0.01367188,-0.02929688,-1.28125,1.414062,9.585938,-0.0234375,0.01757812,-0.01757812,0.04882812,-0.1074219,0,-0.008178711,0.01794434,-0.005249023,0,0,-0.004272461,0.3105164,4.077,0,0,0,0.2999878,nan,4,11.357,1,128,0.2149658,0.2783203,0.3438721,0.4049377,-0.009765625,-0.05566406,0,1,3,0.2380952
277.493,0.000979,-0.1328125,0.1425781,-0.015625,0.2421875,-2.578125,8.492188,-0.04101562,0.109375,-0.01367188,0.04882812,-0.109375,0,-0.008300781,0.01831055,-0.005493164,0,0,-0.004272461,0.3105164,4.077,0,0,0,0.2999878,nan,4,11.368,1,128,0.2290955,0.2263489,0.39151,0.3951416,-0.009765625,-0.05566406,0,1,3,0
277.503,0.001004,0.07617188,0.1757812,0.06054688,-0.59375,2.125,11.21094,0.02148438,0.1308594,0.01171875,0.05078125,-0.1132812,0,-0.008422852,0.0189209,-0.005615234,0,0,-0.004272461,0.3105164,4.077,0,0,0,0.2999878,nan,4,11.378,1,128,0.2562561,0.1966248,0.4543152,0.3349304,-0.009765625,-0.05566406,0,1,3,0
277.513,0.001004,-0.01953125,0.005859375,-0.01171875,-0.5546875,0,9.507812,0.0078125,0.01953125,-0.00390625,0.05273438,-0.1171875,0,-0.008666992,0.01953125,-0.005493164,0,0,-0.004272461,0.3095093,4.077,0,0,0,0.2988281,nan,4,11.388,1,128,0.2240295,0.27771,0.3657227,0.3706055,-0.009765625,-0.05664062,0,1,3,0.3492064
277.523,0.001026,0.001953125,-0.04492188,-0.00390625,1.351562,0.109375,9.375,-0.00390625,0.009765625,-0.009765625,0.05273438,-0.1210938,0,-0.008911133,0.0201416,-0.005493164,0,0,-0.004272461,0.3078308,4.077,0,0,0,0.296814,nan,4,11.398,1,128,0.2313538,0.2693176,0.3634949,0.367157,-0.009765625,-0.05664062,0,1,3,0.2222222
277.533,0.000927,0.02929688,-0.0078125,0.009765625,-1.515625,2.046875,10.85156,0.01171875,0.009765625,-0.01171875,0.05273438,-0.1210938,0,-0.008789062,0.02026367,-0.005615234,0,0,-0.004272461,0.3061523,4.077,0,0,0,0.2947998,nan,4,11.408,1,128,0.2377319,0.2521667,0.3769836,0.3576965,-0.009765625,-0.05664062,0,1,3,0
277.543,0.001004,-0.0390625,0.08007812,-0.001953125,0.421875,-2.367188,8.492188,-0.02148438,0.015625,-0.001953125,0.05273438,-0.1230469,0,-0.008666992,0.02038574,-0.005737305,0,0,-0.004272461,0.3044739,4.077,0,0,0,0.2927856,nan,4,11.418,1,128,0.2447815,0.230957,0.3780823,0.3640442,-0.009765625,-0.05664062,0,1,3,0
277.553,0.001015,-0.09765625,0.05078125,0.01171875,0.1015625,2.109375,10.32812,-0.02148438,0.01757812,0.0078125,0.05273438,-0.1210938,0,-0.008666992,0.02026367,-0.005615234,0,0,-0.004272461,0.3027649,4.077,0,0,0,0.2907715,nan,4,11.428,1,128,0.2423706,0.2245483,0.3826599,0.3615723,-0.009765625,-0.05664062,0,1,3,0
277.564,0.001006,-0.01171875,-0.07421875,-0.01171875,0.171875,-2.234375,7.992188,-0.0234375,-0.04882812,-0.015625,0.05273438,-0.1230469,0,-0.008789062,0.02038574,-0.005737305,0,0,-0.004272461,0.3010864,4.077,0,0,0,0.2888184,nan,4,11.438,1,128,0.2264404,0.2736206,0.3326721,0.3716431,-0.009765625,-0.05664062,0,1,3,0
277.573,0.00101,0,0.0234375,-0.01757812,0.296875,1.34375,10,0,0.009765625,-0.01953125,0.05273438,-0.1210938,0,-0.008789062,0.02026367,-0.005859375,0,0,-0.004272461,0.2995911,4.077,0,0,0,0.2869873,nan,4,11.447,1,128,0.214447,0.2488403,0.3613586,0.3736877,-0.009765625,-0.05664062,0,1,3,0.2857143
277.583,0.00101,-0.001953125,-0.0234375,-0.0234375,-1.796875,-1.375,9.835938,0.01953125,-0.02539062,-0.0234375,0.05273438,-0.1210938,0,-0.008789062,0.02001953,-0.006103516,0,0,-0.004272461,0.2978821,4.077,0,0,0,0.2849731,nan,4,11.457,1,128,0.2191467,0.2524109,0.3613892,0.3586426,-0.009765625,-0.05761719,0,1,3,0.1746032
277.593,0.00101,0.06054688,0.046875,-0.01171875,1.617188,0.53125,8.992188,0.0078125,0.00390625,-0.02539062,0.05273438,-0.1191406,0,-0.008911133,0.02001953,-0.006469727,0,0,-0.004272461,0.2962036,4.077,0,0,0,0.28302,nan,4,11.468,1,128,0.2254333,0.2319336,0.3789978,0.3484802,-0.009765625,-0.05761719,0,1,3,0
277.603,0.000994,-0.02539062,0.03515625,-0.01171875,-1.96875,0.296875,10.6875,-0.01367188,0.00390625,-0.0078125,0.05273438,-0.1191406,0,-0.008911133,0.02001953,-0.006591797,0,0,-0.004272461,0.2943726,4.077,0,0,0,0.2808228,nan,4,11.478,1,128,0.2394104,0.2181396,0.3803406,0.3395081,-0.009765625,-0.05761719,0,1,3,0
277.613,0.001004,-0.09375,-0.03515625,0.01171875,1.609375,0.1015625,7.640625,-0.01953125,-0.01171875,0.001953125,0.0546875,-0.1191406,0,-0.009033203,0.01989746,-0.006713867,0,0,-0.004272461,0.2926636,4.077,0,0,0,0.2788086,nan,4,11.488,1,128,0.2397461,0.2180786,0.372345,0.3405457,-0.008789062,-0.05761719,0,1,3,0
277.623,0.001007,0.1035156,0.2050781,0,-1.3125,0.3515625,12.33594,0.01757812,0.03710938,0.005859375,0.0546875,-0.1191406,0,-0.009155273,0.01977539,-0.006591797,0,0,-0.004272461,0.2909851,4.077,0,0,0,0.2767944,nan,4,11.498,1,128,0.2060852,0.2217407,0.3847961,0.3513489,-0.008789062,-0.05761719,0,1,3,0
277.634,0.00101,-0.05078125,-0.1289062,0.02148438,0.6640625,-1.195312,7.070312,-0.001953125,0,0.01367188,0.0546875,-0.1210938,0,-0.009033203,0.02001953,-0.006591797,0,0,-0.004272461,0.2893066,4.077,0,0,0,0.2747803,nan,4,11.508,1,128,0.2423096,0.2175903,0.367218,0.3300781,-0.008789062,-0.05761719,0,1,3,0
277.644,0.000958,0.0546875,0.05273438,0.0390625,1.117188,1.46875,10.85938,0.01171875,0.015625,0.03320312,0.0546875,-0.1210938,0,-0.009033203,0.0201416,-0.006347656,0,0,-0.004272461,0.2876282,4.077,0,0,0,0.2728271,nan,4,11.518,1,128,0.2379456,0.2017822,0.3905029,0.3202515,-0.008789062,-0.05761719,0,1,3,0
277.654,0.001011,0.01367188,-0.1777344,0.05273438,-1.398438,-1.71875,9.234375,-0.0078125,-0.078125,0.04492188,0.0546875,-0.1191406,0,-0.009155273,0.01989746,-0.005859375,0,0,-0.004272461,0.2859497,4.077,0,0,0,0.270813,nan,4,11.528,1,128,0.2606201,0.2160034,0.3710938,0.296051,-0.008789062,-0.05761719,0,1,3,0.2063492
277.664,0.001005,0.01171875,-0.02539062,0.005859375,2.117188,0.5,7.460938,-0.00390625,-0.005859375,0.03125,0.05664062,-0.1171875,0,-0.009277344,0.01953125,-0.005493164,0,0,-0.004272461,0.2842407,4.077,0,0,0,0.2687988,nan,4,11.538,1,128,0.1986389,0.2315979,0.3512573,0.3555298,-0.008789062,-0.05761719,0,1,3,0
277.674,0.000938,-0.01367188,-0.078125,-0.001953125,-0.84375,0.4375,10.39062,-0.001953125,-0.02539062,0.005859375,0.05664062,-0.1171875,0,-0.009277344,0.01953125,-0.005371094,0,0,-0.004272461,0.2825623,4.077,0,0,0,0.2667847,nan,4,11.548,1,128,0.2005005,0.2467957,0.3270264,0.355957,-0.008789062,-0.05859375,0,1,3,0
277.683,0.000988,0.02539062,0.02148438,-0.01757812,0.4765625,-2.015625,9.648438,0.015625,0.03125,-0.009765625,0.0546875,-0.1171875,0,-0.009155273,0.01965332,-0.005371094,0,0,-0.004272461,0.2810669,4.077,0,0,0,0.2650146,nan,4,11.557,1,128,0.1829529,0.2376099,0.338623,0.3650208,-0.008789062,-0.05859375,0,1,3,0.8253968
277.693,0.000942,-0.08007812,-0.03320312,-0.02148438,-0.65625,2.890625,10.59375,-0.005859375,-0.0078125,-0.01367188,0.0546875,-0.1171875,0,-0.009033203,0.01965332,-0.005493164,0,0,-0.004272461,0.2793579,4.077,0,0,0,0.2630005,nan,4,11.568,1,128,0.2041931,0.2298889,0.3314209,0.3519287,-0.008789062,-0.05859375,0,1,3,0
277.703,0.001024,-0.02734375,-0.02929688,-0.015625,-0.34375,-2.554688,9.921875,-0.015625,0.01367188,-0.01367188,0.05664062,-0.1171875,0,-0.009277344,0.01965332,-0.005615234,0,0,-0.004272461,0.2775269,4.077,0,0,0,0.2608032,nan,4,11.578,1,128,0.1998901,0.2157898,0.3509216,0.3435059,-0.008789062,-0.05859375,0,1,3,0.06349207
277.713,0.001039,0.06835938,0.04492188,0.01953125,-0.765625,3.195312,13.4375,0.01171875,0.0078125,0.0078125,0.05664062,-0.1171875,0,-0.009521484,0.01953125,-0.005737305,0,0,-0.004272461,0.2758179,4.077,0,0,0,0.2587891,nan,4,11.588,1,128,0.2245789,0.1872864,0.3898926,0.3015442,-0.008789062,-0.05859375,0,1,3,0
277.723,0.00102,0.015625,0.01953125,-0.01171875,0.9375,-1.414062,8.492188,0.00390625,0.01953125,-0.01171875,0.05664062,-0.1171875,0,-0.009399414,0.01965332,-0.005737305,0,0,-0.004272461,0.2741394,4.077,0,0,0,0.2567749,nan,4,11.598,1,128,0.1847839,0.2280884,0.328949,0.3547668,-0.008789062,-0.05859375,0,1,3,0
277.733,0.001016,0.02734375,0,-0.04101562,-0.3984375,-0.859375,9.273438,-0.01367188,-0.0078125,-0.04296875,0.05664062,-0.1191406,0,-0.009399414,0.01977539,-0.006103516,0,0,-0.004272461,0.2724609,4.077,0,0,0,0.2548218,nan,4,11.608,1,128,0.1725159,0.2478943,0.3005066,0.368927,-0.008789062,-0.05859375,0,1,3,0
277.743,0.001016,-0.078125,-0.09179688,-0.009765625,0.34375,-0.0234375,8.796875,-0.015625,0.001953125,-0.02734375,0.05664062,-0.1171875,0,-0.009399414,0.01965332,-0.006469727,0,0,-0.004272461,0.2707825,4.077,0,0,0,0.2528076,nan,4,11.618,1,128,0.213623,0.1940613,0.3495483,0.3258972,-0.008789062,-0.05859375,0,1,3,0
277.753,0.001016,-0.09570312,0.0234375,-0.00390625,0.5625,2.789062,11.38281,-0.02734375,-0.00390625,0,0.05664062,-0.1191406,0,-0.009521484,0.01977539,-0.006591797,0,0,-0.004272461,0.269104,4.077,0,0,0,0.2507935,nan,4,11.628,1,128,0.2249451,0.1863403,0.3460999,0.3190002,-0.008789062,-0.05957031,0,1,3,0
277.764,0.001016,0,0.08984375,0.01367188,-0.125,-2.335938,9.796875,0.015625,0.02734375,0.0234375,0.05859375,-0.1191406,0,-0.009643555,0.01989746,-0.006347656,0,0,-0.004272461,0.267395,4.077,0,0,0,0.2487793,nan,4,11.638,1,128,0.2083435,0.1855164,0.3665771,0.3092041,-0.008789062,-0.05957031,0,1,3,0.2222222
277.774,0.001016,0.03710938,-0.02929688,0.00390625,0.6875,-0.9921875,10.94531,0.0390625,0.01757812,0.015625,0.05664062,-0.1210938,0,-0.009521484,0.02026367,-0.006225586,0,0,-0.004272461,0.2657166,4.077,0,0,0,0.2468262,nan,4,11.648,1,128,0.18573,0.2128601,0.3408813,0.3234558,-0.008789062,-0.05957031,0,1,3,0
277.784,0.001022,-0.01367188,0.0546875,0.009765625,-0.53125,-1.320312,8.945312,0,-0.00390625,0.0078125,0.0546875,-0.1210938,0,-0.009277344,0.02026367,-0.006103516,0,0,-0.004272461,0.2640381,4.077,0,0,0,0.244812,nan,4,11.658,1,128,0.1979675,0.1983337,0.3322754,0.3275757,-0.0078125,-0.05957031,0,1,3,0
277.793,0.00101,-0.1269531,-0.09765625,0.01953125,0.6484375,-0.5625,7,-0.03710938,0.015625,0.01171875,0.0546875,-0.1230469,0,-0.009277344,0.02062988,-0.005981445,0,0,-0.004272461,0.2625122,4.077,0,0,0,0.242981,nan,4,11.668,1,128,0.2109375,0.1835938,0.3306885,0.3248901,-0.0078125,-0.05957031,0,1,3,0
277.803,0.001021,-0.04101562,0.06445312,0.04101562,-1.226562,3.429688,11.32031,0,-0.01953125,0.04492188,0.0546875,-0.1230469,0,-0.009277344,0.02038574,-0.005615234,0,0,-0.004272461,0.2606812,4.077,0,0,0,0.2407837,nan,4,11.678,1,128,0.227478,0.1655884,0.3617554,0.2878418,-0.0078125,-0.05957031,0,1,3,0
277.813,0.000996,0.046875,-0.1464844,0.0703125,1.789062,2.34375,9.804688,0.02539062,-0.02929688,0.06054688,0.05664062,-0.1230469,0,-0.009399414,0.02038574,-0.005126953,0,0,-0.004272461,0.2590027,4.077,0,0,0,0.2387695,nan,4,11.688,1,128,0.2266541,0.169281,0.3699036,0.2701111,-0.0078125,-0.05957031,0,1,3,0.1111111
277.823,0.001054,0.05664062,-0.1074219,0.0078125,-1.59375,2.8125,12.03906,0.02929688,-0.0546875,0.01367188,0.0546875,-0.1191406,0,-0.009277344,0.01977539,-0.004760742,0,0,-0.004272461,0.2572937,4.077,0,0,0,0.2368164,nan,4,11.698,1,128,0.1479492,0.2440186,0.2923279,0.3449097,-0.0078125,-0.05957031,0,1,3,0
277.833,0.001006,0.08984375,-0.00390625,0.02148438,1.28125,0.6484375,9.28125,0.04492188,-0.015625,0.00390625,0.0546875,-0.1171875,0,-0.009033203,0.01953125,-0.004638672,0,0,-0.004272461,0.2556152,4.077,0,0,0,0.2348022,nan,4,11.708,1,128,0.1704407,0.2032166,0.3306274,0.3182068,-0.0078125,-0.06054688,0,1,3,0.1428571
277.844,0.0009860001,0.01171875,-0.01367188,-0.005859375,-0.2109375,3.84375,12.875,-0.0078125,-0.005859375,0,0.05273438,-0.1152344,0,-0.008789062,0.01928711,-0.004638672,0,0,-0.004272461,0.2539368,4.077,0,0,0,0.2327881,nan,4,11.718,1,128,0.1757202,0.1947937,0.3147583,0.3304749,-0.0078125,-0.06054688,0,1,3,0
277.853,0.00101,0.00390625,0.0234375,0.01171875,1.796875,-0.6953125,7.734375,-0.01757812,-0.01367188,0.009765625,0.05273438,-0.1152344,0,-0.008911133,0.01928711,-0.004638672,0,0,-0.004272461,0.2522583,4.077,0,0,0,0.2307739,nan,4,11.728,1,128,0.1968994,0.1747437,0.3334656,0.303894,-0.0078125,-0.06054688,0,1,3,0
277.864,0.000968,0.04296875,0.08789062,-0.01757812,-0.71875,2.796875,10.10938,0,-0.001953125,-0.005859375,0.0546875,-0.1152344,0,-0.009033203,0.01904297,-0.004638672,0,0,-0.004272461,0.2505798,4.077,0,0,0,0.2288208,nan,4,11.738,1,128,0.1539001,0.2065125,0.3085022,0.3333435,-0.0078125,-0.06054688,0,1,3,0
277.874,0.00101,-0.04882812,-0.109375,-0.02539062,1.601562,-2.625,6.140625,-0.03515625,0.01953125,-0.03320312,0.0546875,-0.1171875,0,-0.009033203,0.01953125,-0.004882812,0,0,-0.004272461,0.2488708,4.077,0,0,0,0.2268066,nan,4,11.748,1,128,0.1630859,0.2080383,0.2830505,0.3413391,-0.0078125,-0.06054688,0,1,3,0
277.884,0.00101,-0.01367188,-0.06054688,-0.03515625,-1.46875,0.4453125,10.92969,0.01171875,0.005859375,-0.0390625,0.0546875,-0.1171875,0,-0.009033203,0.01953125,-0.005249023,0,0,-0.004272461,0.2471924,4.077,0,0,0,0.2247925,nan,4,11.758,1,128,0.1548462,0.2063293,0.3006592,0.3269653,-0.0078125,-0.06054688,0,1,3,0
277.894,0.00101,-0.02148438,-0.1445312,-0.02148438,1.523438,-4.234375,7.609375,-0.01171875,-0.0546875,-0.03710938,0.0546875,-0.1171875,0,-0.009033203,0.01953125,-0.005615234,0,0,-0.004272461,0.2455139,4.077,0,0,0,0.2227783,nan,4,11.769,1,128,0.1915588,0.1908875,0.3009949,0.2986145,-0.0078125,-0.06054688,0,1,3,0
277.903,0.001002,-0.078125,0.01757812,-0.02539062,-2.757812,-0.1875,12.625,-0.02148438,-0.01757812,-0.02734375,0.0546875,-0.1152344,0,-0.009033203,0.01904297,-0.005859375,0,0,-0.004272461,0.2438354,4.077,0,0,0,0.2208252,nan,4,11.778,1,128,0.1740417,0.1723328,0.3155212,0.313446,-0.0078125,-0.06054688,0,1,3,0
277.913,0.001009,0.0390625,0.01367188,-0.009765625,1.742188,-3.734375,7.796875,-0.01757812,-0.04882812,-0.015625,0.05664062,-0.1132812,0,-0.009277344,0.01879883,-0.006103516,0,0,-0.004272461,0.242157,4.077,0,0,0,0.218811,nan,4,11.788,1,128,0.1850281,0.1786194,0.3142395,0.2907104,-0.0078125,-0.06054688,0,1,3,0
277.923,0.001011,0.03125,-0.02539062,-0.01171875,-1.8125,-2.015625,8.703125,0.0078125,0.06640625,-0.01953125,0.05664062,-0.1152344,0,-0.009521484,0.01904297,-0.006347656,0,0,-0.004272461,0.240448,4.077,0,0,0,0.2167969,nan,4,11.798,1,128,0.1508179,0.1720581,0.3279419,0.3110046,-0.0078125,-0.06152344,0,1,3,0
277.933,0.00101,0.06835938,-0.015625,-0.01171875,0.9765625,-2.710938,9.414062,0.02148438,0.01367188,-0.01757812,0.05664062,-0.1152344,0,-0.009277344,0.01928711,-0.006469727,0,0,-0.004272461,0.2387695,4.077,0,0,0,0.2147827,nan,4,11.808,1,128,0.1603088,0.18573,0.3067627,0.3023376,-0.0078125,-0.06152344,0,1,3,0.1904762
277.943,0.001018,0.00390625,-0.08789062,0.01953125,-2.523438,-3.515625,10.00781,-0.01953125,-0.03710938,-0.005859375,0.05664062,-0.1171875,0,-0.009277344,0.01940918,-0.006713867,0,0,-0.004272461,0.2370911,4.077,0,0,0,0.2127686,nan,4,11.818,1,128,0.1982117,0.1594238,0.3156128,0.2751465,-0.0078125,-0.06152344,0,1,3,0
277.953,0.00101,0.03515625,-0.01171875,0.01757812,0.984375,-2.25,11.21094,0.0078125,0.00390625,0.01757812,0.05664062,-0.1171875,0,-0.009399414,0.01940918,-0.006591797,0,0,-0.004272461,0.2354126,4.077,0,0,0,0.2108154,nan,4,11.828,1,128,0.183197,0.1528625,0.329895,0.2756958,-0.0078125,-0.06152344,0,1,3,0
277.964,0.00101,-0.06835938,0.07421875,0.02929688,-0.609375,-1.210938,8.609375,-0.03710938,-0.00390625,0.02539062,0.05664062,-0.1152344,0,-0.009521484,0.01928711,-0.006347656,0,0,-0.004272461,0.2337341,4.077,0,0,0,0.2088013,nan,4,11.838,1,128,0.1782532,0.1471252,0.31427,0.2952576,-0.006835938,-0.06152344,0,1,3,0
277.974,0.00101,0.00390625,0.09179688,0.04882812,-0.71875,-0.5078125,8.171875,0.0234375,0.04882812,0.03515625,0.05664062,-0.1171875,0,-0.009521484,0.01940918,-0.005981445,0,0,-0.004272461,0.2320557,4.077,0,0,0,0.2067871,nan,4,11.848,1,128,0.1674805,0.1392212,0.3412781,0.2801514,-0.006835938,-0.06152344,0,1,3,0
277.983,0.001033,0.03125,0.04492188,0.0390625,-2.335938,-3.1875,8.859375,-0.00390625,-0.01367188,0.02734375,0.05664062,-0.1171875,0,-0.009521484,0.01940918,-0.005737305,0,0,-0.004272461,0.2305298,4.077,0,0,0,0.2050171,nan,4,11.857,1,128,0.1674805,0.1614685,0.3060913,0.2870789,-0.006835938,-0.06152344,0,1,3,0.6666667
277.993,0.001059,0.009765625,0.01953125,0.03710938,1.328125,-3.34375,9.601562,-0.015625,-0.02148438,0.03710938,0.05664062,-0.1152344,0,-0.009399414,0.01916504,-0.005371094,0,0,-0.004272461,0.2286682,4.077,0,0,0,0.2028198,nan,4,11.868,1,128,0.1744385,0.1439514,0.311676,0.2846069,-0.006835938,-0.06152344,0,1,3,0.04761905
278.003,0.001004,0.02148438,0.08007812,0.02734375,-2.273438,1.007812,9.960938,0.001953125,0.02539062,0.02929688,0.05664062,-0.1152344,0,-0.009399414,0.01904297,-0.005004883,0,0,-0.004272461,0.2269897,4.077,0,0,0,0.2008057,nan,4,11.878,1,128,0.1498718,0.1513672,0.3123474,0.2943726,-0.006835938,-0.0625,0,1,3,0.01587302
278.013,0.001043,-0.015625,-0.05078125,0.001953125,-0.9609375,-1.1875,9.203125,0.01953125,0.01171875,0.01367188,0.05664062,-0.1152344,0,-0.009277344,0.01928711,-0.004882812,0,0,-0.004272461,0.2253113,4.077,0,0,0,0.1987915,nan,4,11.888,1,128,0.1437988,0.1688538,0.2927551,0.2958374,-0.006835938,-0.0625,0,1,3,0
278.023,0.0009860001,0.078125,-0.03125,0.02539062,-0.109375,-2.609375,10.92188,-0.005859375,-0.0703125,0.01953125,0.05664062,-0.1132812,0,-0.009521484,0.01879883,-0.004760742,0,0,-0.004272461,0.2236328,4.077,0,0,0,0.1967773,nan,4,11.898,1,128,0.1707764,0.1595459,0.301239,0.2629089,-0.006835938,-0.0625,0,1,3,0
278.033,0.000997,0.01757812,0.01953125,-0.001953125,0.3046875,5.28125,9.054688,0.0078125,0.03515625,0.009765625,0.05859375,-0.1113281,0,-0.009887695,0.01855469,-0.004516602,0,0,-0.004272461,0.2219238,4.077,0,0,0,0.1948242,nan,4,11.908,1,128,0.1171265,0.1618042,0.3022156,0.3065796,-0.006835938,-0.0625,0,1,3,0
278.044,0.001076,0.02734375,0.0234375,-0.02929688,1.421875,-3.101562,8.953125,0.01171875,0.0234375,-0.02148438,0.05859375,-0.1132812,0,-0.009643555,0.0189209,-0.004638672,0,0,-0.004272461,0.2202454,4.077,0,0,0,0.1928101,nan,4,11.918,1,128,0.1106262,0.1896362,0.2586975,0.322052,-0.006835938,-0.0625,0,1,3,0.3333333
278.053,0.001016,-0.1074219,-0.1210938,-0.03125,-1.125,4.804688,9.992188,-0.04296875,-0.046875,-0.02539062,0.05859375,-0.1132812,0,-0.009643555,0.01879883,-0.004760742,0,0,-0.004272461,0.2185669,4.077,0,0,0,0.1907959,nan,4,11.928,1,128,0.1516724,0.1724243,0.2481995,0.302002,-0.006835938,-0.0625,0,1,3,0
278.064,0.001002,-0.05078125,-0.009765625,0.0078125,1.195312,-1.695312,9.21875,-0.05859375,0.00390625,0.0078125,0.06054688,-0.1113281,0,-0.01000977,0.01867676,-0.004882812,0,0,-0.004272461,0.2168884,4.077,0,0,0,0.1887817,nan,4,11.938,1,128,0.171875,0.1138306,0.308136,0.2736511,-0.006835938,-0.0625,0,1,3,0.1746032
278.074,0.000969,0.0390625,-0.09960938,-0.005859375,1.09375,3.625,12.20312,0.02148438,-0.02148438,0.01367188,0.0625,-0.1113281,0,-0.01025391,0.01867676,-0.004760742,0,0,-0.004272461,0.21521,4.077,0,0,0,0.1868286,nan,4,11.948,1,128,0.1447754,0.158783,0.2937012,0.2635193,-0.006835938,-0.0625,0,1,3,0
278.084,0.00101,0.03320312,0.005859375,-0.009765625,-0.2578125,1.125,13.48438,0.02734375,0.0390625,-0.015625,0.0625,-0.1132812,0,-0.01025391,0.01879883,-0.004760742,0,0,-0.004272461,0.213501,4.077,0,0,0,0.1848145,nan,4,11.958,1,128,0.1125183,0.1636353,0.2810974,0.296814,-0.006835938,-0.0625,0,1,3,0
278.094,0.00101,0.009765625,0.0703125,-0.04101562,-0.2578125,-2.40625,7.90625,0.03320312,0.03320312,-0.01953125,0.06054688,-0.1132812,0,-0.01000977,0.0189209,-0.004882812,0,0,-0.004272461,0.2118225,4.077,0,0,0,0.1828003,nan,4,11.968,1,128,0.1051331,0.1685181,0.2685852,0.3050842,-0.006835938,-0.06347656,0,1,3,0
278.103,0.001021,0.04492188,0.1464844,-0.015625,-1.953125,1.132812,12.48438,-0.01367188,0.046875,-0.02539062,0.06054688,-0.1152344,0,-0.01025391,0.01916504,-0.005126953,0,0,-0.004272461,0.210144,4.077,0,0,0,0.1807861,nan,4,11.978,1,128,0.1237183,0.1408081,0.2841797,0.2919006,-0.006835938,-0.06347656,0,1,3,0
278.113,0.001033,-0.01367188,-0.1054688,0,1.007812,2.578125,6.554688,-0.0390625,-0.03125,-0.015625,0.06445312,-0.1152344,0,-0.01062012,0.01928711,-0.005371094,0,0,-0.004272461,0.2084656,4.077,0,0,0,0.178772,nan,4,11.988,1,128,0.1555176,0.1396179,0.2783203,0.260376,-0.005859375,-0.06347656,0,1,3,0
278.123,0.001014,-0.0078125,-0.046875,0.04296875,1.453125,-4.039062,10.03906,-0.015625,-0.0390625,0.03125,0.06445312,-0.1152344,0,-0.01074219,0.01916504,-0.005249023,0,0,-0.004272461,0.2067871,4.077,0,0,0,0.1768188,nan,4,11.998,1,128,0.1853333,0.1048279,0.3125305,0.2243958,-0.005859375,-0.06347656,0,1,3,0
278.133,0.001011,-0.0390625,-0.04882812,0.01953125,-1.09375,3.234375,11.22656,-0.01171875,0.046875,0.02929688,0.06640625,-0.1171875,0,-0.01086426,0.01953125,-0.004882812,0,0,-0.004272461,0.2050781,4.077,0,0,0,0.1748047,nan,4,12.008,1,128,0.1292419,0.1315308,0.2815247,0.2780762,-0.005859375,-0.06347656,0,1,3,0
278.143,0.001015,0.03515625,0.1132812,-0.02929688,-0.921875,-2.914062,7.070312,0.0546875,0.04882812,-0.015625,0.06445312,-0.1191406,0,-0.01074219,0.01989746,-0.004760742,0,0,-0.004272461,0.2033997,4.077,0,0,0,0.1727905,nan,4,12.018,1,128,0.07122803,0.1828613,0.2478943,0.311615,-0.005859375,-0.06347656,0,1,3,0
278.153,0.001015,-0.0234375,-0.01367188,0.01367188,-1.867188,4.359375,11.50781,0.00390625,-0.02148438,-0.005859375,0.0625,-0.1191406,0,-0.01049805,0.01989746,-0.005004883,0,0,-0.004272461,0.2017212,4.077,0,0,0,0.1707764,nan,4,12.028,1,128,0.1520996,0.1198425,0.2832031,0.251709,-0.005859375,-0.06347656,0,1,3,0
278.164,0.001015,-0.1054688,0.0234375,0.02929688,1.84375,1.4375,13.23438,-0.04492188,-0.01757812,0.02148438,0.06445312,-0.1191406,0,-0.01074219,0.01989746,-0.004882812,0,0,-0.004272461,0.2000427,4.077,0,0,0,0.1688232,nan,4,12.038,1,128,0.17276,0.08963013,0.2960205,0.2417297,-0.005859375,-0.06445312,0,1,3,0
278.174,0.001015,0.04296875,0.03320312,-0.01171875,1.679688,-2.242188,6.96875,0.009765625,0.03125,-0.001953125,0.06445312,-0.1210938,0,-0.01074219,0.0201416,-0.004760742,0,0,-0.004272461,0.1983643,4.077,0,0,0,0.1668091,nan,4,12.048,1,128,0.09643555,0.1503296,0.2566223,0.2900391,-0.005859375,-0.06445312,0,1,3,0
278.184,0.001015,-0.08398438,-0.07617188,-0.01171875,1.617188,2.210938,12.11719,-0.02148438,-0.0234375,-0.01367188,0.0625,-0.1210938,0,-0.01062012,0.0201416,-0.005004883,0,0,-0.004272461,0.1966858,4.077,0,0,0,0.1647949,nan,4,12.058,1,128,0.1303101,0.131012,0.2493591,0.276001,-0.005859375,-0.06445312,0,1,3,0
278.194,0.001015,-0.08984375,0.04101562,-0.00390625,0.9375,1.140625,14.60938,-0.03125,0,-0.00390625,0.06445312,-0.1191406,0,-0.01086426,0.01989746,-0.005004883,0,0,-0.004272461,0.1949768,4.077,0,0,0,0.1627808,nan,4,12.068,1,128,0.1272583,0.113739,0.2706909,0.26828,-0.005859375,-0.06445312,0,1,3,0
278.203,0.001011,0.07421875,0.08984375,-0.0234375,1.835938,-3.15625,6.625,0.01171875,0.02539062,-0.015625,0.06640625,-0.1191406,0,-0.01098633,0.01989746,-0.005126953,0,0,-0.004272461,0.1932983,4.077,0,0,0,0.1608276,nan,4,12.078,1,128,0.08856201,0.1410217,0.2616272,0.2820129,-0.005859375,-0.06445312,0,1,3,0
278.213,0.001053,0.009765625,-0.03710938,-0.02929688,-0.046875,0,9.804688,0.03710938,0.005859375,-0.03125,0.0625,-0.1210938,0,-0.01049805,0.02026367,-0.005371094,0,0,-0.004272461,0.1916199,4.077,0,0,0,0.1588135,nan,4,12.088,1,128,0.0977478,0.1465759,0.245636,0.2765198,-0.005859375,-0.06445312,0,1,3,0.5555556
278.223,0.001002,0.01171875,-0.09960938,0.02734375,-0.328125,1.710938,13.46094,-0.0078125,-0.03125,0.005859375,0.0625,-0.1210938,0,-0.01049805,0.0201416,-0.005493164,0,0,-0.004272461,0.1899414,4.077,0,0,0,0.1567993,nan,4,12.098,1,128,0.1639404,0.08673096,0.2911682,0.2178955,-0.005859375,-0.06445312,0,1,3,0
278.233,0.000962,-0.09570312,0.06054688,0.02734375,3.890625,-3.34375,10.39062,-0.03125,0.01953125,0.02539062,0.06445312,-0.1210938,0,-0.01062012,0.0201416,-0.005249023,0,0,-0.004272461,0.1882629,4.077,0,0,0,0.1547852,nan,4,12.108,1,128,0.1408691,0.08166504,0.2879333,0.2425537,-0.005859375,-0.06445312,0,1,3,0
278.244,0.000999,0.0703125,-0.08984375,-0.03320312,0.0859375,-2.625,9.570312,0.04492188,0.01171875,-0.01171875,0.06445312,-0.1230469,0,-0.01074219,0.02038574,-0.005249023,0,0,-0.004272461,0.186554,4.077,0,0,0,0.152771,nan,4,12.118,1,128,0.06103516,0.1727905,0.2276001,0.2848206,-0.005859375,-0.06542969,0,1,3,0.1904762
278.254,0.001009,0.05664062,-0.06445312,0.01757812,-5.289062,0.2421875,11.625,0.0390625,-0.015625,-0.01171875,0.0625,-0.1230469,0,-0.01025391,0.02050781,-0.005371094,0,0,-0.004272461,0.1848755,4.077,0,0,0,0.1508179,nan,4,12.128,1,128,0.1201477,0.1166382,0.2627258,0.2400513,-0.005859375,-0.06542969,0,1,3,0
278.264,0.00101,0.01171875,0.09765625,0.03515625,1.007812,-1.851562,9.328125,-0.04101562,-0.02539062,0.02734375,0.06445312,-0.1191406,0,-0.01062012,0.01989746,-0.005249023,0,0,-0.004272461,0.183197,4.077,0,0,0,0.1488037,nan,4,12.138,1,128,0.1495972,0.06295776,0.2981567,0.2220764,-0.004882812,-0.06542969,0,1,3,0
278.274,0.001005,0.0625,-0.00390625,-0.00390625,0.0078125,-3.992188,6.15625,0.0078125,0.02539062,0.009765625,0.06445312,-0.1210938,0,-0.01074219,0.0201416,-0.005004883,0,0,-0.004272461,0.1815186,4.077,0,0,0,0.1467896,nan,4,12.148,1,128,0.08010864,0.1280212,0.2471008,0.270813,-0.004882812,-0.06542969,0,1,3,0
278.284,0.001005,-0.09765625,-0.07226562,-0.01953125,-6.304688,-0.0625,8.242188,-0.03515625,-0.005859375,-0.01367188,0.0625,-0.1210938,0,-0.01049805,0.02026367,-0.005126953,0,0,-0.004272461,0.1798401,4.077,0,0,0,0.1447754,nan,4,12.158,1,128,0.100647,0.1221924,0.2179565,0.2785339,-0.004882812,-0.06542969,0,1,3,0
278.293,0.001016,0.0234375,0.01171875,-0.00390625,2.15625,0.4765625,10.3125,0.01953125,-0.001953125,-0.001953125,0.06445312,-0.1191406,0,-0.01062012,0.02001953,-0.005126953,0,0,-0.004272461,0.1783142,4.077,0,0,0,0.1430054,nan,4,12.167,1,128,0.1005554,0.1074524,0.2625427,0.2427063,-0.004882812,-0.06542969,0,1,3,0
278.303,0.001016,0.03320312,0.009765625,0.005859375,-0.2265625,-2.726562,6.796875,0.03320312,0.001953125,0.001953125,0.0625,-0.1210938,0,-0.01037598,0.02001953,-0.005126953,0,0,-0.004272461,0.1764526,4.077,0,0,0,0.1408081,nan,4,12.178,1,128,0.1031494,0.1015015,0.2619324,0.2392273,-0.004882812,-0.06542969,0,1,3,0
278.313,0.001006,0.06640625,0.01757812,-0.0078125,-2.304688,-3,9.34375,-0.01953125,-0.02734375,-0.0078125,0.0625,-0.1191406,0,-0.01049805,0.01989746,-0.005249023,0,0,-0.005249023,0.1767883,4.077,0,0,0,0.1400146,nan,4,12.188,1,128,0.1708374,0.1712036,0.1776428,0.1874695,0,0,0,1,6,0.3968254
278.323,0.001013,-0.009765625,-0.04101562,-0.02539062,-4.101562,0.9453125,8.414062,0.001953125,-0.01953125,-0.01953125,0.0625,-0.1171875,0,-0.01049805,0.01965332,-0.005371094,0,0,-0.005371094,0.1784973,4.077,0,0,0,0.1400146,nan,4,12.198,1,128,0.1594849,0.1868591,0.1634216,0.2041626,0,0,0,1,6,0.0952381
278.333,0.001017,-0.02539062,-0.00390625,0.02539062,-5.101562,-0.3359375,12.22656,-0.02734375,0.02734375,0.01171875,0.0625,-0.1191406,0,-0.01049805,0.01989746,-0.005371094,0,0,-0.005371094,0.1801758,4.077,0,0,0,0.1400146,nan,4,12.208,1,128,0.2081909,0.1333923,0.2050171,0.1740417,0,0,0,1,6,0
278.343,0.00102,0.04492188,-0.015625,0.00390625,-1.101562,1.851562,12.67188,0.005859375,-0.01367188,-0.00390625,0.06445312,-0.1191406,0,-0.01074219,0.01989746,-0.005249023,0,0,-0.005249023,0.1818542,4.077,0,0,0,0.1400146,nan,4,12.218,1,128,0.1564636,0.1984863,0.168457,0.2039795,0,0,0,1,6,0
278.354,0.00102,-0.03710938,0.01953125,0.01757812,-1.34375,1.359375,10.61719,0.009765625,0.03320312,0.01367188,0.06445312,-0.1210938,0,-0.01074219,0.0201416,-0.005249023,0,0,-0.005249023,0.1835327,4.077,0,0,0,0.1400146,nan,4,12.228,1,128,0.1995239,0.1436157,0.2149658,0.1760254,0,-0.0009765625,0,1,6,0
278.364,0.00102,0.03320312,-0.015625,-0.01757812,-1.515625,-5.851562,6.429688,0.03320312,0.015625,-0.009765625,0.06445312,-0.1210938,0,-0.01074219,0.02026367,-0.005249023,0,0,-0.005249023,0.1852112,4.077,0,0,0,0.1400146,nan,4,12.238,1,128,0.1489868,0.2044373,0.1720581,0.2153625,0,-0.0009765625,0,1,6,0
278.374,0.00102,-0.06835938,-0.001953125,0.01171875,1.46875,-1.476562,12.45312,-0.03710938,-0.0234375,0.009765625,0.06445312,-0.1210938,0,-0.01074219,0.02001953,-0.005249023,0,0,-0.005249023,0.1868896,4.077,0,0,0,0.1400146,nan,4,12.248,1,128,0.2154541,0.1483459,0.1987915,0.184967,0,-0.0009765625,0,1,6,0
278.384,0.0009860001,0.05078125,0.08984375,-0.005859375,1.328125,5.773438,18.55469,0.02148438,0.04296875,-0.001953125,0.06640625,-0.1210938,0,-0.01098633,0.0201416,-0.005249023,0,0,-0.005249023,0.1885681,4.077,0,0,0,0.1400146,nan,4,12.258,1,128,0.1585693,0.1852722,0.1994324,0.2110291,0.0009765625,-0.0009765625,0,1,6,0
278.393,0.000984,0.015625,0.1269531,0.01367188,-3.320312,-1.78125,12.39844,-0.01367188,0.02734375,0.005859375,0.06640625,-0.1230469,0,-0.01098633,0.02038574,-0.005249023,0,0,-0.005249023,0.190094,4.077,0,0,0,0.1400146,nan,4,12.267,1,128,0.1961365,0.1585999,0.2097473,0.1958923,0.0009765625,-0.0009765625,0,1,6,0
278.403,0.001027,0.0390625,-0.078125,-0.0234375,0.875,-5.132812,5.742188,-0.009765625,-0.01171875,-0.009765625,0.06835938,-0.1230469,0,-0.01135254,0.02062988,-0.005249023,0,0,-0.005249023,0.1917725,4.077,0,0,0,0.1400146,nan,4,12.278,1,128,0.1695251,0.2104492,0.1709595,0.216217,0.0009765625,-0.0009765625,0,1,6,0
278.413,0.001005,-0.03320312,-0.07617188,0.01367188,0.671875,3.25,9.835938,-0.0234375,-0.05859375,0.01171875,0.06835938,-0.1230469,0,-0.01135254,0.02050781,-0.005249023,0,0,-0.005249023,0.1934509,4.077,0,0,0,0.1400146,nan,4,12.288,1,128,0.2325439,0.161438,0.2041016,0.1757507,0.0009765625,-0.0009765625,0,1,6,0
278.423,0.001002,0.08398438,-0.015625,-0.01171875,-4.21875,0,10.8125,0.06640625,0,-0.01367188,0.06835938,-0.1210938,0,-0.01123047,0.0201416,-0.005249023,0,0,-0.005249023,0.1951599,4.077,0,0,0,0.1400146,nan,4,12.298,1,128,0.1509705,0.2148132,0.1929932,0.2218018,0.0009765625,-0.0009765625,0,1,6,0
278.433,0.001008,-0.05859375,0.005859375,0.01757812,0.328125,-2.09375,7.265625,-0.02148438,0,0.009765625,0.06640625,-0.1210938,0,-0.0111084,0.0201416,-0.005249023,0,0,-0.005249023,0.1968384,4.077,0,0,0,0.1400146,nan,4,12.308,1,128,0.21698,0.1563721,0.2120056,0.2019348,0.0009765625,-0.001953125,0,1,6,0
278.443,0.00101,0.0546875,0.03125,-0.01367188,2.25,5.859375,15.33594,0.01757812,0.02539062,-0.009765625,0.06640625,-0.1210938,0,-0.0111084,0.0201416,-0.005249023,0,0,-0.005249023,0.1985168,4.077,0,0,0,0.1400146,nan,4,12.318,1,128,0.1651611,0.2018127,0.196167,0.230896,0.0009765625,-0.001953125,0,1,6,0
278.454,0.00108,0.00390625,0.005859375,-0.005859375,-1.617188,-3.398438,10.08594,-0.0078125,0,-0.009765625,0.06640625,-0.1210938,0,-0.0111084,0.02026367,-0.005371094,0,0,-0.005371094,0.2001953,4.077,0,0,0,0.1400146,nan,4,12.328,1,128,0.1957703,0.1899719,0.1968994,0.2181702,0.0009765625,-0.001953125,0,1,6,0
278.463,0.00101,-0.005859375,-0.05664062,0,1.671875,1.4375,5.171875,0.00390625,-0.009765625,-0.001953125,0.06640625,-0.1210938,0,-0.0111084,0.02026367,-0.005371094,0,0,-0.005371094,0.2018738,4.077,0,0,0,0.1400146,nan,4,12.338,1,128,0.2090759,0.1820068,0.2127686,0.2036743,0.0009765625,-0.001953125,0,1,6,0
278.474,0.00101,0.046875,0.01171875,0.0078125,-0.3828125,-3.179688,12.47656,-0.005859375,0.015625,0.0078125,0.06640625,-0.1191406,0,-0.0111084,0.02001953,-0.005371094,0,0,-0.005371094,0.2035522,4.077,0,0,0,0.1400146,nan,4,12.348,1,128,0.2006531,0.17453,0.2229004,0.2161255,0.0009765625,-0.001953125,0,1,6,0
278.484,0.00101,0.03320312,0.06640625,-0.04296875,0.046875,-4.15625,5.539062,0.03710938,0.05273438,-0.03320312,0.06640625,-0.1230469,0,-0.01098633,0.02050781,-0.005493164,0,0,-0.005493164,0.2052307,4.077,0,0,0,0.1400146,nan,4,12.358,1,128,0.1430664,0.2366638,0.1760559,0.2651978,0.0009765625,-0.001953125,0,1,6,0
278.494,0.00101,-0.009765625,-0.02734375,-0.03125,-0.6484375,6.835938,15.61719,-0.01171875,0,-0.03125,0.06640625,-0.125,0,-0.01098633,0.02075195,-0.005859375,0,0,-0.005859375,0.2069397,4.077,0,0,0,0.1400146,nan,4,12.368,1,128,0.1986084,0.2050171,0.1924744,0.2316284,0.0009765625,-0.001953125,0,1,6,0
278.504,0.00101,0.03515625,0.01757812,-0.005859375,-0.6328125,-3.4375,6.335938,0.01367188,0.009765625,-0.02148438,0.06640625,-0.125,0,-0.0111084,0.02075195,-0.006103516,0,0,-0.006103516,0.2086182,4.077,0,0,0,0.1400146,nan,4,12.379,1,128,0.2119751,0.1832275,0.2313538,0.2078857,0.0009765625,-0.002929688,0,1,6,0
278.513,0.001009,0.01757812,-0.06835938,0.01953125,2.570312,-1.945312,6.609375,-0.001953125,-0.015625,0.01367188,0.06640625,-0.125,0,-0.0111084,0.02087402,-0.006103516,0,0,-0.006103516,0.2101135,4.077,0,0,0,0.1400146,nan,4,12.388,1,128,0.2468262,0.1640015,0.2470703,0.1826172,0.0009765625,-0.002929688,0,1,6,0
278.523,0.001007,-0.0859375,-0.04296875,0.0078125,-0.6015625,8.125,13.39062,-0.03320312,-0.02539062,0.01367188,0.06640625,-0.1230469,0,-0.01123047,0.02062988,-0.005981445,0,0,-0.005981445,0.2118225,4.077,0,0,0,0.1400146,nan,4,12.398,1,128,0.219635,0.1895142,0.2090454,0.2290649,0.001953125,-0.002929688,0,1,6,0
278.533,0.001011,-0.0625,-0.00390625,-0.001953125,-1.90625,-1.984375,9.625,-0.03125,-0.001953125,-0.005859375,0.06835938,-0.1230469,0,-0.01159668,0.02050781,-0.005981445,0,0,-0.005981445,0.213501,4.077,0,0,0,0.1400146,nan,4,12.408,1,128,0.1966553,0.2072754,0.2012329,0.2488403,0.001953125,-0.002929688,0,1,6,0.3968254
278.543,0.001009,-0.046875,-0.001953125,0.04101562,1.273438,-4.515625,7.171875,-0.00390625,0.001953125,0.02539062,0.0703125,-0.1210938,0,-0.01159668,0.02038574,-0.005859375,0,0,-0.005859375,0.2151794,4.077,0,0,0,0.1400146,nan,4,12.418,1,128,0.2445068,0.1595459,0.2597046,0.1969604,0.001953125,-0.002929688,0,1,6,0
278.553,0.001009,-0.005859375,0.05859375,0.001953125,1.226562,3.007812,6.773438,0.001953125,0.03710938,0.02148438,0.0703125,-0.1230469,0,-0.01171875,0.02062988,-0.005493164,0,0,-0.005493164,0.2168579,4.077,0,0,0,0.1400146,nan,4,12.428,1,128,0.1998596,0.203125,0.2206116,0.2438354,0.001953125,-0.002929688,0,1,6,0
278.563,0.000996,-0.02734375,-0.04882812,0.0078125,-1.820312,1.375,13.34375,-0.009765625,-0.015625,0.005859375,0.0703125,-0.125,0,-0.01171875,0.02087402,-0.005493164,0,0,-0.005493164,0.2185364,4.077,0,0,0,0.1400146,nan,4,12.438,1,128,0.2181396,0.2145081,0.2059631,0.2355652,0.001953125,-0.002929688,0,1,6,0
278.574,0.001001,-0.0234375,0.05859375,-0.0078125,-0.484375,-2.25,8.570312,-0.005859375,0.03125,0.001953125,0.0703125,-0.125,0,-0.01171875,0.02087402,-0.005371094,0,0,-0.005371094,0.2202148,4.077,0,0,0,0.1400146,nan,4,12.448,1,128,0.198822,0.2059631,0.2201538,0.2559509,0.001953125,-0.002929688,0,1,6,0
278.584,0.001001,-0.05078125,-0.05664062,-0.03320312,0.953125,-2.804688,2.46875,-0.02148438,0.01171875,-0.015625,0.0703125,-0.1269531,0,-0.01159668,0.02124023,-0.005493164,0,0,-0.005493164,0.2218933,4.077,0,0,0,0.1400146,nan,4,12.458,1,128,0.1989136,0.2297668,0.1903687,0.2685852,0.001953125,-0.00390625,0,1,6,0
278.594,0.001001,-0.01953125,-0.03320312,-0.02539062,1.507812,2.375,10.83594,-0.001953125,0,-0.03125,0.0703125,-0.1269531,0,-0.01171875,0.02111816,-0.005737305,0,0,-0.005737305,0.2236023,4.077,0,0,0,0.1400146,nan,4,12.468,1,128,0.2026672,0.2225342,0.2133179,0.2558594,0.001953125,-0.00390625,0,1,6,0
278.604,0.001001,0.01171875,0.005859375,-0.02929688,-1.304688,3.28125,15.67188,-0.005859375,-0.0078125,-0.02539062,0.0703125,-0.1269531,0,-0.01184082,0.02099609,-0.005981445,0,0,-0.005981445,0.2252808,4.077,0,0,0,0.1400146,nan,4,12.479,1,128,0.213562,0.2145691,0.2241821,0.2488098,0.001953125,-0.00390625,0,1,6,0
278.614,0.001009,-0.01953125,-0.001953125,-0.0078125,-0.7890625,-5.992188,9.382812,-0.015625,-0.015625,-0.0234375,0.0703125,-0.1269531,0,-0.01184082,0.02087402,-0.006225586,0,0,-0.005981445,0,4.077,0,0,0,0.1400146,nan,4,12.489,0,0,0,0,0,0,0,0,0,1,6,0
278.623,0.001008,-0.04296875,-0.05078125,0.03320312,1.804688,6.632812,10.34375,-0.03125,-0.03320312,0.01953125,0.0703125,-0.1269531,0,-0.01208496,0.02062988,-0.006225586,0,0,-0.005981445,0,4.077,0,0,0,0.1400146,nan,4,12.498,0,0,0,0,0,0,0,0,0,1,6,0
278.633,0.00097,0.0390625,0.04492188,-0.0078125,2.835938,-1.445312,7.40625,0.02734375,0.04492188,0.009765625,0.0703125,-0.1269531,0,-0.01208496,0.02075195,-0.006103516,0,0,-0.005981445,0,4.077,0,0,0,0.1400146,nan,4,12.508,0,0,0,0,0,0,0,0,0,1,6,0
278.643,0.000963,-0.0625,-0.015625,0.01953125,1.34375,0.2265625,9.296875,-0.01171875,-0.009765625,0.015625,0.0703125,-0.1269531,0,-0.01196289,0.02087402,-0.005981445,0,0,-0.005981445,0,4.077,0,0,0,0.1400146,nan,4,12.518,0,0,0,0,0,0,0,0,0,1,6,1
278.653,0.001008,0.02734375,-0.02148438,-0.01953125,0.9765625,1.203125,14.1875,0.001953125,0.001953125,-0.001953125,0.0703125,-0.1269531,0,-0.01208496,0.02087402,-0.005859375,0,0,-0.005981445,0,4.077,0,0,0,0.1400146,nan,4,12.528,0,0,0,0,0,0,0,0,0,1,6,0
278.663,0.001008,-0.01757812,-0.04296875,-0.00390625,-2.695312,-1.804688,5.46875,0.0234375,0.01757812,-0.005859375,0.0703125,-0.1269531,0,-0.01171875,0.02099609,-0.005859375,0,0,-0.005981445,0,4.077,0,0,0,0.1400146,nan,4,12.538,0,0,0,0,0,0,0,0,0,1,6,0
278.673,0.001008,-0.01367188,0.0234375,0.0078125,1.421875,-2.375,6.742188,-0.04101562,-0.005859375,0.001953125,0.0703125,-0.1269531,0,-0.01196289,0.02099609,-0.005859375,0,0,-0.005981445,0,4.077,0,0,0,0.1400146,nan,4,12.548,0,0,0,0,0,0,0,0,0,1,6,0
278.684,0.001008,0.01171875,0.03125,-0.03320312,-3.429688,1.929688,9.1875,0.01757812,0.001953125,-0.01953125,0.0703125,-0.1269531,0,-0.01196289,0.02099609,-0.005981445,0,0,-0.005981445,0,4.077,0,0,0,0.1400146,nan,4,12.558,0,0,0,0,0,0,0,0,0,1,6,1
278.694,0.000996,0.046875,0,-0.03515625,-0.9140625,2.539062,15.61719,0.015625,0.005859375,-0.03320312,0.0703125,-0.1269531,0,-0.01196289,0.02099609,-0.006225586,0,0,-0.005981445,0,4.077,0,0,0,0.1400146,nan,4,12.568,0,0,0,0,0,0,0,0,0,1,6,0
278.704,0.001008,-0.03710938,0.015625,-0.03710938,1.796875,-2.203125,7.015625,0.005859375,-0.00390625,-0.0390625,0.0703125,-0.1269531,0,-0.01184082,0.02087402,-0.006591797,0,0,-0.005981445,0,4.077,0,0,0,0.1400146,nan,4,12.578,0,0,0,0,0,0,0,0,0,1,6,0
278.714,0.001013,0.06835938,0.0625,-0.02148438,0.6015625,-0.1328125,14.99219,0.0078125,0.02539062,-0.02734375,0.0703125,-0.1269531,0,-0.01196289,0.02087402,-0.006958008,0,0,-0.005981445,0,4.077,0,0,0,0.1400146,nan,4,12.589,0,0,0,0,0,0,0,0,0,1,6,0
278.724,0.001009,-0.02929688,-0.03515625,0,-2.109375,0.703125,12.35156,-0.009765625,-0.0078125,-0.01171875,0.0703125,-0.1269531,0,-0.01171875,0.02099609,-0.007080078,0,0,-0.005981445,0,4.077,0,0,0,0.1400146,nan,4,12.599,0,0,0,0,0,0,0,0,0,1,6,0
278.733,0.000997,0.03125,-0.015625,-0.01367188,-0.40625,-1.476562,4.625,0,-0.009765625,-0.0078125,0.0703125,-0.1269531,0,-0.01184082,0.02087402,-0.007202148,0,0,-0.005981445,0,4.077,0,0,0,0.1400146,nan,4,12.608,0,0,0,0,0,0,0,0,0,1,6,0
278.743,0.00102,-0.02148438,-0.0234375,-0.001953125,-0.28125,2.429688,7.914062,-0.01757812,-0.01171875,-0.005859375,0.0703125,-0.1269531,0,-0.01184082,0.02087402,-0.007324219,0,0,-0.005981445,0,4.077,0,0,0,0.1400146,nan,4,12.618,0,0,0,0,0,0,0,0,0,1,6,0
278.753,0.00101,-0.005859375,-0.04882812,-0.02539062,0.9609375,0.1875,11.23438,0.009765625,-0.009765625,-0.015625,0.0703125,-0.1269531,0,-0.01184082,0.02075195,-0.007324219,0,0,-0.005981445,0,4.077,0,0,0,0.1400146,nan,4,12.628,0,0,0,0,0,0,0,0,0,1,6,0
278.763,0.000999,0.0234375,0.03320312,-0.005859375,-0.9140625,0.65625,9.15625,0.01953125,0.009765625,-0.009765625,0.0703125,-0.1269531,0,-0.01171875,0.02062988,-0.007446289,0,0,-0.005981445,0,4.077,0,0,0,0.1400146,nan,4,12.638,0,0,0,0,0,0,0,0,0,1,6,1
278.773,0.000994,-0.03515625,0.01171875,0.005859375,0.203125,-0.2734375,8.546875,-0.01953125,-0.00390625,0,0.0703125,-0.1269531,0,-0.01159668,0.02062988,-0.007568359,0,0,-0.005981445,0,4.077,0,0,0,0.1400146,nan,4,12.648,0,0,0,0,0,0,0,0,0,1,6,0
278.784,0.001009,-0.04492188,0.01367188,-0.01367188,0.2578125,-0.6640625,9.8125,-0.01757812,-0.0078125,-0.009765625,0.0703125,-0.1269531,0,-0.01171875,0.02050781,-0.007568359,0,0,-0.005981445,0,4.077,0,0,0,0.1400146,nan,4,12.658,0,0,0,0,0,0,0,0,0,1,6,1
278.794,0.001006,0.02929688,-0.01953125,0.005859375,-0.015625,0.59375,11.51562,0.02734375,0.01953125,-0.00390625,0.0703125,-0.1269531,0,-0.01171875,0.02050781,-0.00769043,0,0,-0.005981445,0,4.077,0,0,0,0.1400146,nan,4,12.668,0,0,0,0,0,0,0,0,0,1,6,0
278.804,0.001021,0.04882812,-0.01757812,0.01953125,-0.0625,0.140625,8.1875,0.02148438,-0.01171875,0.005859375,0.0703125,-0.1269531,0,-0.01171875,0.02050781,-0.00769043,0,0,-0.005981445,0,4.077,0,0,0,0.1400146,nan,4,12.679,0,0,0,0,0,0,0,0,0,1,6,0
278.814,0.001001,0.04296875,0.01367188,0.015625,-0.2265625,2.929688,10.6875,-0.00390625,0.015625,0.01757812,0.0703125,-0.1269531,0,-0.01171875,0.02062988,-0.007446289,0,0,-0.005981445,0,4.077,0,0,0,0.1400146,nan,4,12.689,0,0,0,0,0,0,0,0,0,1,6,0
278.823,0.001002,-0.1054688,0.0078125,0.001953125,-0.7734375,2.90625,8.078125,-0.0078125,0.00390625,0.005859375,0.0703125,-0.1269531,0,-0.01147461,0.02062988,-0.007446289,0,0,-0.005981445,0,4.077,0,0,0,0.1400146,nan,4,12.698,0,0,0,0,0,0,0,0,0,1,6,0
278.833,0.001013,0.001953125,-0.02539062,0.01757812,0.421875,-2.96875,7.476562,-0.00390625,-0.02734375,0.009765625,0.0703125,-0.1269531,0,-0.01147461,0.02050781,-0.007324219,0,0,-0.005981445,0,4.077,0,0,0,0.1400146,nan,4,12.708,0,0,0,0,0,0,0,0,0,1,6,0
278.843,0.001002,0.03125,0.001953125,0.0234375,-0.0625,-0.59375,17.0625,-0.001953125,0.00390625,0.0234375,0.0703125,-0.1269531,0,-0.01171875,0.02038574,-0.007080078,0,0,-0.005981445,0,4.077,0,0,0,0.1400146,nan,4,12.718,0,0,0,0,0,0,0,0,0,1,6,0
278.853,0.001016,0.02148438,0.01953125,0.01171875,-0.4453125,-0.2109375,13.57031,0.01757812,-0.001953125,0.0234375,0.0703125,-0.1269531,0,-0.01159668,0.02038574,-0.006835938,0,0,-0.005981445,0,4.077,0,0,0,0.1400146,nan,4,12.728,0,0,0,0,0,0,0,0,0,1,6,0
278.863,0.001015,0.02734375,0.001953125,-0.01367188,1.203125,0.6328125,10.5625,0.01367188,0.00390625,0.001953125,0.0703125,-0.1269531,0,-0.01159668,0.02038574,-0.006713867,0,0,-0.005981445,0,4.077,0,0,0,0.1400146,nan,4,12.738,0,0,0,0,0,0,0,0,0,1,6,1
278.874,0.001028,0.05078125,-0.03515625,-0.01171875,-0.71875,-2.476562,11.625,0.009765625,0,-0.0078125,0.0703125,-0.1269531,0,-0.01147461,0.02050781,-0.006835938,0,0,-0.005981445,0,4.077,0,0,0,0.1400146,nan,4,12.748,0,0,0,0,0,0,0,0,0,1,6,0
278.884,0.001012,0.005859375,0.02929688,-0.02734375,-0.15625,-1.195312,8.695312,-0.0078125,0.00390625,-0.015625,0.0703125,-0.1269531,0,-0.01135254,0.02038574,-0.006835938,0,0,-0.005981445,0,4.077,0,0,0,0.1400146,nan,4,12.758,0,0,0,0,0,0,0,0,0,1,6,0
278.894,0.001016,-0.07226562,-0.08203125,0,-2.078125,0.0859375,10,-0.01953125,-0.02148438,-0.01953125,0.0703125,-0.1269531,0,-0.01135254,0.02038574,-0.007080078,0,0,-0.005981445,0,4.077,0,0,0,0.1400146,nan,4,12.768,0,0,0,0,0,0,0,0,0,1,6,1
278.904,0.001035,0.0390625,0.0234375,-0.0078125,2.851562,1.695312,11.89844,0.0078125,0.00390625,-0.001953125,0.0703125,-0.1269531,0,-0.01147461,0.02038574,-0.007202148,0,0,-0.005981445,0,4.077,0,0,0,0.1400146,nan,4,12.779,0,0,0,0,0,0,0,0,0,1,6,0
278.913,0.001031,-0.06835938,-0.0859375,0.0078125,3.171875,1.726562,7.414062,-0.0078125,-0.02539062,0.009765625,0.0703125,-0.1269531,0,-0.01147461,0.02026367,-0.007080078,0,0,-0.005981445,0,4.077,0,0,0,0.1400146,nan,4,12.788,0,0,0,0,0,0,0,0,0,1,6,0
278.923,0.001021,-0.01953125,-0.04296875,-0.00390625,0.828125,-2.15625,10.94531,0.005859375,0.00390625,0.001953125,0.0703125,-0.1269531,0,-0.01147461,0.02026367,-0.007080078,0,0,-0.005981445,0,4.077,0,0,0,0.1400146,nan,4,12.798,0,0,0,0,0,0,0,0,0,1,6,0
278.933,0.001019,0.01171875,0.04492188,0.005859375,-1.539062,-4.515625,9.445312,0.01757812,0.015625,0,0.0703125,-0.1269531,0,-0.01147461,0.02026367,-0.007080078,0,0,-0.005981445,0,4.077,0,0,0,0.1400146,nan,4,12.808,0,0,0,0,0,0,0,0,0,1,6,1
278.943,0.001003,-0.0703125,-0.03710938,-0.001953125,-1.273438,-3.296875,9.257812,0.00390625,-0.005859375,0.0078125,0.0703125,-0.1269531,0,-0.01135254,0.02038574,-0.006958008,0,0,-0.005981445,0,4.077,0,0,0,0.1400146,nan,4,12.818,0,0,0,0,0,0,0,0,0,1,6,1
278.953,0.000996,0.0234375,0.07226562,-0.009765625,-1.617188,-0.828125,11.50781,0.001953125,0.015625,-0.01953125,0.0703125,-0.1269531,0,-0.01147461,0.02038574,-0.007080078,0,0,-0.005981445,0,4.077,0,0,0,0,nan,4,0,0,0,0,0,0,0,0,0,0,1,6,0
278.963,0.001012,-0.00390625,0.01953125,0.03710938,-2.335938,-0.765625,11.94531,0.01757812,0.005859375,0.01367188,0.0703125,-0.1269531,0,-0.01135254,0.02038574,-0.007202148,0,0,-0.005981445,0,4.077,0,0,0,0,nan,4,0.01,0,0,0,0,0,0,0,0,0,1,6,0
278.974,0.000985,-0.02929688,-0.01953125,-0.02539062,1.359375,0.078125,7.96875,0.001953125,0.0078125,0.00390625,0.0703125,-0.1269531,0,-0.01123047,0.02038574,-0.007080078,0,0,-0.005981445,0,4.077,0,0,0,0,nan,4,0.02,0,0,0,0,0,0,0,0,0,1,6,0
278.984,0.001012,0.02734375,-0.04101562,-0.005859375,1,3.039062,9.492188,0.01171875,-0.00390625,0,0.0703125,-0.1269531,0,-0.01147461,0.02038574,-0.006958008,0,0,-0.005981445,0,4.077,0,0,0,0,nan,4,0.03,0,0,0,0,0,0,0,0,0,1,6,1
278.993,0.001025,-0.08203125,0.00390625,0.005859375,-1.296875,-1.265625,10.30469,-0.0078125,-0.001953125,-0.001953125,0.0703125,-0.1269531,0,-0.01135254,0.02038574,-0.007080078,0,0,-0.005981445,0,4.077,0,0,0,0,nan,4,0.003,0,0,0,0,0,0,0,0,0,1,6,1
279.003,0.000915,0.0625,-0.005859375,-0.01171875,2.4375,0.859375,9.71875,0.005859375,0.001953125,0.005859375,nan,nan,nan,-0.01135254,0.02038574,-0.006958008,0,0,-0.006958008,0,4.077,0,0,0,0,nan,2,0.013,0,0,0,0,0,0,0,0,0,1,2,1
279.013,0.001004,-0.04101562,0.001953125,-0.03125,-0.4296875,-0.2734375,9.40625,0.001953125,-0.001953125,-0.015625,nan,nan,nan,-0.01123047,0.02026367,-0.006958008,0,0,-0.006958008,0,4.077,0,0,0,0,nan,2,0.023,0,0,0,0,0,0,0,0,0,1,2,1
279.023,0.001003,0.02539062,0.046875,0.01757812,-1.4375,-1.554688,10.9375,-0.005859375,0.00390625,-0.005859375,nan,nan,nan,-0.01123047,0.0201416,-0.007080078,0,0,-0.007080078,0,4.077,0,0,0,0,nan,2,0.033,0,0,0,0,0,0,0,0,0,1,2,0
279.033,0.000998,0.05273438,0.009765625,0.005859375,-0.0546875,-1.3125,10.23438,0.009765625,0.009765625,0.00390625,nan,nan,nan,-0.0111084,0.0201416,-0.007080078,0,0,-0.007080078,0,4.077,0,0,0,0,nan,2,0.043,0,0,0,0,0,0,0,0,0,1,2,1
279.043,0.000999,0.02539062,-0.03710938,-0.02148438,1.625,0.078125,9.335938,0,-0.01171875,-0.00390625,nan,nan,nan,-0.01098633,0.02001953,-0.007080078,0,0,-0.007080078,0,4.077,0,0,0,0,nan,2,0.054,0,0,0,0,0,0,0,0,0,1,2,1
279.053,0.001015,-0.01171875,-0.0390625,-0.009765625,1.34375,-0.0078125,9.085938,0.001953125,-0.001953125,-0.001953125,nan,nan,nan,-0.01098633,0.02001953,-0.007202148,0,0,-0.007202148,0,4.077,0,0,0,0,nan,2,0.064,0,0,0,0,0,0,0,0,0,1,2,1
279.063,0.001003,0.01367188,-0.01171875,0.01757812,-0.2734375,-0.109375,10,0.00390625,0.001953125,0.009765625,nan,nan,nan,-0.01086426,0.01989746,-0.007080078,0,0,-0.007080078,0,4.077,0,0,0,0,nan,2,0.074,0,0,0,0,0,0,0,0,0,1,2,1
279.073,0.000988,0.02734375,-0.009765625,0.005859375,0.03125,-1,9.578125,0.00390625,0.009765625,0,nan,nan,nan,-0.01086426,0.01989746,-0.007080078,0,0,-0.007080078,0,4.077,0,0,0,0,nan,2,0.084,0,0,0,0,0,0,0,0,0,1,2,1
279.084,0.001002,-0.009765625,0.01367188,0.005859375,-1.015625,-1.226562,10.86719,-0.001953125,0.001953125,0.001953125,nan,nan,nan,-0.01074219,0.01977539,-0.007080078,0,0,-0.007080078,0,4.077,0,0,0,0,nan,2,0.094,0,0,0,0,0,0,0,0,0,1,2,0
279.094,0.000989,0.03515625,0.07226562,0,-1.320312,-0.0625,11.07031,-0.001953125,0.01171875,-0.00390625,nan,nan,nan,-0.01074219,0.01977539,-0.007080078,0,0,-0.007080078,0,4.077,0,0,0,0,nan,2,0.104,0,0,0,0,0,0,0,0,0,1,2,0
279.104,0.001001,0.009765625,-0.0234375,-0.01367188,0.65625,0.0546875,8.820312,0.0078125,0,0.001953125,nan,nan,nan,-0.01062012,0.01965332,-0.007080078,0,0,-0.007080078,0,4.077,0,0,0,0,nan,2,0.114,0,0,0,0,0,0,0,0,0,1,2,1
279.114,0.001022,0.001953125,-0.03710938,0.0078125,0.03125,-0.109375,8.46875,0,0.00390625,-0.001953125,nan,nan,nan,-0.01062012,0.01965332,-0.007202148,0,0,-0.007202148,0,4.077,0,0,0,0,nan,2,0.124,0,0,0,0,0,0,0,0,0,1,2,0
279.123,0.00099,0.04101562,0.05859375,-0.01367188,-0.5234375,-0.2578125,11.33594,0.005859375,0.009765625,0.00390625,nan,nan,nan,-0.01062012,0.01965332,-0.007080078,0,0,-0.007080078,0,4.077,0,0,0,0,nan,2,0.133,0,0,0,0,0,0,0,0,0,1,2,0
279.133,0.001,0.00390625,0.08789062,-0.02539062,-0.609375,-0.03125,11.82812,-0.001953125,0.015625,-0.0078125,nan,nan,nan,-0.01062012,0.01953125,-0.007080078,0,0,-0.007080078,0,4.077,0,0,0,0,nan,2,0.007,0,0,0,0,0,0,0,0,0,1,2,0
279.144,0.001045,-0.001953125,0.04296875,0.01367188,-0.65625,-0.0703125,10.84375,-0.005859375,0,-0.001953125,nan,nan,nan,-0.01049805,0.01953125,-0.007080078,0,0,-0.007080078,0,4.077,0,0,0,0,nan,2,0.017,0,0,0,0,0,0,0,0,0,1,2,0
279.153,0.001021,0.015625,-0.04492188,0.005859375,0.1328125,-0.234375,8.96875,0,-0.01171875,0,nan,nan,nan,-0.01049805,0.01940918,-0.007080078,0,0,-0.007080078,0,4.077,0,0,0,0,nan,2,0.026,0,0,0,0,0,0,0,0,0,1,2,1
279.163,0.001038,0.0078125,0.001953125,-0.0234375,0.1015625,-0.1484375,10.23438,0.001953125,0.001953125,-0.00390625,nan,nan,nan,-0.01037598,0.01940918,-0.007080078,0,0,-0.007080078,0,4.077,0,0,0,0,nan,2,0.037,0,0,0,0,0,0,0,0,0,1,2,1
279.173,0.001011,-0.01953125,0.01367188,-0.01367188,0.3828125,-0.1640625,9.398438,0,-0.001953125,0,nan,nan,nan,-0.01037598,0.01928711,-0.007080078,0,0,-0.007080078,0,4.077,0,0,0,0,nan,2,0.047,0,0,0,0,0,0,0,0,0,1,2,1
279.184,0.001011,0.0078125,0.005859375,-0.015625,0.0546875,0.1875,9.984375,0.001953125,0.001953125,0,nan,nan,nan,-0.01025391,0.01916504,-0.007080078,0,0,-0.007080078,0,4.077,0,0,0,0,nan,2,0.058,0,0,0,0,0,0,0,0,0,1,2,1
279.194,0.001011,-0.01367188,-0.001953125,-0.001953125,0.171875,-0.046875,9.234375,0,-0.001953125,-0.001953125,nan,nan,nan,-0.01013184,0.01916504,-0.007080078,0,0,-0.007080078,0,4.077,0,0,0,0,nan,2,0.068,0,0,0,0,0,0,0,0,0,1,2,1
279.204,0.001012,0.001953125,0.005859375,-0.01367188,-0.03125,0.0546875,10.86719,0,0,-0.001953125,nan,nan,nan,-0.01013184,0.01904297,-0.007080078,0,0,-0.007080078,0,4.077,0,0,0,0,nan,2,0.078,0,0,0,0,0,0,0,0,0,1,2,0
279.214,0.001011,0.01367188,0,0.0078125,-0.4375,-0.0234375,10.46094,0,-0.001953125,0.009765625,nan,nan,nan,-0.01000977,0.01904297,-0.007080078,0,0,-0.007080078,0,4.077,0,0,0,0,nan,2,0.088,0,0,0,0,0,0,0,0,0,1,2,1
279.223,0.001014,0.01171875,0.00390625,-0.00390625,-0.0078125,0.3828125,9.882812,-0.001953125,0.00390625,-0.0078125,nan,nan,nan,-0.01000977,0.01904297,-0.007080078,0,0,-0.007080078,0,4.077,0,0,0,0,nan,2,0.097,0,0,0,0,0,0,0,0,0,1,2,1
279.233,0.00101,0.009765625,0.00390625,-0.01953125,-0.0546875,-0.0390625,8.671875,0.00390625,0.001953125,-0.005859375,nan,nan,nan,-0.01000977,0.0189209,-0.007080078,0,0,-0.007080078,0,4.077,0,0,0,0,nan,2,0.107,0,0,0,0,0,0,0,0,0,1,2,0
279.243,0.00098,-0.00390625,-0.005859375,0.0078125,-0.2265625,-0.078125,8.703125,-0.001953125,0,0.005859375,nan,nan,nan,-0.01000977,0.0189209,-0.007080078,0,0,-0.007080078,0,4.077,0,0,0,0,nan,2,0.117,0,0,0,0,0,0,0,0,0,1,2,0
279.253,0.001004,-0.001953125,-0.00390625,-0.01171875,0.0625,0.0234375,9.554688,0,0.001953125,-0.0078125,nan,nan,nan,-0.009887695,0.01879883,-0.007080078,0,0,-0.007080078,0,4.077,0,0,0,0,nan,2,0.127,0,0,0,0,0,0,0,0,0,1,2,1
279.263,0.001003,0.005859375,-0.00390625,-0.00390625,-0.2890625,0.015625,10.23438,0.001953125,-0.00390625,0.001953125,nan,nan,nan,-0.009887695,0.01867676,-0.007080078,0,0,-0.007080078,0,4.077,0,0,0,0,nan,2,0.137,0,0,0,0,0,0,0,0,0,1,2,1
279.273,0.00095,-0.009765625,0.009765625,0.005859375,0.015625,0.21875,10.25781,-0.0078125,0.00390625,0.001953125,nan,nan,nan,-0.009765625,0.01867676,-0.007080078,0,0,-0.007080078,0,4.077,0,0,0,0,nan,2,0.147,0,0,0,0,0,0,0,0,0,1,2,1
279.284,0.001003,0,-0.00390625,0.005859375,-0.125,-0.0546875,9.6875,0.001953125,-0.00390625,0,nan,nan,nan,-0.009643555,0.01855469,-0.007080078,0,0,-0.007080078,0,4.077,0,0,0,0,nan,2,0.158,0,0,0,0,0,0,0,0,0,1,2,1
279.294,0.001004,-0.00390625,0.001953125,-0.005859375,-0.015625,0.09375,9.671875,-0.001953125,0,-0.00390625,nan,nan,nan,-0.009643555,0.01855469,-0.007080078,0,0,-0.007080078,0,4.077,0,0,0,0,nan,2,0.168,0,0,0,0,0,0,0,0,0,1,2,1
279.304,0.001019,0.00390625,0.001953125,0.00390625,-0.0390625,0.015625,9.804688,0.001953125,0,0.00390625,nan,nan,nan,-0.009521484,0.01843262,-0.007080078,0,0,-0.007080078,0,4.077,0,0,0,0,nan,2,0.178,0,0,0,0,0,0,0,0,0,1,2,1
279.313,0.001019,-0.0078125,-0.005859375,-0.00390625,-0.09375,0.046875,9.851562,-0.001953125,-0.00390625,-0.001953125,nan,nan,nan,-0.009521484,0.01843262,-0.007080078,0,0,-0.007080078,0,4.077,0,0,0,0,nan,2,0.187,0,0,0,0,0,0,0,0,0,1,2,1
279.323,0.001018,0.005859375,0.0078125,0.001953125,-0.046875,0.1015625,9.945312,0.001953125,0.001953125,0,nan,nan,nan,-0.009399414,0.01831055,-0.007080078,0,0,-0.007080078,0,4.077,0,0,0,0,nan,2,0.197,0,0,0,0,0,0,0,0,0,1,2,1
279.333,0.001003,-0.00390625,-0.0078125,0,-0.1015625,0.015625,9.875,0,-0.00390625,0.001953125,nan,nan,nan,-0.009277344,0.01818848,-0.007080078,0,0,-0.007080078,0,4.077,0,0,0,0,nan,2,0.207,0,0,0,0,0,0,0,0,0,1,2,1
279.343,0.001009,0.001953125,0.0078125,-0.001953125,0.015625,0.0859375,9.8125,0,0.001953125,0,nan,nan,nan,-0.009277344,0.01818848,-0.007080078,0,0,-0.007080078,0,4.077,0,0,0,0,nan,2,0.217,0,0,0,0,0,0,0,0,0,1,2,1
279.353,0.001017,-0.005859375,-0.00390625,-0.001953125,-0.0859375,0.046875,9.789062,0,-0.001953125,0,nan,nan,nan,-0.009155273,0.01806641,-0.007080078,0,0,-0.007080078,0,4.077,0,0,0,0,nan,2,0.227,0,0,0,0,0,0,0,0,0,1,2,1
279.363,0.001021,0,0.001953125,0.001953125,0.0078125,0.046875,9.851562,0,0,0,nan,nan,nan,-0.009155273,0.01806641,-0.007080078,0,0,-0.007080078,0,4.077,0,0,0,0,nan,2,0.237,0,0,0,0,0,0,0,0,0,1,2,1
279.373,0.001017,-0.00390625,0.001953125,0.00390625,-0.109375,0.03125,9.835938,0,0.001953125,0.00390625,nan,nan,nan,-0.009033203,0.01794434,-0.007080078,0,0,-0.007080078,0,4.077,0,0,0,0,nan,2,0.247,0,0,0,0,0,0,0,0,0,1,2,1
279.384,0.001078,0,-0.001953125,0,-0.015625,0.0859375,9.828125,0,0,0,nan,nan,nan,-0.008911133,0.01794434,-0.007080078,0,0,-0.007080078,0,4.077,0,0,0,0,nan,2,0.258,0,0,0,0,0,0,0,0,0,1,2,1
279.393,0.001097,0,0,0,-0.078125,0.015625,9.96875,0,-0.001953125,0,nan,nan,nan,-0.008911133,0.01782227,-0.007080078,0,0,-0.007080078,0,4.077,0,0,0,0,nan,2,0.267,0,0,0,0,0,0,0,0,0,1,2,1
279.403,0.001014,0,0.001953125,0.001953125,-0.078125,0.125,9.789062,0,0.001953125,0.001953125,nan,nan,nan,-0.008789062,0.01782227,-0.007080078,0,0,-0.007080078,0,4.077,0,0,0,0,nan,2,0.277,0,0,0,0,0,0,0,0,0,1,2,1
279.413,0.000999,-0.001953125,0,0,-0.09375,0.0078125,9.84375,0,-0.001953125,0,nan,nan,nan,-0.008789062,0.0177002,-0.007080078,0,0,-0.007080078,0,4.077,0,0,0,0,nan,2,0.287,0,0,0,0,0,0,0,0,0,1,2,1
279.423,0.000995,0,0,0.001953125,-0.0703125,0.0859375,9.8125,-0.001953125,0,0,nan,nan,nan,-0.008666992,0.0177002,-0.007080078,0,0,-0.007080078,0,4.077,0,0,0,0,nan,2,0.297,0,0,0,0,0,0,0,0,0,1,2,1
279.433,0.000983,0,0.001953125,0.001953125,-0.046875,0.09375,9.789062,0,0,0.001953125,nan,nan,nan,-0.008666992,0.01757812,-0.006958008,0,0,-0.006958008,0,4.077,0,0,0,0,nan,2,0.307,0,0,0,0,0,0,0,0,0,1,2,1
279.443,0.001023,0.001953125,-0.00390625,-0.001953125,-0.0625,0.03125,9.84375,0.001953125,-0.001953125,-0.001953125,nan,nan,nan,-0.008544922,0.01757812,-0.006958008,0,0,-0.006958008,0,4.077,0,0,0,0,nan,2,0.317,0,0,0,0,0,0,0,0,0,1,2,1
279.453,0.001026,0,-0.001953125,0,-0.078125,0.03125,9.773438,0,0,0,nan,nan,nan,-0.008422852,0.01745605,-0.007080078,0,0,-0.007080078,0,4.077,0,0,0,0,nan,2,0.327,0,0,0,0,0,0,0,0,0,1,2,1
279.463,0.001,0,0,0,-0.0546875,0.0546875,9.84375,0,0,0.00390625,nan,nan,nan,-0.008422852,0.01745605,-0.006958008,0,0,-0.006958008,0,4.077,0,0,0,0,nan,2,0.337,0,0,0,0,0,0,0,0,0,1,2,1
279.474,0.001001,0,0,-0.0078125,-0.078125,0.0546875,9.820312,0.001953125,0,-0.00390625,nan,nan,nan,-0.008300781,0.01745605,-0.006958008,0,0,-0.006958008,0,4.077,0,0,0,0,nan,2,0.347,0,0,0,0,0,0,0,0,0,1,2,1
279.484,0.001022,0,0,0.00390625,-0.0625,0.0390625,9.828125,0,0,0,nan,nan,nan,-0.008178711,0.01733398,-0.007080078,0,0,-0.007080078,0,4.077,0,0,0,0,nan,2,0.358,0,0,0,0,0,0,0,0,0,1,2,1
279.494,0.001005,-0.001953125,0.001953125,0,-0.0703125,0.0390625,9.828125,-0.001953125,0.001953125,0.001953125,nan,nan,nan,-0.008178711,0.01733398,-0.006958008,0,0,-0.006958008,0,4.077,0,0,0,0,nan,2,0.368,0,0,0,0,0,0,0,0,0,1,2,1
279.504,0.001006,0,-0.00390625,-0.001953125,-0.0625,0.0625,9.859375,0,-0.001953125,0,nan,nan,nan,-0.008056641,0.01721191,-0.006958008,0,0,-0.006958008,0,4.077,0,0,0,0,nan,2,0.378,0,0,0,0,0,0,0,0,0,1,2,1
279.513,0.00101,0,0,0,-0.09375,0.0625,9.835938,0,-0.001953125,0,nan,nan,nan,-0.008056641,0.01721191,-0.006958008,0,0,-0.006958008,0,4.077,0,0,0,0,nan,2,0.387,0,0,0,0,0,0,0,0,0,1,2,1
279.523,0.001054,-0.00390625,-0.001953125,0,-0.078125,0.0625,9.78125,-0.001953125,-0.001953125,0.001953125,nan,nan,nan,-0.00793457,0.01708984,-0.006958008,0,0,-0.006958008,0,4.077,0,0,0,0,nan,2,0.397,0,0,0,0,0,0,0,0,0,1,2,1
279.533,0.001025,0.00390625,-0.00390625,0,-0.0078125,-0.015625,9.804688,0.001953125,-0.001953125,-0.001953125,nan,nan,nan,-0.00793457,0.01708984,-0.006958008,0,0,-0.006958008,0,4.077,0,0,0,0,nan,2,0.407,0,0,0,0,0,0,0,0,0,1,2,1
279.544,0.001019,-0.001953125,-0.001953125,0,-0.078125,0.0546875,9.820312,-0.001953125,-0.001953125,0,nan,nan,nan,-0.0078125,0.01696777,-0.006958008,0,0,-0.006958008,0,4.077,0,0,0,0,nan,2,0.417,0,0,0,0,0,0,0,0,0,1,2,1
279.554,0.001074,0.001953125,-0.00390625,0.001953125,-0.0703125,0.0625,9.851562,0,0,0.00390625,nan,nan,nan,-0.0078125,0.01696777,-0.006958008,0,0,-0.006958008,0,4.077,0,0,0,0,nan,2,0.427,0,0,0,0,0,0,0,0,0,1,2,1
279.564,0.001057,-0.001953125,0.001953125,-0.005859375,-0.046875,0.046875,9.78125,-0.001953125,0,-0.001953125,nan,nan,nan,-0.00769043,0.01696777,-0.006958008,0,0,-0.006958008,0,4.077,0,0,0,0,nan,2,0.437,0,0,0,0,0,0,0,0,0,1,2,1
279.574,0.001048,-0.001953125,0.001953125,0.00390625,-0.078125,0.0546875,9.882812,-0.001953125,0,0,nan,nan,nan,-0.00769043,0.0168457,-0.006958008,0,0,-0.006958008,0,4.077,0,0,0,0,nan,2,0.447,0,0,0,0,0,0,0,0,0,1,2,1
279.584,0.000973,-0.001953125,-0.001953125,0,-0.0546875,0.0703125,9.796875,-0.001953125,0,0,nan,nan,nan,-0.007568359,0.0168457,-0.006958008,0,0,-0.006958008,0,4.077,0,0,0,0,nan,2,0.458,0,0,0,0,0,0,0,0,0,1,2,1
279.594,0.001016,0,-0.001953125,-0.001953125,-0.0546875,0.03125,9.78125,0,0,-0.001953125,nan,nan,nan,-0.007568359,0.01672363,-0.006958008,0,0,-0.006958008,0,4.077,0,0,0,0,nan,2,0.468,0,0,0,0,0,0,0,0,0,1,2,1
279.603,0.001042,0.001953125,-0.001953125,0.001953125,-0.0703125,0.0546875,9.835938,0,-0.001953125,0,nan,nan,nan,-0.007446289,0.01672363,-0.006958008,0,0,-0.006958008,0,4.077,0,0,0,0,nan,2,0.477,0,0,0,0,0,0,0,0,0,1,2,1
