t,dt_s,gyro_x,gyro_y,gyro_z,acc_x,acc_y,acc_z,rates.x,rates.y,rates.z,ratesTarget.x,ratesTarget.y,ratesTarget.z,attitude.x,attitude.y,attitude.z,attitudeTarget.x,attitudeTarget.y,attitudeTarget.z,thrustTarget,battery_v,rc_roll,rc_pitch,rc_yaw,rc_throttle,rc_mode,flight_mode,rc_age_s,armed,fault_mask,motor_rl,motor_rr,motor_fr,motor_fl,rate_i_x,rate_i_y,rate_i_z,mix_scale,control_source,accel_correction_confidence
82.781,0.00101,0.005859375,0.08203125,0.00390625,-3.476562,-1.054688,10.09375,0.001953125,0.015625,0.005859375,0,0,0,0.001953125,-0.00402832,0.0002441406,0,0,0.0002441406,0,4.057,0,0,0,0,nan,2,0.128,1,0,0.1000061,0.1000061,0.1000061,0.1000061,0,0,0,1,2,0
82.791,0.00101,0.0234375,-0.08789062,-0.01367188,2.695312,0.796875,8.515625,-0.001953125,-0.00390625,-0.0078125,0,0,0,0.001953125,-0.00390625,0.0002441406,0,0,0.0002441406,0,4.057,0,0,0,0,nan,2,0.138,1,0,0.1000061,0.1000061,0.1000061,0.1000061,0,0,0,1,2,0
82.802,0.001002,0.001953125,-0.01757812,0.015625,1.710938,1.765625,9.96875,-0.009765625,0.0078125,0,0,0,0,0.001953125,-0.00390625,0.0001220703,0,0,0.0002441406,0,4.057,0,0,0,0,nan,2,0.148,1,0,0.1000061,0.1000061,0.1000061,0.1000061,0,0,0,1,2,0.06349207
82.812,0.00101,-0.009765625,0.01171875,0.01171875,0.0234375,3.859375,5.414062,0,0.00390625,0.02148438,0,0,0,0.001831055,-0.00390625,0.0003662109,0,0,0.0002441406,0,4.057,0,0,0,0,nan,2,0.159,1,0,0.1000061,0.1000061,0.1000061,0.1000061,0,0,0,1,2,0
82.822,0.000999,0.01367188,0.005859375,-0.03515625,0.640625,0.796875,11.01562,-0.00390625,0.0078125,-0.02148438,0,0,0,0.001831055,-0.00390625,0.0003662109,0,0,0.0002441406,0,4.057,0,0,0,0,nan,2,0.169,1,0,0.1000061,0.1000061,0.1000061,0.1000061,0,0,0,1,2,0
82.832,0.00101,-0.009765625,0.0390625,-0.001953125,-1.390625,3.835938,6.726562,-0.009765625,0.001953125,-0.0078125,0,0,0,0.001708984,-0.00390625,0.0001220703,0,0,0.0002441406,0,4.057,0,0,0,0,nan,2,0.179,1,0,0.1000061,0.1000061,0.1000061,0.1000061,0,0,0,1,2,0
82.842,0.001011,-0.009765625,-0.01171875,0.02734375,1.421875,-3.179688,7.421875,0.00390625,-0.00390625,0.01757812,0,0,0,0.001708984,-0.00390625,0.0002441406,0,0,0.0002441406,0,4.057,0,0,0,0,nan,2,0.189,1,0,0.1000061,0.1000061,0.1000061,0.1000061,0,0,0,1,2,0
82.852,0.001005,-0.046875,-0.0390625,-0.0078125,1.078125,-4.445312,4.28125,-0.01757812,-0.001953125,-0.01171875,0,0,0,0.001708984,-0.00378418,0.0002441406,0,0,0.0002441406,0,4.057,0,0,0,0,nan,2,0.199,1,0,0.1000061,0.1000061,0.1000061,0.1000061,0,0,0,1,2,0
82.862,0.001019,-0.0234375,-0.0078125,0.00390625,1.015625,-1.78125,8.984375,-0.01171875,-0.005859375,-0.005859375,0,0,0,0.001586914,-0.00378418,0.0001220703,0,0,0.0002441406,0,4.057,0,0,0,0,nan,2,0.209,1,0,0.1000061,0.1000061,0.1000061,0.1000061,0,0,0,1,2,0
82.872,0.00101,0,-0.005859375,-0.0078125,1.515625,-3.71875,5,-0.01171875,0.005859375,-0.009765625,0,0,0,0.001464844,-0.00378418,0.0001220703,0,0,0.0002441406,0,4.057,0,0,0,0,nan,2,0.219,1,0,0.1000061,0.1000061,0.1000061,0.1000061,0,0,0,1,2,0
82.882,0.00101,0.01757812,-0.015625,0.01367188,0.2890625,-0.1328125,10.53906,-0.005859375,-0.001953125,0.00390625,0,0,0,0.001342773,-0.00378418,0,0,0,0.0002441406,0,4.057,0,0,0,0,nan,2,0.229,1,0,0.1000061,0.1000061,0.1000061,0.1000061,0,0,0,1,2,0
82.891,0.001002,-0.0234375,-0.0234375,-0.005859375,0.671875,-0.1875,8.601562,-0.01367188,-0.0078125,0.001953125,0,0,0,0.001342773,-0.00378418,0.0001220703,0,0,0.0002441406,0,4.057,0,0,0,0,nan,2,0.238,1,0,0.1000061,0.1000061,0.1000061,0.1000061,0,0,0,1,2,0
82.901,0.001018,0.03515625,0.0078125,0.015625,-0.328125,0.3984375,11.0625,-0.001953125,0.01171875,0,0,0,0,0.001220703,-0.00378418,0,0,0,0.0002441406,0,4.057,0,0,0,0,nan,2,0.248,1,0,0.1000061,0.1000061,0.1000061,0.1000061,0,0,0,1,2,0
82.912,0.001018,-0.0390625,-0.015625,0.01171875,0.0546875,0.6015625,10.74219,-0.00390625,-0.005859375,0.01171875,0,0,0,0.001220703,-0.00378418,0.0001220703,0,0,0.0002441406,0,4.057,0,0,0,0,nan,2,0.259,1,0,0.1000061,0.1000061,0.1000061,0.1000061,0,0,0,1,2,0
82.922,0.001039,0.00390625,-0.009765625,0,-0.078125,-0.46875,9.195312,0,-0.00390625,0,0,0,0,0.001098633,-0.00378418,0.0002441406,0,0,0.0002441406,0,4.057,0,0,0,0,nan,2,0.269,1,0,0.1000061,0.1000061,0.1000061,0.1000061,0,0,0,1,2,0
82.932,0.00101,-0.001953125,-0.01757812,0.005859375,0.34375,0.1875,9.515625,0.00390625,0,0.005859375,0,0,0,0.001342773,-0.00390625,0.0002441406,0,0,0.0002441406,0,4.057,0,0,0,0,nan,2,0.279,1,0,0.1000061,0.1000061,0.1000061,0.1000061,0,0,0,1,2,0.3650794
82.942,0.000979,0.01171875,0,-0.02148438,0.015625,-0.4296875,8.851562,0.00390625,-0.009765625,-0.0078125,0,0,0,0.001342773,-0.00390625,0.0002441406,0,0,0.0002441406,0,4.057,0,0,0,0,nan,2,0.289,1,0,0.1000061,0.1000061,0.1000061,0.1000061,0,0,0,1,2,0
82.952,0.001032,0.0390625,-0.01367188,0,-0.28125,0.46875,9.773438,0.00390625,-0.0078125,-0.00390625,0,0,0,0.001342773,-0.00402832,0.0001220703,0,0,0.0002441406,0,4.057,0,0,0,0,nan,2,0.299,1,0,0.1000061,0.1000061,0.1000061,0.1000061,0,0,0,1,2,0.9206349
82.962,0.001021,-0.03515625,0.00390625,-0.00390625,0.1640625,-0.9765625,9.148438,-0.005859375,-0.01171875,0,0,0,0,0.001342773,-0.00402832,0.0001220703,0,0,0.0002441406,0,4.057,0,0,0,0.0006103516,nan,2,0.309,1,0,0.1000061,0.1000061,0.1000061,0.1000061,0,0,0,1,3,0
82.972,0.00101,0.01367188,-0.009765625,-0.01953125,-0.5234375,-1.445312,10.82812,-0.01367188,0.01367188,-0.02148438,0,0,0,0.001220703,-0.00390625,0,0,0,0.0002441406,0,4.057,0,0,0,0.002624512,nan,2,0.319,1,0,0.1000061,0.1000061,0.1000061,0.1000061,0,0,0,1,3,0
82.981,0.000975,0,-0.01367188,-0.01757812,0.2890625,-2.046875,9.21875,-0.01367188,0.001953125,-0.01171875,0,0,0,0.001098633,-0.00390625,-0.0001220703,0,0,0.0002441406,0,4.057,0,0,0,0.004394531,nan,2,0.328,1,0,0.1000061,0.1000061,0.1000061,0.1000061,0,0,0,1,3,0.2380952
82.991,0.00101,-0.02929688,-0.00390625,0.00390625,-0.5390625,0.7578125,12.00781,-0.001953125,0.005859375,-0.00390625,0,0,0,0.001098633,-0.00378418,-0.0002441406,0,0,0.0002441406,0,4.057,0,0,0,0.006408691,nan,2,0.338,1,0,0.1000061,0.1000061,0.1000061,0.1000061,0,0,0,1,3,0
83.002,0.001015,0.001953125,-0.00390625,-0.015625,0.2109375,0.65625,9.898438,0.01171875,-0.01171875,-0.01171875,0,0,0,0.001220703,-0.00390625,-0.0002441406,0,0,0.0002441406,0,4.057,0,0,0,0.008422852,nan,2,0.348,1,0,0.1000061,0.1000061,0.1000061,0.1000061,0,0,0,1,3,0.7619048
83.012,0.001002,-0.01757812,-0.015625,0.00390625,0.4765625,0,11.375,-0.001953125,0.001953125,-0.0078125,0,0,0,0.001220703,-0.00390625,-0.0004882812,0,0,0.0002441406,0,4.057,0,0,0,0.01037598,nan,2,0.358,1,0,0.1000061,0.1000061,0.1000061,0.1000061,0,0,0,1,3,0
83.022,0.001002,-0.015625,-0.015625,0.0390625,-0.265625,-0.0234375,10.21094,-0.01757812,-0.005859375,0.03320312,0,0,0,0.001220703,-0.00390625,-0.0002441406,0,0,0.0002441406,0,4.057,0,0,0,0.01239014,nan,2,0.369,1,0,0.1000061,0.1000061,0.1000061,0.1000061,0,0,0,1,3,0.1587302
83.032,0.001002,-0.03515625,0.02148438,0.01367188,-0.1328125,-3.46875,6.882812,-0.005859375,0.009765625,0.03125,0,0,0,0.001220703,-0.00390625,0.0001220703,0,0,0.0002441406,0,4.057,0,0,0,0.0144043,nan,2,0.379,1,0,0.1000061,0.1000061,0.1000061,0.1000061,0,0,0,1,3,0
83.042,0.001011,-0.001953125,0.01367188,0.03125,-0.09375,0.5859375,11.24219,-0.005859375,0.015625,0.02539062,0,0,0,0.001220703,-0.00378418,0.0003662109,0,0,0.0002441406,0,4.057,0,0,0,0.01660156,nan,2,0.389,1,0,0.1000061,0.1000061,0.1000061,0.1000061,0,0,0,1,3,0
83.052,0.001032,-0.03320312,0.001953125,0.00390625,0.34375,0.1796875,13.36719,-0.009765625,0.001953125,0.01171875,0,0,0,0.001220703,-0.00378418,0.0004882812,0,0,0.0002441406,0,4.057,0,0,0,0.01861572,nan,2,0.399,1,0,0.1000061,0.1000061,0.1000061,0.1000061,0,0,0,1,3,0
83.062,0.001022,-0.01171875,0.009765625,0.00390625,1.773438,-0.1796875,6.34375,-0.00390625,0.00390625,0.0078125,0,0,0,0.001098633,-0.003662109,0.0006103516,0,0,0.0002441406,0,4.057,0,0,0,0.02062988,nan,2,0.409,1,0,0.1000061,0.1000061,0.1000061,0.1000061,0,0,0,1,3,0
83.072,0.001016,0.009765625,0.00390625,-0.046875,0.328125,3.265625,7.84375,0.009765625,-0.01171875,-0.02148438,0,0,0,0.001098633,-0.00378418,0.0006103516,0,0,0.0002441406,0,4.057,0,0,0,0.02258301,nan,2,0.419,1,0,0.1000061,0.1000061,0.1000061,0.1000061,0,0,0,1,3,0
83.081,0.00101,0.03515625,0.01757812,-0.08984375,1.007812,0.4296875,5.984375,0.00390625,0.00390625,-0.06835938,0,0,0,0.001220703,-0.00378418,0.0001220703,0,0,0.0002441406,0,4.057,0,0,0,0.02441406,nan,2,0.428,1,0,0.1000061,0.1000061,0.1000061,0.1000061,0,0,0,1,3,0
83.091,0.00101,0.0078125,0.01367188,-0.08984375,0.265625,2.921875,10.9375,0.00390625,-0.009765625,-0.0859375,0,0,0,0.001220703,-0.00378418,-0.0006103516,0,0,0.0002441406,0,4.057,0,0,0,0.02642822,nan,2,0.438,1,0,0.1000061,0.1000061,0.1000061,0.1000061,0,0,0,1,3,0
83.101,0.00101,0.01757812,-0.01367188,-0.02148438,-0.515625,2.882812,12.1875,-0.00390625,-0.009765625,-0.046875,0,0,0,0.001098633,-0.00378418,-0.001342773,0,0,0.0002441406,0,4.057,0,0,0,0.02838135,nan,2,0.448,1,0,0.1000061,0.1000061,0.1000061,0.1000061,0,0,0,1,3,0
83.112,0.00101,0.01757812,-0.01367188,0.009765625,1.039062,1.585938,12.28906,-0.005859375,-0.00390625,0,0,0,0,0.001098633,-0.00378418,-0.001586914,0,0,0.0002441406,0,4.057,0,0,0,0.03039551,nan,2,0.458,1,0,0.1000061,0.1000061,0.1000061,0.1000061,0,0,0,1,3,0
83.122,0.00101,-0.015625,0.01367188,-0.009765625,0.9453125,-0.890625,17.04688,-0.001953125,0.0078125,-0.005859375,0,0,0,0.0009765625,-0.003662109,-0.001586914,0,0,0.0002441406,0,4.057,0,0,0,0.03240967,nan,2,0.469,1,0,0.1000061,0.1000061,0.1000061,0.1000061,0,0,0,1,3,0
83.132,0.001021,-0.01171875,0,-0.046875,1.210938,2.398438,5.421875,-0.00390625,0.001953125,-0.02929688,0,0,0,0.0009765625,-0.003662109,-0.001708984,0,0,0.0002441406,0,4.057,0,0,0,0.03442383,nan,2,0.479,1,0,0.1000061,0.1000061,0.1000061,0.1000061,0,0,0,1,3,0
83.142,0.001012,0.001953125,-0.01757812,-0.03515625,-0.3671875,0.9765625,7.710938,0.01171875,-0.009765625,-0.03320312,0,0,0,0.0009765625,-0.00378418,-0.002075195,0,0,0.0002441406,0,4.057,0,0,0,0.03662109,nan,2,0.489,1,0,0.1000061,0.1000061,0.1000061,0.1000061,0,0,0,1,3,0
83.152,0.001006,0.01367188,0.005859375,0.005859375,1.15625,0.53125,11.33594,0,0.00390625,-0.00390625,0,0,0,0.0009765625,-0.00378418,-0.002197266,0,0,0.0002441406,0,4.057,0,0,0,0.03857422,nan,2,0.499,1,0,0.1000061,0.1000061,0.1000061,0.1000061,0,0,0,1,3,0
83.162,0.001009,0.005859375,0.02148438,-0.01367188,-0.734375,0.3515625,12.33594,0.001953125,0.009765625,-0.001953125,0,0,0,0.001098633,-0.003662109,-0.002197266,0,0,0.0002441406,0,4.057,0,0,0,0.04058838,nan,2,0.509,1,0,0.1000061,0.1000061,0.1000061,0.1000061,0,0,0,1,3,0
83.172,0.001021,0.02929688,-0.02539062,-0.03125,-1.257812,1.742188,6.132812,0.01171875,-0.015625,-0.02539062,0,0,0,0.001098633,-0.00378418,-0.002319336,0,0,0.0002441406,0,4.057,0,0,0,0.04260254,nan,2,0.519,1,0,0.1000061,0.1000061,0.1000061,0.1000061,0,0,0,1,3,0
83.182,0.001047,0,-0.00390625,-0.03320312,-0.1328125,2.132812,6.398438,-0.001953125,0,-0.02929688,0,0,0,0.001098633,-0.00378418,-0.002563477,0,0,0.0002441406,0,4.057,0,0,0,0.0446167,nan,2,0.529,1,0,0.1000061,0.1000061,0.1000061,0.1000061,0,0,0,1,3,0
83.191,0.00104,0.009765625,-0.01367188,-0.00390625,0.5625,-1.273438,13.29688,0.005859375,-0.00390625,-0.01367188,0,0,0,0.001098633,-0.00378418,-0.002807617,0,0,0.0002441406,0,4.057,0,0,0,0.04638672,nan,2,0.538,1,0,0.1000061,0.1000061,0.1000061,0.1000061,0,0,0,1,3,0
83.202,0.001026,0.0234375,-0.001953125,-0.01953125,-0.7890625,-1.039062,10.08594,0.00390625,0.005859375,-0.01367188,0,0,0,0.001098633,-0.00378418,-0.002929688,0,0,0.0002441406,0,4.057,0,0,0,0.04840088,nan,2,0.548,1,0,0.1000061,0.1000061,0.1000061,0.1000061,0,0,0,1,3,0.2380952
83.212,0.001029,-0.01367188,0.015625,-0.0234375,1.90625,2.78125,14.14844,-0.001953125,0.01171875,-0.02929688,-0.0078125,0.02148438,0,0.001220703,-0.003662109,-0.003173828,0,0,0.0002441406,0.1003418,4.057,0,0,0,0.05041504,nan,2,0.558,1,0,0.09490967,0.1066284,0.09347534,0.1063232,0,0,0,1,3,0
83.222,0.001012,-0.02929688,0.03515625,-0.00390625,-0.7265625,0.0234375,14.88281,-0.009765625,0.0078125,-0.01367188,-0.0078125,0.02148438,0,0.001220703,-0.003662109,-0.003417969,0,0,0.0002441406,0.1020203,4.057,0,0,0,0.0524292,nan,2,0.569,1,0,0.1151123,0.08822632,0.1118774,0.09289551,0,0,0,1,3,0
83.232,0.001012,-0.01953125,0.015625,-0.005859375,0.2265625,4.53125,12.53125,-0.01757812,0.0078125,-0.009765625,-0.005859375,0.02148438,0,0.001098633,-0.003540039,-0.003540039,0,0,0.0002441406,0.1036987,4.057,0,0,0,0.05438232,nan,2,0.579,1,0,0.1087036,0.09887695,0.1029358,0.1043091,0,0,0,1,3,0
83.242,0.001012,0.0234375,-0.0078125,-0.02148438,-0.3984375,-0.125,14.04688,0.01757812,-0.01171875,-0.01757812,-0.0078125,0.02148438,0,0.001098633,-0.003662109,-0.003662109,0,0,0.0002441406,0.1055603,4.057,0,0,0,0.05657959,nan,2,0.589,1,0,0.09207153,0.1243896,0.09552002,0.11026,0,0,0,1,3,0
83.252,0.001007,0.02539062,-0.01367188,-0.046875,0.5234375,4.507812,9.75,0.0078125,0.005859375,-0.03515625,-0.0078125,0.02148438,0,0.001220703,-0.003662109,-0.00390625,0,0,0.0002441406,0.1072388,4.057,0,0,0,0.05859375,nan,2,0.599,1,0,0.07556152,0.1402283,0.07788086,0.1352844,0,0,0,1,3,0
83.262,0.001012,0.02148438,-0.009765625,-0.0078125,-2.695312,1.15625,13.82812,0.001953125,-0.001953125,-0.0234375,-0.0078125,0.02148438,0,0.001220703,-0.003540039,-0.004272461,0,0,0.0002441406,0.1089172,4.057,0,0,0,0.06060791,nan,2,0.609,1,0,0.115387,0.1085205,0.112915,0.09887695,0,0,0,1,3,0
83.272,0.001017,0.01171875,-0.01171875,-0.02148438,-0.0859375,3.328125,8.859375,-0.0078125,-0.01171875,-0.0234375,-0.005859375,0.02148438,0,0.001098633,-0.003540039,-0.004394531,0,0,0.0002441406,0.1105957,4.057,0,0,0,0.06262207,nan,2,0.619,1,0,0.1071777,0.1227112,0.09780884,0.1147766,0,0,0,1,3,0.2380952
83.281,0.001007,-0.03125,0.02734375,0.01367188,0.203125,1.234375,9.585938,-0.0078125,0.0078125,0.001953125,-0.005859375,0.02148438,0,0.001098633,-0.003662109,-0.004516602,0,0,0.0002441406,0.1121216,4.057,0,0,0,0.06439209,nan,2,0.628,1,0,0.1404724,0.08032227,0.139679,0.0880127,0,0,0,1,3,0.6507937
83.291,0.001006,-0.00390625,0,-0.01367188,0.6875,3.695312,16.16406,-0.01171875,0.00390625,-0.001953125,-0.005859375,0.02148438,0,0.0009765625,-0.003540039,-0.004516602,0,0,0.0002441406,0.1138,4.057,0,0,0,0.06640625,nan,2,0.638,1,0,0.1047058,0.1274719,0.1002502,0.1228027,0,0,0,1,3,0
83.302,0.001006,0.01171875,0.015625,-0.03320312,0.8828125,2.859375,3.703125,-0.00390625,0.001953125,-0.02148438,-0.005859375,0.02148438,0,0.0008544922,-0.003540039,-0.004638672,0,0,0.0002441406,0.115509,4.057,0,0,0,0.06842041,nan,2,0.648,1,0,0.09158325,0.1420898,0.09054565,0.1377563,0,0,0,1,3,0
83.312,0.001004,-0.03710938,0.00390625,-0.02148438,-0.7265625,-5.304688,6.34375,0.001953125,0.00390625,-0.02929688,-0.005859375,0.02148438,0,0.0008544922,-0.003417969,-0.004882812,0,0,0.0002441406,0.1171875,4.057,0,0,0,0.07037354,nan,2,0.658,1,0,0.1063232,0.130188,0.1037903,0.1283875,0,0,0,1,3,0
83.322,0.001006,0.01953125,-0.001953125,-0.009765625,-0.2109375,-4.148438,14.89844,-0.001953125,0,-0.01367188,-0.00390625,0.01953125,0,0.0007324219,-0.003295898,-0.005126953,0,0,0.0002441406,0.118866,4.057,0,0,0,0.0723877,nan,2,0.669,1,0,0.1285706,0.1148376,0.1268311,0.1051941,0,0,0,1,3,0
83.332,0.001007,0.00390625,0.01953125,-0.01953125,-1.1875,4.101562,9.71875,0.01953125,0.01171875,-0.02148438,-0.005859375,0.01953125,0,0.0009765625,-0.003417969,-0.005371094,0,0,0.0002441406,0.1205444,4.057,0,0,0,0.07440186,nan,2,0.679,1,0,0.1076965,0.1296082,0.1136169,0.1312866,0,0,0,1,3,0
83.342,0.001001,-0.0234375,0.02734375,-0.015625,-1.164062,1.445312,15.6875,-0.009765625,0.0078125,0.0078125,-0.005859375,0.02148438,0,0.001098633,-0.003417969,-0.005249023,0,0,0.0002441406,0.122406,4.057,0,0,0,0.07659912,nan,2,0.689,1,0,0.1307068,0.111145,0.1255798,0.1221313,0,0,0,1,3,0
83.352,0.001026,0,0.005859375,-0.01367188,-0.0546875,-4.578125,12.23438,-0.01953125,0.005859375,-0.01953125,-0.005859375,0.01953125,0,0.0009765625,-0.003295898,-0.005371094,0,0,0.0002441406,0.1240845,4.057,0,0,0,0.07861328,nan,2,0.699,1,0,0.1075439,0.1432495,0.1031799,0.1423645,0,0,0,1,3,0
83.362,0.000981,-0.03125,0.0078125,-0.02929688,0.171875,5,11.57812,0,0.005859375,-0.0234375,-0.005859375,0.01953125,0,0.0009765625,-0.003295898,-0.005615234,0,0,0.0002441406,0.1257629,4.057,0,0,0,0.08062744,nan,2,0.709,1,0,0.1057129,0.1455383,0.1069946,0.1448059,0,0,0,1,3,0
83.372,0.001007,0.0234375,0.0234375,-0.04882812,0.640625,-4.359375,5.078125,0.015625,0.015625,-0.03320312,-0.005859375,0.01953125,0,0.001098633,-0.003295898,-0.005859375,0,0,0.0002441406,0.1274414,4.057,0,0,0,0.08258057,nan,2,0.719,1,0,0.0930481,0.1585388,0.1007996,0.1574402,0,0,0,1,3,0
83.381,0.000982,0.05664062,-0.00390625,-0.03320312,1.617188,-3.585938,8.578125,0.01953125,0.0078125,-0.0390625,-0.0078125,0.01953125,0,0.001342773,-0.003295898,-0.006225586,0,0,0.0002441406,0.1289673,4.057,0,0,0,0.08441162,nan,2,0.728,1,0,0.1110229,0.148407,0.1127625,0.1437073,0,0,0,1,3,0.2380952
83.391,0.001011,0.05078125,-0.03710938,-0.0234375,0.109375,1.65625,18.04688,0.0078125,0.001953125,-0.02734375,-0.0078125,0.01953125,0,0.001220703,-0.003051758,-0.006469727,0,0,0.0002441406,0.1306458,4.057,0,0,0,0.08642578,nan,2,0.738,1,0,0.1309509,0.1385803,0.1328735,0.1202087,0,0,0,1,3,0
83.402,0.001007,0.0546875,-0.05664062,-0.0234375,-2.023438,-4.203125,8.054688,0.03515625,-0.046875,-0.03710938,-0.009765625,0.01953125,0,0.001586914,-0.003417969,-0.006835938,0,0,0.0002441406,0.1323242,4.057,0,0,0,0.08837891,nan,2,0.748,1,0,0.1281433,0.1533508,0.1184692,0.129364,0,0,0,1,3,0
83.412,0.00101,-0.04296875,-0.0078125,0.005859375,-0.875,2.382812,15.80469,-0.0078125,-0.001953125,-0.01171875,-0.009765625,0.02148438,0,0.001708984,-0.003540039,-0.007080078,0,0,0.0002441406,0.1340332,4.057,0,0,0,0.09039307,nan,2,0.758,1,0,0.1585083,0.1092224,0.1504211,0.1179199,0,0,0,1,3,0
83.422,0.001016,-0.0234375,0.001953125,-0.001953125,-0.0703125,-2.960938,14.67188,0,0.00390625,-0.01171875,-0.009765625,0.02148438,0,0.001708984,-0.003540039,-0.007202148,0,0,0.0002441406,0.1357117,4.057,0,0,0,0.09240723,nan,2,0.769,1,0,0.1358948,0.1358948,0.1366882,0.1343384,0,0,0,1,3,0
83.432,0.001012,0.04492188,-0.01171875,-0.00390625,-1.78125,-3.515625,6.835938,0.0234375,-0.01953125,-0.00390625,-0.01171875,0.02148438,0,0.001831055,-0.003662109,-0.007324219,0,0,0.0002441406,0.1373901,4.073,0,0,0,0.09442139,nan,2,0.779,1,0,0.1413574,0.1422424,0.1419373,0.1239929,0,0,0,1,3,0
83.442,0.001013,-0.03710938,-0.009765625,-0.03320312,-0.1953125,4.515625,16.08594,-0.005859375,0.001953125,-0.01953125,-0.01171875,0.02148438,0,0.001953125,-0.003662109,-0.007324219,0,0,0.0002441406,0.1392517,4.073,0,0,0,0.09661865,nan,2,0.789,1,0,0.1178589,0.1635437,0.1092529,0.1662903,0,0,0,1,3,0
83.452,0.001021,0.015625,-0.009765625,-0.03125,-0.8046875,-0.6875,17.10156,-0.00390625,-0.0078125,-0.03320312,-0.01171875,0.0234375,0,0.001831055,-0.00378418,-0.00769043,0,0,0.0002441406,0.1409302,4.073,0,0,0,0.09857178,nan,2,0.799,1,0,0.1209717,0.1663513,0.1187439,0.1576538,0,0.0009765625,0,1,3,0
83.462,0.001005,-0.03320312,0.02539062,-0.04492188,0.7734375,-0.3046875,9.460938,-0.01367188,0,-0.04492188,-0.009765625,0.0234375,0,0.001708984,-0.00390625,-0.008056641,0,0,0.0002441406,0.1426086,4.073,0,0,0,0.1005859,nan,2,0.809,1,0,0.117981,0.165741,0.1174622,0.1692505,0,0.0009765625,0,1,3,0.3650794
83.472,0.001011,-0.05078125,0.05273438,-0.03515625,0.140625,-5.460938,4.109375,0.02539062,0.0078125,-0.03320312,-0.01171875,0.0234375,0,0.002075195,-0.00390625,-0.008422852,0,0,0.0002441406,0.1442871,4.073,0,0,0,0.1026001,nan,2,0.819,1,0,0.1364746,0.1518555,0.1399536,0.1488953,0,0.0009765625,0,1,3,0
83.481,0.001009,0.0234375,-0.001953125,-0.06835938,-1.6875,-0.8515625,13.14062,0.0234375,-0.02148438,-0.06640625,-0.01171875,0.0234375,0,0.002075195,-0.00402832,-0.008911133,0,0,0.0002441406,0.145813,4.073,0,0,0,0.1043701,nan,2,0.828,1,0,0.09735107,0.2038574,0.09637451,0.1856384,0,0.0009765625,0,1,3,0
83.491,0.000953,-0.01757812,-0.015625,-0.02734375,1.945312,-4.515625,9.101562,0.001953125,-0.01171875,-0.03515625,-0.01367188,0.02539062,0,0.002197266,-0.004150391,-0.009399414,0,0,0.0002441406,0.1474915,4.073,0,0,0,0.1063843,nan,2,0.838,1,0,0.1611938,0.1400452,0.1539307,0.1347961,0,0.0009765625,0,1,3,0
83.502,0.00101,0.07226562,0.001953125,-0.03515625,1.351562,-3.390625,12.03906,0.01953125,0,-0.03320312,-0.01367188,0.02539062,0,0.002197266,-0.004150391,-0.009765625,0,0,0.0002441406,0.1491699,4.073,0,0,0,0.1083984,nan,2,0.848,1,0,0.1424866,0.1586609,0.151947,0.1436157,0,0.0009765625,0,1,3,0
83.512,0.001007,-0.03515625,0.0078125,-0.02148438,3.070312,-1.320312,8.71875,-0.03125,-0.00390625,-0.01171875,-0.01367188,0.02539062,0,0.002197266,-0.004150391,-0.01000977,0,0,0.0002441406,0.1508789,4.073,0,0,0,0.1104126,nan,2,0.858,1,0,0.1704102,0.1369934,0.1567078,0.1393433,0,0.0009765625,0,1,3,0.03174603
83.522,0.001007,-0.0546875,0.02929688,-0.02734375,-0.2421875,2.445312,14.08594,-0.05273438,0.01171875,-0.02148438,-0.01171875,0.02539062,0,0.001831055,-0.004150391,-0.01013184,0,0,0.0002441406,0.1525574,4.073,0,0,0,0.1124268,nan,2,0.869,1,0,0.1470337,0.1556702,0.1370239,0.1704407,0,0.0009765625,0,1,3,0
83.532,0.001006,0.01757812,-0.0390625,0.03125,0.796875,5.234375,11.32812,0.001953125,0.001953125,0.00390625,-0.009765625,0.0234375,0,0.001708984,-0.00390625,-0.01025391,0,0,0.0002441406,0.1542358,4.073,0,0,0,0.1143799,nan,2,0.879,1,0,0.1912537,0.1262207,0.18927,0.110199,0,0.0009765625,0,1,3,0
83.542,0.000978,-0.02539062,0.00390625,-0.015625,-0.4765625,0.6796875,18.875,0.02148438,-0.00390625,-0.01953125,-0.01171875,0.0234375,0,0.001831055,-0.00402832,-0.01037598,0,0,0.0002441406,0.1560974,4.073,0,0,0,0.1165771,nan,2,0.889,1,0,0.1256104,0.1927185,0.1260986,0.1799011,0,0.0009765625,0,1,3,0
83.552,0.000989,-0.0234375,0.005859375,-0.01171875,0.4765625,4.132812,9.351562,-0.01367188,0.009765625,-0.02148438,-0.009765625,0.0234375,0,0.001708984,-0.00390625,-0.01049805,0,0,0.0002441406,0.1577759,4.073,0,0,0,0.1185913,nan,2,0.899,1,0,0.1551819,0.1611633,0.1513672,0.1633911,0,0.0009765625,0,1,3,0.0952381
83.562,0.001031,-0.02148438,-0.03710938,-0.005859375,-0.8203125,-3.445312,5.617188,0,-0.01367188,0.0078125,-0.009765625,0.0234375,0,0.001831055,-0.00390625,-0.01062012,0,0,0.0002441406,0.1594543,4.073,0,0,0,0.1206055,nan,2,0.909,1,0,0.1842957,0.1470642,0.1733093,0.1331482,0,0.0009765625,0,1,3,0
83.571,0.001028,-0.04882812,-0.01171875,-0.03710938,-1.898438,4.28125,16.19531,0.01367188,-0.01367188,-0.03515625,-0.01171875,0.0234375,0,0.001953125,-0.00402832,-0.01074219,0,0,0.0002441406,0.1609802,4.073,0,0,0,0.1223755,nan,2,0.918,1,0,0.124939,0.2035522,0.1191406,0.196228,0,0.0009765625,0,1,3,0
83.581,0.001013,0.03320312,0.04882812,-0.01953125,-2.054688,-0.9765625,11.28125,-0.005859375,0.001953125,-0.02539062,-0.009765625,0.02539062,0,0.001586914,-0.004150391,-0.01098633,0,0,0.0002441406,0.1626587,4.073,0,0,0,0.1243896,nan,2,0.928,1,0,0.149353,0.1758118,0.1622314,0.1632385,0,0.0009765625,0,1,3,0
83.592,0.001069,-0.02929688,0.06640625,-0.04492188,0.21875,-4.585938,4.828125,-0.03125,0.02148438,-0.015625,-0.0078125,0.0234375,0,0.001464844,-0.00402832,-0.0111084,0,0,0.0002441406,0.1643372,4.073,0,0,0,0.1264038,nan,2,0.938,1,0,0.1455383,0.1795044,0.1444702,0.1878357,0,0.0009765625,0,1,3,0
83.602,0.001013,-0.03320312,-0.02148438,-0.02148438,3.421875,4.890625,11.17188,-0.01367188,-0.01757812,-0.02539062,-0.0078125,0.0234375,0,0.001342773,-0.00402832,-0.01147461,0,0,0.0002441406,0.1660156,4.073,0,0,0,0.128418,nan,2,0.948,1,0,0.1684265,0.1770935,0.1534729,0.1651001,0,0.0009765625,0,1,3,0
83.612,0.001009,-0.01757812,-0.05273438,-0.04296875,0.71875,0.9921875,6.890625,0.001953125,-0.009765625,-0.04296875,-0.0078125,0.02539062,0,0.001342773,-0.004150391,-0.01171875,0,0,0.0002441406,0.1676941,4.073,0,0,0,0.1303711,nan,2,0.958,1,0,0.1433716,0.1990051,0.1366577,0.1917725,0,0.0009765625,0,1,3,0
83.622,0.001001,-0.01367188,0.03515625,-0.009765625,1,-3.3125,6.945312,0.0078125,0.005859375,-0.02148438,-0.0078125,0.02539062,0,0.001342773,-0.004272461,-0.01208496,0,0,0.0002441406,0.1694031,4.073,0,0,0,0.1323853,nan,2,0.969,1,0,0.1818237,0.15448,0.19104,0.1502075,0,0.0009765625,0,1,3,0
83.632,0.001013,-0.001953125,-0.04101562,-0.07617188,-1.15625,7.875,8.742188,-0.00390625,-0.01171875,-0.0546875,-0.0078125,0.02539062,0,0.001220703,-0.004394531,-0.01245117,0,0,0.0002441406,0.1710815,4.073,0,0,0,0.1343994,nan,2,0.979,1,0,0.1176453,0.2354126,0.1090698,0.222168,0,0.0009765625,0,1,3,0
83.642,0.001018,-0.05664062,0.04101562,-0.03515625,-0.234375,8.351562,11.82812,-0.01757812,0.0078125,-0.03515625,-0.0078125,0.02539062,0,0.001220703,-0.004394531,-0.01281738,0,0,0.0002441406,0.1729126,4.073,0,0,0,0.1365967,nan,2,0.989,1,0,0.1759338,0.170166,0.1688843,0.1767273,0,0.0009765625,0,1,3,0
83.652,0.001016,-0.01171875,0.03125,0.0234375,1.25,-5.828125,2.84375,-0.001953125,0.01171875,-0.001953125,-0.0078125,0.02539062,0,0.001098633,-0.004394531,-0.01306152,0,0,0.0002441406,0.1746216,4.073,0,0,0,0.1386108,nan,2,0.999,1,0,0.2107544,0.138855,0.211731,0.137146,0,0.0009765625,0,1,3,0
83.662,0.001011,0.009765625,0.0078125,-0.0234375,0.9375,7.234375,10.65625,0.001953125,-0.001953125,-0.01367188,-0.005859375,0.02539062,0,0.0009765625,-0.004394531,-0.01306152,0,0,0.0002441406,0.1763,4.073,0,0,0,0.140625,nan,2,1.009,1,0,0.1576843,0.1989746,0.1600342,0.1884766,0,0.0009765625,0,1,3,0
83.672,0.001007,0.01171875,-0.005859375,-0.0234375,2.304688,-2.421875,7.203125,0.015625,-0.01367188,-0.01171875,-0.005859375,0.02539062,0,0.0008544922,-0.004394531,-0.01330566,0,0,0.0002441406,0.1779785,4.073,0,0,0,0.1425781,nan,2,1.019,1,0,0.1775208,0.1886292,0.1775818,0.1681824,0,0.0009765625,0,1,3,0
83.681,0.001005,0.03320312,0.005859375,-0.005859375,-2.101562,-6.109375,7.570312,-0.00390625,0.005859375,-0.005859375,-0.00390625,0.02539062,0,0.0007324219,-0.004272461,-0.01330566,0,0,0.0002441406,0.1795044,4.073,0,0,0,0.1444092,nan,2,1.028,1,0,0.1854858,0.1756897,0.1849976,0.1717834,0,0.0009765625,0,1,3,0.5555556
83.691,0.001003,0.01953125,0.078125,0.001953125,-1.25,6.664062,14.60156,0.01953125,0.00390625,0.00390625,-0.00390625,0.02539062,0,0.0007324219,-0.004394531,-0.01330566,0,0,0.0002441406,0.1811829,4.073,0,0,0,0.1464233,nan,2,1.038,1,0,0.184967,0.1777954,0.1968994,0.1650696,0,0.0009765625,0,1,3,0
83.702,0.001003,0.03125,-0.03710938,-0.04492188,-2.03125,1.757812,11.46875,-0.00390625,-0.009765625,-0.04101562,-0.00390625,0.02539062,0,0.0006103516,-0.004394531,-0.0135498,0,0,0.0002441406,0.1828613,4.073,0,0,0,0.1483765,nan,2,1.048,1,0,0.1359863,0.2406311,0.1289978,0.2258606,0,0.0009765625,0,1,3,0
83.712,0.001003,-0.02734375,0.05664062,0.04492188,-0.0078125,-5.945312,1.945312,-0.01171875,0.02148438,0.02929688,-0.00390625,0.02734375,0,0.0007324219,-0.004394531,-0.0135498,0,0,0.0002441406,0.1845398,4.073,0,0,0,0.1503906,nan,2,1.058,1,0,0.2504272,0.1125488,0.2489624,0.1262512,0,0.0009765625,0,1,3,0
83.722,0.001003,-0.02734375,-0.078125,0.02148438,1.273438,-7.875,7.085938,-0.00390625,-0.06445312,0.02148438,-0.005859375,0.02734375,0,0.0008544922,-0.004638672,-0.01330566,0,0,0.0002441406,0.1862183,4.073,0,0,0,0.1524048,nan,2,1.069,1,0,0.21521,0.185791,0.1812744,0.1626587,0,0.0009765625,0,1,3,0
83.732,0.001003,-0.00390625,0.0234375,-0.03125,-2.445312,0.0234375,8.523438,0.01367188,-0.04296875,-0.01367188,-0.005859375,0.03125,0,0.0009765625,-0.005249023,-0.01330566,0,0,0.0002441406,0.1879272,4.073,0,0,0,0.1544189,nan,2,1.079,1,0,0.1533813,0.2290955,0.1523438,0.2168579,0,0.0009765625,0,1,3,0
83.742,0.001003,-0.046875,0.015625,-0.03710938,-1.09375,3.09375,17.61719,-0.01757812,0.005859375,-0.015625,-0.005859375,0.03125,0,0.0009765625,-0.005249023,-0.01342773,0,0,0.0002441406,0.1897583,4.073,0,0,0,0.1566162,nan,2,1.089,1,0,0.1755676,0.2053833,0.1669922,0.2111511,0,0.0009765625,0,1,3,0
83.752,0.001011,0.03515625,-0.04296875,-0.0546875,-3.21875,4.117188,9.039062,0.01757812,-0.02929688,-0.06640625,-0.005859375,0.03125,0,0.0008544922,-0.005249023,-0.01403809,0,0,0.0002441406,0.1914673,4.073,0,0,0,0.1586304,nan,2,1.099,1,0,0.1573486,0.2445374,0.1502075,0.2137146,0,0.0009765625,0,1,3,0
83.762,0.001005,0.1015625,-0.05273438,-0.03515625,-2.640625,-7.210938,8.273438,0.03515625,-0.02734375,-0.01953125,-0.005859375,0.03320312,0,0.001098633,-0.005493164,-0.0144043,0,0,0.0002441406,0.1931458,4.073,0,0,0,0.1605835,nan,2,1.109,1,0,0.2107849,0.1911011,0.2106628,0.1600342,0,0.001953125,0,1,3,0
83.771,0.001061,0.02929688,-0.0234375,-0.01953125,0.9296875,1.023438,11.67969,0.046875,-0.0234375,-0.01757812,-0.0078125,0.03515625,0,0.001220703,-0.005737305,-0.01452637,0,0,0.0002441406,0.1946411,4.073,0,0,0,0.1624146,nan,2,1.118,1,0,0.1777954,0.2210388,0.1854248,0.1943359,0,0.001953125,0,1,3,0
83.781,0.001027,-0.02148438,0.02148438,-0.03515625,-0.671875,-0.265625,14.14844,0.001953125,-0.001953125,-0.01757812,-0.0078125,0.03515625,0,0.001464844,-0.005859375,-0.01464844,0,0,0.0002441406,0.1963501,4.073,0,0,0,0.1644287,nan,2,1.128,1,0,0.1899719,0.207489,0.1806335,0.2072754,0,0.001953125,0,1,3,0
83.791,0.001013,-0.234375,0.09375,-0.0390625,-3.007812,3.320312,6.945312,-0.1464844,0.05859375,-0.04882812,-0.005859375,0.03515625,0,0.001098633,-0.005737305,-0.01513672,0,0,0.0002441406,0.1980286,4.073,0,0,0,0.1663818,nan,2,1.138,1,0,0.2052917,0.1723633,0.1650085,0.2494202,0,0.001953125,0,1,3,0
83.802,0.001008,-0.2480469,0.08984375,0.078125,-3.109375,1.890625,14.45312,-0.08398438,0.046875,0.00390625,-0.001953125,0.03125,0,0.0002441406,-0.005249023,-0.01550293,0,0,0.0002441406,0.199707,4.073,0,0,0,0.168396,nan,2,1.148,1,0,0.2828064,0.1136475,0.2651672,0.137207,0,0.001953125,0,1,3,0
83.812,0.001013,0.03320312,-0.01953125,-0.01953125,-0.5546875,-0.84375,11.53906,0.01367188,-0.0234375,-0.01953125,-0.001953125,0.03125,0,0.0003662109,-0.005371094,-0.015625,0,0,0.0002441406,0.2013855,4.073,0,0,0,0.1704102,nan,2,1.158,1,0,0.1981506,0.2203064,0.18396,0.203125,0,0.001953125,0,1,3,0
83.822,0.001013,0.00390625,-0.00390625,-0.08398438,-2.609375,1.953125,15.07812,-0.00390625,0.0078125,-0.05664062,-0.00390625,0.03125,0,0.0004882812,-0.005249023,-0.01586914,0,0,0.0002441406,0.203064,4.073,0,0,0,0.1724243,nan,2,1.169,1,0,0.1446228,0.2683105,0.1333618,0.2660217,0,0.001953125,0,1,3,0
83.832,0.001013,-0.1074219,-0.01367188,0.0390625,0.53125,0.890625,14.71094,-0.04101562,-0.01953125,-0.02734375,-0.001953125,0.03125,0,0.0003662109,-0.005126953,-0.01660156,0,0,0.0002441406,0.2047729,4.073,0,0,0,0.1743774,nan,2,1.179,1,0,0.2840576,0.1438599,0.2502441,0.1408691,0,0.001953125,0,1,3,0
83.842,0.001014,-0.359375,0.125,0.03710938,-0.4609375,7.164062,6.945312,-0.1445312,0.05273438,0.02929688,0,0.03125,0,0,-0.005249023,-0.01635742,0,0,0.0002441406,0.206604,4.073,0,0,0,0.1765747,nan,2,1.189,1,0,0.2613525,0.1304016,0.2212524,0.2134399,0,0.001953125,0,1,3,0.4920635
83.852,0.001018,-0.03320312,0.00390625,-0.001953125,-1.28125,6.921875,15.88281,-0.0234375,-0.02734375,0.01171875,0.005859375,0.03125,0,-0.0009765625,-0.005249023,-0.01623535,0,0,0.0002441406,0.2082825,4.073,0,0,0,0.1785889,nan,2,1.199,1,0,0.2023621,0.2328796,0.2001038,0.1978455,0,0.001953125,0,1,3,0
83.862,0.001017,-0.1191406,0.015625,-0.0859375,0.6015625,-5.328125,5.164062,-0.1074219,0.02734375,-0.05273438,0.009765625,0.02929688,0,-0.001586914,-0.005004883,-0.01635742,0,0,0.0002441406,0.2099915,4.073,0,0,0,0.180603,nan,2,1.209,1,0,0.1347351,0.2870178,0.101593,0.3165894,0,0.001953125,0,1,3,0
83.872,0.001012,0.0390625,-0.0234375,0.07226562,0.859375,-3.382812,6.085938,0.02539062,-0.005859375,0.0078125,0.01171875,0.02929688,0,-0.001831055,-0.004760742,-0.0168457,0,0,0.0002441406,0.2116699,4.073,0,0,0,0.1826172,nan,2,1.219,1,0,0.3052368,0.1350403,0.3074036,0.09896851,0,0.001953125,0,1,3,0
83.881,0.001007,0.0703125,0.1425781,0.04101562,-0.3515625,8.390625,10.6875,0.046875,0.02539062,0.02734375,0.009765625,0.02929688,0,-0.001586914,-0.004760742,-0.01647949,0,0,0.0002441406,0.2131958,4.073,0,0,0,0.1843872,nan,2,1.228,1,0,0.2219238,0.1980896,0.2442322,0.1884766,0,0.001953125,0,1,3,0
83.891,0.001004,0.2480469,-0.0390625,-0.02734375,-1.976562,-1.140625,9.898438,0.06054688,0.06640625,0.00390625,0.01171875,0.0234375,0,-0.002075195,-0.00402832,-0.01599121,0,0,0.0002441406,0.2148743,4.073,0,0,0,0.1864014,nan,2,1.238,1,0,0.1190491,0.3139954,0.158905,0.2675476,0,0.001953125,0,1,3,0
83.902,0.001004,-0.02148438,-0.0625,0.09960938,-1.507812,-1.820312,13.1875,0.05859375,-0.015625,0.0625,0.005859375,0.02539062,0,-0.0008544922,-0.004150391,-0.01574707,0,0,0.0002441406,0.2165527,4.073,0,0,0,0.1884155,nan,2,1.248,1,0,0.3026123,0.1453857,0.2799377,0.1382751,0,0.001953125,0,1,3,0
83.912,0.00105,0.04492188,-0.01367188,0.1582031,-0.890625,-4.984375,5.828125,0.05273438,-0.02148438,0.1445312,0.001953125,0.02539062,0,-0.0003662109,-0.004394531,-0.01464844,0,0,0.0002441406,0.2182312,4.073,0,0,0,0.1904297,nan,2,1.258,1,0,0.3320618,0.1157532,0.327301,0.09780884,0,0.001953125,0,1,3,0
83.922,0.001011,-0.05664062,-0.02148438,0.1542969,2.078125,-5.40625,11.59375,-0.03515625,0.01171875,0.1835938,0.001953125,0.02539062,0,-0.0002441406,-0.004272461,-0.01281738,0,0,0.0002441406,0.2199097,4.073,0,0,0,0.1923828,nan,2,1.269,1,0,0.3128967,0.1322937,0.2860107,0.1484375,0,0.001953125,0,1,3,0
83.932,0.001036,0.09765625,-0.0078125,0.1015625,0.3203125,1.671875,8.804688,-0.03515625,0.009765625,0.15625,0.00390625,0.02539062,0,-0.0007324219,-0.004150391,-0.01098633,0,0,0.0002441406,0.2215881,4.073,0,0,0,0.194397,nan,2,1.279,1,0,0.2171326,0.2331238,0.2114868,0.2246399,0,0.001953125,0,1,3,0
83.942,0.001015,0.1113281,0.07617188,0.0625,3.695312,-4.148438,12.64062,0.03320312,0.009765625,0.0703125,0.005859375,0.0234375,0,-0.0008544922,-0.00390625,-0.009887695,0,0,0.0002441406,0.2234497,4.073,0,0,0,0.1965942,nan,2,1.289,1,0,0.1618958,0.290802,0.178833,0.2622681,0,0.001953125,0,1,3,0
83.952,0.001006,-0.001953125,0.0390625,0.06054688,0.328125,3.882812,9.765625,-0.009765625,0.02539062,0.05078125,0.005859375,0.0234375,0,-0.0009765625,-0.00378418,-0.009399414,0,0,0.0002441406,0.2251282,4.073,0,0,0,0.1986084,nan,2,1.299,1,0,0.2211914,0.2272644,0.2197876,0.2323303,0,0.001953125,0,1,3,0
83.962,0.001002,0.04101562,0.02929688,0.1015625,1.210938,-1.226562,4.890625,0,0.0078125,0.08203125,0.005859375,0.0234375,0,-0.0008544922,-0.00378418,-0.008666992,0,0,0.0002441406,0.2268372,4.073,0,0,0,0.2006226,nan,2,1.309,1,0,0.283844,0.1704712,0.2826843,0.1703186,0,0.001953125,0,1,3,0
83.972,0.001005,-0.0546875,0.03710938,0.1875,0.3671875,5.0625,10.92188,-0.01953125,0.01757812,0.1640625,0.00390625,0.02148438,0,-0.0007324219,-0.00378418,-0.007446289,0,0,0.0002441406,0.2285156,4.073,0,0,0,0.2025757,nan,2,1.319,1,0,0.3698425,0.08557129,0.3568726,0.1017456,0,0.001953125,0,1,3,0
83.982,0.001004,0.03320312,-0.01171875,0.1152344,0.0546875,-5.671875,14.33594,0.03515625,-0.03320312,0.1503906,0.00390625,0.0234375,0,-0.0004882812,-0.00390625,-0.005737305,0,0,0.0002441406,0.2301941,4.073,0,0,0,0.2045898,nan,2,1.329,1,0,0.2510681,0.2252808,0.2417297,0.2026978,0,0.001953125,0,1,3,0
83.991,0.001015,0.04492188,-0.07421875,0.09765625,3.835938,-4.164062,7.140625,0,-0.01367188,0.1230469,0.001953125,0.0234375,0,-0.0004882812,-0.00378418,-0.004516602,0,0,0.0002441406,0.23172,4.073,0,0,0,0.2064209,nan,2,1.338,1,0,0.2475281,0.2304382,0.2336426,0.2152405,0,0.001953125,0,1,3,0
84.001,0.001008,0.1640625,-0.08789062,0.09960938,1.484375,0.21875,5.46875,0.06054688,0.0078125,0.08203125,0.00390625,0.02148438,0,-0.0004882812,-0.003662109,-0.003540039,0,0,0.0002441406,0.2333984,4.073,0,0,0,0.208374,nan,2,1.348,1,0,0.2036743,0.2746582,0.2253418,0.2298889,0,0.001953125,0,1,3,0
84.012,0.001012,0.01367188,-0.02148438,0.2675781,1.3125,-2.132812,7.351562,-0.001953125,-0.00390625,0.2265625,0.001953125,0.02148438,0,-0.0004882812,-0.003540039,-0.001831055,0,0,0.0002441406,0.2350769,4.073,0,0,0,0.2103882,nan,2,1.358,1,0,0.4149475,0.07064819,0.4011536,0.05355835,0,0.001953125,0,1,3,0
84.022,0.001014,-0.001953125,0.009765625,0.2363281,-3.007812,1.265625,11.47656,0.009765625,-0.01171875,0.2285156,0.001953125,0.02148438,0,-0.0003662109,-0.003540039,0.0006103516,0,0,0.0002441406,0.2367554,4.073,0,0,0,0.2124023,nan,2,1.369,1,0,0.3169861,0.1689148,0.3063965,0.1547546,0,0.001953125,0,1,3,0
84.032,0.001014,-0.005859375,-0.0703125,0.2265625,1.6875,1.015625,9.257812,-0.01171875,-0.02734375,0.1972656,0.00390625,0.02148438,0,-0.0004882812,-0.003662109,0.002563477,0,0,0.0002441406,0.2384338,4.073,0,0,0,0.2144165,nan,2,1.379,1,0,0.3142395,0.1806946,0.294281,0.1645813,0,0.001953125,0,1,3,0
84.042,0.001014,-0.0390625,0.001953125,0.1523438,0.3984375,0.90625,6.5,-0.005859375,-0.03515625,0.1738281,0.001953125,0.0234375,0,-0.0004882812,-0.00390625,0.004516602,0,0,0.0002441406,0.2401428,4.073,0,0,0,0.2164307,nan,2,1.389,1,0,0.2600403,0.233429,0.2395935,0.2274475,0,0.001953125,0,1,3,0
84.052,0.001011,0.01757812,-0.00390625,0.1503906,-0.65625,-3.03125,6.734375,-0.0078125,0.009765625,0.1757812,0.00390625,0.0234375,0,-0.0006103516,-0.00390625,0.006469727,0,0,0.0002441406,0.2419739,4.073,0,0,0,0.2186279,nan,2,1.399,1,0,0.2700806,0.2159729,0.2707825,0.2110596,0,0.001953125,0,1,3,0
84.062,0.001035,-0.005859375,-0.02734375,0.1621094,-0.2109375,-2.007812,9.148438,-0.03515625,-0.0546875,0.1738281,0.005859375,0.02539062,0,-0.0009765625,-0.004272461,0.008300781,0,0,0.0002441406,0.2436523,4.073,0,0,0,0.2205811,nan,2,1.409,1,0,0.2891235,0.217926,0.2637634,0.2038574,0,0.001953125,0,1,3,0
84.072,0.001004,0.03320312,-0.01757812,0.1640625,-0.125,3.515625,12.03906,-0.01367188,0.001953125,0.1796875,0.005859375,0.02734375,0,-0.001098633,-0.004394531,0.01013184,0,0,0.0002441406,0.2453613,4.073,0,0,0,0.2225952,nan,2,1.419,1,0,0.2992554,0.1934814,0.2955627,0.1931152,0,0.001953125,0,1,3,0
84.082,0.001043,-0.06835938,0.08203125,0.2011719,2.109375,-1.945312,4.148438,-0.01953125,0.03710938,0.1640625,0.005859375,0.02734375,0,-0.001098633,-0.004394531,0.01159668,0,0,0.0002441406,0.2470398,4.051,0,0,0,0.2246094,nan,2,1.429,1,0,0.3182068,0.1641235,0.3206787,0.1851196,0,0.001953125,0,1,3,0
84.091,0.00102,0.02539062,-0.02148438,0.1660156,-1.429688,0.9453125,7.9375,0.001953125,0.00390625,0.1933594,0.0078125,0.02539062,0,-0.001220703,-0.004272461,0.01342773,0,0,0.0002441406,0.2485352,4.051,0,0,0,0.2263794,nan,2,1.438,1,0,0.3117065,0.1954041,0.3032227,0.1838989,0,0.001953125,0,1,3,0
84.102,0.001033,0.05078125,-0.0859375,0.1445312,-1.914062,-1.296875,14.03125,-0.0078125,-0.046875,0.1679688,0.0078125,0.02539062,0,-0.001220703,-0.004272461,0.01525879,0,0,0.0002441406,0.2502441,4.051,0,0,0,0.2283936,nan,2,1.448,1,0,0.2815857,0.2520752,0.2492676,0.2180176,0,0.001953125,0,1,3,0
84.112,0.000957,-0.0625,0.01953125,0.2441406,1.40625,-1.414062,5.5,-0.00390625,0.02734375,0.2167969,0.0078125,0.02539062,0,-0.001098633,-0.004150391,0.01708984,0,0,0.0002441406,0.2519226,4.051,0,0,0,0.2304077,nan,2,1.458,1,0,0.3661499,0.1372375,0.3595886,0.1446838,0,0.001953125,0,1,3,0
84.122,0.000951,0.06054688,0,0.234375,1.132812,-4.273438,10.14844,0.03320312,0.001953125,0.1953125,0.0078125,0.0234375,0,-0.001220703,-0.00402832,0.01916504,0,0,0.0002441406,0.2536011,4.051,0,0,0,0.2324219,nan,2,1.468,1,0,0.3172607,0.1989746,0.3244934,0.1737061,0,0.001953125,0,1,3,0
84.132,0.001008,-0.05664062,0.04882812,0.1699219,-0.59375,8.289062,7.328125,-0.01953125,0.01367188,0.1777344,0.005859375,0.02539062,0,-0.0009765625,-0.004150391,0.02111816,0,0,0.0002441406,0.2552795,4.051,0,0,0,0.234375,nan,2,1.479,1,0,0.2918091,0.2154236,0.2790527,0.2348938,0,0.001953125,0,1,3,0
84.142,0.001059,0.01953125,0.015625,0.1738281,0.4453125,-1.617188,7.398438,-0.01171875,-0.01757812,0.1660156,0.00390625,0.02539062,0,-0.0007324219,-0.004150391,0.02282715,0,0,0.0002441406,0.2571411,4.051,0,0,0,0.2366333,nan,2,1.489,1,0,0.2993469,0.2279053,0.2762756,0.2250366,0,0.001953125,0,1,3,0
84.152,0.001007,0.04492188,0.0234375,0.1523438,0.6875,1.0625,10.01562,0.01171875,-0.02148438,0.1894531,0.00390625,0.02539062,0,-0.0007324219,-0.004394531,0.02478027,0,0,0.0002441406,0.2588196,4.051,0,0,0,0.2385864,nan,2,1.499,1,0,0.3031006,0.2240906,0.3024902,0.2055969,0,0.001953125,0,1,3,0.2857143
84.162,0.00095,0.15625,-0.2089844,0.1054688,-2.21875,-0.8125,14.74219,0.04296875,-0.05859375,0.1074219,0.00390625,0.02734375,0,-0.0006103516,-0.004516602,0.02636719,0,0,0.0002441406,0.260498,4.051,0,0,0,0.2406006,nan,2,1.509,1,0,0.2254639,0.3330078,0.207489,0.2760925,0,0.002929688,0,1,3,0
84.172,0.001004,0.0390625,0.06640625,0.1953125,-1.125,-1.257812,14.125,0.06054688,0.02929688,0.1621094,0,0.02734375,0,-0.0001220703,-0.004394531,0.02770996,0,0,0.0002441406,0.262207,4.051,0,0,0,0.2426147,nan,2,1.519,1,0,0.3385925,0.1801758,0.3570251,0.1729431,0,0.002929688,0,1,3,0
84.182,0.001004,-0.1074219,0.06835938,0.1347656,1.382812,0.65625,4.9375,-0.001953125,0.07617188,0.1601562,-0.001953125,0.02539062,0,0.0002441406,-0.004150391,0.02954102,0,0,0.0002441406,0.2638855,4.051,0,0,0,0.2446289,nan,2,1.529,1,0,0.2866211,0.222229,0.2904053,0.2562561,0,0.002929688,0,1,3,0
84.191,0.001016,-0.1542969,0.140625,0.06054688,-2.320312,3.296875,9.929688,-0.05078125,0.09570312,0.1054688,0,0.02148438,0,-0.0001220703,-0.003540039,0.03076172,0,0,0.0002441406,0.2653809,4.051,0,0,0,0.2463989,nan,2,1.538,1,0,0.2406616,0.2716064,0.2394714,0.309845,0,0.002929688,0,1,3,0
84.201,0.001013,-0.001953125,-0.1757812,0.1054688,-2.75,7.5,19.70312,-0.03710938,-0.05664062,0.09179688,0.00390625,0.02148438,0,-0.0006103516,-0.003417969,0.03161621,0,0,0.0002441406,0.2670898,4.051,0,0,0,0.2484131,nan,2,1.548,1,0,0.3119812,0.2678223,0.2623291,0.2261963,0,0.002929688,0,1,3,0
84.212,0.000981,-0.1230469,0.0546875,0.05273438,1.007812,2.59375,14.84375,-0.0546875,0.02148438,0.08203125,0.005859375,0.02148438,0,-0.001098633,-0.003540039,0.03259277,0,0,0.0002441406,0.2687683,4.051,0,0,0,0.2504272,nan,2,1.558,1,0,0.2753296,0.2564392,0.2649536,0.2783203,0,0.002929688,0,1,3,0
84.222,0.001011,0.06445312,-0.02148438,0.09570312,1.953125,-4.65625,10.25,-0.02148438,-0.00390625,0.08398438,0.009765625,0.01953125,0,-0.001708984,-0.003417969,0.0333252,0,0,0.0002441406,0.2704468,4.051,0,0,0,0.2523804,nan,2,1.568,1,0,0.3098755,0.2437744,0.3043213,0.2238464,0,0.002929688,0,1,3,0
84.232,0.001016,0.05078125,0.1484375,0.1582031,0.734375,-5.796875,10.51562,0.02539062,0.00390625,0.1367188,0.009765625,0.02148438,0,-0.001586914,-0.003662109,0.0345459,0,0,0.0002441406,0.2721252,4.051,0,0,0,0.2543945,nan,2,1.579,1,0,0.3479004,0.193634,0.3609619,0.1860352,0,0.002929688,0,1,3,0
84.242,0.00102,-0.140625,-0.005859375,0.09375,-1.359375,-4.609375,4.710938,-0.0234375,0.01953125,0.09375,0.009765625,0.01953125,0,-0.001464844,-0.003295898,0.03564453,0,0,0.0002441406,0.2738037,4.051,0,0,0,0.2564087,nan,2,1.589,1,0,0.2940063,0.2595215,0.2691345,0.272583,0,0.002929688,0,1,3,0
84.252,0.001061,0.0703125,-0.05664062,0.05664062,-0.9296875,-2.757812,7.703125,0.0703125,-0.03710938,0.06640625,0.005859375,0.02148438,0,-0.001098633,-0.003417969,0.03649902,0,0,0.0002441406,0.2756653,4.051,0,0,0,0.258606,nan,2,1.599,1,0,0.2627258,0.3092346,0.2599792,0.2707214,0,0.002929688,0,1,3,0
84.262,0.001023,0.0703125,-0.1152344,0.00390625,-1.125,-0.6875,13.77344,0.02539062,-0.0234375,0.0078125,0.00390625,0.02148438,0,-0.0007324219,-0.003662109,0.03686523,0,0,0.0002441406,0.2773438,4.051,0,0,0,0.2606201,nan,2,1.609,1,0,0.2247925,0.3444519,0.2122803,0.3278809,0,0.002929688,0,1,3,0
84.272,0.001042,0.07617188,-0.06640625,-0.046875,-1.226562,3.085938,14.71875,0.03125,-0.0078125,-0.02734375,0.00390625,0.02148438,0,-0.0006103516,-0.00378418,0.03674316,0,0,0.0002441406,0.2790222,4.051,0,0,0,0.2625732,nan,2,1.619,1,0,0.2426453,0.3266296,0.2434082,0.3034363,0,0.002929688,0,1,3,0
84.282,0.001012,0.02539062,0.06445312,0.02734375,-1.046875,5.34375,10.52344,-0.04492188,0.06445312,0.001953125,0.00390625,0.02148438,0,-0.0006103516,-0.00378418,0.03662109,0,0,0.0002441406,0.2807312,4.051,0,0,0,0.2645874,nan,2,1.629,1,0,0.2952271,0.2462463,0.2995911,0.2818298,0,0.002929688,0,1,3,0
84.291,0.001008,-0.0546875,0.06445312,0.1171875,0.7734375,0.3515625,8.78125,-0.009765625,0.005859375,0.0703125,0.00390625,0.02148438,0,-0.0007324219,-0.003540039,0.03710938,0,0,0.0002441406,0.2822266,4.051,0,0,0,0.2664185,nan,2,1.638,1,0,0.3612366,0.2146912,0.3486938,0.2042847,0,0.002929688,0,1,3,0
84.302,0.001006,0,0.03320312,0.2050781,0.3828125,-8.476562,12.50781,0.02539062,0.05664062,0.1503906,0.00390625,0.01757812,0,-0.0006103516,-0.002929688,0.03833008,0,0,0.0002441406,0.283905,4.051,0,0,0,0.2684326,nan,2,1.648,1,0,0.3900757,0.1766968,0.3945923,0.1743469,0,0.002929688,0,1,3,0
84.312,0.001053,-0.02929688,0.01171875,-0.005859375,-1.765625,-0.4140625,6.453125,-0.06054688,0.01953125,0.06835938,0.0078125,0.015625,0,-0.001220703,-0.002685547,0.03955078,0,0,0.0002441406,0.285614,4.051,0,0,0,0.2703857,nan,2,1.658,1,0,0.2261658,0.3522949,0.2121887,0.3517761,0,0.002929688,0,1,3,0
84.322,0.001007,-0.1328125,0.08007812,0.02539062,-0.1171875,6.65625,13.66406,-0.04492188,0.0078125,-0.001953125,0.0078125,0.01757812,0,-0.001342773,-0.002929688,0.03955078,0,0,0.0002441406,0.2872925,4.051,0,0,0,0.2723999,nan,2,1.668,1,0,0.2734375,0.2962036,0.2604675,0.3190308,0,0.002929688,0,1,3,0
84.332,0.001005,-0.05664062,0.04492188,-0.0546875,1.179688,0.671875,6.945312,-0.07617188,0.01953125,-0.03710938,0.01171875,0.015625,0,-0.002075195,-0.002685547,0.03930664,0,0,0.0002441406,0.2889709,4.051,0,0,0,0.2744141,nan,2,1.679,1,0,0.2616882,0.3184204,0.2428589,0.3329163,0,0.002929688,0,1,3,0
84.342,0.001002,0.05273438,-0.0859375,-0.01367188,1.40625,-1.445312,12.47656,0.0234375,-0.02539062,-0.01757812,0.01367188,0.015625,0,-0.002197266,-0.002563477,0.03894043,0,0,0.0002441406,0.2906494,4.051,0,0,0,0.2764282,nan,2,1.689,1,0,0.3224792,0.2818604,0.3126221,0.2456665,0,0.002929688,0,1,3,0
84.352,0.001005,0.02734375,-0.02148438,-0.01367188,1.757812,0.46875,7.078125,0.001953125,-0.001953125,0,0.01171875,0.01757812,0,-0.001953125,-0.002807617,0.03894043,0,0,0.0002441406,0.292511,4.051,0,0,0,0.2786255,nan,2,1.699,1,0,0.301178,0.2864075,0.2932739,0.2891846,0,0.002929688,0,1,3,0
84.362,0.001013,-0.08203125,0.1289062,-0.02929688,0.9453125,-5.296875,6.03125,-0.02929688,0.03515625,-0.01953125,0.01367188,0.01757812,0,-0.002197266,-0.002929688,0.03881836,0,0,0.0002441406,0.2941895,4.051,0,0,0,0.2805786,nan,2,1.709,1,0,0.2675781,0.3074341,0.2686462,0.3330994,0,0.002929688,0,1,3,0
84.372,0.001009,0.0859375,-0.0625,0.05273438,-0.78125,0.1015625,7.09375,-0.001953125,-0.001953125,0.05078125,0.015625,0.015625,0,-0.002441406,-0.002685547,0.0390625,0,0,0.0002441406,0.2958679,4.051,0,0,0,0.2825928,nan,2,1.719,1,0,0.3599243,0.2482605,0.3501282,0.2251892,0,0.002929688,0,1,3,0
84.382,0.001005,0.0390625,-0.09375,0.05664062,-1.148438,2.78125,12.03125,0.009765625,-0.05273438,0.078125,0.01367188,0.01757812,0,-0.002319336,-0.002929688,0.03979492,0,0,0.0002441406,0.2975464,4.051,0,0,0,0.2846069,nan,2,1.729,1,0,0.3443909,0.275238,0.3199768,0.2506409,0,0.002929688,0,1,3,0
84.391,0.001016,-0.1230469,0.03320312,0.01953125,1.179688,-2.90625,7.8125,-0.046875,0.0078125,0.04101562,0.01367188,0.01757812,0,-0.002441406,-0.003051758,0.0402832,0,0,0.0002441406,0.2990723,4.051,0,0,0,0.286377,nan,2,1.738,1,0,0.2946472,0.3044434,0.2691956,0.3280334,0,0.002929688,0,1,3,0
84.401,0.001013,0.02929688,0.03320312,0.09179688,-0.625,1.320312,8.71875,0.01757812,0,0.08398438,0.01367188,0.01953125,0,-0.002319336,-0.003173828,0.04089355,0,0,0.0002441406,0.3007507,4.051,0,0,0,0.2883911,nan,2,1.748,1,0,0.3616943,0.2420654,0.3621521,0.2371216,0,0.002929688,0,1,3,0
84.412,0.001011,-0.1054688,-0.00390625,0.0859375,-0.125,0.921875,9.523438,-0.02148438,-0.00390625,0.09960938,0.01367188,0.01953125,0,-0.002441406,-0.003173828,0.04187012,0,0,0.0002441406,0.3024597,4.051,0,0,0,0.2904053,nan,2,1.758,1,0,0.3510132,0.2635193,0.3254089,0.2698364,0,0.002929688,0,1,3,0.4126984
84.422,0.001014,0.2246094,-0.08203125,0.04492188,0.828125,-3.179688,11.97656,0.1269531,-0.001953125,0.0703125,0.01171875,0.01757812,0,-0.001831055,-0.002929688,0.04284668,0,0,0.0002441406,0.3041382,4.051,0,0,0,0.2924194,nan,2,1.768,1,0,0.2635498,0.3634338,0.2905884,0.2989502,0,0.002929688,0,1,3,0
84.432,0.001013,0.1054688,-0.04882812,0.06054688,-1.15625,3.570312,12.5,0.08398438,-0.04296875,0.046875,0.005859375,0.01953125,0,-0.0009765625,-0.003295898,0.04333496,0,0,0.0002441406,0.3058167,4.051,0,0,0,0.2944336,nan,2,1.779,1,0,0.3162231,0.3138123,0.3082275,0.2849731,0,0.002929688,0,1,3,0
84.442,0.001013,0.03710938,0.03710938,0.09570312,1.226562,-1.609375,5.382812,0.02539062,0.01953125,0.09179688,0.00390625,0.01953125,0,-0.0004882812,-0.003295898,0.04406738,0,0,0.0002441406,0.3074951,4.051,0,0,0,0.2963867,nan,2,1.789,1,0,0.3826294,0.2289124,0.3835144,0.2349243,0,0.002929688,0,1,3,0
84.452,0.001017,0.04492188,-0.01953125,0.08007812,0.421875,-3.789062,8.796875,0.04296875,0.02148438,0.07617188,0,0.01757812,0,-0.0001220703,-0.003051758,0.04492188,0,0,0.0002441406,0.3093567,4.051,0,0,0,0.298584,nan,2,1.799,1,0,0.3268433,0.2980652,0.3284912,0.2839966,0,0.002929688,0,1,3,0.3333333
84.462,0.001019,-0.0625,0.07421875,-0.02148438,-0.9921875,3.125,11.23438,-0.03320312,0.01953125,0.03125,0,0.01953125,0,0,-0.003173828,0.04541016,0,0,0.0002441406,0.3105164,4.051,0,0,0,0.2999878,nan,2,1.809,1,0,0.2809448,0.3327332,0.2636719,0.3647766,0,0.002929688,0,1,3,0
84.472,0.001007,-0.03710938,0,-0.0078125,1.351562,-3.78125,7.09375,0.001953125,-0.01171875,-0.005859375,0,0.01953125,0,-0.0001220703,-0.003051758,0.04541016,0,0,0.0002441406,0.3105164,4.051,0,0,0,0.2999878,nan,2,1.819,1,0,0.2939453,0.341217,0.2810974,0.3258362,0,0.002929688,0,1,3,0
84.482,0.001011,-0.1054688,-0.02539062,0,-0.25,-0.1640625,7.335938,-0.0390625,0.03320312,0.0390625,0,0.01757812,0,-0.0001220703,-0.002929688,0.0456543,0,0,0.0002441406,0.3105164,4.051,0,0,0,0.2999878,nan,2,1.829,1,0,0.3500671,0.2732239,0.3276062,0.2911682,0,0.002929688,0,1,3,0
84.491,0.001007,-0.05273438,0.05664062,-0.06640625,-0.484375,0.15625,11.4375,0.001953125,0.015625,-0.03710938,0,0.01757812,0,0.0001220703,-0.002929688,0.0456543,0,0,0.0002441406,0.3105164,4.051,0,0,0,0.2999878,nan,2,1.838,1,0,0.2258301,0.3951111,0.2190247,0.4021301,0,0.002929688,0,1,3,0
84.501,0.000996,-0.05078125,0.04296875,-0.046875,1.765625,-0.5,6.007812,-0.0234375,0.0390625,-0.0390625,0,0.015625,0,0,-0.002685547,0.04528809,0,0,0.0002441406,0.3105164,4.051,0,0,0,0.2999878,nan,2,1.848,1,0,0.2814941,0.3334045,0.2752686,0.3519287,0,0.002929688,0,1,3,0
84.512,0.001004,0.1367188,0.0078125,-0.0078125,0.375,-2.796875,11.39844,0.0703125,0.01953125,-0.02929688,-0.001953125,0.015625,0,0.0003662109,-0.002563477,0.04492188,0,0,0.0002441406,0.3105164,4.051,0,0,0,0.2999878,nan,2,1.858,1,0,0.3098145,0.3173218,0.32547,0.2895203,0,0.002929688,0,1,3,0
84.522,0.000993,-0.03515625,-0.0078125,-0.06054688,-2.226562,1.601562,11.76562,-0.0078125,0.0078125,-0.0625,-0.005859375,0.01367188,0,0.0008544922,-0.002441406,0.04455566,0,0,0.0002441406,0.3105164,4.051,0,0,0,0.2999878,nan,2,1.868,1,0,0.2754211,0.3536072,0.2514343,0.3616333,0,0.002929688,0,1,3,0
84.532,0.001002,0.03710938,-0.02929688,-0.03125,-0.109375,3.5625,14.00781,-0.015625,-0.0234375,-0.0390625,-0.005859375,0.015625,0,0.0008544922,-0.002685547,0.04394531,0,0,0.0002441406,0.3105164,4.051,0,0,0,0.2999878,nan,2,1.879,1,0,0.3338318,0.2988892,0.3170471,0.2923279,0,0.002929688,0,1,3,0
84.542,0.001004,-0.001953125,0.05273438,0.04492188,1.578125,-2.132812,8.007812,-0.03320312,0.01171875,0.009765625,-0.00390625,0.015625,0,0.0006103516,-0.002685547,0.04370117,0,0,0.0002441406,0.3105164,4.051,0,0,0,0.2999878,nan,2,1.889,1,0,0.3750305,0.2445374,0.3683472,0.2542114,0,0.002929688,0,1,3,0
84.552,0.001041,0.06835938,-0.02929688,0.0546875,1.21875,-1.421875,6.34375,0.02734375,-0.01171875,0.05859375,-0.001953125,0.015625,0,0.0004882812,-0.002685547,0.04431152,0,0,0.0002441406,0.3105164,4.051,0,0,0,0.2999878,nan,2,1.899,1,0,0.3464661,0.2890625,0.3528442,0.2537231,0,0.002929688,0,1,3,0
84.562,0.000981,-0.04492188,0.03125,-0.05664062,-2.148438,-0.65625,10.32031,-0.01367188,0.01757812,-0.005859375,-0.001953125,0.015625,0,0.0003662109,-0.002685547,0.04455566,0,0,0.0002441406,0.3105164,4.051,0,0,0,0.2999878,nan,2,1.909,1,0,0.2423706,0.377533,0.237915,0.3842468,0,0.002929688,0,1,3,0
84.572,0.001002,0.08984375,-0.0234375,0.01757812,1.09375,1.3125,7.132812,-0.0390625,0.015625,0.005859375,0,0.015625,0,-0.0001220703,-0.002441406,0.04455566,0,0,0.0002441406,0.3105164,4.051,0,0,0,0.2999878,nan,2,1.919,1,0,0.3244934,0.3039551,0.317749,0.295929,0,0.002929688,0,1,3,0
84.581,0.000981,-0.05664062,0.009765625,-0.04882812,0.3203125,-3.382812,11.11719,-0.02929688,0.01367188,-0.01953125,0.001953125,0.01367188,0,-0.0004882812,-0.002441406,0.04455566,0,0,0.0002441406,0.3105164,4.051,0,0,0,0.2999878,nan,2,1.928,1,0,0.2745056,0.352417,0.2684021,0.3467712,0,0.002929688,0,1,3,0
84.591,0.001014,-0.1113281,-0.001953125,-0.06054688,-0.921875,5.28125,12.58594,-0.009765625,-0.001953125,-0.04296875,0,0.015625,0,-0.0001220703,-0.002563477,0.04418945,0,0,0.0002441406,0.3105164,4.051,0,0,0,0.2999878,nan,2,1.938,1,0,0.2798157,0.3469238,0.2554932,0.3598633,0,0.002929688,0,1,3,0
84.601,0.001014,-0.09375,-0.01171875,-0.0390625,0.1953125,1.789062,11.53906,-0.0625,0.009765625,-0.04296875,0.00390625,0.015625,0,-0.0006103516,-0.002441406,0.04370117,0,0,0.0002441406,0.3105164,4.051,0,0,0,0.2999878,nan,2,1.948,1,0,0.3088379,0.316864,0.2874756,0.328949,0,0.002929688,0,1,3,0
84.612,0.001013,0.05078125,-0.015625,-0.04296875,1.726562,-1.3125,7.945312,-0.01757812,0.001953125,-0.04296875,0.0078125,0.015625,0,-0.001220703,-0.002441406,0.04333496,0,0,0.0002441406,0.3105164,4.051,0,0,0,0.2999878,nan,2,1.958,1,0,0.2874146,0.3411255,0.2909851,0.3225708,0,0.002929688,0,1,3,0
84.622,0.000969,0.04492188,0.005859375,-0.005859375,1.234375,-1.640625,7.226562,0.0546875,0.00390625,0.015625,0.005859375,0.015625,0,-0.0008544922,-0.002441406,0.04333496,0,0,0.0002441406,0.3105164,4.051,0,0,0,0.2999878,nan,2,1.968,1,0,0.3363953,0.2903137,0.34729,0.2681274,0,0.002929688,0,1,3,0
84.632,0.001013,-0.001953125,-0.0078125,-0.02539062,-2.320312,-2.265625,11.40625,0.03320312,-0.01367188,-0.01367188,0.001953125,0.015625,0,-0.0003662109,-0.002563477,0.04333496,0,0,0.0002441406,0.3105164,4.051,0,0,0,0.2999878,nan,2,1.979,1,0,0.2903137,0.3431091,0.2789001,0.3297729,0,0.002929688,0,1,3,0
84.642,0.001013,0.009765625,0.02539062,-0.02929688,0.8984375,2.164062,8.234375,0.03320312,-0.02539062,-0.04296875,0.001953125,0.015625,0,-0.0002441406,-0.002563477,0.04284668,0,0,0.0002441406,0.3105164,4.051,0,0,0,0.2999878,nan,2,1.989,1,0,0.2966919,0.3404236,0.2867126,0.3182983,0,0.002929688,0,1,3,0
84.652,0.001016,-0.07617188,0.03320312,-0.01367188,1.03125,-0.671875,10.375,-0.001953125,-0.009765625,-0.03320312,0,0.015625,0,0,-0.002685547,0.04260254,0,0,0.0002441406,0.3105164,4.051,0,0,0,0.2999878,nan,2,1.999,1,0,0.3103638,0.3173523,0.293457,0.3209229,0,0.002929688,0,1,3,0
84.662,0.001011,-0.02539062,-0.03515625,-0.03320312,0.4453125,-1.515625,8.109375,-0.00390625,-0.005859375,-0.0390625,0,0.015625,0,0,-0.002685547,0.04223633,0,0,0.0002441406,0.3105164,4.051,0,0,0,0.2999878,nan,2,2.009,1,0,0.2961731,0.3364258,0.2812805,0.3282471,0,0.002929688,0,1,3,0
84.672,0.001014,-0.05664062,-0.001953125,-0.04101562,-1.632812,2.265625,10.71094,0.005859375,-0.0234375,-0.03515625,0,0.01757812,0,0,-0.002807617,0.04174805,0,0,0.0002441406,0.3105164,4.051,0,0,0,0.2999878,nan,2,2.019,1,0,0.3200378,0.3162231,0.3047485,0.3010864,0,0.002929688,0,1,3,0
84.682,0.001008,0.1210938,-0.01953125,0,-0.6015625,1.609375,10.84375,0.02734375,0.001953125,-0.02929688,0,0.01757812,0,0,-0.002807617,0.04138184,0,0,0.0002441406,0.3105164,4.051,0,0,0,0.2999878,nan,2,2.029,1,0,0.3375244,0.2903137,0.3417358,0.272522,0,0.002929688,0,1,3,0
84.691,0.001005,-0.0078125,0.01757812,0.0390625,2.1875,-0.375,8.625,-0.00390625,-0.015625,0.02734375,0,0.01757812,0,0.0001220703,-0.002929688,0.04138184,0,0,0.0002441406,0.3105164,4.051,0,0,0,0.2999878,nan,2,2.038,1,0,0.3766479,0.2570496,0.3593445,0.249054,0,0.002929688,0,1,3,0
84.701,0.001003,-0.05078125,-0.05273438,-0.02539062,-0.7890625,-4.929688,11,-0.02148438,-0.03125,0.0234375,0,0.01757812,0,0,-0.003051758,0.04174805,0,0,0.0002441406,0.3105164,4.051,0,0,0,0.2999878,nan,2,2.048,1,0,0.3112183,0.3291016,0.2862854,0.3155212,0,0.002929688,0,1,3,0
84.712,0.001051,0.02539062,-0.06445312,-0.005859375,-0.2734375,6.492188,15.125,-0.01757812,-0.03320312,0.015625,0.001953125,0.01953125,0,-0.0002441406,-0.003417969,0.04187012,0,0,0.0002441406,0.3105164,4.051,0,0,0,0.2999878,nan,2,2.058,1,0,0.3058167,0.3335571,0.2881165,0.3146362,0,0.002929688,0,1,3,0
84.722,0.000996,0.04882812,-0.03125,0.046875,1.273438,-2.375,6.757812,0,0.009765625,0.04101562,0.001953125,0.01953125,0,-0.0003662109,-0.003295898,0.0423584,0,0,0.0002441406,0.3105164,4.051,0,0,0,0.2999878,nan,2,2.068,1,0,0.3303528,0.2986755,0.3269348,0.2861328,0,0.002929688,0,1,3,0
84.732,0.000981,-0.1328125,-0.01367188,0.03515625,0.2265625,0.09375,8.203125,-0.03125,-0.01367188,0.0546875,0,0.01953125,0,-0.0001220703,-0.003417969,0.04284668,0,0,0.0002441406,0.3105164,4.039,0,0,0,0.2999878,nan,2,2.079,1,0,0.3518677,0.2836609,0.3137207,0.2928467,0,0.002929688,0,1,3,0
84.742,0.000967,-0.1328125,0.05273438,-0.01171875,-1.382812,-2.09375,12.0625,-0.07421875,0.01953125,0.01953125,0.00390625,0.02148438,0,-0.0007324219,-0.003417969,0.04321289,0,0,0.0002441406,0.3105164,4.039,0,0,0,0.2999878,nan,2,2.089,1,0,0.282196,0.3369446,0.2630005,0.3599854,0,0.002929688,0,1,3,0
84.752,0.001011,-0.05664062,0.06054688,-0.05273438,1.882812,0.7734375,7.945312,-0.06835938,0.03125,-0.05664062,0.009765625,0.01953125,0,-0.001464844,-0.003295898,0.04296875,0,0,0.0002441406,0.3105164,4.039,0,0,0,0.2999878,nan,2,2.099,1,0,0.2483826,0.3708496,0.239624,0.3832703,0,0.00390625,0,1,3,0
84.762,0.001002,-0.001953125,0.00390625,-0.03320312,0.9453125,-3.09375,7.570312,-0.01367188,0.04101562,-0.05859375,0.009765625,0.01757812,0,-0.001708984,-0.002929688,0.0423584,0,0,0.0002441406,0.309845,4.039,0,0,0,0.2991943,nan,2,2.109,1,0,0.2946167,0.3273315,0.291687,0.3257446,0,0.002929688,0,1,3,0
84.772,0.001005,0.07421875,-0.02148438,-0.0234375,0.1015625,-1.375,8.65625,0.046875,-0.0234375,-0.015625,0.0078125,0.01757812,0,-0.001220703,-0.002929688,0.04211426,0,0,0.0002441406,0.3081665,4.039,0,0,0,0.2971802,nan,2,2.119,1,0,0.3233337,0.3131409,0.3128967,0.2832947,0,0.00390625,0,1,3,0
84.782,0.001009,0.05859375,0.04882812,0.05273438,-1.476562,2.945312,11.80469,0.04101562,0.01171875,-0.00390625,0.005859375,0.01757812,0,-0.0008544922,-0.003051758,0.04187012,0,0,0.0002441406,0.306488,4.039,0,0,0,0.2952271,nan,2,2.129,1,0,0.3446655,0.2683716,0.3547363,0.2581482,0,0.00390625,0,1,3,0
84.791,0.001016,0.07617188,0.01171875,0.0078125,0.9296875,-1.898438,8.96875,0.04492188,0.005859375,-0.03320312,0.005859375,0.01757812,0,-0.0008544922,-0.002807617,0.04150391,0,0,0.0002441406,0.3049622,4.039,0,0,0,0.293396,nan,2,2.138,1,0,0.3027954,0.3172302,0.309082,0.290802,0,0.00390625,0,1,3,0
84.801,0.001013,-0.01953125,-0.0234375,0.02539062,1.84375,-0.7109375,6.742188,-0.01367188,-0.01171875,0.009765625,0.00390625,0.01757812,0,-0.0007324219,-0.002929688,0.04138184,0,0,0.0002441406,0.3032837,4.039,0,0,0,0.2913818,nan,2,2.148,1,0,0.355835,0.2628174,0.3339539,0.260498,0,0.00390625,0,1,3,0
84.812,0.001013,-0.05859375,0,-0.005859375,-1.234375,-4.25,10.76562,-0.01367188,0.005859375,0.0234375,0.00390625,0.01757812,0,-0.0007324219,-0.003051758,0.04162598,0,0,0.0002441406,0.3016052,4.039,0,0,0,0.2894287,nan,2,2.158,1,0,0.3134766,0.2944336,0.2999573,0.2985229,0,0.00390625,0,1,3,0
84.822,0.000962,0.04492188,-0.06640625,-0.01367188,-1.398438,7.5625,15.53906,0.02539062,-0.05078125,0.0078125,0.00390625,0.01953125,0,-0.0006103516,-0.003417969,0.04199219,0,0,0.0002441406,0.2999268,4.039,0,0,0,0.2874146,nan,2,2.168,1,0,0.2694397,0.3522949,0.2551575,0.3227539,0,0.00390625,0,1,3,0
84.832,0.001013,-0.02539062,-0.0078125,0.03320312,0.9921875,-1.898438,8.078125,-0.01953125,-0.01171875,0.01953125,0.00390625,0.02148438,0,-0.0006103516,-0.003662109,0.04211426,0,0,0.0002441406,0.2982178,4.039,0,0,0,0.2854004,nan,2,2.179,1,0,0.3173218,0.286499,0.2983398,0.2907715,0,0.00390625,0,1,3,0
84.842,0.001013,-0.02148438,-0.0078125,0.02734375,1.25,-0.78125,5.875,-0.001953125,-0.005859375,0.046875,0.00390625,0.0234375,0,-0.0006103516,-0.00378418,0.04260254,0,0,0.0002441406,0.2965393,4.039,0,0,0,0.2833862,nan,2,2.189,1,0,0.313385,0.2868347,0.3026733,0.2832947,0,0.00390625,0,1,3,0
84.852,0.001016,-0.03515625,0.009765625,-0.02929688,-1.6875,-2.375,8.15625,0.00390625,0.009765625,-0.01367188,0.00390625,0.0234375,0,-0.0006103516,-0.00378418,0.04284668,0,0,0.0002441406,0.2947083,4.039,0,0,0,0.281189,nan,2,2.199,1,0,0.2269287,0.3643799,0.223114,0.3643494,0,0.00390625,0,1,3,0
84.862,0.001018,-0.03125,-0.01757812,-0.04492188,-1.695312,4.015625,13.98438,-0.04296875,-0.009765625,-0.04296875,0.005859375,0.0234375,0,-0.0008544922,-0.00378418,0.04248047,0,0,0.0002441406,0.2929993,4.039,0,0,0,0.2791748,nan,2,2.209,1,0,0.2722473,0.3280945,0.245697,0.3259888,0,0.00390625,0,1,3,0
84.871,0.001035,0.009765625,-0.0390625,0.06445312,-0.4296875,1.75,12.85156,-0.02148438,-0.015625,0.00390625,0.0078125,0.0234375,0,-0.001220703,-0.00390625,0.04223633,0,0,0.0002441406,0.2915039,4.039,0,0,0,0.2774048,nan,2,2.218,1,0,0.3656311,0.2340088,0.3518982,0.214447,0,0.00390625,0,1,3,0
84.881,0.001064,0.08984375,-0.05273438,0.03710938,1.726562,1.65625,10.25781,0.0234375,-0.03125,0.0234375,0.0078125,0.02539062,0,-0.001220703,-0.004150391,0.0423584,0,0,0.0002441406,0.2898254,4.039,0,0,0,0.2753906,nan,2,2.228,1,0,0.3139648,0.2859497,0.3071289,0.2521973,0,0.00390625,0,1,3,0
84.892,0.001004,0.08984375,0.009765625,-0.0546875,1.0625,-5.742188,8.78125,0.06835938,0.00390625,-0.02929688,0.00390625,0.02539062,0,-0.0006103516,-0.004394531,0.0423584,0,0,0.0002441406,0.2881165,4.039,0,0,0,0.2733765,nan,2,2.238,1,0,0.2255554,0.3513184,0.2399597,0.3356628,0,0.00390625,0,1,3,0
84.902,0.001039,0.02148438,0.03710938,0.02148438,0.71875,-1.757812,8.140625,0.00390625,0.02734375,0.009765625,0.001953125,0.02539062,0,-0.0003662109,-0.004150391,0.0423584,0,0,0.0002441406,0.286438,4.039,0,0,0,0.2714233,nan,2,2.248,1,0,0.3064575,0.2696838,0.2980347,0.2715759,0,0.00390625,0,1,3,0
84.912,0.001023,0.0078125,-0.0234375,0.03125,-0.5625,-0.96875,8.945312,-0.009765625,-0.0078125,0.03710938,0.001953125,0.02539062,0,-0.0004882812,-0.00402832,0.04272461,0,0,0.0002441406,0.2847595,4.039,0,0,0,0.2694092,nan,2,2.258,1,0,0.3152466,0.2713623,0.2967529,0.2556458,0,0.00390625,0,1,3,0
84.922,0.000957,0.05859375,0.015625,-0.01367188,-2.445312,2.648438,9.289062,0.01367188,0.015625,-0.001953125,0.001953125,0.02539062,0,-0.0002441406,-0.004150391,0.04296875,0,0,0.0002441406,0.2830811,4.039,0,0,0,0.267395,nan,2,2.268,1,0,0.245575,0.3207092,0.2474976,0.318512,0,0.00390625,0,1,3,0.2857143
84.932,0.001006,-0.04296875,0.0390625,0.01757812,-1.84375,4.15625,11.00781,-0.015625,-0.01367188,-0.005859375,0.001953125,0.02539062,0,-0.0003662109,-0.004394531,0.04284668,0,0,0.0002441406,0.2814026,4.039,0,0,0,0.2653809,nan,2,2.279,1,0,0.2933044,0.2805176,0.2786255,0.2731018,0,0.00390625,0,1,3,0
84.942,0.001004,0.015625,0.0078125,0.04296875,-0.1875,0.921875,12.98438,-0.00390625,-0.02929688,0.01953125,0.001953125,0.02734375,0,-0.0004882812,-0.004516602,0.04284668,0,0,0.0002441406,0.2796936,4.039,0,0,0,0.2634277,nan,2,2.289,1,0,0.3265991,0.2500305,0.3106995,0.2314758,0,0.00390625,0,1,3,0
84.952,0.000948,0.02734375,0.078125,-0.08789062,-0.4921875,4.664062,13.99219,-0.01953125,0.0390625,-0.04296875,0.00390625,0.02734375,0,-0.0006103516,-0.004516602,0.04284668,0,0,0.0002441406,0.2778625,4.039,0,0,0,0.2611694,nan,2,2.299,1,0,0.1777649,0.3692932,0.183197,0.381134,0,0.00390625,0,1,3,0
84.962,0.001003,-0.1523438,0.171875,0.01367188,0.5234375,0.9375,10.00781,-0.08398438,0.1015625,0.0078125,0.005859375,0.02539062,0,-0.0008544922,-0.004272461,0.04260254,0,0,0.0002441406,0.2761536,4.039,0,0,0,0.2592163,nan,2,2.309,1,0,0.3352051,0.1842957,0.3328247,0.2523804,0,0.00390625,0,1,3,0.3650794
84.972,0.001024,-0.009765625,-0.05273438,-0.015625,1.421875,-0.625,12.17188,-0.01757812,-0.015625,-0.015625,0.0078125,0.0234375,0,-0.001220703,-0.00402832,0.04248047,0,0,0.0002441406,0.2744751,4.039,0,0,0,0.2572021,nan,2,2.319,1,0,0.2864075,0.2889404,0.2592163,0.2633667,0,0.00390625,0,1,3,0
84.982,0.001006,0.001953125,0.01367188,-0.0234375,1.757812,2.09375,5.789062,-0.05078125,0.04882812,-0.02929688,0.009765625,0.0234375,0,-0.001586914,-0.00390625,0.04223633,0,0,0.0002441406,0.2727966,4.039,0,0,0,0.255188,nan,2,2.329,1,0,0.2564697,0.2816467,0.2531128,0.2999878,0,0.00390625,0,1,3,0
84.991,0.001014,0.04492188,-0.03710938,-0.09375,0.7421875,-4.085938,9.71875,0.04492188,-0.046875,-0.0703125,0.0078125,0.02539062,0,-0.001342773,-0.004150391,0.04174805,0,0,0.0002441406,0.2712708,4.039,0,0,0,0.253418,nan,2,2.338,1,0,0.2209778,0.3476562,0.2090759,0.3074036,0,0.00390625,0,1,3,0
85.001,0.001008,0.1367188,-0.03125,0.02929688,2.601562,1.304688,8.296875,0.03710938,-0.02929688,0.009765625,0.00390625,0.02734375,0,-0.0008544922,-0.004516602,0.04138184,0,0,0.0002441406,0.2695923,4.039,0,0,0,0.2514038,nan,2,2.348,1,0,0.343811,0.2079773,0.3349609,0.1916504,0,0.00390625,0,1,3,0
85.011,0.001013,0.1503906,0.01953125,0.08398438,1.625,-6.953125,5.429688,0.1386719,0,0.08203125,0,0.02929688,0,0,-0.004760742,0.04187012,0,0,0.0002441406,0.2679138,4.039,0,0,0,0.2493896,nan,2,2.358,1,0,0.3487549,0.190033,0.3829346,0.1499329,0,0.00390625,0,1,3,0
85.022,0.001013,-0.07617188,0.05664062,0.03125,0.953125,-6.507812,7.140625,-0.03320312,-0.01953125,0.04101562,0,0.02929688,0,0,-0.005004883,0.04248047,0,0,0.0002441406,0.2662354,4.039,0,0,0,0.2473755,nan,2,2.368,1,0,0.2601929,0.2827148,0.2325134,0.2894897,0,0.00390625,0,1,3,0.5555556
85.032,0.001013,0.1230469,0.015625,0.08984375,-1.945312,0.7734375,9.96875,0.02929688,-0.01757812,0.05664062,0,0.03125,0,-0.0001220703,-0.005004883,0.04284668,0,0,0.0002441406,0.2645569,4.039,0,0,0,0.2454224,nan,2,2.379,1,0,0.3102722,0.2368164,0.3123474,0.198761,0,0.00390625,0,1,3,0.1111111
85.042,0.001013,0.1132812,-0.1035156,0.02929688,-0.90625,9.507812,15.15625,0.03710938,-0.09960938,0.05078125,0,0.03320312,0,0,-0.005493164,0.0435791,0,0,0.0002441406,0.2628479,4.039,0,0,0,0.2434082,nan,2,2.389,1,0,0.2640381,0.308075,0.2353821,0.243927,0,0.00390625,0,1,3,0
85.052,0.001013,0.046875,-0.01953125,-0.00390625,-0.4609375,3.5,11.44531,0.00390625,0.00390625,0.02148438,-0.001953125,0.03320312,0,0.0002441406,-0.005493164,0.04394531,0,0,0.0002441406,0.2611694,4.039,0,0,0,0.241394,nan,2,2.399,1,0,0.2355652,0.2966309,0.2223511,0.2901611,0,0.00390625,0,1,3,0
85.062,0.001011,0.02734375,-0.01367188,0.03515625,0.1875,1.734375,10.21875,0.0078125,-0.01171875,0.02929688,-0.001953125,0.03320312,0,0.0003662109,-0.005615234,0.04418945,0,0,0.0002441406,0.2593384,4.039,0,0,0,0.2391968,nan,2,2.409,1,0,0.2865906,0.2479553,0.2745056,0.228241,0,0.004882812,0,1,3,0
85.072,0.001015,0.02148438,-0.03320312,-0.04296875,0.609375,-0.921875,12.60156,0.01757812,-0.01171875,-0.01367188,-0.001953125,0.03320312,0,0.0004882812,-0.005615234,0.04431152,0,0,0.0002441406,0.2576294,4.039,0,0,0,0.2371826,nan,2,2.419,1,0,0.2068176,0.323761,0.1977539,0.3022156,0,0.004882812,0,1,3,0
85.082,0.001013,0.05273438,0.0078125,-0.02929688,1.828125,2.039062,9.640625,-0.0390625,0.06054688,-0.03320312,0,0.03125,0,0.0001220703,-0.005371094,0.04406738,0,0,0.0002441406,0.2559509,4.039,0,0,0,0.2351685,nan,2,2.429,1,0,0.2311401,0.2782288,0.2289429,0.2855225,0,0.004882812,0,1,3,0
85.092,0.001062,-0.04101562,0.02929688,-0.005859375,0.1953125,3.75,9.664062,0.0390625,-0.01953125,-0.01171875,-0.00390625,0.03320312,0,0.0006103516,-0.005493164,0.04370117,0,0,0.0002441406,0.2542725,4.039,0,0,0,0.2332153,nan,2,2.439,1,0,0.2854309,0.2410889,0.2698059,0.2207336,0,0.004882812,0,1,3,0
85.102,0.001002,0.04101562,0.1054688,0.06054688,0.3515625,-2.210938,11.49219,0.001953125,0.00390625,0.02734375,-0.00390625,0.03320312,0,0.0007324219,-0.005615234,0.04394531,0,0,0.0002441406,0.2527466,4.039,0,0,0,0.2313843,nan,2,2.448,1,0,0.2972412,0.2119141,0.2938843,0.2079773,0,0.004882812,0,1,3,0
85.112,0.00097,0.05273438,-0.01757812,0.04492188,1.40625,2.4375,16.1875,-0.0390625,0.0234375,0.06640625,0,0.03125,0,0.0001220703,-0.005249023,0.04443359,0,0,0.0002441406,0.2510681,4.039,0,0,0,0.2293701,nan,2,2.458,1,0,0.2940063,0.2211304,0.2826538,0.2065125,0,0.004882812,0,1,3,0
85.122,0.001003,0.0625,-0.01757812,0.0546875,1.226562,0.4765625,10.30469,0.005859375,-0.001953125,0.05664062,0,0.03125,0,-0.0001220703,-0.005249023,0.04504395,0,0,0.0002441406,0.2493896,4.039,0,0,0,0.227417,nan,2,2.468,1,0,0.2658997,0.2476196,0.2635498,0.2204895,0,0.004882812,0,1,3,0
85.132,0.001003,-0.07421875,0.02734375,-0.04492188,2.1875,3.953125,6.710938,-0.01367188,0.02734375,-0.01367188,0,0.03125,0,0.0001220703,-0.005249023,0.04528809,0,0,0.0002441406,0.2477112,4.039,0,0,0,0.2254028,nan,2,2.478,1,0,0.1754456,0.3228149,0.1595764,0.3329773,0,0.004882812,0,1,3,0
85.142,0.001005,-0.01171875,-0.009765625,0.04882812,1.515625,0.234375,6.585938,0.001953125,0.00390625,0.05859375,0,0.03125,0,0.0001220703,-0.005126953,0.0456543,0,0,0.0002441406,0.2460327,4.039,0,0,0,0.2233887,nan,2,2.489,1,0,0.3135681,0.1933594,0.295166,0.1820068,0,0.004882812,0,1,3,0
85.152,0.001003,0.1542969,0.05078125,0.1035156,2.585938,0.8046875,5.148438,0.01953125,0.03125,0.06445312,-0.001953125,0.03125,0,0.0003662109,-0.005126953,0.04614258,0,0,0.0002441406,0.2443237,4.039,0,0,0,0.2213745,nan,2,2.499,1,0,0.2930298,0.1921997,0.3009033,0.1911926,0,0.004882812,0,1,3,0
85.162,0.001009,0.08007812,-0.08789062,0.08789062,1.085938,-2.664062,4.320312,0.05664062,-0.009765625,0.08007812,-0.00390625,0.02929688,0,0.0007324219,-0.005004883,0.046875,0,0,0.0002441406,0.2424927,4.039,0,0,0,0.2191772,nan,2,2.509,1,0,0.2935791,0.2147827,0.2832947,0.1782837,0,0.004882812,0,1,3,0
85.172,0.001006,-0.05273438,-0.01367188,0.03515625,1.609375,2.5,4.609375,0.02539062,0.001953125,0.02929688,-0.0078125,0.03125,0,0.001342773,-0.005249023,0.04748535,0,0,0.0002441406,0.2407837,4.039,0,0,0,0.2172241,nan,2,2.519,1,0,0.2034607,0.2844543,0.1874084,0.2878418,0,0.004882812,0,1,3,0
85.182,0.001003,0.1660156,0.00390625,-0.09179688,1.84375,0.609375,4.867188,0.1230469,-0.04492188,-0.04296875,-0.01171875,0.03515625,0,0.002075195,-0.005737305,0.04760742,0,0,0.0002441406,0.2391052,4.039,0,0,0,0.21521,nan,2,2.529,1,0,0.1237793,0.3738098,0.1401062,0.3187866,0,0.004882812,0,1,3,0
85.192,0.001003,0.01757812,0.02539062,-0.0859375,2.25,0.9296875,8.140625,0.03320312,-0.001953125,-0.08984375,-0.015625,0.03515625,0,0.002563477,-0.005981445,0.04675293,0,0,0.0002441406,0.2374268,4.039,0,0,0,0.2131958,nan,2,2.539,1,0,0.1846313,0.2963562,0.1802368,0.2884827,0,0.004882812,0,1,3,0
85.201,0.00102,-0.1015625,0.0078125,-0.02539062,0.53125,-2.585938,10.39062,-0.001953125,-0.00390625,-0.03710938,-0.01757812,0.03515625,0,0.002807617,-0.005981445,0.04614258,0,0,0.0002441406,0.2359009,4.039,0,0,0,0.2114258,nan,2,2.548,1,0,0.2852478,0.2001648,0.2619019,0.1963501,0,0.004882812,0,1,3,0
85.211,0.001015,-0.01757812,-0.02539062,-0.0390625,-1.984375,7.789062,18.19531,0.0234375,-0.03515625,-0.01367188,-0.015625,0.03515625,0,0.002685547,-0.005981445,0.04602051,0,0,0.0002441406,0.2342224,4.039,0,0,0,0.2094116,nan,2,2.558,1,0,0.2304993,0.2667236,0.2168274,0.2229004,0,0.004882812,0,1,3,0
85.222,0.001015,0.08203125,0.01757812,-0.03515625,-1.679688,3.09375,9.484375,0.0859375,-0.02929688,-0.03320312,-0.01953125,0.03710938,0,0.003173828,-0.006347656,0.04577637,0,0,0.0002441406,0.2325439,4.039,0,0,0,0.2073975,nan,2,2.568,1,0,0.2011108,0.2814331,0.2148438,0.2328186,0,0.004882812,0,1,3,0
85.232,0.001015,-0.078125,0.00390625,-0.05664062,0.671875,0.140625,9.804688,-0.05859375,-0.00390625,-0.04882812,-0.01953125,0.0390625,0,0.003173828,-0.006469727,0.04541016,0,0,0.0002441406,0.2308655,4.039,0,0,0,0.2053833,nan,2,2.578,1,0,0.2106628,0.2605896,0.175354,0.276825,0,0.004882812,0,1,3,0.6666667
85.242,0.001026,-0.0546875,0.00390625,-0.08007812,1.851562,3.554688,6.359375,-0.01367188,0.015625,-0.0703125,-0.01757812,0.0390625,0,0.002929688,-0.006347656,0.0447998,0,0,0.0002441406,0.229187,4.039,0,0,0,0.2033691,nan,2,2.589,1,0,0.1927185,0.2743225,0.1838379,0.2658386,0,0.004882812,0,1,3,0
85.252,0.001044,-0.015625,-0.03320312,-0.046875,-2.273438,1.695312,8.554688,-0.03125,-0.02734375,-0.06054688,-0.01757812,0.0390625,0,0.002929688,-0.006469727,0.04406738,0,0,0.0002441406,0.2273254,4.039,0,0,0,0.2011719,nan,2,2.599,1,0,0.2416382,0.2391052,0.2015076,0.2270203,0,0.004882812,0,1,3,0
85.262,0.000992,0.0234375,-0.046875,0.00390625,1.5625,-4.039062,5.460938,0.07226562,-0.03125,0.00390625,-0.01953125,0.0390625,0,0.003417969,-0.006591797,0.04394531,0,0,0.0002441406,0.225647,4.039,0,0,0,0.1992188,nan,2,2.609,1,0,0.2600403,0.2165833,0.2576294,0.1683044,0,0.004882812,0,1,3,0
85.272,0.001028,-0.06054688,0.03710938,-0.1191406,0.515625,-5.671875,6.226562,-0.046875,0.015625,-0.08203125,-0.02148438,0.0390625,0,0.003417969,-0.006591797,0.0435791,0,0,0.0002441406,0.2239685,4.039,0,0,0,0.1972046,nan,2,2.619,1,0,0.1289673,0.3267822,0.1005859,0.3395081,0,0.004882812,0,1,3,0
85.282,0.001015,-0.005859375,0.09960938,-0.05664062,-2.273438,-0.2578125,11.28125,0.001953125,0.001953125,-0.06640625,-0.02148438,0.04101562,0,0.003662109,-0.006958008,0.04272461,0,0,0.0002441406,0.2222595,4.039,0,0,0,0.1951904,nan,2,2.629,1,0,0.2249756,0.222168,0.2193909,0.2225647,0,0.004882812,0,1,3,0
85.292,0.001017,-0.01757812,-0.015625,-0.03320312,1.03125,-8.53125,9.382812,0.0078125,-0.005859375,-0.05859375,-0.0234375,0.04101562,0,0.00378418,-0.006835938,0.04211426,0,0,0.0002441406,0.2205811,4.039,0,0,0,0.1931763,nan,2,2.639,1,0,0.2260437,0.234375,0.2092896,0.2126465,-0.0009765625,0.004882812,0,1,3,0
85.301,0.001006,-0.05078125,0.0546875,0.01757812,1.609375,2.3125,13.625,-0.03515625,0.015625,-0.01171875,-0.02148438,0.04101562,0,0.003540039,-0.006835938,0.04174805,0,0,0.0002441406,0.2190857,4.039,0,0,0,0.1914062,nan,2,2.648,1,0,0.2813416,0.1626892,0.2669983,0.1652527,-0.0009765625,0.005859375,0,1,3,0
85.311,0.001004,0.203125,0.03320312,-0.0234375,-2.65625,2.296875,11.69531,0.08007812,-0.01757812,0.001953125,-0.02148438,0.04101562,0,0.003540039,-0.006835938,0.04187012,0,0,0.0002441406,0.2173767,4.039,0,0,0,0.1893921,nan,2,2.658,1,0,0.203064,0.2523804,0.2277527,0.1863403,-0.0009765625,0.005859375,0,1,3,0
85.322,0.001004,-0.0390625,-0.1074219,-0.06835938,0.578125,-2.351562,9.195312,-0.09375,-0.03515625,-0.07617188,-0.01953125,0.04101562,0,0.003295898,-0.006835938,0.04125977,0,0,0.0002441406,0.2156982,4.039,0,0,0,0.1873779,nan,2,2.668,1,0,0.1842041,0.2843933,0.1179504,0.2762756,-0.0009765625,0.005859375,0,1,3,0.2539683
85.332,0.001004,-0.0234375,-0.03710938,-0.03125,-1.25,4.039062,15.35938,-0.01757812,-0.02148438,-0.03515625,-0.01757812,0.04296875,0,0.002929688,-0.007080078,0.04077148,0,0,0.0002441406,0.2140198,4.039,0,0,0,0.1854248,nan,2,2.678,1,0,0.2296753,0.2184753,0.2159729,0.1919556,-0.0009765625,0.005859375,0,1,3,0
85.342,0.001006,0.09179688,-0.001953125,0,0.140625,0.5625,10.9375,0.01953125,0.0546875,-0.03515625,-0.01757812,0.04101562,0,0.002807617,-0.006835938,0.04016113,0,0,0.0002441406,0.2123413,4.039,0,0,0,0.1834106,nan,2,2.689,1,0,0.2351685,0.1906738,0.2487793,0.1746826,-0.0009765625,0.005859375,0,1,3,0
85.352,0.001005,0.01171875,-0.08789062,-0.03125,0.71875,0.8671875,15.38281,-0.02539062,-0.046875,-0.01367188,-0.01757812,0.04101562,0,0.002929688,-0.006958008,0.04003906,0,0,0.0002441406,0.2106628,4.039,0,0,0,0.1813965,nan,2,2.699,1,0,0.2350159,0.223053,0.1914673,0.1930542,-0.0009765625,0.005859375,0,1,3,0
85.362,0.001001,0.02539062,-0.06445312,-0.1230469,0.2890625,-8.414062,2.921875,0.03320312,-0.01171875,-0.1035156,-0.01953125,0.04101562,0,0.003051758,-0.006958008,0.03930664,0,0,0.0002441406,0.2088013,4.039,0,0,0,0.1791992,nan,2,2.709,1,0,0.1257629,0.3146973,0.116272,0.2784729,-0.0009765625,0.005859375,0,1,3,0
85.372,0.00101,0.001953125,-0.1171875,-0.08203125,-2.648438,-0.078125,13.11719,0.001953125,-0.01757812,-0.09960938,-0.01953125,0.04296875,0,0.003295898,-0.007202148,0.03833008,0,0,0.0002441406,0.2071228,4.039,0,0,0,0.1771851,nan,2,2.719,1,0,0.1867065,0.2485046,0.1654358,0.2277832,-0.0009765625,0.005859375,0,1,3,0
85.382,0.001008,-0.04882812,0.07617188,-0.1074219,0.8203125,2.789062,12.32031,0.001953125,0.03320312,-0.08398438,-0.02148438,0.04296875,0,0.003417969,-0.007202148,0.03747559,0,0,0.0002441406,0.2054443,4.055,0,0,0,0.1751709,nan,2,2.729,1,0,0.1726074,0.2381592,0.1700134,0.2409668,-0.0009765625,0.005859375,0,1,3,0
85.391,0.001016,0.06640625,0.009765625,-0.05273438,-1.75,-0.40625,9.53125,0.04492188,0.04296875,-0.06054688,-0.02148438,0.04101562,0,0.003662109,-0.006713867,0.03686523,0,0,0.0002441406,0.2039185,4.055,0,0,0,0.1734009,nan,2,2.738,1,0,0.2037354,0.2167969,0.2080688,0.1870422,-0.0009765625,0.005859375,0,1,3,0.5714286
85.401,0.001013,-0.01757812,-0.109375,-0.03125,0.1796875,8.0625,14.28906,-0.03515625,-0.009765625,-0.02734375,-0.0234375,0.0390625,0,0.00378418,-0.006347656,0.03637695,0,0,0.0002441406,0.20224,4.055,0,0,0,0.1713867,nan,2,2.748,1,0,0.2505188,0.1890869,0.200531,0.1687622,-0.0009765625,0.005859375,0,1,3,0
85.411,0.001004,-0.01171875,0.05078125,-0.015625,0.5078125,-4.960938,5.101562,0.01953125,-0.0078125,-0.01367188,-0.0234375,0.0390625,0,0.00402832,-0.006469727,0.03625488,0,0,0.0002441406,0.200531,4.055,0,0,0,0.1693726,nan,2,2.758,1,0,0.2119446,0.2045288,0.2027588,0.1829834,-0.0009765625,0.005859375,0,1,3,0
85.422,0.001013,0.01757812,-0.01953125,-0.06835938,-2.453125,0.1171875,16.21094,-0.001953125,-0.01367188,-0.04296875,-0.0234375,0.0390625,0,0.00402832,-0.006347656,0.03588867,0,0,0.0002441406,0.1988525,4.055,0,0,0,0.1674194,nan,2,2.768,1,0,0.1624451,0.2616577,0.1387939,0.2325439,-0.0009765625,0.005859375,0,1,3,0
85.432,0.001016,-0.015625,0.04101562,-0.1054688,3.25,0.0625,8.53125,-0.02148438,0.04492188,-0.09570312,-0.02148438,0.03710938,0,0.003662109,-0.006103516,0.03515625,0,0,0.0002441406,0.1971741,4.055,0,0,0,0.1654053,nan,2,2.778,1,0,0.1302795,0.2697144,0.1272888,0.2614441,-0.0009765625,0.005859375,0,1,3,0
85.442,0.001013,-0.05273438,0.03320312,-0.09960938,1.679688,-6.820312,3.921875,-0.00390625,0.01171875,-0.08007812,-0.02148438,0.03710938,0,0.003540039,-0.005981445,0.03442383,0,0,0.0002441406,0.1954956,4.055,0,0,0,0.1633911,nan,2,2.789,1,0,0.1612854,0.2404785,0.1559143,0.2242737,-0.0009765625,0.005859375,0,1,3,0
85.452,0.001013,0.009765625,0.02148438,-0.0859375,0.234375,-0.53125,9.453125,-0.03320312,-0.0078125,-0.1035156,-0.02148438,0.03710938,0,0.003417969,-0.006225586,0.0333252,0,0,0.0002441406,0.1938171,4.055,0,0,0,0.161377,nan,2,2.799,1,0,0.1800232,0.2223206,0.1593628,0.213562,-0.0009765625,0.005859375,0,1,3,0.1428571
85.462,0.001017,0.03125,0.07226562,-0.1582031,-1.171875,6.726562,10.82812,0.046875,0.00390625,-0.125,-0.02148438,0.03710938,0,0.003417969,-0.006347656,0.03222656,0,0,0.0002441406,0.1919556,4.055,0,0,0,0.1591797,nan,2,2.809,1,0,0.113739,0.2785034,0.1317139,0.243866,-0.0009765625,0.005859375,0,1,3,0
85.472,0.001019,0.015625,0.04492188,-0.1542969,-1.765625,-2.140625,5.992188,0.02539062,0.01757812,-0.1308594,-0.02148438,0.0390625,0,0.003540039,-0.006347656,0.03088379,0,0,0.0002441406,0.1902771,4.055,0,0,0,0.1572266,nan,2,2.819,1,0,0.1263428,0.2581787,0.1333618,0.2432251,-0.0009765625,0.005859375,0,1,3,0
85.482,0.001007,0.04101562,0.1230469,-0.1015625,-0.671875,3.09375,10.16406,0.005859375,0.00390625,-0.07421875,-0.02148438,0.0390625,0,0.003540039,-0.006347656,0.02990723,0,0,0.0002441406,0.1885986,4.055,0,0,0,0.1552124,nan,2,2.829,1,0,0.1961365,0.1905823,0.1960144,0.1716309,-0.0009765625,0.005859375,0,1,3,0
85.492,0.001013,-0.04492188,-0.1035156,-0.07617188,-0.5546875,3.96875,12.51562,-0.03515625,-0.01953125,-0.06835938,-0.02148438,0.03710938,0,0.003417969,-0.006225586,0.02929688,0,0,0.0002441406,0.1868896,4.055,0,0,0,0.1531982,nan,2,2.839,1,0,0.1898804,0.2143555,0.1485596,0.1948242,-0.0009765625,0.005859375,0,1,3,0
85.501,0.000999,-0.009765625,0.02929688,-0.05859375,-0.0546875,6.242188,14.55469,-0.01171875,0.01757812,-0.046875,-0.02148438,0.0390625,0,0.003417969,-0.006469727,0.02880859,0,0,0.0002441406,0.1853943,4.055,0,0,0,0.1513672,nan,2,2.848,1,0,0.1759338,0.1981506,0.1722107,0.1952515,-0.0009765625,0.005859375,0,1,3,0
85.511,0.001003,-0.04101562,-0.00390625,-0.06054688,0.15625,2.03125,12.59375,-0.04296875,0.0078125,-0.06835938,-0.01953125,0.03710938,0,0.003295898,-0.006347656,0.02819824,0,0,0.0002441406,0.1837158,4.055,0,0,0,0.1494141,nan,2,2.858,1,0,0.1704712,0.2163391,0.1412964,0.2067261,-0.0009765625,0.005859375,0,1,3,0
85.522,0.001003,-0.02734375,-0.001953125,-0.0703125,1.210938,0.7890625,11.45312,-0.05273438,0.0078125,-0.0703125,-0.01757812,0.03515625,0,0.002807617,-0.005981445,0.02746582,0,0,0.0002441406,0.1820068,4.055,0,0,0,0.1473999,nan,2,2.868,1,0,0.1674805,0.2198792,0.1395264,0.2012024,-0.0009765625,0.005859375,0,1,3,0
85.532,0.001006,0.02929688,0.078125,-0.04492188,0.390625,-0.3125,6.5625,0.00390625,0.01171875,-0.05664062,-0.015625,0.03515625,0,0.002685547,-0.005859375,0.02685547,0,0,0.0002441406,0.1803284,4.055,0,0,0,0.1453857,nan,2,2.878,1,0,0.1772766,0.196228,0.1783752,0.1694641,-0.0009765625,0.005859375,0,1,3,0
85.542,0.001003,-0.0234375,0.01171875,-0.1171875,0.5078125,4.414062,12.24219,-0.0234375,0.015625,-0.078125,-0.015625,0.03515625,0,0.002685547,-0.005859375,0.02624512,0,0,0.0002441406,0.1786499,4.055,0,0,0,0.1433716,nan,2,2.889,1,0,0.1280823,0.2369995,0.1151428,0.234375,-0.0009765625,0.005859375,0,1,3,0
85.552,0.000964,0.001953125,0.001953125,-0.1015625,-0.8046875,1.867188,15.3125,0.00390625,-0.001953125,-0.1152344,-0.015625,0.03515625,0,0.002563477,-0.005981445,0.02514648,0,0,0.0002441406,0.1769714,4.055,0,0,0,0.1414185,nan,2,2.899,1,0,0.1271973,0.242218,0.1194458,0.2190247,-0.0009765625,0.005859375,0,1,3,0
85.562,0.001039,-0.02734375,0.06445312,-0.05859375,0.4453125,0.1640625,9.09375,0.0078125,0.01953125,-0.08203125,-0.015625,0.03515625,0,0.002563477,-0.005859375,0.02416992,0,0,0.02416992,0.1764526,4.055,0,0,0,0.1400146,nan,4,2.909,1,0,0.1802673,0.1665039,0.1852417,0.1738586,0,0,0,1,6,0
85.572,0.001003,0.01953125,0.07421875,-0.1132812,0.390625,3.921875,6.320312,-0.01171875,0.04101562,-0.078125,-0.015625,0.03515625,0,0.002563477,-0.005737305,0.0234375,0,0,0.0234375,0.1781311,4.055,0,0,0,0.1400146,nan,4,2.919,1,0,0.1448669,0.1975708,0.1505737,0.2195435,0,0,0,1,6,0
85.581,0.001012,0.03125,-0.02929688,-0.1308594,-2.125,-6.726562,4.054688,-0.04101562,0.001953125,-0.1113281,-0.01367188,0.03320312,0,0.002197266,-0.005493164,0.02258301,0,0,0.02258301,0.179657,4.055,0,0,0,0.1400146,nan,4,2.928,1,0,0.1219482,0.2486267,0.1063843,0.2416687,0,0,0,1,6,0
85.592,0.001006,-0.1347656,0.005859375,-0.1308594,0.546875,-2.890625,13.92969,-0.06054688,-0.02148438,-0.1269531,-0.01171875,0.03320312,0,0.001953125,-0.005737305,0.02124023,0,0,0.02124023,0.1815186,4.055,0,0,0,0.1400146,nan,4,2.939,1,0,0.1272278,0.2441101,0.09838867,0.2562866,0,0,0,1,6,0
85.601,0.001014,-0.0546875,-0.005859375,-0.08984375,0.5625,-2.429688,10.82812,-0.01171875,-0.00390625,-0.1171875,-0.009765625,0.03515625,0,0.001708984,-0.005737305,0.0201416,0,0,0.0201416,0.1830139,4.055,0,0,0,0.1400146,nan,4,2.948,1,0,0.1583862,0.2131042,0.1542969,0.2062683,0,0,0,1,6,0
85.611,0.001011,-0.06054688,-0.09375,-0.1113281,0.21875,4.78125,8.367188,-0.02539062,-0.03710938,-0.09960938,-0.009765625,0.03515625,0,0.001708984,-0.005859375,0.01916504,0,0,0.01916504,0.1846924,4.055,0,0,0,0.1400146,nan,4,2.958,1,0,0.1670837,0.2213135,0.1377258,0.212677,0,0,0,1,6,0.4603175
85.622,0.001014,-0.08007812,0.00390625,-0.04492188,0.6015625,-1.484375,3.054688,-0.0390625,-0.01171875,-0.0703125,-0.009765625,0.03710938,0,0.001586914,-0.006103516,0.01831055,0,0,0.01831055,0.1864014,4.055,0,0,0,0.1400146,nan,4,2.968,1,0,0.2124634,0.1629639,0.1932373,0.1768799,0,0,0,1,6,0
85.632,0.001014,0.03125,0.04296875,-0.08789062,-0.9296875,-7.234375,8.804688,0.01171875,0.01171875,-0.08789062,-0.009765625,0.03515625,0,0.001708984,-0.005981445,0.01745605,0,0,0.01745605,0.1880798,4.055,0,0,0,0.1400146,nan,4,2.978,1,0,0.1595764,0.2199707,0.1619873,0.2107849,0,0,0,1,6,0
85.642,0.00101,-0.03515625,0.0078125,-0.1933594,2.015625,-2.921875,13.07031,-0.03125,-0.01171875,-0.1523438,-0.009765625,0.03515625,0,0.001586914,-0.005981445,0.01635742,0,0,0.01635742,0.1897583,4.055,0,0,0,0.1400146,nan,4,2.989,1,0,0.07495117,0.3097229,0.05981445,0.3145142,0,0,0,1,6,0
85.652,0.001013,-0.01367188,-0.01953125,-0.1132812,-1.4375,0.296875,9.6875,-0.01367188,0,-0.1445312,-0.009765625,0.03710938,0,0.001586914,-0.006103516,0.01477051,0,0,0.01477051,0.1914368,4.055,0,0,0,0.1400146,nan,4,2.999,1,0,0.1603699,0.2258606,0.1551208,0.2243652,0,0,0,1,6,0.6507937
85.662,0.001017,-0.0234375,-0.06445312,-0.08203125,0.921875,-5.757812,2.390625,-0.009765625,-0.03125,-0.1015625,-0.0078125,0.03710938,0,0.001464844,-0.006103516,0.0135498,0,0,0.0135498,0.1931152,4.055,0,0,0,0.1400146,nan,4,3.009,1,0,0.2110596,0.1932068,0.1940308,0.1741638,0,0,0,1,6,0
85.672,0.001019,0.0078125,0.09375,-0.1738281,-1.203125,1.6875,11.79688,-0.05078125,0.015625,-0.1464844,-0.005859375,0.0390625,0,0.001098633,-0.006469727,0.01220703,0,0,0.01220703,0.1947937,4.055,0,0,0,0.1400146,nan,4,3.019,1,0,0.1129761,0.2636414,0.1145325,0.2880554,0,0,0,1,6,0
85.682,0.001007,-0.03125,-0.04101562,-0.04101562,0.2734375,6.507812,15.48438,-0.0546875,0.02734375,-0.09960938,-0.00390625,0.03515625,0,0.0007324219,-0.005981445,0.01086426,0,0,0.01086426,0.1965027,4.055,0,0,0,0.1400146,nan,4,3.029,1,0,0.2337036,0.1656494,0.2160034,0.1705933,0,0,0,1,6,0
85.692,0.001007,0,0.01953125,-0.09765625,0.0234375,2.453125,6.5,-0.001953125,0.00390625,-0.09179688,-0.00390625,0.03515625,0,0.0004882812,-0.005981445,0.01013184,0,0,0.01013184,0.1981812,4.055,0,0,0,0.1400146,nan,4,3.039,1,0,0.1610107,0.2414551,0.1627502,0.2274475,0,0,0,1,6,0
85.701,0.001007,0.00390625,0,-0.05273438,-0.8984375,-2.398438,4.359375,-0.00390625,-0.009765625,-0.0703125,-0.001953125,0.03515625,0,0.0004882812,-0.005981445,0.009399414,0,0,0.009399414,0.1996765,4.055,0,0,0,0.1400146,nan,4,3.048,1,0,0.2020264,0.2042542,0.1945801,0.197876,0,0.0009765625,0,1,6,0
85.711,0.001007,-0.0625,0,-0.0390625,-0.609375,-3.21875,4.929688,-0.01757812,0.02148438,-0.06445312,-0.001953125,0.03515625,0,0.0004882812,-0.005859375,0.008666992,0,0,0.008666992,0.201355,4.055,0,0,0,0.1400146,nan,4,3.058,1,0,0.2079163,0.1961975,0.1971741,0.2041626,0,0.0009765625,0,1,6,0
85.722,0.001007,-0.06640625,-0.046875,-0.08984375,-1.132812,0.328125,9.273438,-0.07226562,0.00390625,-0.07617188,0,0.03320312,0,-0.0001220703,-0.005615234,0.008056641,0,0,0.008056641,0.203064,4.055,0,0,0,0.1400146,nan,4,3.068,1,0,0.1734619,0.2440491,0.1444702,0.2502441,0,0.0009765625,0,1,6,0.01587302
85.732,0.001007,0.01171875,0.015625,-0.1269531,-0.734375,-4.742188,9.179688,-0.02148438,0.02539062,-0.078125,0.00390625,0.03125,0,-0.0004882812,-0.005371094,0.007324219,0,0,0.007324219,0.2047424,4.055,0,0,0,0.1400146,nan,4,3.078,1,0,0.1564331,0.2566223,0.155426,0.2504578,0,0.0009765625,0,1,6,0
85.742,0.001062,-0.05273438,-0.02539062,-0.078125,1.875,-7.390625,8.570312,-0.01171875,-0.0078125,-0.05664062,0.001953125,0.03320312,0,-0.0004882812,-0.005371094,0.006591797,0,0,0.006591797,0.2064209,4.055,0,0,0,0.1400146,nan,4,3.089,1,0,0.206665,0.2144165,0.1903992,0.2142029,0,0.0009765625,0,1,6,0
85.752,0.001007,0.01367188,-0.046875,-0.06835938,-0.8203125,-13.15625,3.171875,-0.01171875,-0.01171875,-0.06835938,0.00390625,0.03320312,0,-0.0004882812,-0.005493164,0.006103516,0,0,0.006103516,0.2080994,4.055,0,0,0,0.1400146,nan,4,3.099,1,0,0.1756897,0.2495117,0.1628723,0.2443237,0,0.0009765625,0,1,6,0
85.762,0.001007,-0.04296875,-0.02734375,-0.06054688,0.046875,-3.96875,9.234375,-0.01953125,-0.04882812,-0.08203125,0.001953125,0.03515625,0,-0.0003662109,-0.005859375,0.005249023,0,0,0.005249023,0.2097778,4.055,0,0,0,0.1400146,nan,4,3.109,1,0,0.2047729,0.2316589,0.1735535,0.2291565,0,0.0009765625,0,1,6,0
85.772,0.001,-0.03125,0,-0.0859375,-0.15625,-3.851562,5.117188,0.01953125,-0.015625,-0.1015625,0.001953125,0.03515625,0,-0.0002441406,-0.005859375,0.004272461,0,0,0.004272461,0.2114563,4.055,0,0,0,0.1400146,nan,4,3.119,1,0,0.1802979,0.2524719,0.1723328,0.2407532,0,0.0009765625,0,1,6,0
85.783,0.00101,-0.04101562,-0.04882812,-0.06445312,2.101562,1.71875,3.914062,-0.01171875,-0.001953125,-0.08203125,0,0.03515625,0,0,-0.005859375,0.003417969,0,0,0.003417969,0,4.055,0,0,0,0.1400146,nan,4,3.129,0,0,0,0,0,0,0,0.0009765625,0,1,6,0
85.792,0.001014,-0.1386719,0.06835938,-0.03515625,-1.921875,-5.796875,6.09375,-0.0234375,0.05273438,-0.046875,0,0.03515625,0,-0.0001220703,-0.005493164,0.002807617,0,0,0.003417969,0,4.055,0,0,0,0.1400146,nan,4,3.139,0,0,0,0,0,0,0,0,0,1,6,0
85.802,0.00101,0.03515625,-0.04882812,-0.1054688,1.234375,-9.828125,10.49219,0,-0.03125,-0.05273438,0,0.03515625,0,-0.0003662109,-0.005493164,0.002563477,0,0,0.003417969,0,4.055,0,0,0,0.1400146,nan,4,3.149,0,0,0,0,0,0,0,0,0,1,6,0
85.812,0.000999,0.1308594,0.03515625,-0.005859375,1.773438,8.429688,14.75781,0.05273438,0.04101562,-0.03320312,0,0.03515625,0,-0.0002441406,-0.005493164,0.001953125,0,0,0.003417969,0,4.055,0,0,0,0.1400146,nan,4,3.159,0,0,0,0,0,0,0,0,0,1,6,0
85.822,0.00101,0.0078125,-0.02734375,-0.02929688,-0.7734375,4.34375,6.835938,-0.009765625,-0.015625,-0.02148438,0,0.03515625,0,0.0001220703,-0.005493164,0.001586914,0,0,0.003417969,0,4.055,0,0,0,0.1400146,nan,4,3.169,0,0,0,0,0,0,0,0,0,1,6,0
85.831,0.00101,0.0625,0.05273438,-0.0703125,-0.3828125,1.0625,6.273438,0.05664062,0.009765625,-0.06054688,0,0.03515625,0,0.0003662109,-0.005615234,0.001220703,0,0,0.003417969,0,4.055,0,0,0,0.1400146,nan,4,3.178,0,0,0,0,0,0,0,0,0,1,6,0
85.841,0.00101,0,0.04296875,-0.08203125,-0.0078125,-3.679688,8.164062,0.01953125,-0.00390625,-0.06835938,0,0.03515625,0,0.0004882812,-0.005615234,0.0006103516,0,0,0.003417969,0,4.055,0,0,0,0.1400146,nan,4,3.188,0,0,0,0,0,0,0,0,0,1,6,1
85.852,0.00101,0.06445312,-0.03515625,-0.06640625,-0.9140625,4.039062,6.59375,0.01953125,-0.03320312,-0.06445312,0,0.03515625,0,0.0006103516,-0.005737305,-0.0001220703,0,0,0.003417969,0,4.055,0,0,0,0.1400146,nan,4,3.199,0,0,0,0,0,0,0,0,0,1,6,0
85.862,0.001009,0.02539062,-0.009765625,-0.07617188,2.679688,0.0859375,8.109375,0.01367188,-0.00390625,-0.07421875,0,0.03515625,0,0.0008544922,-0.005981445,-0.0008544922,0,0,0.003417969,0,4.055,0,0,0,0.1400146,nan,4,3.209,0,0,0,0,0,0,0,0,0,1,6,0
85.872,0.00102,0.0078125,0.01171875,-0.078125,0.359375,-3.976562,11.04688,0.05273438,-0.02734375,-0.078125,0,0.03515625,0,0.001220703,-0.006103516,-0.001586914,0,0,0.003417969,0,4.055,0,0,0,0.1400146,nan,4,3.219,0,0,0,0,0,0,0,0,0,1,6,0
85.882,0.00102,0.01367188,-0.01757812,-0.0625,0.46875,-2.46875,18.61719,0.015625,-0.001953125,-0.0625,0,0.03515625,0,0.001464844,-0.006103516,-0.002319336,0,0,0.003417969,0,4.055,0,0,0,0.1400146,nan,4,3.229,0,0,0,0,0,0,0,0,0,1,6,0
85.892,0.001008,0.00390625,0.01953125,-0.06054688,1.3125,1.5625,8.734375,0.01171875,0.009765625,-0.06640625,0,0.03515625,0,0.001464844,-0.006103516,-0.002929688,0,0,0.003417969,0,4.055,0,0,0,0.1400146,nan,4,3.239,0,0,0,0,0,0,0,0,0,1,6,1
85.902,0.00101,-0.02929688,0.02539062,-0.08789062,1.234375,-1.226562,8.203125,-0.00390625,0.015625,-0.07226562,0,0.03515625,0,0.001464844,-0.005981445,-0.003662109,0,0,0.003417969,0,4.055,0,0,0,0.1400146,nan,4,3.249,0,0,0,0,0,0,0,0,0,1,6,0
85.912,0.00101,0.01367188,-0.02734375,-0.04296875,-1.117188,0.890625,13.38281,-0.00390625,0.00390625,-0.05664062,0,0.03515625,0,0.001586914,-0.005859375,-0.004272461,0,0,0.003417969,0,4.055,0,0,0,0.1400146,nan,4,3.259,0,0,0,0,0,0,0,0,0,1,6,0
85.921,0.001001,-0.0078125,-0.03125,-0.0390625,1.390625,3.148438,8.59375,-0.02148438,0,-0.03710938,0,0.03515625,0,0.001464844,-0.005859375,-0.004638672,0,0,0.003417969,0,4.055,0,0,0,0.1400146,nan,4,3.268,0,0,0,0,0,0,0,0,0,1,6,1
85.931,0.00102,0.01171875,0.03515625,0.01171875,-1.757812,0.359375,9.351562,0.015625,0.00390625,-0.0078125,0,0.03515625,0,0.001586914,-0.005981445,-0.004882812,0,0,0.003417969,0,4.055,0,0,0,0.1400146,nan,4,3.278,0,0,0,0,0,0,0,0,0,1,6,1
85.942,0.00101,-0.03320312,0.06835938,-0.01757812,-0.796875,-1.679688,10.42969,-0.01171875,0.01171875,-0.0078125,0,0.03515625,0,0.001586914,-0.005981445,-0.004882812,0,0,0.003417969,0,4.055,0,0,0,0.1400146,nan,4,3.288,0,0,0,0,0,0,0,0,0,1,6,1
85.952,0.001019,-0.02148438,0.03320312,-0.03320312,-0.21875,1.34375,11.17969,-0.00390625,0.01757812,-0.0234375,0,0.03515625,0,0.001586914,-0.005981445,-0.005126953,0,0,0.003417969,0,4.055,0,0,0,0.1400146,nan,4,3.299,0,0,0,0,0,0,0,0,0,1,6,0
85.962,0.001018,0.04492188,0,-0.03515625,1.085938,-0.78125,11.36719,0.005859375,-0.00390625,-0.03515625,0,0.03515625,0,0.001464844,-0.005981445,-0.005371094,0,0,0.003417969,0,4.055,0,0,0,0.1400146,nan,4,3.309,0,0,0,0,0,0,0,0,0,1,6,0
85.972,0.00101,-0.01171875,-0.00390625,-0.02148438,0.984375,-0.1015625,12.64844,-0.00390625,-0.005859375,-0.02734375,0,0.03515625,0,0.001464844,-0.005981445,-0.005737305,0,0,0.003417969,0,4.055,0,0,0,0.1400146,nan,4,3.319,0,0,0,0,0,0,0,0,0,1,6,0
85.982,0.001012,-0.015625,-0.03125,0.001953125,0.0078125,0.8515625,7.617188,-0.00390625,0,-0.005859375,0,0.03515625,0,0.001464844,-0.005981445,-0.005859375,0,0,0.003417969,0,4.055,0,0,0,0.1400146,nan,4,3.329,0,0,0,0,0,0,0,0,0,1,6,0
85.992,0.001008,0.005859375,0,-0.015625,-0.515625,-1.28125,11.75781,-0.00390625,-0.00390625,-0.01367188,0,0.03515625,0,0.001464844,-0.005859375,-0.005981445,0,0,0.003417969,0,4.055,0,0,0,0.1400146,nan,4,3.339,0,0,0,0,0,0,0,0,0,1,6,0
86.002,0.00101,-0.01367188,0.06445312,-0.005859375,-0.4765625,-0.3828125,13.65625,-0.01171875,0.02148438,-0.015625,0,0.03515625,0,0.001342773,-0.005859375,-0.006225586,0,0,0.003417969,0,4.055,0,0,0,0.1400146,nan,4,3.349,0,0,0,0,0,0,0,0,0,1,6,0
86.012,0.001002,0.03125,0.04882812,0.005859375,-0.625,0.5546875,11.32031,0.005859375,0.01367188,0.005859375,0,0.03515625,0,0.001342773,-0.005737305,-0.006225586,0,0,0.003417969,0,4.055,0,0,0,0.1400146,nan,4,3.359,0,0,0,0,0,0,0,0,0,1,6,0
86.021,0.00101,-0.01757812,0,-0.00390625,0.6875,0.0078125,8.960938,-0.015625,-0.001953125,0,0,0.03515625,0,0.001220703,-0.005737305,-0.006225586,0,0,0.003417969,0,4.055,0,0,0,0.1400146,nan,4,3.368,0,0,0,0,0,0,0,0,0,1,6,1
86.031,0.001009,0.01757812,0.01367188,-0.01953125,0.71875,3.835938,11.10938,-0.01171875,0,-0.01171875,0,0.03515625,0,0.001098633,-0.005737305,-0.006225586,0,0,0.003417969,0,4.077,0,0,0,0.1400146,nan,4,3.378,0,0,0,0,0,0,0,0,0,1,6,0
86.041,0.00101,-0.04101562,-0.0625,-0.01757812,-0.84375,-0.265625,6.0625,-0.009765625,-0.001953125,-0.009765625,0,0.03515625,0,0.001098633,-0.005615234,-0.006347656,0,0,0.003417969,0,4.077,0,0,0,0.1400146,nan,4,3.388,0,0,0,0,0,0,0,0,0,1,6,0
86.052,0.00101,-0.03320312,0,-0.001953125,1.34375,-4.617188,10.78906,-0.00390625,0,-0.01367188,0,0.03515625,0,0.001098633,-0.005737305,-0.006469727,0,0,0.003417969,0,4.077,0,0,0,0.1400146,nan,4,3.399,0,0,0,0,0,0,0,0,0,1,6,0
86.062,0.00101,-0.03515625,-0.00390625,-0.02929688,-1.242188,0.5078125,3.78125,-0.01367188,0.001953125,-0.0234375,0,0.03515625,0,0.001098633,-0.005737305,-0.006713867,0,0,0.003417969,0,4.077,0,0,0,0.1400146,nan,4,3.409,0,0,0,0,0,0,0,0,0,1,6,0
86.072,0.001016,0.01953125,0.01953125,0,-2.40625,-5.21875,14.125,0,0.0078125,-0.00390625,0,0.03515625,0,0.001098633,-0.005737305,-0.006835938,0,0,0.003417969,0,4.077,0,0,0,0.1400146,nan,4,3.419,0,0,0,0,0,0,0,0,0,1,6,0
86.082,0.000998,-0.0078125,0.00390625,-0.009765625,-3.109375,-2.257812,9.734375,0,0.005859375,-0.015625,0,0.03515625,0,0.001098633,-0.005615234,-0.006958008,0,0,0.003417969,0,4.077,0,0,0,0.1400146,nan,4,3.429,0,0,0,0,0,0,0,0,0,1,6,1
86.092,0.001011,-0.02148438,0.03710938,-0.015625,-0.0625,4.765625,12.97656,-0.02148438,0.015625,-0.01171875,0,0.03515625,0,0.001098633,-0.005615234,-0.007080078,0,0,0.003417969,0,4.077,0,0,0,0.1400146,nan,4,3.439,0,0,0,0,0,0,0,0,0,1,6,0
86.102,0.00101,0.015625,-0.005859375,0,0.1015625,-0.9140625,14.91406,-0.00390625,0,0.00390625,0,0.03515625,0,0.001098633,-0.005737305,-0.007080078,0,0,0.003417969,0,4.077,0,0,0,0.1400146,nan,4,3.449,0,0,0,0,0,0,0,0,0,1,6,0
86.112,0.000996,-0.04101562,0.00390625,-0.015625,0.203125,1.203125,11.40625,-0.0078125,-0.0078125,-0.00390625,0,0.03515625,0,0.001098633,-0.005737305,-0.007080078,0,0,0.003417969,0,4.077,0,0,0,0.1400146,nan,4,3.459,0,0,0,0,0,0,0,0,0,1,6,0
86.122,0.000996,-0.009765625,-0.01757812,0.01367188,-2.078125,-0.1875,5.9375,0.00390625,-0.0078125,0.001953125,0,0.03515625,0,0.001098633,-0.005737305,-0.007080078,0,0,0.003417969,0,4.077,0,0,0,0,nan,4,0.008,0,0,0,0,0,0,0,0,0,1,6,0
86.131,0.001008,-0.04492188,0.04492188,-0.04296875,0.90625,4.554688,7.398438,-0.015625,0.01171875,-0.005859375,0,0.03515625,0,0.0009765625,-0.005737305,-0.007080078,0,0,0.003417969,0,4.077,0,0,0,0,nan,4,0.017,0,0,0,0,0,0,0,0,0,1,6,0
86.142,0.001032,0.001953125,0.01367188,0,-2.328125,-0.5703125,11.26562,0.0078125,-0.005859375,-0.01171875,0,0.03515625,0,0.0009765625,-0.005737305,-0.007202148,0,0,0.003417969,0,4.077,0,0,0,0,nan,4,0.027,0,0,0,0,0,0,0,0,0,1,6,0
86.152,0.001034,0.08203125,-0.0078125,-0.01367188,0.28125,5.023438,9.039062,0.01367188,-0.005859375,0,0,0.03515625,0,0.0009765625,-0.005737305,-0.007202148,0,0,0.003417969,0,4.077,0,0,0,0,nan,4,0.004,0,0,0,0,0,0,0,0,0,1,6,1
86.162,0.000985,-0.01171875,0.03125,-0.009765625,-2.171875,1.476562,10.1875,0.01171875,-0.0078125,0,nan,nan,nan,0.001098633,-0.005859375,-0.007202148,0,0,-0.007202148,0,4.077,0,0,0,0,nan,2,0.014,0,0,0,0,0,0,0,0,0,1,2,1
86.172,0.001005,0.0625,0.01367188,-0.015625,-1.367188,1.8125,10.24219,0.0078125,-0.001953125,-0.001953125,nan,nan,nan,0.001098633,-0.005737305,-0.007202148,0,0,-0.007202148,0,4.077,0,0,0,0,nan,2,0.024,0,0,0,0,0,0,0,0,0,1,2,1
86.182,0.00101,0.015625,0.01757812,-0.0234375,0.625,-0.8125,9.78125,0.005859375,0.00390625,0.001953125,nan,nan,nan,0.001220703,-0.005737305,-0.007202148,0,0,-0.007202148,0,4.077,0,0,0,0,nan,2,0.034,0,0,0,0,0,0,0,0,0,1,2,1
86.192,0.001002,0.04882812,0.01757812,-0.03710938,0.0234375,2.828125,9.210938,0.009765625,0.005859375,-0.015625,nan,nan,nan,0.001220703,-0.005737305,-0.007202148,0,0,-0.007202148,0,4.077,0,0,0,0,nan,2,0.044,0,0,0,0,0,0,0,0,0,1,2,1
86.202,0.00101,0.01953125,-0.01953125,0.005859375,1.101562,0.9140625,9.882812,0.01171875,-0.01171875,0.00390625,nan,nan,nan,0.001220703,-0.005737305,-0.007202148,0,0,-0.007202148,0,4.077,0,0,0,0,nan,2,0.055,0,0,0,0,0,0,0,0,0,1,2,1
86.212,0.00101,0.05078125,-0.02734375,-0.0234375,1.046875,1.171875,9.460938,0.01171875,-0.0078125,0.001953125,nan,nan,nan,0.001220703,-0.005737305,-0.007202148,0,0,-0.007202148,0,4.077,0,0,0,0,nan,2,0.065,0,0,0,0,0,0,0,0,0,1,2,1
86.221,0.001009,0.05273438,0.04492188,0.009765625,-2.046875,1.664062,10,0.00390625,0.01367188,0,nan,nan,nan,0.001220703,-0.005615234,-0.007202148,0,0,-0.007202148,0,4.077,0,0,0,0,nan,2,0.074,0,0,0,0,0,0,0,0,0,1,2,1
86.231,0.001018,-0.08984375,-0.05078125,-0.0078125,1.40625,-1.203125,9.476562,-0.009765625,0,-0.009765625,nan,nan,nan,0.001220703,-0.005615234,-0.007202148,0,0,-0.007202148,0,4.077,0,0,0,0,nan,2,0.084,0,0,0,0,0,0,0,0,0,1,2,1
86.242,0.001018,-0.02148438,0.04101562,-0.001953125,0.0546875,0.75,10.23438,0.005859375,-0.005859375,0.001953125,nan,nan,nan,0.001220703,-0.005737305,-0.007202148,0,0,-0.007202148,0,4.077,0,0,0,0,nan,2,0.094,0,0,0,0,0,0,0,0,0,1,2,1
86.252,0.00101,-0.04101562,-0.07226562,0.01367188,1.21875,-1.132812,8.59375,-0.009765625,-0.01367188,0.001953125,nan,nan,nan,0.001220703,-0.005615234,-0.007202148,0,0,-0.007202148,0,4.077,0,0,0,0,nan,2,0.104,0,0,0,0,0,0,0,0,0,1,2,0
86.262,0.000918,-0.01367188,0.0234375,-0.005859375,0.6875,-0.0078125,9.726562,-0.0078125,-0.009765625,-0.00390625,nan,nan,nan,0.001220703,-0.005615234,-0.007202148,0,0,-0.007202148,0,4.077,0,0,0,0,nan,2,0.114,0,0,0,0,0,0,0,0,0,1,2,1
86.272,0.001006,0.001953125,-0.0234375,0.03710938,-0.109375,-0.171875,9.273438,0.0078125,0,0.00390625,nan,nan,nan,0.001342773,-0.005615234,-0.007202148,0,0,-0.007202148,0,4.077,0,0,0,0,nan,2,0.124,0,0,0,0,0,0,0,0,0,1,2,1
86.282,0.001011,-0.06054688,-0.06445312,-0.005859375,0.859375,-0.3515625,9.15625,-0.00390625,-0.009765625,0,nan,nan,nan,0.001342773,-0.005615234,-0.007202148,0,0,-0.007202148,0,4.077,0,0,0,0,nan,2,0.134,0,0,0,0,0,0,0,0,0,1,2,1
86.292,0.001013,-0.03515625,-0.01367188,-0.01367188,0.2265625,0.0625,9.929688,-0.005859375,-0.005859375,0.001953125,nan,nan,nan,0.001220703,-0.005615234,-0.007202148,0,0,-0.007202148,0,4.077,0,0,0,0,nan,2,0.144,0,0,0,0,0,0,0,0,0,1,2,1
86.302,0.001011,-0.0234375,0.03710938,0.01953125,0.296875,0.1875,10.92188,-0.009765625,0.00390625,0,nan,nan,nan,0.001220703,-0.005615234,-0.007202148,0,0,-0.007202148,0,4.077,0,0,0,0,nan,2,0.155,0,0,0,0,0,0,0,0,0,1,2,0
86.312,0.001011,-0.03710938,0.001953125,0.009765625,-0.3125,0.2578125,10.30469,-0.001953125,-0.001953125,-0.001953125,nan,nan,nan,0.001220703,-0.005615234,-0.007202148,0,0,-0.007202148,0,4.077,0,0,0,0,nan,2,0.165,0,0,0,0,0,0,0,0,0,1,2,1
86.321,0.001009,0.02539062,-0.01953125,-0.001953125,0.6640625,0.203125,9.367188,0,0,-0.001953125,nan,nan,nan,0.001220703,-0.005615234,-0.007202148,0,0,-0.007202148,0,4.077,0,0,0,0,nan,2,0.174,0,0,0,0,0,0,0,0,0,1,2,1
86.331,0.001009,-0.009765625,-0.005859375,-0.01367188,0.3046875,-0.0625,9.5625,0,0.001953125,0.001953125,nan,nan,nan,0.001220703,-0.005615234,-0.007202148,0,0,-0.007202148,0,4.077,0,0,0,0,nan,2,0.184,0,0,0,0,0,0,0,0,0,1,2,1
86.342,0.001009,-0.01757812,0.01367188,-0.0078125,-0.4375,-0.03125,10.25,0,0,-0.001953125,nan,nan,nan,0.001220703,-0.005615234,-0.007202148,0,0,-0.007202148,0,4.077,0,0,0,0,nan,2,0.194,0,0,0,0,0,0,0,0,0,1,2,1
86.352,0.001009,0.015625,0.001953125,-0.005859375,0.421875,0.2265625,9.515625,0,-0.00390625,0.001953125,nan,nan,nan,0.001342773,-0.005615234,-0.007202148,0,0,-0.007202148,0,4.077,0,0,0,0,nan,2,0.204,0,0,0,0,0,0,0,0,0,1,2,1
86.362,0.001011,-0.00390625,-0.0078125,0.01953125,-0.1015625,-0.0625,9.835938,-0.001953125,0,0.005859375,nan,nan,nan,0.001220703,-0.005615234,-0.007202148,0,0,-0.007202148,0,4.077,0,0,0,0,nan,2,0.215,0,0,0,0,0,0,0,0,0,1,2,1
86.372,0.001011,-0.001953125,0.001953125,-0.02148438,0.2890625,-0.171875,9.476562,-0.001953125,0.00390625,-0.005859375,nan,nan,nan,0.001220703,-0.005615234,-0.007202148,0,0,-0.007202148,0,4.077,0,0,0,0,nan,2,0.225,0,0,0,0,0,0,0,0,0,1,2,1
86.381,0.001009,0.01171875,-0.01171875,0.0078125,0.0234375,-0.234375,10.17188,0,-0.001953125,0.001953125,nan,nan,nan,0.001220703,-0.005615234,-0.007202148,0,0,-0.007202148,0,4.077,0,0,0,0,nan,2,0.234,0,0,0,0,0,0,0,0,0,1,2,1
86.391,0.001009,-0.0078125,-0.0078125,0.001953125,0.078125,-0.265625,10.10938,0,-0.001953125,0.001953125,nan,nan,nan,0.001220703,-0.005615234,-0.007202148,0,0,-0.007202148,0,4.077,0,0,0,0,nan,2,0.244,0,0,0,0,0,0,0,0,0,1,2,1
86.402,0.001023,0.001953125,0.001953125,0.01171875,0.0546875,0.109375,9.375,-0.001953125,0,0.005859375,nan,nan,nan,0.001220703,-0.005615234,-0.007202148,0,0,-0.007202148,0,4.077,0,0,0,0,nan,2,0.254,0,0,0,0,0,0,0,0,0,1,2,1
86.412,0.001009,-0.01367188,0.00390625,-0.00390625,0.0234375,0.0390625,9.539062,-0.005859375,0.00390625,-0.001953125,nan,nan,nan,0.001220703,-0.005493164,-0.007202148,0,0,-0.007202148,0,4.077,0,0,0,0,nan,2,0.264,0,0,0,0,0,0,0,0,0,1,2,1
86.422,0.001009,-0.005859375,0.005859375,0.001953125,-0.2109375,0.234375,9.390625,-0.0078125,0.001953125,-0.00390625,nan,nan,nan,0.001098633,-0.005615234,-0.007202148,0,0,-0.007202148,0,4.077,0,0,0,0,nan,2,0.274,0,0,0,0,0,0,0,0,0,1,2,1
86.432,0.001015,0.009765625,-0.0078125,-0.001953125,0.0546875,0.03125,10.03125,0.001953125,0,0.005859375,nan,nan,nan,0.001220703,-0.005493164,-0.007202148,0,0,-0.007202148,0,4.077,0,0,0,0,nan,2,0.284,0,0,0,0,0,0,0,0,0,1,2,1
86.442,0.001016,-0.005859375,0.0078125,0.00390625,0.109375,0.0234375,9.898438,-0.00390625,0.001953125,0.001953125,nan,nan,nan,0.001220703,-0.005493164,-0.007202148,0,0,-0.007202148,0,4.077,0,0,0,0,nan,2,0.294,0,0,0,0,0,0,0,0,0,1,2,1
86.452,0.001053,-0.005859375,0.0078125,0.00390625,-0.21875,0.0546875,9.742188,-0.001953125,0.00390625,0,nan,nan,nan,0.001220703,-0.005493164,-0.007202148,0,0,-0.007202148,0,4.077,0,0,0,0,nan,2,0.304,0,0,0,0,0,0,0,0,0,1,2,1
86.462,0.001007,-0.00390625,0.00390625,-0.001953125,0.03125,0.046875,9.867188,0,0.001953125,-0.001953125,nan,nan,nan,0.001220703,-0.005493164,-0.007202148,0,0,-0.007202148,0,4.077,0,0,0,0,nan,2,0.315,0,0,0,0,0,0,0,0,0,1,2,1
86.471,0.0009869999,-0.005859375,0.001953125,-0.0078125,0,0.0859375,9.796875,-0.001953125,0,-0.00390625,nan,nan,nan,0.001098633,-0.005493164,-0.007202148,0,0,-0.007202148,0,4.077,0,0,0,0,nan,2,0.324,0,0,0,0,0,0,0,0,0,1,2,1
86.481,0.001027,0.00390625,0,0.009765625,0.015625,0.140625,9.859375,0.001953125,0,0.00390625,nan,nan,nan,0.001220703,-0.005493164,-0.007202148,0,0,-0.007202148,0,4.077,0,0,0,0,nan,2,0.334,0,0,0,0,0,0,0,0,0,1,2,1
86.492,0.001012,-0.001953125,0.001953125,-0.01171875,0.015625,0.03125,9.921875,-0.001953125,0,-0.00390625,nan,nan,nan,0.001220703,-0.005493164,-0.007202148,0,0,-0.007202148,0,4.077,0,0,0,0,nan,2,0.344,0,0,0,0,0,0,0,0,0,1,2,1
86.502,0.000998,-0.0078125,0,0.0078125,0.1328125,-0.0234375,9.757812,-0.001953125,0.001953125,0.001953125,nan,nan,nan,0.001220703,-0.005493164,-0.007202148,0,0,-0.007202148,0,4.077,0,0,0,0,nan,2,0.354,0,0,0,0,0,0,0,0,0,1,2,1
86.512,0.001011,-0.001953125,-0.001953125,0.001953125,0.1015625,0.0390625,9.75,-0.001953125,0,0.001953125,nan,nan,nan,0.001098633,-0.005493164,-0.007202148,0,0,-0.007202148,0,4.077,0,0,0,0,nan,2,0.364,0,0,0,0,0,0,0,0,0,1,2,1
86.522,0.001042,0.00390625,0.00390625,-0.001953125,-0.078125,0.0234375,9.953125,0,0.001953125,-0.00390625,nan,nan,nan,0.001098633,-0.005493164,-0.007202148,0,0,-0.007202148,0,4.077,0,0,0,0,nan,2,0.374,0,0,0,0,0,0,0,0,0,1,2,1
86.532,0.001033,0,0.001953125,0,0.0078125,0.078125,9.804688,-0.001953125,0.001953125,0,nan,nan,nan,0.001098633,-0.005493164,-0.007202148,0,0,-0.007202148,0,4.077,0,0,0,0,nan,2,0.384,0,0,0,0,0,0,0,0,0,1,2,1
86.542,0.001015,0.001953125,-0.001953125,0.001953125,0.03125,0.1015625,9.828125,0,0,0,nan,nan,nan,0.001098633,-0.005371094,-0.007202148,0,0,-0.007202148,0,4.077,0,0,0,0,nan,2,0.394,0,0,0,0,0,0,0,0,0,1,2,1
86.552,0.001033,-0.001953125,-0.00390625,0.001953125,-0.0234375,-0.046875,9.796875,0,0,0,nan,nan,nan,0.001098633,-0.005371094,-0.007202148,0,0,-0.007202148,0,4.077,0,0,0,0,nan,2,0.404,0,0,0,0,0,0,0,0,0,1,2,1
86.561,0.001056,0.001953125,0.00390625,0.001953125,0,0.078125,9.734375,0,0.001953125,0.001953125,nan,nan,nan,0.001098633,-0.005371094,-0.007202148,0,0,-0.007202148,0,4.077,0,0,0,0,nan,2,0.414,0,0,0,0,0,0,0,0,0,1,2,1
86.572,0.00101,-0.001953125,-0.00390625,-0.001953125,0.0078125,0.015625,9.859375,-0.001953125,0,0,nan,nan,nan,0.001098633,-0.005371094,-0.007202148,0,0,-0.007202148,0,4.077,0,0,0,0,nan,2,0.425,0,0,0,0,0,0,0,0,0,1,2,1
86.581,0.00101,0.001953125,0.001953125,0,0.0078125,0.078125,9.789062,0,0.001953125,0,nan,nan,nan,0.001098633,-0.005371094,-0.007202148,0,0,-0.007202148,0,4.077,0,0,0,0,nan,2,0.434,0,0,0,0,0,0,0,0,0,1,2,1
86.591,0.0009860001,0.001953125,0.001953125,0,0.0546875,0.0234375,9.804688,0.001953125,0,0,nan,nan,nan,0.001098633,-0.005371094,-0.007202148,0,0,-0.007202148,0,4.077,0,0,0,0,nan,2,0.444,0,0,0,0,0,0,0,0,0,1,2,1
86.602,0.00101,0,0,-0.001953125,0.0078125,0.0625,9.867188,0,0.001953125,-0.001953125,nan,nan,nan,0.001098633,-0.005371094,-0.007202148,0,0,-0.007202148,0,4.077,0,0,0,0,nan,2,0.454,0,0,0,0,0,0,0,0,0,1,2,1
86.612,0.00101,0.00390625,0.00390625,0,0.046875,0.015625,9.789062,0,0,0,nan,nan,nan,0.001098633,-0.005371094,-0.007202148,0,0,-0.007202148,0,4.077,0,0,0,0,nan,2,0.464,0,0,0,0,0,0,0,0,0,1,2,1
86.622,0.00101,-0.001953125,-0.001953125,-0.001953125,0.0546875,0.0390625,9.765625,-0.001953125,0,0,nan,nan,nan,0.001098633,-0.005249023,-0.007202148,0,0,-0.007202148,0,4.077,0,0,0,0,nan,2,0.474,0,0,0,0,0,0,0,0,0,1,2,1
86.632,0.001008,0,0.00390625,0,0.046875,0.0078125,9.882812,-0.001953125,0.001953125,0,nan,nan,nan,0.001098633,-0.005249023,-0.007202148,0,0,-0.007202148,0,4.077,0,0,0,0,nan,2,0.484,0,0,0,0,0,0,0,0,0,1,2,1
86.642,0.00102,0.001953125,0.001953125,0,0.0546875,0.03125,9.820312,-0.001953125,0.001953125,0,nan,nan,nan,0.001098633,-0.005249023,-0.007202148,0,0,-0.007202148,0,4.077,0,0,0,0,nan,2,0.494,0,0,0,0,0,0,0,0,0,1,2,1
86.652,0.001002,0.001953125,0,0.001953125,0.03125,0.03125,9.828125,0,0,0,nan,nan,nan,0.001098633,-0.005249023,-0.007202148,0,0,-0.007202148,0,4.077,0,0,0,0,nan,2,0.504,0,0,0,0,0,0,0,0,0,1,2,1
86.662,0.00101,0.00390625,0.001953125,0,0.03125,0,9.789062,0,0.001953125,0,nan,nan,nan,0.001098633,-0.005249023,-0.007202148,0,0,-0.007202148,0,4.077,0,0,0,0,nan,2,0.515,0,0,0,0,0,0,0,0,0,1,2,1
86.671,0.001027,-0.001953125,0.005859375,0.001953125,0.0078125,0.0234375,9.820312,-0.001953125,0.00390625,0,nan,nan,nan,0.001098633,-0.005249023,-0.007202148,0,0,-0.007202148,0,4.077,0,0,0,0,nan,2,0.524,0,0,0,0,0,0,0,0,0,1,2,1
86.681,0.000996,0,0.00390625,0,0.046875,0.0390625,9.828125,-0.001953125,0.001953125,0,nan,nan,nan,0.001098633,-0.005249023,-0.007202148,0,0,-0.007202148,0,4.077,0,0,0,0,nan,2,0.534,0,0,0,0,0,0,0,0,0,1,2,1
86.691,0.001011,-0.001953125,0.001953125,0,0.0703125,0.03125,9.828125,-0.001953125,0,0,nan,nan,nan,0.001098633,-0.005126953,-0.007202148,0,0,-0.007202148,0,4.077,0,0,0,0,nan,2,0.544,0,0,0,0,0,0,0,0,0,1,2,1
86.702,0.001011,-0.001953125,0.00390625,0.001953125,0.0546875,0.015625,9.835938,-0.001953125,0.001953125,0,nan,nan,nan,0.001098633,-0.005126953,-0.007202148,0,0,-0.007202148,0,4.077,0,0,0,0,nan,2,0.554,0,0,0,0,0,0,0,0,0,1,2,1
86.712,0.001011,0,0.00390625,0.001953125,0.0234375,0,9.820312,-0.001953125,0.001953125,0,nan,nan,nan,0.001098633,-0.005126953,-0.007202148,0,0,-0.007202148,0,4.077,0,0,0,0,nan,2,0.564,0,0,0,0,0,0,0,0,0,1,2,1
86.722,0.001011,0,-0.001953125,0,0.0625,0.0234375,9.773438,0,0,-0.001953125,nan,nan,nan,0.001098633,-0.005126953,-0.007202148,0,0,-0.007202148,0,4.077,0,0,0,0,nan,2,0.574,0,0,0,0,0,0,0,0,0,1,2,1
86.732,0.001017,0.00390625,0.001953125,0,0.03125,0.03125,9.820312,0,0.001953125,0,nan,nan,nan,0.001098633,-0.005126953,-0.007324219,0,0,-0.007324219,0,4.077,0,0,0,0,nan,2,0.584,0,0,0,0,0,0,0,0,0,1,2,1
86.742,0.001013,-0.001953125,0.001953125,-0.001953125,0.0625,-0.0234375,9.820312,0,0,-0.001953125,nan,nan,nan,0.001098633,-0.005126953,-0.007324219,0,0,-0.007324219,0,4.077,0,0,0,0,nan,2,0.594,0,0,0,0,0,0,0,0,0,1,2,1
86.752,0.001002,0,-0.001953125,0,0.0625,0.015625,9.851562,0,0,0,nan,nan,nan,0.001098633,-0.005126953,-0.007324219,0,0,-0.007324219,0,4.077,0,0,0,0,nan,2,0.604,0,0,0,0,0,0,0,0,0,1,2,1
86.762,0.001011,0,-0.001953125,0.001953125,0.046875,0.015625,9.804688,0,0,0,nan,nan,nan,0.001098633,-0.005126953,-0.007324219,0,0,-0.007324219,0,4.077,0,0,0,0,nan,2,0.615,0,0,0,0,0,0,0,0,0,1,2,1
86.772,0.001011,0,0.001953125,0,0.0234375,0.03125,9.828125,0,0,0,nan,nan,nan,0.001098633,-0.005126953,-0.007324219,0,0,-0.007324219,0,4.077,0,0,0,0,nan,2,0.625,0,0,0,0,0,0,0,0,0,1,2,1
