t,dt_s,gyro_x,gyro_y,gyro_z,acc_x,acc_y,acc_z,rates.x,rates.y,rates.z,ratesTarget.x,ratesTarget.y,ratesTarget.z,attitude.x,attitude.y,attitude.z,attitudeTarget.x,attitudeTarget.y,attitudeTarget.z,thrustTarget,battery_v,rc_roll,rc_pitch,rc_yaw,rc_throttle,rc_mode,flight_mode,rc_age_s,armed,fault_mask,motor_rl,motor_rr,motor_fr,motor_fl,rate_i_x,rate_i_y,rate_i_z,mix_scale,control_source,accel_correction_confidence
50.112,0.001016,0.009765625,-0.015625,-0.02929688,0.4375,-1.773438,10.16406,0.0078125,-0.001953125,-0.015625,0,0,0,0.001831055,-0.004760742,0.0004882812,0,0,0.0004882812,0,4.077,0,0,0,0,nan,2,0.241,1,0,0.1000061,0.1000061,0.1000061,0.1000061,0,0,0,1,2,0
50.122,0.001015,-0.02148438,0.005859375,-0.001953125,0.3203125,1.125,10.49219,-0.00390625,-0.00390625,-0.009765625,0,0,0,0.001831055,-0.004760742,0.0002441406,0,0,0.0004882812,0,4.077,0,0,0,0,nan,2,0.251,1,0,0.1000061,0.1000061,0.1000061,0.1000061,0,0,0,1,2,0
50.132,0.001007,0.001953125,0.0234375,0.02148438,-0.2421875,0.0234375,11.10156,0,0.01171875,0.02148438,0,0,0,0.001708984,-0.004760742,0.0003662109,0,0,0.0004882812,0,4.077,0,0,0,0,nan,2,0.262,1,0,0.1000061,0.1000061,0.1000061,0.1000061,0,0,0,1,2,0
50.142,0.000973,0.03515625,0.0078125,-0.0078125,-0.203125,-0.796875,9.703125,0.0078125,-0.01367188,-0.001953125,0,0,0,0.001708984,-0.004760742,0.0004882812,0,0,0.0004882812,0,4.077,0,0,0,0,nan,2,0.272,1,0,0.1000061,0.1000061,0.1000061,0.1000061,0,0,0,1,2,0.8412699
50.152,0.001048,-0.01953125,0.03710938,-0.01171875,-0.265625,0.4765625,10.1875,-0.01367188,0.0078125,-0.01171875,0,0,0,0.001708984,-0.004760742,0.0003662109,0,0,0.0004882812,0,4.077,0,0,0,0,nan,2,0.282,1,0,0.1000061,0.1000061,0.1000061,0.1000061,0,0,0,1,2,0.1746032
50.162,0.0009869999,0.01367188,-0.001953125,-0.03515625,0.125,-0.015625,9.921875,0.00390625,0.001953125,-0.0234375,0,0,0,0.001708984,-0.004760742,0.0002441406,0,0,0.0004882812,0,4.077,0,0,0,0,nan,2,0.292,1,0,0.1000061,0.1000061,0.1000061,0.1000061,0,0,0,1,2,0.7301587
50.171,0.001024,0.01757812,-0.0234375,-0.05859375,-0.2890625,0.2734375,10.74219,0.015625,-0.015625,-0.04882812,0,0,0,0.001708984,-0.004760742,-0.0001220703,0,0,0.0004882812,0,4.077,0,0,0,0,nan,2,0.301,1,0,0.1000061,0.1000061,0.1000061,0.1000061,0,0,0,1,2,0
50.182,0.000983,0.04882812,-0.009765625,-0.0078125,-0.375,0.2734375,9.460938,0.001953125,-0.001953125,-0.03125,0,0,0,0.001708984,-0.004882812,-0.0006103516,0,0,0.0004882812,0,4.077,0,0,0,0.00177002,nan,2,0.311,1,0,0.1000061,0.1000061,0.1000061,0.1000061,0,0,0,1,3,0.3015873
50.192,0.000974,0.001953125,0.0078125,0.03515625,0.171875,0.375,9.4375,0.0078125,0,0.01757812,0,0,0,0.001953125,-0.004882812,-0.0006103516,0,0,0.0004882812,0,4.077,0,0,0,0.00378418,nan,2,0.321,1,0,0.1000061,0.1000061,0.1000061,0.1000061,0,0,0,1,3,0.2539683
50.202,0.001004,0.01367188,0.00390625,0.015625,0.09375,-1.367188,9.054688,0.015625,-0.001953125,0.02148438,0,0,0,0.002075195,-0.004882812,-0.0003662109,0,0,0.0004882812,0,4.077,0,0,0,0.00579834,nan,2,0.331,1,0,0.1000061,0.1000061,0.1000061,0.1000061,0,0,0,1,3,0
50.212,0.001002,-0.06054688,0.01367188,-0.0078125,0.5859375,1.492188,11.875,-0.01367188,0.001953125,0,0,0,0,0.002075195,-0.004882812,-0.0002441406,0,0,0.0004882812,0,4.077,0,0,0,0.0078125,nan,2,0.341,1,0,0.1000061,0.1000061,0.1000061,0.1000061,0,0,0,1,3,0
50.222,0.001007,-0.01171875,0.01367188,-0.005859375,-0.625,-2.023438,6.9375,-0.01367188,0.0078125,-0.001953125,0,0,0,0.001831055,-0.004882812,-0.0002441406,0,0,0.0004882812,0,4.077,0,0,0,0.01000977,nan,2,0.351,1,0,0.1000061,0.1000061,0.1000061,0.1000061,0,0,0,1,3,0
50.232,0.001009,-0.01367188,0,-0.01171875,0.1171875,1.515625,12.54688,-0.00390625,0.00390625,-0.0078125,0,0,0,0.001831055,-0.004760742,-0.0002441406,0,0,0.0004882812,0,4.077,0,0,0,0.01202393,nan,2,0.362,1,0,0.1000061,0.1000061,0.1000061,0.1000061,0,0,0,1,3,0
50.242,0.001002,-0.0078125,0.01757812,0.015625,0.0703125,0.703125,7.242188,-0.015625,0.01171875,0.00390625,0,0,0,0.001708984,-0.004760742,-0.0003662109,0,0,0.0004882812,0,4.077,0,0,0,0.01397705,nan,2,0.372,1,0,0.1000061,0.1000061,0.1000061,0.1000061,0,0,0,1,3,0
50.252,0.001016,0.0078125,-0.0234375,0.07421875,-0.109375,-0.3359375,11.42969,0.001953125,0.001953125,0.05859375,0,0,0,0.001708984,-0.004638672,0,0,0,0.0004882812,0,4.077,0,0,0,0.01599121,nan,2,0.382,1,0,0.1000061,0.1000061,0.1000061,0.1000061,0,0,0,1,3,0
50.262,0.001009,0.0390625,-0.005859375,0.001953125,1.367188,2.992188,7.882812,0.01953125,-0.005859375,0.03320312,0,0,0,0.001831055,-0.004638672,0.0006103516,0,0,0.0004882812,0,4.077,0,0,0,0.01800537,nan,2,0.392,1,0,0.1000061,0.1000061,0.1000061,0.1000061,0,0,0,1,3,0
50.271,0.001011,-0.01953125,0.009765625,-0.04101562,1.898438,2.554688,8.265625,0,0.001953125,-0.0234375,0,0,0,0.001831055,-0.004638672,0.0004882812,0,0,0.0004882812,0,4.077,0,0,0,0.01977539,nan,2,0.401,1,0,0.1000061,0.1000061,0.1000061,0.1000061,0,0,0,1,3,0
50.281,0.001006,-0.02539062,0.01171875,-0.0390625,-0.4375,2.203125,10.60938,-0.005859375,0.001953125,-0.03515625,0,0,0,0.001953125,-0.004638672,0.0002441406,0,0,0.0004882812,0,4.077,0,0,0,0.02178955,nan,2,0.411,1,0,0.1000061,0.1000061,0.1000061,0.1000061,0,0,0,1,3,0
50.292,0.001052,-0.015625,0.01171875,-0.05078125,0.078125,-1.21875,14.21094,0,0,-0.04492188,0,0,0,0.001953125,-0.004638672,-0.0002441406,0,0,0.0004882812,0,4.077,0,0,0,0.02380371,nan,2,0.421,1,0,0.1000061,0.1000061,0.1000061,0.1000061,0,0,0,1,3,0
50.302,0.001006,-0.03125,0.02734375,-0.01171875,0.5390625,-2.734375,7.65625,-0.001953125,0.00390625,-0.02539062,0,0,0,0.001953125,-0.004638672,-0.0006103516,0,0,0.0004882812,0,4.077,0,0,0,0.02581787,nan,2,0.431,1,0,0.1000061,0.1000061,0.1000061,0.1000061,0,0,0,1,3,0
50.312,0.001009,0.0234375,0.001953125,0.0234375,0.0390625,-1.070312,8.179688,0.005859375,0.009765625,0.015625,0,0,0,0.001953125,-0.004516602,-0.0006103516,0,0,0.0004882812,0,4.077,0,0,0,0.027771,nan,2,0.441,1,0,0.1000061,0.1000061,0.1000061,0.1000061,0,0,0,1,3,0
50.322,0.001009,-0.01171875,0.00390625,-0.001953125,0.34375,0.96875,11.20312,0,-0.01953125,0.005859375,0,0,0,0.002075195,-0.004760742,-0.0004882812,0,0,0.0004882812,0,4.077,0,0,0,0.02978516,nan,2,0.451,1,0,0.1000061,0.1000061,0.1000061,0.1000061,0,0,0,1,3,0
50.332,0.001011,-0.01953125,0.03515625,-0.015625,-1.171875,2.710938,13.01562,0.005859375,0.01367188,-0.01757812,0,0,0,0.002197266,-0.004760742,-0.0004882812,0,0,0.0004882812,0,4.077,0,0,0,0.03198242,nan,2,0.462,1,0,0.1000061,0.1000061,0.1000061,0.1000061,0,0,0,1,3,0
50.342,0.001007,-0.0234375,-0.00390625,-0.02539062,-1.273438,1.078125,14.30469,-0.001953125,0,-0.02734375,0,0,0,0.002197266,-0.004638672,-0.0008544922,0,0,0.0004882812,0,4.077,0,0,0,0.03399658,nan,2,0.472,1,0,0.1000061,0.1000061,0.1000061,0.1000061,0,0,0,1,3,0
50.352,0.000974,0,0.009765625,-0.01171875,0.3828125,-3.125,7.023438,0.005859375,-0.001953125,-0.01757812,0,0,0,0.002197266,-0.004638672,-0.001098633,0,0,0.0004882812,0,4.077,0,0,0,0.03601074,nan,2,0.482,1,0,0.1000061,0.1000061,0.1000061,0.1000061,0,0,0,1,3,0
50.361,0.001008,-0.02148438,0.02148438,0.01953125,-0.28125,0.5703125,12.89062,-0.00390625,0.0078125,0.009765625,0,0,0,0.002197266,-0.004638672,-0.001098633,0,0,0.0004882812,0,4.077,0,0,0,0.03778076,nan,2,0.491,1,0,0.1000061,0.1000061,0.1000061,0.1000061,0,0,0,1,3,0
50.371,0.001031,-0.01367188,-0.009765625,-0.01953125,-0.3515625,-0.453125,12.3125,-0.001953125,-0.001953125,-0.0078125,0,0,0,0.002197266,-0.004638672,-0.0009765625,0,0,0.0004882812,0,4.077,0,0,0,0.03979492,nan,2,0.501,1,0,0.1000061,0.1000061,0.1000061,0.1000061,0,0,0,1,3,0
50.381,0.001011,0.03515625,-0.009765625,-0.02734375,0.7421875,-0.421875,10.69531,-0.00390625,-0.001953125,-0.03125,0,0,0,0.002075195,-0.004638672,-0.001220703,0,0,0.0004882812,0,4.077,0,0,0,0.04180908,nan,2,0.511,1,0,0.1000061,0.1000061,0.1000061,0.1000061,0,0,0,1,3,0
50.392,0.001011,0.0234375,-0.03710938,-0.01171875,1.390625,-0.8359375,11.51562,0.0078125,-0.009765625,-0.015625,0,0,0,0.002075195,-0.004760742,-0.001464844,0,0,0.0004882812,0,4.077,0,0,0,0.04382324,nan,2,0.521,1,0,0.1000061,0.1000061,0.1000061,0.1000061,0,0,0,1,3,0
50.402,0.001007,0.01953125,-0.001953125,-0.0390625,1.28125,0.984375,14.76562,0.0078125,0,-0.02929688,0,0,0,0.002197266,-0.004760742,-0.001586914,0,0,0.0004882812,0,4.077,0,0,0,0.04577637,nan,2,0.531,1,0,0.1000061,0.1000061,0.1000061,0.1000061,0,0,0,1,3,0
50.412,0.001009,0.009765625,-0.02539062,-0.02734375,-0.4296875,-0.09375,15.17969,0.001953125,-0.001953125,-0.03320312,0,0,0,0.002197266,-0.004760742,-0.001953125,0,0,0.0004882812,0,4.077,0,0,0,0.04779053,nan,2,0.541,1,0,0.1000061,0.1000061,0.1000061,0.1000061,0,0,0,1,3,0
50.422,0.001009,0.01757812,-0.009765625,-0.01367188,-1.289062,2.21875,12.08594,0.001953125,-0.00390625,-0.0234375,0,0,0,0.002197266,-0.004760742,-0.002319336,0,0,0.0004882812,0,4.077,0,0,0,0.04980469,nan,2,0.551,1,0,0.1000061,0.1000061,0.1000061,0.1000061,0,0,0,1,3,0
50.432,0.001007,0,-0.01757812,-0.00390625,0.046875,2.914062,9.195312,-0.001953125,0.001953125,-0.015625,-0.01367188,0.02929688,0,0.002197266,-0.004760742,-0.002441406,0,0,0.0004882812,0.1016846,4.077,0,0,0,0.05200195,nan,2,0.562,1,0,0.110321,0.09719849,0.1057739,0.09344482,0,0,0,1,3,0.6349207
50.442,0.001004,-0.01171875,0.0234375,0.03125,0.375,2.8125,12.33594,-0.005859375,0.01757812,0.01367188,-0.01367188,0.02929688,0,0.002197266,-0.004760742,-0.002563477,0,0,0.0004882812,0.103363,4.077,0,0,0,0.05401611,nan,2,0.572,1,0,0.1386108,0.06536865,0.1410828,0.06845093,0,0,0,1,3,0
50.452,0.001003,-0.001953125,-0.001953125,-0.03515625,0.6015625,1.5625,11.09375,-0.001953125,0,-0.01953125,-0.01367188,0.02929688,0,0.002197266,-0.004760742,-0.002563477,0,0,0.0004882812,0.1050415,4.077,0,0,0,0.05603027,nan,2,0.582,1,0,0.06872559,0.1455078,0.06539917,0.140564,0,0,0,1,3,0
50.462,0.001003,0,-0.02734375,-0.04101562,-0.8671875,2.804688,15.01562,0.001953125,-0.015625,-0.0390625,-0.01367188,0.02929688,0,0.002319336,-0.004760742,-0.002807617,0,0,0.0004882812,0.1067505,4.077,0,0,0,0.0579834,nan,2,0.592,1,0,0.08218384,0.1394958,0.07510376,0.1301575,0,0,0,1,3,0
50.471,0.001017,0.009765625,0.005859375,-0.02929688,1.851562,-2.007812,7.546875,-0.01171875,0.0078125,-0.03515625,-0.01367188,0.02929688,0,0.002197266,-0.004882812,-0.003173828,0,0,0.0004882812,0.1082458,4.077,0,0,0,0.05981445,nan,2,0.601,1,0,0.1003723,0.1144714,0.1000671,0.1180725,0,0,0,1,3,0
50.481,0.001012,0.001953125,0.0234375,-0.0078125,-0.9296875,-3.492188,6.539062,0,0.01953125,-0.01171875,-0.01367188,0.02929688,0,0.002197266,-0.004760742,-0.003417969,0,0,0.0004882812,0.1099243,4.077,0,0,0,0.06182861,nan,2,0.611,1,0,0.1237183,0.09268188,0.1282654,0.09509277,0,0,0,1,3,0
50.492,0.001015,0.03125,-0.01757812,-0.01953125,2.039062,0.390625,12.38281,0.009765625,-0.001953125,-0.01171875,-0.01367188,0.02929688,0,0.002197266,-0.004760742,-0.003540039,0,0,0.0004882812,0.1116333,4.077,0,0,0,0.06378174,nan,2,0.621,1,0,0.106781,0.1229858,0.1061096,0.1105957,0,0,0,1,3,0
50.502,0.000942,0.0234375,0.01171875,-0.005859375,-2.101562,1.882812,11.32031,-0.00390625,0.01367188,-0.005859375,-0.01367188,0.02734375,0,0.002197266,-0.004638672,-0.003540039,0,0,0.0004882812,0.1133118,4.077,0,0,0,0.0657959,nan,2,0.631,1,0,0.1166687,0.1098633,0.117218,0.1094666,0,0,0,1,3,0
50.512,0.00097,0.001953125,0.03125,-0.02734375,0.484375,3.890625,10.24219,-0.01367188,0.015625,-0.01757812,-0.01367188,0.02734375,0,0.002197266,-0.004638672,-0.003662109,0,0,0.0004882812,0.1149902,4.077,0,0,0,0.06781006,nan,2,0.641,1,0,0.09893799,0.1282349,0.09811401,0.1346741,0,0,0,1,3,0
50.522,0.00101,0.02734375,0.005859375,-0.01953125,-0.046875,-1.9375,2.804688,0.01171875,0.0078125,-0.01757812,-0.01367188,0.02734375,0,0.002197266,-0.004516602,-0.00390625,0,0,0.0004882812,0.1166687,4.077,0,0,0,0.06982422,nan,2,0.651,1,0,0.1076355,0.1287842,0.1132812,0.1170349,0,0,0,1,3,0
50.532,0.001021,-0.02929688,-0.0078125,-0.02929688,-0.7734375,-3.046875,14.59375,-0.01171875,0.001953125,-0.02929688,-0.01367188,0.02734375,0,0.002197266,-0.004516602,-0.004150391,0,0,0.0004882812,0.1185303,4.077,0,0,0,0.07202148,nan,2,0.662,1,0,0.10495,0.1369019,0.09686279,0.135376,0,0,0,1,3,0
50.542,0.001011,0.005859375,0.0078125,-0.01757812,-0.09375,5.945312,10.53906,0,0.01171875,-0.02148438,-0.01367188,0.02734375,0,0.002197266,-0.004394531,-0.004394531,0,0,0.0004882812,0.1202087,4.077,0,0,0,0.07397461,nan,2,0.672,1,0,0.1177063,0.1235657,0.1195068,0.1200562,0,0,0,1,3,0
50.552,0.001008,0.04882812,-0.01953125,-0.00390625,-2.132812,2.085938,13.23438,0.02929688,-0.01171875,-0.001953125,-0.01367188,0.02734375,0,0.002197266,-0.004394531,-0.004516602,0,0,0.0004882812,0.1218872,4.077,0,0,0,0.07598877,nan,2,0.682,1,0,0.1330261,0.1203613,0.1369019,0.09725952,0,0,0,1,3,0
50.562,0.00101,-0.02929688,0.03125,-0.04492188,-0.140625,-3.625,6.96875,-0.009765625,0.009765625,-0.03710938,-0.01367188,0.02734375,0,0.002441406,-0.004394531,-0.004760742,0,0,0.0004882812,0.1235657,4.077,0,0,0,0.07800293,nan,2,0.692,1,0,0.09185791,0.1532593,0.08572388,0.1634827,0,0,0,1,3,0
50.571,0.00101,-0.001953125,0.005859375,-0.001953125,-1.085938,0.921875,12.28125,0.009765625,0.015625,-0.01171875,-0.015625,0.02539062,0,0.002441406,-0.004394531,-0.005004883,0,0,0.0004882812,0.1250916,4.077,0,0,0,0.07977295,nan,2,0.701,1,0,0.1396179,0.1105652,0.1429443,0.1072693,0,0,0,1,3,0
50.582,0.001006,0.02539062,-0.02929688,-0.03320312,-0.0546875,-5.070312,8.15625,-0.009765625,0,-0.02539062,-0.01367188,0.02539062,0,0.002441406,-0.004272461,-0.005126953,0,0,0.0004882812,0.12677,4.077,0,0,0,0.08178711,nan,2,0.711,1,0,0.1044617,0.1559143,0.09710693,0.1496277,0,0,0,1,3,0.5873016
50.592,0.001005,-0.01757812,-0.02539062,-0.005859375,0.2890625,3.351562,9.328125,-0.01953125,-0.0078125,-0.01367188,-0.01367188,0.02539062,0,0.002319336,-0.004272461,-0.005371094,0,0,0.0004882812,0.1284485,4.077,0,0,0,0.08380127,nan,2,0.721,1,0,0.1500244,0.1151428,0.1383362,0.1103516,0,0,0,1,3,0.6190476
50.602,0.001006,-0.01367188,-0.03320312,-0.02929688,1.984375,-3.109375,8.203125,-0.02148438,-0.005859375,-0.009765625,-0.01367188,0.02539062,0,0.002197266,-0.004272461,-0.005371094,0,0,0.0004882812,0.1301575,4.077,0,0,0,0.08581543,nan,2,0.731,1,0,0.1221619,0.1452332,0.1109924,0.1422119,0,0,0,1,3,0
50.612,0.001005,-0.0078125,0.01367188,-0.046875,1.8125,2.4375,6.632812,-0.01757812,-0.001953125,-0.0390625,-0.01171875,0.02539062,0,0.001953125,-0.004394531,-0.005615234,0,0,0.0004882812,0.1318359,4.077,0,0,0,0.08782959,nan,2,0.741,1,0,0.09329224,0.1738281,0.09216309,0.1680603,0,0,0,1,3,0
50.622,0.001006,0.005859375,0.0234375,-0.00390625,2.265625,3.070312,12.15625,0,0.0078125,-0.01171875,-0.01171875,0.02539062,0,0.001953125,-0.004272461,-0.005859375,0,0,0.0004882812,0.1335144,4.077,0,0,0,0.08978271,nan,2,0.751,1,0,0.1491089,0.1182251,0.1540222,0.1127319,0,0.0009765625,0,1,3,0
50.632,0.001004,0.01367188,0,-0.0703125,0.9609375,-3.492188,7.609375,-0.0078125,0.009765625,-0.04492188,-0.01171875,0.02539062,0,0.001831055,-0.004272461,-0.006225586,0,0,0.0004882812,0.135376,4.077,0,0,0,0.09197998,nan,2,0.761,1,0,0.08682251,0.1846924,0.08609009,0.1838684,0,0.0009765625,0,1,3,0
50.642,0.001004,0,-0.0234375,-0.04296875,-1.929688,-1.9375,10.4375,0.005859375,-0.005859375,-0.0546875,-0.01171875,0.02539062,0,0.002075195,-0.004272461,-0.006713867,0,0,0.0004882812,0.1370544,4.077,0,0,0,0.09399414,nan,2,0.772,1,0,0.1236877,0.1566162,0.1176453,0.150238,0,0.0009765625,0,1,3,0
50.652,0.001007,0.0390625,-0.0234375,-0.0390625,-1.382812,-5.570312,6.898438,0,-0.00390625,-0.03515625,-0.01171875,0.02539062,0,0.002075195,-0.004272461,-0.007080078,0,0,0.0004882812,0.1387329,4.077,0,0,0,0.0960083,nan,2,0.782,1,0,0.1390686,0.1445618,0.1348572,0.1364746,0,0.0009765625,0,1,3,0
50.662,0.001039,0.001953125,-0.005859375,0.0078125,-1.117188,-2.421875,6.640625,-0.01367188,-0.00390625,-0.00390625,-0.01171875,0.02539062,0,0.001953125,-0.004272461,-0.007324219,0,0,0.0004882812,0.1402588,4.077,0,0,0,0.09777832,nan,2,0.791,1,0,0.1758423,0.1115417,0.1657715,0.1078491,0,0.0009765625,0,1,3,0
50.671,0.001008,-0.01171875,-0.001953125,-0.01171875,1.757812,-3.617188,0.34375,0.00390625,0.009765625,-0.005859375,-0.01171875,0.02539062,0,0.001953125,-0.004272461,-0.007324219,0,0,0.0004882812,0.1419373,4.077,0,0,0,0.09979248,nan,2,0.801,1,0,0.1384277,0.1457825,0.1413879,0.1421814,0,0.0009765625,0,1,3,0
50.681,0.00101,0.02734375,-0.03125,-0.03125,2.3125,-3.59375,9.429688,0.02148438,-0.0234375,-0.0234375,-0.01171875,0.02734375,0,0.002075195,-0.004394531,-0.007568359,0,0,0.0004882812,0.1436157,4.077,0,0,0,0.1018066,nan,2,0.811,1,0,0.1225281,0.1767578,0.1203003,0.1549072,0,0.0009765625,0,1,3,0
50.692,0.00101,0.00390625,-0.0078125,0.009765625,-1.164062,-2.171875,9.15625,-0.00390625,0.005859375,0.005859375,-0.01171875,0.02734375,0,0.002075195,-0.004394531,-0.007568359,0,0,0.0004882812,0.1452942,4.077,0,0,0,0.1038208,nan,2,0.821,1,0,0.1703186,0.1218262,0.171051,0.1180115,0,0.0009765625,0,1,3,0.2063492
50.702,0.001065,-0.04882812,0.02539062,-0.05078125,2.023438,0.75,3.484375,-0.03710938,0.01953125,-0.03125,-0.009765625,0.02539062,0,0.001708984,-0.004272461,-0.00769043,0,0,0.0004882812,0.1470032,4.077,0,0,0,0.1057739,nan,2,0.831,1,0,0.1052551,0.1883545,0.09786987,0.1964722,0,0.0009765625,0,1,3,0
50.712,0.001012,-0.00390625,-0.0078125,-0.08007812,-1.210938,-4.226562,5.90625,-0.0234375,0,-0.06835938,-0.009765625,0.02539062,0,0.001464844,-0.004272461,-0.008300781,0,0,0.0004882812,0.1486816,4.077,0,0,0,0.1077881,nan,2,0.841,1,0,0.09732056,0.2073364,0.0904541,0.199585,0,0.0009765625,0,1,3,0
50.722,0.001012,-0.01367188,-0.00390625,0.001953125,0.0546875,-0.9453125,5.4375,0.009765625,-0.015625,-0.01757812,-0.009765625,0.02539062,0,0.001464844,-0.004272461,-0.008789062,0,0,0.0004882812,0.1503601,4.077,0,0,0,0.1098022,nan,2,0.851,1,0,0.1979675,0.1129456,0.1949158,0.09561157,0,0.0009765625,0,1,3,0
50.732,0.001011,-0.02734375,0.04492188,0.01171875,0.2734375,-6.84375,10.28906,-0.04296875,0.03710938,-0.015625,-0.0078125,0.02539062,0,0.001220703,-0.004150391,-0.008911133,0,0,0.0004882812,0.1522217,4.077,0,0,0,0.1119995,nan,2,0.861,1,0,0.1670837,0.1306152,0.1644592,0.1467285,0,0.0009765625,0,1,3,0
50.742,0.001007,-0.01953125,-0.015625,0.01953125,0.359375,-1.578125,5.328125,0.00390625,-0.005859375,0.02539062,-0.005859375,0.02539062,0,0.001098633,-0.004150391,-0.008789062,0,0,0.0004882812,0.1539001,4.077,0,0,0,0.1140137,nan,2,0.872,1,0,0.1836853,0.1296692,0.1802979,0.1219177,0,0.0009765625,0,1,3,0
50.752,0.001016,0.1015625,-0.06640625,-0.0390625,-0.8515625,1.265625,18.96094,0.01367188,-0.01757812,-0.02539062,-0.005859375,0.02539062,0,0.001098633,-0.004150391,-0.008789062,0,0,0.0004882812,0.1555786,4.077,0,0,0,0.1160278,nan,2,0.882,1,0,0.1144409,0.2093506,0.112854,0.1856384,0,0.0009765625,0,1,3,0
50.762,0.001012,-0.03710938,-0.015625,0.0390625,2.023438,5.015625,11.53125,-0.001953125,-0.01171875,0.01953125,-0.0078125,0.02539062,0,0.001098633,-0.004272461,-0.008911133,0,0,0.0004882812,0.1572571,4.077,0,0,0,0.117981,nan,2,0.892,1,0,0.2088318,0.1131592,0.1994934,0.1075439,0,0.0009765625,0,1,3,0
50.771,0.001008,-0.03515625,0.078125,-0.005859375,0.296875,-2.632812,4.15625,-0.0078125,0.01757812,0.001953125,-0.0078125,0.02539062,0,0.001098633,-0.004272461,-0.008789062,0,0,0.0004882812,0.158783,4.077,0,0,0,0.119812,nan,2,0.901,1,0,0.1465759,0.1636353,0.1498108,0.1750793,0,0.0009765625,0,1,3,0
50.781,0.001,0.01367188,-0.05078125,-0.08789062,-1.484375,-0.859375,14.6875,0.01953125,-0.015625,-0.05664062,-0.0078125,0.02539062,0,0.001220703,-0.004272461,-0.009033203,0,0,0.0004882812,0.1604614,4.077,0,0,0,0.1218262,nan,2,0.911,1,0,0.08724976,0.2468262,0.0836792,0.2240906,0,0.0009765625,0,1,3,0
50.792,0.001001,-0.0234375,0.0078125,-0.04492188,0.1484375,4.203125,10.875,0,0.00390625,-0.06445312,-0.0078125,0.02539062,0,0.001220703,-0.004394531,-0.009765625,0,0,0.0004882812,0.1621399,4.077,0,0,0,0.1237793,nan,2,0.921,1,0,0.1540833,0.1707458,0.1510315,0.1727295,0,0.0009765625,0,1,3,0
50.802,0.001006,0.005859375,-0.009765625,-0.04492188,0.3671875,-0.078125,6.21875,-0.005859375,0.005859375,-0.05859375,-0.005859375,0.02539062,0,0.001098633,-0.004272461,-0.01037598,0,0,0.0004882812,0.1638184,4.077,0,0,0,0.1257935,nan,2,0.931,1,0,0.15448,0.1777954,0.1531372,0.1699219,0,0.0009765625,0,1,3,0
50.812,0.001029,-0.015625,0.0625,-0.06640625,0.8671875,-6.0625,7.0625,-0.001953125,0.01757812,-0.05664062,-0.005859375,0.02539062,0,0.001098633,-0.004272461,-0.01086426,0,0,0.0004882812,0.1655273,4.077,0,0,0,0.1278076,nan,2,0.941,1,0,0.1336365,0.1938782,0.1396484,0.1949463,0,0.0009765625,0,1,3,0.04761905
50.822,0.001007,-0.005859375,0.02148438,-0.03710938,2.757812,-5.359375,11.14062,-0.00390625,0.009765625,-0.03710938,-0.005859375,0.02539062,0,0.001098633,-0.004150391,-0.01135254,0,0,0.0004882812,0.1672058,4.077,0,0,0,0.1298218,nan,2,0.951,1,0,0.1699829,0.1682434,0.1657715,0.1647949,0,0.0009765625,0,1,3,0
50.832,0.001026,-0.04296875,0.03710938,-0.009765625,-0.09375,-0.3828125,12.50781,-0.0390625,0.02929688,-0.0234375,-0.005859375,0.0234375,0,0.0009765625,-0.00402832,-0.01171875,0,0,0.0004882812,0.1690674,4.077,0,0,0,0.132019,nan,2,0.962,1,0,0.1873779,0.1475525,0.1789856,0.162323,0,0.0009765625,0,1,3,0
50.842,0.001011,-0.009765625,0.01757812,-0.02734375,-2.015625,-5.34375,7.90625,-0.01367188,0.001953125,-0.02539062,-0.005859375,0.0234375,0,0.0008544922,-0.00390625,-0.01196289,0,0,0.0004882812,0.1707458,4.077,0,0,0,0.1339722,nan,2,0.972,1,0,0.1657715,0.1817322,0.1567993,0.1786499,0,0.0009765625,0,1,3,0.5238096
50.851,0.000997,0.05664062,0.02929688,-0.02539062,-3.078125,6.609375,14.90625,0.02734375,0.02734375,-0.0234375,-0.005859375,0.0234375,0,0.0009765625,-0.00378418,-0.01220703,0,0,0.0004882812,0.1722412,4.077,0,0,0,0.1358032,nan,2,0.981,1,0,0.1569824,0.184021,0.1730347,0.1749878,0,0.0009765625,0,1,3,0
50.861,0.00104,0.01757812,-0.01757812,-0.0078125,-1.601562,5.539062,11.95312,0.01367188,-0.001953125,-0.02539062,-0.005859375,0.02148438,0,0.001098633,-0.00378418,-0.01245117,0,0,0.0004882812,0.1739502,4.077,0,0,0,0.1378174,nan,2,0.991,1,0,0.1822815,0.1724548,0.1785889,0.1624451,0,0.0009765625,0,1,3,0
50.871,0.00101,0.03320312,-0.04882812,-0.009765625,0.859375,-2.226562,8.164062,0.015625,-0.0234375,-0.01953125,-0.0078125,0.0234375,0,0.001220703,-0.00378418,-0.01269531,0,0,0.0004882812,0.1756287,4.077,0,0,0,0.1398315,nan,2,1.001,1,0,0.1787415,0.1878662,0.170166,0.1656799,0,0.0009765625,0,1,3,0
50.881,0.00101,0.005859375,-0.00390625,0.00390625,2.34375,4.046875,11.25,0,-0.009765625,0.001953125,-0.0078125,0.0234375,0,0.001342773,-0.00390625,-0.01269531,0,0,0.0004882812,0.1773071,4.077,0,0,0,0.1417847,nan,2,1.011,1,0,0.2002869,0.1622314,0.1893921,0.1573486,0,0.0009765625,0,1,3,0
50.892,0.001008,-0.01953125,0.03710938,-0.01953125,-0.375,2.398438,10.28125,0.00390625,0.009765625,-0.015625,-0.009765625,0.0234375,0,0.001586914,-0.00390625,-0.01281738,0,0,0.0004882812,0.1789856,4.077,0,0,0,0.1437988,nan,2,1.021,1,0,0.1628418,0.193634,0.1592407,0.2002258,0,0.0009765625,0,1,3,0
50.902,0.001049,-0.02148438,0.03710938,-0.06054688,-1.59375,-8.085938,3.007812,0.001953125,0.00390625,-0.02539062,-0.009765625,0.0234375,0,0.001586914,-0.00390625,-0.01293945,0,0,0.0004882812,0.1806641,4.077,0,0,0,0.145813,nan,2,1.031,1,0,0.1365356,0.2243958,0.1377869,0.223999,0,0.0009765625,0,1,3,0
50.912,0.00101,0.01367188,0.009765625,0.001953125,0.6171875,1.335938,13.42188,0.005859375,0.0078125,-0.0234375,-0.009765625,0.0234375,0,0.001586914,-0.00378418,-0.01330566,0,0,0.0004882812,0.182373,4.077,0,0,0,0.1478271,nan,2,1.041,1,0,0.199707,0.1694641,0.1992188,0.1610718,0,0.0009765625,0,1,3,0
50.922,0.001012,0.09375,-0.02148438,-0.04296875,0.15625,2.03125,15.49219,0.03125,-0.01757812,-0.03320312,-0.009765625,0.0234375,0,0.001586914,-0.00390625,-0.01342773,0,0,0.0004882812,0.1840515,4.077,0,0,0,0.1497803,nan,2,1.051,1,0,0.1481628,0.2312317,0.1572571,0.1995239,0,0.0009765625,0,1,3,0
50.932,0.001018,-0.04296875,-0.03515625,-0.02539062,1.765625,-1.859375,5.101562,0,-0.00390625,-0.03320312,-0.009765625,0.0234375,0,0.001586914,-0.00390625,-0.01379395,0,0,0.0004882812,0.1858826,4.059,0,0,0,0.1519775,nan,2,1.061,1,0,0.1893616,0.1912537,0.179657,0.1833191,-0.0009765625,0.0009765625,0,1,3,0
50.942,0.001016,-0.04296875,0.03320312,-0.05859375,1.90625,-0.1484375,12.57031,-0.04296875,0.04296875,-0.06640625,-0.0078125,0.02148438,0,0.001342773,-0.003662109,-0.0144043,0,0,0.0004882812,0.1875916,4.059,0,0,0,0.1539917,nan,2,1.072,1,0,0.1542358,0.2148438,0.1520996,0.2291565,0,0.0009765625,0,1,3,0
50.952,0.001008,-0.009765625,-0.06054688,-0.07421875,-1.625,7.703125,10.54688,-0.02148438,0.001953125,-0.0703125,-0.005859375,0.01953125,0,0.001098633,-0.003417969,-0.01501465,0,0,0.0004882812,0.18927,4.059,0,0,0,0.1560059,nan,2,1.082,1,0,0.1593628,0.232666,0.1454773,0.2195435,0,0.0009765625,0,1,3,0
50.962,0.001012,-0.06640625,-0.04296875,-0.06640625,0.125,-7.945312,5.109375,-0.01757812,0.00390625,-0.05273438,-0.005859375,0.02148438,0,0.0009765625,-0.003417969,-0.015625,0,0,0.0004882812,0.1909485,4.059,0,0,0,0.15802,nan,2,1.092,1,0,0.1769714,0.210907,0.1652222,0.2106934,0,0.0009765625,0,1,3,0.1746032
50.971,0.001008,-0.04101562,0.00390625,-0.0625,-0.4140625,-1.523438,6.539062,-0.03710938,-0.015625,-0.0546875,-0.005859375,0.02148438,0,0.0008544922,-0.003540039,-0.01611328,0,0,0.0004882812,0.1924744,4.059,0,0,0,0.15979,nan,2,1.101,1,0,0.1814575,0.2129211,0.1610107,0.2144775,0,0.0009765625,0,1,3,0
50.981,0.001003,0.00390625,-0.02734375,-0.05273438,-1.960938,0.796875,11.04688,-0.01171875,-0.001953125,-0.05078125,-0.00390625,0.02148438,0,0.0007324219,-0.003417969,-0.01660156,0,0,0.0004882812,0.1941528,4.059,0,0,0,0.1618042,nan,2,1.111,1,0,0.1916809,0.2052917,0.183075,0.1965332,0,0.0009765625,0,1,3,0
50.992,0.001003,0.01171875,0.00390625,-0.07226562,-0.0625,1.453125,11.86719,0.00390625,-0.005859375,-0.078125,-0.00390625,0.02148438,0,0.0006103516,-0.003540039,-0.01733398,0,0,0.0004882812,0.1958313,4.059,0,0,0,0.1638184,nan,2,1.121,1,0,0.1597595,0.2371826,0.1582642,0.2281189,0,0.0009765625,0,1,3,0
51.002,0.001006,0.02929688,0.07421875,-0.08789062,-2.429688,3.023438,10.03906,-0.03320312,0.03515625,-0.05859375,-0.00390625,0.02148438,0,0.0004882812,-0.003540039,-0.01806641,0,0,0.0004882812,0.1975098,4.059,0,0,0,0.1657715,nan,2,1.131,1,0,0.1954956,0.1872253,0.1976624,0.2096863,0,0.0009765625,0,1,3,0
51.012,0.001006,0.05859375,-0.2226562,-0.005859375,-2.84375,-4.132812,3.945312,0.0859375,-0.1152344,-0.08789062,-0.005859375,0.02148438,0,0.0008544922,-0.003662109,-0.0189209,0,0,0.0004882812,0.1991882,4.059,0,0,0,0.1677856,nan,2,1.141,1,0,0.1933594,0.2622375,0.1707458,0.1704407,0,0.0009765625,0,1,3,0
51.022,0.001006,-0.01367188,0.01367188,-0.02929688,-2.085938,-9.578125,6.398438,0.03125,0.001953125,-0.05859375,-0.005859375,0.02539062,0,0.0009765625,-0.004272461,-0.01953125,0,0,0.0004882812,0.2008972,4.059,0,0,0,0.1697998,nan,2,1.151,1,0,0.1916504,0.2000427,0.2085876,0.2032471,0,0.0009765625,0,1,3,0
51.032,0.000998,-0.1484375,0.1308594,-0.07421875,0.609375,-0.4375,12.02344,-0.02734375,0.01367188,-0.07226562,-0.00390625,0.02734375,0,0.0007324219,-0.004638672,-0.0201416,0,0,0.0004882812,0.2027283,4.059,0,0,0,0.1719971,nan,2,1.161,1,0,0.1611938,0.2253113,0.1719971,0.2524414,0,0.001953125,0,1,3,0
51.042,0.000981,-0.0390625,0.09375,-0.0390625,2.734375,6.03125,6.90625,-0.06445312,0.0703125,-0.07226562,0.001953125,0.02539062,0,-0.0002441406,-0.004150391,-0.02099609,0,0,0.0004882812,0.2044373,4.059,0,0,0,0.1740112,nan,2,1.172,1,0,0.1861267,0.2068481,0.2017517,0.2229614,0,0.001953125,0,1,3,0
51.052,0.00096,0.15625,0.07226562,-0.02734375,1.03125,8.695312,13.20312,0.078125,0.01953125,-0.02929688,0,0.02148438,0,0,-0.003662109,-0.0213623,0,0,0.0004882812,0.2061157,4.059,0,0,0,0.1760254,nan,2,1.182,1,0,0.2052612,0.2134094,0.2329712,0.1727905,0,0.001953125,0,1,3,0
51.062,0.001006,0.02148438,0.03125,-0.01367188,-2.078125,1.84375,15.375,0.04101562,-0.02539062,-0.015625,-0.00390625,0.0234375,0,0.0006103516,-0.00402832,-0.02148438,0,0,0.0004882812,0.2077942,4.059,0,0,0,0.1779785,nan,2,1.192,1,0,0.2092285,0.2147827,0.2038269,0.2033386,0,0.001953125,0,1,3,0
51.072,0.001006,0.005859375,0.0078125,-0.078125,0.1875,2.414062,10.42969,0.0546875,0.0234375,-0.06445312,-0.0078125,0.0234375,0,0.001342773,-0.00378418,-0.02185059,0,0,0.0004882812,0.2094727,4.059,0,0,0,0.1799927,nan,2,1.202,1,0,0.1457825,0.2723389,0.1501465,0.2696533,-0.0009765625,0.001953125,0,1,3,0
51.081,0.001014,-0.03320312,-0.0078125,0.01757812,2.484375,-5.15625,4.203125,-0.02929688,-0.005859375,-0.0234375,-0.0078125,0.0234375,0,0.001464844,-0.00390625,-0.02233887,0,0,0.0004882812,0.2109985,4.059,0,0,0,0.1818237,nan,2,1.211,1,0,0.2742004,0.1558533,0.2459412,0.1679993,-0.0009765625,0.001953125,0,1,3,0
51.092,0.00101,-0.0703125,-0.05273438,0.04101562,-1.0625,-6.648438,4.65625,-0.01953125,-0.02929688,-0.00390625,-0.009765625,0.0234375,0,0.001464844,-0.00390625,-0.02258301,0,0,0.0004882812,0.212677,4.059,0,0,0,0.1837769,nan,2,1.221,1,0,0.2675476,0.1765442,0.2380066,0.1686096,-0.0009765625,0.001953125,0,1,3,0
51.102,0.00101,0.03515625,0.04101562,-0.01953125,-1.171875,5.085938,19.125,0.0078125,-0.00390625,0.015625,-0.0078125,0.0234375,0,0.001342773,-0.00402832,-0.02233887,0,0,0.0004882812,0.2143555,4.059,0,0,0,0.185791,nan,2,1.231,1,0,0.2016907,0.2286682,0.2076721,0.2194214,-0.0009765625,0.001953125,0,1,3,0
51.112,0.001,0.04101562,-0.0546875,-0.015625,2.640625,-1.335938,8.226562,0.02929688,0.009765625,-0.03710938,-0.009765625,0.0234375,0,0.001586914,-0.00402832,-0.02270508,0,0,0.0004882812,0.2160339,4.059,0,0,0,0.1878052,nan,2,1.241,1,0,0.1880493,0.2477417,0.1982727,0.2301331,-0.0009765625,0.001953125,0,1,3,0
51.122,0.001012,0.02148438,-0.01171875,0.02539062,-0.59375,-5.976562,5.242188,-0.009765625,-0.0078125,0.02148438,-0.009765625,0.02539062,0,0.001708984,-0.004150391,-0.02258301,0,0,0.0004882812,0.2177429,4.059,0,0,0,0.1898193,nan,2,1.251,1,0,0.2621765,0.1802063,0.2505798,0.177948,-0.0009765625,0.001953125,0,1,3,0
51.132,0.001018,-0.02539062,0.005859375,0.009765625,0.859375,5.859375,11.39062,0.02148438,-0.01367188,-0.001953125,-0.009765625,0.02539062,0,0.001708984,-0.004150391,-0.02246094,0,0,0.0004882812,0.219574,4.059,0,0,0,0.1920166,nan,2,1.261,1,0,0.2023621,0.2486572,0.1994934,0.2278137,-0.0009765625,0.001953125,0,1,3,0
51.142,0.001013,-0.0078125,-0.00390625,0.09375,0.2734375,-0.40625,7.578125,0.01171875,-0.005859375,0.05078125,-0.01171875,0.0234375,0,0.001831055,-0.00402832,-0.02233887,0,0,0.0004882812,0.2212524,4.059,0,0,0,0.1940308,nan,2,1.272,1,0,0.3118896,0.1431274,0.3029785,0.1270447,-0.0009765625,0.001953125,0,1,3,0
51.152,0.001013,0.06445312,-0.01757812,0.09765625,-0.84375,1.109375,12.21875,0.05664062,-0.005859375,0.09570312,-0.01171875,0.02539062,0,0.001953125,-0.004150391,-0.02160645,0,0,0.0004882812,0.2229614,4.059,0,0,0,0.1959839,nan,2,1.282,1,0,0.2743835,0.1776123,0.2949524,0.1448669,-0.0009765625,0.001953125,0,1,3,0
51.162,0.001008,0.02734375,0.0078125,0.09960938,-0.2421875,1.117188,6.90625,-0.005859375,0.005859375,0.09570312,-0.01171875,0.02539062,0,0.002075195,-0.004150391,-0.02062988,0,0,0.0004882812,0.2246399,4.059,0,0,0,0.197998,nan,2,1.292,1,0,0.2664795,0.1874084,0.2583313,0.1863098,-0.0009765625,0.001953125,0,1,3,0
51.172,0.001012,0.0390625,-0.01171875,0.01367188,0.7890625,1.617188,8.695312,0.01171875,-0.01953125,0.0390625,-0.01367188,0.02539062,0,0.002075195,-0.004272461,-0.01989746,0,0,0.0004882812,0.2263184,4.059,0,0,0,0.2000122,nan,2,1.302,1,0,0.184082,0.2820435,0.1799011,0.2592773,-0.0009765625,0.001953125,0,1,3,0
51.181,0.001008,-0.02929688,-0.0234375,0.05078125,0.984375,0.625,10.67969,-0.001953125,0.005859375,0.03515625,-0.01171875,0.02539062,0,0.002075195,-0.004150391,-0.01965332,0,0,0.0004882812,0.2278442,4.059,0,0,0,0.2017822,nan,2,1.311,1,0,0.2461243,0.2175598,0.2412415,0.2064209,-0.0009765625,0.001953125,0,1,3,0
51.192,0.001003,-0.0703125,0.00390625,0.1425781,2.132812,-1.976562,8.195312,-0.01953125,0.009765625,0.1113281,-0.01171875,0.0234375,0,0.001953125,-0.00402832,-0.0189209,0,0,0.0004882812,0.2295227,4.059,0,0,0,0.2037964,nan,2,1.321,1,0,0.3461609,0.1167603,0.3367615,0.1184082,-0.0009765625,0.001953125,0,1,3,0
51.202,0.001006,-0.0390625,-0.02539062,0.1855469,0.2734375,1.34375,7.335938,-0.02734375,0.009765625,0.1914062,-0.01171875,0.0234375,0,0.001953125,-0.00402832,-0.01733398,0,0,0.0004882812,0.2312012,4.059,0,0,0,0.2058105,nan,2,1.331,1,0,0.3575745,0.1098938,0.342041,0.1152649,-0.0009765625,0.001953125,0,1,3,0
51.212,0.001006,0.001953125,-0.015625,0.00390625,1.804688,0.46875,11.49219,-0.01171875,-0.00390625,0.08203125,-0.009765625,0.0234375,0,0.001586914,-0.00390625,-0.01574707,0,0,0.0004882812,0.2328796,4.059,0,0,0,0.2078247,nan,2,1.341,1,0,0.1304321,0.3463135,0.1248169,0.3299866,-0.0009765625,0.001953125,0,1,3,0
51.222,0.001,0.03320312,-0.05273438,0.06835938,2.476562,-1.773438,5.664062,0,0.0078125,0.03320312,-0.009765625,0.0234375,0,0.001708984,-0.00378418,-0.01550293,0,0,0.0004882812,0.2345581,4.059,0,0,0,0.2097778,nan,2,1.351,1,0,0.2464905,0.2301941,0.2416077,0.2200012,-0.0009765625,0.001953125,0,1,3,0
51.232,0.000966,0.03515625,-0.0234375,0.1621094,1.703125,1.734375,6.421875,0.009765625,-0.01367188,0.1328125,-0.01171875,0.02539062,0,0.001831055,-0.004150391,-0.01452637,0,0,0.0004882812,0.2364197,4.059,0,0,0,0.2119751,nan,2,1.361,1,0,0.3557739,0.1222534,0.3530579,0.114624,-0.0009765625,0.001953125,0,1,3,0
51.242,0.001011,-0.1269531,0.009765625,0.06640625,0.8359375,2.296875,9.9375,-0.01953125,-0.02148438,0.1015625,-0.01171875,0.02734375,0,0.001953125,-0.004394531,-0.01330566,0,0,0.0004882812,0.2380981,4.059,0,0,0,0.2139893,nan,2,1.372,1,0,0.2565918,0.2261963,0.2361755,0.2334595,-0.0009765625,0.001953125,0,1,3,0.01587302
51.252,0.001003,-0.05078125,0.04882812,0.1289062,1.179688,-3.851562,10.60938,-0.04882812,0.009765625,0.09375,-0.009765625,0.02734375,0,0.001464844,-0.004516602,-0.01257324,0,0,0.0004882812,0.2397766,4.059,0,0,0,0.2160034,nan,2,1.382,1,0,0.2975464,0.1813354,0.2898254,0.1904602,-0.0009765625,0.001953125,0,1,3,0
51.262,0.001005,-0.1367188,0.05078125,0.109375,1.929688,-6.429688,6.375,-0.02148438,0.02148438,0.1152344,-0.0078125,0.02539062,0,0.001464844,-0.004272461,-0.01147461,0,0,0.0004882812,0.2414856,4.059,0,0,0,0.2180176,nan,2,1.392,1,0,0.3009949,0.1841431,0.2871094,0.193634,-0.0009765625,0.001953125,0,1,3,0
51.272,0.001003,0.1152344,-0.1191406,0.02929688,3.085938,-1.320312,5.210938,0.015625,-0.05078125,0.06445312,-0.0078125,0.02734375,0,0.001342773,-0.004516602,-0.01062012,0,0,0.0004882812,0.2431641,4.059,0,0,0,0.2200317,nan,2,1.402,1,0,0.2217102,0.2903748,0.2056274,0.2549438,-0.0009765625,0.001953125,0,1,3,0
51.281,0.001017,0.1367188,-0.01757812,0.140625,1.851562,-2.851562,9.835938,0.07617188,0.03515625,0.1074219,-0.01171875,0.02539062,0,0.001953125,-0.004272461,-0.009887695,0,0,0.0004882812,0.2446899,4.059,0,0,0,0.2218018,nan,2,1.411,1,0,0.310791,0.1765442,0.335022,0.1563721,-0.0009765625,0.001953125,0,1,3,0
51.292,0.001012,-0.01953125,-0.01367188,0.2753906,-0.171875,0.875,11.79688,0.0078125,-0.015625,0.2285156,-0.015625,0.02539062,0,0.002563477,-0.004394531,-0.008056641,0,0,0.0004882812,0.2463684,4.059,0,0,0,0.2238159,nan,2,1.421,1,0,0.436676,0.0710144,0.4141235,0.06359863,-0.0009765625,0.001953125,0,1,3,0
51.302,0.001012,0.001953125,0,0.1640625,-0.390625,2.65625,7.054688,0.001953125,-0.005859375,0.2070312,-0.01367188,0.02734375,0,0.002319336,-0.004516602,-0.005737305,0,0,0.0004882812,0.2480469,4.059,0,0,0,0.2258301,nan,2,1.431,1,0,0.2617188,0.2384644,0.264679,0.2273254,-0.0009765625,0.001953125,0,1,3,0
51.312,0.00101,-0.01757812,-0.04492188,0.1445312,0.859375,-2.148438,5.804688,-0.03515625,-0.00390625,0.1777344,-0.01367188,0.02734375,0,0.002197266,-0.004638672,-0.00378418,0,0,0.0004882812,0.2497253,4.059,0,0,0,0.2277832,nan,2,1.441,1,0,0.2723389,0.2368774,0.2547302,0.2349548,-0.0009765625,0.001953125,0,1,3,0
51.322,0.00101,-0.09179688,-0.1230469,0.05859375,-0.328125,-4.367188,8.835938,-0.05664062,0,0.1464844,-0.01171875,0.02734375,0,0.001953125,-0.004394531,-0.002075195,0,0,0.0004882812,0.2514038,4.059,0,0,0,0.2297974,nan,2,1.451,1,0,0.2550049,0.2658386,0.2198792,0.2649231,-0.0009765625,0.001953125,0,1,3,0
51.332,0.00101,0.04296875,0.06054688,0.09765625,0.03125,5.289062,8.554688,0.02539062,0.01757812,0.1113281,-0.01171875,0.02734375,0,0.002075195,-0.004638672,-0.0009765625,0,0,0.0004882812,0.2530823,4.059,0,0,0,0.2318115,nan,2,1.461,1,0,0.2632751,0.2389526,0.2779541,0.2322083,-0.0009765625,0.001953125,0,1,3,0.2857143
51.342,0.001009,-0.01757812,-0.03515625,0.08789062,1.578125,5.757812,4.460938,0.0078125,0.06640625,0.08398438,-0.01367188,0.0234375,0,0.002197266,-0.00402832,0.0001220703,0,0,0.0004882812,0.2549438,4.059,0,0,0,0.2340088,nan,2,1.472,1,0,0.2431335,0.2657471,0.2442322,0.2666626,-0.0009765625,0.001953125,0,1,3,0
51.352,0.001012,0.03515625,-0.03125,0.1347656,0.40625,0.078125,9.921875,0.02539062,-0.01171875,0.1035156,-0.015625,0.02148438,0,0.002441406,-0.00378418,0.0009765625,0,0,0.0004882812,0.2566223,4.059,0,0,0,0.2360229,nan,2,1.482,1,0,0.325531,0.2108459,0.3104858,0.1796875,-0.0009765625,0.001953125,0,1,3,0.2063492
51.362,0.001008,0.005859375,0.0234375,0.09375,-0.109375,-3.921875,10.35938,0.00390625,0.01367188,0.1171875,-0.015625,0.02148438,0,0.002441406,-0.003540039,0.002197266,0,0,0.0004882812,0.2583313,4.059,0,0,0,0.2379761,nan,2,1.492,1,0,0.2991333,0.2267761,0.2937317,0.213623,-0.0009765625,0.001953125,0,1,3,0
51.371,0.00106,0.1191406,-0.03125,0.01953125,-2.3125,2.382812,11.13281,0.02734375,0.001953125,0.04101562,-0.015625,0.01953125,0,0.002441406,-0.003417969,0.002807617,0,0,0.0004882812,0.2598267,4.059,0,0,0,0.2398071,nan,2,1.501,1,0,0.1976013,0.3338318,0.2049866,0.302887,-0.0009765625,0.001953125,0,1,3,0
51.381,0.000978,-0.05859375,0.02929688,0.08203125,1.476562,0.90625,6.632812,0.015625,0.02734375,0.046875,-0.01757812,0.01953125,0,0.002807617,-0.003417969,0.003173828,0,0,0.0004882812,0.2615051,4.059,0,0,0,0.2418213,nan,2,1.511,1,0,0.2928467,0.2255554,0.2970581,0.2306213,-0.0009765625,0.001953125,0,1,3,0
51.392,0.001011,0.00390625,0.1132812,0.2265625,1.984375,-3.835938,3.210938,0.06445312,0.06640625,0.171875,-0.01953125,0.01757812,0,0.003295898,-0.003051758,0.004272461,0,0,0.0004882812,0.2632141,4.059,0,0,0,0.2437744,nan,2,1.521,1,0,0.4208374,0.0904541,0.4555664,0.0859375,-0.0009765625,0.001953125,0,1,3,0
51.402,0.001009,0.171875,-0.1308594,0.03125,1.242188,-3.1875,9.921875,0.01171875,-0.01757812,0.1210938,-0.01953125,0.015625,0,0.003173828,-0.002685547,0.005981445,0,0,0.0004882812,0.2648926,4.059,0,0,0,0.2457886,nan,2,1.531,1,0,0.2323914,0.3250732,0.221344,0.2807617,-0.0009765625,0.001953125,0,1,3,0
51.412,0.001017,0.1328125,-0.109375,0.00390625,-0.453125,7.601562,20.30469,0.06054688,-0.07421875,0.0703125,-0.02148438,0.01953125,0,0.003417969,-0.003173828,0.006958008,0,0,0.0004882812,0.266571,4.059,0,0,0,0.2478027,nan,2,1.541,1,0,0.2180481,0.3468628,0.2142029,0.2871704,-0.0009765625,0.001953125,0,1,3,0
51.422,0.000965,-0.1269531,-0.0625,0.005859375,1.203125,-3.359375,0.5,-0.009765625,-0.0546875,0.005859375,-0.0234375,0.02148438,0,0.00378418,-0.003662109,0.007080078,0,0,0.0004882812,0.2682495,4.059,0,0,0,0.2498169,nan,2,1.551,1,0,0.2514343,0.3019104,0.2209778,0.2987061,-0.0009765625,0.001953125,0,1,3,0
51.432,0.000976,-0.04296875,0.05859375,0.001953125,2.140625,-3.546875,3.8125,-0.01171875,-0.01171875,-0.01171875,-0.02148438,0.0234375,0,0.003662109,-0.00402832,0.007080078,0,0,0.0004882812,0.269928,4.059,0,0,0,0.2518311,nan,2,1.561,1,0,0.2568359,0.2819519,0.2571106,0.2838745,-0.0009765625,0.001953125,0,1,3,0
51.442,0.000978,-0.07226562,0.04101562,0.08398438,2.609375,-4.507812,6.640625,-0.005859375,0,0.04101562,-0.02148438,0.0234375,0,0.003662109,-0.00390625,0.007080078,0,0,0.0004882812,0.2717896,4.059,0,0,0,0.2540283,nan,2,1.572,1,0,0.3547363,0.1959229,0.3511658,0.1853333,-0.0009765625,0.001953125,0,1,3,0
51.452,0.001003,-0.09765625,-0.04101562,0.1328125,0.90625,-7.023438,15.78906,-0.03320312,-0.001953125,0.1289062,-0.01953125,0.0234375,0,0.003295898,-0.00390625,0.008056641,0,0,0.0004882812,0.273468,4.059,0,0,0,0.2559814,nan,2,1.582,1,0,0.3939209,0.1613464,0.3838196,0.1548157,-0.0009765625,0.002929688,0,1,3,0
51.462,0.001006,0.0234375,-0.0625,0.05273438,-2.046875,-3.890625,12.07031,0.04296875,-0.015625,0.1015625,-0.02148438,0.0234375,0,0.003540039,-0.00390625,0.009277344,0,0,0.0004882812,0.2751465,4.059,0,0,0,0.2579956,nan,2,1.592,1,0,0.2802429,0.2893066,0.2738037,0.2572937,-0.0009765625,0.002929688,0,1,3,0
51.472,0.001001,0.1152344,0.02148438,0.05664062,-0.28125,-1.15625,14.32812,0.05664062,0.00390625,0.07421875,-0.02539062,0.02148438,0,0.004272461,-0.003662109,0.01000977,0,0,0.0004882812,0.2768555,4.059,0,0,0,0.2600098,nan,2,1.602,1,0,0.2851257,0.2833862,0.2840881,0.2547607,-0.0009765625,0.002929688,0,1,3,0
51.481,0.001019,0.08789062,-0.06445312,0.07226562,1.09375,1.851562,9.265625,0.05273438,-0.01953125,0.07226562,-0.02734375,0.02148438,0,0.004394531,-0.003662109,0.01062012,0,0,0.0004882812,0.2783508,4.059,0,0,0,0.2617798,nan,2,1.611,1,0,0.2996216,0.2774353,0.3039246,0.2324829,-0.0009765625,0.002929688,0,1,3,0.3492064
51.492,0.00101,-0.02148438,-0.009765625,0.05664062,-2.515625,2.234375,9.632812,-0.03125,-0.01757812,0.0625,-0.02539062,0.0234375,0,0.004272461,-0.00378418,0.01135254,0,0,0.0004882812,0.2800598,4.059,0,0,0,0.2637939,nan,2,1.621,1,0,0.2946472,0.2753296,0.2794189,0.270813,-0.0009765625,0.002929688,0,1,3,0.07936508
51.502,0.001012,0.1386719,-0.08984375,0.1054688,-0.828125,5.351562,13.15625,0.0703125,-0.04101562,0.109375,-0.02734375,0.0234375,0,0.004516602,-0.00390625,0.01220703,0,0,0.0004882812,0.2817383,4.059,0,0,0,0.2658081,nan,2,1.631,1,0,0.3475647,0.2383728,0.3617554,0.1791992,-0.001953125,0.002929688,0,1,3,0
51.512,0.001013,0.1972656,0.0390625,0.04296875,1.265625,1.78125,3.71875,0.1054688,0.02148438,0.04101562,-0.03125,0.02539062,0,0.005249023,-0.004150391,0.01281738,0,0,0.0004882812,0.2834167,4.059,0,0,0,0.2678223,nan,2,1.641,1,0,0.2369995,0.3233337,0.2824402,0.2908936,-0.001953125,0.002929688,0,1,3,0
51.522,0.000962,-0.09570312,-0.03125,-0.03125,-0.8359375,-4.992188,8.070312,0.0078125,-0.0234375,-0.00390625,-0.03515625,0.02539062,0,0.005859375,-0.004272461,0.01306152,0,0,0.0004882812,0.2850952,4.059,0,0,0,0.2697754,nan,2,1.651,1,0,0.2376709,0.3481445,0.2103271,0.3442383,-0.001953125,0.002929688,0,1,3,0.1428571
51.532,0.00101,0.03515625,-0.06445312,-0.0546875,-2.335938,2.945312,11.50781,0.01953125,0.0078125,-0.05859375,-0.03515625,0.0234375,0,0.005859375,-0.00402832,0.01245117,0,0,0.0004882812,0.2867737,4.059,0,0,0,0.2717896,nan,2,1.661,1,0,0.2580566,0.3276978,0.2601318,0.301239,-0.001953125,0.002929688,0,1,3,0
51.542,0.00101,0.01953125,0,0.05273438,-3.039062,4.859375,10.85938,-0.03320312,0.04492188,0.01171875,-0.03320312,0.02148438,0,0.005493164,-0.003662109,0.01220703,0,0,0.0004882812,0.2886353,4.059,0,0,0,0.2739868,nan,2,1.672,1,0,0.3714294,0.2047119,0.3745422,0.2038574,-0.001953125,0.002929688,0,1,3,0
51.552,0.001015,-0.08398438,0.001953125,0.1152344,-1.046875,2.132812,13.49219,-0.009765625,-0.009765625,0.1113281,-0.03320312,0.0234375,0,0.005371094,-0.00378418,0.01293945,0,0,0.0004882812,0.2903137,4.059,0,0,0,0.276001,nan,2,1.682,1,0,0.3977356,0.1963196,0.3882141,0.1789856,-0.001953125,0.002929688,0,1,3,0
51.562,0.001008,0.1289062,0.01757812,0.005859375,1.03125,-4.5,9.570312,0.06054688,0.00390625,0.04296875,-0.03320312,0.0234375,0,0.005615234,-0.00378418,0.01379395,0,0,0.0004882812,0.2919922,4.059,0,0,0,0.2780151,nan,2,1.692,1,0,0.229248,0.3591003,0.2598572,0.3198242,-0.001953125,0.002929688,0,1,3,0
51.572,0.00101,0.08789062,-0.05664062,0.0703125,0.1875,1.757812,10.33594,0.0703125,-0.03320312,0.06054688,-0.03515625,0.0234375,0,0.005981445,-0.00402832,0.01416016,0,0,0.0004882812,0.2937012,4.059,0,0,0,0.2800293,nan,2,1.702,1,0,0.3355103,0.2699585,0.3405457,0.2287598,-0.001953125,0.002929688,0,1,3,0
51.581,0.00101,0.03710938,-0.001953125,0.1210938,-1.023438,1.054688,10.98438,0.09570312,-0.001953125,0.1054688,-0.04101562,0.02539062,0,0.006958008,-0.004272461,0.01501465,0,0,0.0004882812,0.2951965,4.045,0,0,0,0.2817993,nan,2,1.711,1,0,0.3598022,0.2336121,0.3784485,0.2089844,-0.001953125,0.002929688,0,1,3,0
51.592,0.001003,0.04296875,0.02539062,0.21875,1.046875,-4.4375,11.66406,0.04882812,0.005859375,0.2011719,-0.04492188,0.02539062,0,0.007568359,-0.004150391,0.01660156,0,0,0.0004882812,0.296875,4.045,0,0,0,0.2838135,nan,2,1.721,1,0,0.4394531,0.1621094,0.4428711,0.1430969,-0.001953125,0.002929688,0,1,3,0
51.602,0.001,0.1308594,-0.0390625,0.09570312,-1.09375,-3.875,14.46875,0.01171875,-0.05664062,0.1445312,-0.04296875,0.02734375,0,0.007324219,-0.004516602,0.01843262,0,0,0.0004882812,0.298584,4.045,0,0,0,0.2858276,nan,2,1.731,1,0,0.2721558,0.3516846,0.2733459,0.2971191,-0.001953125,0.002929688,0,1,3,0
51.612,0.000978,0.02148438,0.00390625,-0.01757812,1.828125,0.3828125,10.8125,-0.01953125,0.00390625,0.015625,-0.04296875,0.02734375,0,0.007324219,-0.004516602,0.01916504,0,0,0.0004882812,0.3002625,4.045,0,0,0,0.2877808,nan,2,1.741,1,0,0.1938171,0.4105225,0.1925049,0.4041748,-0.001953125,0.002929688,0,1,3,0
51.622,0.001003,-0.09179688,0.0078125,0.04492188,-0.359375,-0.6796875,6.789062,-0.01953125,0.001953125,0.04492188,-0.04492188,0.02734375,0,0.007446289,-0.004638672,0.01940918,0,0,0.0004882812,0.3019409,4.045,0,0,0,0.2897949,nan,2,1.751,1,0,0.3484192,0.263092,0.3345947,0.2616272,-0.001953125,0.002929688,0,1,3,0
51.632,0.001006,-0.009765625,0.02929688,0,-1.742188,0.7265625,12.94531,-0.0234375,0.01367188,0.03125,-0.04296875,0.02734375,0,0.007080078,-0.004638672,0.01977539,0,0,0.0004882812,0.3036194,4.045,0,0,0,0.2918091,nan,2,1.761,1,0,0.2909241,0.3171692,0.2976685,0.3087463,-0.001953125,0.002929688,0,1,3,0
51.642,0.000994,0.01367188,-0.02734375,-0.07421875,1.078125,0.7734375,10.24219,-0.00390625,0.005859375,-0.05664062,-0.04101562,0.02734375,0,0.006835938,-0.004516602,0.01953125,0,0,0.0004882812,0.305481,4.045,0,0,0,0.2940063,nan,2,1.771,1,0,0.2247314,0.3979492,0.2290039,0.3702087,-0.001953125,0.002929688,0,1,3,0
51.652,0.001006,0.125,-0.1445312,-0.09570312,1.375,-2.976562,6.867188,0.09765625,-0.02734375,-0.0859375,-0.04296875,0.02734375,0,0.007202148,-0.004516602,0.01879883,0,0,0.0004882812,0.3071594,4.045,0,0,0,0.2960205,nan,2,1.782,1,0,0.2530518,0.3836975,0.2746582,0.3172302,-0.001953125,0.002929688,0,1,3,0
51.662,0.001005,-0.1054688,0.05273438,0.05859375,2.359375,0.265625,7.195312,0.00390625,0.00390625,0.015625,-0.04492188,0.02734375,0,0.007568359,-0.004760742,0.01843262,0,0,0.0004882812,0.3088379,4.045,0,0,0,0.2979736,nan,2,1.792,1,0,0.4140625,0.2059326,0.4099731,0.2054138,-0.001953125,0.002929688,0,1,3,0
51.672,0.001006,0.06445312,-0.06445312,-0.01757812,0.4296875,-4.296875,9.835938,0.00390625,-0.02929688,-0.00390625,-0.04492188,0.02929688,0,0.007446289,-0.004760742,0.01855469,0,0,0.0004882812,0.3105164,4.045,0,0,0,0.2999878,nan,2,1.802,1,0,0.2819519,0.3612366,0.2762756,0.3226318,-0.002929688,0.002929688,0,1,3,0
51.681,0.001014,0.06054688,-0.06835938,-0.03125,-1.0625,6.867188,14.73438,0.05664062,-0.078125,-0.04492188,-0.046875,0.02929688,0,0.00769043,-0.005004883,0.01831055,0,0,0.0004882812,0.3105164,4.045,0,0,0,0.2999878,nan,2,1.811,1,0,0.2703857,0.386322,0.2629395,0.3224792,-0.002929688,0.002929688,0,1,3,0
51.691,0.00101,0,0.02929688,0.1074219,0.6015625,-0.9453125,9.890625,0.03710938,-0.04101562,0.0390625,-0.04882812,0.03515625,0,0.008056641,-0.005859375,0.01806641,0,0,0.0004882812,0.3105164,4.045,0,0,0,0.2999878,nan,2,1.821,1,0,0.4290771,0.1977844,0.4346619,0.1805725,-0.002929688,0.002929688,0,1,3,0.6984127
51.702,0.00101,-0.02929688,0.005859375,0.08398438,1.265625,-0.2734375,7.671875,-0.01171875,0.00390625,0.09960938,-0.04882812,0.03515625,0,0.008178711,-0.005981445,0.01904297,0,0,0.0004882812,0.3105164,4.045,0,0,0,0.2999878,nan,2,1.831,1,0,0.3715515,0.2527466,0.3687134,0.2490845,-0.002929688,0.002929688,0,1,3,0
51.712,0.000994,0.05273438,0.04101562,-0.03125,-1.117188,1.835938,10.47656,0.01367188,0.02734375,0.009765625,-0.04882812,0.03515625,0,0.008300781,-0.005981445,0.01965332,0,0,0.0004882812,0.3105164,4.045,0,0,0,0.2999878,nan,2,1.841,1,0,0.2092285,0.4075623,0.2292786,0.3960266,-0.002929688,0.002929688,0,1,3,0
51.722,0.00101,0.0078125,-0.02734375,0.0234375,1.34375,0.0859375,7.960938,-0.01367188,-0.005859375,-0.0078125,-0.05078125,0.03515625,0,0.008422852,-0.005859375,0.01940918,0,0,0.0004882812,0.3105164,4.045,0,0,0,0.2999878,nan,2,1.851,1,0,0.3238525,0.3134155,0.3118591,0.2929688,-0.002929688,0.002929688,0,1,3,0
51.732,0.00101,0.046875,-0.02148438,0.005859375,0.5234375,-2.53125,8.929688,0.0234375,-0.0078125,0.01171875,-0.05078125,0.03515625,0,0.008422852,-0.005859375,0.01965332,0,0,0.0004882812,0.3105164,4.045,0,0,0,0.2999878,nan,2,1.861,1,0,0.3035889,0.3323364,0.3105164,0.2956848,-0.002929688,0.002929688,0,1,3,0
51.742,0.001009,0.0546875,-0.0390625,0.04296875,-1.890625,3.210938,13.14844,0.03515625,-0.01757812,0.02734375,-0.05273438,0.03515625,0,0.008789062,-0.005859375,0.01977539,0,0,0.0004882812,0.3105164,4.045,0,0,0,0.2999878,nan,2,1.871,1,0,0.336792,0.3052063,0.3355408,0.2645874,-0.002929688,0.00390625,0,1,3,0
51.752,0.001004,0.03515625,-0.05078125,0.05859375,0.375,-1.84375,3.171875,0.0234375,-0.04101562,0.05859375,-0.05273438,0.03710938,0,0.008911133,-0.006225586,0.02026367,0,0,0.0004882812,0.3105164,4.045,0,0,0,0.2999878,nan,2,1.882,1,0,0.3586121,0.2840271,0.3530273,0.24646,-0.002929688,0.00390625,0,1,3,0
51.762,0.001001,-0.09375,0.01757812,-0.00390625,-0.0703125,-1.289062,8.164062,-0.0546875,-0.01367188,0.02734375,-0.05273438,0.03710938,0,0.008789062,-0.006225586,0.02075195,0,0,0.0004882812,0.3105164,4.045,0,0,0,0.2999878,nan,2,1.892,1,0,0.282135,0.3530884,0.2587891,0.3480835,-0.002929688,0.00390625,0,1,3,0
51.771,0.001029,-0.05078125,-0.02929688,0.09765625,-1.046875,4.171875,13.65625,-0.00390625,-0.0078125,0.09960938,-0.05078125,0.0390625,0,0.008544922,-0.006347656,0.02148438,0,0,0.0004882812,0.3105164,4.045,0,0,0,0.2999878,nan,2,1.901,1,0,0.3847046,0.2492981,0.3873596,0.2207336,-0.002929688,0.00390625,0,1,3,0
51.782,0.001,-0.02734375,0.04296875,0.125,0.6875,-5.984375,14.01562,0.0390625,0.01757812,0.1308594,-0.05273438,0.0390625,0,0.008789062,-0.006469727,0.02270508,0,0,0.0004882812,0.3105164,4.045,0,0,0,0.2999878,nan,2,1.911,1,0,0.3599548,0.2605591,0.3815308,0.2400513,-0.002929688,0.00390625,0,1,3,0
51.791,0.001006,0.1074219,-0.06640625,0.0078125,-1.21875,7.046875,14.64844,0.03320312,-0.04101562,0.0390625,-0.05273438,0.0390625,0,0.008666992,-0.006591797,0.0234375,0,0,0.0004882812,0.3105164,4.045,0,0,0,0.2999878,nan,2,1.921,1,0,0.2685547,0.3800354,0.2735901,0.3199463,-0.002929688,0.00390625,0,1,3,0
51.802,0.001006,0.02539062,0.01367188,0.01953125,0.8203125,0.3359375,6.21875,0.015625,0.0078125,0.009765625,-0.05273438,0.04101562,0,0.008911133,-0.006835938,0.0234375,0,0,0.0004882812,0.3105164,4.045,0,0,0,0.2999878,nan,2,1.931,1,0,0.3018799,0.3215637,0.3145752,0.3040771,-0.002929688,0.00390625,0,1,3,0
51.812,0.001006,0.1230469,-0.0390625,0.07421875,1.25,-3.632812,8.6875,0.02929688,-0.0390625,0.03710938,-0.05273438,0.04101562,0,0.008789062,-0.006958008,0.02355957,0,0,0.0004882812,0.3105164,4.045,0,0,0,0.2999878,nan,2,1.941,1,0,0.3709106,0.2780457,0.3718872,0.2212524,-0.002929688,0.00390625,0,1,3,0.2222222
51.822,0.001006,0.04101562,0.0078125,0.07226562,-0.7109375,2.976562,12.25781,0.06054688,-0.01367188,0.05273438,-0.05273438,0.04296875,0,0.008911133,-0.007202148,0.02404785,0,0,0.0004882812,0.3105164,4.045,0,0,0,0.2999878,nan,2,1.951,1,0,0.3394165,0.2940674,0.3580627,0.2505493,-0.002929688,0.00390625,0,1,3,0
51.832,0.001003,0.04101562,-0.02539062,0.0234375,1.523438,0.7265625,11.29688,-0.009765625,-0.005859375,0.0390625,-0.05273438,0.04296875,0,0.008911133,-0.007202148,0.02453613,0,0,0.0004882812,0.3105164,4.045,0,0,0,0.2999878,nan,2,1.961,1,0,0.3074036,0.3280029,0.3032532,0.3034363,-0.00390625,0.00390625,0,1,3,0
51.842,0.000999,-0.01171875,-0.015625,-0.02929688,0.5859375,-0.671875,7.90625,0.01171875,0.005859375,-0.005859375,-0.0546875,0.04296875,0,0.009033203,-0.007202148,0.02478027,0,0,0.0004882812,0.3105164,4.045,0,0,0,0.2999878,nan,2,1.971,1,0,0.2523499,0.3793945,0.2581482,0.3522034,-0.00390625,0.00390625,0,1,3,0
51.852,0.001009,0.01953125,0.01757812,-0.06640625,-2.4375,2.257812,14.16406,-0.001953125,0.001953125,-0.05273438,-0.05273438,0.04296875,0,0.008911133,-0.007202148,0.02441406,0,0,0.0004882812,0.3105164,4.045,0,0,0,0.2999878,nan,2,1.982,1,0,0.2472839,0.3850403,0.2529907,0.356781,-0.00390625,0.00390625,0,1,3,0
51.862,0.001,0.00390625,-0.02734375,-0.0859375,-0.0078125,1.554688,9.1875,0.01757812,0.01953125,-0.07226562,-0.0546875,0.04296875,0,0.009155273,-0.007080078,0.02368164,0,0,0.0004882812,0.3105164,4.045,0,0,0,0.2999878,nan,2,1.992,1,0,0.2790833,0.353302,0.2789307,0.3308105,-0.00390625,0.00390625,0,1,3,0
51.872,0.001003,-0.02734375,0.046875,0.1210938,1.835938,-0.6640625,8.960938,-0.0078125,0.015625,0.0859375,-0.05664062,0.04296875,0,0.009277344,-0.007080078,0.02380371,0,0,0.0004882812,0.3105164,4.045,0,0,0,0.2999878,nan,2,2.002,1,0,0.4736938,0.1535034,0.4703369,0.1445618,-0.00390625,0.00390625,0,1,3,0
51.881,0.001016,0.06640625,0.01367188,0.0859375,-0.203125,0.03125,9.039062,0.005859375,-0.005859375,0.1054688,-0.05664062,0.04296875,0,0.009277344,-0.007080078,0.02478027,0,0,0.0004882812,0.3105164,4.045,0,0,0,0.2999878,nan,2,2.011,1,0,0.3559875,0.2789612,0.3595276,0.2476501,-0.00390625,0.00390625,0,1,3,0
51.891,0.001011,0.1445312,-0.04101562,0.046875,0.59375,-2.226562,11.15625,0.08398438,-0.04492188,0.0546875,-0.05859375,0.04492188,0,0.009765625,-0.007446289,0.02563477,0,0,0.0004882812,0.3105164,4.045,0,0,0,0.2999878,nan,2,2.021,1,0,0.2690125,0.375885,0.2895203,0.3076782,-0.00390625,0.00390625,0,1,3,0
51.902,0.001063,-0.0703125,-0.001953125,0.1015625,-0.1953125,-1.335938,7.890625,-0.005859375,-0.00390625,0.08398438,-0.06054688,0.04492188,0,0.01013184,-0.007568359,0.02624512,0,0,0.0004882812,0.3105164,4.045,0,0,0,0.2999878,nan,2,2.031,1,0,0.3746033,0.2580566,0.3630676,0.2463989,-0.00390625,0.00390625,0,1,3,0
51.912,0.000991,0.08007812,0.015625,0.06640625,-0.671875,-0.375,11.01562,0.05859375,-0.0078125,0.08398438,-0.06054688,0.046875,0,0.01013184,-0.00769043,0.02722168,0,0,0.0004882812,0.3105164,4.045,0,0,0,0.2999878,nan,2,2.041,1,0,0.3127747,0.3216248,0.3401489,0.2675476,-0.00390625,0.00390625,0,1,3,0
51.922,0.001029,-0.06445312,-0.001953125,-0.01367188,1.148438,-2.625,8.992188,-0.01367188,0.005859375,-0.00390625,-0.06054688,0.04492188,0,0.01025391,-0.007446289,0.02746582,0,0,0.0004882812,0.3105164,4.045,0,0,0,0.2999878,nan,2,2.051,1,0,0.2554016,0.3842163,0.2415771,0.3609009,-0.00390625,0.00390625,0,1,3,0.1269841
51.932,0.000954,0.01367188,0.01171875,-0.03710938,-2.234375,2.507812,9.867188,0.00390625,-0.0078125,-0.03125,-0.06054688,0.04492188,0,0.01000977,-0.007568359,0.02734375,0,0,0.0004882812,0.3105164,4.045,0,0,0,0.2999878,nan,2,2.061,1,0,0.2685852,0.3680115,0.2728577,0.3326416,-0.00390625,0.00390625,0,1,3,0
51.942,0.001005,0.0546875,0.005859375,-0.1308594,0.15625,1.9375,12.77344,0.00390625,0.0078125,-0.0859375,-0.06054688,0.04492188,0,0.009887695,-0.007568359,0.0267334,0,0,0.0004882812,0.3105164,4.045,0,0,0,0.2999878,nan,2,2.071,1,0,0.2171326,0.4118958,0.230072,0.3829956,-0.00390625,0.004882812,0,1,3,0
51.952,0.001015,0.1933594,-0.00390625,-0.05859375,0.78125,-2.25,6.046875,0.03320312,-0.01953125,-0.1230469,-0.05664062,0.04492188,0,0.009643555,-0.00769043,0.0255127,0,0,0.0004882812,0.3105164,4.045,0,0,0,0.2999878,nan,2,2.082,1,0,0.258667,0.3815918,0.285675,0.3161926,-0.00390625,0.004882812,0,1,3,0
51.962,0.001005,-0.03320312,0.046875,-0.0234375,2.382812,-0.0703125,4.9375,-0.005859375,-0.01171875,-0.03320312,-0.05859375,0.04882812,0,0.009887695,-0.008056641,0.02478027,0,0,0.0004882812,0.3105164,4.045,0,0,0,0.2999878,nan,2,2.092,1,0,0.3713989,0.2571106,0.3697205,0.2438965,-0.00390625,0.004882812,0,1,3,0
51.972,0.001012,-0.06054688,0.02929688,0.015625,1.335938,-2.96875,10.47656,-0.015625,0.01171875,0.009765625,-0.05859375,0.04882812,0,0.009887695,-0.008056641,0.0246582,0,0,0.0004882812,0.3103638,4.045,0,0,0,0.2998047,nan,2,2.102,1,0,0.3586731,0.2679443,0.3623352,0.2524719,-0.00390625,0.004882812,0,1,3,0
51.982,0.001012,0.001953125,0.04296875,-0.01953125,-1.054688,2.148438,11.07031,-0.01171875,0.03125,-0.01171875,-0.05859375,0.046875,0,0.009887695,-0.0078125,0.0246582,0,0,0.0004882812,0.3086853,4.045,0,0,0,0.2977905,nan,2,2.112,1,0,0.2831421,0.3411255,0.285553,0.3248596,-0.004882812,0.004882812,0,1,3,0
51.991,0.001008,-0.04296875,-0.04101562,-0.06445312,0.734375,0.84375,11.13281,-0.01171875,0,-0.046875,-0.05859375,0.04492188,0,0.009765625,-0.00769043,0.02441406,0,0,0.0004882812,0.3071594,4.045,0,0,0,0.2960205,nan,2,2.121,1,0,0.2615967,0.3749695,0.2508545,0.3412476,-0.004882812,0.004882812,0,1,3,0
52.002,0.001005,-0.02148438,0.0234375,-0.0390625,1.882812,-2.046875,9.257812,-0.005859375,0.00390625,-0.04101562,-0.05664062,0.046875,0,0.009643555,-0.00769043,0.02392578,0,0,0.0004882812,0.305481,4.045,0,0,0,0.2940063,nan,2,2.131,1,0,0.2871704,0.3346863,0.2909241,0.309082,-0.004882812,0.004882812,0,1,3,0.6825397
52.012,0.001004,0.015625,0.05664062,0.078125,0.15625,-2.671875,8.40625,0.01171875,0.02734375,0.04296875,-0.05859375,0.046875,0,0.009765625,-0.00769043,0.02392578,0,0,0.0004882812,0.3038025,4.045,0,0,0,0.2919922,nan,2,2.141,1,0,0.3886108,0.219574,0.4060974,0.2008667,-0.004882812,0.004882812,0,1,3,0
52.022,0.001003,0.01171875,0.01367188,0.04882812,-1.210938,-1.304688,10.23438,0.04492188,-0.00390625,0.07421875,-0.06054688,0.046875,0,0.01000977,-0.0078125,0.0246582,0,0,0.0004882812,0.3020935,4.045,0,0,0,0.289978,nan,2,2.151,1,0,0.3329468,0.2845764,0.3470764,0.2438049,-0.004882812,0.004882812,0,1,3,0
52.032,0.001003,-0.06835938,0.06445312,0.0078125,1.367188,0.8515625,9.367188,-0.001953125,0.01171875,0.02539062,-0.06054688,0.046875,0,0.01000977,-0.00793457,0.02502441,0,0,0.0004882812,0.300415,4.045,0,0,0,0.2880249,nan,2,2.161,1,0,0.2665405,0.3364868,0.2755432,0.3230896,-0.004882812,0.004882812,0,1,3,0.2063492
52.042,0.001003,0.009765625,0.0234375,0.01953125,-0.3125,0.1328125,8.8125,0.001953125,-0.001953125,0.02929688,-0.06054688,0.046875,0,0.01000977,-0.00793457,0.02539062,0,0,0.0004882812,0.2985535,4.045,0,0,0,0.2858276,nan,2,2.171,1,0,0.3013611,0.3097534,0.3059082,0.2772522,-0.004882812,0.004882812,0,1,3,0
52.052,0.000994,-0.06835938,0.03515625,-0.08203125,-2.070312,-0.125,14.15625,-0.00390625,-0.00390625,-0.02734375,-0.06054688,0.04882812,0,0.01000977,-0.008056641,0.0255127,0,0,0.0004882812,0.296875,4.045,0,0,0,0.2838135,nan,2,2.182,1,0,0.2119751,0.3959045,0.2089844,0.3706665,-0.004882812,0.004882812,0,1,3,0
52.062,0.001008,-0.04296875,0.09570312,-0.05273438,1.164062,2.695312,8.085938,-0.02734375,0.03710938,-0.06835938,-0.05859375,0.046875,0,0.009887695,-0.00793457,0.02490234,0,0,0.0004882812,0.2951965,4.045,0,0,0,0.2817993,nan,2,2.192,1,0,0.2399292,0.3509827,0.2457886,0.3441162,-0.004882812,0.004882812,0,1,3,0
52.072,0.00095,-0.01367188,0.0234375,-0.03515625,1.164062,-1.578125,8.757812,0.02734375,0.009765625,-0.046875,-0.06054688,0.046875,0,0.01000977,-0.0078125,0.02429199,0,0,0.0004882812,0.2935181,4.045,0,0,0,0.2797852,nan,2,2.202,1,0,0.3052673,0.2956848,0.3141785,0.2589722,-0.004882812,0.004882812,0,1,3,0
52.081,0.001015,0.01171875,0.02148438,-0.06054688,1.578125,2.320312,8.640625,-0.01367188,-0.015625,-0.04296875,-0.06054688,0.046875,0,0.01013184,-0.0078125,0.02392578,0,0,0.0004882812,0.2919922,4.045,0,0,0,0.2780151,nan,2,2.211,1,0,0.2728882,0.3299255,0.2644958,0.3006897,-0.004882812,0.004882812,0,1,3,0
52.091,0.001,0.125,0.09570312,-0.08984375,1.117188,-5.171875,9.492188,0.01953125,0.02734375,-0.08007812,-0.06054688,0.046875,0,0.009887695,-0.00793457,0.02331543,0,0,0.0004882812,0.2903137,4.045,0,0,0,0.276001,nan,2,2.221,1,0,0.2244568,0.3535461,0.2599792,0.3233032,-0.004882812,0.004882812,0,1,3,0
52.102,0.001012,-0.0703125,0.09570312,0.0078125,0.4140625,-2.570312,6.398438,-0.02539062,0.01953125,-0.046875,-0.05859375,0.046875,0,0.009765625,-0.00769043,0.02246094,0,0,0.0004882812,0.2886353,4.045,0,0,0,0.2739868,nan,2,2.231,1,0,0.3347168,0.252655,0.3320312,0.2351074,-0.004882812,0.004882812,0,1,3,0
52.112,0.001007,-0.0078125,0.001953125,-0.04296875,-0.7734375,-4.4375,10.47656,-0.01757812,-0.001953125,-0.02929688,-0.05859375,0.04492188,0,0.009643555,-0.007568359,0.0222168,0,0,0.0004882812,0.2869568,4.045,0,0,0,0.2719727,nan,2,2.241,1,0,0.2819519,0.3118286,0.2756042,0.2784424,-0.004882812,0.004882812,0,1,3,0
52.122,0.00101,-0.1757812,0,0.0234375,-0.6484375,3.15625,12.11719,-0.07226562,0.02929688,0.02539062,-0.0546875,0.04492188,0,0.009155273,-0.007446289,0.0222168,0,0,0.0004882812,0.2852478,4.045,0,0,0,0.2700195,nan,2,2.251,1,0,0.3381348,0.2413635,0.3230896,0.2384949,-0.004882812,0.004882812,0,1,3,0
52.132,0.000973,0.04492188,-0.03710938,-0.02734375,-2.125,0.9453125,14.99219,0.001953125,-0.02734375,-0.009765625,-0.0546875,0.04492188,0,0.008911133,-0.007446289,0.02233887,0,0,0.0004882812,0.2835693,4.045,0,0,0,0.2680054,nan,2,2.261,1,0,0.2536316,0.3404541,0.2536926,0.2865601,-0.004882812,0.004882812,0,1,3,0
52.142,0.001019,0.046875,-0.01757812,-0.05078125,0.546875,2.25,10.21094,0.00390625,-0.01171875,-0.03710938,-0.05273438,0.04492188,0,0.008911133,-0.00769043,0.02209473,0,0,0.0004882812,0.2817383,4.045,0,0,0,0.2658081,nan,2,2.271,1,0,0.2401428,0.3392944,0.2443542,0.3031311,-0.004882812,0.004882812,0,1,3,0
52.152,0.001009,0.09570312,-0.05273438,-0.06835938,1.085938,-3.40625,5.054688,0.03710938,-0.005859375,-0.04882812,-0.0546875,0.046875,0,0.009033203,-0.00769043,0.02160645,0,0,0.0004882812,0.2800293,4.045,0,0,0,0.2637939,nan,2,2.282,1,0,0.2386475,0.3388672,0.2568054,0.2858582,-0.004882812,0.005859375,0,1,3,0
52.162,0.001011,0.05664062,-0.015625,0.0546875,1.4375,-0.6171875,9.5,0,0.01953125,0.005859375,-0.0546875,0.04492188,0,0.009033203,-0.007568359,0.0213623,0,0,0.0004882812,0.2783508,4.045,0,0,0,0.2617798,nan,2,2.292,1,0,0.3388367,0.2295532,0.3473816,0.1976318,-0.005859375,0.005859375,0,1,3,0.5396826
52.172,0.001006,-0.06640625,0.01171875,0.04882812,1.921875,1.15625,8.25,-0.06640625,0.015625,0.0546875,-0.05273438,0.04492188,0,0.008666992,-0.007446289,0.02185059,0,0,0.0004882812,0.2766724,4.045,0,0,0,0.2598267,nan,2,2.302,1,0,0.3260803,0.2406921,0.3105774,0.2293396,-0.005859375,0.005859375,0,1,3,0
52.182,0.00101,0.1074219,0.04882812,0.06054688,-0.7421875,-4.1875,8.195312,0.0078125,0.001953125,0.04296875,-0.04882812,0.04492188,0,0.008178711,-0.007568359,0.02233887,0,0,0.0004882812,0.2749939,4.045,0,0,0,0.2578125,nan,2,2.312,1,0,0.2795105,0.2843018,0.3001099,0.2359924,-0.005859375,0.005859375,0,1,3,0
52.191,0.00101,-0.01953125,-0.0546875,-0.00390625,-2.773438,3.09375,13.34375,-0.02148438,-0.01367188,0.02734375,-0.04882812,0.04492188,0,0.008178711,-0.007446289,0.02270508,0,0,0.0004882812,0.273468,4.045,0,0,0,0.2559814,nan,2,2.321,1,0,0.2620544,0.3104248,0.2471313,0.2742615,-0.005859375,0.005859375,0,1,3,0
52.202,0.001,-0.01367188,-0.05664062,-0.01367188,-0.390625,2.96875,12.32031,0.00390625,-0.01953125,-0.0234375,-0.04882812,0.04492188,0,0.008178711,-0.007568359,0.02258301,0,0,0.0004882812,0.2717896,4.045,0,0,0,0.2540283,nan,2,2.331,1,0,0.2383423,0.3293457,0.2339478,0.2855225,-0.005859375,0.005859375,0,1,3,0
52.212,0.001009,0.03710938,-0.02929688,0.00390625,0.21875,1.648438,3.640625,-0.0078125,0,0.02929688,-0.04882812,0.046875,0,0.008178711,-0.0078125,0.02270508,0,0,0.0004882812,0.2701111,4.045,0,0,0,0.2520142,nan,2,2.341,1,0,0.3017578,0.2488403,0.305603,0.2242126,-0.005859375,0.005859375,0,1,3,0
52.222,0.001003,-0.01757812,0.03320312,-0.0390625,2.296875,-2.65625,8.023438,-0.03710938,0.02929688,-0.03320312,-0.046875,0.046875,0,0.0078125,-0.00769043,0.02258301,0,0,0.0004882812,0.2684326,4.045,0,0,0,0.25,nan,2,2.351,1,0,0.2135315,0.3282471,0.22052,0.3114014,-0.005859375,0.005859375,0,1,3,0
52.232,0.000955,0.03515625,-0.1171875,0.03320312,2.5625,-1.820312,10.47656,0.08203125,-0.05859375,0.02734375,-0.046875,0.04492188,0,0.00793457,-0.007568359,0.02258301,0,0,0.0004882812,0.2667236,4.048,0,0,0,0.2479858,nan,2,2.361,1,0,0.3107605,0.2729797,0.309845,0.1733704,-0.005859375,0.005859375,0,1,3,0
52.242,0.001007,-0.02929688,0.09960938,-0.05859375,2.34375,1.140625,5.84375,0.01953125,0.01757812,-0.0390625,-0.05078125,0.046875,0,0.008544922,-0.00793457,0.02258301,0,0,0.0004882812,0.2648926,4.048,0,0,0,0.2457886,nan,2,2.371,1,0,0.1809998,0.3449707,0.1931763,0.3403625,-0.005859375,0.005859375,0,1,3,0
52.252,0.001009,-0.1269531,-0.0078125,-0.08203125,1.03125,-2.867188,4.109375,-0.04101562,-0.0078125,-0.06640625,-0.05078125,0.04882812,0,0.008544922,-0.00793457,0.0222168,0,0,0.0004882812,0.2632141,4.048,0,0,0,0.2437744,nan,2,2.382,1,0,0.2106018,0.3332825,0.1842041,0.3246765,-0.005859375,0.005859375,0,1,3,0
52.262,0.001,0.0625,0.015625,-0.1113281,1.867188,-3.085938,11.17188,-0.005859375,0.03320312,-0.1191406,-0.04882812,0.046875,0,0.008056641,-0.00793457,0.02111816,0,0,0.0004882812,0.2615051,4.048,0,0,0,0.2418213,nan,2,2.392,1,0,0.1710815,0.3558655,0.1993713,0.3197632,-0.005859375,0.005859375,0,1,3,0
52.272,0.001007,0.0859375,-0.02734375,-0.00390625,0.8359375,2.101562,9.476562,0.0234375,0,-0.03515625,-0.04882812,0.046875,0,0.008178711,-0.00793457,0.02038574,0,0,0.0004882812,0.2598267,4.048,0,0,0,0.2398071,nan,2,2.402,1,0,0.3204041,0.2175598,0.3308716,0.1704712,-0.005859375,0.005859375,0,1,3,0.1269841
52.282,0.001005,0.01171875,0.03515625,0.01757812,-1.492188,3.65625,13.07812,0.009765625,0.03710938,0,-0.05078125,0.046875,0,0.008300781,-0.0078125,0.0201416,0,0,0.0004882812,0.2581482,4.048,0,0,0,0.237793,nan,2,2.412,1,0,0.3059998,0.2125549,0.3197632,0.1942444,-0.005859375,0.005859375,0,1,3,0
52.291,0.000998,-0.0625,0.0390625,-0.02148438,0.0703125,0.7578125,15.33594,-0.06445312,-0.001953125,-0.01367188,-0.04882812,0.046875,0,0.008178711,-0.00769043,0.0201416,0,0,0.0004882812,0.2566223,4.048,0,0,0,0.2360229,nan,2,2.421,1,0,0.2450562,0.289093,0.2183228,0.2740479,-0.005859375,0.005859375,0,1,3,0
52.302,0.000993,0.1289062,-0.03125,-0.03515625,-1.179688,3.09375,14.14844,-0.001953125,0.009765625,-0.046875,-0.04296875,0.04492188,0,0.007324219,-0.007446289,0.01989746,0,0,0.0004882812,0.2549438,4.048,0,0,0,0.2340088,nan,2,2.431,1,0,0.1972656,0.3356628,0.2225952,0.2642822,-0.005859375,0.005859375,0,1,3,0
52.312,0.001023,-0.046875,-0.1035156,0.125,-0.59375,7.070312,14.375,-0.06835938,-0.01953125,0.08398438,-0.04101562,0.04492188,0,0.006958008,-0.007446289,0.02001953,0,0,0.0004882812,0.2532654,4.048,0,0,0,0.2319946,nan,2,2.441,1,0,0.4241638,0.1139221,0.3892517,0.08572388,-0.005859375,0.005859375,0,1,3,0
52.322,0.001008,0.02929688,0.03515625,0.08203125,-1,0.1953125,10.875,0.03515625,-0.01953125,0.109375,-0.04296875,0.046875,0,0.007080078,-0.0078125,0.02099609,0,0,0.0004882812,0.2515869,4.048,0,0,0,0.2299805,nan,2,2.451,1,0,0.2989807,0.2203979,0.3124084,0.17453,-0.005859375,0.005859375,0,1,3,0
52.332,0.001009,-0.09179688,-0.08007812,0.1738281,1.398438,-0.203125,4.335938,-0.04296875,-0.00390625,0.140625,-0.04296875,0.046875,0,0.007080078,-0.00769043,0.0222168,0,0,0.0004882812,0.2499084,4.048,0,0,0,0.2280273,nan,2,2.461,1,0,0.3533936,0.172699,0.3178406,0.1556702,-0.005859375,0.005859375,0,1,3,0
52.342,0.001011,0.08203125,-0.0546875,0.06640625,1.773438,-6.546875,4.171875,0.06054688,-0.0078125,0.1015625,-0.04492188,0.046875,0,0.007324219,-0.0078125,0.02355957,0,0,0.0004882812,0.2480469,4.048,0,0,0,0.225769,nan,2,2.471,1,0,0.2079773,0.307251,0.2266541,0.2502747,-0.005859375,0.005859375,0,1,3,0
52.352,0.001012,-0.01367188,0.0703125,-0.02539062,0.4296875,0.3125,11.67188,-0.04101562,0.01171875,0.015625,-0.04296875,0.04882812,0,0.007324219,-0.008178711,0.02416992,0,0,0.0004882812,0.2463684,4.048,0,0,0,0.2238159,nan,2,2.482,1,0,0.1620178,0.3326111,0.1616211,0.3291626,-0.005859375,0.006835938,0,1,3,0
52.362,0.001012,0,-0.05859375,-0.1152344,0.4140625,1.132812,5.835938,-0.0390625,0.02148438,-0.07421875,-0.04296875,0.046875,0,0.007080078,-0.00793457,0.02380371,0,0,0.0004882812,0.2446594,4.048,0,0,0,0.2218018,nan,2,2.492,1,0,0.1414795,0.3676453,0.1312561,0.3383179,-0.005859375,0.006835938,0,1,3,0
52.372,0.001009,-0.1328125,-0.01171875,-0.1289062,2.226562,-1.664062,4.554688,-0.03320312,-0.015625,-0.109375,-0.04101562,0.046875,0,0.006958008,-0.0078125,0.02294922,0,0,0.0004882812,0.242981,4.048,0,0,0,0.2197876,nan,2,2.502,1,0,0.1785889,0.3345642,0.1560974,0.3027039,-0.005859375,0.006835938,0,1,3,0
52.382,0.00101,-0.1132812,0,-0.09960938,-1.046875,0.2421875,14.70312,-0.07226562,-0.01171875,-0.09960938,-0.0390625,0.04882812,0,0.006469727,-0.008056641,0.02185059,0,0,0.0004882812,0.2413025,4.048,0,0,0,0.2177734,nan,2,2.512,1,0,0.227417,0.273407,0.2052002,0.2591858,-0.005859375,0.006835938,0,1,3,0
52.391,0.001011,0.01953125,0.09375,-0.09570312,-1.125,7.039062,16.4375,-0.03125,0.02929688,-0.1015625,-0.03515625,0.04882812,0,0.005981445,-0.008178711,0.02087402,0,0,0.0004882812,0.2397766,4.048,0,0,0,0.2160034,nan,2,2.521,1,0,0.1997681,0.2779541,0.2207031,0.2607422,-0.005859375,0.006835938,0,1,3,0
52.402,0.001005,-0.01757812,0.01757812,-0.09960938,1.390625,-1.0625,4.765625,-0.009765625,0.01757812,-0.109375,-0.03515625,0.04882812,0,0.005981445,-0.008056641,0.01989746,0,0,0.0004882812,0.2380981,4.048,0,0,0,0.2139893,nan,2,2.531,1,0,0.1932678,0.2957458,0.1937866,0.2696228,-0.005859375,0.006835938,0,1,3,0
52.412,0.001005,0.1503906,-0.05859375,-0.00390625,0.296875,-2.507812,11.67969,0.06445312,-0.01367188,-0.04492188,-0.0390625,0.04882812,0,0.006347656,-0.008056641,0.01916504,0,0,0.0004882812,0.2364197,4.048,0,0,0,0.2119751,nan,2,2.541,1,0,0.2704468,0.2299805,0.2815857,0.1636963,-0.005859375,0.006835938,0,1,3,0
52.422,0.001005,-0.08007812,0.0703125,-0.0234375,-1.890625,-1.070312,12.21875,0.001953125,0.03320312,-0.02734375,-0.04101562,0.04882812,0,0.006958008,-0.008178711,0.01879883,0,0,0.0004882812,0.2347412,4.048,0,0,0,0.210022,nan,2,2.551,1,0,0.2442932,0.223938,0.2452393,0.2254639,-0.006835938,0.006835938,0,1,3,0
52.432,0.001005,-0.00390625,0.03515625,0.01367188,0.4453125,-1.9375,8.273438,0.01367188,0.01171875,0.02148438,-0.04296875,0.04882812,0,0.007202148,-0.008056641,0.0189209,0,0,0.0004882812,0.2330627,4.048,0,0,0,0.2080078,nan,2,2.561,1,0,0.2775269,0.2041626,0.2754822,0.1750488,-0.006835938,0.006835938,0,1,3,0
52.442,0.001054,-0.1074219,0.06835938,0.00390625,2.1875,1.578125,9.015625,-0.06054688,0.03125,0.01171875,-0.04101562,0.046875,0,0.006958008,-0.00793457,0.0189209,0,0,0.0004882812,0.2312012,4.048,0,0,0,0.2058105,nan,2,2.571,1,0,0.2461243,0.2263184,0.2315674,0.2207947,-0.006835938,0.006835938,0,1,3,0
52.452,0.001016,0.0546875,0.08007812,-0.05078125,0.25,0.0625,12.58594,0.04101562,0.00390625,0.0078125,-0.04101562,0.04882812,0,0.006713867,-0.008056641,0.01928711,0,0,0.0004882812,0.2295227,4.048,0,0,0,0.2037964,nan,2,2.582,1,0,0.1644287,0.3043213,0.2020569,0.2472229,-0.006835938,0.006835938,0,1,3,0
52.462,0.001001,-0.03515625,-0.0234375,-0.005859375,-1.59375,7.007812,19.4375,-0.001953125,0.015625,-0.015625,-0.04101562,0.04882812,0,0.006958008,-0.008056641,0.01916504,0,0,0.0004882812,0.2278442,4.048,0,0,0,0.2017822,nan,2,2.592,1,0,0.2060242,0.257782,0.203949,0.2435608,-0.006835938,0.006835938,0,1,3,0
52.472,0.000978,0.05664062,0.08789062,-0.1230469,0.7421875,-9.421875,9.09375,0.0703125,0.01367188,-0.0703125,-0.04296875,0.046875,0,0.007080078,-0.00793457,0.01879883,0,0,0.0004882812,0.2261353,4.048,0,0,0,0.1997681,nan,2,2.602,1,0,0.1280518,0.3395081,0.1598206,0.2771912,-0.006835938,0.006835938,0,1,3,0
52.482,0.000992,0.07617188,0.005859375,-0.09179688,0.96875,-2.8125,10.39062,-0.009765625,0.05664062,-0.07226562,-0.04101562,0.04296875,0,0.006958008,-0.007202148,0.01806641,0,0,0.0004882812,0.2244568,4.048,0,0,0,0.1978149,nan,2,2.612,1,0,0.1816711,0.2846985,0.1862793,0.2452087,-0.006835938,0.006835938,0,1,3,0
52.491,0.001017,-0.01953125,-0.009765625,-0.08398438,-2.242188,1.84375,13.22656,-0.015625,0.01171875,-0.06835938,-0.04101562,0.04101562,0,0.006958008,-0.006958008,0.01745605,0,0,0.0004882812,0.2229309,4.048,0,0,0,0.1959839,nan,2,2.621,1,0,0.2068787,0.262146,0.1979065,0.2248535,-0.006835938,0.006835938,0,1,3,0
52.501,0.00101,0.07421875,-0.1484375,-0.0625,-0.734375,-0.09375,5.453125,0.07617188,-0.03515625,-0.08007812,-0.04492188,0.04296875,0,0.007446289,-0.007080078,0.01672363,0,0,0.0004882812,0.2212524,4.048,0,0,0,0.1939697,nan,2,2.631,1,0,0.1793823,0.2986145,0.1846313,0.2224121,-0.006835938,0.006835938,0,1,3,0
52.512,0.001014,-0.05664062,-0.05664062,-0.046875,-0.1953125,3.023438,14.19531,0.00390625,-0.0234375,-0.03320312,-0.046875,0.04296875,0,0.00769043,-0.007202148,0.01611328,0,0,0.0004882812,0.219574,4.048,0,0,0,0.1920166,nan,2,2.641,1,0,0.2593994,0.2080994,0.2399292,0.1708984,-0.006835938,0.006835938,0,1,3,0
52.522,0.00101,-0.01171875,-0.2109375,-0.00390625,-1.320312,3.171875,9.085938,0.02539062,-0.1347656,-0.04882812,-0.04492188,0.04492188,0,0.007568359,-0.007568359,0.01550293,0,0,0.0004882812,0.2178955,4.048,0,0,0,0.1900024,nan,2,2.651,1,0,0.2567139,0.2542419,0.2110596,0.1495667,-0.006835938,0.006835938,0,1,3,0.1269841
52.532,0.001009,-0.1035156,-0.00390625,0.04296875,1.15625,0.734375,10.95312,0.0078125,-0.01367188,0.03125,-0.04882812,0.05078125,0,0.008056641,-0.008300781,0.015625,0,0,0.0004882812,0.216217,4.048,0,0,0,0.1879883,nan,2,2.661,1,0,0.2735291,0.1632385,0.2749939,0.1530762,-0.006835938,0.006835938,0,1,3,0
52.542,0.00101,-0.1503906,0.1113281,-0.0078125,-3.078125,5.125,14.85156,-0.02734375,0.02929688,0.00390625,-0.04882812,0.05078125,0,0.008178711,-0.008422852,0.01574707,0,0,0.0004882812,0.2145386,4.048,0,0,0,0.1859741,nan,2,2.671,1,0,0.1965332,0.2319946,0.194458,0.2351379,-0.006835938,0.006835938,0,1,3,0
52.552,0.001009,0.08007812,-0.0234375,-0.005859375,2.382812,-8.632812,7.765625,0.01757812,-0.04101562,0.005859375,-0.046875,0.05078125,0,0.0078125,-0.008422852,0.01586914,0,0,0.0004882812,0.212677,4.048,0,0,0,0.1837769,nan,2,2.682,1,0,0.203186,0.2567139,0.2051086,0.1856995,-0.006835938,0.0078125,0,1,3,0
52.562,0.001016,0.04101562,0.02929688,-0.009765625,0.1796875,0.0625,8.054688,-0.01757812,-0.01367188,-0.02734375,-0.04492188,0.05273438,0,0.007446289,-0.008789062,0.015625,0,0,0.0004882812,0.2109985,4.048,0,0,0,0.1818237,nan,2,2.692,1,0,0.1817627,0.2586975,0.1917725,0.211731,-0.006835938,0.0078125,0,1,3,0
52.572,0.001011,0.078125,-0.0234375,0.03125,-0.4609375,-0.8046875,5.859375,0.005859375,-0.001953125,0.0078125,-0.04296875,0.05273438,0,0.007202148,-0.008789062,0.01550293,0,0,0.0004882812,0.2092896,4.048,0,0,0,0.1798096,nan,2,2.702,1,0,0.2449341,0.1965637,0.2536621,0.1420898,-0.006835938,0.0078125,0,1,3,0
52.582,0.001012,0.05664062,-0.0703125,-0.01953125,0.7109375,3.28125,15.71094,0.0390625,-0.04296875,-0.005859375,-0.04492188,0.0546875,0,0.007568359,-0.009033203,0.01550293,0,0,0.0004882812,0.2076111,4.048,0,0,0,0.1777954,nan,2,2.712,1,0,0.1930847,0.2568054,0.1887207,0.1918335,-0.006835938,0.0078125,0,1,3,0
52.591,0.001007,-0.04882812,0.005859375,-0.1230469,-2.632812,-5.820312,8.84375,0.01367188,-0.001953125,-0.08789062,-0.046875,0.0546875,0,0.0078125,-0.009155273,0.01513672,0,0,0.0004882812,0.2061157,4.048,0,0,0,0.1760254,nan,2,2.721,1,0,0.09896851,0.3293457,0.09936523,0.2967529,-0.006835938,0.0078125,0,1,3,0
52.602,0.001003,-0.015625,0,-0.0859375,0.84375,0.515625,8.882812,-0.04492188,0,-0.1171875,-0.04296875,0.0546875,0,0.007324219,-0.009155273,0.01379395,0,0,0.0004882812,0.2044067,4.048,0,0,0,0.1740112,nan,2,2.731,1,0,0.1777649,0.2536316,0.1646729,0.2216187,-0.006835938,0.0078125,0,1,3,0
52.612,0.001003,-0.1699219,-0.01953125,-0.1054688,1.367188,-9.257812,6.570312,-0.08007812,0.0078125,-0.1289062,-0.04101562,0.05273438,0,0.006958008,-0.008789062,0.01257324,0,0,0.0004882812,0.2027283,4.048,0,0,0,0.1719971,nan,2,2.741,1,0,0.1734924,0.2619934,0.1360168,0.2394409,-0.006835938,0.0078125,0,1,3,0
52.622,0.001003,-0.08007812,-0.01171875,-0.1074219,1.398438,-7.414062,3.953125,-0.07617188,0.005859375,-0.109375,-0.03515625,0.05273438,0,0.005859375,-0.008666992,0.01147461,0,0,0.0004882812,0.2010498,4.048,0,0,0,0.1699829,nan,2,2.751,1,0,0.1797485,0.2461853,0.1726074,0.205658,-0.006835938,0.0078125,0,1,3,0
52.632,0.001009,-0.02929688,-0.02929688,-0.06640625,-3.515625,-4.625,10.29688,-0.08398438,-0.02929688,-0.0859375,-0.02929688,0.05273438,0,0.005004883,-0.008789062,0.01037598,0,0,0.0004882812,0.1993713,4.048,0,0,0,0.1679688,nan,2,2.761,1,0,0.2273865,0.2007446,0.2084351,0.1608582,-0.006835938,0.0078125,0,1,3,0
52.642,0.0009869999,-0.08398438,0,-0.1074219,-1.125,2.773438,12.77344,0,-0.015625,-0.1230469,-0.03125,0.0546875,0,0.005126953,-0.009033203,0.009277344,0,0,0.0004882812,0.1975098,4.048,0,0,0,0.1657715,nan,2,2.771,1,0,0.1440735,0.2729492,0.1359558,0.2370911,-0.006835938,0.0078125,0,1,3,0
52.652,0.000965,0.0390625,-0.02929688,-0.125,0.765625,1.429688,6.796875,0.02539062,0.00390625,-0.1074219,-0.03125,0.0546875,0,0.005249023,-0.009155273,0.008300781,0,0,0.0004882812,0.1958313,4.048,0,0,0,0.1638184,nan,2,2.782,1,0,0.1410522,0.2695312,0.1478882,0.2248535,-0.006835938,0.0078125,0,1,3,0
52.662,0.00098,0.009765625,0.03515625,-0.15625,0.9609375,7.203125,11.29688,-0.015625,0.02929688,-0.1347656,-0.03125,0.0546875,0,0.005126953,-0.009033203,0.006958008,0,0,0.0004882812,0.1941528,4.048,0,0,0,0.1618042,nan,2,2.792,1,0,0.1248169,0.2755127,0.1307373,0.2455139,-0.006835938,0.0078125,0,1,3,0
52.671,0.001062,0.05078125,0.07617188,-0.07421875,0.5546875,3.078125,9.21875,0.01171875,-0.01171875,-0.07617188,-0.03125,0.05273438,0,0.005126953,-0.008911133,0.006103516,0,0,0.0004882812,0.192627,4.048,0,0,0,0.1599731,nan,2,2.801,1,0,0.2244873,0.1896667,0.2192993,0.1370544,-0.006835938,0.0078125,0,1,3,0.4285714
52.681,0.001044,-0.02539062,0.0390625,-0.02734375,1.234375,5.242188,11.10938,-0.015625,0.02539062,-0.03515625,-0.02929688,0.05273438,0,0.005004883,-0.008911133,0.005493164,0,0,0.0004882812,0.1909485,4.048,0,0,0,0.15802,nan,2,2.811,1,0,0.2190857,0.1733093,0.2215881,0.1498108,-0.006835938,0.0078125,0,1,3,0
52.692,0.001034,-0.04882812,-0.0625,-0.03515625,0.8515625,-1.484375,6.195312,0.0390625,-0.02539062,-0.04101562,-0.02929688,0.05273438,0,0.004882812,-0.008666992,0.005126953,0,0,0.0004882812,0.18927,4.048,0,0,0,0.1560059,nan,2,2.821,1,0,0.1808472,0.2398987,0.1768799,0.1593933,-0.006835938,0.0078125,0,1,3,0
52.701,0.001013,-0.02148438,-0.04492188,-0.03125,0.6328125,-7.835938,2.476562,-0.01171875,-0.009765625,-0.0234375,-0.02929688,0.05273438,0,0.004760742,-0.008789062,0.004882812,0,0,0.0004882812,0.1875916,4.048,0,0,0,0.1539917,nan,2,2.831,1,0,0.1974182,0.2052917,0.182251,0.1653442,-0.006835938,0.0078125,0,1,3,0
52.712,0.001012,-0.1289062,-0.02734375,-0.03125,-1.414062,3.375,10.54688,-0.08007812,0.01953125,-0.04492188,-0.02734375,0.05273438,0,0.004516602,-0.008789062,0.004394531,0,0,0.0004882812,0.1858826,4.048,0,0,0,0.1519775,nan,2,2.841,1,0,0.1831055,0.2052917,0.1528931,0.2022705,-0.006835938,0.0078125,0,1,3,0
52.722,0.000989,-0.04882812,0.0234375,-0.02929688,-1.710938,-0.1640625,18.69531,-0.02148438,0.01367188,-0.0234375,-0.02539062,0.05078125,0,0.004272461,-0.008544922,0.004150391,0,0,0.0004882812,0.1842041,4.048,0,0,0,0.1500244,nan,2,2.851,1,0,0.1890564,0.2008667,0.183136,0.1637573,-0.006835938,0.0078125,0,1,3,0
52.732,0.00101,-0.0625,-0.02734375,-0.05078125,-0.40625,5.296875,11.25,-0.07421875,0.005859375,-0.04882812,-0.02539062,0.05078125,0,0.004150391,-0.008544922,0.00378418,0,0,0.0004882812,0.1825256,4.048,0,0,0,0.1480103,nan,2,2.861,1,0,0.1738892,0.2133484,0.1392517,0.2035828,-0.006835938,0.008789062,0,1,3,0
52.742,0.001008,-0.09375,-0.04101562,0.01757812,0.984375,2.765625,12.97656,-0.0234375,-0.01953125,0,-0.0234375,0.05078125,0,0.00390625,-0.008544922,0.003540039,0,0,0.0004882812,0.1808472,4.048,0,0,0,0.1459961,nan,2,2.871,1,0,0.2339478,0.1609497,0.2083435,0.1201172,-0.0078125,0.008789062,0,1,3,0
52.752,0.001011,0.04101562,-0.1328125,-0.04296875,2.023438,0.0234375,5.960938,0.001953125,-0.02929688,-0.0234375,-0.0234375,0.05078125,0,0.00378418,-0.008544922,0.003417969,0,0,0.0004882812,0.1789856,4.048,0,0,0,0.1437988,nan,2,2.881,1,0,0.1520386,0.2489014,0.1353455,0.179657,-0.0078125,0.008789062,0,1,3,0
52.762,0.001003,0.01171875,-0.02539062,-0.05859375,-1.554688,-2.96875,6.664062,0.03320312,0.0078125,-0.046875,-0.02539062,0.05078125,0,0.004150391,-0.008666992,0.003051758,0,0,0.0004882812,0.1773071,4.048,0,0,0,0.1417847,nan,2,2.892,1,0,0.1496582,0.2234802,0.154541,0.1815491,-0.0078125,0.008789062,0,1,3,0
52.772,0.001011,-0.03125,-0.08007812,0.0234375,1.773438,-0.765625,3.648438,0,-0.01171875,0.01367188,-0.02539062,0.05078125,0,0.004150391,-0.008422852,0.002929688,0,0,0.002929688,0.1759644,4.048,0,0,0,0.1400146,nan,4,2.902,1,0,0.1825867,0.1769104,0.1780396,0.1662903,0,0,0,1,6,0
52.782,0.00101,0.140625,-0.0390625,-0.01757812,0.421875,-6.617188,6.34375,0.06054688,0.02539062,-0.01757812,-0.02539062,0.04882812,0,0.004272461,-0.008178711,0.002807617,0,0,0.002807617,0.1776428,4.048,0,0,0,0.1400146,nan,4,2.912,1,0,0.1418762,0.2180481,0.1662292,0.1844177,0,0,0,1,6,0
52.791,0.00101,-0.109375,0.06054688,-0.01367188,-0.6640625,4.960938,8.859375,-0.03125,0.0234375,-0.01953125,-0.02734375,0.04882812,0,0.004516602,-0.008178711,0.002685547,0,0,0.002685547,0.1791687,4.048,0,0,0,0.1400146,nan,4,2.921,1,0,0.1791992,0.1743469,0.1630249,0.2000732,0,0,0,1,6,0.2063492
52.801,0.001003,0.02148438,0.02929688,-0.0234375,-0.984375,1.859375,12.39062,0.009765625,0.01953125,-0.01171875,-0.02734375,0.046875,0,0.004394531,-0.00793457,0.002563477,0,0,0.002563477,0.1808472,4.048,0,0,0,0.1400146,nan,4,2.931,1,0,0.1736145,0.1910706,0.1796875,0.1789551,0,0,0,1,6,0
52.812,0.001003,-0.07421875,-0.0390625,-0.08789062,-1.96875,9.351562,12.64062,-0.03710938,-0.015625,-0.078125,-0.02539062,0.04882812,0,0.004272461,-0.008056641,0.002075195,0,0,0.002075195,0.1825256,4.048,0,0,0,0.1400146,nan,4,2.941,1,0,0.1212158,0.256134,0.09790039,0.2548218,0,0,0,1,6,0
52.822,0.001003,0.06835938,0.1347656,-0.04296875,-1.632812,1.8125,13.5625,0.01367188,0.07617188,-0.04882812,-0.0234375,0.04492188,0,0.00402832,-0.007568359,0.001342773,0,0,0.001342773,0.1842041,4.048,0,0,0,0.1400146,nan,4,2.951,1,0,0.173584,0.1777649,0.2122498,0.1732178,0,0,0,1,6,0
52.832,0.001003,-0.06445312,0.06640625,-0.02929688,-1.0625,5.648438,9.898438,0,0.01757812,-0.03320312,-0.02539062,0.04296875,0,0.004150391,-0.007202148,0.0009765625,0,0,0.0009765625,0.1858826,4.048,0,0,0,0.1400146,nan,4,2.961,1,0,0.1908569,0.1869202,0.1828613,0.1828918,0,0,0,1,6,0
52.842,0.001003,0.05078125,0.06835938,-0.1015625,-3.6875,3.890625,11.77344,0.01953125,0.01757812,-0.08203125,-0.02539062,0.04296875,0,0.004150391,-0.007080078,0.0004882812,0,0,0.0004882812,0.187561,4.048,0,0,0,0.1400146,nan,4,2.971,1,0,0.09887695,0.2720032,0.1166077,0.2628174,0,0,0,1,6,0
52.852,0.000999,0.01953125,0.01367188,-0.03320312,-0.015625,1.78125,9.539062,0.03125,-0.01757812,-0.05664062,-0.02734375,0.04296875,0,0.004516602,-0.007080078,-0.0002441406,0,0,-0.0002441406,0.1892395,4.048,0,0,0,0.1400146,nan,4,2.981,1,0,0.20755,0.1854858,0.2006531,0.1633606,0,0,0,1,6,0.2539683
52.862,0.001009,0.015625,-0.001953125,-0.1269531,-2.421875,5.507812,12.55469,-0.00390625,0.009765625,-0.09570312,-0.02734375,0.04101562,0,0.004516602,-0.006835938,-0.0009765625,0,0,-0.0009765625,0.1909485,4.048,0,0,0,0.1400146,nan,4,2.992,1,0,0.1188965,0.2676086,0.1169739,0.2602844,0,0,0,1,6,0
52.872,0.001009,0.08789062,0.02734375,-0.08203125,-2.328125,0.5859375,10.64062,-0.001953125,0.005859375,-0.09375,-0.02539062,0.04101562,0,0.004394531,-0.006958008,-0.002075195,0,0,-0.002075195,0.192627,4.048,0,0,0,0.1400146,nan,4,3.002,1,0,0.1697388,0.2163696,0.1803589,0.2040405,0,0,0,1,6,0
52.882,0.001004,0.01367188,0.05078125,-0.05859375,1.609375,-7.65625,5.640625,0.01757812,0.01953125,-0.05859375,-0.02734375,0.04101562,0,0.004516602,-0.006958008,-0.002807617,0,0,-0.002807617,0.1941528,4.067,0,0,0,0.1400146,nan,4,3.011,1,0,0.2054443,0.1781006,0.2206421,0.1723633,0,0,0,1,6,0.4920635
52.891,0.001055,-0.09179688,0.0859375,-0.04492188,-0.3828125,-4.125,4.015625,-0.06640625,0.01757812,-0.06445312,-0.02539062,0.04101562,0,0.004150391,-0.006958008,-0.003540039,0,0,-0.003540039,0.1958313,4.067,0,0,0,0.1400146,nan,4,3.021,1,0,0.1997375,0.1844482,0.1882935,0.2108154,0,0,0,1,6,0
52.901,0.000965,-0.015625,-0.08984375,-0.07421875,-0.1484375,4.742188,11.51562,0.02929688,-0.05859375,-0.06054688,-0.02539062,0.04296875,0,0.004150391,-0.007202148,-0.00402832,0,0,-0.00402832,0.1975098,4.067,0,0,0,0.1400146,nan,4,3.031,1,0,0.1644897,0.2553406,0.155304,0.2149048,0,0,0,1,6,0
52.912,0.001015,0.03125,-0.04882812,-0.0390625,-0.28125,-7.515625,8.21875,0.01757812,-0.01367188,-0.046875,-0.02539062,0.04492188,0,0.004150391,-0.007446289,-0.004516602,0,0,-0.004516602,0.1991882,4.067,0,0,0,0.1400146,nan,4,3.041,1,0,0.1943359,0.2099609,0.2010803,0.1913452,0,0.0009765625,0,1,6,0
52.922,0.001014,-0.0234375,0.001953125,0.0234375,0.3046875,-2.320312,6.851562,0.03320312,0,0.001953125,-0.02734375,0.04492188,0,0.004394531,-0.007568359,-0.004760742,0,0,-0.004760742,0.2008667,4.067,0,0,0,0.1400146,nan,4,3.051,1,0,0.2562561,0.1472168,0.262207,0.1377869,0,0.0009765625,0,1,6,0
52.932,0.001015,0.1601562,-0.05859375,-0.09960938,-2.945312,9.03125,13.58594,0.09570312,-0.01171875,-0.08007812,-0.02929688,0.046875,0,0.004760742,-0.0078125,-0.005126953,0,0,-0.005126953,0.2025452,4.067,0,0,0,0.1400146,nan,4,3.061,1,0,0.08755493,0.3250732,0.1193848,0.2781982,0,0.0009765625,0,1,6,0
52.942,0.001014,-0.009765625,0.07421875,0.00390625,-1.203125,5.945312,15.57812,0.01953125,0.02734375,-0.02539062,-0.03125,0.046875,0,0.005249023,-0.00769043,-0.005737305,0,0,-0.005737305,0.2042236,4.067,0,0,0,0.1400146,nan,4,3.071,1,0,0.2478027,0.1535645,0.2560425,0.1595154,-0.0009765625,0.0009765625,0,1,6,0
52.952,0.00102,-0.046875,-0.0078125,0.02148438,1.296875,2.03125,8.726562,0.01367188,-0.02539062,0.005859375,-0.03320312,0.046875,0,0.005493164,-0.00769043,-0.005737305,0,0,-0.005737305,0.2059326,4.067,0,0,0,0.1400146,nan,4,3.081,1,0,0.2407837,0.1875916,0.2245483,0.1707764,-0.0009765625,0.0009765625,0,1,6,0
52.962,0.001012,-0.09375,0.04882812,0.04882812,2.046875,5.539062,5.4375,-0.0078125,-0.03515625,0.04101562,-0.03320312,0.04882812,0,0.005615234,-0.008056641,-0.005493164,0,0,-0.005493164,0.2076111,4.067,0,0,0,0.1400146,nan,4,3.092,1,0,0.2556152,0.1718445,0.2397461,0.1631775,-0.0009765625,0.0009765625,0,1,6,0
52.972,0.001007,-0.1835938,0.03710938,-0.005859375,-1.882812,1.59375,13.71875,-0.04882812,0.04101562,0.02929688,-0.03320312,0.046875,0,0.005493164,-0.0078125,-0.005004883,0,0,-0.005004883,0.2092896,4.067,0,0,0,0.1400146,nan,4,3.102,1,0,0.1907349,0.221344,0.1771545,0.2479248,-0.0009765625,0.0009765625,0,1,6,0
52.982,0.001012,-0.0390625,0.04296875,-0.1308594,-0.8828125,8.6875,12.84375,-0.0234375,0.02148438,-0.08398438,-0.02929688,0.04492188,0,0.004882812,-0.007568359,-0.005371094,0,0,-0.005371094,0.210968,4.067,0,0,0,0.1400146,nan,4,3.112,1,0,0.08102417,0.3453674,0.08636475,0.3310852,-0.0009765625,0.0009765625,0,1,6,0
52.991,0.001007,-0.05273438,-0.03515625,-0.03515625,-1.1875,4.4375,6.828125,-0.02734375,-0.01953125,-0.05859375,-0.02929688,0.04492188,0,0.004760742,-0.007568359,-0.006103516,0,0,-0.006103516,0.2124939,4.067,0,0,0,0.1400146,nan,4,3.121,1,0,0.2432251,0.1991577,0.2256775,0.1818542,-0.0009765625,0.0009765625,0,1,6,0
53.001,0.001001,-0.04882812,0.0078125,-0.09375,-0.34375,4.117188,13.69531,-0.0078125,0.04296875,-0.08398438,-0.02734375,0.04492188,0,0.004394531,-0.007324219,-0.006835938,0,0,-0.006835938,0.2141724,4.067,0,0,0,0.1400146,nan,4,3.131,1,0,0.1604614,0.263916,0.1738281,0.2584534,-0.0009765625,0.0009765625,0,1,6,0
53.012,0.001005,-0.109375,0.02929688,-0.04882812,-0.4140625,6.234375,16.42969,-0.08007812,0.04101562,-0.0625,-0.02539062,0.04296875,0,0.004150391,-0.007202148,-0.007568359,0,0,-0.007568359,0.2158508,4.067,0,0,0,0.1400146,nan,4,3.141,1,0,0.2244568,0.2022095,0.2047424,0.2319946,-0.0009765625,0.0009765625,0,1,6,0
53.022,0.001005,0.009765625,0.0078125,0.0234375,0.8515625,-0.484375,12.88281,0.02148438,-0.01367188,-0.015625,-0.02539062,0.04296875,0,0.004150391,-0.007080078,-0.008056641,0,0,-0.008056641,0.2175293,4.067,0,0,0,0.1400146,nan,4,3.151,1,0,0.2762451,0.1735535,0.2748718,0.1454773,-0.0009765625,0.0009765625,0,1,6,0
53.032,0.001005,0.05078125,0.001953125,-0.005859375,0.359375,-11.84375,7.546875,0.01367188,0.015625,-0.00390625,-0.02539062,0.04296875,0,0.004150391,-0.007202148,-0.008056641,0,0,-0.008056641,0.2192078,4.067,0,0,0,0.1400146,nan,4,3.161,1,0,0.2094727,0.2255859,0.2220154,0.2197876,-0.0009765625,0.0009765625,0,1,6,0
53.042,0.001005,0.00390625,-0.04882812,0.02734375,-1.53125,0.75,12.75,0,-0.0234375,0.01171875,-0.0234375,0.04296875,0,0.00402832,-0.007324219,-0.00793457,0,0,-0.00793457,0.2208862,4.067,0,0,0,0.1400146,nan,4,3.171,1,0,0.2424011,0.2164001,0.2342529,0.1905518,-0.0009765625,0.0009765625,0,1,6,0
53.052,0.001004,0.04296875,0.01367188,-0.001953125,0.8515625,-4.078125,4.257812,0.02734375,-0.0078125,0.02539062,-0.0234375,0.04492188,0,0.00390625,-0.007446289,-0.00769043,0,0,-0.00769043,0.2225952,4.067,0,0,0,0.1400146,nan,4,3.181,1,0,0.2292175,0.223175,0.2429199,0.1950378,-0.0009765625,0.0009765625,0,1,6,0
53.062,0.001002,0.01171875,0.03710938,-0.15625,-2.046875,6.265625,12.72656,0.03515625,0.0078125,-0.1054688,-0.02539062,0.04492188,0,0.004272461,-0.007324219,-0.008300781,0,0,-0.008300781,0.2242737,4.067,0,0,0,0.1400146,nan,4,3.192,1,0,0.0803833,0.3712769,0.09002686,0.3554077,-0.0009765625,0.0009765625,0,1,6,0
53.072,0.000998,0.015625,-0.0234375,-0.03320312,2.101562,2.226562,7.648438,0.02734375,0.01367188,-0.08398438,-0.02734375,0.04296875,0,0.004638672,-0.007202148,-0.009399414,0,0,-0.009399414,0.2259521,4.067,0,0,0,0.1400146,nan,4,3.202,1,0,0.2404175,0.21875,0.240509,0.2041321,-0.0009765625,0.0009765625,0,1,6,0
53.082,0.001005,0.009765625,-0.05664062,0.078125,0.671875,-2.09375,13.41406,0.05859375,-0.02734375,0.04101562,-0.03125,0.04296875,0,0.005126953,-0.007080078,-0.009521484,0,0,-0.009521484,0.2276306,4.067,0,0,0,0.1400146,nan,4,3.212,1,0,0.3543701,0.1241455,0.3424683,0.08953857,-0.0009765625,0.0009765625,0,1,6,0
53.092,0.001005,-0.005859375,-0.01171875,0.1289062,1.984375,-3.085938,11.46875,0.01367188,0.005859375,0.09960938,-0.03320312,0.04296875,0,0.005493164,-0.007080078,-0.008789062,0,0,-0.008789062,0.2293091,4.067,0,0,0,0.1400146,nan,4,3.222,1,0,0.3262329,0.1394653,0.3191833,0.1324158,-0.0009765625,0.0009765625,0,1,6,0
53.101,0.001015,-0.02148438,0.08398438,0.05078125,0.9375,-2.929688,9.328125,0.01757812,0.009765625,0.07617188,-0.03320312,0.04296875,0,0.005615234,-0.007202148,-0.00793457,0,0,-0.00793457,0.230835,4.067,0,0,0,0.1400146,nan,4,3.231,1,0,0.2298584,0.2302856,0.2402954,0.2229004,-0.0009765625,0.0009765625,0,1,6,0
53.112,0.001,0.04882812,0.001953125,0.1308594,-2.257812,3.78125,9.585938,0.01367188,0.02734375,0.09179688,-0.03320312,0.04296875,0,0.005615234,-0.007202148,-0.007202148,0,0,-0.0078125,0,4.067,0,0,0,0.1400146,nan,4,3.242,0,0,0,0,0,0,0,0,0,1,6,1
53.121,0.001011,-0.03710938,-0.03125,0.2421875,-1.976562,-4.804688,8.546875,0,-0.005859375,0.1855469,-0.03320312,0.04296875,0,0.005615234,-0.007080078,-0.005859375,0,0,-0.0078125,0,4.067,0,0,0,0.1400146,nan,4,3.251,0,0,0,0,0,0,0,0,0,1,6,1
53.132,0.001011,0.01953125,-0.0078125,0.2070312,-1.8125,6.375,9.164062,0.01367188,0,0.2089844,-0.03320312,0.04296875,0,0.005493164,-0.007202148,-0.00378418,0,0,-0.0078125,0,4.067,0,0,0,0.1400146,nan,4,3.261,0,0,0,0,0,0,0,0,0,1,6,0
53.142,0.001002,-0.02539062,0.0234375,0.203125,1.328125,4.15625,8.960938,-0.01953125,0.04492188,0.2070312,-0.03320312,0.04296875,0,0.005371094,-0.006958008,-0.001708984,0,0,-0.0078125,0,4.067,0,0,0,0.1400146,nan,4,3.271,0,0,0,0,0,0,0,0,0,1,6,1
53.152,0.001011,0.02929688,0.01367188,0.1210938,1.210938,-5.421875,5.898438,0.02734375,0.009765625,0.1621094,-0.03320312,0.04296875,0,0.005371094,-0.006835938,0.0002441406,0,0,-0.0078125,0,4.067,0,0,0,0.1400146,nan,4,3.281,0,0,0,0,0,0,0,0,0,1,6,0
53.162,0.000998,0,-0.01367188,-0.04296875,2.703125,5.132812,13.55469,-0.005859375,-0.015625,0.0234375,-0.03320312,0.04296875,0,0.005371094,-0.006713867,0.001098633,0,0,-0.0078125,0,4.067,0,0,0,0.1400146,nan,4,3.292,0,0,0,0,0,0,0,0,0,1,6,0
53.172,0.001009,0.07226562,0.046875,-0.1191406,-0.7421875,2.179688,18.59375,-0.001953125,0.01953125,-0.1015625,-0.03320312,0.04296875,0,0.005126953,-0.006713867,0.0006103516,0,0,-0.0078125,0,4.067,0,0,0,0.1400146,nan,4,3.302,0,0,0,0,0,0,0,0,0,1,6,0
53.182,0.001007,-0.015625,-0.0390625,-0.05273438,1.601562,-0.9609375,14.85938,-0.00390625,0.001953125,-0.08398438,-0.03320312,0.04296875,0,0.005004883,-0.006469727,-0.0003662109,0,0,-0.0078125,0,4.067,0,0,0,0.1400146,nan,4,3.312,0,0,0,0,0,0,0,0,0,1,6,0
53.192,0.001002,-0.02539062,-0.009765625,-0.015625,0.7265625,-4.8125,3.851562,-0.02734375,0.009765625,-0.03125,-0.03320312,0.04296875,0,0.004760742,-0.006469727,-0.0009765625,0,0,-0.0078125,0,4.067,0,0,0,0.1400146,nan,4,3.322,0,0,0,0,0,0,0,0,0,1,6,0
53.202,0.001011,-0.01757812,-0.0234375,0.02929688,-1.6875,3.101562,11.41406,-0.005859375,-0.0078125,0.015625,-0.03320312,0.04296875,0,0.004638672,-0.006347656,-0.0009765625,0,0,-0.0078125,0,4.067,0,0,0,0.1400146,nan,4,3.332,0,0,0,0,0,0,0,0,0,1,6,0
53.212,0.001011,-0.02148438,0.02148438,0.04296875,2.625,-2.257812,6.59375,-0.005859375,0.00390625,0.03710938,-0.03320312,0.04296875,0,0.004516602,-0.006225586,-0.0007324219,0,0,-0.0078125,0,4.067,0,0,0,0.1400146,nan,4,3.342,0,0,0,0,0,0,0,0,0,1,6,0
53.221,0.001018,0.015625,-0.02539062,0.0234375,-0.75,5.617188,8.703125,0.015625,-0.01757812,0.03320312,-0.03320312,0.04296875,0,0.004638672,-0.006347656,-0.0004882812,0,0,-0.0078125,0,4.067,0,0,0,0.1400146,nan,4,3.351,0,0,0,0,0,0,0,0,0,1,6,1
53.232,0.001009,0.03710938,0.001953125,0.01757812,1.164062,4.351562,9.5,0.009765625,0.001953125,0.02148438,-0.03320312,0.04296875,0,0.004638672,-0.006469727,-0.0001220703,0,0,-0.0078125,0,4.067,0,0,0,0.1400146,nan,4,3.361,0,0,0,0,0,0,0,0,0,1,6,1
53.242,0.001009,-0.005859375,0.01953125,0.005859375,0.3515625,2.328125,11.67188,-0.00390625,0.01367188,0.009765625,-0.03320312,0.04296875,0,0.004638672,-0.006347656,0,0,0,-0.0078125,0,4.067,0,0,0,0.1400146,nan,4,3.371,0,0,0,0,0,0,0,0,0,1,6,0
53.252,0.001009,-0.01953125,0.02734375,-0.02148438,-0.2265625,-3.046875,7.828125,-0.009765625,0.009765625,-0.009765625,-0.03320312,0.04296875,0,0.004760742,-0.006347656,0,0,0,-0.0078125,0,4.067,0,0,0,0.1400146,nan,4,3.381,0,0,0,0,0,0,0,0,0,1,6,0
53.262,0.001038,-0.02929688,0.0078125,-0.03320312,0.265625,1.195312,10.44531,-0.01171875,-0.001953125,-0.03125,-0.03320312,0.04296875,0,0.004760742,-0.006347656,-0.0002441406,0,0,-0.0078125,0,4.067,0,0,0,0.1400146,nan,4,3.392,0,0,0,0,0,0,0,0,0,1,6,1
53.272,0.001012,0.0546875,0.0234375,-0.0078125,-0.984375,-0.09375,7.648438,0.01367188,-0.00390625,-0.015625,-0.03320312,0.04296875,0,0.004638672,-0.006469727,-0.0004882812,0,0,-0.0078125,0,4.067,0,0,0,0.1400146,nan,4,3.402,0,0,0,0,0,0,0,0,0,1,6,0
53.282,0.001013,-0.03320312,0.02734375,-0.05664062,-0.7890625,0.1171875,9.921875,-0.01367188,0.01171875,-0.03710938,-0.03320312,0.04296875,0,0.004760742,-0.006347656,-0.0006103516,0,0,-0.0078125,0,4.067,0,0,0,0.1400146,nan,4,3.412,0,0,0,0,0,0,0,0,0,1,6,1
53.292,0.00102,0.001953125,0.03515625,-0.09570312,0.8515625,-0.296875,9.40625,0.00390625,0.001953125,-0.09765625,-0.03320312,0.04296875,0,0.004760742,-0.006347656,-0.001464844,0,0,-0.0078125,0,4.067,0,0,0,0.1400146,nan,4,3.422,0,0,0,0,0,0,0,0,0,1,6,1
53.302,0.001011,-0.01953125,0.04492188,-0.02734375,0.265625,-0.5546875,8.703125,-0.005859375,0.005859375,-0.05273438,-0.03320312,0.04296875,0,0.004882812,-0.006347656,-0.002197266,0,0,-0.0078125,0,4.067,0,0,0,0.1400146,nan,4,3.432,0,0,0,0,0,0,0,0,0,1,6,0
53.312,0.001011,0.046875,0.0234375,-0.02539062,-0.7890625,2.335938,9.898438,0.01367188,0.001953125,-0.015625,-0.03320312,0.04296875,0,0.005004883,-0.006347656,-0.002563477,0,0,-0.0078125,0,4.067,0,0,0,0.1400146,nan,4,3.442,0,0,0,0,0,0,0,0,0,1,6,1
53.321,0.001009,-0.05273438,0.01953125,-0.05859375,0.1875,2.070312,7.78125,-0.001953125,0.00390625,-0.04296875,-0.03320312,0.04296875,0,0.005126953,-0.006469727,-0.002685547,0,0,-0.0078125,0,4.067,0,0,0,0.1400146,nan,4,3.451,0,0,0,0,0,0,0,0,0,1,6,0
53.332,0.001018,-0.02734375,0.02539062,-0.04296875,0.3671875,-2.101562,13.48438,-0.001953125,-0.0078125,-0.05078125,-0.03320312,0.04296875,0,0.005004883,-0.006469727,-0.003173828,0,0,-0.0078125,0,4.067,0,0,0,0.1400146,nan,4,3.461,0,0,0,0,0,0,0,0,0,1,6,0
53.342,0.001009,-0.005859375,0.03710938,-0.04296875,-0.4609375,0.09375,11.51562,-0.009765625,0.01757812,-0.046875,-0.03320312,0.04296875,0,0.005004883,-0.006469727,-0.00378418,0,0,-0.0078125,0,4.067,0,0,0,0.1400146,nan,4,3.471,0,0,0,0,0,0,0,0,0,1,6,0
53.353,0.002293,-0.01953125,0.009765625,-0.015625,0.171875,-1.132812,6.609375,-0.009765625,0.001953125,-0.0234375,-0.03320312,0.04296875,0,0.005004883,-0.006469727,-0.004150391,0,0,-0.0078125,0,4.067,0,0,0,0.1400146,nan,4,3.483,0,0,0,0,0,0,0,0,0,1,6,0
53.362,0.001009,0.02539062,0,0,0.921875,1.789062,11.02344,0.00390625,-0.00390625,-0.00390625,-0.03320312,0.04296875,0,0.005004883,-0.006469727,-0.004272461,0,0,-0.0078125,0,4.067,0,0,0,0.1400146,nan,4,3.492,0,0,0,0,0,0,0,0,0,1,6,0
53.372,0.001009,0.02929688,0.005859375,-0.03320312,0.21875,4.210938,12.73438,0.00390625,0,-0.01171875,-0.03320312,0.04296875,0,0.004882812,-0.006347656,-0.004272461,0,0,-0.0078125,0,4.067,0,0,0,0.1400146,nan,4,3.502,0,0,0,0,0,0,0,0,0,1,6,0
53.382,0.001008,-0.03125,0.015625,-0.03710938,-1.265625,0.25,13.17969,0.001953125,0.005859375,-0.02539062,-0.03320312,0.04296875,0,0.004882812,-0.006225586,-0.004516602,0,0,-0.0078125,0,4.067,0,0,0,0.1400146,nan,4,3.512,0,0,0,0,0,0,0,0,0,1,6,0
53.392,0.001008,-0.02148438,-0.0078125,0.03710938,0.7421875,-5.734375,12.39062,-0.01171875,0,0,-0.03320312,0.04296875,0,0.004882812,-0.006347656,-0.004638672,0,0,-0.0078125,0,4.067,0,0,0,0.1400146,nan,4,3.522,0,0,0,0,0,0,0,0,0,1,6,0
53.401,0.001012,0,0,0.03320312,0.2734375,-2.703125,12.09375,0,-0.0078125,0.01953125,-0.03320312,0.04296875,0,0.004882812,-0.006347656,-0.004516602,0,0,-0.0078125,0,4.067,0,0,0,0.1400146,nan,4,3.531,0,0,0,0,0,0,0,0,0,1,6,0
53.412,0.001012,0.015625,-0.0234375,0.0078125,-1.914062,-0.1171875,9.8125,0.00390625,-0.00390625,0.01171875,-0.03320312,0.04296875,0,0.004882812,-0.006225586,-0.004394531,0,0,-0.0078125,0,4.067,0,0,0,0.1400146,nan,4,3.541,0,0,0,0,0,0,0,0,0,1,6,1
53.422,0.001,0.015625,-0.00390625,-0.01367188,3.742188,4.484375,8.75,-0.00390625,0,0.001953125,-0.03320312,0.04296875,0,0.004882812,-0.006347656,-0.004272461,0,0,-0.0078125,0,4.067,0,0,0,0.1400146,nan,4,3.551,0,0,0,0,0,0,0,0,0,1,6,1
53.432,0.001002,0.03320312,0.0078125,-0.01171875,1.640625,1.414062,10.59375,0.001953125,0.01367188,-0.0078125,-0.03320312,0.04296875,0,0.004882812,-0.006347656,-0.004394531,0,0,-0.0078125,0,4.067,0,0,0,0.1400146,nan,4,3.561,0,0,0,0,0,0,0,0,0,1,6,0
53.442,0.000966,-0.01367188,-0.009765625,0.0078125,-0.328125,-5.023438,10.96875,0.005859375,-0.00390625,-0.001953125,-0.03320312,0.04296875,0,0.004882812,-0.006225586,-0.004394531,0,0,-0.0078125,0,4.067,0,0,0,0,nan,4,0.008,0,0,0,0,0,0,0,0,0,1,6,0
53.452,0.001026,-0.01367188,-0.03515625,0.02148438,2.335938,-1.515625,10.11719,0.001953125,-0.015625,0.01171875,-0.03320312,0.04296875,0,0.005004883,-0.006347656,-0.004272461,0,0,-0.0078125,0,4.067,0,0,0,0,nan,4,0.018,0,0,0,0,0,0,0,0,0,1,6,1
53.462,0.001034,0.009765625,0.03710938,0,-0.9765625,1.460938,10.64062,0,0.001953125,0.01171875,-0.03320312,0.04296875,0,0.005004883,-0.006469727,-0.004150391,0,0,-0.0078125,0,4.067,0,0,0,0,nan,4,0.028,0,0,0,0,0,0,0,0,0,1,6,0
53.472,0.001026,0.04296875,-0.04296875,-0.02539062,3.398438,2.828125,8.789062,0.001953125,-0.00390625,-0.01367188,-0.03320312,0.04296875,0,0.005004883,-0.006469727,-0.004150391,0,0,-0.0078125,0,4.067,0,0,0,0,nan,4,0.003,0,0,0,0,0,0,0,0,0,1,6,1
53.482,0.001036,-0.08398438,-0.01757812,0.01171875,-0.046875,-4.3125,10.27344,-0.009765625,-0.005859375,-0.01171875,-0.03320312,0.04296875,0,0.005004883,-0.006469727,-0.004394531,0,0,-0.0078125,0,4.067,0,0,0,0,nan,4,0.013,0,0,0,0,0,0,0,0,0,1,6,0
53.492,0.001003,0.015625,0.04882812,0.0078125,-1.703125,0.3671875,9.765625,-0.00390625,0.0078125,0.01171875,nan,nan,nan,0.005004883,-0.006469727,-0.004272461,nan,nan,nan,0,4.067,0,0,0,0,nan,2,0.022,0,0,0,0,0,0,0,0,0,1,6,1
53.502,0.001013,0.05664062,-0.05078125,0,1.9375,1.515625,9.5,0.01757812,-0.01757812,0.00390625,nan,nan,nan,0.005126953,-0.006469727,-0.004150391,0,0,-0.004150391,0,4.067,0,0,0,0,nan,2,0.032,0,0,0,0,0,0,0,0,0,1,2,1
53.512,0.001013,-0.03125,0.02929688,-0.01367188,-0.8046875,-0.625,9.703125,0.0078125,0.005859375,-0.01757812,nan,nan,nan,0.005126953,-0.006469727,-0.004272461,0,0,-0.004272461,0,4.067,0,0,0,0,nan,2,0.042,0,0,0,0,0,0,0,0,0,1,2,1
53.522,0.001009,-0.06640625,-0.01171875,0.04296875,0.2890625,-1.65625,9.773438,-0.01953125,-0.005859375,0.0078125,nan,nan,nan,0.005126953,-0.006469727,-0.004394531,0,0,-0.004394531,0,4.067,0,0,0,0,nan,2,0.053,0,0,0,0,0,0,0,0,0,1,2,1
53.532,0.001008,0.03125,0.001953125,0.0234375,-0.375,-0.0859375,9.140625,0,-0.001953125,0.01757812,nan,nan,nan,0.005004883,-0.006591797,-0.004272461,0,0,-0.004272461,0,4.077,0,0,0,0,nan,2,0.063,0,0,0,0,0,0,0,0,0,1,2,1
53.542,0.001012,0.02539062,-0.04492188,-0.0234375,1.242188,0.1796875,8.695312,0.001953125,0,-0.00390625,nan,nan,nan,0.005004883,-0.006591797,-0.004272461,0,0,-0.004272461,0,4.077,0,0,0,0,nan,2,0.073,0,0,0,0,0,0,0,0,0,1,2,0
53.552,0.001027,0.015625,-0.046875,-0.0078125,1.007812,-0.21875,8.742188,-0.0078125,-0.001953125,-0.00390625,nan,nan,nan,0.005004883,-0.006591797,-0.004272461,0,0,-0.004272461,0,4.077,0,0,0,0,nan,2,0.083,0,0,0,0,0,0,0,0,0,1,2,0
53.562,0.001042,0.05859375,-0.02734375,0.01953125,0.21875,-0.1171875,10,-0.001953125,0,0.0078125,nan,nan,nan,0.005004883,-0.006591797,-0.004272461,0,0,-0.004272461,0,4.077,0,0,0,0,nan,2,0.093,0,0,0,0,0,0,0,0,0,1,2,1
53.572,0.001032,-0.03320312,0.001953125,0.02734375,-0.1484375,-0.5625,10.64844,-0.009765625,0.001953125,0,nan,nan,nan,0.005004883,-0.006591797,-0.004272461,0,0,-0.004272461,0,4.077,0,0,0,0,nan,2,0.103,0,0,0,0,0,0,0,0,0,1,2,1
53.582,0.001011,-0.03515625,0.03320312,-0.01757812,0.015625,0.1015625,10.33594,-0.001953125,0,-0.01171875,nan,nan,nan,0.004882812,-0.006591797,-0.004272461,0,0,-0.004272461,0,4.077,0,0,0,0,nan,2,0.113,0,0,0,0,0,0,0,0,0,1,2,1
53.591,0.001019,0.0390625,-0.03710938,0.00390625,0.2421875,-0.1015625,8.390625,0.00390625,-0.005859375,0.005859375,nan,nan,nan,0.004882812,-0.006591797,-0.004272461,0,0,-0.004272461,0,4.077,0,0,0,0,nan,2,0.122,0,0,0,0,0,0,0,0,0,1,2,0
53.601,0.001002,-0.0078125,0.02148438,0,0.1875,0.1171875,10.3125,-0.001953125,0.00390625,0.001953125,nan,nan,nan,0.004882812,-0.006591797,-0.004272461,0,0,-0.004272461,0,4.077,0,0,0,0,nan,2,0.132,0,0,0,0,0,0,0,0,0,1,2,1
53.612,0.001006,0.0078125,-0.02929688,0.005859375,-0.1015625,-0.03125,9.664062,0,-0.0078125,-0.001953125,nan,nan,nan,0.004882812,-0.006591797,-0.004272461,0,0,-0.004272461,0,4.077,0,0,0,0,nan,2,0.142,0,0,0,0,0,0,0,0,0,1,2,1
53.622,0.001024,-0.009765625,-0.02148438,-0.02929688,-0.046875,-0.03125,9.164062,0.001953125,-0.005859375,-0.001953125,nan,nan,nan,0.004882812,-0.006591797,-0.004272461,0,0,-0.004272461,0,4.077,0,0,0,0,nan,2,0.153,0,0,0,0,0,0,0,0,0,1,2,1
53.632,0.001032,0.001953125,0,0.001953125,0.3515625,0.3671875,10.35938,-0.001953125,0.005859375,-0.0078125,nan,nan,nan,0.004882812,-0.006591797,-0.004272461,0,0,-0.004272461,0,4.077,0,0,0,0,nan,2,0.163,0,0,0,0,0,0,0,0,0,1,2,1
53.642,0.001028,0,-0.015625,0.00390625,-0.34375,0.0546875,9.851562,-0.001953125,0,0.00390625,nan,nan,nan,0.004760742,-0.006591797,-0.004272461,0,0,-0.004272461,0,4.077,0,0,0,0,nan,2,0.173,0,0,0,0,0,0,0,0,0,1,2,1
53.652,0.001008,0.00390625,-0.00390625,0.001953125,-0.1640625,0.1640625,9.46875,-0.00390625,0,-0.001953125,nan,nan,nan,0.004760742,-0.006469727,-0.004272461,0,0,-0.004272461,0,4.077,0,0,0,0,nan,2,0.183,0,0,0,0,0,0,0,0,0,1,2,1
53.662,0.001012,0.00390625,0.001953125,0.01757812,-0.0390625,-0.1640625,10.39844,-0.001953125,0.00390625,0.00390625,nan,nan,nan,0.004760742,-0.006469727,-0.004272461,0,0,-0.004272461,0,4.077,0,0,0,0,nan,2,0.193,0,0,0,0,0,0,0,0,0,1,2,1
53.671,0.001018,-0.0078125,0.01171875,0.009765625,-0.4453125,-0.1171875,9.890625,0,0.00390625,0.005859375,nan,nan,nan,0.004760742,-0.006469727,-0.004394531,0,0,-0.004394531,0,4.077,0,0,0,0,nan,2,0.202,0,0,0,0,0,0,0,0,0,1,2,1
53.682,0.001027,-0.01367188,-0.001953125,0.001953125,-0.296875,0.1015625,9.789062,-0.00390625,0,-0.001953125,nan,nan,nan,0.004760742,-0.006469727,-0.004394531,0,0,-0.004394531,0,4.077,0,0,0,0,nan,2,0.213,0,0,0,0,0,0,0,0,0,1,2,1
53.692,0.001036,-0.01367188,-0.001953125,-0.005859375,-0.109375,0.1640625,9.78125,-0.001953125,-0.001953125,-0.00390625,nan,nan,nan,0.004760742,-0.006469727,-0.004394531,0,0,-0.004394531,0,4.077,0,0,0,0,nan,2,0.222,0,0,0,0,0,0,0,0,0,1,2,1
53.702,0.000988,-0.0078125,0.001953125,0.001953125,-0.0625,0.15625,9.726562,0.00390625,0,0.001953125,nan,nan,nan,0.004760742,-0.006469727,-0.004394531,0,0,-0.004394531,0,4.077,0,0,0,0,nan,2,0.232,0,0,0,0,0,0,0,0,0,1,2,1
53.712,0.001039,0.005859375,-0.00390625,0.009765625,-0.15625,-0.3359375,9.820312,0.001953125,-0.001953125,0.00390625,nan,nan,nan,0.004760742,-0.006469727,-0.004394531,0,0,-0.004394531,0,4.077,0,0,0,0,nan,2,0.242,0,0,0,0,0,0,0,0,0,1,2,1
53.722,0.001006,0.00390625,-0.0078125,0,0.0703125,-0.2734375,9.929688,0.001953125,0,-0.001953125,nan,nan,nan,0.004638672,-0.006469727,-0.004394531,0,0,-0.004394531,0,4.077,0,0,0,0,nan,2,0.252,0,0,0,0,0,0,0,0,0,1,2,1
53.732,0.001006,0,0.00390625,-0.01171875,0.1484375,0.015625,9.84375,-0.001953125,0.001953125,0,nan,nan,nan,0.004638672,-0.006469727,-0.004394531,0,0,-0.004394531,0,4.077,0,0,0,0,nan,2,0.263,0,0,0,0,0,0,0,0,0,1,2,1
53.742,0.001011,-0.0078125,-0.001953125,0.001953125,-0.0859375,0.1640625,9.695312,-0.001953125,-0.001953125,-0.001953125,nan,nan,nan,0.004638672,-0.006469727,-0.004394531,0,0,-0.004394531,0,4.077,0,0,0,0,nan,2,0.273,0,0,0,0,0,0,0,0,0,1,2,1
53.752,0.001024,-0.001953125,0.001953125,-0.001953125,0,-0.28125,9.796875,0.001953125,0.001953125,0,nan,nan,nan,0.004638672,-0.006347656,-0.004394531,0,0,-0.004394531,0,4.077,0,0,0,0,nan,2,0.283,0,0,0,0,0,0,0,0,0,1,2,1
53.762,0.001007,0.001953125,-0.001953125,0.001953125,0.109375,0.2578125,9.914062,-0.001953125,0,-0.001953125,nan,nan,nan,0.004638672,-0.006347656,-0.004394531,0,0,-0.004394531,0,4.077,0,0,0,0,nan,2,0.293,0,0,0,0,0,0,0,0,0,1,2,1
53.772,0.001011,0,-0.001953125,0.0078125,0.015625,-0.0234375,9.796875,0.001953125,-0.001953125,0.005859375,nan,nan,nan,0.004638672,-0.006347656,-0.004394531,0,0,-0.004394531,0,4.077,0,0,0,0,nan,2,0.303,0,0,0,0,0,0,0,0,0,1,2,1
53.782,0.001012,0,0,-0.01171875,0.0546875,0.1015625,9.648438,0,0,-0.001953125,nan,nan,nan,0.004638672,-0.006347656,-0.004272461,0,0,-0.004272461,0,4.077,0,0,0,0,nan,2,0.313,0,0,0,0,0,0,0,0,0,1,2,1
53.791,0.001008,-0.005859375,0.00390625,-0.009765625,-0.03125,0,9.789062,-0.001953125,0,-0.0078125,nan,nan,nan,0.004516602,-0.006347656,-0.004394531,0,0,-0.004394531,0,4.077,0,0,0,0,nan,2,0.322,0,0,0,0,0,0,0,0,0,1,2,1
53.801,0.001008,-0.005859375,0.00390625,0.01171875,0.1171875,0.0390625,9.921875,0,0.00390625,0.00390625,nan,nan,nan,0.004516602,-0.006347656,-0.004394531,0,0,-0.004394531,0,4.077,0,0,0,0,nan,2,0.332,0,0,0,0,0,0,0,0,0,1,2,1
53.812,0.001009,-0.00390625,-0.001953125,-0.005859375,0,0.078125,9.710938,-0.001953125,0,-0.001953125,nan,nan,nan,0.004516602,-0.006347656,-0.004394531,0,0,-0.004394531,0,4.077,0,0,0,0,nan,2,0.342,0,0,0,0,0,0,0,0,0,1,2,1
53.822,0.001012,0.001953125,-0.001953125,0.00390625,0.0703125,0.0390625,9.773438,0,0,-0.00390625,nan,nan,nan,0.004516602,-0.006347656,-0.004394531,0,0,-0.004394531,0,4.077,0,0,0,0,nan,2,0.352,0,0,0,0,0,0,0,0,0,1,2,1
53.832,0.0009860001,-0.001953125,0,0.0078125,0.0078125,-0.0390625,9.820312,0,0,0.005859375,nan,nan,nan,0.004516602,-0.006225586,-0.004394531,0,0,-0.004394531,0,4.077,0,0,0,0,nan,2,0.363,0,0,0,0,0,0,0,0,0,1,2,1
53.842,0.001013,-0.001953125,0,-0.009765625,0.0625,0.0546875,9.765625,0,0,-0.00390625,nan,nan,nan,0.004516602,-0.006225586,-0.004394531,0,0,-0.004394531,0,4.077,0,0,0,0,nan,2,0.373,0,0,0,0,0,0,0,0,0,1,2,1
53.852,0.001005,0,0,-0.001953125,0.0625,0.046875,9.8125,0,-0.001953125,0,nan,nan,nan,0.004516602,-0.006225586,-0.004394531,0,0,-0.004394531,0,4.077,0,0,0,0,nan,2,0.383,0,0,0,0,0,0,0,0,0,1,2,1
53.862,0.001005,0,-0.001953125,0,0.015625,0.046875,9.835938,-0.001953125,-0.001953125,0,nan,nan,nan,0.004394531,-0.006225586,-0.004394531,0,0,-0.004394531,0,4.077,0,0,0,0,nan,2,0.393,0,0,0,0,0,0,0,0,0,1,2,1
53.872,0.001009,-0.001953125,-0.001953125,0,0.0234375,-0.046875,9.789062,0,-0.001953125,-0.001953125,nan,nan,nan,0.004394531,-0.006225586,-0.004394531,0,0,-0.004394531,0,4.077,0,0,0,0,nan,2,0.403,0,0,0,0,0,0,0,0,0,1,2,1
53.882,0.001009,-0.001953125,0.00390625,0.001953125,0.03125,0.0078125,9.734375,0,0.001953125,0.001953125,nan,nan,nan,0.004394531,-0.006225586,-0.004394531,0,0,-0.004394531,0,4.077,0,0,0,0,nan,2,0.413,0,0,0,0,0,0,0,0,0,1,2,1
53.891,0.001011,-0.001953125,0.00390625,-0.001953125,0.03125,0,9.796875,-0.001953125,0,0,nan,nan,nan,0.004394531,-0.006225586,-0.004394531,0,0,-0.004394531,0,4.077,0,0,0,0,nan,2,0.422,0,0,0,0,0,0,0,0,0,1,2,1
53.901,0.001012,-0.001953125,-0.001953125,-0.00390625,0.0546875,0.046875,9.804688,-0.00390625,0,-0.001953125,nan,nan,nan,0.004394531,-0.006225586,-0.004394531,0,0,-0.004394531,0,4.077,0,0,0,0,nan,2,0.432,0,0,0,0,0,0,0,0,0,1,2,1
53.912,0.001011,-0.005859375,0,0.001953125,0.078125,0.015625,9.875,-0.001953125,0,0,nan,nan,nan,0.004272461,-0.006225586,-0.004394531,0,0,-0.004394531,0,4.077,0,0,0,0,nan,2,0.442,0,0,0,0,0,0,0,0,0,1,2,1
53.922,0.001012,0,-0.001953125,0,0.015625,0.0234375,9.796875,0,0,-0.001953125,nan,nan,nan,0.004272461,-0.006225586,-0.004394531,0,0,-0.004394531,0,4.077,0,0,0,0,nan,2,0.452,0,0,0,0,0,0,0,0,0,1,2,1
53.932,0.001011,0.001953125,0,0,0.078125,0,9.84375,0,0,-0.001953125,nan,nan,nan,0.004272461,-0.006103516,-0.004394531,0,0,-0.004394531,0,4.077,0,0,0,0,nan,2,0.463,0,0,0,0,0,0,0,0,0,1,2,1
53.942,0.00101,0,0.001953125,0,0.0390625,-0.0078125,9.820312,0,0,0,nan,nan,nan,0.004272461,-0.006103516,-0.004394531,0,0,-0.004394531,0,4.077,0,0,0,0,nan,2,0.473,0,0,0,0,0,0,0,0,0,1,2,1
53.952,0.000997,0.001953125,-0.001953125,0.001953125,0.015625,0.015625,9.765625,0,0,0.001953125,nan,nan,nan,0.004272461,-0.006103516,-0.004394531,0,0,-0.004394531,0,4.077,0,0,0,0,nan,2,0.483,0,0,0,0,0,0,0,0,0,1,2,1
53.962,0.001035,0,0.001953125,-0.001953125,0.0625,0,9.84375,0,0.001953125,0,nan,nan,nan,0.004272461,-0.006103516,-0.004394531,0,0,-0.004394531,0,4.077,0,0,0,0,nan,2,0.493,0,0,0,0,0,0,0,0,0,1,2,1
53.972,0.000968,-0.001953125,-0.001953125,0,0.0390625,0.0390625,9.867188,-0.001953125,0,0,nan,nan,nan,0.004272461,-0.006103516,-0.004394531,0,0,-0.004394531,0,4.077,0,0,0,0,nan,2,0.503,0,0,0,0,0,0,0,0,0,1,2,1
53.982,0.001016,0.001953125,-0.001953125,0,0.03125,0,9.804688,0,0,0,nan,nan,nan,0.004150391,-0.006103516,-0.004394531,0,0,-0.004394531,0,4.077,0,0,0,0,nan,2,0.513,0,0,0,0,0,0,0,0,0,1,2,1
53.992,0.001009,-0.001953125,-0.00390625,-0.00390625,0.0625,0.0390625,9.851562,0,0,0,nan,nan,nan,0.004150391,-0.006103516,-0.004394531,0,0,-0.004394531,0,4.077,0,0,0,0,nan,2,0.523,0,0,0,0,0,0,0,0,0,1,2,1
54.001,0.001012,0,0.001953125,-0.00390625,0.046875,0,9.835938,0,0,0,nan,nan,nan,0.004150391,-0.006103516,-0.004394531,0,0,-0.004394531,0,4.077,0,0,0,0,nan,2,0.532,0,0,0,0,0,0,0,0,0,1,2,1
54.012,0.001012,-0.001953125,0.001953125,0,0.03125,0.03125,9.804688,0,0.001953125,-0.001953125,nan,nan,nan,0.004150391,-0.005981445,-0.004394531,0,0,-0.004394531,0,4.077,0,0,0,0,nan,2,0.542,0,0,0,0,0,0,0,0,0,1,2,1
54.022,0.001012,0.001953125,-0.00390625,0,0.0546875,0.0390625,9.820312,0,0,0,nan,nan,nan,0.004150391,-0.005981445,-0.004394531,0,0,-0.004394531,0,4.077,0,0,0,0,nan,2,0.552,0,0,0,0,0,0,0,0,0,1,2,1
54.032,0.001008,-0.001953125,-0.001953125,0.00390625,0.0625,0.0546875,9.789062,-0.001953125,0,0.001953125,nan,nan,nan,0.004150391,-0.005981445,-0.004394531,0,0,-0.004394531,0,4.077,0,0,0,0,nan,2,0.563,0,0,0,0,0,0,0,0,0,1,2,1
54.042,0.001013,0,-0.001953125,0,0.0859375,0.0234375,9.859375,-0.001953125,0,0,nan,nan,nan,0.004150391,-0.005981445,-0.004394531,0,0,-0.004394531,0,4.077,0,0,0,0,nan,2,0.573,0,0,0,0,0,0,0,0,0,1,2,1
54.052,0.001006,-0.001953125,-0.001953125,0.001953125,0.078125,0.046875,9.796875,-0.001953125,0,-0.001953125,nan,nan,nan,0.004150391,-0.005981445,-0.004516602,0,0,-0.004516602,0,4.077,0,0,0,0,nan,2,0.583,0,0,0,0,0,0,0,0,0,1,2,1
54.062,0.00101,-0.001953125,-0.00390625,-0.00390625,0.0390625,0.0078125,9.804688,0,-0.001953125,-0.001953125,nan,nan,nan,0.004150391,-0.005981445,-0.004516602,0,0,-0.004516602,0,4.077,0,0,0,0,nan,2,0.593,0,0,0,0,0,0,0,0,0,1,2,1
54.072,0.001011,-0.001953125,0,-0.001953125,0.0546875,0,9.804688,-0.001953125,-0.001953125,0,nan,nan,nan,0.00402832,-0.005981445,-0.004516602,0,0,-0.004516602,0,4.077,0,0,0,0,nan,2,0.603,0,0,0,0,0,0,0,0,0,1,2,1
54.082,0.00098,0,0.001953125,0,0.03125,0.0390625,9.820312,0,0,0,nan,nan,nan,0.00402832,-0.005981445,-0.004516602,0,0,-0.004516602,0,4.077,0,0,0,0,nan,2,0.613,0,0,0,0,0,0,0,0,0,1,2,1
54.091,0.001037,-0.001953125,-0.001953125,0,0.0859375,0.0078125,9.835938,-0.001953125,0.001953125,0,nan,nan,nan,0.00402832,-0.005981445,-0.004516602,0,0,-0.004516602,0,4.077,0,0,0,0,nan,2,0.622,0,0,0,0,0,0,0,0,0,1,2,1
54.102,0.001031,0.001953125,0,0,0.046875,0.0625,9.789062,0.001953125,0,0,nan,nan,nan,0.00402832,-0.005981445,-0.004516602,0,0,-0.004516602,0,4.077,0,0,0,0,nan,2,0.632,0,0,0,0,0,0,0,0,0,1,2,1
