t,dt_s,gyro_x,gyro_y,gyro_z,acc_x,acc_y,acc_z,rates.x,rates.y,rates.z,ratesTarget.x,ratesTarget.y,ratesTarget.z,attitude.x,attitude.y,attitude.z,attitudeTarget.x,attitudeTarget.y,attitudeTarget.z,thrustTarget,battery_v,rc_roll,rc_pitch,rc_yaw,rc_throttle,rc_mode,flight_mode,rc_age_s,armed,fault_mask,motor_rl,motor_rr,motor_fr,motor_fl,rate_i_x,rate_i_y,rate_i_z,mix_scale,control_source,accel_correction_confidence
406.421,0.00104,0.0859375,-0.01953125,-0.02734375,-1.84375,3.96875,10.82031,0.01953125,0.001953125,-0.0234375,-0.009765625,0.03125,0,0.001586914,-0.005371094,0.02062988,0,0,-0.01928711,0.3105164,4.025,0,0,0,0.2999878,nan,2,9.47,1,128,0.3361816,0.370636,0.2875366,0.2477417,-0.01074219,0.0390625,0,1,3,0
406.431,0.001014,-0.03710938,-0.046875,-0.015625,-2.101562,1.140625,11.96875,-0.0078125,-0.00390625,-0.02539062,-0.009765625,0.03125,0,0.001708984,-0.005371094,0.02038574,0,0,-0.01928711,0.3105164,4.025,0,0,0,0.2999878,nan,2,9.48,1,128,0.3487854,0.3591919,0.2789612,0.2551575,-0.01074219,0.0390625,0,1,3,0
406.442,0.001024,0.01367188,0.01367188,0.0078125,-2.445312,3.898438,13.71875,0.0078125,0.005859375,-0.005859375,-0.009765625,0.03320312,0,0.001708984,-0.005371094,0.0201416,0,0,-0.01928711,0.3105164,4.025,0,0,0,0.2999878,nan,2,9.49,1,128,0.367157,0.3338928,0.3115845,0.2294617,-0.01074219,0.0390625,0,1,3,0
406.452,0.001014,0.00390625,0.08398438,-0.05664062,-0.7578125,3.992188,12.27344,0.0078125,0.01757812,-0.0234375,-0.009765625,0.03125,0,0.001708984,-0.005371094,0.02001953,0,0,-0.01928711,0.3105164,4.025,0,0,0,0.2999878,nan,2,9.5,1,128,0.3102722,0.383728,0.2655029,0.2825928,-0.01074219,0.0390625,0,1,3,0
406.462,0.000955,0.02734375,-0.01367188,0.005859375,0.4765625,0.359375,13.9375,-0.01757812,-0.01171875,-0.00390625,-0.0078125,0.03125,0,0.001342773,-0.005126953,0.01989746,0,0,-0.01928711,0.3105164,4.025,0,0,0,0.2999878,nan,2,9.51,1,128,0.3622437,0.3522644,0.2948914,0.2327271,-0.01074219,0.0390625,0,1,3,0
406.472,0.001012,0.01757812,-0.05273438,0.03320312,1.914062,2.765625,8.960938,-0.0078125,-0.02929688,-0.00390625,-0.0078125,0.03320312,0,0.001342773,-0.005493164,0.01977539,0,0,-0.01928711,0.3105164,4.025,0,0,0,0.2999878,nan,2,9.52,1,128,0.3487854,0.3587036,0.2848206,0.2498169,-0.01074219,0.0390625,0,1,3,0
406.482,0.001016,-0.02148438,-0.04101562,0.02148438,1.84375,-5.507812,6.867188,-0.015625,-0.0390625,0.01953125,-0.0078125,0.03515625,0,0.001220703,-0.005859375,0.01989746,0,0,-0.01928711,0.3105164,4.025,0,0,0,0.2999878,nan,2,9.53,1,128,0.3696899,0.3387146,0.3000488,0.2336731,-0.01074219,0.0390625,0,1,3,0
406.492,0.001016,-0.015625,0.015625,-0.009765625,1.421875,-1.773438,8.554688,-0.04296875,0,0.001953125,-0.005859375,0.03710938,0,0.001098633,-0.005981445,0.02001953,0,0,-0.01928711,0.3105164,4.025,0,0,0,0.2999878,nan,2,9.54,1,128,0.324646,0.3746948,0.2562561,0.286499,-0.01074219,0.0390625,0,1,3,0
406.502,0.001016,0.02148438,-0.02734375,-0.0078125,-0.515625,-1.414062,6.0625,0.01953125,-0.02539062,-0.005859375,-0.005859375,0.03710938,0,0.001098633,-0.006225586,0.0201416,0,0,-0.01928711,0.3105164,4.025,0,0,0,0.2999878,nan,2,9.551,1,128,0.3198547,0.3883667,0.2661438,0.2677307,-0.01074219,0.0390625,0,1,3,0
406.512,0.001004,0.09570312,-0.03125,-0.046875,-1.476562,-3.234375,10.54688,0.03515625,-0.015625,-0.03515625,-0.0078125,0.0390625,0,0.001220703,-0.006347656,0.01989746,0,0,-0.01928711,0.3105164,4.025,0,0,0,0.2999878,nan,2,9.561,1,128,0.2901306,0.4176331,0.2406921,0.2936707,-0.01074219,0.0390625,0,1,3,0
406.522,0.001012,0.03125,-0.06835938,0.0390625,-1.414062,3.953125,12,0.04492188,-0.01757812,0.00390625,-0.009765625,0.0390625,0,0.001464844,-0.006347656,0.01965332,0,0,-0.01928711,0.3105164,4.025,0,0,0,0.2999878,nan,2,9.571,1,128,0.3792419,0.3337097,0.322876,0.2062378,-0.01074219,0.0390625,0,1,3,0
406.531,0.001008,0.05664062,-0.08398438,0.05078125,-1.398438,-0.2421875,11.53125,0.01367188,-0.01953125,0.03125,-0.009765625,0.0390625,0,0.001464844,-0.006469727,0.01989746,0,0,-0.01928711,0.3105164,4.025,0,0,0,0.2999878,nan,2,9.58,1,128,0.3788452,0.3344421,0.315918,0.2129211,-0.01074219,0.0390625,0,1,3,0
406.541,0.001008,-0.04296875,0.03125,-0.02539062,0.625,2.695312,12.99219,0.0078125,0.01171875,-0.001953125,-0.009765625,0.04101562,0,0.001831055,-0.006835938,0.0201416,0,0,-0.01928711,0.3105164,4.025,0,0,0,0.2999878,nan,2,9.59,1,128,0.29776,0.3917847,0.2469482,0.3056335,-0.01074219,0.04003906,0,1,3,0
406.552,0.001008,-0.009765625,-0.02539062,-0.00390625,1.070312,2.921875,9.46875,-0.04101562,0.0234375,-0.00390625,-0.0078125,0.0390625,0,0.001220703,-0.006469727,0.02001953,0,0,-0.01928711,0.3105164,4.025,0,0,0,0.2999878,nan,2,9.6,1,128,0.3482056,0.35495,0.2858582,0.2530823,-0.01074219,0.04003906,0,1,3,0
406.562,0.000949,0.046875,-0.046875,0.05859375,1.046875,-4.367188,6.390625,0.0234375,-0.02929688,0.0234375,-0.0078125,0.0390625,0,0.001098633,-0.006591797,0.0201416,0,0,-0.01928711,0.3105164,4.025,0,0,0,0.2999878,nan,2,9.61,1,128,0.3762512,0.3400574,0.3173523,0.2084351,-0.01074219,0.04003906,0,1,3,0
406.572,0.001008,0,-0.001953125,0.09765625,1.507812,-0.09375,8,0.01953125,-0.02148438,0.06835938,-0.0078125,0.04101562,0,0.001342773,-0.006835938,0.02062988,0,0,-0.01928711,0.3105164,4.025,0,0,0,0.2999878,nan,2,9.62,1,128,0.4084778,0.2991333,0.3486633,0.1858521,-0.01074219,0.04003906,0,1,3,0
406.582,0.001007,-0.04882812,-0.05078125,0,0.65625,0.7734375,7.859375,-0.001953125,0.001953125,0.02539062,-0.0078125,0.04101562,0,0.001342773,-0.006835938,0.02111816,0,0,-0.01928711,0.3105164,4.025,0,0,0,0.2999878,nan,2,9.63,1,128,0.3083801,0.3980408,0.2391052,0.2966003,-0.01074219,0.04003906,0,1,3,0
406.592,0.001035,0.0390625,-0.02929688,0.0078125,-1.992188,-0.90625,9.914062,0.0703125,-0.03515625,0.015625,-0.009765625,0.04101562,0,0.001708984,-0.006958008,0.0213623,0,0,-0.01928711,0.3105164,4.025,0,0,0,0.2999878,nan,2,9.64,1,128,0.321106,0.3955078,0.2705688,0.2549133,-0.01074219,0.04003906,0,1,3,0
406.602,0.000997,-0.09179688,-0.07421875,-0.0546875,-1.484375,3.898438,13.09375,-0.05273438,-0.01757812,-0.02929688,-0.009765625,0.04296875,0,0.001708984,-0.007080078,0.02124023,0,0,-0.01928711,0.3105164,4.025,0,0,0,0.2999878,nan,2,9.651,1,128,0.2974854,0.4142761,0.2047119,0.3256531,-0.01074219,0.04003906,0,1,3,0
406.612,0.001013,0.1367188,-0.001953125,0.02148438,0,2.65625,10.96875,0.0078125,0.03515625,-0.01367188,-0.0078125,0.04101562,0,0.001342773,-0.006958008,0.02087402,0,0,-0.01928711,0.3105164,4.025,0,0,0,0.2999878,nan,2,9.661,1,128,0.3600769,0.3353271,0.3266907,0.2200012,-0.01074219,0.04003906,0,1,3,0
406.622,0.001008,0.07617188,-0.046875,0.0859375,1.109375,-1.210938,12.65625,0.03710938,-0.0234375,0.05273438,-0.0078125,0.04101562,0,0.001342773,-0.006958008,0.02111816,0,0,-0.01928711,0.3105164,4.024,0,0,0,0.2999878,nan,2,9.671,1,128,0.4180298,0.3010864,0.363739,0.1592407,-0.01074219,0.04003906,0,1,3,0
406.631,0.001011,0.09375,-0.01367188,0.03710938,1.859375,0.1953125,6.65625,0.03710938,-0.009765625,0.06054688,-0.0078125,0.04296875,0,0.001342773,-0.007080078,0.02172852,0,0,-0.01928711,0.3105164,4.024,0,0,0,0.2999878,nan,2,9.68,1,128,0.3440552,0.3614197,0.3008423,0.2358093,-0.01074219,0.04003906,0,1,3,0
406.641,0.001011,0.005859375,-0.01367188,0.02929688,-1.3125,-0.7890625,9.992188,0.03320312,0.00390625,0.046875,-0.0078125,0.04296875,0,0.001342773,-0.007202148,0.02233887,0,0,-0.01928711,0.3105164,4.024,0,0,0,0.2999878,nan,2,9.69,1,128,0.3309326,0.3731689,0.2856445,0.2523499,-0.01074219,0.04003906,0,1,3,0.0952381
406.652,0.001011,0.1308594,-0.0234375,0.009765625,-2.1875,-0.828125,11.90625,0.03125,0.005859375,0.01953125,-0.0078125,0.04296875,0,0.001342773,-0.007080078,0.02258301,0,0,-0.01928711,0.3105164,4.024,0,0,0,0.2999878,nan,2,9.7,1,128,0.3187561,0.388092,0.2742615,0.2609558,-0.01074219,0.04003906,0,1,3,0
406.662,0.001011,-0.1152344,0.06445312,-0.09179688,-0.703125,5.023438,13.50781,-0.06445312,0.03515625,-0.03515625,-0.009765625,0.04296875,0,0.001464844,-0.007080078,0.02258301,0,0,-0.01928711,0.3105164,4.024,0,0,0,0.2999878,nan,2,9.71,1,128,0.2599487,0.4298706,0.1812439,0.3710327,-0.01171875,0.04003906,0,1,3,0
406.672,0.001011,0.03320312,0.009765625,0.01367188,0.5703125,0.390625,7.429688,0.01757812,-0.01171875,0.0078125,-0.0078125,0.04101562,0,0.001220703,-0.006958008,0.02246094,0,0,-0.01928711,0.3105164,4.024,0,0,0,0.2999878,nan,2,9.72,1,128,0.3817444,0.3319092,0.3258972,0.2025452,-0.01171875,0.04003906,0,1,3,0
406.682,0.001014,0.02148438,0.0546875,0.04101562,2.101562,-2.851562,11.89844,0,0.02734375,0.015625,-0.0078125,0.04101562,0,0.001342773,-0.006835938,0.02258301,0,0,-0.01928711,0.3105164,4.024,0,0,0,0.2999878,nan,2,9.73,1,128,0.3572083,0.3378296,0.3065796,0.240509,-0.01171875,0.04003906,0,1,3,0
406.692,0.001016,0.005859375,-0.0546875,0.05078125,1.742188,-0.9765625,6.625,-0.0078125,0.005859375,0.046875,-0.0078125,0.0390625,0,0.001220703,-0.006591797,0.02294922,0,0,-0.01928711,0.3105164,4.024,0,0,0,0.2999878,nan,2,9.74,1,128,0.3822632,0.3311462,0.3121338,0.2165527,-0.01171875,0.04003906,0,1,3,0
406.702,0.001018,0.02929688,-0.07421875,0.001953125,-1.132812,-2.367188,7.507812,-0.0078125,-0.009765625,0.00390625,-0.005859375,0.0390625,0,0.0009765625,-0.006591797,0.02319336,0,0,-0.01928711,0.3105164,4.024,0,0,0,0.2999878,nan,2,9.751,1,128,0.3110352,0.4049988,0.2462463,0.2798157,-0.01074219,0.04003906,0,1,3,0
406.712,0.001006,-0.06835938,0.05078125,-0.01367188,-2.609375,2.078125,12.05469,-0.00390625,0.04101562,-0.015625,-0.0078125,0.03710938,0,0.001098633,-0.006225586,0.02307129,0,0,-0.01928711,0.3105164,4.024,0,0,0,0.2999878,nan,2,9.761,1,128,0.3097534,0.3878479,0.2487793,0.2957153,-0.01171875,0.04003906,0,1,3,0
406.722,0.001008,-0.07421875,0.08398438,-0.05078125,-0.7265625,5.851562,14.89844,-0.02734375,0.05859375,-0.0234375,-0.005859375,0.03515625,0,0.001098633,-0.005859375,0.02294922,0,0,-0.01928711,0.3105164,4.024,0,0,0,0.2999878,nan,2,9.771,1,128,0.3042603,0.3823547,0.2471008,0.3083801,-0.01171875,0.04003906,0,1,3,0
406.731,0.001009,0.02539062,-0.01757812,0.005859375,1.164062,-2.164062,11.33594,0.01171875,-0.0078125,0.00390625,-0.005859375,0.03320312,0,0.0008544922,-0.005615234,0.02294922,0,0,-0.01928711,0.3105164,4.024,0,0,0,0.2999878,nan,2,9.78,1,128,0.3655701,0.3534241,0.3030701,0.2200317,-0.01171875,0.04003906,0,1,3,0
406.741,0.001008,-0.08984375,0.03125,-0.0234375,2.429688,-0.1953125,4.1875,-0.02539062,0.04882812,-0.01953125,-0.005859375,0.03125,0,0.0009765625,-0.005371094,0.02294922,0,0,-0.01928711,0.3105164,4.024,0,0,0,0.2999878,nan,2,9.79,1,128,0.3077087,0.3855896,0.244873,0.3039551,-0.01171875,0.04003906,0,1,3,0
406.752,0.001035,-0.08007812,-0.01171875,-0.0390625,1.523438,-5.273438,3.492188,-0.04101562,-0.005859375,-0.02929688,-0.001953125,0.03125,0,0.0004882812,-0.005249023,0.02270508,0,0,-0.01928711,0.3105164,4.024,0,0,0,0.2999878,nan,2,9.8,1,128,0.3208313,0.3935242,0.2442322,0.2835083,-0.01074219,0.04003906,0,1,3,0
406.762,0.001039,-0.03515625,-0.0390625,-0.01367188,1.664062,-3.640625,8.429688,-0.01953125,-0.005859375,-0.015625,-0.001953125,0.03125,0,0.0004882812,-0.005371094,0.02246094,0,0,-0.01928711,0.3105164,4.024,0,0,0,0.2999878,nan,2,9.81,1,128,0.3518066,0.3536987,0.2799072,0.2566833,-0.01074219,0.04003906,0,1,3,0.01587302
406.772,0.001006,-0.0703125,0.02539062,-0.02539062,-0.515625,-1.015625,8.296875,-0.01953125,0.01367188,-0.009765625,-0.001953125,0.03320312,0,0.0004882812,-0.005371094,0.02233887,0,0,-0.01928711,0.3105164,4.024,0,0,0,0.2999878,nan,2,9.82,1,128,0.336792,0.3609314,0.26828,0.276123,-0.01074219,0.04003906,0,1,3,0
406.782,0.001008,0.01171875,0.03515625,-0.05273438,-1.90625,-2.039062,10.08594,0.01171875,0.005859375,-0.05273438,-0.001953125,0.03320312,0,0.0004882812,-0.005371094,0.02197266,0,0,-0.01928711,0.3105164,4.024,0,0,0,0.2999878,nan,2,9.83,1,128,0.2940063,0.4076233,0.2420959,0.2983398,-0.01074219,0.04003906,0,1,3,0
406.792,0.001008,0.04492188,-0.03515625,0,-1.515625,4.0625,13.17969,0.01757812,0.001953125,-0.009765625,-0.001953125,0.03125,0,0.0003662109,-0.005249023,0.02172852,0,0,-0.01928711,0.3105164,4.024,0,0,0,0.2999878,nan,2,9.84,1,128,0.3733826,0.3373718,0.3118896,0.2194214,-0.01074219,0.04003906,0,1,3,0
406.802,0.001008,0.01171875,-0.00390625,0.03125,-2.65625,0.25,12.66406,-0.02539062,0.005859375,0.02148438,-0.001953125,0.02929688,0,0.0002441406,-0.005004883,0.02172852,0,0,-0.01928711,0.3105164,4.024,0,0,0,0.2999878,nan,2,9.851,1,128,0.3874512,0.3223572,0.3156128,0.2166748,-0.01074219,0.04003906,0,1,3,0
406.812,0.001008,-0.03320312,0.02929688,0.0078125,-0.21875,4.351562,12.11719,-0.04882812,0.046875,0.00390625,0,0.02929688,0,-0.0001220703,-0.004760742,0.02185059,0,0,-0.01928711,0.3105164,4.024,0,0,0,0.2999878,nan,2,9.861,1,128,0.3330994,0.3605652,0.2705688,0.2778931,-0.01074219,0.04003906,0,1,3,0
406.822,0.001008,-0.05859375,0.0703125,0.01171875,1.367188,-1.867188,4.078125,-0.03125,0.03320312,0,0.001953125,0.02929688,0,-0.0002441406,-0.004760742,0.02185059,0,0,-0.01928711,0.3105164,4.024,0,0,0,0.2999878,nan,2,9.871,1,128,0.3344727,0.3560181,0.2756653,0.2759399,-0.01074219,0.04003906,0,1,3,0
406.831,0.001012,-0.0546875,-0.01953125,-0.009765625,1.179688,-2.546875,12.02344,-0.01953125,0.005859375,-0.00390625,0.001953125,0.02734375,0,-0.0003662109,-0.004638672,0.02185059,0,0,-0.01928711,0.3105164,4.024,0,0,0,0.2999878,nan,2,9.88,1,128,0.3394775,0.3684998,0.2678223,0.2662964,-0.01074219,0.04003906,0,1,3,0
406.841,0.00101,-0.0234375,-0.01953125,0.015625,-0.2109375,0.1796875,8.789062,-0.01953125,0.00390625,0.02148438,0.00390625,0.02539062,0,-0.0007324219,-0.004394531,0.02197266,0,0,-0.01928711,0.3105164,4.024,0,0,0,0.2999878,nan,2,9.89,1,128,0.365509,0.3447571,0.2988892,0.2329407,-0.01074219,0.04003906,0,1,3,0
406.852,0.001012,-0.0078125,-0.02148438,-0.01171875,-1.515625,-4.171875,7.875,-0.001953125,0.0234375,-0.001953125,0.005859375,0.02539062,0,-0.0008544922,-0.004150391,0.02209473,0,0,-0.01928711,0.3105164,4.024,0,0,0,0.2999878,nan,2,9.9,1,128,0.3215637,0.3828735,0.2649536,0.2727051,-0.01074219,0.04003906,0,1,3,0
406.862,0.0009860001,-0.02734375,0.02148438,-0.0234375,-2.265625,4.390625,13.32031,0.009765625,-0.00390625,-0.001953125,0.001953125,0.02539062,0,-0.0004882812,-0.004272461,0.02209473,0,0,-0.01928711,0.3105164,4.024,0,0,0,0.2999878,nan,2,9.91,1,128,0.3266602,0.375,0.2606812,0.2797546,-0.01074219,0.04003906,0,1,3,0
406.872,0.001012,-0.02734375,0.009765625,0.02539062,-0.953125,5.523438,13.02344,-0.005859375,0.02539062,-0.005859375,0.001953125,0.02539062,0,-0.0002441406,-0.00402832,0.02209473,0,0,-0.01928711,0.3105164,4.024,0,0,0,0.2999878,nan,2,9.92,1,128,0.3467712,0.3539124,0.280365,0.2610474,-0.01074219,0.04003906,0,1,3,0
406.882,0.001012,-0.07226562,0.1191406,-0.005859375,0.8828125,-0.625,10.875,-0.01953125,0.04296875,-0.001953125,0.001953125,0.0234375,0,-0.0003662109,-0.00390625,0.02209473,0,0,-0.01928711,0.3105164,4.024,0,0,0,0.2999878,nan,2,9.93,1,128,0.3366089,0.3509216,0.2826538,0.2719116,-0.01074219,0.04101562,0,1,3,0
406.892,0.001042,0.08398438,-0.02539062,0.01367188,2.328125,0.3515625,3.898438,0.01953125,-0.0078125,0.00390625,0.001953125,0.02148438,0,-0.0004882812,-0.00378418,0.02209473,0,0,-0.01928711,0.3105164,4.024,0,0,0,0.2999878,nan,2,9.94,1,128,0.3412781,0.3728638,0.2840271,0.2439575,-0.01074219,0.04101562,0,1,3,0
406.902,0.00105,0.1523438,-0.001953125,0.0234375,0.7578125,-5.9375,8.351562,0.0703125,-0.02539062,-0.00390625,0.001953125,0.0234375,0,-0.0001220703,-0.00402832,0.02209473,0,0,-0.01928711,0.3105164,4.024,0,0,0,0.2999878,nan,2,9.951,1,128,0.3340759,0.3727722,0.2982178,0.23703,-0.01074219,0.04101562,0,1,3,0.01587302
406.912,0.0009869999,0.04101562,-0.01367188,0.02148438,0.4140625,-1.9375,10.95312,0.04882812,-0.0390625,-0.0234375,-0.001953125,0.02734375,0,0.0002441406,-0.004394531,0.02172852,0,0,-0.01928711,0.3105164,4.024,0,0,0,0.2999878,nan,2,9.961,1,128,0.3468323,0.3657227,0.2903137,0.2392578,-0.01074219,0.04101562,0,1,3,0
406.922,0.001052,-0.015625,-0.03710938,0.001953125,-1.484375,2,9.054688,0.0078125,-0.0078125,-0.005859375,-0.00390625,0.02734375,0,0.0004882812,-0.004638672,0.02172852,0,0,-0.01928711,0.3105164,4.024,0,0,0,0.2999878,nan,2,9.971,1,128,0.3488159,0.3520203,0.282196,0.2590942,-0.01074219,0.04101562,0,1,3,0.1269841
406.932,0.000974,0.09375,-0.05859375,-0.01757812,-1.460938,1.945312,13.60938,0.01171875,-0.001953125,-0.01367188,-0.00390625,0.02734375,0,0.0006103516,-0.004638672,0.02160645,0,0,-0.01928711,0.3105164,4.024,0,0,0,0.2999878,nan,2,9.98,1,128,0.3301086,0.3782349,0.2695923,0.2641907,-0.01171875,0.04101562,0,1,3,0
406.941,0.001006,0.01367188,-0.0390625,-0.01367188,-0.6953125,5.804688,13.10156,-0.01757812,0.01757812,-0.02929688,-0.00390625,0.02734375,0,0.0006103516,-0.004638672,0.02124023,0,0,-0.01928711,0.3105164,4.024,0,0,0,0.2999878,nan,2,9.99,1,128,0.3486328,0.3510437,0.2858582,0.2565613,-0.01171875,0.04101562,0,1,3,0
406.952,0.000992,0.0234375,-0.02539062,-0.015625,-1.15625,2.023438,12.10938,0.009765625,-0.015625,-0.01367188,-0.00390625,0.02929688,0,0.0007324219,-0.004882812,0.02099609,0,0,-0.01928711,0.3105164,4.024,0,0,0,0.2999878,nan,2,10,1,128,0.3495789,0.3597412,0.2856445,0.2471313,-0.01171875,0.04101562,0,1,3,0
406.962,0.001018,0.04882812,-0.01757812,-0.0234375,0.7734375,1.710938,12.875,-0.00390625,0.01367188,-0.01367188,-0.005859375,0.02929688,0,0.0008544922,-0.004760742,0.02099609,0,0,-0.01928711,0.3105164,4.024,0,0,0,0.2999878,nan,2,10.01,1,128,0.3279724,0.3755188,0.2644958,0.2741394,-0.01171875,0.04101562,0,1,3,0
406.972,0.000957,-0.09179688,0.07617188,-0.05078125,1.398438,0.0859375,6.40625,-0.02148438,0,-0.046875,-0.00390625,0.02929688,0,0.0007324219,-0.004760742,0.02050781,0,0,-0.01928711,0.3105164,4.024,0,0,0,0.2999878,nan,2,10.02,1,128,0.3101501,0.392395,0.2401428,0.2994385,-0.01171875,0.04101562,0,1,3,0
406.982,0.000973,0.03710938,-0.01367188,0.02148438,2.085938,-2.25,10.80469,0,-0.015625,-0.001953125,-0.005859375,0.02929688,0,0.0008544922,-0.004882812,0.02038574,0,0,-0.01928711,0.3105164,4.024,0,0,0,0.2999878,nan,2,10.03,1,128,0.3794861,0.3337402,0.3097839,0.2190857,-0.01171875,0.04101562,0,1,3,0
406.992,0.00098,-0.1269531,0.02539062,-0.02734375,1.875,0.53125,7.5,-0.06445312,0.0234375,-0.00390625,-0.00390625,0.02929688,0,0.0007324219,-0.004760742,0.02038574,0,0,-0.01928711,0.3105164,4.024,0,0,0,0.2999878,nan,2,10.04,1,128,0.337738,0.3594971,0.2579651,0.2868958,-0.01171875,0.04101562,0,1,3,0
407.002,0.001036,0.02734375,0.009765625,-0.06640625,0.703125,-6.5,9.453125,-0.03320312,0.005859375,-0.04882812,-0.001953125,0.02734375,0,0.0002441406,-0.004516602,0.0201416,0,0,-0.01928711,0.3105164,4.024,0,0,0,0.2999878,nan,2,10.051,1,128,0.2848206,0.4243164,0.2192688,0.3136902,-0.01074219,0.04101562,0,1,3,0
407.012,0.001003,0.005859375,-0.04492188,0.01757812,0.0078125,-1.414062,7.523438,0.01171875,-0.02929688,-0.001953125,-0.001953125,0.02929688,0,0.0003662109,-0.004882812,0.01977539,0,0,-0.01928711,0.3105164,4.024,0,0,0,0.2999878,nan,2,10.061,1,128,0.3970032,0.315918,0.3305054,0.1986694,-0.01171875,0.04101562,0,1,3,0
407.022,0.001008,-0.0234375,-0.015625,-0.01171875,-1.867188,-1.796875,7.875,0.0078125,-0.02539062,0,-0.001953125,0.03125,0,0.0004882812,-0.005126953,0.01977539,0,0,-0.01928711,0.3105164,4.024,0,0,0,0.2999878,nan,2,10.071,1,128,0.3475952,0.3625183,0.2821045,0.2498779,-0.01171875,0.04101562,0,1,3,0
407.031,0.001012,-0.03125,0.005859375,-0.08007812,-1.664062,4.835938,16.08594,0.001953125,0.01757812,-0.04882812,-0.00390625,0.03125,0,0.0006103516,-0.005126953,0.01953125,0,0,-0.01928711,0.3105164,4.024,0,0,0,0.2999878,nan,2,10.08,1,128,0.273468,0.4238586,0.214447,0.3303223,-0.01171875,0.04101562,0,1,3,0
407.041,0.001012,0.009765625,-0.03515625,-0.0078125,-0.765625,3.78125,13.29688,0.03125,-0.0078125,-0.01171875,-0.005859375,0.03125,0,0.0008544922,-0.005126953,0.01916504,0,0,-0.01928711,0.3105164,4.024,0,0,0,0.2999878,nan,2,10.09,1,128,0.3823242,0.3278809,0.3211975,0.2107239,-0.01171875,0.04101562,0,1,3,0
407.052,0.001011,0.01757812,-0.01171875,0.01171875,-0.25,0.359375,14.96094,0.02148438,-0.01367188,-0.001953125,-0.005859375,0.03125,0,0.001098633,-0.005249023,0.01916504,0,0,-0.01928711,0.3105164,4.024,0,0,0,0.2999878,nan,2,10.1,1,128,0.3518372,0.356781,0.2922974,0.2411499,-0.01171875,0.04101562,0,1,3,0
407.062,0.001012,0.01171875,0.0390625,0.01171875,1.59375,1.367188,8.742188,-0.009765625,0.04492188,-0.01367188,-0.005859375,0.03125,0,0.0009765625,-0.005126953,0.01904297,0,0,-0.01928711,0.3105164,4.024,0,0,0,0.2999878,nan,2,10.11,1,128,0.3250122,0.3657837,0.2774353,0.2738647,-0.01171875,0.04101562,0,1,3,0
407.072,0.001013,-0.03125,0.001953125,-0.05273438,1.5,-4.351562,7.578125,-0.0390625,0.001953125,-0.03125,-0.00390625,0.02929688,0,0.0006103516,-0.005004883,0.01879883,0,0,-0.01928711,0.3105164,4.024,0,0,0,0.2999878,nan,2,10.12,1,128,0.3135376,0.3980713,0.2397461,0.290741,-0.01171875,0.04101562,0,1,3,0
407.082,0.001013,0.03125,-0.0390625,-0.01953125,1.15625,-3,7.4375,0.02148438,-0.0078125,-0.02929688,-0.001953125,0.02929688,0,0.0004882812,-0.004882812,0.01843262,0,0,-0.01928711,0.3105164,4.024,0,0,0,0.2999878,nan,2,10.13,1,128,0.3406372,0.3750305,0.2839966,0.2424622,-0.01171875,0.04101562,0,1,3,0
407.092,0.001011,0.03515625,0.04882812,-0.01953125,0.1640625,-1.90625,6.523438,0.02734375,0.0078125,-0.0078125,-0.00390625,0.02929688,0,0.0006103516,-0.004882812,0.01831055,0,0,-0.01928711,0.3105164,4.024,0,0,0,0.2999878,nan,2,10.14,1,128,0.3426819,0.3580627,0.2944946,0.2468872,-0.01171875,0.04101562,0,1,3,0
407.102,0.001011,-0.09375,0.078125,-0.04296875,-2.03125,-0.6171875,11.88281,-0.02148438,0.009765625,-0.01953125,-0.00390625,0.02929688,0,0.0008544922,-0.005004883,0.01818848,0,0,-0.01928711,0.3105164,4.024,0,0,0,0.2999878,nan,2,10.151,1,128,0.3283386,0.3671265,0.2580566,0.2886047,-0.01171875,0.04101562,0,1,3,0
407.112,0.001017,-0.03320312,0.005859375,-0.01953125,-2.445312,7.109375,12.64062,0.01953125,-0.015625,-0.02734375,-0.005859375,0.03125,0,0.0009765625,-0.005126953,0.01794434,0,0,-0.01928711,0.3105164,4.024,0,0,0,0.2999878,nan,2,10.161,1,128,0.3218689,0.3886108,0.2585144,0.2731018,-0.01171875,0.04101562,0,1,3,0
407.122,0.001012,0.02929688,0.01171875,0.05664062,-1.265625,-0.578125,11.71094,-0.02539062,0.005859375,0.02539062,-0.00390625,0.03125,0,0.0008544922,-0.005126953,0.01806641,0,0,-0.01928711,0.3105164,4.024,0,0,0,0.2999878,nan,2,10.171,1,128,0.3931274,0.309021,0.3278198,0.2121277,-0.01171875,0.04101562,0,1,3,0
407.131,0.000992,-0.09765625,-0.06445312,0.015625,1.320312,1.429688,8.570312,-0.001953125,-0.03515625,0.01757812,-0.00390625,0.03125,0,0.0007324219,-0.005249023,0.01818848,0,0,-0.01928711,0.3105164,4.024,0,0,0,0.2999878,nan,2,10.18,1,128,0.3544006,0.3666382,0.2758179,0.2452698,-0.01171875,0.04101562,0,1,3,0
407.141,0.001014,-0.1367188,-0.015625,-0.04296875,1.742188,-4.21875,4.734375,-0.06445312,0.005859375,-0.02539062,-0.001953125,0.03125,0,0.0003662109,-0.005371094,0.01818848,0,0,-0.01928711,0.3105164,4.024,0,0,0,0.2999878,nan,2,10.19,1,128,0.3110657,0.3921509,0.2270813,0.3117981,-0.01171875,0.04101562,0,1,3,0
407.152,0.001024,0.1113281,-0.05664062,0.02734375,1.625,-3.859375,13.42188,0.02539062,-0.009765625,-0.0078125,-0.001953125,0.03320312,0,0.0002441406,-0.005493164,0.01782227,0,0,-0.01928711,0.3105164,4.024,0,0,0,0.2999878,nan,2,10.2,1,128,0.3775635,0.3306885,0.3296509,0.2042236,-0.01171875,0.04101562,0,1,3,0
407.162,0.001012,-0.02539062,0.00390625,0.03125,1.453125,-0.859375,7.65625,0.01171875,0.001953125,0.0234375,-0.001953125,0.03320312,0,0.0003662109,-0.005615234,0.01782227,0,0,-0.01928711,0.3105164,4.024,0,0,0,0.2999878,nan,2,10.21,1,128,0.3757019,0.3265381,0.3216248,0.2182007,-0.01171875,0.04199219,0,1,3,0
407.172,0.001007,0.03125,0.02539062,-0.02929688,-1.03125,-1.515625,9.828125,-0.005859375,0,-0.01367188,-0.001953125,0.03515625,0,0.0002441406,-0.005737305,0.01794434,0,0,-0.01928711,0.3105164,4.024,0,0,0,0.2999878,nan,2,10.22,1,128,0.2940674,0.4102783,0.2364502,0.3013,-0.01171875,0.04199219,0,1,3,0.1428571
407.182,0.001004,-0.03125,0.009765625,-0.0390625,-1.773438,3.71875,8.5,0.00390625,-0.0078125,-0.02734375,0,0.03515625,0,0.0001220703,-0.005859375,0.01782227,0,0,-0.01928711,0.3105164,4.024,0,0,0,0.2999878,nan,2,10.23,1,128,0.3141479,0.3951721,0.2536621,0.2791138,-0.01171875,0.04199219,0,1,3,0.1428571
407.192,0.000974,-0.01367188,0.005859375,0.04882812,-1.65625,3.539062,10.50781,0.01171875,-0.02148438,0.01757812,0,0.03515625,0,0.0001220703,-0.005859375,0.0177002,0,0,-0.01928711,0.3105164,4.024,0,0,0,0.2999878,nan,2,10.24,1,128,0.3969421,0.3187866,0.3291626,0.1972351,-0.01171875,0.04199219,0,1,3,0
407.202,0.001005,0.02734375,-0.0703125,0.0546875,0.1796875,0.3515625,15.16406,0.02148438,-0.03125,0.04101562,0,0.03515625,0,0.0001220703,-0.005859375,0.01806641,0,0,-0.01928711,0.3105164,4.024,0,0,0,0.2999878,nan,2,10.25,1,128,0.382019,0.3380432,0.3157959,0.2062378,-0.01171875,0.04199219,0,1,3,0
407.212,0.001061,-0.04492188,0.0234375,-0.04492188,1.960938,1.65625,6.46875,-0.08203125,0.015625,-0.0234375,0.001953125,0.03515625,0,-0.0004882812,-0.005981445,0.01818848,0,0,-0.01928711,0.3105164,4.024,0,0,0,0.2999878,nan,2,10.261,1,128,0.2761536,0.4237366,0.1995239,0.3426514,-0.01074219,0.04199219,0,1,3,0
407.222,0.00101,-0.1171875,0.07617188,-0.009765625,1.304688,-4.171875,7.148438,-0.03125,0.01757812,-0.01953125,0.00390625,0.03710938,0,-0.0004882812,-0.006103516,0.01794434,0,0,-0.01928711,0.3105164,4.024,0,0,0,0.2999878,nan,2,10.271,1,128,0.3381042,0.3570557,0.2720642,0.2748718,-0.01074219,0.04199219,0,1,3,0
407.231,0.001012,-0.05664062,-0.04492188,0.02734375,0.5625,-3.070312,10.07031,-0.0234375,0.01171875,0.015625,0.00390625,0.03515625,0,-0.0007324219,-0.005859375,0.01782227,0,0,-0.01928711,0.3105164,4.024,0,0,0,0.2999878,nan,2,10.28,1,128,0.3977051,0.3132629,0.3244629,0.206665,-0.01074219,0.04199219,0,1,3,0
407.241,0.001012,-0.06835938,0.07617188,0.01367188,-0.90625,0.578125,8.023438,-0.03125,0.046875,0.02734375,0.00390625,0.03515625,0,-0.0007324219,-0.005859375,0.01818848,0,0,-0.01928711,0.3105164,4.024,0,0,0,0.2999878,nan,2,10.29,1,128,0.3553162,0.334259,0.2953796,0.2571716,-0.01074219,0.04199219,0,1,3,0
407.251,0.001007,0.1503906,0.03320312,0.005859375,-2.257812,-0.265625,10.88281,-0.015625,0.03710938,0,0.0078125,0.03125,0,-0.001220703,-0.005371094,0.01831055,0,0,-0.01928711,0.3105164,4.024,0,0,0,0.2999878,nan,2,10.3,1,128,0.3029785,0.4024963,0.2533569,0.2832642,-0.01074219,0.04199219,0,1,3,0
407.262,0.001012,0.02539062,0.0625,-0.02539062,-1.15625,4.539062,12.75781,0.009765625,0.02539062,-0.02148438,0.005859375,0.03125,0,-0.001098633,-0.005249023,0.01818848,0,0,-0.01928711,0.3105164,4.024,0,0,0,0.2999878,nan,2,10.31,1,128,0.3071594,0.3933716,0.2507019,0.2908325,-0.01074219,0.04199219,0,1,3,0
407.272,0.001013,-0.01367188,-0.0546875,0.04882812,0.9609375,0.03125,10.11719,0.009765625,-0.01171875,0.03515625,0.005859375,0.03125,0,-0.0008544922,-0.005126953,0.01831055,0,0,-0.01928711,0.3105164,4.022,0,0,0,0.2999878,nan,2,10.32,1,128,0.4061279,0.3098145,0.3266602,0.1994934,-0.01074219,0.04199219,0,1,3,0.2222222
407.282,0.001015,0,-0.05859375,0.05859375,2.1875,-4.59375,11.35938,-0.009765625,-0.04492188,0.05078125,0.00390625,0.03320312,0,-0.0007324219,-0.005615234,0.01879883,0,0,-0.01928711,0.3105164,4.022,0,0,0,0.2999878,nan,2,10.33,1,128,0.3768005,0.3406677,0.2928467,0.231781,-0.01074219,0.04199219,0,1,3,0
407.292,0.001012,0.1777344,-0.06835938,0.04492188,0.71875,-0.6015625,6.664062,0.005859375,-0.01367188,0.04882812,0.0078125,0.03515625,0,-0.001220703,-0.005859375,0.01928711,0,0,-0.01928711,0.3105164,4.022,0,0,0,0.2999878,nan,2,10.34,1,128,0.3411865,0.3688965,0.2930908,0.2389526,-0.01074219,0.04199219,0,1,3,0
407.302,0.001014,-0.00390625,-0.0390625,0.02929688,-2.242188,2.15625,10.29688,0.0078125,-0.01367188,0.01757812,0.005859375,0.03515625,0,-0.0009765625,-0.005981445,0.01965332,0,0,-0.01928711,0.3105164,4.022,0,0,0,0.2999878,nan,2,10.35,1,128,0.336853,0.3768921,0.2668762,0.2614746,-0.01074219,0.04199219,0,1,3,0
407.312,0.001009,0.05859375,0.015625,0.01757812,-2.070312,0.828125,13.42188,0.0390625,-0.01953125,0.01757812,0.005859375,0.03710938,0,-0.0008544922,-0.006225586,0.01977539,0,0,-0.01928711,0.3105164,4.022,0,0,0,0.2999878,nan,2,10.361,1,128,0.3339233,0.3743286,0.2837219,0.2501221,-0.01074219,0.04199219,0,1,3,0
407.322,0.001015,-0.0859375,0.0703125,0.005859375,0.359375,3.601562,11.78906,0.005859375,0.0546875,0.01757812,0.00390625,0.03710938,0,-0.0004882812,-0.006103516,0.02001953,0,0,-0.01928711,0.3105164,4.022,0,0,0,0.2999878,nan,2,10.371,1,128,0.34198,0.3466187,0.2845764,0.2689209,-0.01074219,0.04199219,0,1,3,0
407.332,0.00101,-0.01367188,0.02148438,0.01757812,1.507812,-0.3203125,6.679688,-0.05273438,0.01757812,0.03515625,0.005859375,0.03515625,0,-0.001098633,-0.005737305,0.02038574,0,0,-0.01928711,0.3105164,4.022,0,0,0,0.2999878,nan,2,10.381,1,128,0.3581543,0.3543396,0.2778015,0.2518005,-0.01074219,0.04199219,0,1,3,0
407.341,0.001007,0.04296875,0.01171875,0.05273438,1.453125,-7.851562,9.625,0.07617188,-0.015625,0.06054688,0.00390625,0.03320312,0,-0.0007324219,-0.005615234,0.02075195,0,0,-0.01928711,0.3105164,4.022,0,0,0,0.2999878,nan,2,10.39,1,128,0.3800659,0.3387756,0.3306885,0.1925964,-0.01074219,0.04199219,0,1,3,0
407.351,0.000995,-0.1738281,0.08398438,0.01367188,-0.8671875,3.59375,11.17188,-0.0234375,0.015625,0.04101562,0.001953125,0.03320312,0,-0.0002441406,-0.005615234,0.0213623,0,0,-0.01928711,0.3105164,4.022,0,0,0,0.2999878,nan,2,10.4,1,128,0.3390808,0.359436,0.2506104,0.2929688,-0.01074219,0.04199219,0,1,3,0
407.362,0.001008,-0.07617188,0.06054688,0.0703125,-1.773438,5.796875,12.92188,-0.02148438,0.001953125,0.06054688,0,0.03515625,0,0,-0.005737305,0.02172852,0,0,-0.01928711,0.3105164,4.022,0,0,0,0.2999878,nan,2,10.41,1,128,0.3992615,0.3051758,0.3169556,0.2207031,-0.01074219,0.04199219,0,1,3,0
407.372,0.000971,0.015625,0.0078125,0.09570312,-0.0390625,-0.4140625,11.35156,-0.009765625,0,0.078125,0,0.03320312,0,0,-0.005615234,0.02246094,0,0,-0.01928711,0.3105164,4.022,0,0,0,0.2999878,nan,2,10.42,1,128,0.3994446,0.3120422,0.3247986,0.2058411,-0.01074219,0.04199219,0,1,3,0
407.382,0.001006,-0.015625,-0.02734375,0.09179688,1.929688,-2.40625,9.765625,-0.01953125,0.01757812,0.07226562,0,0.03320312,0,-0.0001220703,-0.005493164,0.02307129,0,0,-0.01928711,0.3105164,4.022,0,0,0,0.2999878,nan,2,10.43,1,128,0.3777771,0.3318176,0.3074951,0.2250366,-0.01074219,0.04199219,0,1,3,0.0952381
407.392,0.001006,-0.02539062,-0.01953125,0,0.6875,-1.242188,8.0625,-0.001953125,-0.0078125,0.01757812,0.001953125,0.03320312,0,-0.0002441406,-0.005371094,0.02355957,0,0,-0.01928711,0.3105164,4.022,0,0,0,0.2999878,nan,2,10.44,1,128,0.3056641,0.4090576,0.236084,0.2913208,-0.01074219,0.04199219,0,1,3,0
407.402,0.001005,0,0.03710938,-0.06054688,-1.484375,1.757812,12.85938,-0.02539062,0.0234375,-0.02734375,0.001953125,0.03125,0,-0.0004882812,-0.005371094,0.02355957,0,0,-0.01928711,0.3105164,4.022,0,0,0,0.2999878,nan,2,10.45,1,128,0.2765503,0.4265442,0.2124023,0.3265991,-0.01074219,0.04199219,0,1,3,0
407.412,0.001019,0.04296875,-0.01757812,-0.05078125,-3.046875,-0.1015625,10.6875,0.00390625,0.001953125,-0.04296875,0.001953125,0.03125,0,-0.0004882812,-0.005126953,0.02319336,0,0,-0.01928711,0.3105164,4.022,0,0,0,0.2999878,nan,2,10.461,1,128,0.3125916,0.4046936,0.2426147,0.2822266,-0.01074219,0.04199219,0,1,3,0
407.422,0.001006,-0.08789062,-0.009765625,-0.04296875,-2.398438,6.601562,11.20312,-0.02734375,0.001953125,-0.05859375,0.00390625,0.02929688,0,-0.0006103516,-0.005004883,0.02258301,0,0,-0.01928711,0.3105164,4.022,0,0,0,0.2999878,nan,2,10.471,1,128,0.3315735,0.3795776,0.2532654,0.2776794,-0.01074219,0.04199219,0,1,3,0
407.432,0.001006,0.0078125,-0.04882812,0.009765625,-2.140625,-0.125,12.63281,0.02734375,-0.05273438,-0.00390625,0.00390625,0.03125,0,-0.0004882812,-0.005126953,0.02233887,0,0,-0.01928711,0.3105164,4.022,0,0,0,0.2999878,nan,2,10.481,1,128,0.3943787,0.3365173,0.31427,0.1969604,-0.01074219,0.04199219,0,1,3,0
407.441,0.001014,0.1132812,-0.02539062,-0.009765625,0.578125,3.445312,13.08594,0.03515625,-0.02539062,0.005859375,0.00390625,0.03125,0,-0.0006103516,-0.005249023,0.02233887,0,0,-0.01928711,0.3105164,4.022,0,0,0,0.2999878,nan,2,10.49,1,128,0.347168,0.3711548,0.2917175,0.2320557,-0.01074219,0.04199219,0,1,3,0
407.451,0.001012,-0.0859375,0.08203125,-0.02148438,1.625,-2.304688,6.46875,-0.03710938,0.05664062,-0.001953125,0.00390625,0.02929688,0,-0.0006103516,-0.005004883,0.02233887,0,0,-0.01928711,0.3105164,4.022,0,0,0,0.2999878,nan,2,10.5,1,128,0.3253784,0.3618774,0.2605591,0.2943115,-0.01074219,0.04199219,0,1,3,0
407.462,0.001012,-0.0625,-0.00390625,0.05664062,1.601562,-4.375,9.007812,-0.04296875,0.03515625,0.05859375,0.005859375,0.02734375,0,-0.0009765625,-0.004516602,0.02270508,0,0,-0.01928711,0.3105164,4.022,0,0,0,0.2999878,nan,2,10.51,1,128,0.4122009,0.2975159,0.3366699,0.1957397,-0.01074219,0.04199219,0,1,3,0.2857143
407.472,0.001012,0.01171875,-0.0234375,0.1054688,0.4609375,-1.273438,6.5625,0.01367188,-0.01367188,0.09375,0.005859375,0.02734375,0,-0.001098633,-0.004516602,0.0234375,0,0,-0.01928711,0.3105164,4.022,0,0,0,0.2999878,nan,2,10.52,1,128,0.4166565,0.3031311,0.3482361,0.1740723,-0.01074219,0.04199219,0,1,3,0
407.482,0.001062,-0.01953125,0.02929688,0.03125,-1.796875,3.585938,12.13281,-0.02929688,0.00390625,0.0546875,0.0078125,0.02734375,0,-0.001220703,-0.004516602,0.02416992,0,0,-0.01928711,0.3105164,4.022,0,0,0,0.2999878,nan,2,10.53,1,128,0.3283081,0.3797302,0.2544556,0.2796021,-0.01074219,0.04199219,0,1,3,0
407.492,0.001016,-0.109375,0.04296875,-0.02539062,-0.5234375,-0.8046875,9.351562,-0.02148438,0.015625,0.009765625,0.0078125,0.02539062,0,-0.001342773,-0.004394531,0.02453613,0,0,-0.01928711,0.3105164,4.022,0,0,0,0.2999878,nan,2,10.54,1,128,0.3016968,0.4028931,0.2275085,0.309967,-0.01074219,0.04199219,0,1,3,0.1587302
407.502,0.001025,-0.08007812,0.1015625,-0.02148438,2.203125,1.039062,9.265625,-0.00390625,0.04296875,-0.01953125,0.0078125,0.02539062,0,-0.001342773,-0.004272461,0.02429199,0,0,-0.01928711,0.3105164,4.022,0,0,0,0.2999878,nan,2,10.55,1,128,0.3182068,0.3722839,0.2664185,0.2852173,-0.01074219,0.04296875,0,1,3,0.1111111
407.512,0.000999,-0.05859375,0,-0.04492188,1.664062,-1.585938,6.25,-0.0703125,0.02148438,-0.0390625,0.009765625,0.02539062,0,-0.001586914,-0.004150391,0.02404785,0,0,-0.01928711,0.3105164,4.022,0,0,0,0.2999878,nan,2,10.561,1,128,0.3237915,0.3796692,0.2356873,0.3029785,-0.01074219,0.04296875,0,1,3,0
407.522,0.001008,-0.03125,0.009765625,-0.05078125,2.257812,-6.578125,12.03125,0.01171875,-0.00390625,-0.03320312,0.009765625,0.0234375,0,-0.001586914,-0.00390625,0.02368164,0,0,-0.01928711,0.3105164,4.022,0,0,0,0.2999878,nan,2,10.571,1,128,0.3172913,0.4000549,0.2467346,0.2780457,-0.01074219,0.04296875,0,1,3,0
407.531,0.001008,0.005859375,0.0546875,0.001953125,-0.9921875,0.7734375,9.460938,0.009765625,-0.005859375,-0.005859375,0.009765625,0.0234375,0,-0.001708984,-0.00390625,0.02355957,0,0,-0.01928711,0.3105164,4.022,0,0,0,0.2999878,nan,2,10.58,1,128,0.3631897,0.3477783,0.3020325,0.2290955,-0.01074219,0.04296875,0,1,3,0.1904762
407.541,0.001016,-0.1132812,0.046875,-0.02148438,-2.304688,-0.9609375,10.46875,-0.03515625,0.03125,-0.01171875,0.009765625,0.02148438,0,-0.001831055,-0.003540039,0.02355957,0,0,-0.01928711,0.3105164,4.022,0,0,0,0.2999878,nan,2,10.59,1,128,0.3343506,0.3671875,0.260437,0.2801208,-0.01074219,0.04296875,0,1,3,0
407.552,0.001034,-0.01171875,0.046875,-0.03125,-1.890625,4.226562,11.53906,-0.03710938,0.04101562,-0.02148438,0.01367188,0.01953125,0,-0.002197266,-0.003295898,0.0234375,0,0,-0.01928711,0.3105164,4.022,0,0,0,0.2999878,nan,2,10.6,1,128,0.3016052,0.3966064,0.2378235,0.3060303,-0.01074219,0.04296875,0,1,3,0
407.562,0.001022,0.04101562,-0.1074219,-0.001953125,-2.226562,3.320312,13.08594,0.0546875,-0.05664062,-0.00390625,0.01171875,0.02148438,0,-0.001953125,-0.003417969,0.02331543,0,0,-0.01928711,0.3105164,4.022,0,0,0,0.2999878,nan,2,10.61,1,128,0.3642883,0.3681335,0.2885132,0.2211914,-0.01074219,0.04296875,0,1,3,0
407.572,0.000991,-0.04492188,-0.009765625,0.046875,0.203125,1.757812,12.92188,-0.01171875,0.01367188,0.02148438,0.009765625,0.02148438,0,-0.001708984,-0.003662109,0.0234375,0,0,-0.01928711,0.3105164,4.022,0,0,0,0.2999878,nan,2,10.62,1,128,0.3811035,0.3174438,0.3136292,0.2298889,-0.01074219,0.04296875,0,1,3,0
407.582,0.000974,0.07226562,0.09179688,-0.05078125,2.765625,2.171875,8.242188,-0.009765625,0.04101562,-0.0234375,0.01171875,0.01953125,0,-0.002075195,-0.003417969,0.02331543,0,0,-0.01928711,0.3105164,4.022,0,0,0,0.2999878,nan,2,10.63,1,128,0.2825623,0.4114075,0.2362671,0.3118591,-0.01074219,0.04296875,0,1,3,0
407.592,0.001008,-0.02148438,0.02734375,-0.01171875,1.578125,-5.359375,12.25,-0.01757812,0.03710938,-0.03320312,0.01367188,0.01757812,0,-0.002075195,-0.002929688,0.02307129,0,0,-0.01928711,0.3105164,4.022,0,0,0,0.2999878,nan,2,10.64,1,128,0.3279724,0.3795471,0.2575989,0.2770081,-0.01074219,0.04296875,0,1,3,0
407.602,0.001004,-0.02148438,0.04101562,-0.01757812,1.5625,-1.664062,6.726562,-0.005859375,0.01757812,-0.005859375,0.01367188,0.01757812,0,-0.002197266,-0.002807617,0.02294922,0,0,-0.01928711,0.3105164,4.022,0,0,0,0.2999878,nan,2,10.65,1,128,0.3513794,0.353302,0.2868347,0.2505798,-0.01074219,0.04296875,0,1,3,0
407.612,0.001019,-0.02734375,0.01757812,-0.01953125,-0.5390625,-4.632812,6.617188,0.01171875,0.009765625,-0.02539062,0.01367188,0.015625,0,-0.002197266,-0.002685547,0.02270508,0,0,-0.01928711,0.3105164,4.022,0,0,0,0.2999878,nan,2,10.661,1,128,0.3304138,0.3738708,0.2681274,0.2697144,-0.01074219,0.04296875,0,1,3,0
407.622,0.001009,0.0546875,0.01171875,-0.07421875,-1.3125,-0.359375,9.054688,0.0078125,-0.009765625,-0.06054688,0.01367188,0.01757812,0,-0.002075195,-0.002807617,0.02233887,0,0,-0.01928711,0.3105164,4.022,0,0,0,0.2999878,nan,2,10.671,1,128,0.2897949,0.4191589,0.2258301,0.3072815,-0.01074219,0.04296875,0,1,3,0
407.632,0.001008,-0.0546875,0.001953125,-0.02148438,-2.40625,1.59375,11.72656,-0.02539062,0.01367188,-0.02539062,0.01367188,0.01757812,0,-0.002197266,-0.002807617,0.02185059,0,0,-0.01928711,0.3105164,4.022,0,0,0,0.2999878,nan,2,10.681,1,128,0.3661804,0.3361206,0.2922363,0.2475891,-0.01074219,0.04296875,0,1,3,0
407.641,0.001011,0.01367188,-0.0859375,-0.02929688,-1.601562,4.476562,14.39844,0.01367188,-0.02929688,-0.02539062,0.01367188,0.015625,0,-0.002197266,-0.002685547,0.02160645,0,0,-0.01928711,0.3105164,4.022,0,0,0,0.2999878,nan,2,10.69,1,128,0.3429871,0.3838806,0.2680054,0.2472229,-0.01074219,0.04296875,0,1,3,0
407.651,0.001014,0.06054688,-0.01367188,-0.01953125,-1.039062,4.375,12.8125,-0.02734375,0.02148438,-0.05664062,0.015625,0.015625,0,-0.002563477,-0.002685547,0.02111816,0,0,-0.01928711,0.3105164,4.022,0,0,0,0.2999878,nan,2,10.7,1,128,0.3182678,0.3826294,0.2554626,0.2857361,-0.01074219,0.04296875,0,1,3,0
407.662,0.00103,-0.05273438,0.03710938,-0.0390625,-1.226562,1.390625,15.42969,-0.00390625,-0.015625,-0.04101562,0.015625,0.01757812,0,-0.002563477,-0.002929688,0.02062988,0,0,-0.01928711,0.3105164,4.022,0,0,0,0.2999878,nan,2,10.71,1,128,0.3421021,0.3673096,0.273407,0.2592773,-0.01074219,0.04296875,0,1,3,0
407.672,0.001011,-0.05664062,0.06445312,-0.05078125,-0.0234375,5.367188,13.28125,-0.001953125,-0.001953125,-0.04296875,0.015625,0.01757812,0,-0.002563477,-0.002929688,0.02026367,0,0,-0.01928711,0.3105164,4.022,0,0,0,0.2999878,nan,2,10.72,1,128,0.3311157,0.3734741,0.2660522,0.2714844,-0.01074219,0.04296875,0,1,3,0
407.682,0.001008,-0.09570312,0.06054688,-0.03320312,0.15625,0.078125,11.54688,-0.009765625,0.00390625,-0.03125,0.01757812,0.01757812,0,-0.002807617,-0.003051758,0.01989746,0,0,-0.01928711,0.3105164,4.022,0,0,0,0.2999878,nan,2,10.73,1,128,0.3409424,0.3600769,0.2772522,0.263855,-0.01074219,0.04296875,0,1,3,0
407.692,0.001011,0.009765625,0.03320312,-0.07617188,1.460938,3.984375,11.125,-0.015625,0.01367188,-0.07421875,0.01757812,0.01757812,0,-0.003051758,-0.003051758,0.01928711,0,0,-0.01928711,0.3105164,4.022,0,0,0,0.2999878,nan,2,10.74,1,128,0.2835693,0.4169312,0.223877,0.317749,-0.01074219,0.04296875,0,1,3,0
407.702,0.001015,0.1796875,-0.09960938,-0.02734375,1.046875,-2.289062,9.429688,0.0234375,0.0234375,-0.04101562,0.01953125,0.015625,0,-0.003295898,-0.002807617,0.01879883,0,0,-0.01928711,0.3105164,4.022,0,0,0,0.2999878,nan,2,10.75,1,128,0.3432922,0.3677063,0.2919312,0.2391663,-0.01074219,0.04296875,0,1,3,0.8888889
407.712,0.001031,-0.0390625,-0.04882812,-0.046875,2.195312,2.304688,8.34375,-0.009765625,0,-0.02929688,0.01953125,0.01757812,0,-0.003173828,-0.002807617,0.01855469,0,0,-0.01928711,0.3105164,4.022,0,0,0,0.2999878,nan,2,10.761,1,128,0.3375549,0.3731384,0.2605286,0.2709045,-0.01074219,0.04296875,0,1,3,0
407.722,0.001011,0.01953125,-0.0234375,-0.03320312,1.742188,-4.328125,8.492188,0.00390625,0.03125,-0.03125,0.01953125,0.015625,0,-0.003295898,-0.002563477,0.01818848,0,0,-0.01928711,0.3105164,4.022,0,0,0,0.2999878,nan,2,10.771,1,128,0.3309937,0.3716736,0.2745056,0.2649231,-0.01074219,0.04296875,0,1,3,0.5396826
407.732,0.001008,-0.01171875,0.001953125,0.02539062,2.421875,-2.125,5.445312,-0.00390625,0.02148438,-0.001953125,0.01953125,0.015625,0,-0.003173828,-0.002563477,0.01794434,0,0,-0.01928711,0.3105164,4.022,0,0,0,0.2999878,nan,2,10.781,1,128,0.3716736,0.3297729,0.3068848,0.2337646,-0.01074219,0.04296875,0,1,3,0
407.741,0.001009,-0.05859375,0.08398438,-0.01757812,0.171875,-5.5,11.71094,-0.02734375,0.02734375,0,0.01953125,0.015625,0,-0.003417969,-0.002441406,0.01806641,0,0,-0.01928711,0.3105164,4.022,0,0,0,0.2999878,nan,2,10.79,1,128,0.3283997,0.3684998,0.2638245,0.2813721,-0.01074219,0.04296875,0,1,3,0
407.751,0.001031,0.1113281,-0.09765625,0.01953125,-1.15625,1.578125,12.25781,0.04882812,-0.03320312,0.005859375,0.02148438,0.01367188,0,-0.003540039,-0.002319336,0.01806641,0,0,-0.01928711,0.3105164,4.022,0,0,0,0.2999878,nan,2,10.8,1,128,0.349823,0.378479,0.289856,0.2239685,-0.01074219,0.04296875,0,1,3,0
407.762,0.001009,-0.0390625,-0.03125,-0.01171875,-1.742188,3.601562,9.640625,-0.04296875,-0.01171875,0,0.01953125,0.015625,0,-0.003417969,-0.002563477,0.01818848,0,0,-0.01928711,0.3105164,4.022,0,0,0,0.2999878,nan,2,10.81,1,128,0.3440247,0.3639832,0.2507019,0.2834167,-0.01074219,0.04296875,0,1,3,0
407.772,0.001009,-0.09960938,0.06445312,0.00390625,-2.757812,0.1953125,9.484375,-0.04882812,0.03320312,-0.00390625,0.0234375,0.015625,0,-0.00378418,-0.002563477,0.01818848,0,0,-0.01928711,0.3105164,4.022,0,0,0,0.2999878,nan,2,10.82,1,128,0.3367004,0.3577271,0.2706299,0.2770691,-0.01074219,0.04296875,0,1,3,0.1746032
407.782,0.001008,-0.03320312,0.05078125,-0.04101562,-2.265625,7.164062,12.50781,-0.0390625,0.04296875,-0.015625,0.02539062,0.01171875,0,-0.004394531,-0.002075195,0.01806641,0,0,-0.01928711,0.3105164,4.022,0,0,0,0.2999878,nan,2,10.83,1,128,0.3143311,0.3866272,0.2513123,0.2898254,-0.01074219,0.04296875,0,1,3,0
407.792,0.001008,-0.001953125,-0.1171875,0.0234375,-2.140625,1.109375,14.45312,-0.015625,-0.02929688,0.01757812,0.02734375,0.01171875,0,-0.004638672,-0.001831055,0.01818848,0,0,-0.01928711,0.3105164,4.022,0,0,0,0.2999878,nan,2,10.84,1,128,0.3833313,0.3503723,0.2900696,0.2183533,-0.01074219,0.04296875,0,1,3,0
407.802,0.001008,-0.09960938,0.015625,0.00390625,-1.671875,2.4375,13.03125,-0.009765625,-0.01171875,0.01171875,0.02734375,0.01367188,0,-0.004516602,-0.002075195,0.01831055,0,0,-0.01928711,0.3105164,4.022,0,0,0,0.2999878,nan,2,10.85,1,128,0.342865,0.3621216,0.2648926,0.2721863,-0.01074219,0.04296875,0,1,3,0
407.812,0.001019,-0.03320312,-0.009765625,0.005859375,-0.1484375,5.085938,8.96875,-0.009765625,0.02148438,0,0.02929688,0.01171875,0,-0.004760742,-0.001953125,0.01843262,0,0,-0.01928711,0.3105164,4.022,0,0,0,0.2999878,nan,2,10.861,1,128,0.3294067,0.3731079,0.2665405,0.2730408,-0.009765625,0.04296875,0,1,3,0
407.822,0.00101,-0.04882812,0.03320312,-0.01171875,0.4296875,-2.164062,9.09375,-0.05859375,0.046875,-0.001953125,0.03125,0.009765625,0,-0.005249023,-0.001586914,0.01843262,0,0,-0.01928711,0.3105164,4.022,0,0,0,0.2999878,nan,2,10.871,1,128,0.3369141,0.3639221,0.2622681,0.2789917,-0.009765625,0.04296875,0,1,3,0.03174603
407.832,0.001006,-0.0625,0.04296875,0.01367188,1.921875,1.070312,11.88281,-0.05859375,0.04296875,0,0.03515625,0.005859375,0,-0.005737305,-0.001098633,0.01831055,0,0,-0.01928711,0.3105164,4.022,0,0,0,0.2999878,nan,2,10.881,1,128,0.3551025,0.3468323,0.2801514,0.2600403,-0.009765625,0.04296875,0,1,3,0
407.841,0.001011,0.0234375,0.1054688,-0.01171875,1.054688,-5.03125,9.242188,-0.03710938,0.0625,-0.0078125,0.03710938,0.00390625,0,-0.006225586,-0.0006103516,0.01831055,0,0,-0.01928711,0.3105164,4.022,0,0,0,0.2999878,nan,2,10.89,1,128,0.3296204,0.3648987,0.2738342,0.2737427,-0.009765625,0.04296875,0,1,3,0
407.851,0.001012,0.02929688,0.01953125,0.05078125,0.9140625,-3.265625,5.492188,0.04296875,0.01953125,0.05273438,0.03710938,0.001953125,0,-0.006225586,-0.0003662109,0.01855469,0,0,-0.01928711,0.3105164,4.022,0,0,0,0.2999878,nan,2,10.9,1,128,0.3990784,0.3046875,0.3521729,0.1861572,-0.009765625,0.04296875,0,1,3,0
407.862,0.001012,0.02148438,0.05078125,0.0546875,0.5546875,-0.4453125,7.671875,0.02929688,-0.001953125,0.05078125,0.03710938,0.001953125,0,-0.006103516,-0.0003662109,0.01904297,0,0,-0.01928711,0.3105164,4.022,0,0,0,0.2999878,nan,2,10.91,1,128,0.3593445,0.3469849,0.300293,0.2354736,-0.009765625,0.04296875,0,1,3,0
407.872,0.001012,-0.0859375,-0.0390625,0.03515625,-2.1875,-2.257812,12.8125,0.001953125,-0.03710938,0.04492188,0.03515625,0.00390625,0,-0.005859375,-0.0006103516,0.01965332,0,0,-0.01928711,0.3105164,4.022,0,0,0,0.2999878,nan,2,10.92,1,128,0.3587952,0.3615723,0.268158,0.2535706,-0.009765625,0.04296875,0,1,3,0
407.882,0.001012,-0.1269531,-0.01367188,-0.009765625,-1.242188,4.617188,13.88281,-0.0703125,0.02734375,0.009765625,0.03710938,0.001953125,0,-0.006103516,-0.0003662109,0.01977539,0,0,-0.01928711,0.3105164,4.022,0,0,0,0.2999878,nan,2,10.93,1,128,0.3426819,0.3578491,0.250824,0.2907715,-0.009765625,0.04296875,0,1,3,0
407.892,0.001012,0.02734375,-0.001953125,-0.01367188,0.2109375,2.007812,4.898438,0.04296875,0.01367188,-0.001953125,0.03710938,0.001953125,0,-0.005981445,-0.0003662109,0.01977539,0,0,-0.01928711,0.3105164,4.022,0,0,0,0.2999878,nan,2,10.94,1,128,0.3190308,0.3808594,0.271759,0.2704163,-0.009765625,0.04296875,0,1,3,0
407.902,0.001012,0.05273438,-0.0625,0.02539062,0.78125,-3.15625,10.53125,0.02734375,-0.05273438,0.01953125,0.03320312,0.00390625,0,-0.005615234,-0.0007324219,0.01989746,0,0,-0.01928711,0.3105164,4.022,0,0,0,0.2999878,nan,2,10.95,1,128,0.3712769,0.3516235,0.2845459,0.2346497,-0.009765625,0.04296875,0,1,3,0
407.912,0.001006,0.1523438,-0.05273438,0.08007812,1.757812,-0.84375,9.242188,0.078125,-0.02734375,0.05664062,0.03125,0.005859375,0,-0.005126953,-0.0009765625,0.02038574,0,0,-0.01928711,0.3105164,4.022,0,0,0,0.2999878,nan,2,10.961,1,128,0.3831787,0.3284302,0.3336487,0.1968384,-0.009765625,0.04296875,0,1,3,0.1587302
407.922,0.000964,0.0703125,-0.09179688,0.0078125,-1.789062,0.234375,8.617188,0.09765625,-0.01953125,0.03710938,0.02734375,0.005859375,0,-0.004394531,-0.0009765625,0.02099609,0,0,-0.01928711,0.3105164,4.023,0,0,0,0.2999878,nan,2,10.971,1,128,0.3160706,0.4017639,0.2597351,0.2645264,-0.009765625,0.04296875,0,1,3,0
407.932,0.001061,-0.1347656,0.04492188,0.02929688,-1.601562,0.65625,11.64844,-0.06445312,0.005859375,0.04296875,0.02734375,0.005859375,0,-0.004638672,-0.001098633,0.0213623,0,0,-0.01928711,0.3105164,4.023,0,0,0,0.2999878,nan,2,10.981,1,128,0.3710022,0.3303223,0.2780151,0.2627563,-0.009765625,0.04296875,0,1,3,0
407.941,0.001008,-0.1074219,0.03515625,-0.009765625,2.0625,1.414062,9.523438,-0.06054688,-0.0234375,0.0234375,0.03125,0.0078125,0,-0.005371094,-0.001220703,0.02160645,0,0,-0.01928711,0.3105164,4.023,0,0,0,0.2999878,nan,2,10.99,1,128,0.3426819,0.3713989,0.2576599,0.2703247,-0.009765625,0.04296875,0,1,3,0.3968254
407.951,0.001008,0.02734375,-0.02929688,-0.02539062,1.234375,-4.65625,8.242188,0.02734375,-0.02734375,-0.015625,0.03320312,0.0078125,0,-0.005371094,-0.001342773,0.02160645,0,0,-0.01928711,0.3105164,4.023,0,0,0,0.2999878,nan,2,11,1,128,0.3091736,0.406311,0.2448425,0.2817688,-0.009765625,0.04296875,0,1,3,0.3809524
407.961,0.001008,-0.06835938,0.01367188,-0.04492188,1.5625,-5.03125,10.53906,-0.01953125,0.0078125,-0.05273438,0.03125,0.0078125,0,-0.005371094,-0.001342773,0.02111816,0,0,-0.01928711,0.3105164,4.023,0,0,0,0.2999878,nan,2,11.01,1,128,0.31604,0.3850708,0.2390137,0.3019714,-0.009765625,0.04296875,0,1,3,0
407.972,0.001008,-0.0078125,0.02539062,0.02734375,1.28125,-1.554688,4.710938,0.01757812,0.001953125,0.02539062,0.03320312,0.0078125,0,-0.005493164,-0.001464844,0.02099609,0,0,-0.01928711,0.3105164,4.023,0,0,0,0.2999878,nan,2,11.02,1,128,0.4035339,0.3001709,0.3465881,0.1918335,-0.009765625,0.04296875,0,1,3,0
407.982,0.001008,-0.00390625,0.1191406,0.009765625,-0.984375,-3.414062,10.61719,-0.02539062,0.05273438,0.01953125,0.03320312,0.0078125,0,-0.005737305,-0.001220703,0.02124023,0,0,-0.01928711,0.3105164,4.023,0,0,0,0.2999878,nan,2,11.03,1,128,0.3395691,0.3460083,0.2855225,0.2709961,-0.009765625,0.04296875,0,1,3,0
407.992,0.001008,-0.1054688,0.02734375,0.06054688,-2.390625,6.609375,13.76562,-0.03515625,0.04101562,0.03320312,0.03515625,0.00390625,0,-0.005859375,-0.0007324219,0.02148438,0,0,-0.01928711,0.3105164,4.023,0,0,0,0.2999878,nan,2,11.04,1,128,0.3940735,0.3087769,0.3123474,0.2269287,-0.009765625,0.04296875,0,1,3,0
408.002,0.001016,0.03125,-0.04101562,0.01953125,-1.34375,0.84375,10.03906,0.001953125,0.0234375,0.02734375,0.03710938,0.001953125,0,-0.006225586,-0.0004882812,0.02172852,0,0,-0.01928711,0.3105164,4.023,0,0,0,0.2999878,nan,2,11.05,1,128,0.3406372,0.3691406,0.281311,0.2510376,-0.009765625,0.04296875,0,1,3,0.1904762
408.012,0.001013,0.0078125,-0.06054688,0.03125,1.882812,-1.28125,10.24219,0.03710938,-0.009765625,0.0234375,0.03710938,0.001953125,0,-0.006225586,-0.0004882812,0.02197266,0,0,-0.01928711,0.3105164,4.023,0,0,0,0.2999878,nan,2,11.061,1,128,0.3553162,0.3608093,0.2909851,0.2349854,-0.009765625,0.04296875,0,1,3,0
408.022,0.00101,-0.03515625,-0.01171875,-0.001953125,2.390625,-0.4609375,5.835938,-0.015625,0.00390625,0.001953125,0.03710938,0.001953125,0,-0.006347656,-0.0004882812,0.02209473,0,0,-0.01928711,0.3105164,4.023,0,0,0,0.2999878,nan,2,11.071,1,128,0.3363037,0.3716125,0.2616272,0.2725525,-0.009765625,0.04296875,0,1,3,0
408.032,0.001008,-0.0234375,0.06445312,-0.015625,0.7734375,-6.085938,10.55469,-0.03320312,0.03125,-0.01953125,0.0390625,0.001953125,0,-0.006591797,-0.0002441406,0.02197266,0,0,-0.01928711,0.3105164,4.023,0,0,0,0.2999878,nan,2,11.081,1,128,0.3234558,0.3737488,0.2561951,0.2886963,-0.009765625,0.04296875,0,1,3,0
408.041,0.001011,0.02148438,-0.02148438,-0.02148438,0.140625,-0.421875,7.390625,-0.009765625,0.01757812,-0.02929688,0.04101562,0,0,-0.006958008,0.0001220703,0.02160645,0,0,-0.01928711,0.3105164,4.023,0,0,0,0.2999878,nan,2,11.09,1,128,0.3362122,0.3757629,0.2644653,0.265686,-0.008789062,0.04296875,0,1,3,0
408.051,0.001011,0.1269531,0.001953125,0.02929688,-2.101562,-3.46875,9.46875,0.01171875,0.02539062,-0.0078125,0.04101562,-0.001953125,0,-0.006958008,0.0002441406,0.0213623,0,0,-0.01928711,0.3105164,4.023,0,0,0,0.2999878,nan,2,11.1,1,128,0.3707275,0.3294373,0.3170776,0.2248535,-0.008789062,0.04296875,0,1,3,0
408.062,0.001051,-0.05078125,-0.05664062,-0.001953125,-1.125,1.773438,11.09375,0.01757812,-0.0234375,-0.00390625,0.0390625,0,0,-0.006469727,0,0.0213623,0,0,-0.01928711,0.3105164,4.023,0,0,0,0.2999878,nan,2,11.11,1,128,0.3596802,0.3536377,0.2756348,0.2531433,-0.008789062,0.04296875,0,1,3,0
408.072,0.001025,-0.06445312,-0.0078125,-0.01171875,-2.242188,1.21875,12.15625,-0.0390625,0.015625,0.009765625,0.0390625,-0.001953125,0,-0.006713867,0.0002441406,0.02148438,0,0,-0.01928711,0.3105164,4.023,0,0,0,0.2999878,nan,2,11.12,1,128,0.3591919,0.3466797,0.271637,0.2645874,-0.008789062,0.04296875,0,1,3,0
408.082,0.001019,0.009765625,-0.06445312,-0.0078125,-1.640625,2.03125,11.98438,0.02734375,-0.01171875,-0.01171875,0.04101562,-0.001953125,0,-0.006835938,0.0003662109,0.0213623,0,0,-0.01928711,0.3105164,4.023,0,0,0,0.2999878,nan,2,11.13,1,128,0.3275452,0.3916626,0.260498,0.2624207,-0.008789062,0.04296875,0,1,3,0
408.092,0.000981,-0.1289062,0.09375,0.01367188,-0.890625,7.046875,13.33594,-0.02148438,-0.009765625,0.0078125,0.0390625,0,0,-0.006591797,0,0.02148438,0,0,-0.01928711,0.3105164,4.023,0,0,0,0.2999878,nan,2,11.14,1,128,0.3564148,0.3407898,0.2704773,0.2744446,-0.008789062,0.04296875,0,1,3,0
408.102,0.000995,0.001953125,0.0390625,0.0078125,-0.03125,-2.171875,9.757812,-0.03515625,0.05273438,0.009765625,0.04296875,-0.001953125,0,-0.007080078,0.0002441406,0.02160645,0,0,-0.01928711,0.3105164,4.023,0,0,0,0.2999878,nan,2,11.15,1,128,0.3392029,0.3482971,0.2830811,0.2715149,-0.008789062,0.04296875,0,1,3,0.4444444
408.112,0.001018,-0.08789062,0.046875,0.01367188,2.195312,1.109375,9.65625,-0.03515625,0.02539062,0.01367188,0.04296875,-0.001953125,0,-0.007080078,0.0003662109,0.02172852,0,0,-0.01928711,0.3105164,4.023,0,0,0,0.2999878,nan,2,11.161,1,128,0.3564453,0.340332,0.2752075,0.2701111,-0.008789062,0.04296875,0,1,3,0.1904762
408.122,0.001003,0.05664062,-0.1308594,0.0390625,1.570312,-5.070312,1.796875,0.0390625,-0.05859375,0.001953125,0.04296875,-0.001953125,0,-0.007080078,0.0004882812,0.02160645,0,0,-0.01928711,0.3105164,4.023,0,0,0,0.2999878,nan,2,11.171,1,128,0.3699646,0.3701477,0.2809448,0.2210388,-0.008789062,0.04296875,0,1,3,0
408.131,0.001048,-0.0390625,-0.03320312,0.005859375,0.09375,-1.09375,11.14062,0.02148438,-0.05859375,0.0078125,0.04101562,0,0,-0.006713867,-0.0001220703,0.02172852,0,0,-0.01928711,0.3105164,4.023,0,0,0,0.2999878,nan,2,11.18,1,128,0.3557434,0.3605042,0.2705383,0.2553101,-0.008789062,0.04296875,0,1,3,0
408.142,0.001011,-0.125,0.02148438,-0.0078125,-0.21875,1.710938,10.19531,-0.04296875,-0.001953125,0.005859375,0.0390625,0.001953125,0,-0.006591797,-0.0004882812,0.02185059,0,0,-0.01928711,0.3105164,4.023,0,0,0,0.2999878,nan,2,11.191,1,128,0.3465576,0.3506775,0.2575378,0.287323,-0.008789062,0.04296875,0,1,3,0
408.152,0.001045,0.0625,-0.009765625,-0.02929688,-2.71875,0.7421875,12.8125,0.01367188,0.01367188,-0.02539062,0.04101562,0.001953125,0,-0.006713867,-0.0002441406,0.02172852,0,0,-0.01928711,0.3105164,4.023,0,0,0,0.2999878,nan,2,11.2,1,128,0.3052979,0.399353,0.2470703,0.2904053,-0.008789062,0.04296875,0,1,3,0
408.161,0.001013,-0.01953125,0.015625,-0.01171875,-1.039062,6.632812,13.75,0.0078125,0.01757812,-0.01757812,0.0390625,0.001953125,0,-0.006469727,-0.0002441406,0.02160645,0,0,-0.01928711,0.3105164,4.023,0,0,0,0.2999878,nan,2,11.21,1,128,0.3476257,0.349823,0.2787476,0.2658997,-0.008789062,0.04296875,0,1,3,0
408.172,0.001011,-0.109375,0.005859375,0,-1.492188,1.804688,10.0625,-0.03710938,-0.01953125,0.009765625,0.0390625,0.00390625,0,-0.006347656,-0.0004882812,0.02160645,0,0,-0.01928711,0.3105164,4.023,0,0,0,0.2999878,nan,2,11.22,1,128,0.3752136,0.3334656,0.2769775,0.2564697,-0.008789062,0.04296875,0,1,3,0
408.182,0.001007,-0.009765625,-0.0234375,-0.05664062,0.8359375,2.328125,12.86719,0.01367188,-0.04101562,-0.01757812,0.03710938,0.005859375,0,-0.006347656,-0.0008544922,0.02160645,0,0,-0.01928711,0.3105164,4.023,0,0,0,0.2999878,nan,2,11.23,1,128,0.3110657,0.4023132,0.2332153,0.2955322,-0.008789062,0.04296875,0,1,3,0
408.192,0.001019,0.1503906,0.03125,-0.05273438,1.460938,2.078125,7.9375,0.09765625,-0.03515625,-0.02539062,0.03515625,0.0078125,0,-0.005981445,-0.001220703,0.0213623,0,0,-0.01928711,0.3105164,4.023,0,0,0,0.2999878,nan,2,11.24,1,128,0.3042908,0.4051208,0.2644958,0.268219,-0.008789062,0.04296875,0,1,3,0
408.202,0.001007,0.0078125,-0.04296875,0.01757812,1.148438,-1.6875,10.71875,0.02539062,-0.04296875,0.005859375,0.03320312,0.009765625,0,-0.005493164,-0.001464844,0.02111816,0,0,-0.01928711,0.3105164,4.023,0,0,0,0.2999878,nan,2,11.25,1,128,0.4060364,0.3138428,0.3186646,0.2035522,-0.008789062,0.04296875,0,1,3,0
408.212,0.001012,0.04492188,-0.04101562,0.009765625,2.484375,0.46875,4.632812,0.01757812,-0.0078125,0.005859375,0.03125,0.009765625,0,-0.005371094,-0.001586914,0.02124023,0,0,-0.01928711,0.3105164,4.023,0,0,0,0.2999878,nan,2,11.26,1,128,0.3504333,0.36026,0.2785034,0.2529297,-0.008789062,0.04296875,0,1,3,0
408.222,0.001012,-0.01367188,0.04101562,-0.04101562,1.179688,-7.164062,6.617188,0.02148438,0.03320312,0.005859375,0.03125,0.0078125,0,-0.005371094,-0.001342773,0.0213623,0,0,-0.01928711,0.3105164,4.023,0,0,0,0.2999878,nan,2,11.271,1,128,0.3208618,0.3769836,0.2652283,0.2790222,-0.008789062,0.04296875,0,1,3,0.4444444
408.232,0.001011,-0.1523438,0.05273438,-0.01757812,0.6640625,-1.28125,11.875,-0.05273438,0.01367188,0.01171875,0.03125,0.0078125,0,-0.005249023,-0.001220703,0.02148438,0,0,-0.01928711,0.3105164,4.023,0,0,0,0.2999878,nan,2,11.281,1,128,0.3530579,0.3503723,0.2528076,0.2858582,-0.008789062,0.04296875,0,1,3,0
408.242,0.00101,0.08203125,-0.078125,0.01367188,-1.515625,3.15625,12.875,0.05078125,-0.03320312,0.02148438,0.03125,0.005859375,0,-0.005371094,-0.001098633,0.02160645,0,0,-0.01928711,0.3105164,4.023,0,0,0,0.2999878,nan,2,11.291,1,128,0.3620911,0.3686523,0.2946167,0.2167664,-0.008789062,0.04296875,0,1,3,0
408.251,0.001005,-0.1328125,0.04296875,-0.0390625,-1.507812,1.40625,12.17188,-0.05859375,0.015625,-0.01367188,0.03125,0.0078125,0,-0.005249023,-0.001342773,0.02172852,0,0,-0.01928711,0.3105164,4.023,0,0,0,0.2999878,nan,2,11.3,1,128,0.3145752,0.3783264,0.2257385,0.3234558,-0.008789062,0.04296875,0,1,3,0
408.261,0.001011,-0.01367188,-0.06054688,-0.005859375,0.53125,4.875,12.02344,-0.00390625,-0.009765625,-0.01757812,0.03515625,0.0078125,0,-0.005737305,-0.001220703,0.02148438,0,0,-0.01928711,0.3088379,4.023,0,0,0,0.2979736,nan,2,11.31,1,128,0.3486328,0.3640747,0.2759094,0.2467346,-0.008789062,0.04296875,0,1,3,0
408.272,0.001011,0.03710938,-0.09375,0.009765625,-1.320312,0.6875,10.29688,-0.0078125,-0.01757812,0,0.03515625,0.0078125,0,-0.005737305,-0.001220703,0.02124023,0,0,-0.01928711,0.3071594,4.023,0,0,0,0.2960205,nan,2,11.32,1,128,0.3718872,0.3389282,0.2891541,0.2286682,-0.008789062,0.04296875,0,1,3,0
408.282,0.001025,0.01367188,-0.03320312,-0.001953125,0.8125,2.742188,12.17969,-0.00390625,-0.02148438,-0.01367188,0.03515625,0.0078125,0,-0.005737305,-0.001464844,0.02124023,0,0,-0.01928711,0.305481,4.023,0,0,0,0.2940063,nan,2,11.33,1,128,0.3337708,0.3691406,0.2520142,0.2669678,-0.008789062,0.04296875,0,1,3,0
408.292,0.000997,-0.00390625,0.02734375,-0.001953125,1.234375,-1.234375,6.015625,0.04101562,-0.04492188,-0.00390625,0.03125,0.01171875,0,-0.005371094,-0.001953125,0.02124023,0,0,-0.01928711,0.3038025,4.023,0,0,0,0.2919922,nan,2,11.34,1,128,0.3368835,0.3598022,0.2640686,0.254425,-0.008789062,0.04296875,0,1,3,0
408.302,0.000961,0.01171875,0.0625,0.03320312,2.960938,-3.078125,8.617188,0.03320312,0.02539062,0.02148438,0.02929688,0.01171875,0,-0.005004883,-0.002075195,0.02124023,0,0,-0.01928711,0.3020935,4.023,0,0,0,0.289978,nan,2,11.35,1,128,0.368927,0.3049011,0.3154602,0.2191467,-0.008789062,0.04296875,0,1,3,0.4444444
408.312,0.001015,-0.1269531,-0.0078125,-0.02539062,2.5625,0.2421875,5.578125,-0.02539062,-0.01367188,0.009765625,0.02929688,0.01171875,0,-0.004760742,-0.002075195,0.02148438,0,0,-0.01928711,0.3002625,4.023,0,0,0,0.2877808,nan,2,11.36,1,128,0.3323364,0.3619995,0.2289124,0.277771,-0.008789062,0.04296875,0,1,3,0
408.322,0.000995,-0.1210938,-0.06054688,-0.04296875,1.304688,-6.460938,10.63281,0.03515625,-0.0625,-0.01171875,0.02734375,0.01367188,0,-0.004516602,-0.002197266,0.0213623,0,0,-0.01928711,0.2985535,4.023,0,0,0,0.2858276,nan,2,11.371,1,128,0.321991,0.3861084,0.2236328,0.2625122,-0.008789062,0.04296875,0,1,3,0
408.332,0.001033,-0.1503906,0.06054688,-0.02539062,1.296875,-3.382812,8.34375,-0.0703125,0.0703125,-0.01171875,0.02929688,0.01171875,0,-0.004760742,-0.001953125,0.02124023,0,0,-0.01928711,0.296875,4.023,0,0,0,0.2838135,nan,2,11.381,1,128,0.3342285,0.3229065,0.2547302,0.2756653,-0.008789062,0.04296875,0,1,3,0
408.341,0.001006,0.1328125,-0.01367188,0.03125,1.070312,-3.0625,4.367188,0.08789062,0.001953125,0,0.03125,0.009765625,0,-0.005126953,-0.001586914,0.02124023,0,0,-0.01928711,0.2953796,4.023,0,0,0,0.2819824,nan,2,11.39,1,128,0.3314514,0.3579712,0.3000793,0.1919861,-0.008789062,0.04296875,0,1,3,0
408.351,0.001005,-0.0390625,-0.0703125,-0.02929688,1.0625,-6.382812,11.21094,-0.04882812,-0.03125,-0.005859375,0.03125,0.0078125,0,-0.005249023,-0.001464844,0.0213623,0,0,-0.01928711,0.2936707,4.023,0,0,0,0.2800293,nan,2,11.4,1,128,0.3183594,0.3787842,0.205719,0.2718811,-0.008789062,0.04296875,0,1,3,0
408.361,0.000981,-0.04296875,-0.01171875,-0.01171875,1.164062,-1.859375,10.07031,-0.02539062,-0.01757812,0.0078125,0.03320312,0.009765625,0,-0.005615234,-0.001464844,0.02124023,0,0,-0.01928711,0.2919922,4.023,0,0,0,0.2780151,nan,2,11.41,1,128,0.3452148,0.3319397,0.2624207,0.2284241,-0.0078125,0.04296875,0,1,3,0
408.372,0.001005,0.01171875,-0.0625,0,1.273438,-2,3.039062,0.03125,-0.00390625,0.015625,0.03320312,0.0078125,0,-0.005615234,-0.001464844,0.02148438,0,0,-0.01928711,0.2903137,4.023,0,0,0,0.276001,nan,2,11.42,1,128,0.3296509,0.3452148,0.2626648,0.2237244,-0.0078125,0.04296875,0,1,3,0
408.382,0.001005,0.08789062,-0.1230469,0.0625,1.90625,-7.609375,7.601562,0.03515625,-0.06640625,0.03710938,0.03320312,0.009765625,0,-0.005493164,-0.001708984,0.02160645,0,0,-0.01928711,0.2886353,4.023,0,0,0,0.2739868,nan,2,11.43,1,128,0.377594,0.3113708,0.2952271,0.1703186,-0.0078125,0.04296875,0,1,3,0
408.392,0.001008,0.05078125,-0.0546875,0.00390625,2.289062,-3.609375,9.609375,0.03320312,-0.06054688,0.005859375,0.03125,0.01367188,0,-0.005126953,-0.002319336,0.02185059,0,0,-0.01928711,0.2869568,4.023,0,0,0,0.2719727,nan,2,11.44,1,128,0.2998962,0.3728333,0.2180176,0.2570801,-0.0078125,0.04296875,0,1,3,0
408.402,0.001005,0.03515625,-0.009765625,-0.01953125,2.21875,-0.2109375,6.5625,0.01367188,-0.05664062,-0.005859375,0.02929688,0.01757812,0,-0.004882812,-0.002807617,0.02197266,0,0,-0.01928711,0.2852478,4.023,0,0,0,0.2700195,nan,2,11.45,1,128,0.3053284,0.3621826,0.2186584,0.2548828,-0.0078125,0.04296875,0,1,3,0
408.412,0.001007,0.1386719,-0.03515625,-0.005859375,1.632812,-2.617188,2.109375,0.09375,-0.009765625,-0.02148438,0.02734375,0.01757812,0,-0.004516602,-0.002929688,0.02172852,0,0,-0.01928711,0.2834167,4.023,0,0,0,0.2678223,nan,2,11.46,1,128,0.2983704,0.3583679,0.2568054,0.2201233,-0.0078125,0.04296875,0,1,3,0
408.422,0.001019,0.01757812,-0.03710938,-0.0078125,2.078125,-4.296875,8.65625,-0.01367188,-0.02148438,-0.0234375,0.02734375,0.01953125,0,-0.004516602,-0.003173828,0.0213623,0,0,-0.01928711,0.2817383,4.023,0,0,0,0.2658081,nan,2,11.471,1,128,0.3356323,0.3202515,0.2521362,0.2189026,-0.0078125,0.04296875,0,1,3,0.4920635
408.432,0.001009,-0.09570312,0.08203125,0.001953125,1.921875,2.53125,13.91406,-0.08203125,0.0078125,0.01367188,0.02929688,0.01953125,0,-0.004882812,-0.003417969,0.0213623,0,0,-0.01928711,0.2800293,4.023,0,0,0,0.2637939,nan,2,11.481,1,128,0.3568726,0.2794189,0.2644653,0.2193909,-0.0078125,0.04296875,0,1,3,0
408.442,0.001009,-0.05664062,-0.06054688,-0.03515625,1.273438,4.039062,9.632812,-0.02929688,-0.00390625,-0.005859375,0.02929688,0.01953125,0,-0.005004883,-0.003173828,0.0213623,0,0,-0.01928711,0.2783508,4.023,0,0,0,0.2617798,nan,2,11.491,1,128,0.3044739,0.3487549,0.2111816,0.2490234,-0.0078125,0.04296875,0,1,3,0
408.451,0.001012,-0.08007812,0.0234375,-0.001953125,1.15625,-1.164062,8.4375,-0.0078125,0.009765625,0,0.02929688,0.01953125,0,-0.005004883,-0.003051758,0.0213623,0,0,-0.01928711,0.2768555,4.023,0,0,0,0.2600098,nan,2,11.5,1,128,0.3237,0.3178101,0.2449341,0.2209167,-0.0078125,0.04296875,0,1,3,0
408.462,0.001024,0.0078125,0.01171875,0.0078125,0.6328125,2.789062,18.40625,-0.00390625,-0.01757812,0.0078125,0.03125,0.01953125,0,-0.005249023,-0.003173828,0.0213623,0,0,-0.01928711,0.2751465,4.023,0,0,0,0.2579956,nan,2,11.51,1,128,0.3205261,0.3254395,0.2385254,0.216156,-0.0078125,0.04296875,0,1,3,0
408.472,0.001043,0.03710938,-0.015625,0.0390625,-2.15625,6,15.625,0.01367188,0.015625,0.0078125,0.03125,0.01757812,0,-0.005126953,-0.003051758,0.0213623,0,0,-0.01928711,0.273468,4.023,0,0,0,0.2559814,nan,2,11.52,1,128,0.3311768,0.3000793,0.2631531,0.1994629,-0.0078125,0.04296875,0,1,3,0
408.482,0.001012,0.0703125,-0.03320312,0.0234375,-2.460938,5.59375,10.89062,0.02734375,-0.00390625,0.02539062,0.02929688,0.01757812,0,-0.005004883,-0.002929688,0.02160645,0,0,-0.01928711,0.2717896,4.023,0,0,0,0.2540283,nan,2,11.53,1,128,0.3357239,0.3059387,0.259552,0.1859436,-0.0078125,0.04296875,0,1,3,0
408.492,0.001012,0.015625,-0.03320312,0.02148438,-1.765625,2.65625,7.757812,-0.06640625,0.00390625,0.03320312,0.03320312,0.01757812,0,-0.005371094,-0.002807617,0.02185059,0,0,-0.01928711,0.2701111,4.023,0,0,0,0.2520142,nan,2,11.54,1,128,0.3312988,0.29953,0.2358704,0.2137146,-0.0078125,0.04296875,0,1,3,0
408.502,0.001018,0.009765625,-0.009765625,-0.009765625,-1,-1.070312,7.945312,-0.009765625,0.00390625,0.02539062,0.03320312,0.01757812,0,-0.005737305,-0.002807617,0.0222168,0,0,-0.01928711,0.2684326,4.023,0,0,0,0.25,nan,2,11.55,1,128,0.2875977,0.3375244,0.2167664,0.2318115,-0.0078125,0.04296875,0,1,3,0
408.512,0.001016,-0.08789062,0.01367188,-0.05078125,0.21875,-7.453125,9.007812,0.009765625,-0.00390625,-0.02734375,0.03320312,0.015625,0,-0.005493164,-0.002807617,0.0222168,0,0,-0.01928711,0.266571,4.023,0,0,0,0.2478027,nan,2,11.56,1,128,0.25,0.3738708,0.1680603,0.2743225,-0.0078125,0.04296875,0,1,3,0
408.522,0.001014,0.09570312,-0.05273438,-0.0546875,2.0625,-9.601562,7.578125,0.04296875,0.01367188,-0.0703125,0.03125,0.015625,0,-0.005371094,-0.002685547,0.02160645,0,0,-0.01928711,0.2648926,4.023,0,0,0,0.2457886,nan,2,11.571,1,128,0.2428284,0.3728638,0.1831055,0.2607422,-0.0078125,0.04296875,0,1,3,0
408.532,0.001028,0.0390625,0,0.0078125,2.273438,2.59375,11.65625,0.03125,-0.02734375,-0.01757812,0.03125,0.01757812,0,-0.005126953,-0.002807617,0.02111816,0,0,-0.01928711,0.2632141,4.023,0,0,0,0.2437744,nan,2,11.581,1,128,0.3473206,0.2754822,0.2736816,0.1563416,-0.0078125,0.04296875,0,1,3,0
408.542,0.001012,-0.0703125,0.015625,-0.02929688,-1.078125,8.765625,17.07031,-0.04101562,-0.005859375,-0.02539062,0.03125,0.01757812,0,-0.005371094,-0.002929688,0.02099609,0,0,-0.01928711,0.2615051,4.023,0,0,0,0.2418213,nan,2,11.591,1,128,0.2926941,0.3178711,0.2025146,0.2330017,-0.0078125,0.04394531,0,1,3,0
408.551,0.001008,0.01171875,-0.05664062,-0.00390625,-2.34375,4.390625,9.226562,-0.046875,-0.01757812,0.005859375,0.03515625,0.01757812,0,-0.005737305,-0.002807617,0.02099609,0,0,-0.01928711,0.2600098,4.023,0,0,0,0.2399902,nan,2,11.6,1,128,0.3218689,0.2998352,0.225708,0.1925964,-0.0078125,0.04394531,0,1,3,0
408.561,0.001008,0.015625,0.0078125,-0.046875,-1.960938,-3.40625,4.617188,-0.00390625,0.00390625,-0.0234375,0.03515625,0.01757812,0,-0.005981445,-0.002929688,0.02099609,0,0,-0.01928711,0.2583008,4.023,0,0,0,0.2379761,nan,2,11.61,1,128,0.2413025,0.3608398,0.1722412,0.2588501,-0.0078125,0.04394531,0,1,3,0
408.572,0.001008,0.06054688,-0.01757812,-0.02148438,1.039062,-5.96875,4.585938,0.02734375,0.01367188,-0.03515625,0.03515625,0.015625,0,-0.005859375,-0.002807617,0.02062988,0,0,-0.01928711,0.2566223,4.029,0,0,0,0.2360229,nan,2,11.62,1,128,0.2836609,0.3166504,0.2193298,0.2068787,-0.0078125,0.04394531,0,1,3,0
408.582,0.001008,-0.001953125,-0.01757812,0.01367188,-0.1875,-0.65625,15.10156,0.02929688,-0.01953125,0.00390625,0.03320312,0.01757812,0,-0.005493164,-0.002807617,0.02038574,0,0,-0.01928711,0.2549438,4.029,0,0,0,0.2340088,nan,2,11.63,1,128,0.3430786,0.2619629,0.2650757,0.1496582,-0.0078125,0.04394531,0,1,3,0
408.592,0.001008,-0.1035156,-0.00390625,0.04101562,-2.492188,0.6328125,13.49219,-0.0625,0,0.04101562,0.03515625,0.01757812,0,-0.005737305,-0.002807617,0.02050781,0,0,-0.01928711,0.2532654,4.029,0,0,0,0.2319946,nan,2,11.64,1,128,0.3633728,0.2336731,0.2588196,0.157196,-0.0078125,0.04394531,0,1,3,0
408.602,0.001008,-0.1171875,0.1035156,-0.001953125,-0.1484375,-8.046875,4.890625,-0.1015625,0.08398438,-0.01953125,0.0390625,0.01367188,0,-0.006591797,-0.002441406,0.02062988,0,0,-0.01928711,0.2515869,4.029,0,0,0,0.2299805,nan,2,11.65,1,128,0.2501831,0.3164062,0.1726685,0.2670593,-0.0078125,0.04394531,0,1,3,0.1269841
408.612,0.001017,0.1113281,-0.03710938,0.078125,2.484375,-4.40625,12,0.0234375,-0.009765625,0.02734375,0.04101562,0.01367188,0,-0.006958008,-0.002197266,0.02062988,0,0,-0.01928711,0.2497253,4.029,0,0,0,0.2277832,nan,2,11.66,1,128,0.3386536,0.2622986,0.2737732,0.124176,-0.006835938,0.04394531,0,1,3,0
408.622,0.001006,-0.02734375,-0.04492188,0.03710938,0.609375,-0.203125,18.49219,-0.01171875,0.005859375,0.02148438,0.04101562,0.01171875,0,-0.006835938,-0.002075195,0.02087402,0,0,-0.01928711,0.2480469,4.029,0,0,0,0.225769,nan,2,11.671,1,128,0.3019714,0.286438,0.2119751,0.1917725,-0.006835938,0.04394531,0,1,3,0
408.632,0.000999,0.04101562,-0.04882812,-0.04101562,-2.101562,1.914062,13.00781,-0.001953125,-0.01367188,-0.03710938,0.04101562,0.01171875,0,-0.006958008,-0.002075195,0.02087402,0,0,-0.01928711,0.2463684,4.029,0,0,0,0.2238159,nan,2,11.681,1,128,0.2259827,0.3649597,0.1394958,0.2549744,-0.006835938,0.04394531,0,1,3,0
408.642,0.001008,0.0859375,-0.0703125,-0.02148438,0.5234375,-6.828125,3.820312,0.05859375,-0.02148438,-0.02929688,0.0390625,0.01171875,0,-0.006591797,-0.002075195,0.02038574,0,0,-0.01928711,0.2446594,4.029,0,0,0,0.2218018,nan,2,11.691,1,128,0.2891846,0.2986755,0.2173462,0.1734924,-0.006835938,0.04394531,0,1,3,0
408.651,0.001011,0.1054688,-0.078125,0.04296875,2.414062,-0.75,10.9375,0.04296875,-0.02929688,0.01367188,0.03710938,0.01367188,0,-0.006347656,-0.002197266,0.02026367,0,0,-0.01928711,0.2431641,4.029,0,0,0,0.2199707,nan,2,11.7,1,128,0.3505554,0.2367249,0.2696838,0.1156616,-0.006835938,0.04394531,0,1,3,0
408.661,0.001011,-0.02734375,0.03320312,0.02539062,-2.085938,3.085938,16.60156,-0.02539062,0.009765625,0.0390625,0.03710938,0.01367188,0,-0.006103516,-0.002319336,0.02062988,0,0,-0.01928711,0.2414856,4.029,0,0,0,0.2180176,nan,2,11.71,1,128,0.3043823,0.2581482,0.2153931,0.1879578,-0.006835938,0.04394531,0,1,3,0
408.672,0.001002,0.05273438,-0.001953125,0,1.101562,-8.070312,8.359375,-0.03320312,0.01171875,0.01757812,0.0390625,0.01171875,0,-0.006591797,-0.001953125,0.02087402,0,0,-0.01928711,0.2397766,4.029,0,0,0,0.2160034,nan,2,11.72,1,128,0.2718506,0.3022156,0.1905212,0.1945801,-0.006835938,0.04394531,0,1,3,0
408.682,0.001024,0.06445312,-0.005859375,0.02734375,2.476562,-2.773438,3.921875,-0.01953125,0,0.01367188,0.04101562,0.01171875,0,-0.006958008,-0.001831055,0.02087402,0,0,-0.01928711,0.2380981,4.029,0,0,0,0.2139893,nan,2,11.73,1,128,0.2980042,0.2723999,0.2145081,0.1674805,-0.006835938,0.04394531,0,1,3,0
408.692,0.001016,0.0234375,-0.04101562,0.0078125,-1.546875,4.46875,9.375,0.01367188,-0.02734375,0.01953125,0.04101562,0.01171875,0,-0.006835938,-0.001953125,0.02111816,0,0,-0.01928711,0.2364197,4.029,0,0,0,0.2119751,nan,2,11.74,1,128,0.287323,0.2846069,0.2008972,0.1728516,-0.006835938,0.04394531,0,1,3,0
408.702,0.001031,-0.04882812,-0.04492188,-0.02539062,0.8046875,-1.429688,8.25,-0.01171875,-0.01171875,0.00390625,0.04101562,0.01171875,0,-0.006835938,-0.001831055,0.02124023,0,0,-0.01928711,0.2347412,4.029,0,0,0,0.210022,nan,2,11.75,1,128,0.2624207,0.302124,0.1688843,0.2055054,-0.006835938,0.04394531,0,1,3,0
408.712,0.000966,0.02734375,-0.005859375,-0.005859375,0.4765625,7.84375,15.70312,0,0,-0.01953125,0.04101562,0.01171875,0,-0.006835938,-0.001831055,0.02099609,0,0,-0.01928711,0.2328796,4.029,0,0,0,0.2078247,nan,2,11.76,1,128,0.2625122,0.2938843,0.1800537,0.1950989,-0.006835938,0.04394531,0,1,3,0
408.722,0.00101,-0.1152344,0.00390625,-0.015625,-1.429688,-2.867188,2.101562,-0.02539062,-0.001953125,-0.02539062,0.0390625,0.01171875,0,-0.006591797,-0.001953125,0.02075195,0,0,-0.01928711,0.2312012,4.029,0,0,0,0.2058105,nan,2,11.771,1,128,0.2755127,0.2749939,0.1787109,0.1955872,-0.006835938,0.04394531,0,1,3,0
408.732,0.00102,-0.02539062,-0.009765625,0.0390625,0.203125,0.0703125,16.17969,-0.02539062,-0.01367188,0.03320312,0.04101562,0.01171875,0,-0.006835938,-0.001953125,0.02087402,0,0,-0.01928711,0.2295227,4.029,0,0,0,0.2037964,nan,2,11.781,1,128,0.3260803,0.2255249,0.2344666,0.1319885,-0.006835938,0.04394531,0,1,3,0
408.742,0.001008,0.009765625,-0.0703125,-0.00390625,-0.53125,-7.609375,10.26562,-0.00390625,-0.015625,0.0234375,0.04101562,0.01171875,0,-0.006958008,-0.001953125,0.02124023,0,0,-0.01928711,0.2278442,4.029,0,0,0,0.2017822,nan,2,11.791,1,128,0.2586365,0.2943726,0.1732178,0.1851196,-0.006835938,0.04394531,0,1,3,0
408.751,0.001003,-0.03515625,0.005859375,-0.0234375,2.953125,-0.65625,1.65625,0.0234375,-0.02148438,-0.001953125,0.0390625,0.01367188,0,-0.006347656,-0.002197266,0.0213623,0,0,-0.01928711,0.2263184,4.029,0,0,0,0.2000122,nan,2,11.8,1,128,0.2409668,0.3042603,0.1495667,0.2104492,-0.006835938,0.04394531,0,1,3,0
408.761,0.001009,-0.08984375,-0.06054688,-0.005859375,-1.820312,5.664062,9.28125,-0.0546875,-0.015625,-0.01757812,0.0390625,0.01171875,0,-0.006591797,-0.002075195,0.02111816,0,0,-0.01928711,0.2246399,4.029,0,0,0,0.197998,nan,2,11.81,1,128,0.2706604,0.280304,0.1567383,0.1907959,-0.006835938,0.04394531,0,1,3,0
408.772,0.001009,0,0.06054688,-0.02148438,0.328125,-0.9921875,14.98438,-0.00390625,-0.005859375,-0.01953125,0.04101562,0.01171875,0,-0.006713867,-0.002075195,0.02099609,0,0,-0.01928711,0.2229309,4.029,0,0,0,0.1959839,nan,2,11.82,1,128,0.2498169,0.2827454,0.1737671,0.1854248,-0.006835938,0.04394531,0,1,3,0
408.782,0.001005,0.02148438,0.07421875,-0.08203125,1.289062,-6.171875,5.40625,-0.009765625,0.015625,-0.05078125,0.04101562,0.01367188,0,-0.006713867,-0.002197266,0.02062988,0,0,-0.01928711,0.2212524,4.029,0,0,0,0.1939697,nan,2,11.83,1,128,0.2043457,0.3155823,0.1330566,0.2320862,-0.006835938,0.04394531,0,1,3,0
408.792,0.001008,0.03515625,0.03515625,-0.0234375,-2.21875,5.359375,12.125,0.01367188,0.01171875,-0.0390625,0.04101562,0.01367188,0,-0.006713867,-0.002197266,0.02026367,0,0,-0.01928711,0.219574,4.029,0,0,0,0.1920166,nan,2,11.84,1,128,0.2498169,0.2710876,0.1847534,0.1726685,-0.006835938,0.04394531,0,1,3,0
408.802,0.001008,-0.1152344,0.0390625,0,0.7421875,2.328125,12.41406,-0.03320312,0.01757812,0.001953125,0.04101562,0.01367188,0,-0.006958008,-0.002197266,0.0201416,0,0,-0.01928711,0.2178955,4.029,0,0,0,0.1900024,nan,2,11.85,1,128,0.2829285,0.2312622,0.2004395,0.1569519,-0.006835938,0.04394531,0,1,3,0
408.812,0.001008,-0.04101562,-0.0234375,-0.03320312,2.078125,-7.523438,3.921875,-0.0625,-0.009765625,-0.01757812,0.04296875,0.01367188,0,-0.007202148,-0.002197266,0.02001953,0,0,-0.01928711,0.2160339,4.029,0,0,0,0.1878052,nan,2,11.86,1,128,0.2496643,0.2739563,0.1465454,0.1940002,-0.006835938,0.04394531,0,1,3,0
408.822,0.00101,-0.08203125,-0.05078125,-0.04882812,-0.1875,2.257812,8.140625,-0.009765625,-0.02734375,-0.0390625,0.04492188,0.01367188,0,-0.007324219,-0.002319336,0.01965332,0,0,-0.01928711,0.2143555,4.029,0,0,0,0.185791,nan,2,11.871,1,128,0.2322388,0.2973022,0.1365051,0.1913757,-0.006835938,0.04394531,0,1,3,0
408.832,0.00101,-0.03125,0.07421875,-0.09960938,-0.5078125,4.3125,15.38281,-0.009765625,-0.001953125,-0.0703125,0.04492188,0.015625,0,-0.007324219,-0.002563477,0.01928711,0,0,-0.01928711,0.212677,4.029,0,0,0,0.1837769,nan,2,11.881,1,128,0.1853943,0.3209839,0.1049805,0.2393188,-0.006835938,0.04394531,0,1,3,0
408.842,0.001008,0.07617188,0.05273438,-0.07226562,2.625,-4.617188,10.36719,0.05078125,-0.001953125,-0.07617188,0.04296875,0.015625,0,-0.007080078,-0.002563477,0.01843262,0,0,-0.01928711,0.2109985,4.029,0,0,0,0.1818237,nan,2,11.891,1,128,0.2103271,0.2981567,0.1469116,0.1885376,-0.006835938,0.04394531,0,1,3,0
408.851,0.001012,-0.01367188,0.09179688,-0.046875,0.1328125,-8.085938,1.664062,0.0390625,0.00390625,-0.04492188,0.0390625,0.015625,0,-0.006591797,-0.002807617,0.01794434,0,0,-0.01928711,0.2094727,4.029,0,0,0,0.1799927,nan,2,11.9,1,128,0.2489319,0.2474365,0.1777039,0.1638184,-0.006835938,0.04394531,0,1,3,0
408.861,0.001012,-0.03515625,0.01953125,-0.07421875,-1.484375,4.9375,8.851562,-0.00390625,0.001953125,-0.07226562,0.0390625,0.015625,0,-0.006469727,-0.002685547,0.01733398,0,0,-0.01928711,0.2077942,4.029,0,0,0,0.1779785,nan,2,11.91,1,128,0.2164612,0.2880554,0.1297302,0.1968994,-0.005859375,0.04394531,0,1,3,0.07936508
408.872,0.001012,0.05078125,0.02148438,-0.1132812,-1.023438,-9.429688,9.9375,0.01757812,0,-0.07421875,0.0390625,0.015625,0,-0.006713867,-0.002685547,0.01672363,0,0,-0.01928711,0.2061157,4.029,0,0,0,0.1760254,nan,2,11.92,1,128,0.198822,0.3038025,0.1295166,0.1922607,-0.005859375,0.04394531,0,1,3,0
408.882,0.001013,0.0390625,0.005859375,-0.04882812,0.0703125,-3.054688,8.84375,-0.02539062,-0.001953125,-0.08007812,0.04101562,0.015625,0,-0.006835938,-0.002563477,0.01574707,0,0,-0.01928711,0.2044067,4.029,0,0,0,0.1740112,nan,2,11.93,1,128,0.2514954,0.2521362,0.162262,0.1517639,-0.005859375,0.04394531,0,1,3,0.03174603
408.892,0.000981,-0.01757812,-0.01757812,-0.09570312,-0.609375,0.9140625,8.304688,-0.046875,0.01953125,-0.09570312,0.04296875,0.01367188,0,-0.007080078,-0.002441406,0.01489258,0,0,-0.01928711,0.2027283,4.029,0,0,0,0.1719971,nan,2,11.94,1,128,0.1976929,0.2936401,0.1033325,0.2162781,-0.005859375,0.04394531,0,1,3,0
408.902,0.001012,-0.015625,0.05664062,-0.09960938,-2.03125,-5.320312,5.265625,-0.009765625,0.001953125,-0.08203125,0.04492188,0.015625,0,-0.007446289,-0.002563477,0.01403809,0,0,-0.01928711,0.2010498,4.029,0,0,0,0.1699829,nan,2,11.95,1,128,0.2038879,0.2828064,0.1351624,0.182373,-0.005859375,0.04394531,0,1,3,0
408.912,0.001013,0.0625,0.08984375,-0.06445312,1,-9.085938,6.71875,-0.00390625,0.03710938,-0.05078125,0.046875,0.015625,0,-0.00769043,-0.002441406,0.01342773,0,0,-0.01928711,0.1991882,4.029,0,0,0,0.1677856,nan,2,11.96,1,128,0.2361145,0.2342834,0.1801758,0.1462097,-0.005859375,0.04394531,0,1,3,0
408.922,0.001011,-0.05859375,0.06054688,-0.1210938,0.703125,-0.625,5.78125,-0.03320312,0.04101562,-0.1113281,0.046875,0.01367188,0,-0.00769043,-0.002075195,0.01257324,0,0,-0.01928711,0.1975098,4.029,0,0,0,0.1657715,nan,2,11.971,1,128,0.1679077,0.3082581,0.07824707,0.2356567,-0.005859375,0.04394531,0,1,3,0
408.932,0.001012,0.03320312,0.0078125,-0.09179688,0.296875,-1.710938,7.132812,0.04296875,-0.001953125,-0.09960938,0.046875,0.01171875,0,-0.00769043,-0.001953125,0.01147461,0,0,-0.01928711,0.1958313,4.029,0,0,0,0.1638184,nan,2,11.981,1,128,0.2118835,0.2765503,0.1386719,0.156189,-0.005859375,0.04394531,0,1,3,0
408.942,0.001008,-0.03320312,-0.05664062,-0.07421875,1.171875,2.515625,12.05469,0.02734375,-0.00390625,-0.07421875,0.04492188,0.01171875,0,-0.007446289,-0.001953125,0.01062012,0,0,-0.01928711,0.1941528,4.029,0,0,0,0.1618042,nan,2,11.991,1,128,0.2311707,0.2497864,0.145874,0.1497803,-0.005859375,0.04394531,0,1,3,0
408.951,0.001008,0.0859375,-0.015625,-0.0546875,1.414062,4.046875,10.54688,0.04101562,-0.03320312,-0.05859375,0.04296875,0.01367188,0,-0.007202148,-0.002075195,0.01000977,0,0,-0.01928711,0.192627,4.029,0,0,0,0.1599731,nan,2,12,1,128,0.2244568,0.2584229,0.1464844,0.1411743,-0.005859375,0.04394531,0,1,3,0
408.961,0.001008,0.15625,-0.009765625,-0.02148438,-1.640625,3.242188,17.11719,0.0546875,-0.005859375,-0.04101562,0.04296875,0.01367188,0,-0.007202148,-0.002319336,0.009399414,0,0,-0.01928711,0.1909485,4.029,0,0,0,0.15802,nan,2,12.01,1,128,0.2434082,0.2251587,0.1902466,0.10495,-0.005859375,0.04394531,0,1,3,0
408.972,0.001008,0.06054688,-0.04296875,-0.09179688,0.1640625,-2.546875,7.78125,0.01757812,-0.0078125,-0.0859375,0.04101562,0.01367188,0,-0.006958008,-0.002319336,0.008666992,0,0,-0.01928711,0.18927,4.029,0,0,0,0.1560059,nan,2,12.02,1,128,0.1798706,0.2940979,0.09793091,0.1851501,-0.005859375,0.04394531,0,1,3,0
408.982,0.001008,0.08398438,-0.02929688,-0.06640625,0.015625,3.703125,10.92188,0.03125,0.02148438,-0.08398438,0.04101562,0.01171875,0,-0.006958008,-0.002075195,0.0078125,0,0,-0.01928711,0.1875916,4.029,0,0,0,0.1539917,nan,2,12.03,1,128,0.2061768,0.2565308,0.1392822,0.1483459,-0.005859375,0.04394531,0,1,3,0
408.992,0.001008,-0.015625,0.04101562,-0.09960938,-0.1640625,-0.3125,11.47656,0.02734375,-0.01171875,-0.0859375,0.0390625,0.01367188,0,-0.006591797,-0.002319336,0.006958008,0,0,-0.01928711,0.1858826,4.029,0,0,0,0.1519775,nan,2,12.04,1,128,0.1901245,0.2722778,0.1108704,0.1703186,-0.005859375,0.04394531,0,1,3,0
409.002,0.001013,0.06445312,-0.0234375,-0.1191406,-0.3671875,0.4375,9.726562,0.0078125,-0.01757812,-0.1230469,0.04101562,0.01367188,0,-0.006713867,-0.002319336,0.005859375,0,0,-0.01928711,0.1842041,4.029,0,0,0,0.1500244,nan,2,12.05,1,128,0.1622925,0.3031311,0.07818604,0.1932068,-0.005859375,0.04394531,0,1,3,0.7460318
409.012,0.000998,0.1054688,-0.001953125,-0.1054688,1.34375,2.265625,14.46094,0.03710938,0.01171875,-0.1074219,0.0390625,0.01367188,0,-0.006591797,-0.002197266,0.004760742,0,0,-0.01928711,0.1825256,4.029,0,0,0,0.1480103,nan,2,12.06,1,128,0.1797791,0.2719116,0.1149902,0.1633911,-0.005859375,0.04394531,0,1,3,0
409.022,0.001011,-0.09179688,-0.01953125,-0.109375,0.1484375,-1.875,3.984375,-0.06445312,0.01171875,-0.1054688,0.0390625,0.01171875,0,-0.006713867,-0.001953125,0.003662109,0,0,-0.01928711,0.1806641,4.029,0,0,0,0.145813,nan,2,12.071,1,128,0.2102051,0.2436829,0.09362793,0.1751709,-0.005859375,0.04394531,0,1,3,0
409.031,0.001008,-0.1503906,-0.01953125,-0.1015625,-0.375,-0.7265625,12.42969,-0.05273438,-0.0234375,-0.08398438,0.04101562,0.01367188,0,-0.006958008,-0.002197266,0.002929688,0,0,-0.01928711,0.1791687,4.029,0,0,0,0.1439819,nan,2,12.08,1,128,0.217926,0.2379456,0.106842,0.1539001,-0.005859375,0.04394531,0,1,3,0
409.041,0.001039,0.005859375,0.04296875,-0.0625,-0.7421875,-1.648438,4.539062,-0.0078125,0.015625,-0.0859375,0.04296875,0.01171875,0,-0.007202148,-0.002075195,0.001953125,0,0,-0.01928711,0.1774597,4.029,0,0,0,0.1419678,nan,2,12.09,1,128,0.2042847,0.2333069,0.1310425,0.1412659,-0.005859375,0.04394531,0,1,3,0
409.051,0.000999,-0.01953125,0.01757812,-0.08203125,0.359375,3.53125,16.1875,-0.06835938,0.005859375,-0.07617188,0.04492188,0.01171875,0,-0.007568359,-0.002075195,0.001220703,0,0,-0.01928711,0.1757812,4.029,0,0,0,0.1400146,nan,2,12.1,1,128,0.2060547,0.2327576,0.1059265,0.1583862,-0.005859375,0.04394531,0,1,3,0
409.062,0.001029,0.005859375,0.01367188,-0.07421875,0.0703125,2.507812,5.375,0.005859375,0.005859375,-0.07421875,0.04492188,0.01171875,0,-0.007568359,-0.001953125,0.0003662109,0,0,0.0003662109,0.1774902,4.029,0,0,0,0.1400146,nan,4,12.11,1,128,0.160675,0.1935425,0.1607056,0.1949768,0,0,0,1,6,0
409.071,0.001014,0.1015625,0.0078125,-0.0625,0.8359375,-3.898438,14.4375,0.02734375,0.03125,-0.0625,0.04492188,0.01171875,0,-0.00769043,-0.001831055,-0.0002441406,0,0,-0.0002441406,0.1791382,4.029,0,0,0,0.1400146,nan,4,12.12,1,128,0.1549988,0.1960449,0.1721191,0.1934509,0,0,0,1,6,0
409.082,0.001014,0.0859375,-0.01757812,-0.078125,-1.914062,5.757812,15.39062,0.03515625,0.001953125,-0.09570312,0.04492188,0.01171875,0,-0.007568359,-0.001831055,-0.001098633,0,0,-0.001098633,0.1808472,4.029,0,0,0,0.1400146,nan,4,12.13,1,128,0.1368103,0.2267761,0.144989,0.2147522,0,0,0,1,6,0
409.092,0.001014,-0.04101562,0.109375,-0.109375,-0.9375,-10.47656,-1.53125,-0.02929688,0.02734375,-0.1035156,0.046875,0.01171875,0,-0.00769043,-0.001831055,-0.002075195,0,0,-0.002075195,0.1825256,4.029,0,0,0,0.1400146,nan,4,12.14,1,128,0.1454468,0.206665,0.1443787,0.2335815,0,0,0,1,6,0
409.102,0.001014,0.08007812,-0.1015625,-0.07617188,0.4140625,2.257812,8.742188,0.005859375,-0.02929688,-0.08789062,0.046875,0.009765625,0,-0.0078125,-0.001708984,-0.003173828,0,0,-0.003173828,0.1842041,4.029,0,0,0,0.1400146,nan,4,12.15,1,128,0.1871948,0.1996765,0.1737976,0.1761169,0,0,0,1,6,0
409.112,0.001014,0.0078125,-0.0234375,-0.0546875,0.9296875,-1.351562,8.179688,0.01757812,-0.01367188,-0.06445312,0.04492188,0.009765625,0,-0.007568359,-0.001831055,-0.00390625,0,0,-0.00390625,0.1858826,4.029,0,0,0,0.1400146,nan,4,12.16,1,128,0.1994324,0.1811523,0.1849976,0.1779175,0,0,0,1,6,0
409.122,0.000989,-0.01953125,0.109375,-0.08007812,-0.4296875,3.476562,16.40625,0.02929688,0.005859375,-0.0703125,0.04296875,0.01171875,0,-0.007324219,-0.001831055,-0.004638672,0,0,-0.004638672,0.187561,4.029,0,0,0,0.1400146,nan,4,12.171,1,128,0.1657104,0.2012939,0.1723633,0.210907,0,0,0,1,6,0
409.132,0.00101,0.05273438,0.04882812,-0.07226562,0.03125,-5.523438,4.453125,0.01171875,0.02148438,-0.05859375,0.04296875,0.009765625,0,-0.007202148,-0.001708984,-0.005371094,0,0,-0.005371094,0.1892395,4.029,0,0,0,0.1400146,nan,4,12.181,1,128,0.1806641,0.1913452,0.1833496,0.2016602,0,0,0,1,6,0
409.142,0.00101,-0.02929688,-0.03320312,-0.09179688,2.328125,0.140625,4.515625,-0.02734375,-0.01171875,-0.0859375,0.04492188,0.01171875,0,-0.007324219,-0.001831055,-0.006103516,0,0,-0.006103516,0.1909485,4.029,0,0,0,0.1400146,nan,4,12.191,1,128,0.1599426,0.2263184,0.1422119,0.23526,0,0,0,1,6,0
409.151,0.00101,0.125,0.001953125,-0.08007812,0.6953125,-3.71875,3.234375,0.005859375,0.015625,-0.07617188,0.04492188,0.01171875,0,-0.007568359,-0.001831055,-0.006835938,0,0,-0.006835938,0.1924438,4.029,0,0,0,0.1400146,nan,4,12.2,1,128,0.159729,0.2207947,0.1730042,0.2162476,0,0,0,1,6,0
409.161,0.001008,-0.00390625,0.01757812,-0.0546875,0.1640625,6.367188,13.54688,0.001953125,0.01171875,-0.06640625,0.04492188,0.009765625,0,-0.007568359,-0.001708984,-0.007568359,0,0,-0.007568359,0.1941223,4.029,0,0,0,0.1400146,nan,4,12.21,1,128,0.1882935,0.1969604,0.1882019,0.203064,0.0009765625,0,0,1,6,0
409.171,0.001005,0.02734375,-0.05859375,-0.1132812,-2.335938,7.65625,15.58594,0.01953125,-0.03515625,-0.09570312,0.04492188,0.01171875,0,-0.007568359,-0.001831055,-0.008422852,0,0,-0.008422852,0.1958008,4.029,0,0,0,0.1400146,nan,4,12.22,1,128,0.1484375,0.2598267,0.133728,0.2413025,0.0009765625,0,0,1,6,0
409.182,0.001064,-0.01953125,0.02539062,-0.1132812,0.578125,-6.882812,7.773438,-0.0078125,-0.015625,-0.1210938,0.04492188,0.01171875,0,-0.007568359,-0.001953125,-0.009521484,0,0,-0.009521484,0.1975098,4.029,0,0,0,0.1400146,nan,4,12.23,1,128,0.1526489,0.2477722,0.1362915,0.2532959,0.0009765625,0,0,1,6,0
409.192,0.000988,0.04492188,-0.02539062,-0.07226562,1.5625,-0.09375,11.1875,0.04101562,0.0078125,-0.0859375,0.04296875,0.01171875,0,-0.007324219,-0.001953125,-0.01049805,0,0,-0.01049805,0.1991882,4.029,0,0,0,0.1400146,nan,4,12.24,1,128,0.2006531,0.1966248,0.2064819,0.1929626,0.0009765625,0,0,1,6,0
409.202,0.001003,-0.0078125,-0.05859375,-0.04101562,0.75,-8.101562,11.03125,-0.0078125,-0.005859375,-0.08398438,0.04296875,0.009765625,0,-0.007080078,-0.001708984,-0.01147461,0,0,-0.01147461,0.2008667,4.029,0,0,0,0.1400146,nan,4,12.25,1,128,0.2129517,0.2001343,0.18396,0.2064514,0.0009765625,0,0,1,6,0
409.212,0.001036,-0.1289062,0.0859375,-0.1171875,1.203125,-4.21875,17.88281,0.005859375,0.005859375,-0.09765625,0.04101562,0.01171875,0,-0.006835938,-0.002075195,-0.01220703,0,0,-0.01220703,0.2025452,4.029,0,0,0,0.1400146,nan,4,12.26,1,128,0.1437988,0.2486267,0.1402893,0.2774963,0.0009765625,0,0,1,6,0
409.222,0.001006,0.08789062,-0.0546875,-0.07617188,-0.0625,0.3671875,14.58594,-0.015625,-0.01757812,-0.07617188,0.04296875,0.01171875,0,-0.007080078,-0.002075195,-0.01318359,0,0,-0.01318359,0.2042236,4.037,0,0,0,0.1400146,nan,4,12.27,1,128,0.2059631,0.213501,0.1896667,0.2077942,0.0009765625,0,0,1,6,0
409.232,0.001003,0.05664062,-0.1464844,0.0078125,0.6015625,0.1328125,11.03906,-0.015625,-0.06835938,-0.009765625,0.04296875,0.01367188,0,-0.007202148,-0.002197266,-0.0135498,0,0,-0.0135498,0.2059021,4.037,0,0,0,0.1400146,nan,4,12.281,1,128,0.2764587,0.1674805,0.2392883,0.1404419,0.0009765625,0,0,1,6,0
409.242,0.001012,0.015625,0.009765625,-0.01367188,3.382812,-0.5,10.16406,0.005859375,0,-0.0234375,0.04296875,0.01367188,0,-0.007202148,-0.002441406,-0.0135498,0,0,-0.0135498,0.2076111,4.037,0,0,0,0.1400146,nan,4,12.291,1,128,0.1858215,0.2273254,0.1851807,0.2320862,0.0009765625,0,0,1,6,0
409.251,0.001007,-0.03515625,0.04882812,-0.06054688,-0.2109375,-8.023438,10.74219,-0.03320312,-0.005859375,-0.01171875,0.04296875,0.015625,0,-0.007324219,-0.002563477,-0.01367188,0,0,-0.01367188,0.2091064,4.037,0,0,0,0.1400146,nan,4,12.3,1,128,0.2007751,0.2173767,0.1805115,0.2378235,0.0009765625,0,0,1,6,0
409.261,0.001012,0.02734375,-0.00390625,-0.05273438,-1.726562,-4.632812,12.07812,-0.009765625,-0.01171875,-0.05078125,0.04492188,0.015625,0,-0.007446289,-0.002563477,-0.01403809,0,0,-0.01403809,0.2107849,4.037,0,0,0,0.1400146,nan,4,12.31,1,128,0.1789246,0.2485657,0.1655884,0.2500916,0.0009765625,0,0,1,6,0
409.272,0.001012,-0.046875,-0.06640625,-0.02929688,0.953125,-7.90625,11.77344,-0.005859375,-0.03320312,-0.04492188,0.04492188,0.01757812,0,-0.007446289,-0.002807617,-0.01452637,0,0,-0.01452637,0.2124939,4.037,0,0,0,0.1400146,nan,4,12.32,1,128,0.2192688,0.2176514,0.1995544,0.2134399,0.0009765625,0,0,1,6,0
409.282,0.001012,-0.07226562,-0.005859375,0.015625,0.4453125,-6.164062,8.054688,-0.0390625,0.00390625,0.01367188,0.046875,0.01757812,0,-0.00793457,-0.003051758,-0.01464844,0,0,-0.01464844,0.2141724,4.037,0,0,0,0.1400146,nan,4,12.33,1,128,0.2644043,0.1574402,0.2540894,0.1807251,0.0009765625,0,0,1,6,0.2380952
409.292,0.001012,0.02734375,0.02539062,0.07421875,-2.015625,-1.945312,7.257812,-0.015625,0.005859375,0.04492188,0.05078125,0.01757812,0,-0.008422852,-0.003051758,-0.0144043,0,0,-0.0144043,0.2158508,4.037,0,0,0,0.1400146,nan,4,12.34,1,128,0.2790833,0.1527405,0.2811279,0.1504211,0.0009765625,0,0,1,6,0
409.302,0.001012,0.01953125,-0.04492188,-0.009765625,1.078125,3.351562,9.085938,0.03125,-0.04882812,0.0234375,0.05078125,0.01953125,0,-0.008300781,-0.003173828,-0.01391602,0,0,-0.01391602,0.2175293,4.037,0,0,0,0.1400146,nan,4,12.35,1,128,0.188324,0.2681274,0.1713867,0.2423096,0.0009765625,0,0,1,6,0.8730159
409.312,0.001012,-0.03710938,0,0.08398438,-2.179688,5.765625,11.23438,0.03515625,-0.01757812,0.05664062,0.046875,0.02148438,0,-0.00793457,-0.003417969,-0.01367188,0,0,-0.01367188,0.2192078,4.037,0,0,0,0.1400146,nan,4,12.36,1,128,0.2909851,0.1513977,0.2810669,0.1533813,0.0009765625,0,0,1,6,0
409.322,0.001014,-0.01367188,0.03710938,0.08789062,1.539062,0.3125,5.203125,0.01367188,0.02148438,0.0859375,0.046875,0.02148438,0,-0.00769043,-0.003540039,-0.01281738,0,0,-0.01281738,0.2208862,4.037,0,0,0,0.1400146,nan,4,12.37,1,128,0.2652283,0.1670227,0.2631226,0.1882019,0.0009765625,0.0009765625,0,1,6,0
409.332,0.001015,0.09179688,0.03515625,0.1054688,-0.84375,6.039062,15.89062,0.009765625,0.01367188,0.07421875,0.046875,0.02148438,0,-0.0078125,-0.003417969,-0.01220703,0,0,-0.01220703,0.2225952,4.037,0,0,0,0.1400146,nan,4,12.381,1,128,0.2593994,0.1845398,0.2612915,0.1850891,0.0009765625,0.0009765625,0,1,6,0
409.342,0.001022,0.03320312,0.005859375,0.09375,-1.421875,3.117188,12.88281,-0.0078125,0.001953125,0.09570312,0.046875,0.01953125,0,-0.0078125,-0.003417969,-0.01123047,0,0,-0.01123047,0.2242737,4.037,0,0,0,0.1400146,nan,4,12.391,1,128,0.2682495,0.183075,0.2570801,0.1886597,0.0009765625,0.0009765625,0,1,6,0
409.352,0.001012,-0.08789062,0.02929688,0.00390625,1.375,-9.4375,9.539062,0.00390625,0.009765625,0.03125,0.04492188,0.01953125,0,-0.007568359,-0.003295898,-0.01062012,0,0,-0.01062012,0.2259521,4.037,0,0,0,0.1400146,nan,4,12.401,1,128,0.1778564,0.2744446,0.1624146,0.2890625,0.0009765625,0.0009765625,0,1,6,0
409.361,0.00101,-0.02148438,0.04492188,-0.046875,2.03125,-5.59375,6.664062,-0.03125,0.046875,-0.01171875,0.046875,0.01757812,0,-0.00793457,-0.003051758,-0.01049805,0,0,-0.01049805,0.2274475,4.037,0,0,0,0.1400146,nan,4,12.41,1,128,0.1692505,0.276886,0.1582947,0.3054199,0.0009765625,0.0009765625,0,1,6,0
409.371,0.001008,0.005859375,0.02734375,0.02929688,0.9296875,1.179688,9.664062,0.01953125,0.03515625,-0.01953125,0.046875,0.015625,0,-0.00769043,-0.002685547,-0.01074219,0,0,-0.01074219,0.2291565,4.037,0,0,0,0.1400146,nan,4,12.42,1,128,0.2373047,0.2183533,0.2349548,0.2260132,0.0009765625,0.0009765625,0,1,6,0.6349207
409.382,0.001008,0.04296875,0.0234375,0.05273438,-1.257812,-0.7890625,6.703125,-0.01757812,0.02148438,0.04882812,0.046875,0.015625,0,-0.00793457,-0.002563477,-0.01049805,0,0,-0.01049805,0.230835,4.037,0,0,0,0.1400146,nan,4,12.43,1,128,0.2886963,0.1730042,0.2807312,0.1808472,0.001953125,0.0009765625,0,1,6,0
409.392,0.001008,0.01171875,-0.07226562,-0.05664062,2.640625,-2.59375,2.507812,0.0234375,-0.05859375,0,0.046875,0.01757812,0,-0.0078125,-0.002807617,-0.01013184,0,0,-0.01013184,0.2325134,4.037,0,0,0,0.1400146,nan,4,12.44,1,128,0.191803,0.2948303,0.1708374,0.2725525,0.001953125,0.0009765625,0,1,6,0
409.402,0.001008,0.046875,-0.0078125,0.01757812,2.164062,-5.59375,5.296875,0.07421875,-0.00390625,0.02148438,0.04492188,0.01953125,0,-0.007324219,-0.003173828,-0.01000977,0,0,-0.01000977,0.2341919,4.037,0,0,0,0.1400146,nan,4,12.45,1,128,0.2346802,0.2294006,0.2495117,0.223175,0.001953125,0.0009765625,0,1,6,0
409.412,0.001008,0.05078125,0.00390625,0.1269531,-1.976562,-5.046875,9.5625,0.03710938,-0.02734375,0.09765625,0.04101562,0.02148438,0,-0.006713867,-0.003540039,-0.009399414,0,0,-0.009399414,0.2358704,4.037,0,0,0,0.1400146,nan,4,12.46,1,128,0.3377991,0.138092,0.3251343,0.1424866,0.001953125,0.0009765625,0,1,6,0
409.422,0.001016,-0.01367188,0.0625,0.09960938,-2.867188,-0.1640625,8.835938,0.0234375,-0.00390625,0.1152344,0.0390625,0.02148438,0,-0.006469727,-0.00378418,-0.008178711,0,0,-0.009277344,0,4.037,0,0,0,0.1400146,nan,4,12.47,0,0,0,0,0,0,0,0,0,1,6,1
409.432,0.001011,0.001953125,0.01171875,0.1113281,0.1875,-3.765625,5.585938,0.0234375,-0.001953125,0.1132812,0.0390625,0.02148438,0,-0.005981445,-0.00390625,-0.006958008,0,0,-0.009277344,0,4.037,0,0,0,0.1400146,nan,4,12.481,0,0,0,0,0,0,0,0,0,1,6,0
409.442,0.001009,0,-0.01757812,0.04882812,-0.5859375,5.304688,11.47656,-0.001953125,0.01757812,0.07226562,0.0390625,0.02148438,0,-0.005981445,-0.00378418,-0.005981445,0,0,-0.009277344,0,4.037,0,0,0,0.1400146,nan,4,12.491,0,0,0,0,0,0,0,0,0,1,6,0
409.452,0.00101,0.04101562,-0.00390625,-0.07617188,0.359375,-1.390625,16.17188,0.005859375,-0.00390625,-0.0390625,0.0390625,0.02148438,0,-0.006103516,-0.00378418,-0.005859375,0,0,-0.009277344,0,4.037,0,0,0,0.1400146,nan,4,12.501,0,0,0,0,0,0,0,0,0,1,6,0
409.462,0.001001,0.001953125,0.03125,-0.03515625,1.554688,-1.046875,14.64844,0.01367188,0.001953125,-0.04492188,0.0390625,0.02148438,0,-0.006103516,-0.00378418,-0.006347656,0,0,-0.009277344,0,4.037,0,0,0,0.1400146,nan,4,12.511,0,0,0,0,0,0,0,0,0,1,6,0
409.472,0.00101,-0.0078125,-0.03515625,-0.00390625,3.640625,-2.515625,4.335938,-0.01953125,0.005859375,-0.0078125,0.0390625,0.02148438,0,-0.006347656,-0.003662109,-0.006591797,0,0,-0.009277344,0,4.037,0,0,0,0.1400146,nan,4,12.521,0,0,0,0,0,0,0,0,0,1,6,0
409.482,0.002598,0,0.0078125,0.01367188,-0.953125,0.1796875,14.80469,-0.0078125,0.001953125,0.00390625,0.0390625,0.02148438,0,-0.006713867,-0.003662109,-0.006591797,0,0,-0.009277344,0,4.037,0,0,0,0.1400146,nan,4,12.531,0,0,0,0,0,0,0,0,0,1,6,0
409.491,0.00101,-0.0546875,0.015625,0.04296875,-0.6640625,4.765625,14.03906,-0.01757812,0.009765625,0.02929688,0.0390625,0.02148438,0,-0.006835938,-0.003540039,-0.006469727,0,0,-0.009277344,0,4.037,0,0,0,0.1400146,nan,4,12.54,0,0,0,0,0,0,0,0,0,1,6,0
409.501,0.00101,-0.01367188,0.0234375,0.04101562,-0.703125,5.703125,12.10156,0.015625,-0.00390625,0.0390625,0.0390625,0.02148438,0,-0.006591797,-0.00378418,-0.006103516,0,0,-0.009277344,0,4.037,0,0,0,0.1400146,nan,4,12.55,0,0,0,0,0,0,0,0,0,1,6,0
409.512,0.001011,-0.01171875,0.0234375,0.0390625,-1.210938,-1.078125,11.77344,0.0078125,-0.005859375,0.03710938,0.0390625,0.02148438,0,-0.006469727,-0.00378418,-0.005737305,0,0,-0.009277344,0,4.037,0,0,0,0.1400146,nan,4,12.56,0,0,0,0,0,0,0,0,0,1,6,0
409.522,0.001011,0.03710938,0.01953125,0.009765625,-0.328125,-1.898438,11.22656,0.015625,0.0078125,0.02539062,0.0390625,0.02148438,0,-0.006225586,-0.00390625,-0.005371094,0,0,-0.009277344,0,4.037,0,0,0,0.1400146,nan,4,12.57,0,0,0,0,0,0,0,0,0,1,6,0
409.532,0.001002,-0.015625,0.01171875,-0.01367188,1.953125,-0.5234375,9.40625,0.001953125,0.005859375,-0.001953125,0.0390625,0.02148438,0,-0.006103516,-0.00378418,-0.005249023,0,0,-0.009277344,0,4.037,0,0,0,0.1400146,nan,4,12.581,0,0,0,0,0,0,0,0,0,1,6,1
409.542,0.001009,-0.01757812,0.001953125,-0.046875,-0.4140625,-0.203125,13.75781,0.001953125,0.001953125,-0.02929688,0.0390625,0.02148438,0,-0.005981445,-0.00378418,-0.005493164,0,0,-0.009277344,0,4.037,0,0,0,0.1400146,nan,4,12.591,0,0,0,0,0,0,0,0,0,1,6,0
409.552,0.00101,-0.02148438,0.00390625,-0.0625,-1.015625,3.5,14.76562,-0.00390625,-0.001953125,-0.05664062,0.0390625,0.02148438,0,-0.006103516,-0.00378418,-0.005981445,0,0,-0.009277344,0,4.037,0,0,0,0.1400146,nan,4,12.601,0,0,0,0,0,0,0,0,0,1,6,0
409.562,0.00101,0.015625,-0.04101562,-0.0625,-1.125,2.367188,12.89062,0.005859375,0,-0.0703125,0.0390625,0.02148438,0,-0.006103516,-0.00378418,-0.006591797,0,0,-0.009277344,0,4.037,0,0,0,0.1400146,nan,4,12.611,0,0,0,0,0,0,0,0,0,1,6,0
409.572,0.001008,0.0234375,-0.03320312,-0.02539062,-0.4453125,-0.8671875,14.01562,0.0078125,-0.01367188,-0.04492188,0.0390625,0.02148438,0,-0.006103516,-0.00378418,-0.007202148,0,0,-0.009277344,0,4.037,0,0,0,0.1400146,nan,4,12.621,0,0,0,0,0,0,0,0,0,1,6,0
409.581,0.001012,0.02539062,-0.001953125,0,-1.078125,1.078125,10.25,0.0078125,-0.009765625,-0.01367188,0.0390625,0.02148438,0,-0.006103516,-0.00378418,-0.007446289,0,0,-0.009277344,0,4.037,0,0,0,0.1400146,nan,4,12.63,0,0,0,0,0,0,0,0,0,1,6,1
409.591,0.00101,-0.005859375,-0.005859375,0.02929688,0.875,1.453125,10.28125,-0.0078125,-0.01171875,0.01171875,0.0390625,0.02148438,0,-0.005981445,-0.00390625,-0.007446289,0,0,-0.009277344,0,4.037,0,0,0,0.1400146,nan,4,12.64,0,0,0,0,0,0,0,0,0,1,6,1
409.602,0.001021,-0.0234375,0.01757812,0.06640625,0.28125,-0.609375,10.5,-0.01171875,0.015625,0.05273438,0.0390625,0.02148438,0,-0.005981445,-0.00390625,-0.007080078,0,0,-0.009277344,0,4.037,0,0,0,0.1400146,nan,4,12.65,0,0,0,0,0,0,0,0,0,1,6,1
409.612,0.001011,-0.001953125,0.05859375,-0.02539062,-1.039062,0.6484375,9.09375,0,0.00390625,0.0078125,0.0390625,0.02148438,0,-0.005981445,-0.00390625,-0.006713867,0,0,-0.009277344,0,4.037,0,0,0,0.1400146,nan,4,12.66,0,0,0,0,0,0,0,0,0,1,6,1
409.622,0.001,-0.015625,0.046875,-0.1054688,0.46875,0.2421875,9.976562,-0.005859375,0.01171875,-0.0859375,0.0390625,0.02148438,0,-0.005859375,-0.00390625,-0.007202148,0,0,-0.009277344,0,4.037,0,0,0,0.1400146,nan,4,12.67,0,0,0,0,0,0,0,0,0,1,6,1
409.632,0.001032,0.01171875,0.01171875,-0.0546875,-0.28125,-0.7421875,9.445312,0.001953125,-0.01367188,-0.0859375,0.0390625,0.02148438,0,-0.005859375,-0.00402832,-0.008178711,0,0,-0.009277344,0,4.037,0,0,0,0.1400146,nan,4,12.681,0,0,0,0,0,0,0,0,0,1,6,1
409.642,0.001025,-0.0078125,0.02148438,-0.01171875,-0.0546875,0.171875,9.21875,-0.01367188,0.01367188,-0.02539062,0.0390625,0.02148438,0,-0.005859375,-0.00390625,-0.008666992,0,0,-0.009277344,0,4.037,0,0,0,0.1400146,nan,4,12.691,0,0,0,0,0,0,0,0,0,1,6,1
409.652,0.00101,0.01367188,0.02929688,0.01171875,0.1015625,0.0625,11.16406,0,0.0234375,0,0.0390625,0.02148438,0,-0.005981445,-0.00378418,-0.008789062,0,0,-0.009277344,0,4.037,0,0,0,0.1400146,nan,4,12.701,0,0,0,0,0,0,0,0,0,1,6,0
409.662,0.00101,0.02148438,-0.08007812,0.01757812,0.1171875,1.117188,7.476562,0.005859375,-0.02148438,0.02148438,0.0390625,0.02148438,0,-0.005859375,-0.00378418,-0.008666992,0,0,-0.009277344,0,4.037,0,0,0,0.1400146,nan,4,12.711,0,0,0,0,0,0,0,0,0,1,6,0
409.672,0.001012,0.001953125,0.0234375,0.001953125,0.3671875,-2.046875,9.304688,0,0.001953125,0.001953125,0.0390625,0.02148438,0,-0.005859375,-0.00390625,-0.008544922,0,0,-0.009277344,0,4.037,0,0,0,0.1400146,nan,4,12.721,0,0,0,0,0,0,0,0,0,1,6,1
409.681,0.001001,-0.0078125,-0.0234375,-0.005859375,0.71875,2.59375,9.226562,0.0078125,-0.00390625,-0.00390625,0.0390625,0.02148438,0,-0.005737305,-0.00390625,-0.008544922,0,0,-0.009277344,0,4.037,0,0,0,0.1400146,nan,4,12.73,0,0,0,0,0,0,0,0,0,1,6,1
409.691,0.000999,-0.00390625,0.04492188,-0.03125,0.1015625,-0.6171875,12.19531,-0.005859375,0.01367188,-0.02539062,0.0390625,0.02148438,0,-0.005737305,-0.00390625,-0.008789062,0,0,-0.009277344,0,4.037,0,0,0,0.1400146,nan,4,12.74,0,0,0,0,0,0,0,0,0,1,6,0
409.701,0.001001,-0.009765625,0.02539062,-0.01953125,0.421875,0.2109375,16.14062,-0.01171875,-0.001953125,-0.02929688,0.0390625,0.02148438,0,-0.005737305,-0.00390625,-0.009033203,0,0,-0.009277344,0,4.037,0,0,0,0.1400146,nan,4,12.75,0,0,0,0,0,0,0,0,0,1,6,0
409.712,0.001001,0.005859375,0.03710938,-0.015625,2.203125,-0.546875,15.25781,-0.00390625,0.00390625,-0.02148438,0.0390625,0.02148438,0,-0.005859375,-0.00390625,-0.009277344,0,0,-0.009277344,0,4.037,0,0,0,0.1400146,nan,4,12.76,0,0,0,0,0,0,0,0,0,1,6,0
409.722,0.00101,-0.009765625,0.02929688,-0.02734375,-0.765625,4.710938,5.945312,0.00390625,0.01367188,-0.02148438,0.0390625,0.02148438,0,-0.005859375,-0.00390625,-0.009521484,0,0,-0.009277344,0,4.037,0,0,0,0.1400146,nan,4,12.77,0,0,0,0,0,0,0,0,0,1,6,0
409.732,0.001034,-0.03515625,0.01367188,0.00390625,0.3828125,2.023438,10.50781,-0.015625,0.01171875,-0.001953125,0.0390625,0.02148438,0,-0.005859375,-0.00390625,-0.009643555,0,0,-0.009277344,0,4.037,0,0,0,0,nan,4,0,0,0,0,0,0,0,0,0,0,1,6,1
409.742,0.001003,0.001953125,0.015625,0.005859375,0.3125,1.648438,9.640625,0.005859375,0.001953125,0.005859375,0.0390625,0.02148438,0,-0.005859375,-0.00378418,-0.009643555,0,0,-0.009277344,0,4.037,0,0,0,0,nan,4,0.01,0,0,0,0,0,0,0,0,0,1,6,1
409.752,0.001007,0.00390625,-0.009765625,0.0234375,-1.25,-5.546875,10.64844,-0.001953125,-0.001953125,0.0078125,0.0390625,0.02148438,0,-0.005859375,-0.00390625,-0.009521484,0,0,-0.009277344,0,4.037,0,0,0,0,nan,4,0.02,0,0,0,0,0,0,0,0,0,1,6,0
409.762,0.001009,0,-0.0078125,-0.01367188,-1.28125,2.265625,12.52344,-0.00390625,0.001953125,-0.001953125,0.0390625,0.02148438,0,-0.005859375,-0.00390625,-0.009521484,0,0,-0.009277344,0,4.037,0,0,0,0,nan,4,0,0,0,0,0,0,0,0,0,0,1,6,0
409.771,0.000998,-0.02148438,0.04296875,-0.009765625,-3.664062,-2.140625,11.10938,0.005859375,-0.005859375,-0.005859375,nan,nan,nan,-0.005859375,-0.00390625,-0.009521484,nan,nan,nan,0,4.037,0,0,0,0,nan,2,0.009,0,0,0,0,0,0,0,0,0,1,6,0
409.781,0.001016,-0.06054688,0.046875,0.03320312,-4.5625,-4.1875,8.265625,-0.01757812,0.01367188,0.02148438,nan,nan,nan,-0.005859375,-0.00390625,-0.009521484,0,0,-0.009521484,0,4.037,0,0,0,0,nan,2,0.019,0,0,0,0,0,0,0,0,0,1,2,1
409.791,0.001002,0.03125,-0.04882812,-0.015625,2.140625,4.875,7.960938,0.001953125,-0.009765625,0.01171875,nan,nan,nan,-0.005859375,-0.00390625,-0.009277344,0,0,-0.009277344,0,4.037,0,0,0,0,nan,2,0.029,0,0,0,0,0,0,0,0,0,1,2,1
409.802,0.001016,-0.01367188,0.03515625,0.001953125,-0.40625,1.523438,10.85938,-0.001953125,0.005859375,0.009765625,nan,nan,nan,-0.005859375,-0.00402832,-0.009155273,0,0,-0.009155273,0,4.037,0,0,0,0,nan,2,0.039,0,0,0,0,0,0,0,0,0,1,2,0
409.812,0.001009,0.03710938,-0.00390625,0.009765625,-3.34375,-0.5390625,10.16406,0.005859375,-0.00390625,0.001953125,nan,nan,nan,-0.005737305,-0.00402832,-0.009033203,0,0,-0.009033203,0,4.037,0,0,0,0,nan,2,0.049,0,0,0,0,0,0,0,0,0,1,2,1
409.822,0.001016,0.01953125,0.03125,-0.02734375,-0.671875,2.28125,10.79688,0,0.00390625,-0.00390625,nan,nan,nan,-0.005737305,-0.00402832,-0.009033203,0,0,-0.009033203,0,4.037,0,0,0,0,nan,2,0.06,0,0,0,0,0,0,0,0,0,1,2,0
409.832,0.001005,-0.01171875,-0.001953125,0,-0.21875,0.3046875,10.36719,-0.01171875,0.00390625,0.00390625,nan,nan,nan,-0.005737305,-0.00402832,-0.009033203,0,0,-0.009033203,0,4.037,0,0,0,0,nan,2,0.07,0,0,0,0,0,0,0,0,0,1,2,1
409.842,0.00101,0.01953125,-0.03710938,-0.01953125,2.15625,0.5859375,10.27344,0.01171875,-0.0078125,-0.0078125,nan,nan,nan,-0.005615234,-0.00402832,-0.009033203,0,0,-0.009033203,0,4.037,0,0,0,0,nan,2,0.08,0,0,0,0,0,0,0,0,0,1,2,1
409.852,0.001014,-0.09570312,-0.009765625,0.0234375,0.453125,-3.882812,9.21875,-0.015625,0.005859375,0.001953125,nan,nan,nan,-0.005615234,-0.00402832,-0.009155273,0,0,-0.009155273,0,4.037,0,0,0,0,nan,2,0.09,0,0,0,0,0,0,0,0,0,1,2,1
409.862,0.001009,-0.00390625,0.04101562,0,-1.789062,-0.09375,9.398438,-0.009765625,0.01171875,0.005859375,nan,nan,nan,-0.005615234,-0.00402832,-0.009033203,0,0,-0.009033203,0,4.037,0,0,0,0,nan,2,0.1,0,0,0,0,0,0,0,0,0,1,2,1
409.872,0.001009,0.009765625,-0.02148438,-0.0078125,1.273438,0.2734375,9.570312,-0.0078125,-0.005859375,0,nan,nan,nan,-0.005615234,-0.00402832,-0.009033203,0,0,-0.009033203,0,4.077,0,0,0,0,nan,2,0.11,0,0,0,0,0,0,0,0,0,1,2,1
409.881,0.00101,0.01757812,-0.00390625,0.009765625,0.3046875,-0.7578125,9.367188,0.00390625,0,0.00390625,nan,nan,nan,-0.005615234,-0.00390625,-0.009033203,0,0,-0.009033203,0,4.077,0,0,0,0,nan,2,0.119,0,0,0,0,0,0,0,0,0,1,2,1
409.892,0.001276,0.03320312,0.0078125,0,0.7578125,2.617188,8.992188,0.01171875,0,-0.001953125,nan,nan,nan,-0.005493164,-0.00402832,-0.009155273,0,0,-0.009155273,0,4.077,0,0,0,0,nan,2,0.13,0,0,0,0,0,0,0,0,0,1,2,1
409.902,0.001019,-0.02734375,-0.08789062,-0.005859375,2.507812,-1.695312,8.65625,-0.0078125,-0.0078125,0.001953125,nan,nan,nan,-0.005493164,-0.00402832,-0.009155273,0,0,-0.009155273,0,4.077,0,0,0,0,nan,2,0.139,0,0,0,0,0,0,0,0,0,1,2,1
409.912,0.00101,0.08984375,0.04492188,0.00390625,-1.125,0.5390625,10.11719,0.005859375,0,0.00390625,nan,nan,nan,-0.005371094,-0.00402832,-0.009155273,0,0,-0.009155273,0,4.077,0,0,0,0,nan,2,0.149,0,0,0,0,0,0,0,0,0,1,2,1
409.922,0.001002,0.01953125,0.02734375,0.02929688,-0.875,-0.53125,9.640625,0.001953125,0.015625,0.005859375,nan,nan,nan,-0.005371094,-0.00402832,-0.009155273,0,0,-0.009155273,0,4.077,0,0,0,0,nan,2,0.16,0,0,0,0,0,0,0,0,0,1,2,1
409.932,0.00101,-0.09375,0.01757812,-0.02539062,0.0859375,-0.2265625,10.44531,-0.01171875,0.0078125,-0.001953125,nan,nan,nan,-0.005371094,-0.00402832,-0.009033203,0,0,-0.009033203,0,4.077,0,0,0,0,nan,2,0.17,0,0,0,0,0,0,0,0,0,1,2,1
409.942,0.001001,0.0625,0.0078125,-0.02539062,0.5078125,-0.203125,9.101562,0.01171875,-0.009765625,-0.00390625,nan,nan,nan,-0.005371094,-0.00402832,-0.009155273,0,0,-0.009155273,0,4.077,0,0,0,0,nan,2,0.18,0,0,0,0,0,0,0,0,0,1,2,1
409.952,0.001011,0.08203125,0.0390625,0.01757812,-0.390625,0.7265625,10.00781,0.00390625,0.01171875,0.00390625,nan,nan,nan,-0.005249023,-0.004150391,-0.009155273,0,0,-0.009155273,0,4.077,0,0,0,0,nan,2,0.19,0,0,0,0,0,0,0,0,0,1,2,1
409.962,0.00101,0.05664062,0.009765625,-0.005859375,0.3359375,0.046875,10.15625,0.0078125,0.001953125,0.001953125,nan,nan,nan,-0.005249023,-0.00402832,-0.009033203,0,0,-0.009033203,0,4.077,0,0,0,0,nan,2,0.2,0,0,0,0,0,0,0,0,0,1,2,1
409.972,0.00101,-0.001953125,-0.0234375,-0.0234375,0.625,0.7421875,9.859375,-0.001953125,0,-0.01171875,nan,nan,nan,-0.005249023,-0.00402832,-0.009155273,0,0,-0.009155273,0,4.077,0,0,0,0,nan,2,0.21,0,0,0,0,0,0,0,0,0,1,2,1
409.981,0.00101,0,0,0.009765625,-0.390625,0.2265625,10.09375,0,0.001953125,0.00390625,nan,nan,nan,-0.005126953,-0.004150391,-0.009155273,0,0,-0.009155273,0,4.077,0,0,0,0,nan,2,0.219,0,0,0,0,0,0,0,0,0,1,2,1
409.991,0.001002,0.0078125,0.0234375,0.015625,-0.1875,-0.2578125,9.882812,-0.00390625,0.005859375,0.0078125,nan,nan,nan,-0.005126953,-0.004150391,-0.009033203,0,0,-0.009033203,0,4.077,0,0,0,0,nan,2,0.229,0,0,0,0,0,0,0,0,0,1,2,1
410.002,0.00101,-0.0234375,0.015625,-0.009765625,-0.5390625,-0.3125,10.25,0,-0.001953125,0,nan,nan,nan,-0.005004883,-0.004150391,-0.009033203,0,0,-0.009033203,0,4.077,0,0,0,0,nan,2,0.239,0,0,0,0,0,0,0,0,0,1,2,1
410.012,0.00102,0.0234375,0.005859375,-0.00390625,0.4296875,-0.2109375,9.671875,0,-0.001953125,0.001953125,nan,nan,nan,-0.005004883,-0.004150391,-0.009033203,0,0,-0.009033203,0,4.077,0,0,0,0,nan,2,0.25,0,0,0,0,0,0,0,0,0,1,2,1
410.022,0.001004,-0.0390625,0.01367188,0,-0.2890625,-0.0234375,10.10938,-0.0078125,0.005859375,0.001953125,nan,nan,nan,-0.005004883,-0.004150391,-0.009033203,0,0,-0.009033203,0,4.077,0,0,0,0,nan,2,0.26,0,0,0,0,0,0,0,0,0,1,2,1
410.032,0.0009860001,0.005859375,0.00390625,0,0.3515625,-0.046875,9.710938,-0.001953125,0,-0.001953125,nan,nan,nan,-0.005004883,-0.00402832,-0.009033203,0,0,-0.009033203,0,4.077,0,0,0,0,nan,2,0.27,0,0,0,0,0,0,0,0,0,1,2,1
410.042,0.001057,0.009765625,-0.01757812,0.02148438,-0.078125,-0.09375,9.953125,0.001953125,-0.0078125,0.00390625,nan,nan,nan,-0.005004883,-0.004150391,-0.009033203,0,0,-0.009033203,0,4.077,0,0,0,0,nan,2,0.28,0,0,0,0,0,0,0,0,0,1,2,1
410.052,0.001005,0,-0.001953125,0,0.171875,0.1328125,8.882812,0,0.001953125,0.005859375,nan,nan,nan,-0.005004883,-0.00402832,-0.009155273,0,0,-0.009155273,0,4.077,0,0,0,0,nan,2,0.29,0,0,0,0,0,0,0,0,0,1,2,1
410.062,0.001001,0.01171875,-0.01171875,-0.015625,0.1171875,-0.15625,10.28125,0.001953125,0,-0.00390625,nan,nan,nan,-0.004882812,-0.00402832,-0.009033203,0,0,-0.009033203,0,4.077,0,0,0,0,nan,2,0.3,0,0,0,0,0,0,0,0,0,1,2,1
410.072,0.001024,0.001953125,0,-0.0078125,-0.1875,-0.2109375,10.5,0,0.001953125,-0.001953125,nan,nan,nan,-0.004882812,-0.00402832,-0.009033203,0,0,-0.009033203,0,4.077,0,0,0,0,nan,2,0.31,0,0,0,0,0,0,0,0,0,1,2,1
410.081,0.00101,-0.005859375,-0.001953125,0.001953125,-0.1328125,-0.0859375,9.960938,-0.001953125,-0.001953125,-0.001953125,nan,nan,nan,-0.004882812,-0.00402832,-0.009155273,0,0,-0.009155273,0,4.077,0,0,0,0,nan,2,0.319,0,0,0,0,0,0,0,0,0,1,2,1
410.091,0.00101,-0.015625,0.005859375,-0.00390625,-0.015625,-0.296875,9.695312,0,0.00390625,0,nan,nan,nan,-0.004882812,-0.00402832,-0.009033203,0,0,-0.009033203,0,4.077,0,0,0,0,nan,2,0.329,0,0,0,0,0,0,0,0,0,1,2,1
410.102,0.00104,-0.0078125,-0.001953125,0.00390625,-0.1640625,0.109375,9.523438,-0.00390625,0,0.00390625,nan,nan,nan,-0.004882812,-0.00402832,-0.009033203,0,0,-0.009033203,0,4.077,0,0,0,0,nan,2,0.339,0,0,0,0,0,0,0,0,0,1,2,1
410.112,0.001001,0,0.00390625,0.00390625,0.078125,-0.0703125,9.523438,0,0.005859375,0.00390625,nan,nan,nan,-0.004882812,-0.00402832,-0.009033203,0,0,-0.009033203,0,4.077,0,0,0,0,nan,2,0.349,0,0,0,0,0,0,0,0,0,1,2,1
410.122,0.001033,0,-0.001953125,0.005859375,-0.1015625,0.28125,10.04688,-0.005859375,0,-0.005859375,nan,nan,nan,-0.004882812,-0.00402832,-0.009155273,0,0,-0.009155273,0,4.077,0,0,0,0,nan,2,0.36,0,0,0,0,0,0,0,0,0,1,2,1
410.132,0.001034,0,0,0.00390625,-0.0859375,-0.015625,9.789062,0.001953125,0,0.00390625,nan,nan,nan,-0.004760742,-0.00402832,-0.009033203,0,0,-0.009033203,0,4.077,0,0,0,0,nan,2,0.37,0,0,0,0,0,0,0,0,0,1,2,1
410.142,0.000979,0,-0.00390625,-0.01171875,0,0.0078125,9.929688,-0.001953125,-0.001953125,-0.00390625,nan,nan,nan,-0.004760742,-0.00402832,-0.009033203,0,0,-0.009033203,0,4.077,0,0,0,0,nan,2,0.38,0,0,0,0,0,0,0,0,0,1,2,1
410.152,0.001013,0,0.009765625,0.009765625,-0.0390625,0.2734375,9.789062,-0.001953125,0.001953125,0.001953125,nan,nan,nan,-0.004760742,-0.00390625,-0.009155273,0,0,-0.009155273,0,4.077,0,0,0,0,nan,2,0.39,0,0,0,0,0,0,0,0,0,1,2,1
410.162,0.001048,-0.00390625,-0.01171875,-0.00390625,0.0546875,-0.2421875,9.65625,0.001953125,-0.001953125,0.001953125,nan,nan,nan,-0.004760742,-0.00390625,-0.009033203,0,0,-0.009033203,0,4.077,0,0,0,0,nan,2,0.4,0,0,0,0,0,0,0,0,0,1,2,1
410.171,0.001021,-0.001953125,0,-0.005859375,0.125,0.21875,9.953125,-0.001953125,-0.001953125,-0.001953125,nan,nan,nan,-0.004760742,-0.00390625,-0.009155273,0,0,-0.009155273,0,4.077,0,0,0,0,nan,2,0.409,0,0,0,0,0,0,0,0,0,1,2,1
410.181,0.000996,-0.001953125,-0.005859375,0.001953125,0.1328125,-0.0859375,9.882812,0.001953125,0,0.00390625,nan,nan,nan,-0.004638672,-0.00390625,-0.009155273,0,0,-0.009155273,0,4.077,0,0,0,0,nan,2,0.419,0,0,0,0,0,0,0,0,0,1,2,1
410.191,0.00099,-0.005859375,0.005859375,-0.001953125,0.0234375,0.1015625,9.859375,-0.00390625,0.001953125,-0.005859375,nan,nan,nan,-0.004638672,-0.00390625,-0.009155273,0,0,-0.009155273,0,4.077,0,0,0,0,nan,2,0.429,0,0,0,0,0,0,0,0,0,1,2,1
410.202,0.000991,0,0,0.0078125,0.25,-0.109375,9.890625,0,0.001953125,0.001953125,nan,nan,nan,-0.004638672,-0.00390625,-0.009155273,0,0,-0.009155273,0,4.077,0,0,0,0,nan,2,0.439,0,0,0,0,0,0,0,0,0,1,2,1
410.212,0.00102,0.001953125,0,-0.00390625,-0.0234375,-0.09375,9.875,-0.001953125,-0.001953125,0.001953125,nan,nan,nan,-0.004638672,-0.00390625,-0.009033203,0,0,-0.009033203,0,4.077,0,0,0,0,nan,2,0.45,0,0,0,0,0,0,0,0,0,1,2,1
410.222,0.000991,0.001953125,0,-0.00390625,0,-0.125,9.78125,0.001953125,0.001953125,-0.00390625,nan,nan,nan,-0.004638672,-0.00390625,-0.009155273,0,0,-0.009155273,0,4.077,0,0,0,0,nan,2,0.46,0,0,0,0,0,0,0,0,0,1,2,1
410.232,0.00104,0.001953125,-0.005859375,0,0.0078125,0.0859375,9.867188,-0.001953125,-0.001953125,0,nan,nan,nan,-0.004638672,-0.00390625,-0.009155273,0,0,-0.009155273,0,4.077,0,0,0,0,nan,2,0.47,0,0,0,0,0,0,0,0,0,1,2,1
410.242,0.00102,0,0.001953125,0.00390625,0.1015625,-0.0234375,9.8125,0.001953125,0.001953125,0,nan,nan,nan,-0.004516602,-0.00390625,-0.009155273,0,0,-0.009155273,0,4.077,0,0,0,0,nan,2,0.48,0,0,0,0,0,0,0,0,0,1,2,1
410.252,0.00103,-0.001953125,-0.001953125,0.005859375,0.0078125,0.0234375,9.796875,-0.001953125,-0.001953125,0,nan,nan,nan,-0.004516602,-0.00390625,-0.009155273,0,0,-0.009155273,0,4.077,0,0,0,0,nan,2,0.49,0,0,0,0,0,0,0,0,0,1,2,1
410.262,0.001032,0.001953125,0.00390625,0,0.0859375,0.03125,9.78125,0,0.001953125,0,nan,nan,nan,-0.004516602,-0.00390625,-0.009155273,0,0,-0.009155273,0,4.077,0,0,0,0,nan,2,0.5,0,0,0,0,0,0,0,0,0,1,2,1
410.272,0.001028,-0.001953125,0.001953125,0.001953125,-0.0078125,0.03125,9.835938,0,0,0,nan,nan,nan,-0.004516602,-0.00390625,-0.009155273,0,0,-0.009155273,0,4.077,0,0,0,0,nan,2,0.51,0,0,0,0,0,0,0,0,0,1,2,1
410.281,0.001,-0.001953125,0.00390625,-0.001953125,0.03125,0.0078125,9.789062,-0.001953125,0.001953125,0,nan,nan,nan,-0.004394531,-0.00390625,-0.009155273,0,0,-0.009155273,0,4.077,0,0,0,0,nan,2,0.519,0,0,0,0,0,0,0,0,0,1,2,1
410.292,0.001007,-0.001953125,-0.001953125,0,0.046875,0.0625,9.796875,0,-0.001953125,0,nan,nan,nan,-0.004394531,-0.00390625,-0.009155273,0,0,-0.009155273,0,4.077,0,0,0,0,nan,2,0.529,0,0,0,0,0,0,0,0,0,1,2,1
410.302,0.000991,0.00390625,-0.001953125,0.001953125,0.0546875,0.015625,9.789062,0,0,0,nan,nan,nan,-0.004394531,-0.00390625,-0.009033203,0,0,-0.009033203,0,4.077,0,0,0,0,nan,2,0.539,0,0,0,0,0,0,0,0,0,1,2,1
410.312,0.00101,-0.001953125,-0.001953125,-0.001953125,-0.0078125,-0.03125,9.742188,-0.001953125,0,0,nan,nan,nan,-0.004394531,-0.00390625,-0.009033203,0,0,-0.009033203,0,4.077,0,0,0,0,nan,2,0.549,0,0,0,0,0,0,0,0,0,1,2,1
410.322,0.00101,0,0.001953125,0.001953125,0.03125,0.0078125,9.789062,0,0,0,nan,nan,nan,-0.004272461,-0.00390625,-0.009033203,0,0,-0.009033203,0,4.077,0,0,0,0,nan,2,0.56,0,0,0,0,0,0,0,0,0,1,2,1
410.332,0.001008,0.001953125,-0.001953125,0,0.03125,0.0390625,9.8125,0,0,0,nan,nan,nan,-0.004272461,-0.00390625,-0.009155273,0,0,-0.009155273,0,4.077,0,0,0,0,nan,2,0.57,0,0,0,0,0,0,0,0,0,1,2,1
410.342,0.001013,0,0,-0.00390625,0.015625,0.046875,9.757812,-0.001953125,0,0,nan,nan,nan,-0.004272461,-0.00390625,-0.009033203,0,0,-0.009033203,0,4.077,0,0,0,0,nan,2,0.58,0,0,0,0,0,0,0,0,0,1,2,1
410.352,0.001013,-0.001953125,-0.001953125,0,0.046875,-0.0078125,9.859375,-0.001953125,0,0,nan,nan,nan,-0.004272461,-0.00390625,-0.009155273,0,0,-0.009155273,0,4.077,0,0,0,0,nan,2,0.59,0,0,0,0,0,0,0,0,0,1,2,1
410.362,0.00101,-0.001953125,-0.001953125,0,-0.015625,-0.015625,9.835938,-0.001953125,-0.001953125,0,nan,nan,nan,-0.004272461,-0.00390625,-0.009033203,0,0,-0.009033203,0,4.077,0,0,0,0,nan,2,0.6,0,0,0,0,0,0,0,0,0,1,2,1
410.372,0.00101,-0.001953125,0.001953125,0,0.0625,0.03125,9.742188,0,0,0,nan,nan,nan,-0.004272461,-0.00390625,-0.009033203,0,0,-0.009033203,0,4.077,0,0,0,0,nan,2,0.61,0,0,0,0,0,0,0,0,0,1,2,1
410.381,0.00101,0.00390625,-0.001953125,0.00390625,0.0078125,0.0546875,9.734375,0,0,0.001953125,nan,nan,nan,-0.004150391,-0.00390625,-0.009033203,0,0,-0.009033203,0,4.077,0,0,0,0,nan,2,0.619,0,0,0,0,0,0,0,0,0,1,2,1
410.391,0.00101,-0.00390625,-0.001953125,0,0.0546875,0.0078125,9.835938,0,0,0,nan,nan,nan,-0.004150391,-0.00390625,-0.009033203,0,0,-0.009033203,0,4.077,0,0,0,0,nan,2,0.629,0,0,0,0,0,0,0,0,0,1,2,1
410.402,0.00101,0,0,-0.00390625,0.03125,0.03125,9.804688,0,0,-0.001953125,nan,nan,nan,-0.004150391,-0.00390625,-0.009033203,0,0,-0.009033203,0,4.077,0,0,0,0,nan,2,0.639,0,0,0,0,0,0,0,0,0,1,2,1
410.412,0.00101,-0.00390625,0,0,0.09375,0.046875,9.8125,-0.001953125,0,-0.001953125,nan,nan,nan,-0.004150391,-0.00390625,-0.009155273,0,0,-0.009155273,0,4.077,0,0,0,0,nan,2,0.649,0,0,0,0,0,0,0,0,0,1,2,1
