t,dt_s,gyro_x,gyro_y,gyro_z,acc_x,acc_y,acc_z,rates.x,rates.y,rates.z,ratesTarget.x,ratesTarget.y,ratesTarget.z,attitude.x,attitude.y,attitude.z,attitudeTarget.x,attitudeTarget.y,attitudeTarget.z,thrustTarget,battery_v,rc_roll,rc_pitch,rc_yaw,rc_throttle,rc_mode,flight_mode,rc_age_s,armed,fault_mask,motor_rl,motor_rr,motor_fr,motor_fl,rate_i_x,rate_i_y,rate_i_z,mix_scale,control_source,accel_correction_confidence
59.036,0.001008,0.00390625,0.001953125,-0.001953125,-0.0390625,0.0390625,9.84375,0,0,-0.001953125,0,0,0,0.005004883,0.005615234,-0.001831055,0,0,-0.001831055,0,4.077,0,0,0,0,nan,2,-1,0,0,0,0,0,0,0,0,0,1,1,1
59.046,0.001008,0,0.00390625,-0.001953125,-0.03125,0.078125,9.875,0,0.001953125,-0.001953125,0,0,0,0.005004883,0.005615234,-0.001831055,0,0,-0.001831055,0,4.077,0,0,0,0,nan,2,-1,0,0,0,0,0,0,0,0,0,1,1,1
59.057,0.001008,0.001953125,0,-0.001953125,-0.0390625,0.0703125,9.78125,0.001953125,0.001953125,0,0,0,0,0.005004883,0.005615234,-0.001831055,0,0,-0.001831055,0,4.077,0,0,0,0,nan,2,-1,0,0,0,0,0,0,0,0,0,1,1,1
59.067,0.001008,0.00390625,0,-0.001953125,-0.0625,0.0078125,9.84375,0.001953125,0,0,0,0,0,0.005004883,0.005615234,-0.001831055,0,0,-0.001831055,0,4.077,0,0,0,0,nan,2,-1,0,0,0,0,0,0,0,0,0,1,1,1
59.077,0.001008,0.00390625,0.001953125,0,-0.0625,0.0390625,9.804688,0.00390625,0,0,0,0,0,0.005004883,0.005615234,-0.001708984,0,0,-0.001708984,0,4.077,0,0,0,0,nan,2,-1,0,0,0,0,0,0,0,0,0,1,1,1
59.087,0.001008,-0.001953125,0.001953125,-0.001953125,-0.0703125,0.0625,9.8125,0,0.001953125,0,0,0,0,0.005004883,0.005615234,-0.001831055,0,0,-0.001831055,0,4.077,0,0,0,0,nan,2,-1,0,0,0,0,0,0,0,0,0,1,1,1
59.097,0.001018,0,0,0,-0.0390625,0.078125,9.90625,0,0,-0.001953125,0,0,0,0.005004883,0.005615234,-0.001831055,0,0,-0.001831055,0,4.077,0,0,0,0,nan,2,-1,0,0,0,0,0,0,0,0,0,1,1,1
59.107,0.001002,0,0.001953125,-0.001953125,-0.0546875,0.0234375,9.828125,0,0,0,0,0,0,0.005004883,0.005615234,-0.001831055,0,0,-0.001831055,0,4.077,0,0,0,0,nan,2,-1,0,0,0,0,0,0,0,0,0,1,1,1
59.117,0.001009,0,0,0,-0.046875,0,9.835938,0.001953125,0,-0.001953125,0,0,0,0.005004883,0.005615234,-0.001831055,0,0,-0.001831055,0,4.077,0,0,0,0,nan,2,-1,0,0,0,0,0,0,0,0,0,1,1,1
59.127,0.001009,0,-0.001953125,0.001953125,-0.0546875,0.0625,9.835938,0.001953125,-0.001953125,0,0,0,0,0.005004883,0.005615234,-0.001831055,0,0,-0.001831055,0,4.077,0,0,0,0,nan,2,-1,0,0,0,0,0,0,0,0,0,1,1,1
59.136,0.000978,0.001953125,0,0.00390625,-0.0625,0.0390625,9.84375,0.001953125,0,0.001953125,0,0,0,0.005004883,0.005615234,-0.001831055,0,0,-0.001831055,0,4.077,0,0,0,0,nan,2,-1,0,0,0,0,0,0,0,0,0,1,1,1
59.146,0.001002,-0.001953125,-0.001953125,-0.001953125,-0.0625,0.0390625,9.851562,0,0,0,0,0,0,0.005004883,0.005615234,-0.001831055,0,0,-0.001831055,0,4.077,0,0,0,0,nan,2,-1,0,0,0,0,0,0,0,0,0,1,1,1
59.157,0.001007,0,-0.00390625,0,-0.078125,0.046875,9.796875,0.001953125,-0.001953125,0,0,0,0,0.005126953,0.005615234,-0.001831055,0,0,-0.001831055,0,4.077,0,0,0,0,nan,2,-1,0,0,0,0,0,0,0,0,0,1,1,1
59.167,0.001002,0.001953125,0.001953125,0,-0.0390625,0.03125,9.8125,0,0,-0.001953125,0,0,0,0.005126953,0.005615234,-0.001831055,0,0,-0.001831055,0,4.077,0,0,0,0,nan,2,-1,0,0,0,0,0,0,0,0,0,1,1,1
59.177,0.001007,-0.001953125,-0.001953125,0,-0.046875,0.0703125,9.8125,-0.001953125,0,0,0,0,0,0.005004883,0.005615234,-0.001831055,0,0,-0.001831055,0,4.077,0,0,0,0,nan,2,-1,0,0,0,0,0,0,0,0,0,1,1,1
59.187,0.001002,0,0.00390625,0,-0.0390625,0.0078125,9.851562,0,0.001953125,-0.001953125,0,0,0,0.005004883,0.005615234,-0.001831055,0,0,-0.001831055,0,4.077,0,0,0,0,nan,2,-1,0,0,0,0,0,0,0,0,0,1,1,1
59.197,0.00101,0,0.001953125,0,-0.03125,0.0390625,9.820312,0,0,0,0,0,0,0.005004883,0.005615234,-0.001831055,0,0,-0.001831055,0,4.077,0,0,0,0,nan,2,-1,0,0,0,0,0,0,0,0,0,1,1,1
59.207,0.001046,0,-0.001953125,0.001953125,-0.0625,0.046875,9.8125,0,0,0,0,0,0,0.005004883,0.005615234,-0.001831055,0,0,-0.001831055,0,4.077,0,0,0,0,nan,2,-1,0,0,0,0,0,0,0,0,0,1,1,1
59.217,0.001019,0.001953125,-0.001953125,0.001953125,-0.0703125,0.03125,9.804688,0,-0.00390625,0,0,0,0,0.005004883,0.005615234,-0.001831055,0,0,-0.001831055,0,4.077,0,0,0,0,nan,2,-1,0,0,0,0,0,0,0,0,0,1,1,1
59.227,0.001023,0,0,0.001953125,-0.0625,0.046875,9.859375,0,0,0,0,0,0,0.005004883,0.005493164,-0.001831055,0,0,-0.001831055,0,4.077,0,0,0,0,nan,2,-1,0,0,0,0,0,0,0,0,0,1,1,1
59.237,0.001018,0.00390625,0,0.001953125,-0.0703125,0.046875,9.90625,0.001953125,0,0,0,0,0,0.005004883,0.005493164,-0.001831055,0,0,-0.001831055,0,4.077,0,0,0,0,nan,2,-1,0,0,0,0,0,0,0,0,0,1,1,1
59.246,0.001008,0.00390625,0,0,-0.0546875,0.0625,9.851562,0.001953125,0,0.001953125,0,0,0,0.005004883,0.005615234,-0.001831055,0,0,-0.001831055,0,4.077,0,0,0,0,nan,2,-1,0,0,0,0,0,0,0,0,0,1,1,1
59.257,0.001047,0,0,-0.001953125,-0.0546875,0.078125,9.898438,0.001953125,0,0,0,0,0,0.005004883,0.005615234,-0.001831055,0,0,-0.001831055,0,4.077,0,0,0,0,nan,2,-1,0,0,0,0,0,0,0,0,0,1,1,1
59.267,0.000969,0,0,0,-0.046875,0.0859375,9.828125,0,0,0,0,0,0,0.005126953,0.005615234,-0.001831055,0,0,-0.001831055,0,4.077,0,0,0,0,nan,2,-1,0,0,0,0,0,0,0,0,0,1,1,1
59.277,0.001008,0,0.001953125,0.001953125,-0.0625,0.0546875,9.882812,0,0,0,0,0,0,0.005126953,0.005615234,-0.001831055,0,0,-0.001831055,0,4.077,0,0,0,0,nan,2,-1,0,0,0,0,0,0,0,0,0,1,1,1
59.287,0.000992,0.001953125,-0.001953125,0,-0.046875,0.0234375,9.8125,0,0,0,0,0,0,0.005004883,0.005493164,-0.001831055,0,0,-0.001831055,0,4.077,0,0,0,0,nan,2,-1,0,0,0,0,0,0,0,0,0,1,1,1
59.297,0.001004,0.001953125,0.001953125,0.001953125,-0.0625,0.046875,9.820312,0.001953125,0,0.001953125,0,0,0,0.005126953,0.005493164,-0.001831055,0,0,-0.001831055,0,4.077,0,0,0,0,nan,2,-1,0,0,0,0,0,0,0,0,0,1,1,1
59.307,0.000999,-0.001953125,0.001953125,0,-0.0546875,0.0078125,9.820312,0,0,0,0,0,0,0.005126953,0.005493164,-0.001831055,0,0,-0.001831055,0,4.077,0,0,0,0,nan,2,-1,0,0,0,0,0,0,0,0,0,1,1,1
59.317,0.001008,-0.001953125,0.001953125,0,-0.03125,0.0078125,9.804688,0,0.001953125,0,0,0,0,0.005126953,0.005493164,-0.001831055,0,0,-0.001831055,0,4.077,0,0,0,0,nan,2,-1,0,0,0,0,0,0,0,0,0,1,1,1
59.327,0.001008,-0.001953125,-0.001953125,0,-0.0546875,0.0625,9.765625,0,-0.001953125,0,0,0,0,0.005004883,0.005493164,-0.001831055,0,0,-0.001831055,0,4.077,0,0,0,0,nan,2,-1,0,0,0,0,0,0,0,0,0,1,1,1
59.336,0.001007,-0.001953125,0.001953125,0,-0.0703125,0.0390625,9.820312,0,0,0,0,0,0,0.005004883,0.005493164,-0.001831055,0,0,-0.001831055,0,4.077,0,0,0,0,nan,2,-1,0,0,0,0,0,0,0,0,0,1,1,1
59.346,0.001007,-0.00390625,0,0,-0.0234375,0.03125,9.851562,-0.001953125,0,0,0,0,0,0.005004883,0.005493164,-0.001831055,0,0,-0.001831055,0,4.077,0,0,0,0,nan,2,-1,0,0,0,0,0,0,0,0,0,1,1,1
59.357,0.001007,-0.00390625,0.001953125,0,-0.0625,0.0234375,9.859375,-0.001953125,0,0,0,0,0,0.005004883,0.005493164,-0.001831055,0,0,-0.001831055,0,4.077,0,0,0,0,nan,2,-1,0,0,0,0,0,0,0,0,0,1,1,1
59.367,0.001007,0.001953125,0,-0.001953125,-0.078125,0.0390625,9.804688,0,-0.001953125,0,0,0,0,0.005004883,0.005493164,-0.001831055,0,0,-0.001831055,0,4.077,0,0,0,0,nan,2,-1,0,0,0,0,0,0,0,0,0,1,1,1
59.377,0.001007,0.001953125,-0.001953125,0,-0.078125,0.0234375,9.828125,0,-0.001953125,0,0,0,0,0.005004883,0.005493164,-0.001831055,0,0,-0.001831055,0,4.077,0,0,0,0,nan,2,-1,0,0,0,0,0,0,0,0,0,1,1,1
59.387,0.001025,0,0,-0.001953125,-0.0703125,0.03125,9.828125,0,0,0,0,0,0,0.005004883,0.005493164,-0.001831055,0,0,-0.001831055,0,4.077,0,0,0,0,nan,2,-1,0,0,0,0,0,0,0,0,0,1,1,1
59.397,0.001019,0,0.001953125,0,-0.0703125,0.0703125,9.882812,0.001953125,0.001953125,0,0,0,0,0.005004883,0.005493164,-0.001831055,0,0,-0.001831055,0,4.077,0,0,0,0,nan,2,-1,0,0,0,0,0,0,0,0,0,1,1,1
59.407,0.001016,-0.00390625,0,0,-0.0546875,0.0546875,9.804688,-0.001953125,-0.001953125,0,0,0,0,0.005004883,0.005493164,-0.001831055,0,0,-0.001831055,0,4.077,0,0,0,0,nan,2,-1,0,0,0,0,0,0,0,0,0,1,1,1
59.417,0.001038,0.001953125,0,0,-0.03125,0.046875,9.835938,0,-0.001953125,0,0,0,0,0.005004883,0.005493164,-0.001831055,0,0,-0.001831055,0,4.077,0,0,0,0,nan,2,-1,0,0,0,0,0,0,0,0,0,1,1,1
59.427,0.001015,-0.001953125,0.001953125,0,-0.078125,0.0703125,9.835938,0,0,0,0,0,0,0.005004883,0.005493164,-0.001831055,0,0,-0.001831055,0,4.077,0,0,0,0,nan,2,-1,0,0,0,0,0,0,0,0,0,1,1,1
59.436,0.001041,0.001953125,0.00390625,-0.001953125,-0.046875,0.0546875,9.8125,0.001953125,0.001953125,-0.001953125,0,0,0,0.005004883,0.005493164,-0.001831055,0,0,-0.001831055,0,4.077,0,0,0,0,nan,2,-1,0,0,0,0,0,0,0,0,0,1,1,1
59.446,0.001008,0.001953125,0,0.001953125,-0.0546875,0.046875,9.890625,0,0,0,0,0,0,0.005004883,0.005493164,-0.001831055,0,0,-0.001831055,0,4.077,0,0,0,0,nan,2,-1,0,0,0,0,0,0,0,0,0,1,1,1
59.457,0.001008,-0.001953125,0.00390625,0,-0.0625,0.03125,9.789062,0,0.001953125,0,0,0,0,0.005004883,0.005493164,-0.001831055,0,0,-0.001831055,0,4.077,0,0,0,0,nan,2,-1,0,0,0,0,0,0,0,0,0,1,1,1
59.467,0.000982,-0.001953125,0,0,-0.046875,0.046875,9.851562,0,0.001953125,0,0,0,0,0.005004883,0.005493164,-0.001831055,0,0,-0.001831055,0,4.077,0,0,0,0,nan,2,-1,0,0,0,0,0,0,0,0,0,1,1,1
59.477,0.001009,0,0.001953125,0.001953125,-0.0859375,0.0390625,9.914062,0,0.001953125,0,0,0,0,0.005004883,0.005615234,-0.001831055,0,0,-0.001831055,0,4.077,0,0,0,0,nan,2,-1,0,0,0,0,0,0,0,0,0,1,1,1
59.487,0.001014,0.001953125,-0.001953125,0,-0.0859375,0.0625,9.851562,0.001953125,0,0,0,0,0,0.005004883,0.005615234,-0.001831055,0,0,-0.001831055,0,4.077,0,0,0,0,nan,2,-1,0,0,0,0,0,0,0,0,0,1,1,1
59.497,0.001006,-0.00390625,0.001953125,0,-0.0625,0.03125,9.875,0,0.001953125,0,0,0,0,0.005004883,0.005615234,-0.001831055,0,0,-0.001831055,0,4.077,0,0,0,0,nan,2,-1,0,0,0,0,0,0,0,0,0,1,1,1
59.507,0.000998,0,-0.001953125,-0.001953125,-0.03125,0.0625,9.78125,-0.001953125,0,0,0,0,0,0.005004883,0.005615234,-0.001831055,0,0,-0.001831055,0,4.077,0,0,0,0,nan,2,-1,0,0,0,0,0,0,0,0,0,1,1,1
59.517,0.001009,0,-0.001953125,0,-0.03125,0.0625,9.789062,0,0,0,0,0,0,0.005004883,0.005615234,-0.001831055,0,0,-0.001831055,0,4.077,0,0,0,0,nan,2,-1,0,0,0,0,0,0,0,0,0,1,1,1
59.527,0.001009,0,-0.001953125,-0.001953125,-0.0390625,0.03125,9.828125,0,-0.001953125,-0.001953125,0,0,0,0.005004883,0.005615234,-0.001831055,0,0,-0.001831055,0,4.077,0,0,0,0,nan,2,-1,0,0,0,0,0,0,0,0,0,1,1,1
59.537,0.001009,0,-0.001953125,0.001953125,-0.0625,0.0234375,9.789062,0,0,0.001953125,0,0,0,0.005004883,0.005493164,-0.001831055,0,0,-0.001831055,0,4.077,0,0,0,0,nan,2,-1,0,0,0,0,0,0,0,0,0,1,1,1
59.546,0.001011,-0.001953125,0,0.001953125,-0.0625,0.1015625,9.820312,0,0,0.001953125,0,0,0,0.005004883,0.005493164,-0.001831055,0,0,-0.001831055,0,4.077,0,0,0,0,nan,2,-1,0,0,0,0,0,0,0,0,0,1,1,1
59.556,0.001011,0,0,0,-0.0546875,0.0703125,9.882812,0,0,0.001953125,0,0,0,0.005004883,0.005615234,-0.001831055,0,0,-0.001831055,0,4.077,0,0,0,0,nan,2,-1,0,0,0,0,0,0,0,0,0,1,1,1
59.567,0.001011,0.001953125,0.00390625,0.001953125,-0.1015625,0.0546875,9.851562,0,0.001953125,0.001953125,0,0,0,0.005004883,0.005615234,-0.001831055,0,0,-0.001831055,0,4.077,0,0,0,0,nan,2,-1,0,0,0,0,0,0,0,0,0,1,1,1
59.577,0.001011,0.001953125,0.001953125,0,-0.0234375,0.0546875,9.828125,0,0,0,0,0,0,0.005004883,0.005615234,-0.001831055,0,0,-0.001831055,0,4.077,0,0,0,0,nan,2,-1,0,0,0,0,0,0,0,0,0,1,1,1
59.587,0.001002,0,0.001953125,-0.001953125,-0.0625,0.0546875,9.835938,0,0.001953125,-0.001953125,0,0,0,0.005004883,0.005615234,-0.001831055,0,0,-0.001831055,0,4.077,0,0,0,0,nan,2,-1,0,0,0,0,0,0,0,0,0,1,1,1
59.597,0.001021,-0.00390625,0,0.001953125,-0.015625,0.0703125,9.8125,-0.001953125,0,0,0,0,0,0.005004883,0.005615234,-0.001831055,0,0,-0.001831055,0,4.077,0,0,0,0,nan,2,-1,0,0,0,0,0,0,0,0,0,1,1,1
59.607,0.000998,0.00390625,0,0,-0.0234375,0.078125,9.851562,0,0,0,0,0,0,0.005004883,0.005615234,-0.001831055,0,0,-0.001831055,0,4.077,0,0,0,0,nan,2,-1,0,0,0,0,0,0,0,0,0,1,1,1
59.617,0.001012,0,-0.001953125,0,-0.0625,0,9.8125,0,-0.001953125,0,0,0,0,0.005004883,0.005615234,-0.001831055,0,0,-0.001831055,0,4.077,0,0,0,0,nan,2,-1,0,0,0,0,0,0,0,0,0,1,1,1
59.627,0.001011,-0.001953125,0.001953125,0,-0.03125,0.015625,9.796875,0,0,0,0,0,0,0.005004883,0.005615234,-0.001831055,0,0,-0.001831055,0,4.077,0,0,0,0,nan,2,-1,0,0,0,0,0,0,0,0,0,1,1,1
59.637,0.001011,-0.00390625,0,0,-0.0703125,0.0625,9.851562,0,0,0.001953125,0,0,0,0.005004883,0.005615234,-0.001831055,0,0,-0.001831055,0,4.077,0,0,0,0,nan,2,-1,0,0,0,0,0,0,0,0,0,1,1,1
59.646,0.000981,0.001953125,0.00390625,0,-0.078125,0.0390625,9.804688,0,0.001953125,0,0,0,0,0.005004883,0.005615234,-0.001831055,0,0,-0.001831055,0,4.077,0,0,0,0,nan,2,-1,0,0,0,0,0,0,0,0,0,1,1,1
59.656,0.001,0.001953125,0,0.001953125,-0.0390625,0.078125,9.828125,0,0,0,0,0,0,0.005004883,0.005615234,-0.001831055,0,0,-0.001831055,0,4.077,0,0,0,0,nan,2,-1,0,0,0,0,0,0,0,0,0,1,1,1
59.667,0.001005,-0.001953125,0.001953125,0,-0.03125,0.0546875,9.890625,-0.001953125,0,0,0,0,0,0.005004883,0.005615234,-0.001831055,0,0,-0.001831055,0,4.077,0,0,0,0,nan,2,-1,0,0,0,0,0,0,0,0,0,1,1,1
59.677,0.001,-0.001953125,0,0.001953125,-0.03125,0.0390625,9.820312,0,0,0,0,0,0,0.005004883,0.005615234,-0.001831055,0,0,-0.001831055,0,4.077,0,0,0,0,nan,2,-1,0,0,0,0,0,0,0,0,0,1,1,1
59.687,0.001013,0.001953125,0,0,-0.046875,0.03125,9.8125,0,0,0,0,0,0,0.005004883,0.005615234,-0.001831055,0,0,-0.001831055,0,4.077,0,0,0,0,nan,2,-1,0,0,0,0,0,0,0,0,0,1,1,1
59.697,0.001004,0,0,0.001953125,-0.1015625,0.0625,9.867188,0.001953125,0,-0.001953125,0,0,0,0.005004883,0.005615234,-0.001831055,0,0,-0.001831055,0,4.077,0,0,0,0,nan,2,-1,0,0,0,0,0,0,0,0,0,1,1,1
59.707,0.001002,0,0,0.001953125,-0.046875,0.0859375,9.820312,0,0,0.001953125,0,0,0,0.005004883,0.005615234,-0.001831055,0,0,-0.001831055,0,4.077,0,0,0,0,nan,2,-1,0,0,0,0,0,0,0,0,0,1,1,1
59.717,0.001058,0.001953125,-0.00390625,-0.001953125,-0.0625,0.0390625,9.90625,0,0,0.001953125,0,0,0,0.005004883,0.005615234,-0.001831055,0,0,-0.001831055,0,4.077,0,0,0,0,nan,2,-1,0,0,0,0,0,0,0,0,0,1,1,1
59.727,0.001003,0.00390625,-0.00390625,-0.00390625,-0.0625,0.046875,9.867188,0.001953125,-0.001953125,0,0,0,0,0.005004883,0.005615234,-0.001831055,0,0,-0.001831055,0,4.077,0,0,0,0,nan,2,-1,0,0,0,0,0,0,0,0,0,1,1,1
59.737,0.000999,0.001953125,0,-0.001953125,-0.0546875,0.046875,9.796875,0,0,0,0,0,0,0.005004883,0.005615234,-0.001831055,0,0,-0.001831055,0,4.077,0,0,0,0,nan,2,-1,0,0,0,0,0,0,0,0,0,1,1,1
59.746,0.001017,-0.001953125,0,0.001953125,-0.046875,0.046875,9.789062,-0.001953125,0,0,0,0,0,0.005004883,0.005615234,-0.001831055,0,0,-0.001831055,0,4.077,0,0,0,0,nan,2,-1,0,0,0,0,0,0,0,0,0,1,1,1
59.757,0.001021,0.001953125,0,-0.001953125,-0.109375,0.0546875,9.828125,0.001953125,0,0,0,0,0,0.005004883,0.005615234,-0.001831055,0,0,-0.001831055,0,4.077,0,0,0,0,nan,2,-1,0,0,0,0,0,0,0,0,0,1,1,1
59.767,0.001017,0.00390625,-0.001953125,0,-0.0703125,0.0546875,9.859375,0,-0.001953125,0.001953125,0,0,0,0.005004883,0.005615234,-0.001831055,0,0,-0.001831055,0,4.077,0,0,0,0,nan,2,-1,0,0,0,0,0,0,0,0,0,1,1,1
59.777,0.001021,0.001953125,0.001953125,-0.001953125,-0.078125,0.03125,9.820312,0,0.001953125,-0.001953125,0,0,0,0.005004883,0.005615234,-0.001831055,0,0,-0.001831055,0,4.077,0,0,0,0,nan,2,-1,0,0,0,0,0,0,0,0,0,1,1,1
59.787,0.001024,-0.001953125,0.001953125,-0.001953125,-0.046875,0.0546875,9.875,-0.001953125,0,-0.001953125,0,0,0,0.005004883,0.005615234,-0.001831055,0,0,-0.001831055,0,4.077,0,0,0,0,nan,2,-1,0,0,0,0,0,0,0,0,0,1,1,1
59.797,0.001026,-0.001953125,0.00390625,-0.001953125,-0.0625,0.0859375,9.765625,0,0.001953125,-0.001953125,0,0,0,0.005004883,0.005615234,-0.001831055,0,0,-0.001831055,0,4.077,0,0,0,0,nan,2,-1,0,0,0,0,0,0,0,0,0,1,1,1
59.807,0.001015,-0.001953125,0,0.001953125,-0.0703125,0.078125,9.835938,0,0,0,0,0,0,0.005004883,0.005615234,-0.001831055,0,0,-0.001831055,0,4.077,0,0,0,0,nan,2,-1,0,0,0,0,0,0,0,0,0,1,1,1
59.817,0.001024,0.001953125,0,0.001953125,-0.0625,0.0078125,9.851562,0,0,0.001953125,0,0,0,0.005004883,0.005615234,-0.001831055,0,0,-0.001831055,0,4.077,0,0,0,0,nan,2,-1,0,0,0,0,0,0,0,0,0,1,1,1
59.827,0.001017,-0.001953125,0.001953125,0,-0.0546875,0.078125,9.78125,-0.001953125,0,0,0,0,0,0.005004883,0.005615234,-0.001831055,0,0,-0.001831055,0,4.077,0,0,0,0,nan,2,-1,0,0,0,0,0,0,0,0,0,1,1,1
59.837,0.001021,-0.001953125,-0.001953125,0,-0.0546875,0.0390625,9.882812,0,0,0,0,0,0,0.005004883,0.005615234,-0.001831055,0,0,-0.001831055,0,4.077,0,0,0,0,nan,2,-1,0,0,0,0,0,0,0,0,0,1,1,1
59.846,0.001009,-0.001953125,0,0,-0.0390625,0.0390625,9.835938,-0.001953125,0,0,0,0,0,0.005004883,0.005615234,-0.001831055,0,0,-0.001831055,0,4.077,0,0,0,0,nan,2,-1,0,0,0,0,0,0,0,0,0,1,1,1
59.857,0.001009,0.001953125,-0.001953125,-0.001953125,-0.0625,0.0703125,9.835938,0,0,0,0,0,0,0.005004883,0.005615234,-0.001831055,0,0,-0.001831055,0,4.077,0,0,0,0,nan,2,-1,0,0,0,0,0,0,0,0,0,1,1,1
59.867,0.001009,0.001953125,0.001953125,0,-0.0390625,0.0546875,9.804688,-0.001953125,0.001953125,0,0,0,0,0.005004883,0.005615234,-0.001831055,0,0,-0.001831055,0,4.077,0,0,0,0,nan,2,-1,0,0,0,0,0,0,0,0,0,1,1,1
59.877,0.001009,0.001953125,0.001953125,0.001953125,-0.0703125,0.0546875,9.828125,0.001953125,0.001953125,0.001953125,0,0,0,0.005004883,0.005615234,-0.001831055,0,0,-0.001831055,0,4.077,0,0,0,0,nan,2,-1,0,0,0,0,0,0,0,0,0,1,1,1
59.887,0.001009,0.001953125,0,-0.00390625,-0.0390625,0.0546875,9.867188,0,0,0,0,0,0,0.005004883,0.005615234,-0.001831055,0,0,-0.001831055,0,4.077,0,0,0,0,nan,2,-1,0,0,0,0,0,0,0,0,0,1,1,1
59.897,0.001013,0,0,0,0,0.078125,9.84375,0,0,0,0,0,0,0.005004883,0.005615234,-0.001831055,0,0,-0.001831055,0,4.077,0,0,0,0,nan,2,-1,0,0,0,0,0,0,0,0,0,1,1,1
59.907,0.001004,-0.00390625,0.001953125,0,-0.046875,0.015625,9.835938,-0.001953125,0,0,0,0,0,0.005004883,0.005615234,-0.001831055,0,0,-0.001831055,0,4.077,0,0,0,0,nan,2,-1,0,0,0,0,0,0,0,0,0,1,1,1
59.917,0.000993,0.001953125,0,0,-0.0859375,0.03125,9.789062,-0.001953125,0,0,0,0,0,0.005004883,0.005615234,-0.001831055,0,0,-0.001831055,0,4.077,0,0,0,0,nan,2,-1,0,0,0,0,0,0,0,0,0,1,1,1
59.927,0.001009,0.001953125,0.001953125,-0.001953125,-0.046875,0.0859375,9.851562,0,0,0,0,0,0,0.004882812,0.005615234,-0.001831055,0,0,-0.001831055,0,4.077,0,0,0,0,nan,2,-1,0,0,0,0,0,0,0,0,0,1,1,1
59.937,0.001009,-0.00390625,0.001953125,0.001953125,-0.0390625,0.0703125,9.820312,-0.001953125,0.001953125,0.001953125,0,0,0,0.004882812,0.005615234,-0.001831055,0,0,-0.001831055,0,4.077,0,0,0,0,nan,2,-1,0,0,0,0,0,0,0,0,0,1,1,1
59.946,0.001011,0,0,-0.001953125,-0.046875,0.0703125,9.835938,0,0,0,0,0,0,0.004882812,0.005615234,-0.001831055,0,0,-0.001831055,0,4.077,0,0,0,0,nan,2,-1,0,0,0,0,0,0,0,0,0,1,1,1
59.956,0.001011,0,0,0.001953125,-0.0703125,0.0390625,9.835938,0,0,0,0,0,0,0.004882812,0.005615234,-0.001831055,0,0,-0.001831055,0,4.077,0,0,0,0,nan,2,-1,0,0,0,0,0,0,0,0,0,1,1,1
59.967,0.001011,0,-0.00390625,0,-0.046875,0.0546875,9.84375,0,0,0,0,0,0,0.004882812,0.005615234,-0.001831055,0,0,-0.001831055,0,4.077,0,0,0,0,nan,2,-1,0,0,0,0,0,0,0,0,0,1,1,1
59.977,0.001011,0,0,0.001953125,-0.078125,0.0859375,9.828125,0,0,0,0,0,0,0.004882812,0.005615234,-0.001831055,0,0,-0.001831055,0,4.077,0,0,0,0,nan,2,-1,0,0,0,0,0,0,0,0,0,1,1,1
59.987,0.001011,0.001953125,0,0,-0.03125,0.0703125,9.75,0,0,0,0,0,0,0.004882812,0.005615234,-0.001831055,0,0,-0.001831055,0,4.077,0,0,0,0,nan,2,-1,0,0,0,0,0,0,0,0,0,1,1,1
59.997,0.001006,0,-0.001953125,0,-0.0546875,0.0390625,9.835938,0,-0.001953125,0,0,0,0,0.004882812,0.005615234,-0.001831055,0,0,-0.001831055,0,4.077,0,0,0,0,nan,2,-1,0,0,0,0,0,0,0,0,0,1,1,1
60.007,0.00101,-0.001953125,0.00390625,0,-0.03125,0.0546875,9.828125,0,0.001953125,0,0,0,0,0.004882812,0.005615234,-0.001831055,0,0,-0.001831055,0,4.077,0,0,0,0,nan,2,-1,0,0,0,0,0,0,0,0,0,1,1,1
60.017,0.001004,0.001953125,0,-0.001953125,-0.03125,0.078125,9.835938,0,-0.001953125,0,0,0,0,0.004882812,0.005615234,-0.001831055,0,0,-0.001831055,0,4.077,0,0,0,0,nan,2,-1,0,0,0,0,0,0,0,0,0,1,1,1
60.027,0.001011,0,0.001953125,0,-0.0390625,0.0859375,9.84375,0,0,0,0,0,0,0.004882812,0.005615234,-0.001831055,0,0,-0.001831055,0,4.077,0,0,0,0,nan,2,-1,0,0,0,0,0,0,0,0,0,1,1,1
60.037,0.001011,0,0.001953125,-0.001953125,-0.046875,0.03125,9.835938,0,0,0,0,0,0,0.004882812,0.005615234,-0.001831055,0,0,-0.001831055,0,4.077,0,0,0,0,nan,2,-1,0,0,0,0,0,0,0,0,0,1,1,1
60.046,0.001005,0,0.001953125,0,-0.046875,0.046875,9.851562,0,0,0,0,0,0,0.004882812,0.005615234,-0.001831055,0,0,-0.001831055,0,4.077,0,0,0,0,nan,2,-1,0,0,0,0,0,0,0,0,0,1,1,1
60.056,0.001005,0.001953125,0,0.001953125,-0.078125,0.0703125,9.84375,0.001953125,-0.001953125,0,0,0,0,0.005004883,0.005615234,-0.001831055,0,0,-0.001831055,0,4.077,0,0,0,0,nan,2,-1,0,0,0,0,0,0,0,0,0,1,1,1
60.067,0.001005,0.001953125,-0.001953125,0.001953125,-0.0625,0.046875,9.890625,0,0,0.001953125,0,0,0,0.005004883,0.005615234,-0.001831055,0,0,-0.001831055,0,4.077,0,0,0,0,nan,2,-1,0,0,0,0,0,0,0,0,0,1,1,1
60.077,0.001005,0.001953125,0.00390625,0,-0.0625,0.0625,9.867188,0,0.001953125,0,0,0,0,0.005004883,0.005615234,-0.001831055,0,0,-0.001831055,0,4.077,0,0,0,0,nan,2,-1,0,0,0,0,0,0,0,0,0,1,1,1
60.087,0.001005,0.001953125,0,0,-0.0546875,0.0390625,9.882812,0.001953125,0.001953125,0,0,0,0,0.005004883,0.005615234,-0.001831055,0,0,-0.001831055,0,4.077,0,0,0,0,nan,2,-1,0,0,0,0,0,0,0,0,0,1,1,1
60.097,0.001003,-0.001953125,0.00390625,0.001953125,-0.015625,0.0390625,9.820312,0,0,0,0,0,0,0.005004883,0.005615234,-0.001831055,0,0,-0.001831055,0,4.077,0,0,0,0,nan,2,-1,0,0,0,0,0,0,0,0,0,1,1,1
60.107,0.000998,0,0,0,-0.0625,0.0390625,9.757812,0.001953125,0,0,0,0,0,0.005004883,0.005615234,-0.001831055,0,0,-0.001831055,0,4.077,0,0,0,0,nan,2,-1,0,0,0,0,0,0,0,0,0,1,1,1
60.117,0.001003,0.001953125,0,0.001953125,-0.0390625,0.078125,9.820312,0,0,0,0,0,0,0.005004883,0.005615234,-0.001831055,0,0,-0.001831055,0,4.077,0,0,0,0,nan,2,-1,0,0,0,0,0,0,0,0,0,1,1,1
60.127,0.001045,0,0.001953125,-0.001953125,-0.0625,0.0859375,9.804688,0,0,-0.001953125,0,0,0,0.005004883,0.005615234,-0.001831055,0,0,-0.001831055,0,4.077,0,0,0,0,nan,2,-1,0,0,0,0,0,0,0,0,0,1,1,1
60.137,0.001013,0,0.001953125,0,-0.0390625,0.0625,9.890625,0,0,0,0,0,0,0.005004883,0.005615234,-0.001831055,0,0,-0.001831055,0,4.077,0,0,0,0,nan,2,-1,0,0,0,0,0,0,0,0,0,1,1,1
60.146,0.001012,0,0.001953125,0.001953125,-0.0703125,0.03125,9.835938,0,0.001953125,0,0,0,0,0.005004883,0.005737305,-0.001831055,0,0,-0.001831055,0,4.077,0,0,0,0,nan,2,-1,0,0,0,0,0,0,0,0,0,1,1,1
60.156,0.001012,0.001953125,0,-0.001953125,-0.0234375,0.03125,9.859375,0,0,0,0,0,0,0.005004883,0.005737305,-0.001831055,0,0,-0.001831055,0,4.077,0,0,0,0,nan,2,-1,0,0,0,0,0,0,0,0,0,1,1,1
60.167,0.001012,0.00390625,-0.00390625,0.001953125,-0.03125,0.0390625,9.8125,0.001953125,-0.001953125,0,0,0,0,0.005004883,0.005615234,-0.001831055,0,0,-0.001831055,0,4.077,0,0,0,0,nan,2,-1,0,0,0,0,0,0,0,0,0,1,1,1
60.177,0.001012,-0.001953125,0,-0.001953125,-0.0234375,0.0390625,9.820312,0,-0.001953125,-0.001953125,0,0,0,0.005004883,0.005615234,-0.001831055,0,0,-0.001831055,0,4.077,0,0,0,0,nan,2,-1,0,0,0,0,0,0,0,0,0,1,1,1
60.187,0.001012,0.001953125,0,-0.001953125,-0.09375,0.046875,9.820312,0.001953125,0,-0.001953125,0,0,0,0.005004883,0.005615234,-0.001831055,0,0,-0.001831055,0,4.077,0,0,0,0,nan,2,-1,0,0,0,0,0,0,0,0,0,1,1,1
60.197,0.001016,0,0,0,-0.1015625,0.046875,9.8125,0,0,0,0,0,0,0.005004883,0.005615234,-0.001831055,0,0,-0.001831055,0,4.077,0,0,0,0,nan,2,-1,0,0,0,0,0,0,0,0,0,1,1,1
60.207,0.001023,0.001953125,-0.00390625,0,-0.0390625,0.0546875,9.890625,0,-0.001953125,0,0,0,0,0.005004883,0.005615234,-0.001831055,0,0,-0.001831055,0,4.077,0,0,0,0,nan,2,-1,0,0,0,0,0,0,0,0,0,1,1,1
60.217,0.001008,0,0,0.001953125,-0.0546875,0.0546875,9.78125,0,0,0,0,0,0,0.005004883,0.005615234,-0.001831055,0,0,-0.001831055,0,4.077,0,0,0,0,nan,2,-1,0,0,0,0,0,0,0,0,0,1,1,1
60.227,0.001012,0.001953125,0,0.001953125,0,0.0625,9.859375,0,0,0,0,0,0,0.005004883,0.005615234,-0.001831055,0,0,-0.001831055,0,4.077,0,0,0,0,nan,2,-1,0,0,0,0,0,0,0,0,0,1,1,1
60.237,0.001011,0.001953125,0.001953125,0,-0.078125,0.0703125,9.875,0.001953125,0,0,0,0,0,0.005004883,0.005615234,-0.001831055,0,0,-0.001831055,0,4.077,0,0,0,0,nan,2,-1,0,0,0,0,0,0,0,0,0,1,1,1
60.246,0.001009,0,0.001953125,-0.001953125,-0.0546875,0.0859375,9.835938,0.001953125,0,0,0,0,0,0.005004883,0.005615234,-0.001831055,0,0,-0.001831055,0,4.077,0,0,0,0,nan,2,-1,0,0,0,0,0,0,0,0,0,1,1,1
60.256,0.001009,0,0,0,-0.03125,0.0625,9.859375,0,0,0,0,0,0,0.005004883,0.005615234,-0.001831055,0,0,-0.001831055,0,4.077,0,0,0,0,nan,2,-1,0,0,0,0,0,0,0,0,0,1,1,1
60.267,0.001009,0,0,0,-0.078125,0.046875,9.875,0,0,0,0,0,0,0.005004883,0.005615234,-0.001831055,0,0,-0.001831055,0,4.077,0,0,0,0,nan,2,-1,0,0,0,0,0,0,0,0,0,1,1,1
60.277,0.001009,0,0,0,-0.0703125,0.078125,9.828125,0,0,0,0,0,0,0.005126953,0.005615234,-0.001831055,0,0,-0.001831055,0,4.077,0,0,0,0,nan,2,-1,0,0,0,0,0,0,0,0,0,1,1,1
60.287,0.001009,-0.00390625,-0.001953125,0,-0.0546875,0.0703125,9.820312,0,-0.001953125,0,0,0,0,0.005126953,0.005615234,-0.001831055,0,0,-0.001831055,0,4.077,0,0,0,0,nan,2,-1,0,0,0,0,0,0,0,0,0,1,1,1
60.297,0.0009869999,0,0.001953125,-0.001953125,-0.0625,0.0234375,9.71875,0,0,-0.001953125,0,0,0,0.005126953,0.005615234,-0.001831055,0,0,-0.001831055,0,4.077,0,0,0,0,nan,2,-1,0,0,0,0,0,0,0,0,0,1,1,1
60.307,0.001007,-0.001953125,0,0,-0.0703125,0.046875,9.820312,0,0,0,0,0,0,0.005004883,0.005615234,-0.001831055,0,0,-0.001831055,0,4.077,0,0,0,0,nan,2,-1,0,0,0,0,0,0,0,0,0,1,1,1
60.317,0.001001,0.001953125,0,0,-0.0390625,0.046875,9.851562,0,0,0,0,0,0,0.005004883,0.005615234,-0.001831055,0,0,-0.001831055,0,4.077,0,0,0,0,nan,2,-1,0,0,0,0,0,0,0,0,0,1,1,1
60.327,0.001008,0.001953125,0,0.00390625,-0.078125,0.0625,9.835938,0,0,0,0,0,0,0.005004883,0.005615234,-0.001831055,0,0,-0.001831055,0,4.077,0,0,0,0,nan,2,-1,0,0,0,0,0,0,0,0,0,1,1,1
60.337,0.001009,-0.001953125,0.001953125,-0.00390625,-0.0546875,0.0625,9.804688,0,0,0,0,0,0,0.005004883,0.005615234,-0.001831055,0,0,-0.001831055,0,4.077,0,0,0,0,nan,2,-1,0,0,0,0,0,0,0,0,0,1,1,1
60.346,0.001011,-0.001953125,0,0,-0.0703125,0.0390625,9.789062,0,0,0,0,0,0,0.005004883,0.005615234,-0.001831055,0,0,-0.001831055,0,4.077,0,0,0,0,nan,2,-1,0,0,0,0,0,0,0,0,0,1,1,1
60.356,0.001011,0.001953125,-0.005859375,-0.001953125,-0.0703125,0.0546875,9.859375,0.001953125,-0.001953125,-0.001953125,0,0,0,0.005004883,0.005615234,-0.001831055,0,0,-0.001831055,0,4.077,0,0,0,0,nan,2,-1,0,0,0,0,0,0,0,0,0,1,1,1
60.367,0.001011,0,0.001953125,0,-0.0859375,0.046875,9.773438,0,-0.001953125,0,0,0,0,0.005004883,0.005615234,-0.001831055,0,0,-0.001831055,0,4.077,0,0,0,0,nan,2,-1,0,0,0,0,0,0,0,0,0,1,1,1
60.377,0.001011,0.001953125,-0.001953125,0,-0.0625,0.0390625,9.859375,0,-0.001953125,0,0,0,0,0.005004883,0.005615234,-0.001831055,0,0,-0.001831055,0,4.077,0,0,0,0,nan,2,-1,0,0,0,0,0,0,0,0,0,1,1,1
60.387,0.001011,-0.00390625,0,0,-0.015625,0.0546875,9.882812,0,0,0.001953125,0,0,0,0.005004883,0.005615234,-0.001831055,0,0,-0.001831055,0,4.077,0,0,0,0,nan,2,-1,0,0,0,0,0,0,0,0,0,1,1,1
60.397,0.00103,-0.001953125,-0.00390625,-0.001953125,-0.046875,0.015625,9.796875,0,-0.001953125,-0.001953125,0,0,0,0.005004883,0.005615234,-0.001831055,0,0,-0.001831055,0,4.077,0,0,0,0,nan,2,-1,0,0,0,0,0,0,0,0,0,1,1,1
60.407,0.001016,0.001953125,0.001953125,0.001953125,-0.046875,0.03125,9.820312,0,0,0,0,0,0,0.005004883,0.005493164,-0.001831055,0,0,-0.001831055,0,4.077,0,0,0,0,nan,2,-1,0,0,0,0,0,0,0,0,0,1,1,1
60.417,0.001016,-0.001953125,0,-0.001953125,-0.078125,0.046875,9.789062,0,0,0,0,0,0,0.005004883,0.005493164,-0.001831055,0,0,-0.001831055,0,4.077,0,0,0,0,nan,2,-1,0,0,0,0,0,0,0,0,0,1,1,1
60.427,0.001017,-0.001953125,-0.001953125,0,-0.046875,0.046875,9.835938,0,0,0,0,0,0,0.005004883,0.005615234,-0.001831055,0,0,-0.001831055,0,4.077,0,0,0,0,nan,2,-1,0,0,0,0,0,0,0,0,0,1,1,1
60.436,0.001065,0.00390625,0.00390625,0,-0.03125,0.0546875,9.796875,0.001953125,0.001953125,0,0,0,0,0.005004883,0.005615234,-0.001831055,0,0,-0.001831055,0,4.077,0,0,0,0,nan,2,-1,0,0,0,0,0,0,0,0,0,1,1,1
60.446,0.000949,0.001953125,0,-0.001953125,-0.0703125,0.0546875,9.859375,0,0,0,0,0,0,0.005004883,0.005615234,-0.001831055,0,0,-0.001831055,0,4.077,0,0,0,0,nan,2,-1,0,0,0,0,0,0,0,0,0,1,1,1
60.456,0.001011,-0.001953125,0,-0.001953125,-0.0625,0.0390625,9.84375,-0.001953125,0,0,0,0,0,0.005004883,0.005615234,-0.001831055,0,0,-0.001831055,0,4.077,0,0,0,0,nan,2,-1,0,0,0,0,0,0,0,0,0,1,1,1
60.467,0.000998,0.001953125,0.001953125,0,-0.0546875,0.0703125,9.875,0,0,0,0,0,0,0.005004883,0.005615234,-0.001831055,0,0,-0.001831055,0,4.077,0,0,0,0,nan,2,-1,0,0,0,0,0,0,0,0,0,1,1,1
60.477,0.001002,0,0,0,-0.0546875,0.0859375,9.875,0,-0.001953125,0,0,0,0,0.005004883,0.005615234,-0.001831055,0,0,-0.001831055,0,4.077,0,0,0,0,nan,2,-1,0,0,0,0,0,0,0,0,0,1,1,1
60.487,0.000998,-0.001953125,0.00390625,0,-0.0390625,0.078125,9.859375,0,0,0,0,0,0,0.005004883,0.005615234,-0.001831055,0,0,-0.001831055,0,4.077,0,0,0,0,nan,2,-1,0,0,0,0,0,0,0,0,0,1,1,1
60.497,0.001008,0,0.001953125,0,-0.0625,0.0390625,9.875,0,0.001953125,0,0,0,0,0.005004883,0.005615234,-0.001831055,0,0,-0.001831055,0,4.077,0,0,0,0,nan,2,-1,0,0,0,0,0,0,0,0,0,1,1,1
60.507,0.001,0,0,0,-0.0703125,0.0078125,9.820312,0,0.001953125,0,0,0,0,0.005004883,0.005615234,-0.001831055,0,0,-0.001831055,0,4.077,0,0,0,0,nan,2,-1,0,0,0,0,0,0,0,0,0,1,1,1
60.517,0.000999,0.001953125,0.00390625,-0.001953125,-0.0625,0.1015625,9.828125,0,0.001953125,0,0,0,0,0.005004883,0.005615234,-0.001831055,0,0,-0.001831055,0,4.077,0,0,0,0,nan,2,-1,0,0,0,0,0,0,0,0,0,1,1,1
60.527,0.000999,0,0.001953125,0.001953125,-0.0625,0.0546875,9.898438,0,-0.001953125,0,0,0,0,0.005004883,0.005615234,-0.001831055,0,0,-0.001831055,0,4.077,0,0,0,0,nan,2,-1,0,0,0,0,0,0,0,0,0,1,1,1
60.537,0.001055,0.00390625,0,-0.001953125,-0.078125,0.046875,9.859375,0,0,-0.001953125,0,0,0,0.005004883,0.005615234,-0.001831055,0,0,-0.001831055,0,4.077,0,0,0,0,nan,2,-1,0,0,0,0,0,0,0,0,0,1,1,1
60.546,0.001021,0,-0.001953125,0,-0.0390625,0.03125,9.804688,-0.001953125,0,0,0,0,0,0.005004883,0.005615234,-0.001831055,0,0,-0.001831055,0,4.077,0,0,0,0,nan,2,-1,0,0,0,0,0,0,0,0,0,1,1,1
60.556,0.001017,0,0.001953125,0,-0.0703125,0.046875,9.84375,0,0,0,0,0,0,0.005004883,0.005615234,-0.001831055,0,0,-0.001831055,0,4.077,0,0,0,0,nan,2,-1,0,0,0,0,0,0,0,0,0,1,1,1
60.567,0.001021,0,0,0.001953125,-0.0625,0.0390625,9.875,0,0,0.001953125,0,0,0,0.005004883,0.005615234,-0.001831055,0,0,-0.001831055,0,4.077,0,0,0,0,nan,2,-1,0,0,0,0,0,0,0,0,0,1,1,1
60.577,0.001017,0.001953125,0.00390625,-0.001953125,-0.0625,0.0625,9.789062,0.001953125,0,0,0,0,0,0.005004883,0.005615234,-0.001831055,0,0,-0.001831055,0,4.077,0,0,0,0,nan,2,-1,0,0,0,0,0,0,0,0,0,1,1,1
60.587,0.001021,-0.001953125,-0.001953125,0.001953125,-0.03125,0.0625,9.820312,0,0,0.001953125,0,0,0,0.005004883,0.005615234,-0.001831055,0,0,-0.001831055,0,4.077,0,0,0,0,nan,2,-1,0,0,0,0,0,0,0,0,0,1,1,1
60.597,0.001009,0,-0.001953125,0.001953125,-0.0859375,0.0390625,9.84375,0,0,0,0,0,0,0.005004883,0.005615234,-0.001831055,0,0,-0.001831055,0,4.077,0,0,0,0,nan,2,-1,0,0,0,0,0,0,0,0,0,1,1,1
60.607,0.001025,0,-0.00390625,-0.00390625,-0.0078125,0.03125,9.804688,0,-0.001953125,-0.001953125,0,0,0,0.005004883,0.005615234,-0.001831055,0,0,-0.001831055,0,4.077,0,0,0,0,nan,2,-1,0,0,0,0,0,0,0,0,0,1,1,1
60.617,0.001013,0,-0.001953125,0,-0.1015625,0.0390625,9.84375,0.001953125,0,0,0,0,0,0.005004883,0.005615234,-0.001831055,0,0,-0.001831055,0,4.077,0,0,0,0,nan,2,-1,0,0,0,0,0,0,0,0,0,1,1,1
60.627,0.001022,0,0,-0.001953125,-0.046875,0.046875,9.859375,0,-0.001953125,0,0,0,0,0.005004883,0.005615234,-0.001831055,0,0,-0.001831055,0,4.077,0,0,0,0,nan,2,-1,0,0,0,0,0,0,0,0,0,1,1,1
60.637,0.001017,0,0,-0.001953125,-0.0625,0.0546875,9.828125,0,0,-0.001953125,0,0,0,0.005004883,0.005615234,-0.001831055,0,0,-0.001831055,0,4.077,0,0,0,0,nan,2,-1,0,0,0,0,0,0,0,0,0,1,1,1
60.646,0.001009,-0.00390625,0,0,-0.0390625,0.0390625,9.882812,-0.001953125,0,0,0,0,0,0.005004883,0.005615234,-0.001953125,0,0,-0.001953125,0,4.077,0,0,0,0,nan,2,-1,0,0,0,0,0,0,0,0,0,1,1,1
60.656,0.001009,0,0.001953125,0.001953125,-0.0703125,0.0859375,9.890625,0,0,0,0,0,0,0.005004883,0.005615234,-0.001953125,0,0,-0.001953125,0,4.077,0,0,0,0,nan,2,-1,0,0,0,0,0,0,0,0,0,1,1,1
60.667,0.001009,0,0.001953125,0,-0.0234375,0.0625,9.820312,0,0,0,0,0,0,0.005004883,0.005615234,-0.001953125,0,0,-0.001953125,0,4.077,0,0,0,0,nan,2,-1,0,0,0,0,0,0,0,0,0,1,1,1
60.677,0.001009,0.001953125,0.001953125,-0.00390625,-0.03125,0.09375,9.851562,0.001953125,0,-0.001953125,0,0,0,0.005004883,0.005615234,-0.001953125,0,0,-0.001953125,0,4.077,0,0,0,0,nan,2,-1,0,0,0,0,0,0,0,0,0,1,1,1
60.687,0.001037,0.001953125,-0.001953125,0.001953125,-0.0546875,0.1015625,9.820312,0,-0.001953125,-0.001953125,0,0,0,0.005004883,0.005615234,-0.001953125,0,0,-0.001953125,0,4.077,0,0,0,0,nan,2,-1,0,0,0,0,0,0,0,0,0,1,1,1
60.697,0.001015,0,0,0.001953125,-0.078125,0.0703125,9.859375,0,0,0,0,0,0,0.005004883,0.005615234,-0.001953125,0,0,-0.001953125,0,4.077,0,0,0,0,nan,2,-1,0,0,0,0,0,0,0,0,0,1,1,1
60.707,0.001018,0,0,0.001953125,-0.0390625,0.03125,9.796875,0,0,0,0,0,0,0.005004883,0.005615234,-0.001953125,0,0,-0.001953125,0,4.077,0,0,0,0,nan,2,-1,0,0,0,0,0,0,0,0,0,1,1,1
60.717,0.001008,0.001953125,0.001953125,0.001953125,-0.046875,0.046875,9.804688,0.001953125,0,0,0,0,0,0.005004883,0.005615234,-0.001953125,0,0,-0.001953125,0,4.077,0,0,0,0,nan,2,-1,0,0,0,0,0,0,0,0,0,1,1,1
60.727,0.001005,-0.001953125,0,0,-0.0625,0.078125,9.765625,0,0,0,0,0,0,0.005004883,0.005615234,-0.001953125,0,0,-0.001953125,0,4.077,0,0,0,0,nan,2,-1,0,0,0,0,0,0,0,0,0,1,1,1
60.737,0.001009,0.001953125,0.001953125,0,-0.1015625,0.0390625,9.84375,-0.001953125,0,0,0,0,0,0.005004883,0.005615234,-0.001953125,0,0,-0.001953125,0,4.077,0,0,0,0,nan,2,-1,0,0,0,0,0,0,0,0,0,1,1,1
60.747,0.001009,0.001953125,0.001953125,0,-0.0859375,0.0546875,9.804688,0,0.001953125,-0.001953125,0,0,0,0.005004883,0.005615234,-0.001953125,0,0,-0.001953125,0,4.077,0,0,0,0,nan,2,-1,0,0,0,0,0,0,0,0,0,1,1,1
60.756,0.001011,-0.001953125,0.001953125,0.001953125,-0.0859375,0.0390625,9.78125,-0.001953125,0,0,0,0,0,0.005004883,0.005615234,-0.001953125,0,0,-0.001953125,0,4.077,0,0,0,0,nan,2,-1,0,0,0,0,0,0,0,0,0,1,1,1
60.766,0.001011,0.001953125,0.001953125,-0.001953125,-0.03125,0.0546875,9.890625,0,0.001953125,0,0,0,0,0.005004883,0.005615234,-0.001953125,0,0,-0.001953125,0,4.077,0,0,0,0,nan,2,-1,0,0,0,0,0,0,0,0,0,1,1,1
60.777,0.001011,0,0,0,-0.046875,0.078125,9.828125,0,-0.001953125,-0.001953125,0,0,0,0.005004883,0.005615234,-0.001953125,0,0,-0.001953125,0,4.077,0,0,0,0,nan,2,-1,0,0,0,0,0,0,0,0,0,1,1,1
60.787,0.001011,0,0,-0.001953125,-0.0234375,0.09375,9.875,0,0,0,0,0,0,0.005004883,0.005615234,-0.001953125,0,0,-0.001953125,0,4.077,0,0,0,0,nan,2,-1,0,0,0,0,0,0,0,0,0,1,1,1
60.797,0.001017,0,0,0.00390625,-0.03125,0.015625,9.898438,0,0,0.001953125,0,0,0,0.005004883,0.005615234,-0.001953125,0,0,-0.001953125,0,4.077,0,0,0,0,nan,2,-1,0,0,0,0,0,0,0,0,0,1,1,1
60.807,0.001012,0,0,0.00390625,-0.0625,0.0703125,9.835938,0,0,0.001953125,0,0,0,0.005004883,0.005615234,-0.001953125,0,0,-0.001953125,0,4.077,0,0,0,0,nan,2,-1,0,0,0,0,0,0,0,0,0,1,1,1
60.817,0.000973,0,0,0,-0.078125,0.0234375,9.835938,0,0,0,0,0,0,0.005004883,0.005615234,-0.001953125,0,0,-0.001953125,0,4.077,0,0,0,0,nan,2,-1,0,0,0,0,0,0,0,0,0,1,1,1
60.827,0.001013,0,0,-0.001953125,-0.03125,0.0703125,9.835938,0,0,-0.001953125,0,0,0,0.005004883,0.005615234,-0.001953125,0,0,-0.001953125,0,4.077,0,0,0,0,nan,2,-1,0,0,0,0,0,0,0,0,0,1,1,1
60.837,0.001034,0,0.001953125,0,-0.046875,0.0546875,9.90625,0,0,0,0,0,0,0.005004883,0.005615234,-0.001953125,0,0,-0.001953125,0,4.077,0,0,0,0,nan,2,-1,0,0,0,0,0,0,0,0,0,1,1,1
60.847,0.001012,0.001953125,0,0,-0.0703125,0.0546875,9.835938,0.001953125,0,0,0,0,0,0.005004883,0.005615234,-0.001953125,0,0,-0.001953125,0,4.077,0,0,0,0,nan,2,-1,0,0,0,0,0,0,0,0,0,1,1,1
60.856,0.001008,0.001953125,0,0,-0.0546875,0.0390625,9.8125,0.001953125,0,0.001953125,0,0,0,0.005004883,0.005615234,-0.001953125,0,0,-0.001953125,0,4.077,0,0,0,0,nan,2,-1,0,0,0,0,0,0,0,0,0,1,1,1
60.866,0.001008,-0.00390625,0,-0.001953125,-0.0625,0.0703125,9.882812,-0.001953125,0,0,0,0,0,0.005004883,0.005615234,-0.001953125,0,0,-0.001953125,0,4.077,0,0,0,0,nan,2,-1,0,0,0,0,0,0,0,0,0,1,1,1
60.877,0.001008,0.001953125,-0.001953125,0.005859375,-0.0703125,0.0625,9.804688,0,0,0.001953125,0,0,0,0.005004883,0.005615234,-0.001953125,0,0,-0.001953125,0,4.077,0,0,0,0,nan,2,-1,0,0,0,0,0,0,0,0,0,1,1,1
60.887,0.001008,0.001953125,-0.00390625,0,-0.0703125,0.03125,9.78125,0,-0.001953125,0,0,0,0,0.005004883,0.005493164,-0.001953125,0,0,-0.001953125,0,4.077,0,0,0,0,nan,2,-1,0,0,0,0,0,0,0,0,0,1,1,1
60.897,0.001009,-0.001953125,0,0,-0.0625,0.046875,9.820312,0,0,0,0,0,0,0.005004883,0.005493164,-0.001953125,0,0,-0.001953125,0,4.077,0,0,0,0,nan,2,-1,0,0,0,0,0,0,0,0,0,1,1,1
60.907,0.00101,0.001953125,0,-0.00390625,-0.0234375,0.0078125,9.78125,0.001953125,-0.001953125,-0.001953125,0,0,0,0.005004883,0.005493164,-0.001953125,0,0,-0.001953125,0,4.077,0,0,0,0,nan,2,-1,0,0,0,0,0,0,0,0,0,1,1,1
60.917,0.001016,0.001953125,0,0,-0.0546875,0.0703125,9.875,0.001953125,0.001953125,0,0,0,0,0.005004883,0.005493164,-0.001953125,0,0,-0.001953125,0,4.077,0,0,0,0,nan,2,-1,0,0,0,0,0,0,0,0,0,1,1,1
60.927,0.001004,0,-0.001953125,0,-0.0390625,0.0390625,9.867188,0,-0.001953125,0,0,0,0,0.005004883,0.005493164,-0.001953125,0,0,-0.001953125,0,4.077,0,0,0,0,nan,2,-1,0,0,0,0,0,0,0,0,0,1,1,1
60.937,0.001009,0.001953125,0.001953125,0.001953125,-0.078125,0.0546875,9.820312,0,0,0.001953125,0,0,0,0.005004883,0.005493164,-0.001953125,0,0,-0.001953125,0,4.077,0,0,0,0,nan,2,-1,0,0,0,0,0,0,0,0,0,1,1,1
60.947,0.000971,0.001953125,0,-0.001953125,-0.0546875,0.046875,9.789062,0,0,-0.001953125,0,0,0,0.005004883,0.005493164,-0.001953125,0,0,-0.001953125,0,4.077,0,0,0,0,nan,2,-1,0,0,0,0,0,0,0,0,0,1,1,1
60.956,0.001006,0.001953125,-0.001953125,0,-0.078125,0.0546875,9.820312,0,0,0,0,0,0,0.005004883,0.005493164,-0.001953125,0,0,-0.001953125,0,4.077,0,0,0,0,nan,2,-1,0,0,0,0,0,0,0,0,0,1,1,1
60.966,0.001006,0.001953125,0.00390625,0.001953125,-0.0546875,0.0390625,9.84375,0,0,0.001953125,0,0,0,0.005004883,0.005493164,-0.001953125,0,0,-0.001953125,0,4.077,0,0,0,0,nan,2,-1,0,0,0,0,0,0,0,0,0,1,1,1
60.977,0.001006,0,0,0.001953125,-0.0546875,0.015625,9.84375,0.001953125,0,0,0,0,0,0.005004883,0.005493164,-0.001953125,0,0,-0.001953125,0,4.077,0,0,0,0,nan,2,-1,0,0,0,0,0,0,0,0,0,1,1,1
60.987,0.001006,0,0,0.001953125,-0.0390625,0.09375,9.851562,0,0,0.001953125,0,0,0,0.005004883,0.005493164,-0.001831055,0,0,-0.001831055,0,4.077,0,0,0,0,nan,2,-1,0,0,0,0,0,0,0,0,0,1,1,1
60.997,0.001006,-0.001953125,0,0.001953125,-0.046875,0.03125,9.820312,0,0,0.001953125,0,0,0,0.005004883,0.005493164,-0.001831055,0,0,-0.001831055,0,4.077,0,0,0,0,nan,2,-1,0,0,0,0,0,0,0,0,0,1,1,1
61.007,0.001004,0,-0.00390625,0.001953125,-0.0390625,0.1015625,9.828125,0,0,0,0,0,0,0.005004883,0.005493164,-0.001831055,0,0,-0.001831055,0,4.077,0,0,0,0,nan,2,-1,0,0,0,0,0,0,0,0,0,1,1,1
61.017,0.001004,0.00390625,0,-0.001953125,-0.03125,0.03125,9.859375,0.001953125,0,0,0,0,0,0.005004883,0.005493164,-0.001831055,0,0,-0.001831055,0,4.077,0,0,0,0,nan,2,-1,0,0,0,0,0,0,0,0,0,1,1,1
61.027,0.001006,0,0,0,-0.03125,0.0703125,9.828125,0,0,0,0,0,0,0.005004883,0.005493164,-0.001831055,0,0,-0.001831055,0,4.077,0,0,0,0,nan,2,-1,0,0,0,0,0,0,0,0,0,1,1,1
61.037,0.001006,0.001953125,0,0,-0.0234375,0.078125,9.859375,0.001953125,0,0,0,0,0,0.005004883,0.005493164,-0.001831055,0,0,-0.001831055,0,4.077,0,0,0,0,nan,2,-1,0,0,0,0,0,0,0,0,0,1,1,1
61.047,0.001006,0.001953125,0.001953125,-0.001953125,-0.046875,0.0546875,9.835938,0,0.001953125,0,0,0,0,0.005004883,0.005493164,-0.001831055,0,0,-0.001831055,0,4.077,0,0,0,0,nan,2,-1,0,0,0,0,0,0,0,0,0,1,1,1
61.056,0.001014,0,-0.001953125,0.001953125,-0.09375,0.0625,9.890625,0,0,0,0,0,0,0.005004883,0.005493164,-0.001831055,0,0,-0.001831055,0,4.077,0,0,0,0,nan,2,-1,0,0,0,0,0,0,0,0,0,1,1,1
61.066,0.001014,0,-0.00390625,0.00390625,-0.0625,0.03125,9.789062,0,-0.001953125,0.001953125,0,0,0,0.005004883,0.005493164,-0.001831055,0,0,-0.001831055,0,4.077,0,0,0,0,nan,2,-1,0,0,0,0,0,0,0,0,0,1,1,1
61.077,0.001014,0.001953125,0,0,-0.046875,0.078125,9.851562,0,0,0.001953125,0,0,0,0.005004883,0.005493164,-0.001831055,0,0,-0.001831055,0,4.077,0,0,0,0,nan,2,-1,0,0,0,0,0,0,0,0,0,1,1,1
61.087,0.001014,-0.001953125,0,0,-0.0234375,0.0546875,9.789062,0,0,0.001953125,0,0,0,0.005126953,0.005493164,-0.001831055,0,0,-0.001831055,0,4.077,0,0,0,0,nan,2,-1,0,0,0,0,0,0,0,0,0,1,1,1
61.097,0.001014,0.001953125,0.00390625,0.001953125,-0.125,0.0078125,9.804688,0.001953125,0.001953125,0,0,0,0,0.005126953,0.005493164,-0.001831055,0,0,-0.001831055,0,4.077,0,0,0,0,nan,2,-1,0,0,0,0,0,0,0,0,0,1,1,1
61.107,0.001012,0.005859375,0,0,-0.015625,0.0625,9.851562,0.001953125,0,-0.001953125,0,0,0,0.005126953,0.005493164,-0.001831055,0,0,-0.001831055,0,4.077,0,0,0,0,nan,2,-1,0,0,0,0,0,0,0,0,0,1,1,1
61.117,0.001011,-0.001953125,0,0.001953125,-0.0546875,0.0625,9.789062,0,0,0,0,0,0,0.005126953,0.005493164,-0.001831055,0,0,-0.001831055,0,4.077,0,0,0,0,nan,2,-1,0,0,0,0,0,0,0,0,0,1,1,1
61.127,0.001005,0,0.001953125,0.001953125,-0.046875,0.09375,9.804688,0,0,0,0,0,0,0.005126953,0.005493164,-0.001831055,0,0,-0.001831055,0,4.077,0,0,0,0,nan,2,-1,0,0,0,0,0,0,0,0,0,1,1,1
61.137,0.001014,-0.001953125,0,0,-0.0625,0.046875,9.835938,0,-0.001953125,0,0,0,0,0.005126953,0.005493164,-0.001831055,0,0,-0.001831055,0,4.077,0,0,0,0,nan,2,-1,0,0,0,0,0,0,0,0,0,1,1,1
61.147,0.001014,-0.001953125,0,0.001953125,-0.0625,0.0546875,9.796875,0,0,0,0,0,0,0.005126953,0.005493164,-0.001831055,0,0,-0.001831055,0,4.077,0,0,0,0,nan,2,-1,0,0,0,0,0,0,0,0,0,1,1,1
61.156,0.001012,-0.001953125,0,0,-0.046875,0.046875,9.828125,0,0,0,0,0,0,0.005126953,0.005493164,-0.001831055,0,0,-0.001831055,0,4.077,0,0,0,0,nan,2,-1,0,0,0,0,0,0,0,0,0,1,1,1
61.166,0.001012,-0.00390625,0.001953125,-0.001953125,-0.03125,0.015625,9.828125,-0.001953125,0.001953125,-0.001953125,0,0,0,0.005004883,0.005493164,-0.001831055,0,0,-0.001831055,0,4.077,0,0,0,0,nan,2,-1,0,0,0,0,0,0,0,0,0,1,1,1
61.177,0.001012,-0.001953125,0.001953125,0.00390625,-0.0546875,0.0390625,9.828125,0,0,0.001953125,0,0,0,0.005004883,0.005493164,-0.001831055,0,0,-0.001831055,0,4.077,0,0,0,0,nan,2,-1,0,0,0,0,0,0,0,0,0,1,1,1
61.187,0.001012,0.001953125,0,0,-0.0859375,0.0234375,9.882812,0,0,0,0,0,0,0.005004883,0.005493164,-0.001831055,0,0,-0.001831055,0,4.077,0,0,0,0,nan,2,-1,0,0,0,0,0,0,0,0,0,1,1,1
61.197,0.001012,-0.00390625,0,0.001953125,-0.0390625,0.0078125,9.835938,-0.001953125,0,0,0,0,0,0.005004883,0.005493164,-0.001831055,0,0,-0.001831055,0,4.077,0,0,0,0,nan,2,-1,0,0,0,0,0,0,0,0,0,1,1,1
61.207,0.001014,0,0.00390625,-0.001953125,-0.0703125,0.03125,9.820312,0,0.001953125,0,0,0,0,0.005004883,0.005493164,-0.001831055,0,0,-0.001831055,0,4.077,0,0,0,0,nan,2,-1,0,0,0,0,0,0,0,0,0,1,1,1
61.217,0.001039,0.001953125,-0.001953125,0,-0.046875,0.0390625,9.828125,0,0,0,0,0,0,0.005004883,0.005493164,-0.001831055,0,0,-0.001831055,0,4.077,0,0,0,0,nan,2,-1,0,0,0,0,0,0,0,0,0,1,1,1
61.227,0.000984,0.001953125,0,0.001953125,-0.0390625,0.0625,9.804688,0.001953125,0,0.001953125,0,0,0,0.005004883,0.005493164,-0.001831055,0,0,-0.001831055,0,4.077,0,0,0,0,nan,2,-1,0,0,0,0,0,0,0,0,0,1,1,1
61.237,0.000965,0.001953125,0,0,-0.0546875,0.0390625,9.820312,0.001953125,0,0,0,0,0,0.005004883,0.005493164,-0.001831055,0,0,-0.001831055,0,4.077,0,0,0,0,nan,2,-1,0,0,0,0,0,0,0,0,0,1,1,1
61.247,0.001012,0,0,-0.001953125,-0.0703125,0.046875,9.890625,0,0,0,0,0,0,0.005004883,0.005493164,-0.001831055,0,0,-0.001831055,0,4.077,0,0,0,0,nan,2,-1,0,0,0,0,0,0,0,0,0,1,1,1
61.256,0.001009,0.00390625,0.001953125,0,-0.03125,0.0390625,9.8125,0,0,0,0,0,0,0.005004883,0.005493164,-0.001831055,0,0,-0.001831055,0,4.077,0,0,0,0,nan,2,-1,0,0,0,0,0,0,0,0,0,1,1,1
61.266,0.001009,0.001953125,-0.001953125,0.001953125,-0.03125,0.03125,9.835938,0,0,0,0,0,0,0.005004883,0.005493164,-0.001831055,0,0,-0.001831055,0,4.077,0,0,0,0,nan,2,-1,0,0,0,0,0,0,0,0,0,1,1,1
61.277,0.001009,0,0.00390625,0.00390625,-0.0546875,0.046875,9.859375,0,0,0,0,0,0,0.005004883,0.005493164,-0.001831055,0,0,-0.001831055,0,4.077,0,0,0,0,nan,2,-1,0,0,0,0,0,0,0,0,0,1,1,1
61.287,0.001009,0.001953125,-0.001953125,0,-0.0234375,0.0859375,9.851562,0,-0.001953125,0,0,0,0,0.005004883,0.005493164,-0.001831055,0,0,-0.001831055,0,4.077,0,0,0,0,nan,2,-1,0,0,0,0,0,0,0,0,0,1,1,1
61.297,0.001009,0,-0.001953125,0.00390625,-0.03125,0.0390625,9.84375,0,0,0.001953125,0,0,0,0.005004883,0.005493164,-0.001831055,0,0,-0.001831055,0,4.077,0,0,0,0,nan,2,-1,0,0,0,0,0,0,0,0,0,1,1,1
61.307,0.0009869999,0.001953125,0,0,-0.0546875,0.0234375,9.867188,0,0,0,0,0,0,0.005004883,0.005493164,-0.001831055,0,0,-0.001831055,0,4.077,0,0,0,0,nan,2,-1,0,0,0,0,0,0,0,0,0,1,1,1
61.317,0.000997,0.001953125,0.001953125,-0.00390625,-0.0390625,0.09375,9.804688,0.001953125,0,-0.001953125,0,0,0,0.005004883,0.005493164,-0.001831055,0,0,-0.001831055,0,4.077,0,0,0,0,nan,2,-1,0,0,0,0,0,0,0,0,0,1,1,1
61.327,0.000998,0.00390625,0,-0.00390625,-0.0546875,0.078125,9.828125,0.001953125,0,0,0,0,0,0.005004883,0.005493164,-0.001831055,0,0,-0.001831055,0,4.077,0,0,0,0,nan,2,-1,0,0,0,0,0,0,0,0,0,1,1,1
61.337,0.001009,0.001953125,0,0,-0.0390625,0.0546875,9.890625,0,0,-0.001953125,0,0,0,0.005004883,0.005493164,-0.001831055,0,0,-0.001831055,0,4.077,0,0,0,0,nan,2,-1,0,0,0,0,0,0,0,0,0,1,1,1
61.347,0.001009,-0.001953125,-0.001953125,0,-0.015625,0.03125,9.851562,0,0,0,0,0,0,0.005004883,0.005493164,-0.001831055,0,0,-0.001831055,0,4.077,0,0,0,0,nan,2,-1,0,0,0,0,0,0,0,0,0,1,1,1
61.357,0.00106,0,-0.005859375,0,-0.0625,0.046875,9.75,0,-0.001953125,0,0,0,0,0.005004883,0.005493164,-0.001831055,0,0,-0.001831055,0,4.077,0,0,0,0,nan,2,-1,0,0,0,0,0,0,0,0,0,1,1,1
61.366,0.001011,0.001953125,0,0,-0.046875,0.078125,9.859375,0,0,0,0,0,0,0.005004883,0.005371094,-0.001831055,0,0,-0.001831055,0,4.077,0,0,0,0,nan,2,-1,0,0,0,0,0,0,0,0,0,1,1,1
61.377,0.001011,-0.001953125,0.001953125,0.001953125,-0.0625,0.0625,9.859375,0,0.001953125,0,0,0,0,0.005004883,0.005493164,-0.001831055,0,0,-0.001831055,0,4.077,0,0,0,0,nan,2,-1,0,0,0,0,0,0,0,0,0,1,1,1
61.387,0.001011,0.001953125,0,0,-0.0546875,0.0546875,9.84375,0,0,0,0,0,0,0.005004883,0.005493164,-0.001831055,0,0,-0.001831055,0,4.077,0,0,0,0,nan,2,-1,0,0,0,0,0,0,0,0,0,1,1,1
61.397,0.001011,0.001953125,-0.001953125,0,-0.046875,0.046875,9.804688,0,-0.001953125,0,0,0,0,0.005004883,0.005371094,-0.001831055,0,0,-0.001831055,0,4.077,0,0,0,0,nan,2,-1,0,0,0,0,0,0,0,0,0,1,1,1
61.407,0.001028,0.001953125,0,0,-0.046875,0.0390625,9.84375,0,0,0,0,0,0,0.005004883,0.005371094,-0.001831055,0,0,-0.001831055,0,4.077,0,0,0,0,nan,2,-1,0,0,0,0,0,0,0,0,0,1,1,1
61.417,0.00102,0,-0.001953125,0.001953125,-0.0546875,0.046875,9.84375,0,0,0.001953125,0,0,0,0.005004883,0.005371094,-0.001831055,0,0,-0.001831055,0,4.077,0,0,0,0,nan,2,-1,0,0,0,0,0,0,0,0,0,1,1,1
61.427,0.001015,0,0,0,-0.0390625,0.0390625,9.867188,-0.001953125,0.001953125,0,0,0,0,0.005004883,0.005371094,-0.001831055,0,0,-0.001831055,0,4.077,0,0,0,0,nan,2,-1,0,0,0,0,0,0,0,0,0,1,1,1
61.437,0.001011,0.001953125,0,0,-0.046875,0.0703125,9.796875,0,-0.001953125,0,0,0,0,0.005004883,0.005371094,-0.001831055,0,0,-0.001831055,0,4.077,0,0,0,0,nan,2,-1,0,0,0,0,0,0,0,0,0,1,1,1
61.446,0.00103,-0.00390625,-0.001953125,0,-0.015625,0.03125,9.820312,-0.001953125,0,0,0,0,0,0.005004883,0.005371094,-0.001831055,0,0,-0.001831055,0,4.077,0,0,0,0,nan,2,-1,0,0,0,0,0,0,0,0,0,1,1,1
61.457,0.001012,0.001953125,-0.00390625,0,-0.0625,0.0625,9.867188,0,0,0,0,0,0,0.005004883,0.005371094,-0.001831055,0,0,-0.001831055,0,4.077,0,0,0,0,nan,2,-1,0,0,0,0,0,0,0,0,0,1,1,1
61.466,0.000967,0.00390625,0,0.00390625,-0.0390625,0.0703125,9.804688,0,0,0.001953125,0,0,0,0.005004883,0.005371094,-0.001831055,0,0,-0.001831055,0,4.077,0,0,0,0,nan,2,-1,0,0,0,0,0,0,0,0,0,1,1,1
61.477,0.001037,0.001953125,-0.001953125,0.00390625,-0.03125,0.0625,9.851562,0,0,0,0,0,0,0.005004883,0.005371094,-0.001831055,0,0,-0.001831055,0,4.077,0,0,0,0,nan,2,-1,0,0,0,0,0,0,0,0,0,1,1,1
61.487,0.001013,0,-0.00390625,0,-0.046875,0.015625,9.8125,0,-0.001953125,0,0,0,0,0.005004883,0.005371094,-0.001831055,0,0,-0.001831055,0,4.077,0,0,0,0,nan,2,-1,0,0,0,0,0,0,0,0,0,1,1,1
61.497,0.00102,-0.001953125,-0.001953125,0.001953125,-0.1015625,0.03125,9.8125,0,0,0,0,0,0,0.005004883,0.005371094,-0.001831055,0,0,-0.001831055,0,4.077,0,0,0,0,nan,2,-1,0,0,0,0,0,0,0,0,0,1,1,1
61.507,0.001019,-0.00390625,0,0.001953125,-0.0390625,0.0546875,9.875,-0.001953125,0,0.001953125,0,0,0,0.005004883,0.005371094,-0.001831055,0,0,-0.001831055,0,4.077,0,0,0,0,nan,2,-1,0,0,0,0,0,0,0,0,0,1,1,1
61.517,0.001014,0,0,0,-0.03125,0.0390625,9.867188,-0.001953125,0,0,0,0,0,0.005004883,0.005371094,-0.001831055,0,0,-0.001831055,0,4.077,0,0,0,0,nan,2,-1,0,0,0,0,0,0,0,0,0,1,1,1
61.527,0.000985,0.001953125,0,0,-0.0859375,0.03125,9.828125,0,0,0,0,0,0,0.005004883,0.005371094,-0.001831055,0,0,-0.001831055,0,4.077,0,0,0,0,nan,2,-1,0,0,0,0,0,0,0,0,0,1,1,1
61.537,0.001035,0.001953125,0,0,-0.0546875,0.0234375,9.78125,0.001953125,0,0,0,0,0,0.005004883,0.005371094,-0.001831055,0,0,-0.001831055,0,4.077,0,0,0,0,nan,2,-1,0,0,0,0,0,0,0,0,0,1,1,1
61.547,0.001009,-0.001953125,-0.001953125,0,-0.0546875,0.0546875,9.867188,0,-0.001953125,-0.001953125,0,0,0,0.005004883,0.005371094,-0.001831055,0,0,-0.001831055,0,4.077,0,0,0,0,nan,2,-1,0,0,0,0,0,0,0,0,0,1,1,1
61.557,0.001018,-0.001953125,0,0,-0.0625,0.0390625,9.867188,0,0,0,0,0,0,0.005004883,0.005371094,-0.001831055,0,0,-0.001831055,0,4.077,0,0,0,0,nan,2,-1,0,0,0,0,0,0,0,0,0,1,1,1
61.566,0.000992,-0.00390625,0.00390625,0.001953125,-0.0078125,0.0234375,9.84375,0,0.001953125,0,0,0,0,0.005004883,0.005371094,-0.001831055,0,0,-0.001831055,0,4.077,0,0,0,0,nan,2,-1,0,0,0,0,0,0,0,0,0,1,1,1
61.577,0.001033,-0.00390625,-0.001953125,0.001953125,-0.0859375,0.046875,9.8125,0,0,0.001953125,0,0,0,0.005004883,0.005371094,-0.001831055,0,0,-0.001831055,0,4.077,0,0,0,0,nan,2,-1,0,0,0,0,0,0,0,0,0,1,1,1
61.587,0.001012,-0.001953125,0,0,-0.0625,0.0546875,9.78125,0,0,0,0,0,0,0.005004883,0.005371094,-0.001831055,0,0,-0.001831055,0,4.077,0,0,0,0,nan,2,-1,0,0,0,0,0,0,0,0,0,1,1,1
61.597,0.001043,0.001953125,0.001953125,0.001953125,-0.0546875,0.0390625,9.867188,0.001953125,0,0.001953125,0,0,0,0.005004883,0.005371094,-0.001831055,0,0,-0.001831055,0,4.077,0,0,0,0,nan,2,-1,0,0,0,0,0,0,0,0,0,1,1,1
61.607,0.001017,0.001953125,0.00390625,0,-0.078125,0.046875,9.8125,0,0.001953125,0,0,0,0,0.005004883,0.005371094,-0.001831055,0,0,-0.001831055,0,4.077,0,0,0,0,nan,2,-1,0,0,0,0,0,0,0,0,0,1,1,1
61.617,0.001033,0.001953125,0.001953125,0,-0.0546875,0.0859375,9.851562,0.001953125,0,-0.001953125,0,0,0,0.005004883,0.005371094,-0.001831055,0,0,-0.001831055,0,4.077,0,0,0,0,nan,2,-1,0,0,0,0,0,0,0,0,0,1,1,1
61.627,0.001,0.00390625,0.001953125,0.001953125,-0.0546875,0.09375,9.851562,0,0.001953125,0,0,0,0,0.005004883,0.005371094,-0.001831055,0,0,-0.001831055,0,4.077,0,0,0,0,nan,2,-1,0,0,0,0,0,0,0,0,0,1,1,1
61.637,0.001059,0.00390625,0,0.001953125,-0.0234375,0.078125,9.90625,0.001953125,0.001953125,0,0,0,0,0.005126953,0.005371094,-0.001831055,0,0,-0.001831055,0,4.077,0,0,0,0,nan,2,-1,0,0,0,0,0,0,0,0,0,1,1,1
61.646,0.000971,0.001953125,0.001953125,0.001953125,-0.078125,0.0703125,9.835938,0,0,0,0,0,0,0.005126953,0.005371094,-0.001831055,0,0,-0.001831055,0,4.077,0,0,0,0,nan,2,0.006,0,0,0,0,0,0,0,0,0,1,2,1
61.656,0.001052,0,0,0,-0.0625,0.0625,9.867188,0,-0.001953125,0,0,0,0,0.005126953,0.005371094,-0.001831055,0,0,-0.001831055,0,4.077,0,0,0,0,nan,2,0.016,0,0,0,0,0,0,0,0,0,1,2,1
61.666,0.001014,0,-0.001953125,0,-0.0390625,0.0390625,9.84375,0,-0.001953125,0,0,0,0,0.005126953,0.005371094,-0.001831055,0,0,-0.001831055,0,4.077,0,0,0,0,nan,2,0.026,0,0,0,0,0,0,0,0,0,1,2,1
61.677,0.001029,0,0,0.00390625,-0.078125,0.0546875,9.851562,0.001953125,0,0.001953125,0,0,0,0.005126953,0.005371094,-0.001831055,0,0,-0.001831055,0,4.077,0,0,0,0,nan,2,0.036,0,0,0,0,0,0,0,0,0,1,2,1
61.687,0.001047,0,0,-0.001953125,-0.0625,0.046875,9.78125,0,0,0,0,0,0,0.005126953,0.005371094,-0.001831055,0,0,-0.001831055,0,4.077,0,0,0,0,nan,2,0.046,0,0,0,0,0,0,0,0,0,1,2,1
61.697,0.001014,0.001953125,0,0,-0.078125,0.015625,9.867188,0,0,-0.001953125,0,0,0,0.005126953,0.005371094,-0.001831055,0,0,-0.001831055,0,4.077,0,0,0,0,nan,2,0.056,0,0,0,0,0,0,0,0,0,1,2,1
61.707,0.001013,-0.001953125,0,0.001953125,-0.0390625,0.0390625,9.820312,-0.001953125,0,0.001953125,0,0,0,0.005126953,0.005371094,-0.001831055,0,0,-0.001831055,0,4.077,0,0,0,0,nan,2,0.067,0,0,0,0,0,0,0,0,0,1,2,1
61.717,0.000977,0,0,0,-0.0703125,0.046875,9.859375,-0.001953125,0,0,0,0,0,0.005004883,0.005371094,-0.001831055,0,0,-0.001831055,0,4.077,0,0,0,0,nan,2,0.077,0,0,0,0,0,0,0,0,0,1,2,1
61.727,0.000984,-0.001953125,0,0.001953125,-0.0546875,0.078125,9.828125,0,-0.001953125,0.001953125,0,0,0,0.005004883,0.005371094,-0.001831055,0,0,-0.001831055,0,4.077,0,0,0,0,nan,2,0.087,0,0,0,0,0,0,0,0,0,1,2,1
61.737,0.000983,0.001953125,-0.001953125,0.001953125,-0.03125,0.0234375,9.820312,0,0,0.001953125,nan,nan,nan,0.005004883,0.005371094,-0.001708984,nan,nan,nan,0,4.077,0,0,0,0,nan,4,0.097,0,0,0,0,0,0,0,0,0,1,2,1
61.747,0.001009,-0.001953125,0,0,-0.046875,0.03125,9.8125,0,0,0,nan,nan,nan,0.005004883,0.005371094,-0.001708984,nan,nan,nan,0,4.077,0,0,0,0,nan,4,0.107,0,0,0,0,0,0,0,0,0,1,2,1
61.757,0.000975,-0.001953125,0,0,-0.0234375,0.03125,9.828125,-0.001953125,0,0,nan,nan,nan,0.005004883,0.005371094,-0.001708984,nan,nan,nan,0,4.077,0,0,0,0,nan,4,0.117,0,0,0,0,0,0,0,0,0,1,2,1
61.766,0.000954,0,0,-0.001953125,-0.078125,0.0625,9.835938,0,0,0,nan,nan,nan,0.005004883,0.005371094,-0.001708984,nan,nan,nan,0,4.077,0,0,0,0,nan,4,0.126,0,0,0,0,0,0,0,0,0,1,2,1
61.777,0.00098,-0.001953125,-0.001953125,-0.001953125,-0.0703125,0.0859375,9.8125,0,0,0,nan,nan,nan,0.005004883,0.005371094,-0.001708984,nan,nan,nan,0,4.077,0,0,0,0,nan,4,0.136,0,0,0,0,0,0,0,0,0,1,2,1
61.787,0.001018,-0.001953125,0,0,-0.0703125,0.0859375,9.84375,0,0,-0.001953125,nan,nan,nan,0.005004883,0.005371094,-0.001708984,nan,nan,nan,0,4.077,0,0,0,0,nan,4,0.146,0,0,0,0,0,0,0,0,0,1,2,1
61.797,0.001,-0.001953125,-0.001953125,0,-0.0625,0,9.859375,0,0,0,nan,nan,nan,0.005004883,0.005371094,-0.001708984,nan,nan,nan,0,4.077,0,0,0,0,nan,4,0.157,0,0,0,0,0,0,0,0,0,1,2,1
61.807,0.001011,-0.001953125,-0.001953125,-0.00390625,-0.0546875,0.0546875,9.867188,0,-0.001953125,0,nan,nan,nan,0.005004883,0.005371094,-0.001708984,nan,nan,nan,0,4.077,0,0,0,0,nan,4,0.167,0,0,0,0,0,0,0,0,0,1,2,1
61.817,0.001016,0,0,-0.001953125,-0.0234375,0.0390625,9.851562,-0.001953125,0,0,nan,nan,nan,0.005004883,0.005371094,-0.001708984,nan,nan,nan,0,4.077,0,0,0,0,nan,4,0.177,0,0,0,0,0,0,0,0,0,1,2,1
61.827,0.001026,0,-0.00390625,-0.001953125,-0.03125,0.078125,9.84375,0,0,-0.001953125,nan,nan,nan,0.005004883,0.005371094,-0.001708984,nan,nan,nan,0,4.077,0,0,0,0,nan,4,0.187,0,0,0,0,0,0,0,0,0,1,2,1
61.837,0.001013,0,-0.001953125,0,-0.078125,0.015625,9.8125,0,0,-0.001953125,nan,nan,nan,0.005004883,0.005371094,-0.001831055,nan,nan,nan,0,4.077,0,0,0,0,nan,4,0.197,0,0,0,0,0,0,0,0,0,1,2,1
61.847,0.001011,0.00390625,0,-0.001953125,-0.046875,0.0703125,9.867188,0,0.001953125,0,nan,nan,nan,0.005004883,0.005371094,-0.001831055,nan,nan,nan,0,4.077,0,0,0,0,nan,4,0.207,0,0,0,0,0,0,0,0,0,1,2,1
61.857,0.001011,-0.00390625,0,0.001953125,-0.03125,0.03125,9.757812,-0.001953125,0,0,nan,nan,nan,0.005004883,0.005371094,-0.001831055,nan,nan,nan,0,4.077,0,0,0,0,nan,4,0.217,0,0,0,0,0,0,0,0,0,1,2,1
61.866,0.001009,0,-0.001953125,-0.001953125,-0.0546875,0.0703125,9.804688,0,0,-0.001953125,nan,nan,nan,0.005004883,0.005371094,-0.001831055,nan,nan,nan,0,4.077,0,0,0,0,nan,4,0.226,0,0,0,0,0,0,0,0,0,1,2,1
61.876,0.001009,0.001953125,0.00390625,0,-0.0625,0.0546875,9.875,0,0.001953125,0,nan,nan,nan,0.005004883,0.005371094,-0.001831055,nan,nan,nan,0,4.077,0,0,0,0,nan,4,0.236,0,0,0,0,0,0,0,0,0,1,2,1
61.887,0.001009,0,-0.001953125,0,-0.0390625,0.015625,9.835938,-0.001953125,-0.001953125,0.001953125,nan,nan,nan,0.005004883,0.005371094,-0.001831055,nan,nan,nan,0,4.077,0,0,0,0,nan,4,0.246,0,0,0,0,0,0,0,0,0,1,2,1
61.897,0.001009,-0.001953125,-0.001953125,0,-0.015625,0.0390625,9.789062,-0.001953125,-0.001953125,0,nan,nan,nan,0.005004883,0.005371094,-0.001831055,nan,nan,nan,0,4.077,0,0,0,0,nan,4,0.256,0,0,0,0,0,0,0,0,0,1,2,1
61.907,0.001009,0.00390625,-0.001953125,0,-0.0390625,0.0546875,9.90625,0,0,0,nan,nan,nan,0.005004883,0.005371094,-0.001831055,nan,nan,nan,0,4.077,0,0,0,0,nan,4,0.267,0,0,0,0,0,0,0,0,0,1,2,1
61.917,0.001008,0,0,0,-0.078125,0.03125,9.851562,0,0,0,nan,nan,nan,0.005004883,0.005371094,-0.001831055,nan,nan,nan,0,4.077,0,0,0,0,nan,4,0.277,0,0,0,0,0,0,0,0,0,1,2,1
61.927,0.001023,-0.001953125,0,0,-0.078125,0.078125,9.882812,0,0,0,nan,nan,nan,0.005004883,0.005371094,-0.001831055,nan,nan,nan,0,4.077,0,0,0,0,nan,4,0.287,0,0,0,0,0,0,0,0,0,1,2,1
61.937,0.001003,0.00390625,0.001953125,0,-0.0625,0.078125,9.851562,0.001953125,0.001953125,-0.001953125,nan,nan,nan,0.005004883,0.005371094,-0.001831055,nan,nan,nan,0,4.077,0,0,0,0,nan,4,0.297,0,0,0,0,0,0,0,0,0,1,2,1
61.947,0.001009,-0.00390625,0.001953125,-0.001953125,-0.0625,0.046875,9.804688,0,0,0,nan,nan,nan,0.005004883,0.005371094,-0.001831055,nan,nan,nan,0,4.077,0,0,0,0,nan,4,0.307,0,0,0,0,0,0,0,0,0,1,2,1
61.957,0.001009,-0.00390625,0.00390625,0,0,-0.0078125,9.820312,0,0.001953125,0,nan,nan,nan,0.005004883,0.005371094,-0.001831055,nan,nan,nan,0,4.077,0,0,0,0,nan,4,0.317,0,0,0,0,0,0,0,0,0,1,2,1
61.966,0.001,0.00390625,0,0,-0.0546875,0.046875,9.875,0.001953125,0,0.001953125,nan,nan,nan,0.005004883,0.005371094,-0.001831055,nan,nan,nan,0,4.077,0,0,0,0,nan,4,0.326,0,0,0,0,0,0,0,0,0,1,2,1
61.976,0.001005,-0.00390625,0,0,-0.0234375,0.015625,9.851562,-0.001953125,-0.001953125,0,nan,nan,nan,0.005004883,0.005371094,-0.001831055,nan,nan,nan,0,4.077,0,0,0,0,nan,4,0.336,0,0,0,0,0,0,0,0,0,1,2,1
61.987,0.001,0.005859375,-0.00390625,0,-0.015625,0.0234375,9.84375,0,0,0,nan,nan,nan,0.005004883,0.005371094,-0.001831055,nan,nan,nan,0,4.077,0,0,0,0,nan,4,0.346,0,0,0,0,0,0,0,0,0,1,2,1
61.997,0.001005,0,0,-0.001953125,-0.0546875,0.0234375,9.835938,0,0,0,nan,nan,nan,0.005004883,0.005371094,-0.001831055,nan,nan,nan,0,4.077,0,0,0,0,nan,4,0.356,0,0,0,0,0,0,0,0,0,1,2,1
62.007,0.001,0.001953125,-0.001953125,0,-0.0703125,0.046875,9.867188,0,-0.001953125,0,nan,nan,nan,0.005004883,0.005371094,-0.001831055,nan,nan,nan,0,4.077,0,0,0,0,nan,4,0.367,0,0,0,0,0,0,0,0,0,1,2,1
62.017,0.001019,0.001953125,0,-0.001953125,-0.0546875,0.03125,9.8125,0.001953125,0,-0.001953125,nan,nan,nan,0.005004883,0.005371094,-0.001831055,nan,nan,nan,0,4.077,0,0,0,0,nan,4,0.377,0,0,0,0,0,0,0,0,0,1,2,1
62.027,0.001028,0,0.00390625,0,-0.046875,0.03125,9.851562,0,0.001953125,0.001953125,nan,nan,nan,0.005004883,0.005371094,-0.001831055,nan,nan,nan,0,4.077,0,0,0,0,nan,4,0.387,0,0,0,0,0,0,0,0,0,1,2,1
62.037,0.001033,0,0.001953125,0,-0.0390625,0.015625,9.835938,0,0.001953125,0.001953125,nan,nan,nan,0.005004883,0.005371094,-0.001831055,0,0,-0.001831055,0,4.077,0,0,0,0.001403809,nan,4,0.396,1,0,0,0,0,0,0,0,0,1,3,1
62.047,0.000873,0,0,0,-0.0234375,0.046875,9.851562,-0.001953125,-0.001953125,0,nan,nan,nan,0.005004883,0.005371094,-0.001831055,0,0,-0.001831055,0,4.077,0,0,0,0.003601074,nan,4,0.407,1,0,0,0,0,0,0,0,0,1,3,1
62.056,0.001013,0,-0.001953125,0.001953125,-0.015625,0.03125,9.789062,0,0,0.001953125,nan,nan,nan,0.005004883,0.005371094,-0.001831055,0,0,-0.001831055,0,4.077,0,0,0,0.005371094,nan,4,0.416,1,0,0,0,0,0,0,0,0,1,3,1
62.067,0.001013,0,0,-0.001953125,-0.0390625,0.0546875,9.890625,0,0,0,nan,nan,nan,0.005004883,0.005371094,-0.001831055,0,0,-0.001831055,0,4.077,0,0,0,0.007385254,nan,4,0.426,1,0,0,0,0,0,0,0,0,1,3,1
62.077,0.001013,0.001953125,0,0.00390625,-0.046875,0.078125,9.835938,0,0,0.001953125,nan,nan,nan,0.005004883,0.005371094,-0.001831055,0,0,-0.001831055,0,4.077,0,0,0,0.009399414,nan,4,0.436,1,0,0,0,0,0,0,0,0,1,3,1
62.087,0.00101,-0.001953125,0,0,-0.046875,0.03125,9.898438,-0.001953125,0,0,nan,nan,nan,0.005004883,0.005371094,-0.001831055,0,0,-0.001831055,0,4.077,0,0,0,0.01141357,nan,4,0.446,1,0,0,0,0,0,0,0,0,1,3,1
62.097,0.00101,-0.001953125,0.001953125,0,-0.0390625,0.03125,9.78125,0,0.001953125,0,nan,nan,nan,0.005004883,0.005371094,-0.001831055,0,0,-0.001831055,0,4.077,0,0,0,0.01342773,nan,4,0.456,1,0,0,0,0,0,0,0,0,1,3,1
62.107,0.00101,0.00390625,-0.001953125,0,-0.03125,0.0234375,9.84375,0.001953125,0,0,nan,nan,nan,0.005004883,0.005371094,-0.001831055,0,0,-0.001831055,0,4.077,0,0,0,0.015625,nan,4,0.467,1,0,0,0,0,0,0,0,0,1,3,1
62.117,0.001006,0.005859375,0.001953125,0,-0.015625,0.0703125,9.8125,0.00390625,0,0,nan,nan,nan,0.005004883,0.005371094,-0.001831055,0,0,-0.001831055,0,4.077,0,0,0,0.01757812,nan,4,0.477,1,0,0,0,0,0,0,0,0,1,3,1
62.127,0.001029,0,0,0,-0.0625,0.0625,9.796875,0,0,0.001953125,nan,nan,nan,0.005004883,0.005371094,-0.001831055,0,0,-0.001831055,0,4.077,0,0,0,0.01959229,nan,4,0.487,1,0,0,0,0,0,0,0,0,1,3,1
62.137,0.001007,0,0.00390625,0,-0.0234375,0.015625,9.8125,0,0,0,nan,nan,nan,0.005004883,0.005371094,-0.001708984,0,0,-0.001831055,0,4.077,0,0,0,0.02160645,nan,4,0.497,1,0,0,0,0,0,0,0,0,1,3,1
62.146,0.00101,-0.001953125,0,0.001953125,-0.078125,0.0625,9.851562,0,0,0,nan,nan,nan,0.005004883,0.005371094,-0.001708984,0,0,-0.001831055,0,4.077,0,0,0,0.02337646,nan,4,0.506,1,0,0,0,0,0,0,0,0,1,3,1
62.157,0.00101,0,0.001953125,0.001953125,-0.046875,0.0234375,9.820312,0,0,0,nan,nan,nan,0.005004883,0.005371094,-0.001831055,0,0,-0.001831055,0,4.077,0,0,0,0.02539062,nan,4,0.516,1,0,0,0,0,0,0,0,0,1,3,1
62.167,0.00101,0.00390625,-0.001953125,0,-0.0703125,0.0234375,9.875,0.001953125,-0.001953125,0.001953125,nan,nan,nan,0.005004883,0.005371094,-0.001708984,0,0,-0.001831055,0,4.077,0,0,0,0.02740479,nan,4,0.526,1,0,0,0,0,0,0,0,0,1,3,1
62.177,0.000927,-0.001953125,0,0.00390625,-0.0625,0.078125,9.851562,0,0,0,nan,nan,nan,0.005004883,0.005371094,-0.001708984,0,0,-0.001831055,0,4.077,0,0,0,0.02941895,nan,4,0.536,1,0,0,0,0,0,0,0,0,1,3,1
62.187,0.001006,0,-0.005859375,0.001953125,-0.0546875,0.03125,9.859375,0,-0.001953125,0.001953125,nan,nan,nan,0.005004883,0.005371094,-0.001708984,0,0,-0.001831055,0,4.077,0,0,0,0.03137207,nan,4,0.546,1,0,0,0,0,0,0,0,0,1,3,1
62.197,0.001006,0,-0.001953125,0.001953125,-0.0234375,0.0390625,9.835938,0,-0.001953125,0,nan,nan,nan,0.005004883,0.005371094,-0.001708984,0,0,-0.001831055,0,4.077,0,0,0,0.03338623,nan,4,0.556,1,0,0,0,0,0,0,0,0,1,3,1
62.207,0.001006,0.001953125,0,0,-0.046875,0.0859375,9.828125,0.001953125,-0.001953125,0,nan,nan,nan,0.005004883,0.005371094,-0.001708984,0,0,-0.001831055,0,4.077,0,0,0,0.03540039,nan,4,0.567,1,0,0,0,0,0,0,0,0,1,3,1
62.216,0.000981,0,0.001953125,0,-0.03125,0.03125,9.867188,0,0,0,nan,nan,nan,0.005126953,0.005249023,-0.001708984,0,0,-0.001831055,0,4.077,0,0,0,0.03741455,nan,4,0.576,1,0,0,0,0,0,0,0,0,1,3,1
62.226,0.001019,0,0,0,-0.0703125,0.0078125,9.851562,-0.001953125,-0.001953125,0.001953125,nan,nan,nan,0.005004883,0.005249023,-0.001708984,0,0,-0.001831055,0,4.077,0,0,0,0.03942871,nan,4,0.586,1,0,0,0,0,0,0,0,0,1,3,1
62.236,0.000978,0,0,0.00390625,-0.046875,0.046875,9.867188,-0.001953125,0,0,nan,nan,nan,0.005004883,0.005249023,-0.001708984,0,0,-0.001831055,0,4.077,0,0,0,0.04138184,nan,4,0.596,1,0,0,0,0,0,0,0,0,1,3,1
62.246,0.001007,0.00390625,-0.001953125,0.00390625,-0.046875,0.0546875,9.867188,0.001953125,-0.001953125,0.001953125,nan,nan,nan,0.005004883,0.005249023,-0.001708984,0,0,-0.001831055,0,4.077,0,0,0,0.043396,nan,4,0.606,1,0,0,0,0,0,0,0,0,1,3,1
62.257,0.001066,0,0,-0.001953125,-0.0625,0.046875,9.828125,0,0,0,nan,nan,nan,0.005004883,0.005249023,-0.001708984,0,0,-0.001831055,0,4.077,0,0,0,0.04541016,nan,4,0.616,1,0,0,0,0,0,0,0,0,1,3,1
62.266,0.001086,-0.001953125,0,0,-0.0703125,0.0234375,9.8125,-0.001953125,0,0,nan,nan,nan,0.005004883,0.005249023,-0.001708984,0,0,-0.001831055,0,4.077,0,0,0,0.04742432,nan,4,0.626,1,0,0,0,0,0,0,0,0,1,3,1
62.277,0.001006,0,0.001953125,-0.001953125,-0.046875,0.0234375,9.804688,0,0,0,nan,nan,nan,0.005004883,0.005249023,-0.001708984,0,0,-0.001831055,0,4.077,0,0,0,0.04937744,nan,4,0.636,1,0,0,0,0,0,0,0,0,1,3,1
62.288,0.001239,0.001953125,0,-0.00390625,-0.03125,0.015625,9.875,0.001953125,0,0.001953125,-0.02929688,-0.03125,0,0.005004883,0.005249023,-0.001708984,0,0,-0.001831055,0.1013489,4.077,0,0,0,0.05157471,nan,4,0.647,1,0,0.09732056,0.1012268,0.1065369,0.1002808,0,0,0,1,3,0.8253968
62.297,0.000929,-0.00390625,0,0,-0.2734375,-0.015625,9.742188,0,-0.001953125,0,-0.03125,-0.03125,0,0.005004883,0.005249023,-0.001708984,0,0,-0.001831055,0.1030273,4.077,0,0,0,0.05358887,nan,4,0.657,1,128,0.1027832,0.09976196,0.1097717,0.09979248,0,0,0,1,3,0.8730159
62.306,0.001201,0.01171875,0,0.01757812,-0.4140625,0.03125,9.992188,0.00390625,0,0,-0.03125,-0.03125,0,0.005004883,0.005249023,-0.001708984,0,0,-0.001831055,0.1045532,4.077,0,0,0,0.05541992,nan,4,0.666,1,128,0.1088867,0.09561157,0.1193848,0.09429932,0,0,0,1,3,0.5714286
62.317,0.001219,0.005859375,-0.009765625,-0.001953125,-0.21875,0.0703125,10.10156,0.00390625,0.00390625,0,-0.02929688,-0.03125,0,0.005004883,0.005249023,-0.001708984,0,0,-0.001831055,0.1062317,4.077,0,0,0,0.05737305,nan,4,0.676,1,128,0.1022949,0.1052246,0.1134033,0.1040039,0,0,0,1,3,0.3492064
62.327,0.000983,-0.0234375,0.0234375,0.0078125,-0.9296875,-0.328125,9.617188,-0.009765625,-0.0078125,-0.00390625,-0.02929688,-0.03125,0,0.005004883,0.005249023,-0.001708984,0,0,-0.001831055,0.1079102,4.077,0,0,0,0.05938721,nan,4,0.686,1,128,0.1029968,0.1110535,0.103302,0.1143188,0,0,0,1,3,0.6349207
62.337,0.001006,-0.0078125,0.009765625,0.03125,-1.4375,0.3671875,9.445312,-0.00390625,-0.001953125,0.005859375,-0.02929688,-0.03125,0,0.005004883,0.005249023,-0.001708984,0,0,-0.001831055,0.1095886,4.077,0,0,0,0.06140137,nan,4,0.696,1,128,0.1157532,0.1026917,0.1185303,0.1014099,0,0,0,1,3,0.4603175
62.346,0.001101,0.03515625,0.01171875,0.02929688,-2.03125,-0.265625,11.19531,0.001953125,0.00390625,0.0078125,-0.02929688,-0.03125,0,0.005004883,0.005371094,-0.001586914,0,0,-0.001831055,0.1112976,4.077,0,0,0,0.06341553,nan,4,0.706,1,128,0.1108093,0.1067505,0.1226196,0.10495,0,0,0,1,3,0
62.357,0.001187,0.01171875,0.05859375,0.02148438,-2.914062,-1.296875,11.35938,0.00390625,0.01171875,0.0078125,-0.02929688,-0.03320312,0,0.005004883,0.005371094,-0.001586914,0,0,-0.001831055,0.1129761,4.077,0,0,0,0.06542969,nan,4,0.716,1,128,0.1126404,0.1056213,0.1265259,0.1070862,0,0,0,1,3,0
62.367,0.001069,-0.00390625,-0.01953125,0.005859375,-0.90625,1.328125,10.22656,-0.00390625,-0.009765625,0.00390625,-0.02929688,-0.03125,0,0.005004883,0.005371094,-0.001586914,0,0,-0.001831055,0.1146545,4.077,0,0,0,0.06738281,nan,4,0.726,1,128,0.1150513,0.1136169,0.1171875,0.1127625,0,0,0,1,3,0
62.377,0.001003,-0.009765625,0.02929688,-0.009765625,2.382812,-1.335938,9.640625,-0.00390625,0.0078125,-0.0078125,-0.02929688,-0.03125,0,0.004882812,0.005249023,-0.001586914,0,0,-0.001831055,0.116333,4.077,0,0,0,0.06939697,nan,4,0.736,1,128,0.09780884,0.1239014,0.1125793,0.1310425,0,0,0,1,3,0.5396826
62.387,0.001018,-0.00390625,-0.05078125,-0.02148438,-0.7265625,2.257812,10.59375,0.00390625,-0.001953125,-0.0078125,-0.02929688,-0.03125,0,0.004882812,0.005249023,-0.001586914,0,0,-0.001831055,0.1180115,4.077,0,0,0,0.07141113,nan,4,0.746,1,128,0.09869385,0.1331787,0.1094055,0.1307983,0,0,0,1,3,0
62.397,0.001018,0.04492188,0.03125,0,-2.5,-0.96875,11.78125,0.009765625,0.01171875,-0.00390625,-0.02929688,-0.03125,0,0.004882812,0.005249023,-0.001708984,0,0,-0.001831055,0.1197205,4.077,0,0,0,0.07342529,nan,4,0.756,1,128,0.1213684,0.1105347,0.1375427,0.109375,0,0,0,1,3,0
62.407,0.001018,-0.009765625,-0.05273438,-0.01757812,0.390625,2.09375,9.492188,0.001953125,-0.01367188,-0.00390625,-0.02929688,-0.03125,0,0.004882812,0.005249023,-0.001708984,0,0,-0.001831055,0.1213989,4.077,0,0,0,0.07537842,nan,4,0.767,1,128,0.1118164,0.1306458,0.1193237,0.1238098,0,0,0,1,3,0.4761905
62.417,0.001015,0.01367188,0.04296875,0.01757812,-0.6171875,-3.585938,7.0625,0.01757812,0.00390625,0.00390625,-0.02929688,-0.03125,0,0.005004883,0.005249023,-0.001708984,0,0,-0.001831055,0.12323,4.077,0,0,0,0.07757568,nan,4,0.777,1,128,0.1281128,0.1113586,0.1442261,0.1092834,0,0,0,1,3,0
62.427,0.001026,0,0.02734375,0.0078125,-0.3125,0.203125,6.679688,-0.001953125,0.005859375,0.00390625,-0.02929688,-0.03125,0,0.004882812,0.005126953,-0.001708984,0,0,-0.001831055,0.124939,4.077,0,0,0,0.07958984,nan,4,0.787,1,128,0.1181335,0.1216431,0.1331787,0.1267395,0,0,0,1,3,0
62.437,0.00101,-0.01757812,-0.03515625,-0.009765625,0.171875,0.21875,12.28906,0.001953125,0.01757812,-0.00390625,-0.02929688,-0.03125,0,0.004882812,0.005249023,-0.001708984,0,0,-0.001831055,0.1266174,4.077,0,0,0,0.081604,nan,4,0.797,1,128,0.1136169,0.1299438,0.1289978,0.1338806,0,-0.0009765625,0,1,3,0
62.446,0.001002,0.01171875,-0.01757812,-0.0078125,0.125,0.09375,8.945312,0,-0.02148438,-0.01171875,-0.02929688,-0.03125,0,0.004882812,0.005249023,-0.001831055,0,0,-0.001831055,0.1281128,4.077,0,0,0,0.08337402,nan,4,0.806,1,128,0.1195679,0.1416016,0.1177368,0.133606,0,-0.0009765625,0,1,3,0
62.456,0.001002,-0.00390625,-0.0234375,0.0078125,0.3359375,1.515625,7.851562,-0.01367188,-0.015625,0.00390625,-0.02929688,-0.03125,0,0.004882812,0.005004883,-0.001831055,0,0,-0.001831055,0.1298218,4.077,0,0,0,0.08538818,nan,4,0.816,1,128,0.1377869,0.1193542,0.1397705,0.122345,-0.0009765625,-0.0009765625,0,1,3,0
62.467,0.001002,-0.015625,-0.02539062,0.00390625,-0.1953125,-1.375,12.1875,-0.005859375,-0.0078125,-0.001953125,-0.02929688,-0.02929688,0,0.004882812,0.005004883,-0.001831055,0,0,-0.001831055,0.1315002,4.077,0,0,0,0.08740234,nan,4,0.826,1,128,0.1259766,0.1330566,0.1307983,0.1361694,-0.0009765625,-0.0009765625,0,1,3,0
62.477,0.000977,-0.0078125,-0.0078125,0.01953125,-0.1953125,-3.554688,7.390625,0.00390625,-0.00390625,0.01953125,-0.02929688,-0.02929688,0,0.004882812,0.004882812,-0.001708984,0,0,-0.001831055,0.1331787,4.077,0,0,0,0.0894165,nan,4,0.836,1,128,0.1500244,0.1098633,0.162323,0.1105042,-0.0009765625,-0.0009765625,0,1,3,0
62.487,0.001002,-0.02929688,-0.02734375,-0.001953125,0.3984375,-2.789062,6.179688,-0.0078125,-0.001953125,0.0078125,-0.02929688,-0.02929688,0,0.005004883,0.005004883,-0.001586914,0,0,-0.001831055,0.1348572,4.077,0,0,0,0.09143066,nan,4,0.846,1,128,0.1260376,0.1429443,0.1246033,0.145874,-0.0009765625,-0.0009765625,0,1,3,0
62.496,0.000999,0.009765625,-0.01171875,0.02734375,-0.4765625,-2.242188,7.609375,-0.02148438,-0.009765625,0.01367188,-0.02929688,-0.02929688,0,0.004760742,0.004760742,-0.001464844,0,0,-0.001831055,0.1365356,4.077,0,0,0,0.09338379,nan,4,0.856,1,128,0.1521606,0.1166382,0.15802,0.1193848,-0.0009765625,-0.0009765625,0,1,3,0
62.507,0.000973,0.015625,0.02734375,0.0078125,-1.203125,-2.171875,13.80469,0,0.01757812,0.01367188,-0.02734375,-0.02929688,0,0.004638672,0.004882812,-0.001342773,0,0,-0.001831055,0.1382446,4.077,0,0,0,0.09539795,nan,4,0.866,1,128,0.1252747,0.1394958,0.1461792,0.1419983,-0.0009765625,-0.0009765625,0,1,3,0
62.517,0.001207,0.03125,-0.009765625,0.01367188,-1.90625,-0.234375,6.757812,0.005859375,-0.02148438,0.0078125,-0.02734375,-0.02929688,0,0.004638672,0.004882812,-0.001220703,0,0,-0.001831055,0.1400757,4.077,0,0,0,0.09759521,nan,4,0.877,1,128,0.1408386,0.144043,0.1448059,0.1306763,-0.0009765625,-0.0009765625,0,1,3,0
62.527,0.001016,-0.01171875,-0.04101562,0.005859375,1.703125,-1.820312,13.84375,0.0078125,0.005859375,-0.001953125,-0.02929688,-0.02929688,0,0.004760742,0.004882812,-0.001220703,0,0,-0.001831055,0.1416016,4.077,0,0,0,0.09942627,nan,4,0.886,1,128,0.1313171,0.1458435,0.1420288,0.1472168,-0.0009765625,-0.0009765625,0,1,3,0
62.536,0.000983,-0.01757812,0.02148438,-0.001953125,-1.6875,-1.117188,2.953125,-0.02539062,-0.001953125,0.001953125,-0.02734375,-0.02929688,0,0.004638672,0.004760742,-0.001220703,0,0,-0.001831055,0.14328,4.077,0,0,0,0.1013794,nan,4,0.896,1,128,0.1397095,0.1394958,0.146759,0.1471863,-0.0009765625,-0.0009765625,0,1,3,0
62.547,0.000935,0.03125,-0.04296875,-0.03125,1.453125,6.1875,12.55469,0.03125,-0.005859375,-0.01367188,-0.02734375,-0.02929688,0,0.004638672,0.004760742,-0.001220703,0,0,-0.001831055,0.1449585,4.077,0,0,0,0.1033936,nan,4,0.906,1,128,0.1060181,0.1834412,0.125061,0.1653442,-0.0009765625,-0.0009765625,0,1,3,0
62.556,0.001008,-0.001953125,-0.03320312,0.0078125,-0.3125,-1.570312,17.89844,-0.01367188,-0.01367188,0,-0.02734375,-0.02929688,0,0.004638672,0.004760742,-0.001342773,0,0,-0.001831055,0.1466675,4.077,0,0,0,0.1054077,nan,4,0.916,1,128,0.1630554,0.1293335,0.1633911,0.1307983,-0.0009765625,-0.0009765625,0,1,3,0
62.567,0.001002,-0.0078125,0.0625,0.00390625,0.4765625,-3.28125,9.703125,-0.001953125,0.03125,0.01171875,-0.02734375,-0.02929688,0,0.004516602,0.004760742,-0.001220703,0,0,-0.001831055,0.1483459,4.077,0,0,0,0.1074219,nan,4,0.926,1,128,0.1436462,0.1347961,0.1683655,0.1465149,-0.0009765625,-0.0009765625,0,1,3,0.07936508
62.577,0.001002,0.01367188,-0.046875,-0.005859375,-2.664062,-4.296875,11.39844,0,-0.01757812,-0.009765625,-0.02539062,-0.02929688,0,0.004394531,0.004882812,-0.001342773,0,0,-0.001831055,0.1500244,4.077,0,0,0,0.109375,nan,4,0.936,1,128,0.1320496,0.1744385,0.134613,0.1589661,-0.0009765625,-0.0009765625,0,1,3,0
62.587,0.000908,-0.001953125,-0.03125,0.04101562,-1.5625,-0.9375,12.01562,-0.005859375,-0.001953125,0.02148438,-0.02539062,-0.02929688,0,0.004394531,0.004760742,-0.001220703,0,0,-0.001831055,0.1517029,4.077,0,0,0,0.1113892,nan,4,0.946,1,128,0.1852722,0.1128845,0.1934204,0.1152344,-0.0009765625,-0.0009765625,0,1,3,0
62.597,0.001002,-0.005859375,0.04101562,0.01171875,-0.734375,4.367188,13.28125,-0.00390625,0.00390625,0.02539062,-0.02539062,-0.02929688,0,0.004272461,0.004760742,-0.0009765625,0,0,-0.001831055,0.1533813,4.077,0,0,0,0.1134033,nan,4,0.956,1,128,0.1481323,0.1517029,0.1589661,0.1547546,-0.0009765625,-0.0009765625,0,1,3,0
62.607,0.001002,0.05664062,0.00390625,0.001953125,0.9453125,0.390625,4.007812,0.00390625,0.01757812,0.00390625,-0.02539062,-0.02929688,0,0.004272461,0.004882812,-0.0008544922,0,0,-0.001831055,0.1550598,4.077,0,0,0,0.1154175,nan,4,0.967,1,128,0.1300354,0.1716614,0.1477966,0.1707764,-0.0009765625,-0.0009765625,0,1,3,0
62.617,0.000995,-0.00390625,-0.06054688,-0.009765625,1.671875,-2.039062,9.59375,0.02539062,0.009765625,-0.005859375,-0.02734375,-0.03125,0,0.004516602,0.005126953,-0.0007324219,0,0,-0.001831055,0.1569214,4.077,0,0,0,0.1176147,nan,4,0.977,1,128,0.1318359,0.1791077,0.1429138,0.1738586,-0.0009765625,-0.0009765625,0,1,3,0.3968254
62.627,0.001007,-0.03125,0.04296875,-0.0078125,1.867188,6.03125,16.39844,-0.01171875,0.005859375,-0.00390625,-0.02734375,-0.03125,0,0.004638672,0.005126953,-0.0008544922,0,0,-0.001831055,0.1585999,4.077,0,0,0,0.1196289,nan,4,0.987,1,128,0.1581726,0.15271,0.1595154,0.164032,-0.0009765625,-0.0009765625,0,1,3,0
62.637,0.0009869999,-0.06640625,-0.046875,0.015625,0.3984375,-0.2734375,3.4375,-0.03320312,-0.01757812,0.00390625,-0.02734375,-0.03125,0,0.004516602,0.005126953,-0.0008544922,0,0,-0.001831055,0.1603088,4.077,0,0,0,0.121582,nan,4,0.997,1,128,0.1799622,0.141571,0.1742249,0.1454163,-0.0009765625,-0.0009765625,0,1,3,0
62.646,0.001003,0.01171875,0.01953125,0.015625,0.796875,4.5625,16.82031,-0.001953125,-0.01171875,0.01367188,-0.02539062,-0.02929688,0,0.004272461,0.004882812,-0.0007324219,0,0,-0.001831055,0.1618042,4.077,0,0,0,0.1234131,nan,4,1.006,1,128,0.1652527,0.1495361,0.1836243,0.1488342,-0.0009765625,-0.0009765625,0,1,3,0
62.657,0.000933,0.02734375,0.0078125,-0.05859375,-0.1484375,0.8125,8.554688,0.03710938,0.015625,-0.03125,-0.02734375,-0.03125,0,0.004638672,0.005126953,-0.0008544922,0,0,-0.001831055,0.1634827,4.077,0,0,0,0.1254272,nan,4,1.016,1,128,0.09002686,0.2301636,0.1108093,0.2229919,-0.0009765625,-0.0009765625,0,1,3,0
62.667,0.001008,-0.04492188,-0.02539062,-0.0078125,-1.710938,-3,9.257812,0.005859375,-0.00390625,-0.02929688,-0.02929688,-0.03125,0,0.004760742,0.005126953,-0.001098633,0,0,-0.001831055,0.1651917,4.077,0,0,0,0.1273804,nan,4,1.026,1,128,0.1611938,0.1673584,0.1641541,0.1679993,-0.0009765625,-0.0009765625,0,1,3,0.5396826
62.677,0.001165,-0.03125,0.05859375,0.05273438,-0.828125,3,9.929688,-0.01171875,0.0078125,0.01367188,-0.02734375,-0.03125,0,0.004638672,0.005126953,-0.001220703,0,0,-0.001831055,0.1670227,4.077,0,0,0,0.1295776,nan,4,1.037,1,128,0.2096558,0.1130066,0.2220154,0.1234436,-0.0009765625,-0.0009765625,0,1,3,0
62.686,0.000974,-0.02148438,-0.0234375,0.0390625,-1.984375,2.445312,14.13281,0,-0.015625,0.01757812,-0.02734375,-0.02929688,0,0.004638672,0.005004883,-0.001098633,0,0,-0.001831055,0.1685486,4.077,0,0,0,0.1314087,nan,4,1.046,1,128,0.191803,0.1429749,0.1997986,0.1396179,-0.0009765625,-0.0009765625,0,1,3,0
62.697,0.001084,-0.01953125,-0.02929688,0.05859375,-1.390625,0.6484375,7.0625,-0.015625,-0.01953125,0.04492188,-0.02734375,-0.02929688,0,0.004516602,0.004760742,-0.0008544922,0,0,-0.001831055,0.1702271,4.077,0,0,0,0.1334229,nan,4,1.056,1,128,0.2086182,0.1256104,0.2148132,0.131897,-0.0009765625,-0.0009765625,0,1,3,0
62.707,0.001302,-0.0078125,0.015625,0.04492188,-0.3125,4.96875,15.91406,-0.02539062,0.01953125,0.046875,-0.02539062,-0.02734375,0,0.004272461,0.004760742,-0.0003662109,0,0,-0.001831055,0.1720886,4.077,0,0,0,0.1356201,nan,4,1.067,1,128,0.1805725,0.1482849,0.197876,0.1616211,-0.0009765625,-0.0009765625,0,1,3,0
62.717,0.00092,0.078125,0.03320312,0.02148438,2.414062,-0.71875,12.33594,0.05664062,0.03710938,0.03710938,-0.02734375,-0.02929688,0,0.004516602,0.005004883,0.0001220703,0,0,-0.001831055,0.1737671,4.077,0,0,0,0.1375732,nan,4,1.077,1,128,0.1539307,0.1782532,0.1955261,0.1673584,-0.0009765625,-0.0009765625,0,1,3,0
62.727,0.001014,-0.04101562,-0.01367188,0.001953125,-3.4375,-6.65625,2.34375,-0.005859375,-0.02148438,0.009765625,-0.02929688,-0.02929688,0,0.004760742,0.005004883,0.0002441406,0,0,-0.001831055,0.1754456,4.077,0,0,0,0.1395874,nan,4,1.087,1,128,0.1647034,0.1903687,0.15271,0.1940308,-0.0009765625,-0.0009765625,0,1,3,0
62.737,0.001014,-0.005859375,-0.0390625,-0.009765625,-1.078125,0.0390625,7.40625,-0.009765625,-0.03125,-0.00390625,-0.02734375,-0.02929688,0,0.004638672,0.004760742,0.0003662109,0,0,-0.001831055,0.177124,4.077,0,0,0,0.1416016,nan,4,1.097,1,128,0.1603699,0.1965027,0.1617126,0.1899719,-0.0009765625,-0.0009765625,0,1,3,0
62.746,0.001001,-0.09179688,-0.01367188,-0.015625,-1.523438,1.890625,9.28125,-0.078125,-0.03515625,-0.01171875,-0.02539062,-0.02539062,0,0.004272461,0.004394531,0.0002441406,0,0,-0.001831055,0.1786499,4.077,0,0,0,0.1433716,nan,4,1.106,1,128,0.1711426,0.183136,0.1539001,0.2064209,-0.0009765625,-0.0009765625,0,1,3,0.1587302
62.756,0.001,0.0234375,-0.05859375,0.005859375,0.0234375,3.359375,14.4375,0.005859375,-0.0625,0.01367188,-0.0234375,-0.0234375,0,0.00402832,0.00390625,0.0002441406,0,0,-0.001831055,0.1803284,4.077,0,0,0,0.1453857,nan,4,1.116,1,128,0.1904297,0.177063,0.2034912,0.1503906,-0.0009765625,-0.0009765625,0,1,3,0
62.767,0.001,0.03515625,-0.01953125,0.01367188,1.898438,-3.148438,7.015625,0.01367188,0.02539062,0.0078125,-0.0234375,-0.0234375,0,0.00402832,0.00390625,0.0003662109,0,0,-0.001831055,0.1820374,4.077,0,0,0,0.1473999,nan,4,1.126,1,128,0.1793213,0.1686707,0.2075195,0.1725769,-0.0009765625,-0.0009765625,0,1,3,0
62.777,0.001,0.0390625,0.005859375,-0.01953125,-0.078125,1.734375,11.71094,0.02929688,0.01953125,-0.01171875,-0.02539062,-0.02539062,0,0.004272461,0.00402832,0.0002441406,0,0,-0.001831055,0.1837158,4.077,0,0,0,0.1494141,nan,4,1.136,1,128,0.1542664,0.2045593,0.1766357,0.1993713,-0.0009765625,-0.0009765625,0,1,3,0
62.787,0.001,0.0625,0.03125,-0.03710938,-1.921875,1.203125,15.75781,0.04101562,0.01757812,-0.03710938,-0.02734375,-0.02539062,0,0.004516602,0.004272461,0,0,0,-0.001831055,0.1853943,4.077,0,0,0,0.1514282,nan,4,1.146,1,128,0.14151,0.2203369,0.1672668,0.2124634,-0.0009765625,-0.0009765625,0,1,3,0
62.797,0.001,-0.09765625,-0.09179688,0.03125,-0.9375,-3.4375,9.789062,-0.0390625,-0.04492188,0.00390625,-0.02734375,-0.02539062,0,0.004638672,0.004150391,-0.0002441406,0,0,-0.001831055,0.1870728,4.077,0,0,0,0.1533813,nan,4,1.156,1,128,0.2529602,0.1353455,0.22229,0.1377258,-0.0009765625,-0.0009765625,0,1,3,0
62.807,0.001,-0.06640625,0.04492188,0.09179688,-0.34375,-4.039062,4.78125,-0.07421875,-0.0234375,0.07421875,-0.0234375,-0.02148438,0,0.00390625,0.00378418,0.0002441406,0,0,-0.001831055,0.1887512,4.077,0,0,0,0.1553955,nan,4,1.166,1,128,0.2654419,0.103241,0.2664795,0.119873,-0.0009765625,-0.0009765625,0,1,3,0
62.817,0.001002,0.02734375,0.06640625,0.001953125,-2.5625,-8.335938,2.625,-0.001953125,0.04101562,0.03125,-0.02148438,-0.02148438,0,0.003540039,0.00378418,0.0008544922,0,0,-0.001831055,0.1906128,4.077,0,0,0,0.1575928,nan,4,1.177,1,128,0.1321716,0.2234192,0.1741943,0.232666,-0.0009765625,-0.0009765625,0,1,3,0
62.827,0.00101,-0.05078125,0.01757812,-0.0078125,-2.9375,-7.765625,4.59375,0.03320312,0.05664062,0.00390625,-0.0234375,-0.02734375,0,0.00390625,0.004394531,0.0009765625,0,0,-0.001831055,0.1922913,4.077,0,0,0,0.1596069,nan,4,1.187,1,128,0.156311,0.2160034,0.1762695,0.2206421,-0.0009765625,-0.001953125,0,1,3,0.3015873
62.836,0.000959,0.0625,0.08203125,-0.02148438,-1.8125,-2.625,8.460938,0.01953125,0.01171875,-0.01171875,-0.0234375,-0.02734375,0,0.00402832,0.004638672,0.0009765625,0,0,-0.001831055,0.1938171,4.077,0,0,0,0.161377,nan,4,1.196,1,128,0.1620483,0.2200317,0.1788635,0.2142944,-0.0009765625,-0.001953125,0,1,3,0
62.847,0.001002,0.05273438,-0.03125,-0.009765625,1.351562,2.226562,12.35156,0.02148438,0.005859375,-0.01171875,-0.0234375,-0.02929688,0,0.00402832,0.004760742,0.0008544922,0,0,-0.001831055,0.1954956,4.077,0,0,0,0.1633911,nan,4,1.206,1,128,0.184082,0.2032166,0.2029724,0.1916809,-0.001953125,-0.001953125,0,1,3,0
62.857,0.001238,-0.03320312,-0.04492188,0.0078125,-0.9609375,2.59375,15.32812,-0.01171875,-0.02734375,0.001953125,-0.0234375,-0.02734375,0,0.00402832,0.004638672,0.0007324219,0,0,-0.001831055,0.1971741,4.077,0,0,0,0.1654053,nan,4,1.216,1,128,0.2159729,0.1838684,0.209198,0.1796875,-0.001953125,-0.001953125,0,1,3,0
62.867,0.000957,-0.04492188,0.02539062,0.0078125,-0.859375,2.523438,15.5625,-0.0390625,-0.001953125,0.005859375,-0.0234375,-0.02539062,0,0.00390625,0.004394531,0.0008544922,0,0,-0.001831055,0.1990356,4.077,0,0,0,0.1676025,nan,4,1.227,1,128,0.1965637,0.1871643,0.2041321,0.2082825,-0.001953125,-0.001953125,0,1,3,0
62.876,0.000936,0.01757812,0.0234375,-0.009765625,-1.148438,0.0703125,6.140625,-0.001953125,0.009765625,-0.0078125,-0.02148438,-0.02734375,0,0.003662109,0.004394531,0.0008544922,0,0,-0.001831055,0.2005615,4.077,0,0,0,0.1693726,nan,4,1.236,1,128,0.1746216,0.2151794,0.1970825,0.215332,-0.001953125,-0.001953125,0,1,3,0
62.886,0.001219,0.0390625,0.04882812,-0.04101562,1.492188,-1.789062,10.78125,0.02539062,0.03125,-0.03320312,-0.0234375,-0.02734375,0,0.00378418,0.004638672,0.0006103516,0,0,-0.001831055,0.20224,4.077,0,0,0,0.1713867,nan,4,1.246,1,128,0.1564941,0.232605,0.1856079,0.2342224,-0.001953125,-0.001953125,0,1,3,0
62.897,0.001177,0.04882812,-0.03320312,-0.03125,-1.734375,-1.265625,14.79688,0.03515625,0.01367188,-0.0390625,-0.02539062,-0.02929688,0,0.004150391,0.004882812,0.0002441406,0,0,-0.001831055,0.2039185,4.077,0,0,0,0.1734009,nan,4,1.256,1,128,0.1807556,0.2219543,0.1976318,0.2153015,-0.001953125,-0.001953125,0,1,3,0
62.907,0.001069,-0.1152344,-0.01367188,0.0546875,-2.992188,0.78125,13.76562,-0.04101562,-0.03710938,0.02539062,-0.02539062,-0.02734375,0,0.004150391,0.004638672,0.0001220703,0,0,-0.001831055,0.2055969,4.077,0,0,0,0.175415,nan,4,1.267,1,128,0.2798157,0.1362915,0.2615051,0.1447754,-0.001953125,-0.001953125,0,1,3,0
62.917,0.00103,-0.05859375,-0.05078125,0.08007812,0.703125,2.625,5.375,-0.0625,-0.0546875,0.078125,-0.02148438,-0.02539062,0,0.003417969,0.004272461,0.0007324219,0,0,-0.001831055,0.2074585,4.077,0,0,0,0.1776123,nan,4,1.277,1,128,0.2739868,0.1440735,0.2682495,0.1434937,-0.001953125,-0.001953125,0,1,3,0
62.927,0.001021,0.0390625,-0.01171875,-0.0078125,-2.289062,-2.210938,7.773438,-0.01953125,-0.0078125,0.02539062,-0.01757812,-0.0234375,0,0.002929688,0.00390625,0.001342773,0,0,-0.001831055,0.209137,4.077,0,0,0,0.1796265,nan,4,1.287,1,128,0.1454468,0.2589417,0.1734619,0.2586975,-0.001953125,-0.001953125,0,1,3,0
62.937,0.001026,0.0859375,0.1347656,-0.01367188,1.859375,-4.445312,8.101562,0.08789062,0.05664062,-0.01171875,-0.02148438,-0.0234375,0,0.003540039,0.00402832,0.001342773,0,0,-0.001831055,0.2106628,4.077,0,0,0,0.1813965,nan,4,1.296,1,128,0.1476746,0.2406311,0.2124939,0.2418213,-0.001953125,-0.001953125,0,1,3,0.1111111
62.947,0.000992,-0.1308594,-0.03710938,0.02929688,-2.4375,-6.992188,8.898438,-0.05273438,0.00390625,0.01953125,-0.02148438,-0.02539062,0,0.003540039,0.004150391,0.001342773,0,0,-0.001831055,0.2123413,4.077,0,0,0,0.1834106,nan,4,1.306,1,128,0.2496033,0.1722412,0.2270203,0.2005005,-0.001953125,-0.001953125,0,1,3,0
62.957,0.001004,0.07617188,0.08007812,0.0078125,-1.429688,7.867188,14.14062,0.02539062,0.046875,0.0234375,-0.02148438,-0.02539062,0,0.003295898,0.004272461,0.001708984,0,0,-0.001831055,0,4.077,0,0,0,0.1835938,nan,4,1.317,0,0,0,0,0,0,0,0,0,1,3,0
62.967,0.001013,0.04296875,0.01757812,-0.015625,-1.5,6.320312,11.01562,0.04101562,0.015625,0.00390625,-0.02148438,-0.02539062,0,0.003662109,0.004638672,0.001831055,0,0,-0.001831055,0,4.077,0,0,0,0.1835938,nan,4,1.327,0,0,0,0,0,0,0,0,0,1,3,0
62.977,0.001013,-0.09960938,-0.0625,-0.009765625,2.765625,4.5625,17.61719,-0.0390625,-0.04882812,-0.001953125,-0.02148438,-0.02539062,0,0.003662109,0.004394531,0.001831055,0,0,-0.001831055,0,4.077,0,0,0,0.1835938,nan,4,1.337,0,0,0,0,0,0,0,0,0,1,3,0
62.986,0.001011,-0.04101562,-0.02148438,-0.0234375,0.4140625,-3.296875,5.757812,-0.04882812,-0.02929688,-0.01367188,-0.02148438,-0.02539062,0,0.003051758,0.00390625,0.001831055,0,0,-0.001831055,0,4.077,0,0,0,0.1835938,nan,4,1.346,0,0,0,0,0,0,0,0,0,1,3,0
62.997,0.00101,0.1113281,0.04492188,-0.0625,-1.382812,-0.4453125,12.9375,0.0625,0.01367188,-0.04882812,-0.02148438,-0.02539062,0,0.003173828,0.00390625,0.001464844,0,0,-0.001831055,0,4.077,0,0,0,0.1835938,nan,4,1.356,0,0,0,0,0,0,0,0,0,1,3,0
63.007,0.001022,-0.01171875,0.05273438,-0.05273438,-2.265625,-0.828125,11.61719,0.02734375,0.02929688,-0.06445312,-0.02148438,-0.02539062,0,0.00378418,0.004150391,0.0008544922,0,0,-0.001831055,0,4.077,0,0,0,0.1835938,nan,4,1.366,0,0,0,0,0,0,0,0,0,1,3,0
63.017,0.00101,-0.07617188,-0.0390625,0.01171875,2.625,-1.320312,8.742188,-0.05273438,-0.0078125,-0.009765625,-0.02148438,-0.02539062,0,0.003417969,0.004150391,0.0004882812,0,0,-0.001831055,0,4.077,0,0,0,0.1835938,nan,4,1.377,0,0,0,0,0,0,0,0,0,1,3,1
63.027,0.001008,0.015625,0.02734375,-0.00390625,-0.0390625,4.695312,12.75,0.01171875,0.015625,0.001953125,-0.02148438,-0.02539062,0,0.003295898,0.004272461,0.0004882812,0,0,-0.001831055,0,4.077,0,0,0,0.1835938,nan,4,1.387,0,0,0,0,0,0,0,0,0,1,3,0
