t,dt_s,gyro_x,gyro_y,gyro_z,acc_x,acc_y,acc_z,rates.x,rates.y,rates.z,ratesTarget.x,ratesTarget.y,ratesTarget.z,attitude.x,attitude.y,attitude.z,attitudeTarget.x,attitudeTarget.y,attitudeTarget.z,thrustTarget,battery_v,rc_roll,rc_pitch,rc_yaw,rc_throttle,rc_mode,flight_mode,rc_age_s,armed,fault_mask,motor_rl,motor_rr,motor_fr,motor_fl,rate_i_x,rate_i_y,rate_i_z,mix_scale,control_source,accel_correction_confidence
4153.099,0.001052,-0.0859375,0.009765625,-0.03515625,0.3671875,-2.828125,8.390625,-0.046875,-0.00390625,-0.02734375,-0.01171875,0.01757812,0,0.001831055,-0.002929688,0.217041,0,0,-0.03308105,0.3105164,4.057,0,0,0,0.2999878,nan,2,9.434,1,128,0.3139648,0.2655334,0.3193665,0.3432312,0.01074219,-0.02050781,0,1,3,0
4153.109,0.001013,-0.0390625,-0.0078125,-0.02734375,-1.40625,3.03125,9.34375,-0.01757812,0.01367188,-0.04296875,-0.009765625,0.01757812,0,0.001708984,-0.002807617,0.2165527,0,0,-0.03308105,0.3105164,4.057,0,0,0,0.2999878,nan,2,9.444,1,128,0.292572,0.288208,0.3085022,0.3528137,0.01074219,-0.02050781,0,1,3,0.2539683
4153.118,0.001059,0.05078125,0.02929688,-0.03320312,0.8515625,-0.5703125,8.445312,0.015625,-0.00390625,-0.03710938,-0.009765625,0.01757812,0,0.001708984,-0.003051758,0.2163086,0,0,-0.03308105,0.3105164,4.057,0,0,0,0.2999878,nan,2,9.454,1,128,0.2825928,0.2958374,0.3139648,0.3497314,0.01074219,-0.02050781,0,1,3,0
4153.128,0.001006,0.009765625,-0.03710938,-0.04296875,0.296875,-3.078125,8.75,0.005859375,-0.01367188,-0.04296875,-0.01171875,0.01757812,0,0.001953125,-0.002929688,0.2159424,0,0,-0.03308105,0.3105164,4.057,0,0,0,0.2999878,nan,2,9.464,1,128,0.2788391,0.3130493,0.2853699,0.3648682,0.01074219,-0.02050781,0,1,3,0
4153.138,0.001005,-0.009765625,-0.02929688,-0.09765625,-1.78125,5.3125,13.76562,-0.046875,-0.03320312,-0.07421875,-0.009765625,0.01953125,0,0.001464844,-0.003173828,0.2154541,0,0,-0.03308105,0.3105164,4.057,0,0,0,0.2999878,nan,2,9.474,1,128,0.2416077,0.3505554,0.2428894,0.4070435,0.01074219,-0.02050781,0,1,3,0
4153.148,0.001004,0.08398438,0.02929688,0.001953125,1.625,-0.3125,9.703125,0.0234375,0.01757812,-0.009765625,-0.0078125,0.01757812,0,0.001342773,-0.003051758,0.2149658,0,0,-0.03308105,0.3105164,4.057,0,0,0,0.2999878,nan,2,9.484,1,128,0.3325195,0.2458801,0.3742676,0.2894592,0.01074219,-0.02050781,0,1,3,0.4920635
4153.158,0.001043,-0.0859375,-0.015625,0.02929688,-0.578125,-3.3125,10.17969,-0.06835938,-0.001953125,0.015625,-0.0078125,0.01757812,0,0.001220703,-0.002929688,0.2150879,0,0,-0.03308105,0.3105164,4.057,0,0,0,0.2999878,nan,2,9.494,1,128,0.3444519,0.2422485,0.3338318,0.3215637,0.01074219,-0.02050781,0,1,3,0
4153.168,0.001006,-0.0546875,0.005859375,0.01953125,-0.3125,1.28125,10.72656,-0.005859375,0,0.005859375,-0.0078125,0.01757812,0,0.001220703,-0.002929688,0.21521,0,0,-0.03308105,0.3105164,4.057,0,0,0,0.2999878,nan,2,9.504,1,128,0.3000183,0.2848816,0.3103638,0.3468018,0.01074219,-0.02050781,0,1,3,0
4153.178,0.001006,-0.005859375,0.06445312,0.0546875,1.320312,-3.539062,9.398438,0.001953125,0.01171875,0.046875,-0.0078125,0.01757812,0,0.001342773,-0.002807617,0.2154541,0,0,-0.03308105,0.3105164,4.057,0,0,0,0.2999878,nan,2,9.514,1,128,0.368866,0.2071533,0.3910828,0.2749939,0.01074219,-0.02050781,0,1,3,0.2222222
4153.189,0.001002,-0.02929688,-0.009765625,0.09960938,-0.328125,3.945312,12.3125,-0.02929688,0.0078125,0.08398438,-0.0078125,0.015625,0,0.001098633,-0.002685547,0.2160645,0,0,-0.03308105,0.3105164,4.057,0,0,0,0.2999878,nan,2,9.524,1,128,0.3651733,0.2176819,0.3756409,0.2835999,0.01074219,-0.02050781,0,1,3,0
4153.199,0.001006,-0.08984375,0.046875,0.05078125,0.734375,-2.15625,12.10156,-0.01953125,-0.009765625,0.0859375,-0.005859375,0.01757812,0,0.001098633,-0.002807617,0.217041,0,0,-0.03308105,0.3105164,4.057,0,0,0,0.2999878,nan,2,9.534,1,128,0.320282,0.2637329,0.3282776,0.3298035,0.01074219,-0.02050781,0,1,3,0
4153.208,0.001081,0.046875,-0.04101562,-0.03515625,-0.8671875,3.289062,11.66406,-0.005859375,-0.01953125,0.00390625,-0.00390625,0.015625,0,0.0007324219,-0.002685547,0.2174072,0,0,-0.03308105,0.3105164,4.057,0,0,0,0.2999878,nan,2,9.544,1,128,0.2289734,0.3655701,0.2422485,0.4053345,0.01074219,-0.02050781,0,1,3,0
4153.219,0.001006,0.02148438,-0.03710938,-0.09765625,1.25,0.171875,6.835938,0.01171875,-0.001953125,-0.08398438,-0.00390625,0.01757812,0,0.0007324219,-0.002807617,0.2167969,0,0,-0.03308105,0.3105164,4.057,0,0,0,0.2999878,nan,2,9.555,1,128,0.2175293,0.366394,0.241272,0.4169006,0.01074219,-0.02050781,0,1,3,0
4153.228,0.001012,-0.1035156,0.06640625,-0.1074219,-1.695312,1.273438,8.476562,-0.02734375,0.02929688,-0.09765625,-0.005859375,0.01757812,0,0.0008544922,-0.002807617,0.2159424,0,0,-0.03308105,0.3105164,4.057,0,0,0,0.2999878,nan,2,9.564,1,128,0.2520447,0.3187256,0.2661438,0.4051819,0.01074219,-0.02050781,0,1,3,0
4153.238,0.001015,-0.08007812,0.04296875,-0.015625,-0.609375,0.453125,11.21094,-0.01953125,0.005859375,-0.03320312,-0.00390625,0.015625,0,0.0007324219,-0.002563477,0.21521,0,0,-0.03308105,0.3105164,4.057,0,0,0,0.2999878,nan,2,9.574,1,128,0.3561401,0.2295532,0.3631287,0.2933044,0.01074219,-0.02050781,0,1,3,0
4153.248,0.001016,-0.0546875,-0.01757812,-0.04296875,1.617188,-1.09375,8.140625,-0.02148438,0.001953125,-0.04101562,-0.00390625,0.015625,0,0.0004882812,-0.002563477,0.2149658,0,0,-0.03308105,0.3105164,4.057,0,0,0,0.2999878,nan,2,9.584,1,128,0.2816162,0.3017578,0.2934875,0.3652649,0.01074219,-0.02050781,0,1,3,0
4153.258,0.001014,-0.0234375,0.05859375,-0.03515625,-1.4375,1.671875,10.07812,-0.01757812,0.01367188,-0.05078125,-0.00390625,0.015625,0,0.0004882812,-0.002563477,0.2143555,0,0,-0.03308105,0.3105164,4.057,0,0,0,0.2999878,nan,2,9.594,1,128,0.2879639,0.287384,0.3051147,0.3616638,0.01074219,-0.02050781,0,1,3,0
4153.268,0.001012,0.01757812,0.01367188,0.08007812,0.2265625,-1.671875,6.914062,0.001953125,0.005859375,0.04296875,-0.001953125,0.015625,0,0.0004882812,-0.002441406,0.2144775,0,0,-0.03308105,0.3105164,4.057,0,0,0,0.2999878,nan,2,9.604,1,128,0.3942261,0.1863098,0.4172974,0.2442627,0.01074219,-0.02050781,0,1,3,0
4153.278,0.001016,0.0390625,0.03515625,-0.0078125,0.140625,-0.25,12.10156,-0.01953125,-0.01757812,0.02929688,-0.001953125,0.015625,0,0.0002441406,-0.002685547,0.2149658,0,0,-0.03308105,0.3105164,4.057,0,0,0,0.2999878,nan,2,9.614,1,128,0.2810059,0.3027039,0.2969666,0.3614197,0.01074219,-0.02050781,0,1,3,0
4153.289,0.001016,0.1308594,0.01171875,-0.1035156,0,0.6171875,11.42188,0.0859375,0.005859375,-0.0546875,-0.001953125,0.015625,0,0.0004882812,-0.002807617,0.2147217,0,0,-0.03308105,0.3105164,4.057,0,0,0,0.2999878,nan,2,9.624,1,128,0.1880798,0.3894043,0.2485962,0.4160156,0.01074219,-0.02050781,0,1,3,0
4153.299,0.001016,-0.01171875,-0.01757812,-0.04492188,0.71875,-3.59375,11.50781,-0.03125,0.01171875,-0.06054688,-0.00390625,0.015625,0,0.0007324219,-0.002563477,0.2141113,0,0,-0.03308105,0.3105164,4.057,0,0,0,0.2999878,nan,2,9.634,1,128,0.2990723,0.2839966,0.2963867,0.3626709,0.01074219,-0.02050781,0,1,3,0
4153.309,0.001016,0.02734375,0.01367188,-0.00390625,-1.820312,1.757812,10.61719,0.02539062,-0.009765625,-0.03320312,-0.00390625,0.015625,0,0.0007324219,-0.002685547,0.213623,0,0,-0.03308105,0.3105164,4.057,0,0,0,0.2999878,nan,2,9.644,1,128,0.3157349,0.2679138,0.3457031,0.3127747,0.01074219,-0.02050781,0,1,3,0
4153.318,0.001037,-0.0703125,-0.015625,-0.0546875,0.734375,0.9453125,6.648438,-0.04492188,-0.01171875,-0.03125,-0.00390625,0.015625,0,0.0006103516,-0.002685547,0.2133789,0,0,-0.03308105,0.3105164,4.057,0,0,0,0.2999878,nan,2,9.654,1,128,0.2973938,0.2910461,0.2905273,0.3631592,0.01074219,-0.01953125,0,1,3,0
4153.328,0.001045,-0.03320312,-0.0390625,-0.0390625,0.1015625,-1.828125,10.84375,0.02148438,-0.01367188,-0.04101562,-0.00390625,0.015625,0,0.0007324219,-0.002563477,0.2128906,0,0,-0.03308105,0.3105164,4.057,0,0,0,0.2999878,nan,2,9.664,1,128,0.3006287,0.2945251,0.3117981,0.335144,0.01074219,-0.01953125,0,1,3,0
4153.338,0.00101,-0.00390625,-0.00390625,0.05273438,-0.703125,3.484375,12.65625,0.02539062,0.005859375,0.01757812,-0.00390625,0.015625,0,0.0008544922,-0.002563477,0.2126465,0,0,-0.03308105,0.3105164,4.057,0,0,0,0.2999878,nan,2,9.674,1,128,0.3744202,0.2068176,0.4016113,0.2592468,0.01074219,-0.01953125,0,1,3,0
4153.348,0.001009,0.0625,0.03710938,-0.01757812,1.75,-0.84375,6.53125,0.02148438,0.009765625,0.01953125,-0.005859375,0.015625,0,0.0008544922,-0.002563477,0.2130127,0,0,-0.03308105,0.3105164,4.057,0,0,0,0.2999878,nan,2,9.684,1,128,0.2798462,0.2972412,0.3132324,0.3518066,0.01074219,-0.01953125,0,1,3,0
4153.358,0.001,-0.07617188,-0.02734375,-0.01757812,-1.875,0.90625,11.14062,-0.03320312,-0.0078125,-0.02929688,-0.005859375,0.015625,0,0.0008544922,-0.002441406,0.2128906,0,0,-0.03308105,0.3105164,4.057,0,0,0,0.2999878,nan,2,9.694,1,128,0.2803955,0.3100891,0.2753601,0.3762512,0.01074219,-0.01953125,0,1,3,0
4153.368,0.001007,-0.01757812,-0.02929688,0.009765625,0.8671875,-1.515625,8.367188,-0.015625,-0.01171875,-0.009765625,-0.00390625,0.015625,0,0.0006103516,-0.002563477,0.2126465,0,0,-0.03308105,0.3105164,4.057,0,0,0,0.2999878,nan,2,9.704,1,128,0.3239441,0.2642212,0.3331909,0.3207397,0.01074219,-0.01953125,0,1,3,0
4153.378,0.001006,0.04882812,-0.00390625,0.03320312,-0.9375,0.671875,9.328125,-0.01367188,-0.01953125,0.015625,-0.001953125,0.01757812,0,0.0002441406,-0.002807617,0.2126465,0,0,-0.03308105,0.3105164,4.057,0,0,0,0.2999878,nan,2,9.714,1,128,0.3275452,0.2575378,0.349884,0.3071594,0.01074219,-0.01953125,0,1,3,0.1111111
4153.389,0.001046,0.02734375,0.02148438,0.1035156,0.2421875,-1.179688,6.335938,-0.009765625,0.0234375,0.0625,-0.001953125,0.015625,0,0.0003662109,-0.002807617,0.2130127,0,0,-0.03308105,0.3105164,4.057,0,0,0,0.2999878,nan,2,9.724,1,128,0.3735657,0.1986389,0.3980408,0.2718811,0.01074219,-0.01953125,0,1,3,0
4153.399,0.001006,0.0078125,-0.03710938,0.1464844,-0.109375,0.796875,6.921875,0.0078125,-0.00390625,0.1445312,-0.001953125,0.015625,0,0.0004882812,-0.002685547,0.2142334,0,0,-0.03308105,0.3105164,4.057,0,0,0,0.2999878,nan,2,9.734,1,128,0.3981628,0.1914978,0.4108887,0.2415466,0.01074219,-0.01953125,0,1,3,0
4153.409,0.001006,0.1191406,-0.03515625,0.0390625,-0.171875,-3.875,6.335938,0.02539062,0,0.07421875,-0.00390625,0.015625,0,0.0004882812,-0.002685547,0.2154541,0,0,-0.03308105,0.3105164,4.057,0,0,0,0.2999878,nan,2,9.744,1,128,0.2443237,0.3381958,0.2743835,0.3851929,0.01074219,-0.01953125,0,1,3,0
4153.419,0.001005,0.03710938,-0.1152344,-0.04492188,-1.3125,3.789062,9.28125,0.01757812,-0.04296875,-0.015625,-0.00390625,0.015625,0,0.0006103516,-0.002807617,0.2154541,0,0,-0.03308105,0.3105164,4.057,0,0,0,0.2999878,nan,2,9.755,1,128,0.2430115,0.3608704,0.2444153,0.3938293,0.009765625,-0.01953125,0,1,3,0.01587302
4153.428,0.001016,0.06835938,-0.03320312,-0.04492188,1.328125,-1.203125,11.1875,-0.0078125,-0.015625,-0.05078125,-0.00390625,0.01757812,0,0.0006103516,-0.003051758,0.2150879,0,0,-0.03308105,0.3105164,4.057,0,0,0,0.2999878,nan,2,9.764,1,128,0.2598572,0.3231812,0.2771912,0.3818359,0.009765625,-0.01953125,0,1,3,0
4153.438,0.00101,0.04101562,-0.001953125,-0.08984375,-0.109375,-2.546875,8.265625,0.001953125,0,-0.08398438,-0.00390625,0.01757812,0,0.0006103516,-0.003051758,0.2144775,0,0,-0.03308105,0.3105164,4.057,0,0,0,0.2999878,nan,2,9.774,1,128,0.239624,0.3417969,0.2612915,0.3993835,0.009765625,-0.01953125,0,1,3,0
4153.448,0.00101,0.001953125,0.01953125,-0.00390625,-2.59375,4.140625,13.00781,0.0234375,-0.001953125,-0.04492188,-0.00390625,0.01757812,0,0.0007324219,-0.003051758,0.2137451,0,0,-0.03308105,0.3105164,4.057,0,0,0,0.2999878,nan,2,9.784,1,128,0.333252,0.2494812,0.3597107,0.2996826,0.009765625,-0.01953125,0,1,3,0
4153.458,0.00101,-0.06640625,-0.0546875,0.078125,0.1875,-0.2109375,8.359375,-0.046875,-0.0078125,0.05078125,-0.00390625,0.01953125,0,0.0006103516,-0.003051758,0.2137451,0,0,-0.03308105,0.3105164,4.057,0,0,0,0.2999878,nan,2,9.794,1,128,0.4219666,0.1653137,0.4188538,0.2359924,0.009765625,-0.01953125,0,1,3,0
4153.468,0.001016,-0.04492188,-0.03320312,0.0234375,-1.289062,-0.609375,11.25781,-0.0390625,-0.015625,0.02734375,-0.001953125,0.01953125,0,0.0003662109,-0.003173828,0.2142334,0,0,-0.03308105,0.3105164,4.057,0,0,0,0.2999878,nan,2,9.804,1,128,0.3013,0.2885742,0.3015747,0.350647,0.01074219,-0.01953125,0,1,3,0
4153.478,0.001016,-0.04101562,0.05664062,-0.02148438,1.109375,1.28125,10.1875,-0.07226562,0.03710938,-0.046875,0,0.01953125,0,-0.0001220703,-0.003051758,0.2139893,0,0,-0.03308105,0.3105164,4.057,0,0,0,0.2999878,nan,2,9.814,1,128,0.2459106,0.3230591,0.2574463,0.4157104,0.01074219,-0.01953125,0,1,3,0
4153.489,0.001016,0.06445312,0.01757812,0.04101562,-0.0859375,-2.507812,8.085938,0.03515625,-0.009765625,0.0078125,0,0.01757812,0,0,-0.003051758,0.2139893,0,0,-0.03308105,0.3105164,4.057,0,0,0,0.2999878,nan,2,9.824,1,128,0.3178101,0.2727356,0.3405762,0.3109741,0.01074219,-0.01953125,0,1,3,0
4153.499,0.001016,0.04101562,0.00390625,-0.0078125,-0.6875,-0.671875,12.02344,0.02539062,0.0078125,0.02539062,-0.001953125,0.01757812,0,0.0002441406,-0.002807617,0.2143555,0,0,-0.03308105,0.3105164,4.057,0,0,0,0.2999878,nan,2,9.834,1,128,0.2871399,0.2974548,0.3074341,0.3500977,0.01074219,-0.01953125,0,1,3,0
4153.509,0.001016,0.05273438,0.06054688,-0.01953125,-0.1640625,-0.7734375,8.523438,0.02734375,0.009765625,0.01171875,-0.001953125,0.01757812,0,0.0003662109,-0.002807617,0.2145996,0,0,-0.03308105,0.3105164,4.057,0,0,0,0.2999878,nan,2,9.844,1,128,0.2747498,0.303833,0.3064575,0.3570557,0.009765625,-0.01953125,0,1,3,0
4153.519,0.001009,0.03515625,0.02734375,0.0078125,-0.3203125,1.804688,15.59375,-0.009765625,0.001953125,0.01367188,-0.001953125,0.01757812,0,0.0002441406,-0.002929688,0.2147217,0,0,-0.03308105,0.3105164,4.057,0,0,0,0.2999878,nan,2,9.855,1,128,0.300354,0.278595,0.3225403,0.3406067,0.01074219,-0.01953125,0,1,3,0
4153.528,0.001007,0.06835938,0.015625,-0.01367188,0.4921875,-2.671875,6.460938,0.009765625,0,0,-0.001953125,0.01757812,0,0.0003662109,-0.002807617,0.2147217,0,0,-0.03308105,0.3105164,4.057,0,0,0,0.2999878,nan,2,9.864,1,128,0.2850952,0.2999573,0.3056641,0.3514099,0.009765625,-0.01953125,0,1,3,0
4153.538,0.001049,0.04492188,-0.03515625,0.001953125,-0.0625,1.664062,10.66406,-0.01953125,-0.01953125,-0.01367188,0,0.01757812,0,0.0001220703,-0.002929688,0.2144775,0,0,-0.03308105,0.3105164,4.057,0,0,0,0.2999878,nan,2,9.874,1,128,0.3161621,0.2759705,0.3241882,0.3257751,0.01074219,-0.01953125,0,1,3,0
4153.548,0.00101,-0.06640625,-0.00390625,0.09765625,0.0390625,-3.828125,10.67969,0.00390625,0.01757812,0.0390625,0,0.015625,0,0.0001220703,-0.002807617,0.2144775,0,0,-0.03308105,0.3105164,4.057,0,0,0,0.2999878,nan,2,9.884,1,128,0.3965454,0.1822815,0.4220276,0.2412415,0.01074219,-0.01953125,0,1,3,0
4153.558,0.001045,-0.09179688,0.01953125,0.06445312,-0.8984375,1.367188,12.99219,-0.02539062,0.005859375,0.04492188,0,0.015625,0,0.0001220703,-0.002685547,0.2148438,0,0,-0.03308105,0.3105164,4.057,0,0,0,0.2999878,nan,2,9.894,1,128,0.339386,0.2448425,0.338501,0.319397,0.01074219,-0.01953125,0,1,3,0
4153.568,0.000974,-0.04492188,0.03515625,0.08007812,1.585938,-1.296875,10.0625,0,0,0.0546875,-0.001953125,0.015625,0,0.0003662109,-0.002685547,0.215332,0,0,-0.03308105,0.3105164,4.057,0,0,0,0.2999878,nan,2,9.904,1,128,0.3426514,0.2404175,0.3558655,0.3031616,0.009765625,-0.01953125,0,1,3,0.04761905
4153.578,0.000979,0.02539062,-0.0078125,0.1308594,0.265625,0.3359375,9.53125,0.009765625,-0.005859375,0.1074219,-0.001953125,0.015625,0,0.0004882812,-0.002685547,0.2161865,0,0,-0.03308105,0.3105164,4.057,0,0,0,0.2999878,nan,2,9.914,1,128,0.3823242,0.2055664,0.3977356,0.2564697,0.009765625,-0.01953125,0,1,3,0.2857143
4153.588,0.001006,0.02929688,0.01367188,0.1074219,0.0625,-1.15625,9.234375,0.01757812,0.0234375,0.125,-0.00390625,0.015625,0,0.0004882812,-0.002441406,0.2175293,0,0,-0.03308105,0.3105164,4.057,0,0,0,0.2999878,nan,2,9.924,1,128,0.3337402,0.2432861,0.3646851,0.3003845,0.009765625,-0.01953125,0,1,3,0
4153.599,0.001006,0.01953125,-0.0078125,0.06445312,0.2734375,1.109375,9.046875,-0.0078125,0.001953125,0.06640625,-0.001953125,0.01367188,0,0.0004882812,-0.002319336,0.2183838,0,0,-0.03308105,0.3105164,4.057,0,0,0,0.2999878,nan,2,9.934,1,128,0.2793274,0.3074341,0.2921753,0.3631897,0.009765625,-0.01953125,0,1,3,0
4153.609,0.001006,0.01367188,-0.02539062,0.08398438,2.460938,-4.734375,10.64844,0.01757812,-0.005859375,0.06445312,-0.00390625,0.01367188,0,0.0006103516,-0.002441406,0.2189941,0,0,-0.03308105,0.3105164,4.057,0,0,0,0.2999878,nan,2,9.944,1,128,0.3294373,0.2569885,0.346405,0.3092651,0.009765625,-0.01953125,0,1,3,0
4153.618,0.001113,-0.0625,-0.0625,0.0078125,-0.875,-1.625,11.36719,-0.005859375,-0.03320312,0.02734375,-0.00390625,0.015625,0,0.0004882812,-0.002563477,0.2194824,0,0,-0.03308105,0.3105164,4.057,0,0,0,0.2999878,nan,2,9.954,1,128,0.2757263,0.3208618,0.2744446,0.3710938,0.009765625,-0.01953125,0,1,3,0
4153.629,0.001006,0.04492188,0.01171875,-0.1640625,1.601562,-0.5078125,7,0.01953125,-0.001953125,-0.09375,-0.00390625,0.015625,0,0.0004882812,-0.002563477,0.2191162,0,0,-0.03308105,0.3105164,4.057,0,0,0,0.2999878,nan,2,9.965,1,128,0.1439819,0.436615,0.1722107,0.4892883,0.009765625,-0.01953125,0,1,3,0
4153.638,0.001014,0.2382812,-0.1425781,-0.2070312,-1.5625,0.625,9.21875,0.04296875,-0.03710938,-0.1640625,-0.00390625,0.015625,0,0.0004882812,-0.002685547,0.2178955,0,0,-0.03308105,0.3105164,4.057,0,0,0,0.2999878,nan,2,9.974,1,128,0.1706848,0.4294739,0.1972961,0.4446716,0.009765625,-0.01953125,0,1,3,0.01587302
4153.648,0.001012,0.001953125,-0.03515625,-0.06835938,-1.765625,3.476562,14.60156,-0.009765625,-0.02539062,-0.1074219,-0.005859375,0.01953125,0,0.0008544922,-0.003295898,0.2164307,0,0,-0.03308105,0.3105164,4.057,0,0,0,0.2999878,nan,2,9.984,1,128,0.337677,0.244812,0.3442688,0.3153381,0.009765625,-0.01953125,0,1,3,0
4153.658,0.001013,0.02539062,0.03320312,0.0234375,0.8359375,-0.296875,9.578125,-0.02734375,0.03320312,-0.009765625,-0.00390625,0.01953125,0,0.0007324219,-0.003173828,0.2159424,0,0,-0.03308105,0.3105164,4.057,0,0,0,0.2999878,nan,2,9.994,1,128,0.3846741,0.1863403,0.4073486,0.2637329,0.009765625,-0.01953125,0,1,3,0.2698413
4153.668,0.001013,-0.00390625,0.001953125,0.03320312,0.03125,-1.023438,9.515625,-0.01367188,0.01367188,0.02539062,-0.00390625,0.01757812,0,0.0006103516,-0.002929688,0.2160645,0,0,-0.03308105,0.3105164,4.057,0,0,0,0.2999878,nan,2,10.004,1,128,0.3417664,0.2423401,0.3562317,0.3017578,0.009765625,-0.01953125,0,1,3,0.4444444
4153.678,0.001012,0.009765625,-0.01171875,-0.046875,0.640625,0.765625,10.53125,-0.02734375,-0.01953125,-0.01171875,-0.001953125,0.01953125,0,0.0003662109,-0.003173828,0.2161865,0,0,-0.03308105,0.3105164,4.057,0,0,0,0.2999878,nan,2,10.014,1,128,0.2598572,0.3308411,0.2668762,0.384552,0.009765625,-0.01953125,0,1,3,0
4153.688,0.001004,0.0625,0.02148438,-0.1308594,-0.8046875,-1.476562,8.882812,0.001953125,0.015625,-0.1171875,-0.001953125,0.01757812,0,0.0003662109,-0.003051758,0.215332,0,0,-0.03308105,0.3105164,4.057,0,0,0,0.2999878,nan,2,10.024,1,128,0.1817932,0.397644,0.2085876,0.454071,0.009765625,-0.01953125,0,1,3,0
4153.699,0.001006,0.1132812,-0.05859375,0.0078125,-1.273438,2.726562,12.5,0.0390625,0.001953125,-0.03320312,-0.001953125,0.01757812,0,0.0003662109,-0.002807617,0.2145996,0,0,-0.03308105,0.3105164,4.057,0,0,0,0.2999878,nan,2,10.034,1,128,0.3580322,0.2329712,0.3861694,0.2649231,0.009765625,-0.01953125,0,1,3,0
4153.709,0.001016,-0.05664062,0,0.07617188,2.03125,-0.0234375,7.867188,-0.0078125,0.009765625,0.0390625,-0.00390625,0.01757812,0,0.0004882812,-0.002807617,0.2145996,0,0,-0.03308105,0.3105164,4.057,0,0,0,0.2999878,nan,2,10.044,1,128,0.3979797,0.1839905,0.4100037,0.2501221,0.009765625,-0.01953125,0,1,3,0
4153.718,0.000993,-0.01953125,-0.05078125,0.05078125,-0.3671875,1.382812,14.92188,-0.06640625,-0.01367188,0.04296875,0,0.01757812,0,0,-0.002807617,0.2149658,0,0,-0.03308105,0.3105164,4.057,0,0,0,0.2999878,nan,2,10.054,1,128,0.343689,0.2475586,0.3384094,0.3124084,0.009765625,-0.01953125,0,1,3,0
4153.729,0.001013,0.005859375,-0.009765625,-0.0546875,0.859375,-0.3046875,9.101562,-0.001953125,0,-0.01953125,0,0.01757812,0,0,-0.002929688,0.21521,0,0,-0.03308105,0.3105164,4.057,0,0,0,0.2999878,nan,2,10.065,1,128,0.2329407,0.3474426,0.2554321,0.406311,0.009765625,-0.01953125,0,1,3,0
4153.738,0.001007,-0.2246094,0.001953125,-0.09179688,-2.210938,2.898438,10.08594,-0.1328125,0.001953125,-0.0703125,0.00390625,0.01757812,0,-0.0004882812,-0.003051758,0.2147217,0,0,-0.03308105,0.3105164,4.057,0,0,0,0.2999878,nan,2,10.074,1,128,0.2420349,0.3388977,0.2118835,0.4493103,0.01074219,-0.01953125,0,1,3,0
4153.748,0.001007,-0.04492188,-0.07226562,0.03125,0.5625,-1.210938,8.65625,-0.0078125,-0.02539062,-0.00390625,0.005859375,0.01757812,0,-0.001098633,-0.002929688,0.2144775,0,0,-0.03308105,0.3105164,4.057,0,0,0,0.2999878,nan,2,10.084,1,128,0.3504333,0.2509766,0.3603821,0.2803345,0.01074219,-0.01953125,0,1,3,0
4153.758,0.001045,-0.09570312,-0.05273438,0.05078125,0.34375,-1.601562,8.179688,-0.02734375,-0.02734375,0.046875,0.005859375,0.01757812,0,-0.0009765625,-0.003051758,0.2147217,0,0,-0.03308105,0.3105164,4.057,0,0,0,0.2999878,nan,2,10.094,1,128,0.372406,0.2211609,0.3637085,0.2848206,0.01074219,-0.01953125,0,1,3,0
4153.768,0.000946,-0.06054688,-0.01757812,-0.02734375,-0.1015625,2.21875,13.24219,0,-0.0078125,-0.01171875,0.0078125,0.01953125,0,-0.001342773,-0.003173828,0.2149658,0,0,-0.03308105,0.3105164,4.057,0,0,0,0.2999878,nan,2,10.104,1,128,0.2405701,0.344635,0.2604065,0.3965149,0.01074219,-0.01953125,0,1,3,0
4153.778,0.001033,-0.02539062,0.005859375,-0.03125,1.3125,-3.929688,9.710938,-0.0078125,0.009765625,-0.04296875,0.0078125,0.01757812,0,-0.001342773,-0.003051758,0.2145996,0,0,-0.03308105,0.3105164,4.057,0,0,0,0.2999878,nan,2,10.114,1,128,0.2703857,0.315155,0.2788391,0.3777161,0.01074219,-0.01953125,0,1,3,0
4153.788,0.000945,0.01171875,-0.005859375,0.09179688,-0.8359375,4.125,12.96094,-0.009765625,-0.01367188,0.03710938,0.0078125,0.01757812,0,-0.001464844,-0.003051758,0.2144775,0,0,-0.03308105,0.3105164,4.057,0,0,0,0.2999878,nan,2,10.124,1,128,0.4095459,0.1816711,0.4172058,0.2337036,0.01074219,-0.01953125,0,1,3,0
4153.799,0.000991,0.07226562,-0.015625,0.06054688,1.273438,-0.703125,10.97656,0.001953125,-0.005859375,0.08203125,0.009765625,0.01953125,0,-0.001586914,-0.003173828,0.21521,0,0,-0.03308105,0.3105164,4.059,0,0,0,0.2999878,nan,2,10.134,1,128,0.3439941,0.2409363,0.3670959,0.2900696,0.01074219,-0.01953125,0,1,3,0
4153.809,0.001005,-0.015625,-0.01171875,-0.02929688,-1.09375,2.21875,11.69531,-0.02539062,-0.009765625,-0.009765625,0.01171875,0.01953125,0,-0.001831055,-0.003173828,0.2155762,0,0,-0.03308105,0.3105164,4.059,0,0,0,0.2999878,nan,2,10.144,1,128,0.2299194,0.3579407,0.2323608,0.421875,0.01074219,-0.01953125,0,1,3,0
4153.819,0.001005,0.0859375,0.0390625,-0.03515625,1.492188,0.171875,6.0625,0.03710938,0.02734375,-0.04492188,0.009765625,0.01757812,0,-0.001586914,-0.003051758,0.21521,0,0,-0.03308105,0.3105164,4.059,0,0,0,0.2999878,nan,2,10.155,1,128,0.2555542,0.3203735,0.2914734,0.3746948,0.01074219,-0.01953125,0,1,3,0
4153.829,0.001009,0.0078125,-0.01367188,-0.01953125,-0.6953125,-0.2578125,10.11719,0.0390625,-0.00390625,-0.03320312,0.005859375,0.01757812,0,-0.001098633,-0.002929688,0.2148438,0,0,-0.03308105,0.3105164,4.059,0,0,0,0.2999878,nan,2,10.165,1,128,0.2995911,0.2885742,0.3146973,0.3392334,0.01074219,-0.01953125,0,1,3,0
4153.838,0.000972,0.06054688,-0.001953125,-0.01953125,0.984375,1.125,10.28125,0.03125,0.00390625,-0.04882812,0.005859375,0.01757812,0,-0.0009765625,-0.002929688,0.2143555,0,0,-0.03308105,0.3105164,4.059,0,0,0,0.2999878,nan,2,10.174,1,128,0.2894592,0.2961121,0.3135681,0.3429871,0.01074219,-0.01953125,0,1,3,0
4153.848,0.00098,-0.02929688,-0.02929688,0.0078125,1.9375,-2.328125,7.375,-0.005859375,-0.00390625,-0.015625,0.005859375,0.01757812,0,-0.0009765625,-0.003051758,0.2141113,0,0,-0.03308105,0.3105164,4.059,0,0,0,0.2999878,nan,2,10.184,1,128,0.3382568,0.245575,0.350769,0.3074951,0.01074219,-0.01953125,0,1,3,0
4153.858,0.001032,0.02929688,-0.005859375,-0.02148438,-1.015625,2.523438,14.64844,0.03710938,0.0234375,-0.02148438,0.00390625,0.01757812,0,-0.0007324219,-0.003051758,0.2138672,0,0,-0.03308105,0.3105164,4.059,0,0,0,0.2999878,nan,2,10.194,1,128,0.2877808,0.2879944,0.3199768,0.346344,0.01074219,-0.01953125,0,1,3,0
4153.868,0.001054,0.0078125,0.1054688,0,1.085938,-0.84375,7.148438,0.015625,0.04101562,-0.0234375,0.001953125,0.01757812,0,-0.0003662109,-0.002929688,0.213623,0,0,-0.03308105,0.3105164,4.059,0,0,0,0.2999878,nan,2,10.204,1,128,0.3009338,0.2666016,0.3258972,0.3486938,0.01074219,-0.01855469,0,1,3,0
4153.879,0.001029,-0.05859375,-0.01367188,0.0546875,-0.6015625,0.5859375,7.710938,-0.01757812,0.001953125,0.015625,0.001953125,0.015625,0,-0.0002441406,-0.002563477,0.213501,0,0,-0.03308105,0.3105164,4.059,0,0,0,0.2999878,nan,2,10.214,1,128,0.3722839,0.2191772,0.3680725,0.2825623,0.01074219,-0.01953125,0,1,3,0
4153.889,0.00098,0.01171875,0.01953125,0.09570312,1.132812,-0.078125,12.45312,0.015625,-0.00390625,0.08398438,0.001953125,0.01757812,0,-0.0004882812,-0.002929688,0.2141113,0,0,-0.03308105,0.3105164,4.059,0,0,0,0.2999878,nan,2,10.224,1,128,0.3768921,0.2030334,0.4087524,0.253418,0.01074219,-0.01855469,0,1,3,0
4153.899,0.000957,0.03515625,-0.04101562,0.05078125,0.046875,0.2734375,7.976562,0.01367188,-0.0234375,0.06835938,0.00390625,0.01757812,0,-0.0004882812,-0.003051758,0.2149658,0,0,-0.03308105,0.3105164,4.059,0,0,0,0.2999878,nan,2,10.234,1,128,0.3006897,0.2922363,0.3167725,0.3323975,0.01074219,-0.01855469,0,1,3,0
4153.909,0.001013,0.03320312,-0.08203125,-0.02539062,0.6796875,-2.132812,10.11719,0,-0.0234375,-0.005859375,0.00390625,0.01757812,0,-0.0004882812,-0.003051758,0.21521,0,0,-0.03308105,0.3105164,4.059,0,0,0,0.2999878,nan,2,10.244,1,128,0.2334595,0.3639832,0.2376404,0.4070129,0.01074219,-0.01855469,0,1,3,0
4153.919,0.000977,-0.01757812,-0.06835938,-0.06445312,0.984375,-2.929688,7.859375,-0.0078125,-0.0078125,-0.07617188,0.00390625,0.01757812,0,-0.0006103516,-0.003051758,0.2145996,0,0,-0.03308105,0.3105164,4.059,0,0,0,0.2999878,nan,2,10.255,1,128,0.2445679,0.3457031,0.2533264,0.3985291,0.01074219,-0.01855469,0,1,3,0
4153.929,0.001013,-0.06445312,-0.015625,-0.03320312,-1.46875,5.132812,12.04688,-0.01171875,0.00390625,-0.02929688,0.00390625,0.01757812,0,-0.0006103516,-0.003051758,0.2141113,0,0,-0.03308105,0.3105164,4.059,0,0,0,0.2999878,nan,2,10.265,1,128,0.3379517,0.2476807,0.3458862,0.3106079,0.01074219,-0.01855469,0,1,3,0
4153.938,0.001002,0.0859375,0.0390625,0.02734375,1.914062,0.3828125,10.66406,0.046875,0.015625,0.01171875,0.00390625,0.01757812,0,-0.0004882812,-0.002929688,0.2139893,0,0,-0.03308105,0.3105164,4.059,0,0,0,0.2999878,nan,2,10.274,1,128,0.3362427,0.2454224,0.3768005,0.2836609,0.01074219,-0.01855469,0,1,3,0
4153.948,0.001014,0.09179688,0.03515625,0.01171875,-1.03125,-0.6796875,7.609375,0.02539062,0,0.01757812,0.001953125,0.01757812,0,-0.0004882812,-0.002807617,0.2142334,0,0,-0.03308105,0.3105164,4.059,0,0,0,0.2999878,nan,2,10.284,1,128,0.3031311,0.281311,0.3323364,0.3252869,0.01074219,-0.01855469,0,1,3,0
4153.958,0.001014,0.08007812,0.009765625,-0.06640625,0.765625,1.070312,7.929688,0.02539062,0.009765625,-0.03515625,0.001953125,0.01757812,0,-0.0003662109,-0.002929688,0.2141113,0,0,-0.03308105,0.3105164,4.059,0,0,0,0.2999878,nan,2,10.294,1,128,0.2317505,0.3478394,0.2633972,0.3991089,0.01074219,-0.01855469,0,1,3,0
4153.968,0.001011,0.03710938,0.02539062,-0.0546875,-0.6328125,-0.8828125,8.695312,-0.01953125,-0.01757812,-0.05273438,0.001953125,0.01757812,0,-0.0003662109,-0.003051758,0.213501,0,0,-0.03308105,0.3105164,4.059,0,0,0,0.2999878,nan,2,10.304,1,128,0.2855225,0.3011169,0.2958069,0.3596802,0.01074219,-0.01855469,0,1,3,0
4153.978,0.001009,0.046875,0.01367188,-0.015625,-1.664062,1.304688,13.52344,0.00390625,0,-0.04101562,0.001953125,0.01953125,0,-0.0003662109,-0.003295898,0.2130127,0,0,-0.03308105,0.3105164,4.059,0,0,0,0.2999878,nan,2,10.314,1,128,0.316803,0.2625427,0.341156,0.3215637,0.01074219,-0.01855469,0,1,3,0
4153.988,0.001009,-0.09179688,0.046875,0.01367188,1.625,-1.960938,4.554688,-0.05664062,-0.01367188,0.02148438,0.00390625,0.01953125,0,-0.0007324219,-0.003295898,0.2128906,0,0,-0.03308105,0.3105164,4.059,0,0,0,0.2999878,nan,2,10.324,1,128,0.3701782,0.2189941,0.3617859,0.2911682,0.01074219,-0.01855469,0,1,3,0
4153.999,0.001009,0.01757812,-0.02929688,0.03125,0.5,-1,8.65625,-0.03320312,-0.02148438,0.01953125,0.005859375,0.01953125,0,-0.001098633,-0.003295898,0.2130127,0,0,-0.03308105,0.3105164,4.059,0,0,0,0.2999878,nan,2,10.334,1,128,0.3313293,0.2626953,0.3366699,0.3114014,0.01074219,-0.01855469,0,1,3,0
4154.009,0.001009,0.02539062,0.06054688,0.0859375,-0.3046875,2.84375,13.59375,-0.02539062,0.015625,0.05078125,0.0078125,0.01953125,0,-0.001342773,-0.003295898,0.2133789,0,0,-0.03308105,0.3105164,4.059,0,0,0,0.2999878,nan,2,10.344,1,128,0.3588257,0.2178955,0.3782654,0.2871399,0.01074219,-0.01855469,0,1,3,0
4154.019,0.00101,0.08203125,-0.03320312,0.07617188,1.820312,-3.515625,9.515625,-0.001953125,0.00390625,0.07617188,0.009765625,0.01953125,0,-0.001586914,-0.003295898,0.2139893,0,0,-0.03308105,0.3105164,4.059,0,0,0,0.2999878,nan,2,10.355,1,128,0.3448792,0.2418213,0.3668518,0.2885742,0.01074219,-0.01855469,0,1,3,0
4154.028,0.000968,-0.1015625,0.04101562,0.01757812,-1.03125,-3.0625,9.59375,-0.03710938,0.03125,0.046875,0.01171875,0.01953125,0,-0.001953125,-0.003295898,0.2145996,0,0,-0.03308105,0.3105164,4.059,0,0,0,0.2999878,nan,2,10.364,1,128,0.2832031,0.2901917,0.2961426,0.3725891,0.01074219,-0.01855469,0,1,3,0.3015873
4154.038,0.001014,0.04101562,0.04492188,-0.05078125,1.351562,-0.1640625,8.039062,0.001953125,0.0078125,-0.0234375,0.01367188,0.01953125,0,-0.002319336,-0.003295898,0.2145996,0,0,-0.03308105,0.3105164,4.059,0,0,0,0.2999878,nan,2,10.374,1,128,0.2298279,0.3513794,0.256897,0.4039612,0.01074219,-0.01855469,0,1,3,0
4154.048,0.001002,0.09179688,-0.05078125,-0.05078125,-1.421875,2.242188,13.0625,0.06835938,0.001953125,-0.0546875,0.01171875,0.01757812,0,-0.002075195,-0.003051758,0.2141113,0,0,-0.03308105,0.3105164,4.059,0,0,0,0.2999878,nan,2,10.384,1,128,0.2677307,0.3235474,0.3009338,0.349884,0.01074219,-0.01855469,0,1,3,0
4154.058,0.001022,0.05078125,0.04296875,-0.04296875,1.007812,-1.125,6.875,0.02539062,0.03320312,-0.05859375,0.009765625,0.01757812,0,-0.001464844,-0.003051758,0.2133789,0,0,-0.03308105,0.3105164,4.059,0,0,0,0.2999878,nan,2,10.394,1,128,0.2874146,0.2830811,0.3104248,0.3612061,0.01074219,-0.01855469,0,1,3,0
4154.069,0.001081,-0.02148438,-0.06640625,-0.01171875,0.25,0.0703125,8.515625,-0.001953125,-0.01171875,-0.01757812,0.0078125,0.01757812,0,-0.001220703,-0.002929688,0.2131348,0,0,-0.03308105,0.3105164,4.059,0,0,0,0.2999878,nan,2,10.404,1,128,0.3443604,0.2510071,0.3383179,0.3084412,0.01074219,-0.01855469,0,1,3,0
4154.078,0.001013,0.0625,0.05273438,-0.04101562,-0.6015625,1.539062,12.27344,0.05273438,0.0390625,-0.03515625,0.005859375,0.01757812,0,-0.001098633,-0.002807617,0.2127686,0,0,-0.03308105,0.3105164,4.059,0,0,0,0.2999878,nan,2,10.414,1,128,0.2641602,0.3065491,0.3110352,0.3603516,0.01074219,-0.01855469,0,1,3,0
4154.088,0.001013,-0.02734375,0.0546875,-0.009765625,1.015625,-4.453125,3.359375,0.06640625,0.046875,-0.03515625,0.001953125,0.015625,0,-0.0002441406,-0.002563477,0.2124023,0,0,-0.03308105,0.3105164,4.059,0,0,0,0.2999878,nan,2,10.424,1,128,0.2966614,0.2767944,0.322113,0.3465576,0.01074219,-0.01855469,0,1,3,0
4154.099,0.001013,-0.0390625,-0.02734375,-0.01171875,0.3828125,0.5234375,8.609375,0.01367188,0.01757812,0.015625,0,0.01171875,0,0.0001220703,-0.002075195,0.2125244,0,0,-0.03308105,0.3105164,4.059,0,0,0,0.2999878,nan,2,10.434,1,128,0.3310852,0.2605896,0.332489,0.3179321,0.01074219,-0.01855469,0,1,3,0
4154.109,0.001013,-0.01953125,0.01953125,-0.005859375,-1.1875,1.023438,13.1875,-0.00390625,0.00390625,-0.01367188,-0.001953125,0.01171875,0,0.0002441406,-0.002075195,0.2122803,0,0,-0.03308105,0.3105164,4.059,0,0,0,0.2999878,nan,2,10.444,1,128,0.3070679,0.2817993,0.3118896,0.3413391,0.01074219,-0.01855469,0,1,3,0
4154.119,0.001013,-0.03320312,-0.03320312,-0.00390625,0.3203125,-3.257812,5.882812,-0.02148438,-0.03710938,-0.02539062,-0.00390625,0.01171875,0,0.0006103516,-0.001953125,0.2121582,0,0,-0.03308105,0.3105164,4.059,0,0,0,0.2999878,nan,2,10.454,1,128,0.3147888,0.2894592,0.2879944,0.349884,0.01074219,-0.01855469,0,1,3,0
4154.129,0.00108,-0.01757812,-0.06640625,-0.0234375,-1.609375,0.9140625,9.9375,-0.0390625,-0.01757812,-0.04101562,-0.00390625,0.01171875,0,0.0006103516,-0.001953125,0.2116699,0,0,-0.03308105,0.3105164,4.059,0,0,0,0.2999878,nan,2,10.465,1,128,0.3079529,0.288147,0.2937622,0.3522339,0.01074219,-0.01855469,0,1,3,0.2222222
4154.138,0.001005,-0.1074219,0.01757812,0.05078125,0.9609375,-1.625,7.585938,-0.06445312,0,0.02929688,0,0.01171875,0,0.0001220703,-0.002075195,0.2116699,0,0,-0.03308105,0.3105164,4.059,0,0,0,0.2999878,nan,2,10.474,1,128,0.3853149,0.1956177,0.3894653,0.271698,0.01074219,-0.01855469,0,1,3,0
4154.148,0.001005,-0.0625,-0.02148438,-0.01757812,-0.1484375,1.515625,10.85156,-0.009765625,-0.01757812,-0.01171875,0,0.01367188,0,-0.0001220703,-0.002197266,0.211792,0,0,-0.03308105,0.3105164,4.059,0,0,0,0.2999878,nan,2,10.484,1,128,0.2732239,0.3183594,0.2832642,0.3672791,0.01074219,-0.01855469,0,1,3,0
4154.158,0.001014,-0.1484375,0.0078125,-0.1015625,-1.796875,2.648438,11.46094,-0.05859375,0.001953125,-0.08789062,0,0.01367188,0,0,-0.002197266,0.2113037,0,0,-0.03308105,0.3105164,4.059,0,0,0,0.2999878,nan,2,10.494,1,128,0.2194214,0.3641663,0.2064514,0.4520569,0.01074219,-0.01855469,0,1,3,0
4154.168,0.001005,0.0078125,0.01953125,-0.04882812,1.414062,-1.210938,7.710938,0.03320312,-0.0234375,-0.08203125,0,0.01367188,0,-0.0001220703,-0.002319336,0.2103271,0,0,-0.03308105,0.3105164,4.059,0,0,0,0.2999878,nan,2,10.504,1,128,0.2776184,0.3132935,0.3014221,0.349762,0.01074219,-0.01855469,0,1,3,0
4154.178,0.001005,0.06054688,-0.009765625,0.06054688,0.2109375,-1.078125,9.359375,-0.009765625,0.009765625,0.02148438,0.001953125,0.01367188,0,-0.0001220703,-0.002319336,0.210083,0,0,-0.03308105,0.3105164,4.059,0,0,0,0.2999878,nan,2,10.514,1,128,0.3970642,0.18396,0.4181213,0.242981,0.01074219,-0.01855469,0,1,3,0.2063492
4154.189,0.001034,0.06640625,0,0.0234375,-0.828125,1.640625,11.9375,-0.00390625,-0.03125,0.04296875,0.001953125,0.015625,0,-0.0004882812,-0.002563477,0.2105713,0,0,-0.03308105,0.3105164,4.059,0,0,0,0.2999878,nan,2,10.524,1,128,0.3248596,0.2659302,0.3433838,0.3078918,0.01074219,-0.01855469,0,1,3,0
4154.199,0.000974,0.01953125,-0.09179688,0.07226562,0.109375,-3.90625,8.203125,0.03125,-0.05664062,0.05859375,0,0.01757812,0,0,-0.002929688,0.2110596,0,0,-0.03308105,0.3105164,4.059,0,0,0,0.2999878,nan,2,10.534,1,128,0.3513184,0.2514343,0.3521118,0.287262,0.01074219,-0.01855469,0,1,3,0
4154.208,0.001062,-0.1289062,0,0.06640625,-0.59375,4.609375,13.60938,-0.005859375,-0.01953125,0.03710938,0,0.01953125,0,0.0001220703,-0.003173828,0.2113037,0,0,-0.03308105,0.3105164,4.059,0,0,0,0.2999878,nan,2,10.543,1,128,0.3380737,0.2457275,0.3428345,0.3154907,0.01074219,-0.01855469,0,1,3,0
4154.219,0.001005,0.1445312,-0.05859375,-0.01171875,0.8515625,-3.773438,10.875,0.01757812,-0.0078125,0.01757812,0,0.01757812,0,0,-0.003051758,0.2115479,0,0,-0.03308105,0.3105164,4.059,0,0,0,0.2999878,nan,2,10.554,1,128,0.284729,0.3091736,0.3060608,0.3421326,0.01074219,-0.01855469,0,1,3,0
4154.228,0.00109,0.1308594,0.01367188,0.0078125,-1.367188,1.617188,11.21094,0.03515625,0.01171875,-0.005859375,0,0.01953125,0,-0.0001220703,-0.003173828,0.2115479,0,0,-0.03308105,0.3105164,4.059,0,0,0,0.2999878,nan,2,10.564,1,128,0.2814331,0.2997742,0.318573,0.3423462,0.01074219,-0.01855469,0,1,3,0
4154.238,0.001013,0.015625,-0.0078125,0.08984375,1.773438,-0.0078125,9.03125,-0.03320312,-0.01367188,0.03710938,0,0.01953125,0,0,-0.003173828,0.2116699,0,0,-0.03308105,0.3105164,4.059,0,0,0,0.2999878,nan,2,10.574,1,128,0.3846741,0.2064514,0.3808289,0.2701416,0.01074219,-0.01855469,0,1,3,0
4154.248,0.001014,0.0234375,0.00390625,-0.03125,-0.203125,-0.3671875,9.898438,-0.01171875,-0.01367188,0.015625,0,0.01953125,0,-0.0001220703,-0.003295898,0.2120361,0,0,-0.03308105,0.3105164,4.059,0,0,0,0.2999878,nan,2,10.584,1,128,0.2688599,0.3206482,0.276825,0.3757629,0.01074219,-0.01855469,0,1,3,0.2063492
4154.258,0.001023,-0.001953125,0.08984375,-0.1015625,1.578125,3.4375,7.765625,-0.02734375,0.03515625,-0.05664062,0.001953125,0.01953125,0,-0.0002441406,-0.003295898,0.211792,0,0,-0.03308105,0.3105164,4.059,0,0,0,0.2999878,nan,2,10.594,1,128,0.2184143,0.3516541,0.2415771,0.430481,0.01074219,-0.01855469,0,1,3,0
4154.268,0.001028,0.1269531,-0.1347656,-0.046875,1.585938,-3.273438,13.53125,0.03710938,-0.01953125,-0.05664062,0,0.01757812,0,0,-0.002929688,0.2110596,0,0,-0.03308105,0.3105164,4.059,0,0,0,0.2999878,nan,2,10.604,1,128,0.3055725,0.3044739,0.3061829,0.3258667,0.01074219,-0.01855469,0,1,3,0
4154.278,0.000994,0.06445312,-0.02148438,0.001953125,-1.984375,0.6953125,10.79688,0.01171875,-0.02734375,-0.01953125,-0.001953125,0.01953125,0,0.0002441406,-0.003295898,0.2106934,0,0,-0.03308105,0.3105164,4.059,0,0,0,0.2999878,nan,2,10.614,1,128,0.3254089,0.2657776,0.3344421,0.3164978,0.01074219,-0.01855469,0,1,3,0
4154.288,0.001013,-0.1015625,-0.07421875,0.05859375,0.8671875,1.296875,7.875,-0.09570312,-0.04101562,0.04492188,0.001953125,0.02148438,0,-0.0002441406,-0.003540039,0.2109375,0,0,-0.03308105,0.3105164,4.059,0,0,0,0.2999878,nan,2,10.624,1,128,0.3916931,0.2070007,0.3600464,0.2833557,0.01074219,-0.01855469,0,1,3,0
4154.299,0.001013,0.08984375,-0.001953125,0.046875,-0.96875,-1.703125,9.695312,0.01757812,0.00390625,0.04492188,0.001953125,0.02148438,0,-0.0003662109,-0.003662109,0.2114258,0,0,-0.03308105,0.3105164,4.059,0,0,0,0.2999878,nan,2,10.634,1,128,0.309967,0.2692871,0.3452454,0.317627,0.01074219,-0.01855469,0,1,3,0.6825397
4154.309,0.001013,0.01171875,-0.05859375,0.1660156,1.164062,2.632812,9.289062,0.03125,-0.01757812,0.1230469,0,0.02148438,0,-0.0001220703,-0.003662109,0.2121582,0,0,-0.03308105,0.3105164,4.059,0,0,0,0.2999878,nan,2,10.644,1,128,0.4258728,0.1685486,0.4382324,0.2094421,0.01074219,-0.01855469,0,1,3,0.1269841
4154.319,0.001013,-0.0625,0.0390625,0.06640625,-0.2578125,-1.476562,9.554688,-0.0078125,-0.005859375,0.07226562,0,0.0234375,0,0.0001220703,-0.00390625,0.2131348,0,0,-0.03308105,0.3105164,4.059,0,0,0,0.2999878,nan,2,10.654,1,128,0.2970581,0.2855835,0.3042603,0.3552246,0.01074219,-0.01855469,0,1,3,0.7142857
4154.329,0.001013,-0.01757812,0.08203125,-0.005859375,-0.2578125,3.015625,11.10938,-0.03515625,0.0625,0.03125,0.001953125,0.02148438,0,-0.0002441406,-0.003662109,0.2137451,0,0,-0.03308105,0.3105164,4.059,0,0,0,0.2999878,nan,2,10.665,1,128,0.2485657,0.3156433,0.2758789,0.4020081,0.01074219,-0.01855469,0,1,3,0
4154.338,0.001007,-0.1015625,-0.02929688,-0.06640625,0.6640625,-2.46875,8.8125,-0.01953125,0.01757812,-0.03710938,0.001953125,0.02148438,0,-0.0002441406,-0.003417969,0.213623,0,0,-0.03308105,0.3105164,4.059,0,0,0,0.2999878,nan,2,10.674,1,128,0.2246399,0.3597412,0.2272644,0.4304504,0.01074219,-0.01855469,0,1,3,0
4154.348,0.001012,-0.05859375,-0.0859375,-0.06445312,-1.945312,2.601562,10.84375,0,-0.02539062,-0.05859375,0.001953125,0.02148438,0,-0.0003662109,-0.003540039,0.2131348,0,0,-0.03308105,0.3105164,4.059,0,0,0,0.2999878,nan,2,10.684,1,128,0.2677002,0.3322754,0.2683411,0.3737793,0.01074219,-0.01855469,0,1,3,0
4154.358,0.001007,0.02539062,-0.02734375,-0.07617188,0.90625,-0.1171875,8.101562,0.01367188,0.01171875,-0.07421875,0.00390625,0.02148438,0,-0.0006103516,-0.003540039,0.2124023,0,0,-0.03308105,0.3105164,4.059,0,0,0,0.2999878,nan,2,10.694,1,128,0.2667542,0.3162537,0.2955322,0.3635864,0.01074219,-0.01855469,0,1,3,0
4154.368,0.000999,-0.07421875,0.07617188,0.04296875,2.390625,-2.46875,9.1875,-0.03710938,-0.001953125,0.0078125,0.00390625,0.02148438,0,-0.0006103516,-0.003662109,0.2120361,0,0,-0.03308105,0.3105164,4.059,0,0,0,0.2999878,nan,2,10.704,1,128,0.3955994,0.1903687,0.3937073,0.2624512,0.01074219,-0.01855469,0,1,3,0.6507937
4154.378,0.001017,0.005859375,0.04882812,-0.0390625,-1.226562,0.0390625,10.8125,0.009765625,0.03515625,-0.01171875,0.005859375,0.02148438,0,-0.0008544922,-0.003540039,0.2121582,0,0,-0.03308105,0.3105164,4.059,0,0,0,0.2999878,nan,2,10.714,1,128,0.252533,0.3202515,0.2905273,0.3787842,0.01074219,-0.01855469,0,1,3,0
4154.389,0.001004,-0.05273438,0.05078125,0.03515625,0.578125,-1.476562,6,-0.04492188,0.00390625,-0.02148438,0.0078125,0.02148438,0,-0.001220703,-0.003417969,0.211792,0,0,-0.03308105,0.3105164,4.059,0,0,0,0.2999878,nan,2,10.724,1,128,0.3273315,0.2559204,0.3336487,0.3251953,0.01074219,-0.01757812,0,1,3,0
4154.399,0.000989,-0.06640625,-0.00390625,0.01953125,1.304688,-1.320312,9.28125,-0.03515625,0.0078125,0.02148438,0.009765625,0.01953125,0,-0.001586914,-0.003173828,0.2119141,0,0,-0.03308105,0.3105164,4.059,0,0,0,0.2999878,nan,2,10.734,1,128,0.3411865,0.2503052,0.3414917,0.3091431,0.01074219,-0.01757812,0,1,3,0.1904762
4154.409,0.001005,-0.01171875,-0.03515625,0.05273438,0.6640625,-0.015625,12.19531,-0.03710938,-0.02148438,0.04882812,0.01171875,0.01953125,0,-0.002075195,-0.003417969,0.2122803,0,0,-0.03308105,0.3105164,4.059,0,0,0,0.2999878,nan,2,10.744,1,128,0.3547363,0.2408142,0.3583069,0.288269,0.01074219,-0.01757812,0,1,3,0
4154.419,0.001005,0.06835938,0.02148438,-0.01171875,-0.0703125,0.9765625,9.742188,0.015625,0.01171875,0.01367188,0.01367188,0.01953125,0,-0.002197266,-0.003295898,0.2125244,0,0,-0.03308105,0.3105164,4.059,0,0,0,0.2999878,nan,2,10.754,1,128,0.2735596,0.3066711,0.3075256,0.3543396,0.01074219,-0.01757812,0,1,3,0.7936508
4154.429,0.001009,0.04492188,0.06054688,-0.05859375,-0.1640625,1.273438,11.27344,0.02148438,0.0234375,-0.02734375,0.01367188,0.01953125,0,-0.002197266,-0.003295898,0.2125244,0,0,-0.03308105,0.3105164,4.059,0,0,0,0.2999878,nan,2,10.765,1,128,0.2346191,0.3421021,0.2686157,0.396759,0.01074219,-0.01757812,0,1,3,0
4154.438,0.00095,0.0390625,0.02539062,-0.01953125,0.40625,-4.484375,9.570312,-0.04492188,0.005859375,-0.02929688,0.015625,0.01953125,0,-0.002563477,-0.003295898,0.2121582,0,0,-0.03308105,0.3105164,4.059,0,0,0,0.2999878,nan,2,10.774,1,128,0.3041992,0.280426,0.3094177,0.348053,0.01074219,-0.01757812,0,1,3,0
4154.448,0.000968,0.05664062,-0.1367188,0.05859375,-0.3828125,3.1875,13.33594,-0.01953125,-0.03320312,0.02929688,0.015625,0.01953125,0,-0.002563477,-0.003173828,0.2121582,0,0,-0.03308105,0.3105164,4.056,0,0,0,0.2999878,nan,2,10.784,1,128,0.3786621,0.22995,0.3658142,0.2676697,0.01074219,-0.01757812,0,1,3,0
4154.458,0.001007,-0.005859375,-0.0078125,0.04492188,1.140625,-1.554688,8.921875,-0.0078125,-0.009765625,0.0703125,0.015625,0.02148438,0,-0.002685547,-0.003417969,0.2128906,0,0,-0.03308105,0.3105164,4.056,0,0,0,0.2999878,nan,2,10.794,1,128,0.3367004,0.2480164,0.3504639,0.3069153,0.01074219,-0.01757812,0,1,3,0
4154.468,0.001011,-0.04296875,0.0234375,0.01757812,-0.6640625,-0.6953125,9.914062,-0.01367188,0.01757812,0.03125,0.01757812,0.02148438,0,-0.002929688,-0.003540039,0.2133789,0,0,-0.03308105,0.3105164,4.056,0,0,0,0.2999878,nan,2,10.804,1,128,0.2757568,0.302063,0.2879333,0.3763733,0.01074219,-0.01757812,0,1,3,0.6190476
4154.478,0.001013,-0.05664062,-0.03515625,0.05664062,0.7109375,-0.90625,8.570312,-0.03125,-0.0078125,0.03320312,0.01757812,0.01953125,0,-0.002929688,-0.003417969,0.213623,0,0,-0.03308105,0.3105164,4.056,0,0,0,0.2999878,nan,2,10.814,1,128,0.3284912,0.2655334,0.3186951,0.3293762,0.01074219,-0.01757812,0,1,3,0
4154.489,0.001018,0.04101562,0.07617188,0.05078125,-0.859375,0.5,10.4375,-0.0078125,0.0078125,0.0546875,0.01757812,0.01953125,0,-0.003051758,-0.003417969,0.2141113,0,0,-0.03308105,0.3105164,4.056,0,0,0,0.2999878,nan,2,10.824,1,128,0.333313,0.2498169,0.3466797,0.3123169,0.01074219,-0.01757812,0,1,3,0
4154.499,0.000958,-0.0078125,0.0546875,-0.0390625,1.171875,-1.054688,9.398438,0.001953125,0.01171875,-0.00390625,0.01757812,0.01953125,0,-0.003051758,-0.003417969,0.2144775,0,0,-0.03308105,0.3105164,4.056,0,0,0,0.2999878,nan,2,10.834,1,128,0.2416382,0.3397217,0.2589417,0.4017944,0.01074219,-0.01757812,0,1,3,0.3333333
4154.509,0.001014,-0.109375,-0.009765625,-0.09570312,-1,0.8828125,12.08594,-0.04882812,-0.00390625,-0.08203125,0.01953125,0.01953125,0,-0.003173828,-0.003417969,0.2139893,0,0,-0.03308105,0.3105164,4.056,0,0,0,0.2999878,nan,2,10.844,1,128,0.2182922,0.3713074,0.2044678,0.4480591,0.01074219,-0.01757812,0,1,3,0
4154.519,0.001013,0.02148438,-0.08984375,-0.04296875,1.289062,-3.429688,5.328125,0,-0.02929688,-0.0625,0.01953125,0.01953125,0,-0.003417969,-0.003417969,0.2131348,0,0,-0.03308105,0.3105164,4.056,0,0,0,0.2999878,nan,2,10.854,1,128,0.3166504,0.2859497,0.3179321,0.3215942,0.01074219,-0.01757812,0,1,3,0
4154.529,0.000998,-0.03710938,-0.05273438,0.0234375,-0.2890625,0.2421875,8.640625,-0.009765625,-0.02539062,0.001953125,0.02148438,0.02148438,0,-0.003540039,-0.003662109,0.2128906,0,0,-0.03308105,0.3105164,4.056,0,0,0,0.2999878,nan,2,10.865,1,128,0.3708801,0.2225952,0.3734131,0.275238,0.01074219,-0.01757812,0,1,3,0
4154.538,0.001005,0.001953125,-0.01367188,0,1.46875,1.992188,10.73438,-0.0234375,0.001953125,-0.005859375,0.0234375,0.02148438,0,-0.00378418,-0.003662109,0.2127686,0,0,-0.03308105,0.3105164,4.056,0,0,0,0.2999878,nan,2,10.874,1,128,0.3103027,0.2763977,0.3201599,0.3352051,0.01074219,-0.01757812,0,1,3,0
4154.548,0.000992,-0.08203125,-0.0234375,0.0546875,-0.34375,-2.914062,8.242188,-0.09570312,-0.0234375,0.02734375,0.02734375,0.02148438,0,-0.004394531,-0.00378418,0.2128906,0,0,-0.03308105,0.3105164,4.056,0,0,0,0.2999878,nan,2,10.884,1,128,0.3738708,0.2233887,0.3476257,0.2972107,0.01074219,-0.01757812,0,1,3,0
4154.558,0.00098,0.0078125,-0.009765625,0.01171875,0.546875,1.335938,11.86719,-0.03320312,-0.0078125,0.005859375,0.02734375,0.0234375,0,-0.004516602,-0.00378418,0.2130127,0,0,-0.03308105,0.3105164,4.056,0,0,0,0.2999878,nan,2,10.894,1,128,0.3051453,0.287384,0.2989502,0.3506165,0.01074219,-0.01757812,0,1,3,0
4154.568,0.001007,-0.05078125,0.04882812,-0.0390625,-0.3671875,-3.429688,11.39062,-0.01757812,0.005859375,-0.005859375,0.02734375,0.02148438,0,-0.004638672,-0.00378418,0.2130127,0,0,-0.03308105,0.3105164,4.056,0,0,0,0.2999878,nan,2,10.904,1,128,0.2944641,0.2893372,0.3013306,0.3569946,0.01074219,-0.01757812,0,1,3,0
4154.578,0.001005,-0.0625,0.1171875,0.06640625,-0.46875,2.671875,11.59375,-0.03710938,0.06640625,0.06835938,0.02929688,0.02148438,0,-0.004760742,-0.003417969,0.213501,0,0,-0.03308105,0.3105164,4.056,0,0,0,0.2999878,nan,2,10.914,1,128,0.3619385,0.2021179,0.3804016,0.2976074,0.01171875,-0.01757812,0,1,3,0
4154.588,0.001007,-0.0234375,0.046875,0.04101562,0.375,-0.984375,6.023438,-0.01367188,-0.001953125,0.04101562,0.02929688,0.01953125,0,-0.004882812,-0.003173828,0.2139893,0,0,-0.03308105,0.3105164,4.056,0,0,0,0.2999878,nan,2,10.924,1,128,0.3033447,0.2890625,0.3027954,0.3469238,0.01171875,-0.01757812,0,1,3,0
4154.599,0.000921,-0.07617188,0.01367188,-0.0546875,-0.0625,-2.875,10.46094,-0.046875,0.009765625,-0.03125,0.03125,0.01953125,0,-0.005126953,-0.003173828,0.2141113,0,0,-0.03308105,0.3105164,4.056,0,0,0,0.2999878,nan,2,10.934,1,128,0.228241,0.3562012,0.2211609,0.4364929,0.01171875,-0.01757812,0,1,3,0
4154.609,0.001005,-0.04882812,0.0234375,-0.09179688,1.1875,-1.59375,6.921875,-0.01367188,0.009765625,-0.07421875,0.03125,0.01953125,0,-0.005126953,-0.003173828,0.213623,0,0,-0.03308105,0.3105164,4.056,0,0,0,0.2999878,nan,2,10.944,1,128,0.239563,0.3435974,0.2451782,0.4137573,0.01171875,-0.01757812,0,1,3,0
4154.619,0.000994,-0.0390625,-0.04882812,-0.06445312,-1.351562,2.007812,11.25,0.01757812,-0.01367188,-0.06445312,0.02929688,0.01757812,0,-0.005004883,-0.003051758,0.2128906,0,0,-0.03308105,0.3105164,4.056,0,0,0,0.2999878,nan,2,10.954,1,128,0.2993469,0.2989502,0.2971497,0.3466492,0.01171875,-0.01757812,0,1,3,0
4154.629,0.001005,-0.09179688,-0.06445312,0.02148438,0.9453125,0.140625,10.875,-0.07226562,-0.0234375,-0.0078125,0.03320312,0.01953125,0,-0.005493164,-0.003173828,0.2125244,0,0,-0.03308105,0.3105164,4.056,0,0,0,0.2999878,nan,2,10.965,1,128,0.3823242,0.2159729,0.356842,0.2869568,0.01171875,-0.01757812,0,1,3,0
4154.639,0.001005,-0.02734375,0.0234375,0.015625,1.398438,-1.609375,8.21875,0.005859375,0.001953125,0.0234375,0.03320312,0.01953125,0,-0.005615234,-0.003295898,0.2126465,0,0,-0.03308105,0.3105164,4.056,0,0,0,0.2999878,nan,2,10.975,1,128,0.3313599,0.2523804,0.3460693,0.3122864,0.01171875,-0.01757812,0,1,3,0
4154.648,0.001016,-0.1210938,-0.015625,-0.04492188,-0.484375,0.703125,11.71094,-0.01757812,-0.009765625,-0.04101562,0.03125,0.01953125,0,-0.005249023,-0.003295898,0.2125244,0,0,-0.03308105,0.3105164,4.056,0,0,0,0.2999878,nan,2,10.984,1,128,0.2550964,0.3372803,0.23526,0.4144897,0.01171875,-0.01757812,0,1,3,0
4154.658,0.001021,-0.1035156,0.08984375,-0.015625,0.6015625,-4.289062,8.5625,-0.09375,0.0390625,-0.01953125,0.03320312,0.01953125,0,-0.005737305,-0.003295898,0.2122803,0,0,-0.03308105,0.3105164,4.056,0,0,0,0.2999878,nan,2,10.994,1,128,0.314209,0.2542114,0.3078613,0.3658142,0.01171875,-0.01757812,0,1,3,0.1746032
4154.668,0.001016,-0.01367188,0.009765625,-0.03320312,-1.6875,2.15625,11.74219,0.01171875,0.0078125,-0.03125,0.03515625,0.01953125,0,-0.005981445,-0.003173828,0.2120361,0,0,-0.03308105,0.3105164,4.056,0,0,0,0.2999878,nan,2,11.004,1,128,0.2836914,0.3031311,0.302948,0.3523254,0.01171875,-0.01757812,0,1,3,0
4154.678,0.001017,-0.08203125,-0.0078125,-0.03125,1.320312,2.609375,10.39062,-0.0390625,-0.005859375,-0.01757812,0.03710938,0.01953125,0,-0.006103516,-0.003173828,0.211792,0,0,-0.03308105,0.3105164,4.056,0,0,0,0.2999878,nan,2,11.014,1,128,0.3161011,0.2766724,0.3020935,0.347229,0.01171875,-0.01757812,0,1,3,0
4154.688,0.001007,0.001953125,0.06445312,-0.06054688,0.484375,-4.4375,8.921875,-0.02734375,0.02148438,-0.05078125,0.0390625,0.01953125,0,-0.006591797,-0.003173828,0.2114258,0,0,-0.03308105,0.3105164,4.056,0,0,0,0.2999878,nan,2,11.024,1,128,0.2588501,0.3181458,0.2775879,0.3875427,0.01171875,-0.01757812,0,1,3,0.6349207
4154.698,0.001016,-0.0390625,-0.0234375,-0.009765625,-1.4375,3.34375,13.28125,-0.03515625,-0.005859375,-0.03320312,0.0390625,0.01757812,0,-0.006591797,-0.003051758,0.2109375,0,0,-0.03308105,0.3105164,4.056,0,0,0,0.2999878,nan,2,11.034,1,128,0.3283691,0.2663269,0.3106384,0.3367615,0.01171875,-0.01757812,0,1,3,0
4154.709,0.001016,-0.009765625,0.04101562,0.03515625,1.109375,-0.2109375,8.4375,0.01367188,0.0234375,0.02148438,0.0390625,0.01757812,0,-0.006469727,-0.002929688,0.2109375,0,0,-0.03308105,0.3105164,4.056,0,0,0,0.2999878,nan,2,11.044,1,128,0.3533936,0.2259216,0.3648071,0.2980042,0.01171875,-0.01757812,0,1,3,0
4154.719,0.001016,0.05664062,0.04882812,-0.0703125,-0.1875,-2.59375,8.742188,0.01953125,0.01171875,-0.03125,0.03710938,0.01757812,0,-0.006347656,-0.002929688,0.2109375,0,0,-0.03308105,0.3105164,4.056,0,0,0,0.2999878,nan,2,11.054,1,128,0.2372437,0.3461609,0.2532959,0.405426,0.01171875,-0.01757812,0,1,3,0
4154.729,0.001016,-0.02539062,0.04492188,-0.09375,-0.046875,3.796875,13.8125,-0.01171875,0.03320312,-0.109375,0.03710938,0.015625,0,-0.006225586,-0.002807617,0.210083,0,0,-0.03308105,0.3105164,4.056,0,0,0,0.2999878,nan,2,11.065,1,128,0.2348328,0.3421631,0.2427063,0.4223938,0.01171875,-0.01757812,0,1,3,0
4154.738,0.000988,0.005859375,0.02734375,-0.0546875,1.992188,-3.09375,8.007812,0.02929688,-0.03320312,-0.078125,0.03515625,0.01757812,0,-0.005981445,-0.003051758,0.2091064,0,0,-0.03308105,0.3105164,4.056,0,0,0,0.2999878,nan,2,11.074,1,128,0.3228149,0.269989,0.329895,0.319397,0.01171875,-0.01757812,0,1,3,0
4154.748,0.001013,0.04101562,0.01757812,0.03320312,-1.101562,0.625,7.125,0.00390625,0.00390625,0.00390625,0.03710938,0.01953125,0,-0.006103516,-0.003173828,0.2087402,0,0,-0.03308105,0.3105164,4.056,0,0,0,0.2999878,nan,2,11.084,1,128,0.3763733,0.2042847,0.3928833,0.2685547,0.01171875,-0.01757812,0,1,3,0
4154.758,0.001012,0.02148438,0.03125,0.015625,0.3125,0.4453125,8.414062,0.02929688,0.0234375,-0.001953125,0.03515625,0.01953125,0,-0.005981445,-0.003173828,0.2088623,0,0,-0.03308105,0.3105164,4.056,0,0,0,0.2999878,nan,2,11.094,1,128,0.3049927,0.2716675,0.3330688,0.3323975,0.01171875,-0.01757812,0,1,3,0
4154.768,0.000971,-0.01367188,-0.02148438,0.1210938,0.34375,-1.640625,10.59375,-0.015625,-0.01367188,0.07617188,0.03710938,0.01953125,0,-0.006103516,-0.003173828,0.2092285,0,0,-0.03308105,0.3105164,4.056,0,0,0,0.2999878,nan,2,11.104,1,128,0.4128418,0.1817322,0.4072571,0.2402954,0.01171875,-0.01757812,0,1,3,0
4154.778,0.001005,0.009765625,-0.05859375,0.1035156,0.40625,-3.226562,9.976562,-0.015625,-0.02929688,0.09960938,0.03710938,0.01953125,0,-0.006225586,-0.003295898,0.210083,0,0,-0.03308105,0.3105164,4.056,0,0,0,0.2999878,nan,2,11.114,1,128,0.3669739,0.2341614,0.3550415,0.2859192,0.01171875,-0.01757812,0,1,3,0
4154.789,0.001006,-0.015625,0.06445312,0,1.117188,-0.8828125,7.164062,-0.02734375,0.01953125,0.0234375,0.0390625,0.02148438,0,-0.006469727,-0.003540039,0.2108154,0,0,-0.03308105,0.3105164,4.056,0,0,0,0.2999878,nan,2,11.124,1,128,0.2395935,0.334137,0.25354,0.4148254,0.01171875,-0.01757812,0,1,3,0
4154.798,0.000972,-0.02734375,0.005859375,-0.08398438,-1.039062,0.7578125,13.80469,-0.01367188,0,-0.05859375,0.0390625,0.01953125,0,-0.006469727,-0.003295898,0.2105713,0,0,-0.03308105,0.3105164,4.056,0,0,0,0.2999878,nan,2,11.134,1,128,0.2155151,0.3803101,0.2065735,0.4396667,0.01171875,-0.01757812,0,1,3,0
4154.809,0.001005,0.04101562,0.02734375,-0.02539062,0.8046875,-1.984375,9.203125,0.02539062,0.01367188,-0.04882812,0.0390625,0.01953125,0,-0.006469727,-0.003173828,0.2099609,0,0,-0.03308105,0.3105164,4.056,0,0,0,0.2999878,nan,2,11.144,1,128,0.3040771,0.2801514,0.3226318,0.3352356,0.01171875,-0.01757812,0,1,3,0.2539683
4154.819,0.001005,-0.01367188,-0.05664062,0.01757812,1.296875,-2.109375,7.882812,0.01367188,-0.01757812,-0.001953125,0.03710938,0.01953125,0,-0.006347656,-0.003173828,0.2095947,0,0,-0.03308105,0.3105164,4.056,0,0,0,0.2999878,nan,2,11.154,1,128,0.3676147,0.2314148,0.3629761,0.2800903,0.01269531,-0.01757812,0,1,3,0
4154.829,0.001005,-0.06640625,-0.03710938,0.04101562,-0.6015625,3.75,15.65625,-0.06640625,-0.0234375,0.0390625,0.0390625,0.01953125,0,-0.006591797,-0.003295898,0.2098389,0,0,-0.03308105,0.3105164,4.056,0,0,0,0.2999878,nan,2,11.165,1,128,0.3710632,0.2256165,0.3425598,0.3028564,0.01269531,-0.01757812,0,1,3,0
4154.839,0.001005,-0.005859375,-0.0078125,-0.01953125,1.1875,-1.953125,8.570312,-0.0078125,-0.0078125,0.01367188,0.04296875,0.02148438,0,-0.007324219,-0.003540039,0.2102051,0,0,-0.03308105,0.3105164,4.056,0,0,0,0.2999878,nan,2,11.175,1,128,0.2640381,0.3220215,0.2852783,0.3707581,0.01269531,-0.01757812,0,1,3,0
4154.848,0.000993,-0.07617188,-0.01953125,0.05078125,-1.710938,3.820312,11.11719,-0.02734375,0,0.01367188,0.04492188,0.02148438,0,-0.007446289,-0.003540039,0.2103271,0,0,-0.03308105,0.3105164,4.056,0,0,0,0.2999878,nan,2,11.184,1,128,0.329895,0.2589722,0.3221436,0.3310547,0.01269531,-0.01757812,0,1,3,0
4154.858,0.001017,-0.0234375,-0.05664062,0.06640625,0.0390625,-3.851562,7.328125,-0.0234375,0.001953125,0.06054688,0.04492188,0.02148438,0,-0.007568359,-0.003417969,0.2108154,0,0,-0.03308105,0.3105164,4.056,0,0,0,0.2999878,nan,2,11.194,1,128,0.3618469,0.2303772,0.3554688,0.2944336,0.01269531,-0.01757812,0,1,3,0
4154.868,0.001019,0.05859375,-0.04492188,0.04101562,-0.7421875,3.203125,12.03906,-0.01757812,-0.0234375,0.0546875,0.046875,0.02148438,0,-0.00793457,-0.003540039,0.2114258,0,0,-0.03308105,0.3105164,4.056,0,0,0,0.2999878,nan,2,11.204,1,128,0.3196106,0.2806702,0.3160095,0.3258057,0.01269531,-0.01757812,0,1,3,0
4154.878,0.001014,0.02539062,0.06640625,-0.05859375,1.421875,-1.09375,10.46875,-0.02539062,0.005859375,-0.03125,0.04882812,0.0234375,0,-0.008056641,-0.00378418,0.2115479,0,0,-0.03308105,0.3105164,4.056,0,0,0,0.2999878,nan,2,11.214,1,128,0.2105713,0.3663635,0.2199707,0.4451904,0.01269531,-0.01660156,0,1,3,0
4154.888,0.001016,0.046875,0.05664062,-0.08203125,-1.40625,-2.15625,8.507812,0.0234375,0.03515625,-0.09179688,0.04882812,0.02148438,0,-0.008056641,-0.003662109,0.2108154,0,0,-0.03308105,0.3105164,4.056,0,0,0,0.2999878,nan,2,11.224,1,128,0.2314148,0.3447876,0.2554626,0.4104614,0.01269531,-0.01660156,0,1,3,0
4154.899,0.001073,0.1074219,-0.046875,-0.07617188,-1.226562,3.671875,12.30469,0.02539062,-0.015625,-0.0625,0.046875,0.02148438,0,-0.0078125,-0.003540039,0.210083,0,0,-0.03308105,0.3105164,4.056,0,0,0,0.2999878,nan,2,11.234,1,128,0.3072205,0.2924194,0.305542,0.3369446,0.01269531,-0.01660156,0,1,3,0
4154.909,0.000975,-0.02148438,0,-0.05078125,1.609375,0.1875,7.070312,0,0.0078125,-0.04492188,0.046875,0.02148438,0,-0.00769043,-0.003540039,0.2095947,0,0,-0.03308105,0.3105164,4.056,0,0,0,0.2999878,nan,2,11.244,1,128,0.3092346,0.2780151,0.308075,0.3467712,0.01269531,-0.01660156,0,1,3,0
4154.919,0.001002,-0.03710938,-0.07226562,-0.046875,0.8046875,-1.976562,10.95312,-0.009765625,-0.01171875,-0.03515625,0.046875,0.02148438,0,-0.0078125,-0.003417969,0.2092285,0,0,-0.03308105,0.3105164,4.056,0,0,0,0.2999878,nan,2,11.254,1,128,0.3057556,0.2944641,0.2912903,0.3505554,0.01269531,-0.01660156,0,1,3,0
4154.929,0.001036,-0.078125,-0.07226562,-0.005859375,-0.5,2.140625,9.203125,-0.04492188,-0.01367188,-0.00390625,0.046875,0.02148438,0,-0.0078125,-0.003417969,0.2089844,0,0,-0.03308105,0.3105164,4.056,0,0,0,0.2999878,nan,2,11.265,1,128,0.3471069,0.2514343,0.3172607,0.3262939,0.01269531,-0.01660156,0,1,3,0.2539683
4154.939,0.001005,-0.0625,-0.0546875,-0.0390625,1.679688,0.53125,6.859375,-0.04101562,-0.02734375,-0.0234375,0.04882812,0.02148438,0,-0.008056641,-0.003540039,0.2088623,0,0,-0.03308105,0.3105164,4.056,0,0,0,0.2999878,nan,2,11.275,1,128,0.2961731,0.3027649,0.2743835,0.3687744,0.01269531,-0.01660156,0,1,3,0
4154.948,0.001049,0.05273438,0.01367188,-0.0859375,-1.539062,1.390625,10.49219,-0.03710938,0,-0.05859375,0.05078125,0.02148438,0,-0.008666992,-0.00378418,0.2084961,0,0,-0.03308105,0.3105164,4.056,0,0,0,0.2999878,nan,2,11.284,1,128,0.2484131,0.3362122,0.2568665,0.4006042,0.01269531,-0.01660156,0,1,3,0
4154.958,0.001007,0.05078125,0.02929688,0.03710938,-0.3359375,-0.7890625,7.140625,-0.001953125,0.01953125,-0.0078125,0.05273438,0.02148438,0,-0.008666992,-0.003662109,0.2081299,0,0,-0.03308105,0.3105164,4.056,0,0,0,0.2999878,nan,2,11.294,1,128,0.361908,0.2180786,0.375885,0.2862549,0.01269531,-0.01660156,0,1,3,0
4154.968,0.001008,0.001953125,0.0703125,-0.015625,2.28125,-0.7734375,7.421875,0.02539062,0.0234375,-0.001953125,0.05078125,0.02148438,0,-0.008422852,-0.003662109,0.2081299,0,0,-0.03308105,0.3105164,4.056,0,0,0,0.2999878,nan,2,11.304,1,128,0.2926941,0.2869263,0.3083801,0.354126,0.01269531,-0.01660156,0,1,3,0
4154.978,0.001008,-0.06640625,-0.06445312,0.06445312,-2.382812,2.632812,12.49219,-0.04101562,-0.0234375,0.046875,0.05078125,0.02148438,0,-0.008422852,-0.003662109,0.208374,0,0,-0.03308105,0.3105164,4.056,0,0,0,0.2999878,nan,2,11.314,1,128,0.3858032,0.2150269,0.3521118,0.2891846,0.01367188,-0.01660156,0,1,3,0
4154.988,0.001005,0.1054688,-0.02929688,0.01171875,1.140625,-0.453125,7.945312,0.015625,-0.01757812,0.04101562,0.05078125,0.02148438,0,-0.008666992,-0.003662109,0.2089844,0,0,-0.03308105,0.3096924,4.056,0,0,0,0.2990112,nan,2,11.324,1,128,0.3078003,0.2877197,0.311554,0.3316956,0.01367188,-0.01660156,0,1,3,0
4154.998,0.001005,-0.03125,0.08007812,0.0390625,-1.359375,0.6640625,8.632812,0.01171875,0.009765625,0.04296875,0.05078125,0.02148438,0,-0.008544922,-0.003662109,0.2092285,0,0,-0.03308105,0.3080139,4.056,0,0,0,0.2969971,nan,2,11.334,1,128,0.3221741,0.2554626,0.3309326,0.3233948,0.01367188,-0.01660156,0,1,3,0
4155.009,0.001005,-0.03515625,0,0.06835938,0.640625,-0.03125,8.460938,-0.005859375,0.001953125,0.06835938,0.05078125,0.02148438,0,-0.008544922,-0.003662109,0.2098389,0,0,-0.03308105,0.3063049,4.056,0,0,0,0.2949829,nan,2,11.344,1,128,0.3460693,0.2355957,0.341217,0.3023987,0.01367188,-0.01660156,0,1,3,0
4155.019,0.001005,-0.0390625,-0.01953125,0.03125,1.023438,-1.132812,8.976562,0.001953125,-0.01171875,0.05078125,0.05078125,0.02148438,0,-0.008422852,-0.003662109,0.2105713,0,0,-0.03308105,0.3046265,4.056,0,0,0,0.2930298,nan,2,11.354,1,128,0.2953491,0.2865601,0.2855835,0.3510132,0.01367188,-0.01660156,0,1,3,0
4155.029,0.001005,-0.02148438,-0.05664062,0.00390625,-1.460938,0.734375,10.99219,-0.015625,-0.03515625,0.0078125,0.05078125,0.0234375,0,-0.008544922,-0.00390625,0.2108154,0,0,-0.03308105,0.302948,4.056,0,0,0,0.2910156,nan,2,11.365,1,128,0.2790222,0.306427,0.2602234,0.3661194,0.01367188,-0.01660156,0,1,3,0
4155.039,0.001005,-0.1054688,-0.0546875,-0.09179688,2.195312,-0.421875,7.570312,-0.06054688,-0.03320312,-0.07421875,0.05273438,0.02539062,0,-0.008666992,-0.00402832,0.2104492,0,0,-0.03308105,0.3012695,4.056,0,0,0,0.2890015,nan,2,11.375,1,128,0.2250671,0.3579712,0.1889343,0.4330444,0.01367188,-0.01660156,0,1,3,0
4155.048,0.001013,-0.01171875,0.06835938,-0.1074219,-0.0078125,-2.210938,5.101562,0.0234375,0.01953125,-0.09960938,0.05273438,0.02539062,0,-0.008789062,-0.004150391,0.2095947,0,0,-0.03308105,0.2997437,4.056,0,0,0,0.2871704,nan,2,11.384,1,128,0.2266846,0.3293152,0.2491455,0.3938293,0.01367188,-0.01660156,0,1,3,0
4155.058,0.001014,0,0.04882812,0.01367188,-2.34375,2.367188,11.54688,0.03125,-0.001953125,-0.01953125,0.05078125,0.02539062,0,-0.008544922,-0.004272461,0.2089844,0,0,-0.03308105,0.2978821,4.056,0,0,0,0.2849731,nan,2,11.394,1,128,0.3608704,0.200592,0.3691101,0.2610168,0.01367188,-0.01660156,0,1,3,0
4155.068,0.001024,-0.05859375,-0.02148438,0.05859375,-0.0390625,0.71875,10.07031,-0.03320312,-0.015625,0.0390625,0.05078125,0.02539062,0,-0.008666992,-0.004272461,0.2092285,0,0,-0.03308105,0.2962036,4.056,0,0,0,0.28302,nan,2,11.404,1,128,0.3726807,0.1978149,0.3425293,0.2718201,0.01367188,-0.01660156,0,1,3,0.3174603
4155.079,0.000973,0.0078125,-0.01757812,0.1328125,1.078125,-3.5,8.09375,0.00390625,0.001953125,0.109375,0.05273438,0.02539062,0,-0.008666992,-0.004272461,0.2099609,0,0,-0.03308105,0.2945251,4.056,0,0,0,0.2810059,nan,2,11.414,1,128,0.3934937,0.1664734,0.3898315,0.228302,0.01367188,-0.01660156,0,1,3,0
4155.089,0.001035,-0.01367188,0.01171875,0.1347656,-0.921875,1.085938,9.226562,0,-0.0078125,0.1367188,0.05273438,0.02539062,0,-0.008666992,-0.004272461,0.2113037,0,0,-0.03308105,0.2928467,4.056,0,0,0,0.2789917,nan,2,11.424,1,128,0.3596802,0.1993408,0.3516235,0.2607117,0.01367188,-0.01660156,0,1,3,0.03174603
4155.099,0.001013,0.01757812,0.04882812,0.06835938,-0.1015625,-1.414062,9.265625,0.01757812,0.015625,0.09570312,0.05078125,0.02539062,0,-0.008666992,-0.004150391,0.2124023,0,0,-0.03308105,0.2911682,4.057,0,0,0,0.2769775,nan,2,11.434,1,128,0.2721558,0.2717285,0.2858887,0.3348694,0.01367188,-0.01660156,0,1,3,0.1111111
4155.109,0.001043,0.02148438,-0.009765625,0.09375,-0.2421875,3.46875,11.48438,0.009765625,-0.00390625,0.08007812,0.05273438,0.02539062,0,-0.008666992,-0.004272461,0.2132568,0,0,-0.03308105,0.2894592,4.057,0,0,0,0.2750244,nan,2,11.444,1,128,0.3100586,0.2392883,0.3081665,0.300415,0.01367188,-0.01660156,0,1,3,0
4155.119,0.001017,0.01171875,-0.0390625,-0.005859375,2.117188,-2.78125,11.14844,0.01757812,-0.009765625,0.02734375,0.05078125,0.02539062,0,-0.008544922,-0.004272461,0.2138672,0,0,-0.03308105,0.2877808,4.057,0,0,0,0.2730103,nan,2,11.454,1,128,0.2444763,0.3055115,0.2402039,0.3609619,0.01367188,-0.01660156,0,1,3,0
4155.128,0.001008,0.04492188,-0.046875,-0.08984375,-0.796875,2.875,11.15625,-0.01171875,-0.0234375,-0.0546875,0.05273438,0.02734375,0,-0.008789062,-0.004394531,0.213623,0,0,-0.03308105,0.2862854,4.057,0,0,0,0.2711792,nan,2,11.464,1,128,0.1943359,0.3574524,0.1761169,0.4172058,0.01367188,-0.01660156,0,1,3,0
4155.139,0.001013,0.02734375,0.08789062,-0.1894531,-1.515625,5.296875,13.04688,-0.03515625,0.009765625,-0.1582031,0.0546875,0.02734375,0,-0.009033203,-0.004760742,0.2124023,0,0,-0.03308105,0.2844238,4.057,0,0,0,0.2689819,nan,2,11.475,1,128,0.1480408,0.3770447,0.1543579,0.458252,0.01367188,-0.01660156,0,1,3,0
4155.148,0.000983,0.001953125,-0.03710938,-0.07421875,-0.3046875,1.867188,11.67969,-0.02148438,-0.01367188,-0.09570312,0.0546875,0.02929688,0,-0.009155273,-0.004760742,0.2113037,0,0,-0.03308105,0.2827454,4.057,0,0,0,0.2670288,nan,2,11.484,1,128,0.2972107,0.2428894,0.2844238,0.306427,0.01367188,-0.01660156,0,1,3,0
4155.158,0.001021,-0.02929688,-0.00390625,0,0.4375,-1.914062,6.3125,-0.02148438,0.009765625,-0.03320312,0.05664062,0.02734375,0,-0.009399414,-0.004516602,0.2105713,0,0,-0.03308105,0.2810669,4.057,0,0,0,0.2650146,nan,2,11.494,1,128,0.3489075,0.1868896,0.3374939,0.250946,0.01464844,-0.01660156,0,1,3,0
4155.168,0.000997,-0.08007812,0.01367188,-0.0390625,1.164062,-0.7890625,5.890625,-0.06054688,-0.001953125,-0.03710938,0.05859375,0.02734375,0,-0.009765625,-0.004516602,0.2103271,0,0,-0.03308105,0.2793579,4.057,0,0,0,0.2630005,nan,2,11.504,1,128,0.2730408,0.2570801,0.2488098,0.3385315,0.01464844,-0.01660156,0,1,3,0
4155.178,0.001005,-0.0546875,0.1074219,-0.04492188,0.8828125,-3.648438,11.23438,0.0078125,0.04296875,-0.04492188,0.05859375,0.02539062,0,-0.009765625,-0.004394531,0.2099609,0,0,-0.03308105,0.2776794,4.057,0,0,0,0.2609863,nan,2,11.514,1,128,0.2489929,0.258728,0.2607422,0.3422852,0.01464844,-0.01660156,0,1,3,0
4155.188,0.000998,-0.109375,-0.1035156,0.03125,-1.90625,1.695312,10.25781,-0.0390625,-0.02148438,0.001953125,0.05859375,0.02539062,0,-0.009765625,-0.004272461,0.2098389,0,0,-0.03308105,0.276001,4.057,0,0,0,0.2589722,nan,2,11.524,1,128,0.3269653,0.2093811,0.2859497,0.2817078,0.01464844,-0.01660156,0,1,3,0
4155.198,0.001005,-0.05664062,0.03710938,0.001953125,-0.859375,2.695312,11.39062,-0.01953125,-0.01367188,0.0234375,0.05859375,0.02734375,0,-0.009765625,-0.004638672,0.210083,0,0,-0.03308105,0.2743225,4.057,0,0,0,0.257019,nan,2,11.534,1,128,0.2858887,0.2296448,0.2708435,0.3109131,0.01464844,-0.01660156,0,1,3,0
4155.209,0.001005,0.0546875,-0.0078125,0.02929688,0.6796875,-1.765625,6.976562,0.01367188,0,0.01953125,0.05859375,0.02734375,0,-0.009765625,-0.004638672,0.2102051,0,0,-0.03308105,0.272644,4.057,0,0,0,0.2550049,nan,2,11.544,1,128,0.2814331,0.2349243,0.2821045,0.2920227,0.01464844,-0.01660156,0,1,3,0
4155.219,0.001005,0.04101562,0.01171875,0.07226562,1.289062,-3.171875,8.601562,-0.0078125,0.01171875,0.046875,0.05859375,0.02734375,0,-0.009765625,-0.004516602,0.2105713,0,0,-0.03308105,0.2709351,4.057,0,0,0,0.2529907,nan,2,11.554,1,128,0.3113098,0.1978455,0.3067627,0.2678528,0.01464844,-0.01660156,0,1,3,0
4155.229,0.001005,-0.00390625,-0.0078125,0.08203125,-1.867188,3.34375,11.33594,0.0234375,0.00390625,0.08007812,0.05859375,0.02539062,0,-0.009643555,-0.004394531,0.2113037,0,0,-0.03308105,0.2692566,4.057,0,0,0,0.2509766,nan,2,11.564,1,128,0.3259277,0.1861267,0.3221741,0.2427979,0.01464844,-0.01660156,0,1,3,0
4155.239,0.001005,-0.03515625,0.02539062,0.05859375,-0.6328125,-3.992188,10.76562,-0.009765625,-0.0078125,0.05859375,0.05664062,0.02734375,0,-0.009521484,-0.004394531,0.2119141,0,0,-0.03308105,0.2675781,4.057,0,0,0,0.2490234,nan,2,11.575,1,128,0.2744751,0.2341309,0.2597046,0.302002,0.01464844,-0.01660156,0,1,3,0
4155.248,0.001016,-0.01757812,0.03125,-0.1054688,0.8671875,-1.257812,7.53125,0.005859375,-0.01367188,-0.04492188,0.05859375,0.02734375,0,-0.009765625,-0.004516602,0.2120361,0,0,-0.03308105,0.2660522,4.057,0,0,0,0.2471924,nan,2,11.584,1,128,0.1415405,0.3633118,0.139679,0.4197083,0.01464844,-0.015625,0,1,3,0
4155.258,0.001015,-0.07617188,-0.05859375,-0.1386719,-3.460938,0.375,10.57031,0.005859375,-0.02539062,-0.1308594,0.05859375,0.02734375,0,-0.009765625,-0.004638672,0.2110596,0,0,-0.03308105,0.2642212,4.057,0,0,0,0.2449951,nan,2,11.594,1,128,0.1627502,0.3457642,0.1459351,0.4023743,0.01464844,-0.015625,0,1,3,0
4155.268,0.001064,0.01757812,-0.06054688,-0.04296875,-2.578125,2.070312,12.3125,0.015625,-0.03125,-0.07421875,0.05859375,0.02929688,0,-0.009887695,-0.004882812,0.2099609,0,0,-0.03308105,0.2625122,4.057,0,0,0,0.242981,nan,2,11.604,1,128,0.2993164,0.2066345,0.2924805,0.2516785,0.01464844,-0.015625,0,1,3,0
4155.278,0.001018,0.009765625,0.04882812,0.01367188,-2.914062,5.484375,13.34375,0.01171875,0.02148438,-0.01757812,0.05859375,0.02929688,0,-0.009887695,-0.005004883,0.2094727,0,0,-0.03308105,0.2608337,4.057,0,0,0,0.2410278,nan,2,11.614,1,128,0.3111877,0.1653442,0.3234558,0.2433777,0.01464844,-0.015625,0,1,3,0
4155.288,0.001016,0.1015625,0.009765625,0.03320312,-1.40625,-2.484375,11.29688,0.04101562,-0.0078125,0.03125,0.05859375,0.02929688,0,-0.009765625,-0.005004883,0.2095947,0,0,-0.03308105,0.2591553,4.057,0,0,0,0.2390137,nan,2,11.624,1,128,0.3029785,0.192749,0.3055725,0.235321,0.01464844,-0.015625,0,1,3,0
4155.299,0.001048,-0.01757812,0.015625,-0.00390625,2.054688,3.242188,8.046875,0.00390625,-0.001953125,0.00390625,0.05664062,0.03125,0,-0.009399414,-0.005126953,0.2098389,0,0,-0.03308105,0.2574768,4.057,0,0,0,0.2369995,nan,2,11.634,1,128,0.246582,0.2380066,0.2321167,0.3131714,0.01464844,-0.015625,0,1,3,0
4155.309,0.001052,0.08203125,-0.001953125,0.03320312,-0.0546875,-6.679688,9.304688,-0.01171875,-0.015625,0.02539062,0.05859375,0.03125,0,-0.009765625,-0.005126953,0.2099609,0,0,-0.03308105,0.2557983,4.057,0,0,0,0.2349854,nan,2,11.644,1,128,0.2891235,0.1976013,0.2835693,0.2528992,0.01464844,-0.015625,0,1,3,0
4155.318,0.000993,0.03320312,-0.01757812,-0.015625,-1.710938,4.328125,10.57031,0.015625,-0.02148438,-0.00390625,0.05859375,0.03125,0,-0.009643555,-0.005371094,0.2099609,0,0,-0.03308105,0.2542725,4.057,0,0,0,0.2332153,nan,2,11.653,1,128,0.2294006,0.255249,0.2238159,0.3085938,0.015625,-0.015625,0,1,3,0
4155.329,0.001013,0.001953125,-0.01171875,-0.005859375,-1.765625,0.6875,9.609375,0.005859375,-0.02539062,-0.0078125,0.05664062,0.03320312,0,-0.009521484,-0.005615234,0.2099609,0,0,-0.03308105,0.2524109,4.057,0,0,0,0.2310181,nan,2,11.664,1,128,0.2566833,0.2217407,0.2443237,0.2869263,0.015625,-0.015625,0,1,3,0.6984127
4155.339,0.001013,-0.0234375,0.02148438,-0.04882812,-2.53125,1.429688,10.98438,-0.01367188,0.01367188,-0.03320312,0.05664062,0.03320312,0,-0.009521484,-0.005737305,0.2097168,0,0,-0.03308105,0.2507324,4.057,0,0,0,0.2290039,nan,2,11.675,1,128,0.2160339,0.2490845,0.2090149,0.3287964,0.015625,-0.015625,0,1,3,0
4155.348,0.001007,-0.01367188,0.01953125,-0.08007812,-0.484375,2.320312,10.57812,-0.005859375,0.02539062,-0.06054688,0.05859375,0.03320312,0,-0.009643555,-0.005615234,0.2092285,0,0,-0.03308105,0.2492065,4.057,0,0,0,0.2271729,nan,2,11.684,1,128,0.2017212,0.2605896,0.2015381,0.3330688,0.015625,-0.015625,0,1,3,0
4155.358,0.001064,-0.01367188,-0.046875,-0.0234375,0.2734375,2.554688,13.17969,-0.02148438,-0.01953125,-0.0390625,0.05859375,0.03515625,0,-0.009765625,-0.005737305,0.2087402,0,0,-0.03308105,0.2473755,4.057,0,0,0,0.2249756,nan,2,11.694,1,128,0.2745361,0.1997375,0.2518311,0.2633362,0.015625,-0.015625,0,1,3,0
4155.368,0.001007,0.03515625,-0.04882812,-0.02929688,-0.2890625,2.984375,10.88281,0.03710938,-0.04296875,-0.03125,0.05859375,0.03710938,0,-0.009643555,-0.006225586,0.2084961,0,0,-0.03308105,0.245697,4.057,0,0,0,0.2230225,nan,2,11.704,1,128,0.2397461,0.2301025,0.2343445,0.2785034,0.015625,-0.015625,0,1,3,0
4155.378,0.000999,-0.08398438,0.02734375,0.04882812,0.7421875,2.132812,11.16406,-0.01953125,-0.009765625,0.03125,0.05664062,0.0390625,0,-0.009521484,-0.006591797,0.208374,0,0,-0.03308105,0.243988,4.057,0,0,0,0.2210083,nan,2,11.714,1,128,0.322876,0.1292114,0.3063049,0.2176208,0.015625,-0.015625,0,1,3,0
4155.388,0.001005,-0.05273438,0.0234375,0.05078125,1.570312,-1.359375,7.046875,-0.02929688,0.01367188,0.06054688,0.05859375,0.0390625,0,-0.009765625,-0.006469727,0.2089844,0,0,-0.03308105,0.2423096,4.057,0,0,0,0.2189941,nan,2,11.724,1,128,0.2831116,0.1694031,0.2716675,0.2450562,0.015625,-0.015625,0,1,3,0
4155.398,0.001005,0.04101562,0.05859375,0.01171875,1.648438,-2.53125,6.84375,-0.0078125,0.015625,0.015625,0.06054688,0.0390625,0,-0.01000977,-0.006469727,0.2093506,0,0,-0.03308105,0.2406311,4.057,0,0,0,0.21698,nan,2,11.734,1,128,0.2130737,0.2341919,0.2116394,0.3036499,0.015625,-0.015625,0,1,3,0
4155.409,0.001005,-0.03320312,0.02734375,0.0625,1.046875,-2.359375,7.3125,-0.009765625,0.009765625,0.04296875,0.06054688,0.0390625,0,-0.01000977,-0.006469727,0.2095947,0,0,-0.03308105,0.2389526,4.057,0,0,0,0.2150269,nan,2,11.744,1,128,0.2879028,0.1599426,0.2755127,0.2323914,0.015625,-0.015625,0,1,3,0
4155.419,0.001005,-0.009765625,-0.00390625,0.01757812,1.164062,0.171875,7.226562,-0.005859375,0.00390625,0.02929688,0.06054688,0.03710938,0,-0.01013184,-0.006347656,0.2099609,0,0,-0.03308105,0.2372742,4.057,0,0,0,0.2130127,nan,2,11.754,1,128,0.2364197,0.2106934,0.2226868,0.2792358,0.015625,-0.015625,0,1,3,0
4155.429,0.001005,-0.01757812,-0.02539062,0.001953125,0.5234375,-9.132812,12.69531,-0.015625,-0.009765625,0.005859375,0.06054688,0.03710938,0,-0.01013184,-0.006347656,0.2102051,0,0,-0.03308105,0.2355652,4.057,0,0,0,0.2109985,nan,2,11.764,1,128,0.2286682,0.2225952,0.2028503,0.2881775,0.015625,-0.015625,0,1,3,0
4155.438,0.001046,-0.001953125,-0.0234375,0.009765625,0.4296875,-1.5,7.65625,-0.01953125,-0.005859375,0.009765625,0.0625,0.03710938,0,-0.01037598,-0.006225586,0.2102051,0,0,-0.03308105,0.2340698,4.057,0,0,0,0.2092285,nan,2,11.774,1,128,0.2451477,0.2023926,0.2261353,0.2625732,0.015625,-0.015625,0,1,3,0
4155.448,0.001016,0.05664062,-0.08007812,-0.05273438,0.03125,-2.40625,8.476562,-0.001953125,-0.01367188,-0.015625,0.0625,0.03710938,0,-0.01049805,-0.006347656,0.2102051,0,0,-0.03308105,0.2323914,4.057,0,0,0,0.2072144,nan,2,11.784,1,128,0.1970215,0.2508545,0.1778259,0.303772,0.015625,-0.015625,0,1,3,0
4155.458,0.001027,-0.0703125,0.001953125,0.04296875,1.890625,-2.21875,5.484375,-0.01953125,0,0.005859375,0.0625,0.03710938,0,-0.01049805,-0.006225586,0.210083,0,0,-0.03308105,0.2305298,4.057,0,0,0,0.2050171,nan,2,11.794,1,128,0.2844238,0.1536865,0.2584229,0.2255554,0.015625,-0.015625,0,1,3,0
4155.468,0.000809,-0.046875,0.02929688,0.1015625,0.6328125,-9.648438,12.10156,0.01367188,-0.04101562,0.05078125,0.0625,0.0390625,0,-0.01049805,-0.006347656,0.2104492,0,0,-0.03308105,0.2288513,4.057,0,0,0,0.2030029,nan,2,11.804,1,128,0.2927551,0.1505432,0.2708435,0.2012024,0.015625,-0.01464844,0,1,3,0
4155.478,0.00101,0.009765625,-0.04296875,0.04882812,2.523438,-4.820312,7.335938,-0.005859375,-0.04296875,0.046875,0.06445312,0.0390625,0,-0.01062012,-0.006591797,0.2110596,0,0,-0.03308105,0.2271423,4.057,0,0,0,0.2009888,nan,2,11.814,1,128,0.2441406,0.1972656,0.2192383,0.2479858,0.01660156,-0.01464844,0,1,3,0
4155.488,0.001013,0.09375,-0.04296875,-0.02929688,1.546875,-3.140625,7.664062,0.015625,-0.03125,-0.01367188,0.06445312,0.04101562,0,-0.01074219,-0.006958008,0.2111816,0,0,-0.03308105,0.2254639,4.057,0,0,0,0.1989746,nan,2,11.824,1,128,0.1644592,0.2651062,0.1581116,0.314209,0.01660156,-0.01464844,0,1,3,0
4155.498,0.001013,0.0078125,0.00390625,-0.0234375,1.59375,-3.828125,5.507812,0.005859375,-0.005859375,-0.02734375,0.0625,0.04296875,0,-0.01062012,-0.007080078,0.2109375,0,0,-0.03308105,0.2237854,4.057,0,0,0,0.1970215,nan,2,11.834,1,128,0.2163086,0.2042847,0.2026367,0.2719421,0.01660156,-0.01464844,0,1,3,0
4155.509,0.001013,0.08789062,-0.06445312,-0.09375,2.304688,4.289062,9.921875,0.03125,-0.0078125,-0.06054688,0.06445312,0.04296875,0,-0.01062012,-0.007202148,0.2105713,0,0,-0.03308105,0.2221069,4.057,0,0,0,0.1950073,nan,2,11.844,1,128,0.1694336,0.2535706,0.1669006,0.2984924,0.01660156,-0.01464844,0,1,3,0
4155.519,0.001013,-0.00390625,-0.015625,-0.046875,-2.3125,2.828125,13.83594,-0.005859375,-0.0078125,-0.05078125,0.0625,0.04492188,0,-0.01037598,-0.007324219,0.2099609,0,0,-0.03308105,0.2204285,4.057,0,0,0,0.1929932,nan,2,11.854,1,128,0.2216797,0.1913757,0.2002258,0.2684326,0.01660156,-0.01464844,0,1,3,0
4155.529,0.001013,-0.06445312,0.03515625,0.015625,0.359375,-7.671875,6.632812,-0.03710938,0,-0.02148438,0.06445312,0.04492188,0,-0.01062012,-0.007324219,0.2094727,0,0,-0.03308105,0.21875,4.057,0,0,0,0.190979,nan,2,11.864,1,128,0.2728882,0.1402283,0.2442627,0.2175903,0.01660156,-0.01464844,0,1,3,0.2857143
4155.539,0.001013,-0.04296875,-0.005859375,0.03320312,2.804688,-0.4296875,9.914062,-0.009765625,-0.01367188,0.01757812,0.06445312,0.04492188,0,-0.01074219,-0.007446289,0.2095947,0,0,-0.03308105,0.217041,4.057,0,0,0,0.1890259,nan,2,11.875,1,128,0.2680969,0.1454468,0.2427063,0.2119446,0.01660156,-0.01464844,0,1,3,0
4155.549,0.001013,0.03710938,-0.03710938,0.01367188,-0.484375,5.96875,12.70312,-0.005859375,-0.0234375,-0.005859375,0.06445312,0.04492188,0,-0.01086426,-0.007568359,0.2095947,0,0,-0.03308105,0.2153625,4.057,0,0,0,0.1870117,nan,2,11.885,1,128,0.2123108,0.2017517,0.1913452,0.2561035,0.01660156,-0.01464844,0,1,3,0
4155.558,0.001005,0.03710938,0,0.01367188,-1.898438,5.835938,15.41406,0.001953125,-0.005859375,0.015625,0.06640625,0.046875,0,-0.01098633,-0.00769043,0.2097168,0,0,-0.03308105,0.2136841,4.057,0,0,0,0.1849976,nan,2,11.894,1,128,0.2372131,0.1655884,0.2262878,0.2256165,0.01660156,-0.01464844,0,1,3,0
4155.568,0.001007,0.046875,-0.03125,-0.03515625,-1.09375,9.953125,14.61719,0.01171875,0.01757812,-0.01367188,0.06640625,0.04492188,0,-0.01098633,-0.007446289,0.2097168,0,0,-0.03308105,0.2120056,4.057,0,0,0,0.1829834,nan,2,11.904,1,128,0.1789856,0.223053,0.1688232,0.2771301,0.01660156,-0.01464844,0,1,3,0
4155.578,0.001009,0.08007812,-0.015625,-0.0625,0.65625,-3.632812,5.992188,0.0234375,0.01757812,-0.0546875,0.06640625,0.04492188,0,-0.01098633,-0.007324219,0.2093506,0,0,-0.03308105,0.2103271,4.057,0,0,0,0.1809692,nan,2,11.914,1,128,0.1549377,0.2355652,0.1564941,0.2942505,0.01660156,-0.01464844,0,1,3,0
4155.588,0.001002,0.02929688,0.03515625,-0.03515625,3.554688,5.445312,11.14062,0.02148438,0.01757812,-0.04101562,0.06445312,0.04296875,0,-0.01086426,-0.007202148,0.2088623,0,0,-0.03308105,0.2086182,4.057,0,0,0,0.1790161,nan,2,11.924,1,128,0.2165527,0.1729126,0.2097473,0.2352905,0.01660156,-0.01464844,0,1,3,0
4155.598,0.000984,-0.01757812,-0.06640625,-0.09179688,-1.671875,-0.6875,11.59375,0.001953125,-0.0078125,-0.05078125,0.06445312,0.04101562,0,-0.01074219,-0.006958008,0.208374,0,0,-0.03308105,0.2069397,4.057,0,0,0,0.177002,nan,2,11.934,1,128,0.1916504,0.2124329,0.1593933,0.2642822,0.01660156,-0.01464844,0,1,3,0
4155.608,0.00099,0.02734375,-0.06835938,-0.01953125,2.601562,-8.46875,6.953125,0.02148438,-0.03125,-0.07226562,0.06445312,0.04101562,0,-0.01086426,-0.006958008,0.2076416,0,0,-0.03308105,0.2052612,4.057,0,0,0,0.1749878,nan,2,11.944,1,128,0.20755,0.1962585,0.1824036,0.2348328,0.01660156,-0.01464844,0,1,3,0
4155.619,0.001049,-0.02148438,0.015625,-0.05664062,-0.8984375,-0.4375,12.85156,-0.005859375,0.009765625,-0.05273438,0.06445312,0.04296875,0,-0.01086426,-0.007080078,0.2070312,0,0,-0.03308105,0.2035828,4.057,0,0,0,0.1729736,nan,2,11.954,1,128,0.2001648,0.1781921,0.1827087,0.2532349,0.01757812,-0.01464844,0,1,3,0
4155.628,0.000996,0.06835938,0.1386719,0.01757812,-1.039062,-0.109375,5.867188,0.005859375,0.09570312,-0.00390625,0.06640625,0.04101562,0,-0.01098633,-0.006713867,0.2067871,0,0,-0.03308105,0.2020569,4.057,0,0,0,0.1712036,nan,2,11.964,1,128,0.234314,0.1085205,0.2641907,0.2012024,0.01757812,-0.01464844,0,1,3,0
4155.639,0.000947,0.015625,-0.0234375,0.00390625,-0.75,2.09375,11.42969,0.02148438,0,0.001953125,0.06445312,0.0390625,0,-0.01086426,-0.006591797,0.2067871,0,0,-0.03308105,0.2001953,4.057,0,0,0,0.1690063,nan,2,11.975,1,128,0.2145996,0.1666565,0.1980896,0.2214966,0.01757812,-0.01464844,0,1,3,0
4155.648,0.000978,0.1582031,-0.0078125,-0.0078125,-2.8125,-2.398438,11.24219,0.04296875,-0.005859375,0.00390625,0.06445312,0.0390625,0,-0.01086426,-0.006591797,0.2067871,0,0,-0.03308105,0.1987,4.057,0,0,0,0.1671753,nan,2,11.984,1,128,0.2017822,0.174408,0.2030029,0.2156067,0.01757812,-0.01464844,0,1,3,0
4155.658,0.00094,0.1210938,-0.08203125,-0.01757812,3.195312,-8.132812,7.757812,0.1015625,-0.0546875,-0.02148438,0.06054688,0.04101562,0,-0.01000977,-0.006835938,0.206665,0,0,-0.03308105,0.1968384,4.057,0,0,0,0.164978,nan,2,11.994,1,128,0.1872559,0.2016296,0.1761475,0.2223206,0.01757812,-0.01464844,0,1,3,0
4155.668,0.000961,-0.0234375,0.02929688,-0.0546875,-1.898438,3.851562,12.55469,-0.01757812,0.00390625,-0.04101562,0.06054688,0.04296875,0,-0.009887695,-0.007080078,0.2064209,0,0,-0.03308105,0.1951599,4.057,0,0,0,0.1630249,nan,2,12.004,1,128,0.1601562,0.1981201,0.1383667,0.2839966,0.01757812,-0.01464844,0,1,3,0
4155.678,0.001037,-0.01953125,0.015625,-0.0703125,1.554688,-7.679688,7.226562,-0.0234375,-0.0078125,-0.0390625,0.06054688,0.04296875,0,-0.01013184,-0.007202148,0.2061768,0,0,-0.03308105,0.1934814,4.057,0,0,0,0.1610107,nan,2,12.014,1,128,0.1653748,0.197876,0.1395874,0.2710571,0.01757812,-0.01367188,0,1,3,0
4155.689,0.00094,-0.07421875,0.0390625,-0.05078125,1.328125,7.804688,17.64062,-0.06640625,0.015625,-0.04492188,0.0625,0.04296875,0,-0.01037598,-0.007080078,0.2056885,0,0,-0.03308105,0.1917725,4.057,0,0,0,0.1589966,nan,2,12.024,1,128,0.1959534,0.1571655,0.1620789,0.2519531,0.01757812,-0.01367188,0,1,3,0
4155.698,0.001013,-0.03515625,-0.001953125,-0.07617188,3,3.125,7.1875,-0.02929688,-0.0078125,-0.0546875,0.06445312,0.04101562,0,-0.01074219,-0.006958008,0.2052002,0,0,-0.03308105,0.190094,4.057,0,0,0,0.1569824,nan,2,12.034,1,128,0.183075,0.1801758,0.1536865,0.2434692,0.01757812,-0.01367188,0,1,3,0
4155.708,0.001013,-0.03125,-0.06054688,-0.03710938,-2.039062,4.703125,13.34375,0.0078125,0,-0.02539062,0.06445312,0.04101562,0,-0.01062012,-0.006835938,0.2047119,0,0,-0.03308105,0.1884155,4.057,0,0,0,0.1549683,nan,2,12.044,1,128,0.2135925,0.1469116,0.1859741,0.2072144,0.01757812,-0.01367188,0,1,3,0
4155.719,0.001013,-0.078125,-0.01757812,-0.0078125,0.46875,2.65625,11.57812,-0.02929688,0.00390625,-0.02929688,0.06445312,0.04101562,0,-0.01074219,-0.006835938,0.2043457,0,0,-0.03308105,0.1867371,4.057,0,0,0,0.1530151,nan,2,12.054,1,128,0.2122803,0.1401062,0.1793213,0.21521,0.01757812,-0.01367188,0,1,3,0
4155.729,0.0009869999,-0.03710938,-0.03515625,0.0390625,1.75,-0.5859375,4.84375,0.01367188,0,0.02929688,0.06640625,0.04101562,0,-0.0111084,-0.006835938,0.2044678,0,0,-0.03308105,0.1850586,4.057,0,0,0,0.151001,nan,2,12.064,1,128,0.2454224,0.1009216,0.2380676,0.1557922,0.01757812,-0.01367188,0,1,3,0
4155.739,0.001016,-0.01171875,-0.0390625,0.009765625,-0.6171875,4.078125,13.48438,-0.001953125,-0.009765625,0.01953125,0.06835938,0.04101562,0,-0.01123047,-0.006835938,0.2047119,0,0,-0.03308105,0.1833801,4.057,0,0,0,0.1489868,nan,2,12.075,1,128,0.184967,0.1625061,0.158905,0.2270813,0.01757812,-0.01367188,0,1,3,0
4155.748,0.001007,0.01757812,-0.01953125,0.0078125,1.289062,-7.828125,4.476562,0,-0.01953125,0.009765625,0.06835938,0.04101562,0,-0.01135254,-0.006958008,0.204834,0,0,-0.03308105,0.1818542,4.074,0,0,0,0.1472168,nan,2,12.084,1,128,0.1919556,0.1569519,0.1633301,0.2151489,0.01757812,-0.01367188,0,1,3,0
4155.758,0.001007,0.046875,-0.0078125,0.07617188,-1.703125,2.265625,15.78125,0.015625,-0.005859375,0.06054688,0.06640625,0.04101562,0,-0.01123047,-0.006958008,0.2052002,0,0,-0.03308105,0.1799927,4.074,0,0,0,0.1450195,nan,2,12.094,1,128,0.2543945,0.08673096,0.2356567,0.1431885,0.01757812,-0.01367188,0,1,3,0
4155.768,0.001125,-0.03320312,0.08984375,0.07226562,2.929688,-4.09375,9.734375,0.01367188,0.05859375,0.04882812,0.06640625,0.0390625,0,-0.0111084,-0.006469727,0.2056885,0,0,-0.03308105,0.1783142,4.074,0,0,0,0.1430054,nan,2,12.104,1,128,0.2027283,0.1131592,0.2032471,0.1941528,0.01855469,-0.01367188,0,1,3,0
4155.778,0.001008,0,-0.01171875,0.01757812,-1.601562,6.78125,16.375,-0.01367188,0.02539062,0.02148438,0.06640625,0.03710938,0,-0.0111084,-0.006347656,0.2060547,0,0,-0.03308105,0.1766357,4.074,0,0,0,0.1409912,nan,2,12.114,1,128,0.1646729,0.161377,0.1424255,0.2380676,0.01855469,-0.01367188,0,1,3,0
4155.788,0.001011,-0.046875,-0.0703125,0.03125,2.1875,2.625,9.117188,-0.009765625,0.03125,0.02148438,0.06835938,0.03515625,0,-0.01123047,-0.005737305,0.2061768,0,0,0.2061768,0.1766357,4.074,0,0,0,0.1400146,nan,4,12.124,1,128,0.2118835,0.1628723,0.1803894,0.1513977,0,0,0,1,6,0.6666667
4155.798,0.001009,0.04101562,-0.07421875,-0.0390625,-2.078125,8.835938,15.25781,0.02539062,-0.04101562,-0.02734375,0.06835938,0.03515625,0,-0.01123047,-0.005981445,0.2061768,0,0,0.2061768,0.1783142,4.074,0,0,0,0.1400146,nan,4,12.134,1,128,0.1296082,0.2451172,0.1137085,0.2247925,0,0,0,1,6,0
4155.808,0.001009,-0.09765625,-0.03515625,-0.04882812,3.75,5.625,6.210938,-0.04492188,-0.06054688,-0.0234375,0.06640625,0.0390625,0,-0.0111084,-0.006469727,0.2061768,0,0,0.2061768,0.1799927,4.074,0,0,0,0.1400146,nan,4,12.144,1,128,0.1637268,0.2114563,0.1148376,0.22995,0,0,0,1,6,0
4155.819,0.001009,-0.06445312,0.06054688,-0.1328125,0.0078125,-0.03125,3.484375,-0.009765625,0.0078125,-0.1015625,0.06640625,0.04101562,0,-0.01123047,-0.006958008,0.2055664,0,0,0.2055664,0.1816711,4.074,0,0,0,0.1400146,nan,4,12.154,1,128,0.07067871,0.2797852,0.06729126,0.30896,0,0,0,1,6,0
4155.829,0.001009,0.046875,0.08398438,-0.06640625,-1.539062,2.070312,11.20312,0.01953125,0.015625,-0.109375,0.06835938,0.04101562,0,-0.01123047,-0.006835938,0.2043457,0,0,0.2043457,0.1833496,4.074,0,0,0,0.1400146,nan,4,12.164,1,128,0.1475525,0.2152405,0.1551514,0.2155151,0,0,0,1,6,0
4155.839,0.001009,-0.03515625,0.02929688,-0.05078125,-0.546875,-2.835938,5.492188,0.01171875,-0.0078125,-0.06054688,0.06640625,0.04296875,0,-0.01123047,-0.007080078,0.2036133,0,0,0.2036133,0.1850586,4.074,0,0,0,0.1400146,nan,4,12.175,1,128,0.2094421,0.1618042,0.2005005,0.1684265,0,0,0,1,6,0
4155.849,0.001009,-0.009765625,-0.06054688,-0.03710938,-2.414062,-4.5,4.296875,0.005859375,-0.01757812,-0.04882812,0.06835938,0.04101562,0,-0.01123047,-0.006958008,0.2030029,0,0,0.2030029,0.1867371,4.074,0,0,0,0.1400146,nan,4,12.185,1,128,0.2159424,0.1739197,0.1954651,0.1616211,0,0,0,1,6,0
4155.858,0.000988,-0.07421875,-0.04296875,-0.04492188,-0.5234375,1.96875,15.57031,-0.02929688,-0.04296875,-0.01171875,0.06835938,0.04296875,0,-0.01135254,-0.007080078,0.2027588,0,0,0.2027588,0.1882324,4.074,0,0,0,0.1400146,nan,4,12.194,1,128,0.2215881,0.1787109,0.1739197,0.178772,0.0009765625,0,0,1,6,0
4155.868,0.001015,0.05859375,0.03320312,-0.03125,1.546875,-7.648438,5.195312,-0.0078125,0.01367188,0.00390625,0.06835938,0.04296875,0,-0.01147461,-0.007324219,0.2028809,0,0,0.2028809,0.1899414,4.074,0,0,0,0.1400146,nan,4,12.204,1,128,0.190979,0.1839905,0.1910706,0.1936646,0.0009765625,0,0,1,6,0
4155.878,0.001016,-0.0859375,-0.02734375,-0.01367188,-0.125,-8.976562,1.453125,-0.03125,0.009765625,-0.01757812,0.0703125,0.04296875,0,-0.01159668,-0.007202148,0.2026367,0,0,0.2026367,0.1916199,4.074,0,0,0,0.1400146,nan,4,12.214,1,128,0.1917419,0.1939697,0.1661987,0.2145691,0.0009765625,0.0009765625,0,1,6,0
4155.888,0.000973,-0.05078125,-0.07226562,-0.03320312,-1.265625,3.921875,11.67188,0.0078125,-0.01367188,-0.01171875,0.06835938,0.04296875,0,-0.01135254,-0.007202148,0.2027588,0,0,0.2027588,0.1932983,4.074,0,0,0,0.1400146,nan,4,12.224,1,128,0.1747742,0.2275391,0.1426392,0.2282104,0.0009765625,0.0009765625,0,1,6,0
4155.899,0.001054,-0.01367188,-0.0234375,0.1015625,2.882812,2.890625,9.867188,0.00390625,0.00390625,0.06445312,0.06835938,0.04296875,0,-0.01123047,-0.007202148,0.2028809,0,0,0.2028809,0.1949768,4.074,0,0,0,0.1400146,nan,4,12.234,1,128,0.3106384,0.08789062,0.2905579,0.09082031,0.0009765625,0.0009765625,0,1,6,0
4155.908,0.001005,0.046875,-0.0546875,-0.02148438,-1.523438,0.4765625,8.820312,-0.005859375,-0.005859375,0.00390625,0.06835938,0.04296875,0,-0.01123047,-0.007080078,0.2032471,0,0,0.2032471,0.1966553,4.074,0,0,0,0.1400146,nan,4,12.244,1,128,0.1545105,0.250885,0.1316528,0.2495728,0.0009765625,0.0009765625,0,1,6,0
4155.919,0.001006,0.02929688,-0.0625,0.0859375,0.859375,0.890625,10.32812,0.001953125,-0.01953125,0.05859375,0.06640625,0.04296875,0,-0.01123047,-0.007202148,0.2034912,0,0,0.2034912,0.1983337,4.074,0,0,0,0.1400146,nan,4,12.254,1,128,0.2911072,0.1225281,0.2648315,0.1148682,0.0009765625,0.0009765625,0,1,6,0
4155.929,0.001005,0.05273438,-0.001953125,-0.001953125,-0.3515625,-9.671875,4.921875,0.02539062,-0.001953125,0.04882812,0.06640625,0.04296875,0,-0.0111084,-0.007202148,0.2042236,0,0,0.2042236,0.2000122,4.074,0,0,0,0.1400146,nan,4,12.264,1,128,0.1724548,0.2345886,0.1664429,0.226593,0.0009765625,0.0009765625,0,1,6,0
4155.939,0.000998,-0.07421875,0.03125,-0.09375,-1.695312,9.65625,14.75781,-0.01953125,0.01953125,-0.0703125,0.06640625,0.04296875,0,-0.0111084,-0.007202148,0.2041016,0,0,0.2041016,0.2017212,4.074,0,0,0,0.1400146,nan,4,12.275,1,128,0.09194946,0.3094482,0.07232666,0.3330994,0.0009765625,0.0009765625,0,1,6,0
4155.949,0.001005,0.0234375,-0.140625,0.05078125,2.265625,0.8203125,5.859375,0.009765625,-0.08203125,0.02929688,0.06640625,0.04492188,0,-0.01098633,-0.007446289,0.2038574,0,0,0.2038574,0.2033997,4.074,0,0,0,0.1400146,nan,4,12.285,1,128,0.3141479,0.1331787,0.2647095,0.101532,0.0009765625,0.0009765625,0,1,6,0
4155.958,0.001015,-0.07617188,0.02539062,-0.04882812,-1.171875,11.09375,14.125,-0.015625,0.009765625,-0.01171875,0.06445312,0.04492188,0,-0.01086426,-0.007568359,0.2039795,0,0,0.2039795,0.204895,4.074,0,0,0,0.1400146,nan,4,12.294,1,128,0.1706848,0.2357788,0.1486816,0.2644958,0.0009765625,0.0009765625,0,1,6,0
4155.968,0.001018,0.005859375,0.03320312,0.03320312,0.8984375,2.046875,1.710938,-0.01171875,-0.03125,-0.009765625,0.06640625,0.04492188,0,-0.01098633,-0.007568359,0.2036133,0,0,0.2036133,0.206604,4.074,0,0,0,0.1400146,nan,4,12.304,1,128,0.2584839,0.1730347,0.2285156,0.1663208,0.0009765625,0.0009765625,0,1,6,0
4155.978,0.00101,0,0.04882812,0.0078125,-1.445312,11.54688,11.57812,0.03515625,0.05859375,-0.001953125,0.06640625,0.04492188,0,-0.01098633,-0.007568359,0.2036133,0,0,0.2036133,0.2082825,4.074,0,0,0,0.1400146,nan,4,12.314,1,128,0.2145386,0.1833496,0.2360229,0.1991577,0.0009765625,0.0009765625,0,1,6,0
4155.988,0.001016,0.04882812,0.04882812,0.005859375,2.578125,2.640625,5.507812,0.03710938,0.04492188,0.00390625,0.06445312,0.04296875,0,-0.01074219,-0.006958008,0.2036133,0,0,0.2036133,0.2099609,4.074,0,0,0,0.1400146,nan,4,12.324,1,128,0.2155457,0.2025757,0.2178955,0.2038269,0.0009765625,0.0009765625,0,1,6,0
4155.998,0.001015,0.03320312,-0.046875,-0.03710938,-1.3125,10.46875,16.01562,-0.009765625,0.01367188,-0.02539062,0.06445312,0.0390625,0,-0.01074219,-0.006713867,0.2034912,0,0,0.2034912,0.2116394,4.074,0,0,0,0.1400146,nan,4,12.334,1,128,0.192688,0.2431641,0.1665955,0.2441406,0.0009765625,0.0009765625,0,1,6,0
4156.008,0.001015,-0.04882812,-0.07617188,-0.001953125,2.179688,-3.382812,3.6875,-0.0390625,-0.015625,-0.015625,0.06640625,0.04101562,0,-0.01098633,-0.006713867,0.203125,0,0,0.203125,0.2133179,4.074,0,0,0,0.1400146,nan,4,12.344,1,128,0.2605896,0.1844482,0.2207642,0.1875,0.001953125,0.0009765625,0,1,6,0
4156.019,0.001015,-0.005859375,-0.0078125,-0.02148438,-1.953125,5.328125,12.01562,0.01953125,-0.001953125,-0.02148438,0.06640625,0.0390625,0,-0.01098633,-0.006713867,0.2030029,0,0,0.2030029,0.2149963,4.074,0,0,0,0.1400146,nan,4,12.354,1,128,0.2163391,0.2237244,0.2018127,0.2181702,0.001953125,0.0009765625,0,1,6,0
4156.029,0.001015,-0.07226562,-0.01757812,0.015625,1.414062,-2.148438,5.757812,-0.02734375,-0.01953125,0.03515625,0.06640625,0.04101562,0,-0.0111084,-0.006713867,0.203125,0,0,0.203125,0.2167053,4.074,0,0,0,0.1400146,nan,4,12.364,1,128,0.2755127,0.1731873,0.2365112,0.1815491,0.001953125,0.0009765625,0,1,6,0
4156.039,0.001015,-0.005859375,0.04101562,0.06445312,-3.40625,8.546875,13.73438,-0.0234375,0.03320312,0.0234375,0.06835938,0.0390625,0,-0.01135254,-0.006469727,0.2032471,0,0,0.2032471,0.2183838,4.074,0,0,0,0.1400146,nan,4,12.375,1,128,0.2579346,0.177002,0.2461243,0.1924438,0.001953125,0.0009765625,0,1,6,0
4156.049,0.001015,-0.01953125,0.009765625,0.07617188,-0.4765625,-0.09375,6.25,-0.009765625,-0.01953125,0.09179688,0.06835938,0.0390625,0,-0.01147461,-0.006469727,0.2039795,0,0,0.2039795,0.2200623,4.074,0,0,0,0.1400146,nan,4,12.385,1,128,0.2896423,0.1634216,0.2623901,0.1647644,0.001953125,0.0009765625,0,1,6,0
4156.058,0.001011,0.005859375,-0.1152344,-0.04296875,0.8671875,1.320312,4.34375,0.015625,-0.0546875,-0.0234375,0.06835938,0.04101562,0,-0.01135254,-0.006713867,0.2043457,0,0,0.2043457,0.2215576,4.074,0,0,0,0.1400146,nan,4,12.394,1,128,0.132782,0.3380432,0.09802246,0.3174133,0.001953125,0.0009765625,0,1,6,0
4156.068,0.001047,0.0234375,-0.00390625,-0.03320312,0.7421875,-3.15625,5,0.015625,-0.02734375,-0.04296875,0.06835938,0.04296875,0,-0.01123047,-0.007202148,0.2038574,0,0,0.2038574,0.2232666,4.074,0,0,0,0.1400146,nan,4,12.404,1,128,0.2081909,0.2458496,0.1929932,0.2460022,0.001953125,0.0009765625,0,1,6,0
4156.078,0.001012,0.04492188,0.00390625,0.0234375,-2.8125,-2.820312,9.070312,0.02734375,-0.02148438,0.015625,0.06640625,0.04492188,0,-0.0111084,-0.007446289,0.2037354,0,0,0.2037354,0.2249451,4.074,0,0,0,0.1400146,nan,4,12.414,1,128,0.2798157,0.1769409,0.2690735,0.1739502,0.001953125,0.0009765625,0,1,6,0.04761905
4156.088,0.001012,-0.03710938,-0.001953125,0.001953125,1.257812,-6.75,7.898438,-0.00390625,0.03320312,0.0234375,0.06445312,0.04492188,0,-0.01074219,-0.007324219,0.2041016,0,0,0.2041016,0.2266235,4.074,0,0,0,0.1400146,nan,4,12.424,1,128,0.2344055,0.2128906,0.2134705,0.245697,0.001953125,0.0009765625,0,1,6,0
4156.098,0.000996,-0.0234375,0.001953125,0.08007812,2.296875,2.84375,11.08594,-0.01757812,-0.0078125,0.06445312,0.06445312,0.04492188,0,-0.01074219,-0.007324219,0.2044678,0,0,0.2043457,0,4.074,0,0,0,0.1400146,nan,4,12.434,0,0,0,0,0,0,0,0,0,1,6,0
4156.108,0.001005,-0.08398438,0.05859375,0.01367188,-0.9453125,4.125,18.34375,-0.01171875,0.01953125,0.0546875,0.06445312,0.04492188,0,-0.01062012,-0.007324219,0.2052002,0,0,0.2043457,0,4.074,0,0,0,0.1400146,nan,4,12.444,0,0,0,0,0,0,0,0,0,1,6,0
4156.118,0.001012,0.03710938,0.05078125,-0.0703125,3.976562,-1.53125,6.632812,0.0234375,0.01171875,-0.03125,0.06445312,0.04492188,0,-0.01062012,-0.007202148,0.2053223,0,0,0.2043457,0,4.074,0,0,0,0.1400146,nan,4,12.454,0,0,0,0,0,0,0,0,0,1,6,0
4156.128,0.00102,-0.0390625,0.06054688,-0.08203125,-2.164062,-0.953125,10.08594,-0.02539062,-0.00390625,-0.0703125,0.06445312,0.04492188,0,-0.01062012,-0.007324219,0.2047119,0,0,0.2043457,0,4.074,0,0,0,0.1400146,nan,4,12.464,0,0,0,0,0,0,0,0,0,1,6,1
4156.138,0.001005,0.02148438,0.0390625,-0.001953125,-0.3828125,2.007812,2.484375,0.009765625,-0.00390625,-0.03515625,0.06445312,0.04492188,0,-0.01086426,-0.007324219,0.2039795,0,0,0.2043457,0,4.074,0,0,0,0.1400146,nan,4,12.474,0,0,0,0,0,0,0,0,0,1,6,0
4156.149,0.001012,-0.005859375,0.005859375,-0.08007812,-2.875,-1.882812,9.15625,0,0.0078125,-0.046875,0.06445312,0.04492188,0,-0.01086426,-0.007080078,0.2037354,0,0,0.2043457,0,4.074,0,0,0,0.1400146,nan,4,12.485,0,0,0,0,0,0,0,0,0,1,6,1
4156.159,0.00102,0.0078125,0.03710938,-0.001953125,-1.085938,0.1875,9.375,0.03515625,-0.005859375,-0.02148438,0.06445312,0.04492188,0,-0.01086426,-0.007080078,0.2033691,0,0,0.2043457,0,4.074,0,0,0,0.1400146,nan,4,12.495,0,0,0,0,0,0,0,0,0,1,6,1
4156.169,0.001017,0.005859375,0.01367188,0.0390625,0.984375,-2.742188,7.570312,-0.009765625,0.01171875,0.02539062,0.06445312,0.04492188,0,-0.01086426,-0.007080078,0.2033691,0,0,0.2043457,0,4.074,0,0,0,0.1400146,nan,4,12.505,0,0,0,0,0,0,0,0,0,1,6,0
4156.179,0.001008,0.0234375,-0.02148438,-0.02148438,1.28125,-0.5625,3.898438,0.0078125,-0.00390625,-0.01367188,0.06445312,0.04492188,0,-0.01086426,-0.006958008,0.2034912,0,0,0.2043457,0,4.074,0,0,0,0.1400146,nan,4,12.515,0,0,0,0,0,0,0,0,0,1,6,0
4156.188,0.001004,-0.001953125,0.03125,0.01953125,-0.828125,-6.820312,9.125,0.0078125,0.0078125,0.005859375,0.06445312,0.04492188,0,-0.01086426,-0.006958008,0.2033691,0,0,0.2043457,0,4.074,0,0,0,0.1400146,nan,4,12.524,0,0,0,0,0,0,0,0,0,1,6,0
4156.198,0.001008,0.046875,0.01171875,-0.01171875,-2.359375,0.6015625,14.625,0.01757812,-0.001953125,0,0.06445312,0.04492188,0,-0.01074219,-0.006958008,0.2034912,0,0,0.2043457,0,4.074,0,0,0,0.1400146,nan,4,12.534,0,0,0,0,0,0,0,0,0,1,6,0
4156.208,0.001008,0.02539062,0.04296875,-0.0625,1.554688,-5.0625,11.25,0.01171875,0.02539062,-0.04101562,0.06445312,0.04492188,0,-0.01086426,-0.006958008,0.2032471,0,0,0.2043457,0,4.074,0,0,0,0.1400146,nan,4,12.544,0,0,0,0,0,0,0,0,0,1,6,0
4156.218,0.001008,-0.00390625,0.01367188,-0.01953125,1.257812,4.875,10.55469,-0.005859375,0.00390625,-0.03320312,0.06445312,0.04492188,0,-0.01086426,-0.006835938,0.2028809,0,0,0.2043457,0,4.074,0,0,0,0.1400146,nan,4,12.554,0,0,0,0,0,0,0,0,0,1,6,0
4156.228,0.001008,-0.01171875,-0.00390625,-0.001953125,-0.3203125,3.4375,14.16406,-0.01171875,0.01171875,-0.005859375,0.06445312,0.04492188,0,-0.01098633,-0.006713867,0.2026367,0,0,0.2043457,0,4.074,0,0,0,0.1400146,nan,4,12.564,0,0,0,0,0,0,0,0,0,1,6,0
4156.238,0.001008,-0.01171875,-0.02148438,0.005859375,-0.9140625,1.476562,12.32031,-0.015625,0.00390625,0.0078125,0.06445312,0.04492188,0,-0.0111084,-0.006591797,0.2026367,0,0,0.2043457,0,4.074,0,0,0,0.1400146,nan,4,12.574,0,0,0,0,0,0,0,0,0,1,6,0
4156.249,0.001005,-0.0234375,-0.015625,-0.01757812,0.8046875,0.2421875,5.28125,-0.009765625,-0.00390625,-0.0078125,0.06445312,0.04492188,0,-0.0111084,-0.006591797,0.2026367,0,0,0.2043457,0,4.074,0,0,0,0.1400146,nan,4,12.585,0,0,0,0,0,0,0,0,0,1,6,0
4156.259,0.001005,-0.005859375,-0.00390625,-0.04101562,0.21875,2.390625,8.757812,-0.0078125,0.009765625,-0.03515625,0.06445312,0.04492188,0,-0.0111084,-0.006591797,0.2025146,0,0,0.2043457,0,4.074,0,0,0,0.1400146,nan,4,12.595,0,0,0,0,0,0,0,0,0,1,6,1
4156.269,0.000998,0.02734375,0.005859375,-0.01953125,-1.195312,-1.789062,6.179688,0.0078125,-0.00390625,-0.03125,0.06445312,0.04492188,0,-0.0111084,-0.006469727,0.2020264,0,0,0.2043457,0,4.074,0,0,0,0.1400146,nan,4,12.605,0,0,0,0,0,0,0,0,0,1,6,0
4156.279,0.00103,-0.01953125,-0.009765625,0.03125,0.34375,-2.007812,11.34375,-0.001953125,0.005859375,0.01953125,0.06445312,0.04492188,0,-0.01098633,-0.006469727,0.2020264,0,0,0.2043457,0,4.074,0,0,0,0.1400146,nan,4,12.615,0,0,0,0,0,0,0,0,0,1,6,0
4156.288,0.001003,-0.02929688,0.001953125,-0.03710938,0.2109375,0.4296875,10.14062,-0.01171875,-0.00390625,-0.015625,0.06445312,0.04492188,0,-0.01098633,-0.006469727,0.2021484,0,0,0.2043457,0,4.074,0,0,0,0.1400146,nan,4,12.624,0,0,0,0,0,0,0,0,0,1,6,1
4156.298,0.00101,-0.015625,0.0390625,-0.07421875,-0.2578125,-0.1875,9.867188,0,0.01171875,-0.06054688,0.06445312,0.04492188,0,-0.01098633,-0.006469727,0.2016602,0,0,0.2043457,0,4.074,0,0,0,0.1400146,nan,4,12.634,0,0,0,0,0,0,0,0,0,1,6,1
4156.308,0.001016,-0.00390625,0.046875,-0.0078125,0.3671875,-0.1015625,9.539062,-0.005859375,-0.005859375,-0.02929688,0.06445312,0.04492188,0,-0.01086426,-0.006469727,0.2011719,0,0,0.2043457,0,4.074,0,0,0,0.1400146,nan,4,12.644,0,0,0,0,0,0,0,0,0,1,6,1
4156.318,0.00101,-0.01367188,0.015625,0,0.1328125,-0.75,9.789062,-0.01171875,0.001953125,-0.00390625,0.06445312,0.04492188,0,-0.01086426,-0.006469727,0.2010498,0,0,0.2043457,0,4.074,0,0,0,0.1400146,nan,4,12.654,0,0,0,0,0,0,0,0,0,1,6,1
4156.328,0.001004,0.01953125,0.02539062,-0.05078125,0.0546875,0.859375,9.117188,0.01953125,0.001953125,-0.02734375,0.06445312,0.04492188,0,-0.01074219,-0.006469727,0.2009277,0,0,0.2043457,0,4.074,0,0,0,0.1400146,nan,4,12.664,0,0,0,0,0,0,0,0,0,1,6,1
4156.338,0.001019,-0.01757812,0.06054688,-0.03125,0.5703125,-1.296875,10.35156,-0.00390625,0.01367188,-0.04492188,0.06445312,0.04492188,0,-0.01074219,-0.006469727,0.2005615,0,0,0.2043457,0,4.074,0,0,0,0.1400146,nan,4,12.674,0,0,0,0,0,0,0,0,0,1,6,1
4156.349,0.00101,0.0078125,-0.005859375,0.02734375,-0.1875,1.539062,9.953125,0.001953125,0.00390625,0.009765625,0.06445312,0.04492188,0,-0.01074219,-0.006347656,0.2003174,0,0,0.2043457,0,4.074,0,0,0,0.1400146,nan,4,12.685,0,0,0,0,0,0,0,0,0,1,6,1
4156.359,0.00101,-0.005859375,0.03125,0.04492188,-0.09375,-1.429688,8.625,-0.0078125,0.0078125,0.04101562,0.06445312,0.04492188,0,-0.01074219,-0.006347656,0.2006836,0,0,0.2043457,0,4.074,0,0,0,0.1400146,nan,4,12.695,0,0,0,0,0,0,0,0,0,1,6,0
4156.369,0.001013,-0.01757812,0.03320312,0.04492188,0.9453125,-1.914062,11.17969,0,0.0078125,0.04101562,0.06445312,0.04492188,0,-0.01074219,-0.006347656,0.2010498,0,0,0.2043457,0,4.074,0,0,0,0.1400146,nan,4,12.705,0,0,0,0,0,0,0,0,0,1,6,0
4156.379,0.001012,-0.005859375,0.01757812,-0.015625,0.84375,0.9921875,14.78906,-0.015625,-0.0078125,0.0078125,0.06445312,0.04492188,0,-0.01074219,-0.006469727,0.2012939,0,0,0.2043457,0,4.074,0,0,0,0.1400146,nan,4,12.715,0,0,0,0,0,0,0,0,0,1,6,0
4156.388,0.001002,-0.02148438,-0.01757812,-0.05664062,-1.40625,-0.3515625,9.882812,-0.001953125,0.001953125,-0.03710938,0.06445312,0.04492188,0,-0.01074219,-0.006347656,0.2011719,0,0,0.2043457,0,4.074,0,0,0,0.1400146,nan,4,12.724,0,0,0,0,0,0,0,0,0,1,6,1
4156.398,0.000996,-0.00390625,0.00390625,-0.015625,0.8984375,-3.390625,15.59375,-0.00390625,0.001953125,-0.03710938,0.06445312,0.04492188,0,-0.01074219,-0.006347656,0.2006836,0,0,0.2043457,0,4.077,0,0,0,0.1400146,nan,4,12.734,0,0,0,0,0,0,0,0,0,1,6,0
4156.408,0.000966,0,0.02539062,-0.001953125,-0.9375,1.84375,13.40625,-0.0078125,0.00390625,0.001953125,0.06445312,0.04492188,0,-0.01074219,-0.006347656,0.2005615,0,0,0.2043457,0,4.077,0,0,0,0.1400146,nan,4,12.744,0,0,0,0,0,0,0,0,0,1,6,0
4156.418,0.0009869999,0,-0.015625,0.03125,-0.640625,-4.65625,14.125,0,-0.00390625,0.01757812,0.06445312,0.04492188,0,-0.01074219,-0.006347656,0.2006836,0,0,0.2043457,0,4.077,0,0,0,0.1400146,nan,4,12.754,0,0,0,0,0,0,0,0,0,1,6,0
4156.428,0.000977,0.005859375,-0.0078125,-0.01757812,-2.257812,2.59375,5.820312,-0.001953125,-0.00390625,0.00390625,0.06445312,0.04492188,0,-0.01074219,-0.006347656,0.2008057,0,0,0.2043457,0,4.077,0,0,0,0,nan,4,0.005,0,0,0,0,0,0,0,0,0,1,6,0
4156.439,0.000982,-0.001953125,0.015625,-0.01171875,4.710938,1.5,9.867188,0.00390625,0.00390625,-0.009765625,0.06445312,0.04492188,0,-0.01074219,-0.006347656,0.2008057,0,0,0.2043457,0,4.077,0,0,0,0,nan,4,0.015,0,0,0,0,0,0,0,0,0,1,6,0
4156.449,0.000998,-0.06640625,0.0234375,-0.001953125,-3.476562,-3.960938,8.3125,-0.0078125,0.001953125,-0.00390625,0.06445312,0.04492188,0,-0.01086426,-0.006225586,0.2006836,0,0,0.2043457,0,4.077,0,0,0,0,nan,4,0.025,0,0,0,0,0,0,0,0,0,1,6,1
4156.458,0.001017,-0.0546875,0.03710938,-0.001953125,-3.34375,-4.460938,9.398438,-0.01367188,0,-0.0078125,nan,nan,nan,-0.01098633,-0.006225586,0.2005615,nan,nan,nan,0,4.077,0,0,0,0,nan,2,0.007,0,0,0,0,0,0,0,0,0,1,6,0
4156.469,0.000998,-0.02929688,-0.00390625,0.01757812,0.3046875,-1.414062,9.65625,-0.01171875,0.009765625,0.005859375,nan,nan,nan,-0.01098633,-0.006103516,0.2005615,0,0,0.2005615,0,4.077,0,0,0,0,nan,2,0.018,0,0,0,0,0,0,0,0,0,1,2,1
4156.478,0.001037,0.005859375,0.005859375,0.00390625,-2.867188,-2.742188,10.88281,0.0078125,-0.005859375,0.005859375,nan,nan,nan,-0.01086426,-0.006103516,0.2006836,0,0,0.2006836,0,4.077,0,0,0,0,nan,2,0.027,0,0,0,0,0,0,0,0,0,1,2,0
4156.488,0.001011,-0.0078125,0.009765625,-0.02539062,-0.0625,0.28125,9.046875,-0.00390625,0.0078125,-0.01367188,nan,nan,nan,-0.01086426,-0.006103516,0.2005615,0,0,0.2005615,0,4.077,0,0,0,0,nan,2,0.037,0,0,0,0,0,0,0,0,0,1,2,1
4156.498,0.001024,-0.0234375,-0.01757812,0.01171875,0.375,-0.609375,8.664062,-0.00390625,0,0.001953125,nan,nan,nan,-0.01086426,-0.005981445,0.2005615,0,0,0.2005615,0,4.077,0,0,0,0,nan,2,0.047,0,0,0,0,0,0,0,0,0,1,2,0
4156.508,0.00101,-0.0078125,0,0.01367188,-1.890625,0.8984375,9.375,0,0,0.00390625,nan,nan,nan,-0.01086426,-0.005981445,0.2005615,0,0,0.2005615,0,4.077,0,0,0,0,nan,2,0.058,0,0,0,0,0,0,0,0,0,1,2,1
4156.518,0.00101,0.0234375,0.01953125,-0.02734375,-1,1.617188,10.125,-0.005859375,0.0078125,-0.00390625,nan,nan,nan,-0.01086426,-0.005859375,0.2005615,0,0,0.2005615,0,4.077,0,0,0,0,nan,2,0.068,0,0,0,0,0,0,0,0,0,1,2,1
4156.528,0.001017,-0.001953125,-0.00390625,-0.015625,-0.4296875,0.53125,9.84375,0.005859375,-0.005859375,-0.00390625,nan,nan,nan,-0.01074219,-0.005981445,0.2005615,0,0,0.2005615,0,4.077,0,0,0,0,nan,2,0.078,0,0,0,0,0,0,0,0,0,1,2,1
4156.539,0.001017,-0.078125,0.04882812,0.01757812,-0.7890625,-2.734375,10.70312,-0.015625,0.01171875,-0.001953125,nan,nan,nan,-0.01074219,-0.005981445,0.2005615,0,0,0.2005615,0,4.077,0,0,0,0,nan,2,0.088,0,0,0,0,0,0,0,0,0,1,2,0
4156.549,0.001024,0.09765625,-0.04882812,0.00390625,1.59375,4.1875,8.96875,0.0234375,-0.01171875,0.001953125,nan,nan,nan,-0.01062012,-0.005981445,0.2005615,0,0,0.2005615,0,4.077,0,0,0,0,nan,2,0.098,0,0,0,0,0,0,0,0,0,1,2,1
4156.559,0.001017,-0.0078125,-0.0078125,-0.01171875,0.984375,-0.1484375,9.539062,0.01171875,-0.0078125,-0.00390625,nan,nan,nan,-0.01037598,-0.005981445,0.2005615,0,0,0.2005615,0,4.077,0,0,0,0,nan,2,0.108,0,0,0,0,0,0,0,0,0,1,2,1
4156.568,0.001008,0.0390625,-0.01367188,-0.01953125,0.90625,1.6875,9.289062,0.015625,-0.0078125,-0.005859375,nan,nan,nan,-0.01037598,-0.005981445,0.2004395,0,0,0.2004395,0,4.077,0,0,0,0,nan,2,0.117,0,0,0,0,0,0,0,0,0,1,2,1
4156.578,0.001288,0.015625,-0.04492188,-0.01757812,1.75,0.7734375,7.976562,0.01171875,-0.009765625,-0.001953125,nan,nan,nan,-0.01025391,-0.005981445,0.2004395,0,0,0.2004395,0,4.077,0,0,0,0,nan,2,0.128,0,0,0,0,0,0,0,0,0,1,2,0
4156.588,0.000973,0.009765625,-0.06445312,0.00390625,2.164062,-1.390625,8.085938,0,-0.009765625,0,nan,nan,nan,-0.01025391,-0.005981445,0.2004395,0,0,0.2004395,0,4.077,0,0,0,0,nan,2,0.137,0,0,0,0,0,0,0,0,0,1,2,0
4156.598,0.001004,0.03710938,0.001953125,0.01953125,0.21875,-1.21875,9.640625,-0.005859375,0,0.001953125,nan,nan,nan,-0.01013184,-0.005981445,0.2004395,0,0,0.2004395,0,4.077,0,0,0,0,nan,2,0.147,0,0,0,0,0,0,0,0,0,1,2,1
4156.608,0.001014,0.009765625,0.08398438,-0.00390625,-0.5625,-0.296875,10.89844,-0.01171875,0.01367188,-0.001953125,nan,nan,nan,-0.01013184,-0.006103516,0.2004395,0,0,0.2004395,0,4.077,0,0,0,0,nan,2,0.158,0,0,0,0,0,0,0,0,0,1,2,0
4156.619,0.001196,0.001953125,0.0703125,-0.01757812,0.609375,0.46875,9.921875,0.005859375,0.009765625,-0.001953125,nan,nan,nan,-0.01000977,-0.005859375,0.2004395,0,0,0.2004395,0,4.077,0,0,0,0,nan,2,0.168,0,0,0,0,0,0,0,0,0,1,2,1
4156.629,0.000995,0.04101562,0,0.02148438,-0.15625,-0.0859375,9.898438,0.005859375,-0.00390625,0.00390625,nan,nan,nan,-0.009887695,-0.005859375,0.2004395,0,0,0.2004395,0,4.077,0,0,0,0,nan,2,0.178,0,0,0,0,0,0,0,0,0,1,2,1
4156.639,0.00104,0.001953125,0.02929688,-0.00390625,0.546875,0.203125,10.33594,-0.001953125,0.00390625,-0.001953125,nan,nan,nan,-0.009887695,-0.005859375,0.2004395,0,0,0.2004395,0,4.077,0,0,0,0,nan,2,0.188,0,0,0,0,0,0,0,0,0,1,2,1
4156.649,0.001067,0.01367188,-0.005859375,0.01171875,0.5,-0.234375,9.46875,0,-0.009765625,0.001953125,nan,nan,nan,-0.009765625,-0.005859375,0.2004395,0,0,0.2004395,0,4.077,0,0,0,0,nan,2,0.198,0,0,0,0,0,0,0,0,0,1,2,1
4156.659,0.000995,-0.02539062,-0.01757812,-0.005859375,0.109375,0.2890625,9.882812,0,-0.005859375,-0.001953125,nan,nan,nan,-0.009765625,-0.005859375,0.2004395,0,0,0.2004395,0,4.077,0,0,0,0,nan,2,0.208,0,0,0,0,0,0,0,0,0,1,2,1
4156.669,0.001012,0.015625,0,-0.01367188,0.1015625,0.359375,9.921875,-0.001953125,0.001953125,-0.00390625,nan,nan,nan,-0.009765625,-0.005859375,0.2004395,0,0,0.2004395,0,4.077,0,0,0,0,nan,2,0.218,0,0,0,0,0,0,0,0,0,1,2,1
4156.678,0.00101,-0.03125,-0.001953125,-0.01367188,-0.2109375,0.4375,9.953125,-0.01171875,0,-0.0078125,nan,nan,nan,-0.009643555,-0.005859375,0.2004395,0,0,0.2004395,0,4.077,0,0,0,0,nan,2,0.227,0,0,0,0,0,0,0,0,0,1,2,1
4156.688,0.001008,0.009765625,0,0.01953125,-0.1953125,-0.203125,9.851562,0.001953125,-0.001953125,0.001953125,nan,nan,nan,-0.009643555,-0.005859375,0.2004395,0,0,0.2004395,0,4.077,0,0,0,0,nan,2,0.237,0,0,0,0,0,0,0,0,0,1,2,1
4156.698,0.00095,-0.001953125,-0.005859375,0,-0.5859375,0.078125,9.703125,0,-0.001953125,0,nan,nan,nan,-0.009521484,-0.005859375,0.2003174,0,0,0.2003174,0,4.077,0,0,0,0,nan,2,0.247,0,0,0,0,0,0,0,0,0,1,2,1
4156.708,0.001009,0.009765625,-0.001953125,0.01367188,-0.1015625,0.203125,9.515625,-0.001953125,-0.001953125,0.001953125,nan,nan,nan,-0.009521484,-0.005859375,0.2003174,0,0,0.2003174,0,4.077,0,0,0,0,nan,2,0.258,0,0,0,0,0,0,0,0,0,1,2,1
4156.718,0.001009,-0.005859375,-0.009765625,-0.005859375,-0.296875,0.1328125,9.632812,-0.00390625,-0.001953125,0,nan,nan,nan,-0.009521484,-0.005859375,0.2003174,0,0,0.2003174,0,4.077,0,0,0,0,nan,2,0.268,0,0,0,0,0,0,0,0,0,1,2,1
4156.728,0.001009,-0.015625,-0.005859375,-0.009765625,-0.3203125,0.3984375,10.21094,-0.005859375,0,-0.005859375,nan,nan,nan,-0.009399414,-0.005859375,0.2003174,0,0,0.2003174,0,4.077,0,0,0,0,nan,2,0.278,0,0,0,0,0,0,0,0,0,1,2,1
4156.739,0.001009,-0.005859375,0,0.005859375,0.1640625,0.140625,9.71875,-0.001953125,0.001953125,-0.00390625,nan,nan,nan,-0.009399414,-0.005859375,0.2003174,0,0,0.2003174,0,4.077,0,0,0,0,nan,2,0.288,0,0,0,0,0,0,0,0,0,1,2,1
4156.749,0.001009,0.0078125,0.005859375,0.01367188,0.0703125,-0.1640625,9.625,0.001953125,0,0.001953125,nan,nan,nan,-0.009277344,-0.005737305,0.2003174,0,0,0.2003174,0,4.077,0,0,0,0,nan,2,0.298,0,0,0,0,0,0,0,0,0,1,2,1
4156.759,0.001009,0.0078125,0.001953125,-0.001953125,-0.015625,0.28125,9.679688,-0.001953125,0,0,nan,nan,nan,-0.009277344,-0.005737305,0.2003174,0,0,0.2003174,0,4.077,0,0,0,0,nan,2,0.308,0,0,0,0,0,0,0,0,0,1,2,1
4156.769,0.001009,-0.015625,-0.001953125,-0.009765625,0.3515625,-0.109375,9.578125,-0.00390625,0.001953125,-0.001953125,nan,nan,nan,-0.009155273,-0.005737305,0.2003174,0,0,0.2003174,0,4.077,0,0,0,0,nan,2,0.318,0,0,0,0,0,0,0,0,0,1,2,1
4156.778,0.000941,0,0.005859375,-0.00390625,0.0078125,0.4609375,9.953125,-0.001953125,0,-0.005859375,nan,nan,nan,-0.009155273,-0.005737305,0.2003174,0,0,0.2003174,0,4.077,0,0,0,0,nan,2,0.327,0,0,0,0,0,0,0,0,0,1,2,1
4156.788,0.001005,-0.015625,0.0078125,-0.009765625,-0.1015625,0.21875,10.0625,-0.005859375,0,-0.005859375,nan,nan,nan,-0.009155273,-0.005737305,0.2003174,0,0,0.2003174,0,4.077,0,0,0,0,nan,2,0.337,0,0,0,0,0,0,0,0,0,1,2,1
4156.798,0.001017,0.001953125,0,0.00390625,-0.109375,-0.0234375,9.953125,0,-0.001953125,-0.001953125,nan,nan,nan,-0.009033203,-0.005737305,0.2003174,0,0,0.2003174,0,4.077,0,0,0,0,nan,2,0.347,0,0,0,0,0,0,0,0,0,1,2,1
4156.808,0.001079,-0.005859375,0.005859375,0.0078125,0.0703125,-0.125,9.726562,-0.001953125,0.001953125,0.0078125,nan,nan,nan,-0.009033203,-0.005737305,0.2003174,0,0,0.2003174,0,4.077,0,0,0,0,nan,2,0.358,0,0,0,0,0,0,0,0,0,1,2,1
4156.818,0.001017,0.00390625,0,-0.001953125,0.265625,0.140625,9.8125,-0.001953125,0.001953125,-0.001953125,nan,nan,nan,-0.009033203,-0.005737305,0.2003174,0,0,0.2003174,0,4.077,0,0,0,0,nan,2,0.368,0,0,0,0,0,0,0,0,0,1,2,1
4156.828,0.00098,-0.009765625,-0.00390625,-0.0078125,-0.125,-0.09375,9.867188,-0.001953125,-0.001953125,-0.001953125,nan,nan,nan,-0.008911133,-0.005737305,0.2003174,0,0,0.2003174,0,4.077,0,0,0,0,nan,2,0.378,0,0,0,0,0,0,0,0,0,1,2,1
4156.839,0.001017,0.00390625,-0.00390625,0,0.234375,0.1875,9.757812,-0.001953125,0.001953125,0.001953125,nan,nan,nan,-0.008911133,-0.005615234,0.2003174,0,0,0.2003174,0,4.077,0,0,0,0,nan,2,0.388,0,0,0,0,0,0,0,0,0,1,2,1
4156.849,0.001075,-0.00390625,0,-0.005859375,-0.09375,0.0390625,9.9375,-0.001953125,-0.001953125,-0.005859375,nan,nan,nan,-0.008789062,-0.005737305,0.2003174,0,0,0.2003174,0,4.077,0,0,0,0,nan,2,0.398,0,0,0,0,0,0,0,0,0,1,2,1
4156.859,0.001017,0.00390625,-0.001953125,0.01367188,0.2109375,0,9.789062,0,0.001953125,0.005859375,nan,nan,nan,-0.008789062,-0.005615234,0.2003174,0,0,0.2003174,0,4.077,0,0,0,0,nan,2,0.408,0,0,0,0,0,0,0,0,0,1,2,1
4156.869,0.001017,-0.005859375,0.00390625,-0.015625,-0.1171875,-0.03125,9.679688,-0.001953125,-0.001953125,-0.001953125,nan,nan,nan,-0.008789062,-0.005615234,0.2003174,0,0,0.2003174,0,4.077,0,0,0,0,nan,2,0.418,0,0,0,0,0,0,0,0,0,1,2,1
4156.878,0.001008,-0.00390625,0,0.001953125,0.1171875,0.0625,9.8125,-0.00390625,0.001953125,-0.001953125,nan,nan,nan,-0.008666992,-0.005615234,0.2003174,0,0,0.2003174,0,4.077,0,0,0,0,nan,2,0.427,0,0,0,0,0,0,0,0,0,1,2,1
4156.888,0.000963,-0.00390625,-0.001953125,-0.00390625,-0.03125,-0.015625,9.851562,0,-0.001953125,0.001953125,nan,nan,nan,-0.008666992,-0.005615234,0.2003174,0,0,0.2003174,0,4.077,0,0,0,0,nan,2,0.437,0,0,0,0,0,0,0,0,0,1,2,1
4156.898,0.001007,-0.005859375,0.00390625,-0.0078125,0.1015625,0.109375,9.851562,-0.001953125,0.00390625,-0.005859375,nan,nan,nan,-0.008666992,-0.005615234,0.2003174,0,0,0.2003174,0,4.077,0,0,0,0,nan,2,0.447,0,0,0,0,0,0,0,0,0,1,2,1
4156.908,0.001008,-0.001953125,0,0.0078125,0.03125,-0.03125,9.8125,-0.001953125,0.001953125,0.001953125,nan,nan,nan,-0.008544922,-0.005615234,0.2003174,0,0,0.2003174,0,4.077,0,0,0,0,nan,2,0.458,0,0,0,0,0,0,0,0,0,1,2,1
4156.918,0.001008,-0.00390625,0.005859375,-0.00390625,0.0859375,0.0234375,9.828125,-0.001953125,0.00390625,0,nan,nan,nan,-0.008544922,-0.005493164,0.2003174,0,0,0.2003174,0,4.077,0,0,0,0,nan,2,0.468,0,0,0,0,0,0,0,0,0,1,2,1
4156.928,0.001008,-0.00390625,-0.001953125,0,0,0.0078125,9.820312,-0.001953125,-0.001953125,0,nan,nan,nan,-0.008544922,-0.005493164,0.2003174,0,0,0.2003174,0,4.077,0,0,0,0,nan,2,0.478,0,0,0,0,0,0,0,0,0,1,2,1
4156.939,0.001008,-0.00390625,0.001953125,-0.001953125,0.046875,0.0390625,9.851562,-0.001953125,0.001953125,0,nan,nan,nan,-0.008422852,-0.005493164,0.2003174,0,0,0.2003174,0,4.077,0,0,0,0,nan,2,0.488,0,0,0,0,0,0,0,0,0,1,2,1
4156.949,0.001024,0,0,-0.001953125,0.078125,0.0078125,9.757812,0,0.001953125,0,nan,nan,nan,-0.008422852,-0.005493164,0.2003174,0,0,0.2003174,0,4.077,0,0,0,0,nan,2,0.498,0,0,0,0,0,0,0,0,0,1,2,1
4156.959,0.001015,-0.001953125,-0.001953125,-0.001953125,0.03125,0.015625,9.78125,-0.001953125,0,-0.001953125,nan,nan,nan,-0.008422852,-0.005493164,0.2001953,0,0,0.2001953,0,4.077,0,0,0,0,nan,2,0.508,0,0,0,0,0,0,0,0,0,1,2,1
4156.968,0.000974,0.001953125,-0.001953125,0,0.046875,0.015625,9.804688,0,0,0,nan,nan,nan,-0.008422852,-0.005493164,0.2001953,0,0,0.2001953,0,4.077,0,0,0,0,nan,2,0.517,0,0,0,0,0,0,0,0,0,1,2,1
4156.978,0.001042,0.001953125,-0.001953125,0,-0.0078125,-0.0234375,9.820312,0,0,-0.001953125,nan,nan,nan,-0.008300781,-0.005493164,0.2001953,0,0,0.2001953,0,4.077,0,0,0,0,nan,2,0.527,0,0,0,0,0,0,0,0,0,1,2,1
4156.988,0.001015,-0.001953125,0.001953125,-0.001953125,0.03125,0.0234375,9.804688,0,-0.001953125,-0.001953125,nan,nan,nan,-0.008300781,-0.005493164,0.2001953,0,0,0.2001953,0,4.077,0,0,0,0,nan,2,0.537,0,0,0,0,0,0,0,0,0,1,2,1
4156.998,0.001012,-0.001953125,0.00390625,-0.001953125,0.03125,0.0078125,9.757812,0,0,0,nan,nan,nan,-0.008178711,-0.005493164,0.2001953,0,0,0.2001953,0,4.077,0,0,0,0,nan,2,0.547,0,0,0,0,0,0,0,0,0,1,2,1
4157.008,0.001012,-0.001953125,0,0,0.0390625,0.03125,9.796875,-0.001953125,0,-0.001953125,nan,nan,nan,-0.008178711,-0.005493164,0.2001953,0,0,0.2001953,0,4.077,0,0,0,0,nan,2,0.558,0,0,0,0,0,0,0,0,0,1,2,1
4157.018,0.001012,-0.001953125,-0.001953125,0,0,0.0234375,9.804688,-0.001953125,0,0,nan,nan,nan,-0.008178711,-0.005493164,0.2001953,0,0,0.2001953,0,4.077,0,0,0,0,nan,2,0.568,0,0,0,0,0,0,0,0,0,1,2,1
4157.028,0.001011,-0.001953125,0.001953125,-0.001953125,0.0390625,0.03125,9.84375,-0.001953125,0,-0.001953125,nan,nan,nan,-0.008056641,-0.005493164,0.2001953,0,0,0.2001953,0,4.077,0,0,0,0,nan,2,0.578,0,0,0,0,0,0,0,0,0,1,2,1
4157.039,0.001012,-0.00390625,-0.00390625,0,0.03125,-0.015625,9.789062,-0.001953125,0,0,nan,nan,nan,-0.008056641,-0.005493164,0.2001953,0,0,0.2001953,0,4.077,0,0,0,0,nan,2,0.588,0,0,0,0,0,0,0,0,0,1,2,1
4157.049,0.001012,-0.001953125,-0.001953125,0,0.0546875,0.0078125,9.796875,-0.001953125,0,0,nan,nan,nan,-0.008056641,-0.005493164,0.2001953,0,0,0.2001953,0,4.077,0,0,0,0,nan,2,0.598,0,0,0,0,0,0,0,0,0,1,2,1
4157.059,0.001012,-0.001953125,0.001953125,0.001953125,0,0.0078125,9.835938,-0.001953125,0,0,nan,nan,nan,-0.00793457,-0.005493164,0.2001953,0,0,0.2001953,0,4.077,0,0,0,0,nan,2,0.608,0,0,0,0,0,0,0,0,0,1,2,1
4157.069,0.001012,-0.001953125,0.001953125,0.001953125,0.046875,0.015625,9.867188,-0.001953125,0.001953125,0.001953125,nan,nan,nan,-0.00793457,-0.005371094,0.2001953,0,0,0.2001953,0,4.077,0,0,0,0,nan,2,0.618,0,0,0,0,0,0,0,0,0,1,2,1
4157.078,0.000961,0.001953125,0,0,0.03125,0.015625,9.789062,0,0,0,nan,nan,nan,-0.00793457,-0.005371094,0.2001953,0,0,0.2001953,0,4.077,0,0,0,0,nan,2,0.627,0,0,0,0,0,0,0,0,0,1,2,1
4157.088,0.001008,-0.00390625,-0.001953125,0,0.0390625,0.046875,9.828125,-0.001953125,-0.001953125,-0.001953125,nan,nan,nan,-0.00793457,-0.005371094,0.2001953,0,0,0.2001953,0,4.077,0,0,0,0,nan,2,0.637,0,0,0,0,0,0,0,0,0,1,2,1
