t,dt_s,gyro_x,gyro_y,gyro_z,acc_x,acc_y,acc_z,rates.x,rates.y,rates.z,ratesTarget.x,ratesTarget.y,ratesTarget.z,attitude.x,attitude.y,attitude.z,attitudeTarget.x,attitudeTarget.y,attitudeTarget.z,thrustTarget,battery_v,rc_roll,rc_pitch,rc_yaw,rc_throttle,rc_mode,flight_mode,rc_age_s,armed,fault_mask,motor_rl,motor_rr,motor_fr,motor_fl,rate_i_x,rate_i_y,rate_i_z,mix_scale,control_source,accel_correction_confidence
32.055,0.00101,-0.03515625,-0.0234375,-0.01953125,-0.53125,-3.34375,6.25,-0.02929688,-0.04101562,-0.00390625,-0.02148438,0.04492188,0,0.003540039,-0.007446289,-0.01208496,0,0,-0.001098633,0.3105164,4.003,0,0,0,0.2999878,nan,4,9.492,1,128,0.3052979,0.386261,0.3006287,0.249939,-0.03710938,0.02441406,0,1,3,0
32.065,0.001017,-0.1152344,-0.01367188,-0.01953125,-1.679688,-1.976562,7.859375,-0.0078125,-0.0234375,0.005859375,-0.02148438,0.04492188,0,0.00378418,-0.007446289,-0.01208496,0,0,-0.001098633,0.3105164,3.999,0,0,0,0.2999878,nan,4,9.502,1,128,0.3095703,0.374115,0.3122559,0.2461853,-0.03710938,0.02441406,0,1,3,0
32.075,0.0009860001,-0.08984375,-0.0078125,-0.00390625,-0.9765625,-1.023438,11.82812,-0.01757812,0.005859375,0.001953125,-0.02148438,0.04492188,0,0.003662109,-0.007446289,-0.01196289,0,0,-0.001098633,0.3105164,3.999,0,0,0,0.2999878,nan,4,9.512,1,128,0.2904358,0.3832703,0.3040466,0.2643433,-0.03710938,0.02441406,0,1,3,0
32.085,0.001016,0.09960938,0.1035156,-0.02734375,-2.65625,0.4375,12.92969,0.03320312,0.02929688,-0.0078125,-0.02148438,0.04492188,0,0.003662109,-0.007568359,-0.01196289,0,0,-0.001098633,0.3105164,3.999,0,0,0,0.2999878,nan,4,9.522,1,128,0.2709961,0.3864746,0.3279114,0.2567139,-0.03710938,0.02441406,0,1,3,0
32.095,0.001024,-0.03320312,0.1542969,0.02734375,-2.859375,0.1640625,13.23438,-0.01757812,0.08203125,0.009765625,-0.02148438,0.04492188,0,0.003540039,-0.007446289,-0.01208496,0,0,-0.001098633,0.3105164,3.999,0,0,0,0.2999878,nan,4,9.532,1,128,0.3164368,0.3204346,0.3716125,0.2336121,-0.03710938,0.02441406,0,1,3,0
32.105,0.001,-0.001953125,0.07226562,0.0234375,-1.703125,0.9609375,14.74219,0.02148438,-0.0390625,0.009765625,-0.0234375,0.04492188,0,0.00378418,-0.007568359,-0.01196289,0,0,-0.001098633,0.3105164,3.999,0,0,0,0.2999878,nan,4,9.542,1,128,0.3074646,0.3775635,0.3230896,0.2340088,-0.03710938,0.02441406,0,1,3,0
32.115,0.001004,-0.01171875,0.06445312,-0.02929688,-2.421875,0.0546875,10.85156,-0.009765625,-0.0078125,-0.01367188,-0.0234375,0.04492188,0,0.00378418,-0.00769043,-0.01196289,0,0,-0.001098633,0.3105164,3.999,0,0,0,0.2999878,nan,4,9.553,1,128,0.280304,0.3928223,0.2991028,0.2698669,-0.03710938,0.02441406,0,1,3,0
32.125,0.001004,-0.046875,0.04101562,0.015625,-3.070312,0.328125,10.28125,-0.0546875,0.01757812,-0.001953125,-0.01953125,0.04492188,0,0.003417969,-0.007568359,-0.01220703,0,0,-0.001098633,0.3105164,3.999,0,0,0,0.2999878,nan,4,9.563,1,128,0.3265686,0.3407898,0.3460693,0.2286682,-0.03710938,0.02441406,0,1,3,0
32.134,0.001016,-0.00390625,-0.09765625,0.015625,-0.7890625,2.726562,12.3125,-0.01367188,-0.01367188,0.015625,-0.01757812,0.04296875,0,0.003051758,-0.007202148,-0.01208496,0,0,-0.001098633,0.3105164,3.999,0,0,0,0.2999878,nan,4,9.572,1,128,0.3265991,0.3678894,0.3366394,0.210968,-0.03710938,0.02441406,0,1,3,0
32.145,0.001015,-0.015625,-0.0625,-0.05078125,-2.234375,3.101562,11.42969,0.001953125,-0.02734375,-0.0234375,-0.01953125,0.04492188,0,0.003173828,-0.007446289,-0.01208496,0,0,-0.001098633,0.3105164,3.999,0,0,0,0.2999878,nan,4,9.582,1,128,0.2610474,0.4259033,0.2702026,0.2849426,-0.03710938,0.02441406,0,1,3,0
32.155,0.001016,0.015625,-0.04101562,0.01367188,-1.421875,3.804688,11.10156,-0.001953125,-0.00390625,0.01171875,-0.01757812,0.04492188,0,0.003051758,-0.007568359,-0.01220703,0,0,-0.001098633,0.3105164,3.999,0,0,0,0.2999878,nan,4,9.592,1,128,0.3266602,0.348114,0.3498535,0.2174683,-0.03710938,0.02441406,0,1,3,0
32.165,0.001015,-0.009765625,-0.1230469,0.0078125,0.25,2.835938,11,0.009765625,-0.05078125,0.00390625,-0.01953125,0.04492188,0,0.003173828,-0.007568359,-0.01220703,0,0,-0.001098633,0.3105164,3.999,0,0,0,0.2999878,nan,4,9.602,1,128,0.31604,0.3858643,0.3114624,0.2287292,-0.03710938,0.02441406,0,1,3,0
32.175,0.001017,-0.08789062,0,-0.02929688,0.5390625,2.03125,11.21094,-0.001953125,-0.001953125,0.001953125,-0.01953125,0.046875,0,0.003295898,-0.0078125,-0.01208496,0,0,-0.001098633,0.3105164,3.999,0,0,0,0.2999878,nan,4,9.612,1,128,0.2806396,0.388855,0.3029785,0.2696533,-0.03710938,0.02441406,0,1,3,0
32.185,0.000998,0.005859375,0.0234375,0.005859375,1.546875,1.15625,10.45312,0.046875,-0.02539062,0.001953125,-0.02148438,0.04882812,0,0.003540039,-0.00793457,-0.01208496,0,0,-0.001098633,0.3105164,3.999,0,0,0,0.2999878,nan,4,9.622,1,128,0.300293,0.3776245,0.3308105,0.2333679,-0.03710938,0.02441406,0,1,3,0
32.195,0.001013,0.009765625,0.1191406,-0.01757812,2.3125,0.234375,9.46875,0.04296875,0.01367188,0.00390625,-0.0234375,0.04882812,0,0.00390625,-0.008300781,-0.01196289,0,0,-0.001098633,0.3105164,3.999,0,0,0,0.2999878,nan,4,9.632,1,128,0.2736511,0.385437,0.3209229,0.262085,-0.03710938,0.02539062,0,1,3,0.2539683
32.205,0.001015,0.1035156,0.05664062,0.01367188,1.59375,-1.914062,6.835938,0.02929688,-0.015625,0.01367188,-0.0234375,0.05078125,0,0.00402832,-0.008422852,-0.01184082,0,0,-0.001098633,0.3105164,3.999,0,0,0,0.2999878,nan,4,9.642,1,128,0.308197,0.3647766,0.3446655,0.2244873,-0.03710938,0.02539062,0,1,3,0
32.214,0.001025,0.0390625,0.1484375,-0.03320312,2.164062,-2.757812,7.703125,0,0.05078125,-0.01367188,-0.0234375,0.04882812,0,0.00402832,-0.008300781,-0.01184082,0,0,-0.001098633,0.3105164,3.999,0,0,0,0.2999878,nan,4,9.652,1,128,0.2569275,0.3973999,0.3021851,0.2855835,-0.03710938,0.02539062,0,1,3,0
32.224,0.001072,0.01757812,-0.04101562,0.0390625,1.101562,-3.476562,4.773438,-0.04882812,0.001953125,0,-0.02148438,0.046875,0,0.003662109,-0.00769043,-0.01196289,0,0,-0.001098633,0.3105164,3.999,0,0,0,0.2999878,nan,4,9.662,1,128,0.3326111,0.3634338,0.3234863,0.2225952,-0.03710938,0.02539062,0,1,3,0
32.234,0.000977,-0.0390625,-0.1015625,-0.0078125,-0.0703125,-3.132812,6.382812,0.01171875,-0.0390625,0.00390625,-0.0234375,0.046875,0,0.00390625,-0.00769043,-0.01196289,0,0,-0.001098633,0.3105164,3.999,0,0,0,0.2999878,nan,4,9.672,1,128,0.3076477,0.3884888,0.3082275,0.2377625,-0.03710938,0.02539062,0,1,3,0
32.245,0.001044,-0.1171875,0.0234375,-0.02148438,-0.0625,-3.203125,9.132812,-0.01953125,0.01757812,-0.01171875,-0.0234375,0.046875,0,0.00402832,-0.00769043,-0.01196289,0,0,-0.001098633,0.3105164,3.999,0,0,0,0.2999878,nan,4,9.682,1,128,0.2799072,0.390686,0.2905884,0.2809448,-0.03710938,0.02539062,0,1,3,0
32.255,0.001004,-0.009765625,0.01953125,0.009765625,-2.585938,-1.742188,11.44531,0.01171875,0.04101562,0,-0.02539062,0.04492188,0,0.00402832,-0.007446289,-0.01196289,0,0,-0.001098633,0.3105164,3.999,0,0,0,0.2999878,nan,4,9.692,1,128,0.3118591,0.3555908,0.3456421,0.2290039,-0.03710938,0.02539062,0,1,3,0
32.265,0.001004,0.1269531,-0.0546875,0.03320312,-2.601562,0.7734375,12.60938,0.04492188,-0.00390625,0.01171875,-0.02539062,0.04492188,0,0.004150391,-0.007446289,-0.01196289,0,0,-0.001098633,0.3105164,3.999,0,0,0,0.2999878,nan,4,9.702,1,128,0.313385,0.368988,0.3491516,0.2105713,-0.03710938,0.02539062,0,1,3,0
32.275,0.001004,0.04296875,0.02734375,0.01171875,-1.390625,2.78125,15.09375,0.04882812,-0.02539062,0.01757812,-0.02734375,0.046875,0,0.004638672,-0.00793457,-0.01184082,0,0,-0.001098633,0.3105164,3.999,0,0,0,0.2999878,nan,4,9.712,1,128,0.2979126,0.3742981,0.3370972,0.2327881,-0.03710938,0.02539062,0,1,3,0
32.285,0.001008,-0.01171875,0.0078125,0.009765625,-1.554688,2.804688,11.39062,0.00390625,-0.0078125,0.00390625,-0.02929688,0.04882812,0,0.004760742,-0.008056641,-0.01171875,0,0,-0.001098633,0.3105164,3.999,0,0,0,0.2999878,nan,4,9.722,1,128,0.2936096,0.3827209,0.3127441,0.2530212,-0.03808594,0.02539062,0,1,3,0
32.295,0.001018,0.125,-0.04101562,0.001953125,-0.796875,3.375,10.35938,0.03710938,-0.001953125,0.01367188,-0.02929688,0.046875,0,0.004760742,-0.00793457,-0.01159668,0,0,-0.001098633,0.3105164,3.999,0,0,0,0.2999878,nan,4,9.732,1,128,0.2984314,0.384552,0.3336792,0.2254333,-0.03808594,0.02539062,0,1,3,0
32.305,0.001002,-0.08203125,-0.08789062,0.01171875,1.765625,1.882812,8.828125,-0.04296875,-0.1347656,0.00390625,-0.02929688,0.05273438,0,0.005004883,-0.008666992,-0.01147461,0,0,-0.001098633,0.3105164,3.999,0,0,0,0.2999878,nan,4,9.742,1,128,0.3234253,0.3903198,0.2831726,0.2451782,-0.03808594,0.02539062,0,1,3,0
32.315,0.001004,0.05859375,-0.0859375,-0.02148438,0.234375,1.859375,7.976562,0.009765625,-0.009765625,-0.005859375,-0.02929688,0.0546875,0,0.004882812,-0.009033203,-0.01147461,0,0,-0.001098633,0.3105164,3.999,0,0,0,0.2999878,nan,4,9.753,1,128,0.2779541,0.3958435,0.3115845,0.2567444,-0.03808594,0.02539062,0,1,3,0
32.325,0.001003,-0.140625,-0.08203125,-0.005859375,0.9453125,1.953125,9.289062,-0.0234375,-0.015625,0.00390625,-0.02929688,0.0546875,0,0.004882812,-0.009033203,-0.01147461,0,0,-0.001098633,0.3105164,3.999,0,0,0,0.2999878,nan,4,9.763,1,128,0.318634,0.3720398,0.3137817,0.2376404,-0.03808594,0.02539062,0,1,3,0.3809524
32.334,0.001016,-0.00390625,0.06640625,0.03515625,2.210938,1.429688,9.960938,0.03320312,0.046875,0.0078125,-0.02929688,0.05273438,0,0.005004883,-0.008911133,-0.01147461,0,0,-0.001098633,0.3105164,3.999,0,0,0,0.2999878,nan,4,9.772,1,128,0.3039856,0.3535461,0.35849,0.2261047,-0.03808594,0.02539062,0,1,3,0
32.345,0.001016,-0.02929688,0.06054688,0.015625,-0.078125,-1.945312,8.203125,-0.0078125,0.01367188,0.009765625,-0.02929688,0.05273438,0,0.004760742,-0.008911133,-0.01147461,0,0,-0.001098633,0.3105164,3.999,0,0,0,0.2999878,nan,4,9.782,1,128,0.3038025,0.369873,0.3319702,0.2364502,-0.03808594,0.02539062,0,1,3,0
32.355,0.001017,0.015625,0.02539062,0.01171875,2.101562,-2.546875,9.25,0,-0.02734375,0.005859375,-0.02734375,0.0546875,0,0.004638672,-0.009033203,-0.01135254,0,0,-0.001098633,0.3105164,3.999,0,0,0,0.2999878,nan,4,9.792,1,128,0.309967,0.3757935,0.3250427,0.2312927,-0.03808594,0.02539062,0,1,3,0.8253968
32.365,0.001016,0.04101562,0.046875,0.005859375,0.7890625,-3.789062,7.21875,-0.005859375,-0.02148438,0.005859375,-0.02539062,0.05664062,0,0.004272461,-0.009399414,-0.01135254,0,0,-0.001098633,0.3105164,3.999,0,0,0,0.2999878,nan,4,9.802,1,128,0.2975159,0.3792419,0.3318176,0.2335205,-0.03808594,0.02636719,0,1,3,0
32.375,0.001006,-0.0703125,0.01757812,-0.01171875,-0.5625,-4.1875,6.140625,-0.03125,-0.02929688,0,-0.02539062,0.05859375,0,0.004150391,-0.009643555,-0.01135254,0,0,-0.001098633,0.3105164,3.999,0,0,0,0.2999878,nan,4,9.812,1,128,0.3016357,0.3798828,0.3087463,0.2518311,-0.03808594,0.02636719,0,1,3,0
32.385,0.001009,-0.03320312,0.04101562,-0.0078125,-0.078125,-4.164062,7.773438,-0.02148438,0.01953125,-0.009765625,-0.0234375,0.05664062,0,0.00402832,-0.009399414,-0.01135254,0,0,-0.001098633,0.3105164,3.999,0,0,0,0.2999878,nan,4,9.822,1,128,0.2850037,0.3925476,0.3006287,0.2639465,-0.03808594,0.02636719,0,1,3,0
32.395,0.000984,-0.05273438,-0.02734375,-0.03125,-2.148438,-2.476562,8.414062,-0.01171875,-0.04101562,-0.015625,-0.02539062,0.05664062,0,0.004150391,-0.009521484,-0.01135254,0,0,-0.001098633,0.3105164,3.999,0,0,0,0.2999878,nan,4,9.832,1,128,0.2879333,0.4024963,0.2861023,0.2655945,-0.03808594,0.02636719,0,1,3,0
32.405,0.000997,-0.05859375,0.09179688,-0.005859375,-1.484375,-0.7265625,10.5,0.02734375,-0.01757812,-0.00390625,-0.02734375,0.06054688,0,0.004516602,-0.01000977,-0.01147461,0,0,-0.001098633,0.3105164,3.999,0,0,0,0.2999878,nan,4,9.842,1,128,0.3012695,0.3700867,0.3256836,0.2450562,-0.03808594,0.02636719,0,1,3,0
32.415,0.000991,0.046875,-0.03710938,0.005859375,-0.875,-0.5546875,12.15625,0.0234375,0.00390625,-0.00390625,-0.02734375,0.06054688,0,0.004516602,-0.009887695,-0.01159668,0,0,-0.001098633,0.3105164,3.999,0,0,0,0.2999878,nan,4,9.853,1,128,0.2974854,0.3852234,0.3274231,0.2319946,-0.03808594,0.02636719,0,1,3,0
32.424,0.000997,0.03125,-0.03515625,-0.005859375,-2.976562,1.695312,13.02344,0.001953125,-0.0234375,-0.005859375,-0.02734375,0.06054688,0,0.004394531,-0.01000977,-0.01159668,0,0,-0.001098633,0.3105164,3.999,0,0,0,0.2999878,nan,4,9.862,1,128,0.3051453,0.384613,0.3196106,0.2327576,-0.03808594,0.02636719,0,1,3,0
32.434,0.001004,-0.1425781,0.3339844,-0.001953125,-1.921875,4.007812,12.69531,-0.02539062,0.1484375,0.00390625,-0.02734375,0.06054688,0,0.004516602,-0.01000977,-0.01159668,0,0,-0.001098633,0.3105164,3.999,0,0,0,0.2999878,nan,4,9.872,1,128,0.2718201,0.3330994,0.3502502,0.2869873,-0.03808594,0.02636719,0,1,3,0
32.445,0.001031,-0.08789062,0.07226562,0,-0.109375,4.023438,13.32812,-0.0546875,0.01953125,0.001953125,-0.0234375,0.05664062,0,0.00402832,-0.009521484,-0.01147461,0,0,-0.001098633,0.3105164,3.999,0,0,0,0.2999878,nan,4,9.882,1,128,0.2974854,0.3809204,0.3042297,0.2594604,-0.03808594,0.02636719,0,1,3,0
32.455,0.001004,0.04882812,-0.04492188,-0.00390625,-0.4453125,2.554688,10.46875,0.005859375,-0.009765625,-0.00390625,-0.0234375,0.05664062,0,0.00390625,-0.009521484,-0.01147461,0,0,-0.001098633,0.3105164,3.999,0,0,0,0.2999878,nan,4,9.892,1,128,0.28479,0.4051208,0.304718,0.247467,-0.03808594,0.02636719,0,1,3,0
32.465,0.001004,0.04101562,0.01757812,-0.02929688,0.9765625,2.40625,9.882812,-0.001953125,0.001953125,-0.001953125,-0.0234375,0.05664062,0,0.00378418,-0.009277344,-0.01147461,0,0,-0.001098633,0.3105164,3.999,0,0,0,0.2999878,nan,4,9.902,1,128,0.2900696,0.39328,0.3097839,0.2489624,-0.03808594,0.02636719,0,1,3,0.0952381
32.475,0.000995,-0.08789062,0.015625,-0.001953125,1.796875,0.859375,7.289062,-0.03515625,0.05859375,0.00390625,-0.0234375,0.05078125,0,0.00390625,-0.008300781,-0.01147461,0,0,-0.001098633,0.3105164,3.999,0,0,0,0.2999878,nan,4,9.912,1,128,0.3233948,0.361908,0.3166809,0.2401428,-0.03808594,0.02636719,0,1,3,0
32.485,0.001019,-0.0703125,-0.04882812,0.001953125,1.507812,-0.3203125,5.640625,-0.00390625,0.00390625,0.005859375,-0.0234375,0.046875,0,0.00390625,-0.00793457,-0.01147461,0,0,-0.001098633,0.3105164,3.999,0,0,0,0.2999878,nan,4,9.922,1,128,0.3137207,0.3828735,0.3144836,0.2309875,-0.03808594,0.02636719,0,1,3,0
32.495,0.000973,-0.03515625,0.009765625,0.01171875,2.507812,-1.382812,8.65625,-0.001953125,-0.005859375,0.00390625,-0.0234375,0.046875,0,0.00390625,-0.00793457,-0.01147461,0,0,-0.001098633,0.3105164,3.999,0,0,0,0.2999878,nan,4,9.932,1,128,0.3058777,0.3771057,0.3188782,0.2402649,-0.03808594,0.02636719,0,1,3,0
32.505,0.000998,0.07421875,-0.02929688,-0.015625,1.4375,-2.46875,10.17969,0.08398438,-0.09960938,0.001953125,-0.02539062,0.05078125,0,0.004150391,-0.008422852,-0.01135254,0,0,-0.001098633,0.3105164,3.999,0,0,0,0.2999878,nan,4,9.942,1,128,0.2892761,0.4190063,0.3137512,0.2200623,-0.03808594,0.02636719,0,1,3,0
32.515,0.001004,0.06640625,-0.02148438,-0.00390625,-0.1171875,-4.171875,9.015625,-0.0078125,-0.0078125,0.005859375,-0.02539062,0.05273438,0,0.004150391,-0.008911133,-0.01135254,0,0,-0.001098633,0.3105164,3.999,0,0,0,0.2999878,nan,4,9.952,1,128,0.294342,0.3700562,0.3287354,0.2489929,-0.03808594,0.02636719,0,1,3,0.7301587
32.525,0.001059,0.09765625,-0.01953125,0.01367188,-0.40625,-3.609375,9.515625,0.01367188,-0.015625,0.009765625,-0.0234375,0.05273438,0,0.00402832,-0.008789062,-0.01123047,0,0,-0.001098633,0.3105164,3.999,0,0,0,0.2999878,nan,4,9.962,1,128,0.3048096,0.3854065,0.3292542,0.2226257,-0.03808594,0.02636719,0,1,3,0.2063492
32.534,0.001017,0.1074219,-0.07421875,0.00390625,-2.65625,-1.789062,8.210938,0.0078125,-0.02148438,-0.001953125,-0.0234375,0.05273438,0,0.00390625,-0.008789062,-0.01123047,0,0,-0.001098633,0.3105164,3.999,0,0,0,0.2999878,nan,4,9.972,1,128,0.2907715,0.4012451,0.3079834,0.2420959,-0.03808594,0.02636719,0,1,3,0
32.545,0.001027,-0.07226562,-0.03125,0.02539062,-2.3125,0.328125,8.8125,-0.03320312,-0.0234375,0.00390625,-0.02539062,0.0546875,0,0.004272461,-0.009033203,-0.01123047,0,0,-0.001098633,0.3105164,3.999,0,0,0,0.2999878,nan,4,9.982,1,128,0.3309937,0.3577271,0.3169861,0.2363892,-0.03808594,0.02734375,0,1,3,0
32.555,0.001016,-0.01953125,-0.1640625,0.001953125,-0.9765625,2.921875,15.07031,0.0078125,-0.0234375,0.009765625,-0.02734375,0.0546875,0,0.004516602,-0.009155273,-0.0111084,0,0,-0.001098633,0.3105164,3.999,0,0,0,0.2999878,nan,4,9.992,1,128,0.3014526,0.3901062,0.3043518,0.2461853,-0.03808594,0.02734375,0,1,3,0
32.565,0.001023,0.04492188,0,0.005859375,-2.273438,3.632812,13.52344,0.0078125,0.001953125,0.01367188,-0.02734375,0.05664062,0,0.004516602,-0.009399414,-0.01098633,0,0,-0.001098633,0.3105164,3.999,0,0,0,0.2999878,nan,4,10.002,1,128,0.3009033,0.375061,0.3282166,0.237915,-0.03808594,0.02734375,0,1,3,0
32.575,0.001016,-0.03125,0.09179688,0.001953125,-0.890625,3.835938,14.21875,0.009765625,-0.01367188,0.0078125,-0.02734375,0.05859375,0,0.004516602,-0.009765625,-0.01086426,0,0,-0.001098633,0.3105164,3.999,0,0,0,0.2999878,nan,4,10.012,1,128,0.3045044,0.3700867,0.3310852,0.2363892,-0.03808594,0.02734375,0,1,3,0
32.585,0.001031,0.1386719,0.02734375,0.02929688,0.5,2.703125,13.40625,0.03320312,-0.015625,0.0234375,-0.02734375,0.06054688,0,0.004516602,-0.01000977,-0.01074219,0,0,-0.001098633,0.3105164,3.999,0,0,0,0.2999878,nan,4,10.022,1,128,0.3119202,0.3675842,0.3525085,0.210083,-0.03808594,0.02734375,0,1,3,0
32.595,0.001028,0.01171875,0.1152344,-0.005859375,1.117188,1.203125,9.390625,0.001953125,0.02148438,0,-0.02734375,0.06054688,0,0.004638672,-0.01013184,-0.01074219,0,0,-0.001098633,0.3105164,3.999,0,0,0,0.2999878,nan,4,10.032,1,128,0.2860413,0.3796082,0.3202515,0.2561646,-0.03808594,0.02734375,0,1,3,0
32.605,0.001014,0.04492188,0.03125,-0.01171875,3.476562,0.296875,6.398438,-0.03125,0.009765625,-0.00390625,-0.02539062,0.06054688,0,0.004394531,-0.01000977,-0.01074219,0,0,-0.001098633,0.3105164,3.999,0,0,0,0.2999878,nan,4,10.042,1,128,0.2922058,0.3873901,0.3088684,0.2536621,-0.03808594,0.02734375,0,1,3,0
32.614,0.001008,-0.02148438,0,0.0078125,2.390625,-0.2421875,5.578125,-0.03125,0.005859375,0.001953125,-0.02539062,0.05859375,0,0.004394531,-0.009765625,-0.01074219,0,0,-0.001098633,0.3105164,3.999,0,0,0,0.2999878,nan,4,10.051,1,128,0.3154602,0.3717957,0.3182678,0.2365723,-0.03808594,0.02734375,0,1,3,0
32.624,0.001019,-0.07617188,-0.02734375,0,0.9609375,-2.914062,3.9375,-0.0078125,-0.01171875,0.005859375,-0.02539062,0.05664062,0,0.004394531,-0.009521484,-0.01062012,0,0,-0.001098633,0.3105164,3.999,0,0,0,0.2999878,nan,4,10.062,1,128,0.311554,0.3840027,0.3092651,0.2372742,-0.03808594,0.02734375,0,1,3,0
32.635,0.000996,-0.1210938,0.02929688,-0.009765625,2.304688,-2.875,7.226562,-0.02539062,0.01953125,0,-0.02539062,0.05664062,0,0.004394531,-0.009521484,-0.01062012,0,0,-0.001098633,0.3105164,3.999,0,0,0,0.2999878,nan,4,10.072,1,128,0.2927246,0.3839417,0.302124,0.2633362,-0.03808594,0.02734375,0,1,3,0
32.645,0.00101,-0.05859375,0.109375,0.0234375,0.9921875,-2.601562,9.875,-0.001953125,0.05664062,-0.005859375,-0.02539062,0.05273438,0,0.004272461,-0.008911133,-0.01074219,0,0,-0.001098633,0.3105164,3.999,0,0,0,0.2999878,nan,4,10.082,1,128,0.3088379,0.3660889,0.3334656,0.2337341,-0.03808594,0.02734375,0,1,3,0.03174603
32.655,0.001039,0.02734375,-0.05078125,0.00390625,-0.5234375,-3.0625,10.82812,0.01171875,0.01757812,0.01367188,-0.02539062,0.05273438,0,0.004272461,-0.008789062,-0.01062012,0,0,-0.001098633,0.3105164,3.999,0,0,0,0.2999878,nan,4,10.092,1,128,0.3044434,0.3771362,0.3303833,0.2301636,-0.03808594,0.02734375,0,1,3,0
32.665,0.00101,0.00390625,0.09179688,0.005859375,-0.78125,-1.523438,11.92969,0.02148438,-0.0078125,0.005859375,-0.02539062,0.0546875,0,0.004272461,-0.009033203,-0.01049805,0,0,-0.001098633,0.3105164,3.999,0,0,0,0.2999878,nan,4,10.102,1,128,0.2913208,0.3843689,0.3269653,0.2394409,-0.0390625,0.02734375,0,1,3,0
32.675,0.001011,0.0859375,0.06054688,0,-2.632812,-0.609375,10.625,0.01953125,0.009765625,-0.01757812,-0.02539062,0.05273438,0,0.004272461,-0.008789062,-0.01062012,0,0,-0.001098633,0.3105164,3.999,0,0,0,0.2999878,nan,4,10.112,1,128,0.2781677,0.4005127,0.313446,0.2499695,-0.0390625,0.02734375,0,1,3,0
32.685,0.00101,-0.03515625,-0.03125,0.00390625,-2.585938,1.671875,10.0625,-0.02539062,-0.02148438,0.00390625,-0.02539062,0.05273438,0,0.00402832,-0.008911133,-0.01074219,0,0,-0.001098633,0.3105164,3.999,0,0,0,0.2999878,nan,4,10.122,1,128,0.3282166,0.3598938,0.3346863,0.2192993,-0.0390625,0.02734375,0,1,3,0
32.695,0.00102,0.06445312,-0.01367188,0.009765625,-1.453125,2.914062,12.34375,0.01171875,-0.005859375,0.001953125,-0.0234375,0.05273438,0,0.00402832,-0.008789062,-0.01062012,0,0,-0.001098633,0.3105164,3.999,0,0,0,0.2999878,nan,4,10.132,1,128,0.2969971,0.3924561,0.3158569,0.2368164,-0.0390625,0.02734375,0,1,3,0
32.705,0.00101,-0.046875,-0.0546875,-0.01171875,-1.71875,2.78125,9.773438,-0.02539062,0.001953125,-0.0078125,-0.02539062,0.05273438,0,0.004150391,-0.008666992,-0.01062012,0,0,-0.001098633,0.3105164,3.999,0,0,0,0.2999878,nan,4,10.142,1,128,0.2960815,0.3904724,0.2943726,0.2611694,-0.0390625,0.02734375,0,1,3,0
32.715,0.001006,-0.09960938,-0.00390625,0.0078125,-2.492188,3.429688,11.67969,-0.05273438,0.05078125,-0.001953125,-0.0234375,0.05078125,0,0.00402832,-0.008300781,-0.01074219,0,0,-0.001098633,0.3105164,3.998,0,0,0,0.2999878,nan,4,10.152,1,128,0.3190308,0.3509216,0.326416,0.245697,-0.0390625,0.02734375,0,1,3,0
32.725,0.00101,0.009765625,-0.1621094,0.001953125,-1.1875,3.304688,14.72656,0.04492188,-0.02734375,0.01171875,-0.02539062,0.04882812,0,0.004150391,-0.008178711,-0.01074219,0,0,-0.001098633,0.3105164,3.998,0,0,0,0.2999878,nan,4,10.163,1,128,0.3173218,0.3890381,0.32901,0.2067261,-0.0390625,0.02734375,0,1,3,0
32.736,0.001016,0.02734375,0.00390625,-0.02539062,0.28125,3.65625,13.96094,0.009765625,0.03320312,-0.00390625,-0.02539062,0.05078125,0,0.004150391,-0.008422852,-0.01062012,0,0,-0.001098633,0.3105164,3.998,0,0,0,0.2999878,nan,4,10.173,1,128,0.2745667,0.3895264,0.3178406,0.2601929,-0.0390625,0.02832031,0,1,3,0
32.744,0.00101,0.1132812,-0.1640625,-0.02539062,1.78125,1.640625,10.53125,0.0390625,-0.06445312,-0.0234375,-0.0234375,0.05078125,0,0.00402832,-0.008422852,-0.01086426,0,0,-0.001098633,0.3105164,3.998,0,0,0,0.2999878,nan,4,10.182,1,128,0.2842407,0.4311218,0.2947693,0.2319946,-0.0390625,0.02832031,0,1,3,0
32.755,0.00101,-0.0078125,0.04492188,0.04492188,2.304688,0.7578125,9.945312,-0.01953125,0.001953125,0.02929688,-0.0234375,0.05273438,0,0.00402832,-0.008789062,-0.01086426,0,0,-0.001098633,0.3105164,3.998,0,0,0,0.2999878,nan,4,10.192,1,128,0.3549805,0.3162231,0.3783569,0.1925354,-0.0390625,0.02832031,0,1,3,0.01587302
32.765,0.00101,-0.07226562,0.00390625,0,1.632812,-0.1484375,6.007812,-0.03515625,-0.005859375,0.009765625,-0.0234375,0.05078125,0,0.00402832,-0.008544922,-0.01062012,0,0,-0.001098633,0.3105164,3.998,0,0,0,0.2999878,nan,4,10.202,1,128,0.3027039,0.387085,0.2980957,0.2542419,-0.0390625,0.02832031,0,1,3,0
32.775,0.001015,-0.05859375,0.00390625,0.00390625,2.539062,-1.445312,4.921875,-0.01757812,-0.00390625,-0.001953125,-0.0234375,0.05078125,0,0.00402832,-0.008544922,-0.01062012,0,0,-0.001098633,0.3105164,3.998,0,0,0,0.2999878,nan,4,10.212,1,128,0.2960815,0.3922729,0.3014526,0.2522888,-0.0390625,0.02832031,0,1,3,0
32.785,0.00106,0.03125,-0.125,0.001953125,2.046875,-1.421875,5.757812,0.015625,0.00390625,0.009765625,-0.02539062,0.04882812,0,0.004150391,-0.008056641,-0.01049805,0,0,-0.001098633,0.3105164,3.998,0,0,0,0.2999878,nan,4,10.222,1,128,0.3191223,0.3807373,0.3268127,0.2154236,-0.0390625,0.02832031,0,1,3,0
32.795,0.000988,-0.08203125,0.1269531,-0.0078125,0.515625,-4.070312,5.585938,-0.01953125,0.06054688,0.0078125,-0.02539062,0.046875,0,0.004272461,-0.0078125,-0.01049805,0,0,-0.001098633,0.3105164,3.998,0,0,0,0.2999878,nan,4,10.232,1,128,0.3015137,0.3625488,0.3218079,0.2562256,-0.0390625,0.02832031,0,1,3,0
32.805,0.001002,-0.08984375,-0.005859375,-0.01757812,1.132812,-3.132812,8.84375,-0.00390625,0.01953125,0.00390625,-0.02539062,0.04492188,0,0.004272461,-0.007568359,-0.01037598,0,0,-0.001098633,0.3105164,3.998,0,0,0,0.2999878,nan,4,10.242,1,128,0.3005066,0.3839417,0.3137817,0.2438354,-0.0390625,0.02832031,0,1,3,0.04761905
32.815,0.001007,0.0703125,0.03710938,0.00390625,-0.546875,-3.515625,10.86719,0.01953125,0.05273438,0,-0.02539062,0.04296875,0,0.004272461,-0.007202148,-0.01049805,0,0,-0.001098633,0.3105164,3.998,0,0,0,0.2999878,nan,4,10.252,1,128,0.2975769,0.3726196,0.3391113,0.2327881,-0.0390625,0.02832031,0,1,3,0
32.825,0.00101,-0.02148438,-0.265625,0.03710938,-0.8046875,-3.867188,9.234375,-0.005859375,-0.09960938,0.02148438,-0.0234375,0.04296875,0,0.00402832,-0.007202148,-0.01037598,0,0,-0.001098633,0.3105164,3.998,0,0,0,0.2999878,nan,4,10.263,1,128,0.3640747,0.3718872,0.329071,0.177063,-0.0390625,0.02832031,0,1,3,0.1746032
32.835,0.00101,-0.02734375,0.0703125,0,-0.859375,-2.578125,10.50781,0.02148438,-0.015625,0.01953125,-0.02539062,0.046875,0,0.004272461,-0.00769043,-0.01025391,0,0,-0.001098633,0.3105164,3.998,0,0,0,0.2999878,nan,4,10.273,1,128,0.2940674,0.3783264,0.3276367,0.2420654,-0.0390625,0.02832031,0,1,3,0
32.844,0.001009,0.1484375,-0.01757812,-0.01757812,-2.75,2.601562,12.32812,0.03125,-0.01171875,-0.015625,-0.02539062,0.046875,0,0.004272461,-0.0078125,-0.01025391,0,0,-0.001098633,0.3105164,3.998,0,0,0,0.2999878,nan,4,10.282,1,128,0.2649536,0.4174194,0.2997742,0.2599792,-0.0390625,0.02832031,0,1,3,0
32.855,0.00101,0.06835938,-0.046875,-0.01953125,-3.53125,2.195312,11.50781,-0.009765625,-0.02929688,-0.01171875,-0.0234375,0.046875,0,0.00402832,-0.0078125,-0.01025391,0,0,-0.001098633,0.3105164,3.998,0,0,0,0.2999878,nan,4,10.292,1,128,0.2879028,0.4114685,0.2988281,0.2438965,-0.0390625,0.02832031,0,1,3,0
32.865,0.001009,0.03320312,-0.06445312,0.01367188,-0.8046875,3.734375,11.46094,0,-0.0390625,-0.015625,-0.02539062,0.04492188,0,0.00402832,-0.007446289,-0.01049805,0,0,-0.001098633,0.3105164,3.998,0,0,0,0.2999878,nan,4,10.302,1,128,0.3114929,0.4020996,0.29953,0.2290039,-0.0390625,0.02832031,0,1,3,0
32.875,0.001008,-0.0859375,-0.00390625,-0.02734375,-0.734375,3.96875,12.65625,-0.02734375,0.00390625,-0.03320312,-0.02539062,0.04492188,0,0.004150391,-0.007446289,-0.01062012,0,0,-0.001098633,0.3105164,3.998,0,0,0,0.2999878,nan,4,10.312,1,128,0.2760925,0.4083252,0.2761536,0.2815247,-0.0390625,0.02832031,0,1,3,0
32.885,0.001008,0.0234375,0,-0.04101562,-1.265625,2.9375,11.64062,0.02734375,0.015625,-0.01367188,-0.02539062,0.04296875,0,0.004272461,-0.007202148,-0.01074219,0,0,-0.001098633,0.3105164,3.998,0,0,0,0.2999878,nan,4,10.322,1,128,0.2872009,0.397644,0.3130798,0.2442017,-0.0390625,0.02832031,0,1,3,0
32.895,0.001015,-0.04882812,0.01367188,-0.009765625,0.375,3.585938,12.24219,-0.01367188,0.04882812,-0.009765625,-0.02734375,0.04101562,0,0.004516602,-0.006835938,-0.01086426,0,0,-0.001098633,0.3105164,3.998,0,0,0,0.2999878,nan,4,10.332,1,128,0.3018188,0.3720093,0.3111877,0.2571106,-0.0390625,0.02832031,0,1,3,0
32.905,0.001017,0.04101562,-0.046875,0.02734375,1.34375,2.15625,10.42188,0.02929688,0,0.02148438,-0.02734375,0.0390625,0,0.004638672,-0.006591797,-0.01074219,0,0,-0.001098633,0.3105164,3.998,0,0,0,0.2999878,nan,4,10.342,1,128,0.3232117,0.3703613,0.3426514,0.2058716,-0.0390625,0.02832031,0,1,3,0
32.915,0.001007,-0.03320312,0.04882812,0,1.75,0.0703125,8.125,-0.0078125,0.04492188,0,-0.02734375,0.0390625,0,0.004638672,-0.006591797,-0.01062012,0,0,-0.001098633,0.3105164,3.998,0,0,0,0.2999878,nan,4,10.352,1,128,0.2835083,0.3781738,0.3180237,0.2623901,-0.0390625,0.02832031,0,1,3,0
32.925,0.001009,0.01953125,-0.04882812,-0.00390625,2.445312,0.4296875,10.23438,0.03320312,-0.01171875,0.00390625,-0.02734375,0.0390625,0,0.004760742,-0.006469727,-0.01062012,0,0,-0.001098633,0.3105164,3.998,0,0,0,0.2999878,nan,4,10.363,1,128,0.2998657,0.3918762,0.3237915,0.226593,-0.0390625,0.02832031,0,1,3,0
32.935,0.000995,0.03515625,-0.009765625,0,2.3125,-0.7734375,9.140625,0.01953125,-0.0078125,0.001953125,-0.02929688,0.0390625,0,0.004760742,-0.006591797,-0.01062012,0,0,-0.001098633,0.3105164,3.998,0,0,0,0.2999878,nan,4,10.373,1,128,0.2868347,0.3945618,0.3156433,0.2450562,-0.0390625,0.02832031,0,1,3,0.1111111
32.945,0.001034,0.1152344,-0.00390625,0.04492188,0.2890625,-3.835938,4.703125,0.03125,-0.05859375,0.01367188,-0.02929688,0.04296875,0,0.005004883,-0.007080078,-0.01062012,0,0,-0.001098633,0.3105164,3.998,0,0,0,0.2999878,nan,4,10.382,1,128,0.3334045,0.3622742,0.3510132,0.1953735,-0.0390625,0.02832031,0,1,3,0
32.955,0.000984,-0.009765625,-0.05273438,-0.01171875,-0.4765625,-3.289062,6.679688,0.009765625,-0.01953125,-0.001953125,-0.03125,0.04101562,0,0.005004883,-0.006958008,-0.01049805,0,0,-0.001098633,0.3105164,3.998,0,0,0,0.2999878,nan,4,10.392,1,128,0.2919006,0.4034424,0.3009949,0.2457581,-0.0390625,0.02832031,0,1,3,0
32.965,0.000984,-0.1503906,-0.03515625,-0.02734375,-1.304688,-2.585938,9.835938,-0.04101562,-0.0390625,-0.01171875,-0.03125,0.04296875,0,0.005249023,-0.007080078,-0.01062012,0,0,-0.001098633,0.3105164,3.998,0,0,0,0.2999878,nan,4,10.402,1,128,0.3066101,0.3923035,0.2831421,0.2600403,-0.0390625,0.02832031,0,1,3,0.03174603
32.975,0.001011,0.0859375,0.02539062,0.01367188,-2.367188,-1.390625,11.57031,0.03515625,-0.009765625,0.00390625,-0.03125,0.04296875,0,0.005126953,-0.007202148,-0.01062012,0,0,-0.001098633,0.3105164,3.998,0,0,0,0.2999878,nan,4,10.412,1,128,0.3076782,0.3771057,0.3448486,0.2124634,-0.0390625,0.02929688,0,1,3,0
32.985,0.001005,0.1230469,0.015625,-0.009765625,-1.4375,0.8828125,15.17969,0.04101562,0.03320312,0.009765625,-0.02929688,0.04296875,0,0.005004883,-0.007202148,-0.01049805,0,0,-0.001098633,0.3105164,3.998,0,0,0,0.2999878,nan,4,10.422,1,128,0.2825623,0.3848267,0.3435974,0.2311096,-0.0390625,0.02929688,0,1,3,0
32.995,0.001009,0.046875,0.03125,-0.01757812,-3.265625,1.945312,13.72656,0.0234375,0.005859375,-0.005859375,-0.03125,0.04296875,0,0.005126953,-0.007324219,-0.01049805,0,0,-0.001098633,0.3105164,3.998,0,0,0,0.2999878,nan,4,10.432,1,128,0.2789917,0.3995972,0.3164673,0.2470703,-0.0390625,0.02929688,0,1,3,0
33.005,0.001006,0.009765625,0.1484375,0.015625,-2.296875,2.710938,10.36719,-0.02148438,0.009765625,0.009765625,-0.02929688,0.04296875,0,0.004882812,-0.007202148,-0.01049805,0,0,-0.001098633,0.3105164,3.998,0,0,0,0.2999878,nan,4,10.442,1,128,0.3175049,0.3613281,0.3375244,0.225769,-0.04003906,0.02929688,0,1,3,0
33.015,0.001038,0.09765625,-0.08789062,0.02734375,-1.679688,2.9375,11.55469,-0.02929688,-0.00390625,0.009765625,-0.02734375,0.0390625,0,0.004516602,-0.006469727,-0.01037598,0,0,-0.001098633,0.3105164,3.998,0,0,0,0.2999878,nan,4,10.453,1,128,0.316925,0.3881836,0.3198242,0.2171631,-0.04003906,0.02929688,0,1,3,0
33.024,0.000969,-0.1074219,0.02148438,-0.02539062,0.03125,2.90625,8.875,-0.0234375,0,-0.01171875,-0.02734375,0.0390625,0,0.004638672,-0.006469727,-0.01037598,0,0,-0.001098633,0.3105164,3.998,0,0,0,0.2999878,nan,4,10.462,1,128,0.2806396,0.4035339,0.2854919,0.2724609,-0.04003906,0.02929688,0,1,3,0.01587302
33.034,0.00101,-0.046875,-0.1035156,0,0.6484375,2.101562,9.882812,-0.001953125,-0.01757812,-0.005859375,-0.02734375,0.0390625,0,0.004638672,-0.006469727,-0.01049805,0,0,-0.001098633,0.3105164,3.998,0,0,0,0.2999878,nan,4,10.472,1,128,0.309967,0.3848572,0.3127136,0.2345276,-0.04003906,0.02929688,0,1,3,0.3174603
33.044,0.00094,-0.0546875,0.08984375,0.005859375,1.601562,1.242188,12.88281,0.015625,0.1171875,0.005859375,-0.02929688,0.03515625,0,0.004882812,-0.005981445,-0.01037598,0,0,-0.001098633,0.3105164,3.998,0,0,0,0.2999878,nan,4,10.482,1,128,0.2875061,0.3596191,0.3418274,0.2531433,-0.04003906,0.02929688,0,1,3,0
33.055,0.00101,0.07421875,-0.03515625,0,1.65625,-0.2421875,8.960938,0.01171875,0.015625,-0.0078125,-0.02734375,0.03515625,0,0.004638672,-0.005737305,-0.01049805,0,0,-0.001098633,0.3105164,3.998,0,0,0,0.2999878,nan,4,10.492,1,128,0.2848511,0.4016418,0.3115234,0.2440491,-0.04003906,0.02929688,0,1,3,0
33.065,0.001017,0.1289062,-0.01367188,0.01953125,1.890625,-2.328125,7.460938,0.05078125,-0.03710938,0.001953125,-0.02929688,0.03710938,0,0.004882812,-0.006103516,-0.01062012,0,0,-0.001098633,0.3105164,3.998,0,0,0,0.2999878,nan,4,10.502,1,128,0.3174133,0.3730774,0.3531189,0.1984863,-0.04003906,0.02929688,0,1,3,0
33.075,0.00101,0.2207031,-0.1738281,0.02539062,2.46875,-3.414062,7.617188,0.05078125,-0.0625,0.005859375,-0.03125,0.0390625,0,0.005126953,-0.006347656,-0.01062012,0,0,-0.001098633,0.3105164,3.998,0,0,0,0.2999878,nan,4,10.512,1,128,0.3135681,0.390625,0.3332214,0.2046814,-0.04003906,0.02929688,0,1,3,0
33.085,0.00101,0.125,-0.1308594,0.01757812,0.2734375,-3.164062,5.335938,0.01757812,-0.0859375,0,-0.03320312,0.04296875,0,0.005493164,-0.007202148,-0.01062012,0,0,-0.001098633,0.3105164,3.998,0,0,0,0.2999878,nan,4,10.522,1,128,0.3111877,0.3901062,0.3175659,0.2232361,-0.04003906,0.02929688,0,1,3,0
33.095,0.001017,-0.04492188,-0.04492188,0.01953125,-1.3125,-3.460938,7.125,-0.005859375,0.009765625,0.005859375,-0.03515625,0.04296875,0,0.005859375,-0.007202148,-0.01049805,0,0,-0.001098633,0.3105164,3.998,0,0,0,0.2999878,nan,4,10.532,1,128,0.3166504,0.3634033,0.3285522,0.23349,-0.04003906,0.02929688,0,1,3,0
33.105,0.001007,-0.08789062,-0.01171875,-0.01171875,0.0546875,-1.4375,10.70312,0.009765625,0.01367188,0.001953125,-0.03515625,0.04296875,0,0.005981445,-0.007080078,-0.01049805,0,0,-0.001098633,0.3105164,3.998,0,0,0,0.2999878,nan,4,10.542,1,128,0.292511,0.391449,0.3074341,0.2507019,-0.04003906,0.02929688,0,1,3,0
33.115,0.001009,0.078125,-0.1425781,0.01171875,-2.226562,-0.0859375,12.14062,0.05664062,-0.04882812,-0.005859375,-0.03710938,0.04296875,0,0.006103516,-0.007080078,-0.01049805,0,0,-0.001098633,0.3105164,3.998,0,0,0,0.2999878,nan,4,10.552,1,128,0.3008423,0.4105835,0.3157654,0.2149048,-0.04003906,0.02929688,0,1,3,0
33.125,0.00101,0.0390625,-0.015625,-0.005859375,-3.09375,-0.1484375,13.39062,0.05859375,-0.01757812,0.01367188,-0.0390625,0.04492188,0,0.006469727,-0.007568359,-0.01049805,0,0,-0.001098633,0.3105164,3.998,0,0,0,0.2999878,nan,4,10.563,1,128,0.3036499,0.3781738,0.3443909,0.2158813,-0.04003906,0.02929688,0,1,3,0
33.135,0.00101,0.05273438,0.04882812,0.0234375,-1.914062,2.601562,14.80469,0.015625,-0.01367188,0.02929688,-0.0390625,0.046875,0,0.006469727,-0.0078125,-0.01025391,0,0,-0.001098633,0.3105164,3.998,0,0,0,0.2999878,nan,4,10.573,1,128,0.3180847,0.3646545,0.348175,0.2111816,-0.04003906,0.02929688,0,1,3,0
33.144,0.00101,0.05273438,0.0546875,-0.01953125,-0.5859375,2.765625,9.820312,-0.0078125,0.01171875,-0.005859375,-0.0390625,0.046875,0,0.006591797,-0.00769043,-0.01013184,0,0,-0.001098633,0.3105164,3.998,0,0,0,0.2999878,nan,4,10.582,1,128,0.2694092,0.410675,0.2915955,0.2704163,-0.04003906,0.02929688,0,1,3,0.04761905
33.155,0.00101,-0.03515625,-0.04492188,0.005859375,1.335938,0.4453125,7.234375,-0.05273438,0.015625,0,-0.0390625,0.04492188,0,0.006469727,-0.007568359,-0.01013184,0,0,-0.001098633,0.3105164,3.998,0,0,0,0.2999878,nan,4,10.592,1,128,0.3076782,0.3750916,0.3106689,0.2486572,-0.04003906,0.02929688,0,1,3,0
33.165,0.001009,-0.1738281,0.1777344,-0.015625,2.539062,-0.625,9.015625,-0.03320312,0.03320312,0.0078125,-0.0390625,0.046875,0,0.006469727,-0.00769043,-0.01000977,0,0,-0.001098633,0.3105164,3.998,0,0,0,0.2999878,nan,4,10.602,1,128,0.2938843,0.3737183,0.3108215,0.2636719,-0.04003906,0.02929688,0,1,3,0.1269841
33.175,0.00098,0.02734375,0.04492188,-0.02929688,1.5,-2.679688,8.054688,0.0234375,0.001953125,-0.001953125,-0.0390625,0.046875,0,0.006469727,-0.00769043,-0.01000977,0,0,-0.001098633,0.3105164,3.998,0,0,0,0.2999878,nan,4,10.612,1,128,0.2720947,0.4103699,0.3085327,0.2511292,-0.04003906,0.02929688,0,1,3,0
33.185,0.000954,-0.015625,0.1523438,-0.001953125,0.8359375,-3.90625,7.875,-0.015625,0.01171875,-0.005859375,-0.03710938,0.046875,0,0.006347656,-0.00793457,-0.01000977,0,0,-0.001098633,0.3105164,3.998,0,0,0,0.2999878,nan,4,10.622,1,128,0.2966003,0.3711548,0.3319092,0.2424316,-0.04003906,0.02929688,0,1,3,0
33.195,0.00099,0.08203125,0.07226562,0.01757812,0.7734375,-3.421875,8.875,0.02929688,0,0,-0.03710938,0.046875,0,0.006225586,-0.00793457,-0.01013184,0,0,-0.001098633,0.3105164,3.998,0,0,0,0.2999878,nan,4,10.632,1,128,0.3039246,0.3805847,0.3442993,0.2133179,-0.04003906,0.03027344,0,1,3,0.3650794
33.205,0.001007,0.04296875,-0.03320312,0.009765625,-1.679688,-2.828125,5.929688,-0.01171875,-0.04492188,0.001953125,-0.03710938,0.04882812,0,0.006225586,-0.008056641,-0.01013184,0,0,-0.001098633,0.3105164,3.998,0,0,0,0.2999878,nan,4,10.642,1,128,0.3157959,0.3819885,0.3193054,0.2250061,-0.04003906,0.03027344,0,1,3,0
33.215,0.00101,-0.01757812,-0.1699219,0.01953125,-1.5625,-0.8046875,8.117188,-0.02734375,-0.0546875,-0.005859375,-0.03710938,0.04882812,0,0.006225586,-0.008056641,-0.01025391,0,0,-0.001098633,0.3105164,3.998,0,0,0,0.2999878,nan,4,10.652,1,128,0.3218994,0.3936462,0.3014832,0.2250977,-0.04003906,0.03027344,0,1,3,0
33.225,0.00101,-0.04882812,-0.046875,-0.0078125,-1.101562,0.0234375,10.14844,-0.02148438,-0.015625,0.005859375,-0.03710938,0.04882812,0,0.006103516,-0.008178711,-0.01013184,0,0,-0.001098633,0.3105164,3.998,0,0,0,0.2999878,nan,4,10.663,1,128,0.3033752,0.3881226,0.3109741,0.2396545,-0.04003906,0.03027344,0,1,3,0
33.235,0.00101,-0.0703125,-0.0625,0.009765625,-3.234375,1.976562,13.35938,-0.04296875,0.0078125,-0.001953125,-0.03515625,0.04882812,0,0.005981445,-0.008300781,-0.01013184,0,0,-0.001098633,0.3105164,3.998,0,0,0,0.2999878,nan,4,10.673,1,128,0.3049622,0.3793335,0.3091431,0.2486877,-0.04003906,0.03027344,0,1,3,0
33.244,0.001004,-0.01757812,0.1777344,0.009765625,-0.203125,4.4375,13.36719,0.015625,0.0546875,0.005859375,-0.03515625,0.04882812,0,0.005737305,-0.008178711,-0.01013184,0,0,-0.001098633,0.3105164,3.998,0,0,0,0.2999878,nan,4,10.682,1,128,0.2896118,0.3720398,0.3489685,0.2314758,-0.04003906,0.03027344,0,1,3,0
33.255,0.001004,0.06640625,0.06640625,0.02539062,0.90625,3.085938,12.625,-0.02148438,0.03515625,0.015625,-0.03125,0.04882812,0,0.005126953,-0.00793457,-0.01000977,0,0,-0.001098633,0.3105164,3.998,0,0,0,0.2999878,nan,4,10.692,1,128,0.3135681,0.3638916,0.3539124,0.2107239,-0.04003906,0.03027344,0,1,3,0
33.265,0.001004,0.03515625,0.04882812,-0.01367188,1.117188,0.2109375,7.351562,-0.00390625,-0.0078125,0.00390625,-0.03125,0.046875,0,0.005126953,-0.00793457,-0.009887695,0,0,-0.001098633,0.3105164,3.998,0,0,0,0.2999878,nan,4,10.702,1,128,0.2875061,0.4023132,0.3072815,0.2450256,-0.04003906,0.03027344,0,1,3,0
33.275,0.001004,0.04101562,-0.09765625,0.00390625,2.960938,-0.21875,6,-0.01171875,-0.02148438,-0.00390625,-0.02929688,0.046875,0,0.005004883,-0.0078125,-0.01000977,0,0,-0.001098633,0.3105164,3.998,0,0,0,0.2999878,nan,4,10.712,1,128,0.3085327,0.3947449,0.3133545,0.2254944,-0.04003906,0.03027344,0,1,3,0
33.285,0.001003,-0.1484375,0.08984375,-0.01953125,1.515625,-0.421875,7.960938,-0.05859375,0.0546875,-0.009765625,-0.02929688,0.04492188,0,0.004882812,-0.007568359,-0.01000977,0,0,-0.001098633,0.3105164,3.998,0,0,0,0.2999878,nan,4,10.722,1,128,0.2913208,0.3784485,0.3013306,0.2709961,-0.04003906,0.03027344,0,1,3,0
33.295,0.001009,0.1152344,-0.05078125,0.0078125,0.703125,-2.6875,8.078125,0.07617188,-0.001953125,0.0078125,-0.02929688,0.04492188,0,0.005004883,-0.007446289,-0.009887695,0,0,-0.001098633,0.3105164,3.998,0,0,0,0.2999878,nan,4,10.732,1,128,0.2980652,0.3966675,0.3401794,0.2071838,-0.04101562,0.03027344,0,1,3,0
33.305,0.00101,0.001953125,-0.01367188,0.001953125,-0.5859375,-3.507812,12.58594,0.01367188,0.03125,-0.00390625,-0.03125,0.04492188,0,0.005126953,-0.007446289,-0.01000977,0,0,-0.001098633,0.3105164,3.998,0,0,0,0.2999878,nan,4,10.742,1,128,0.2904358,0.3857727,0.3216248,0.2442932,-0.04101562,0.03027344,0,1,3,0
33.315,0.001033,0.1152344,0.001953125,0.015625,-2.320312,-0.609375,11.54688,0.05273438,-0.009765625,0.001953125,-0.03125,0.04492188,0,0.005371094,-0.007446289,-0.01000977,0,0,-0.001098633,0.3105164,3.998,0,0,0,0.2999878,nan,4,10.752,1,128,0.3052979,0.3850403,0.3404541,0.2113647,-0.04101562,0.03027344,0,1,3,0
33.325,0.001061,0.0625,0.06054688,-0.00390625,-3.046875,-0.6796875,9.523438,0.009765625,0.03125,0.001953125,-0.03125,0.04492188,0,0.005371094,-0.007324219,-0.01000977,0,0,-0.001098633,0.3105164,3.998,0,0,0,0.2999878,nan,4,10.763,1,128,0.2827759,0.3875122,0.3254089,0.2464294,-0.04101562,0.03027344,0,1,3,0.5238096
33.335,0.001063,0.04101562,-0.0078125,0.01953125,-2.664062,2.179688,10.29688,-0.03710938,-0.03515625,0.001953125,-0.03125,0.04492188,0,0.005126953,-0.007568359,-0.01000977,0,0,-0.001098633,0.3105164,3.998,0,0,0,0.2999878,nan,4,10.773,1,128,0.3263855,0.3687439,0.3298035,0.2171631,-0.04101562,0.03027344,0,1,3,0
33.345,0.001004,-0.06445312,-0.09179688,-0.0078125,-0.6171875,3.507812,11.4375,-0.02148438,-0.001953125,0,-0.02929688,0.04492188,0,0.005004883,-0.007446289,-0.01000977,0,0,-0.001098633,0.3105164,3.998,0,0,0,0.2999878,nan,4,10.782,1,128,0.3042908,0.3894043,0.3094482,0.2389832,-0.04101562,0.03027344,0,1,3,0
33.355,0.00101,-0.03515625,0.04296875,0.005859375,0.15625,2.226562,11.27344,0.009765625,0.02148438,0.00390625,-0.02929688,0.04492188,0,0.005004883,-0.007324219,-0.01000977,0,0,-0.001098633,0.3105164,3.998,0,0,0,0.2999878,nan,4,10.792,1,128,0.2965088,0.3830872,0.3265991,0.2359314,-0.04101562,0.03027344,0,1,3,0
33.365,0.00101,0.01171875,-0.1074219,-0.01757812,2.0625,1.132812,12.92969,0.04492188,0.046875,-0.009765625,-0.03125,0.04296875,0,0.005126953,-0.006958008,-0.01000977,0,0,-0.001098633,0.3105164,3.993,0,0,0,0.2999878,nan,4,10.802,1,128,0.2756042,0.4050598,0.3161316,0.2453003,-0.04101562,0.03027344,0,1,3,0
33.375,0.00101,0.2246094,-0.01757812,0.05078125,1.757812,0.5703125,9.28125,0.0546875,-0.03320312,0.01757812,-0.03125,0.04296875,0,0.005004883,-0.007202148,-0.01000977,0,0,-0.001098633,0.3105164,3.993,0,0,0,0.2999878,nan,4,10.812,1,128,0.3261108,0.370697,0.3670654,0.1782227,-0.04101562,0.03027344,0,1,3,0
33.385,0.00101,0.0078125,0,0.005859375,1.5,-2.289062,4.09375,0.00390625,-0.0234375,0.00390625,-0.03320312,0.04492188,0,0.005371094,-0.007568359,-0.009887695,0,0,-0.001098633,0.3105164,3.993,0,0,0,0.2999878,nan,4,10.822,1,128,0.2973328,0.3889465,0.3117676,0.2440796,-0.04101562,0.03027344,0,1,3,0
33.395,0.000997,-0.0546875,-0.046875,-0.02539062,1.710938,-3.28125,5.382812,-0.05664062,0.001953125,-0.01757812,-0.03125,0.04492188,0,0.005249023,-0.007446289,-0.01000977,0,0,-0.001098633,0.3105164,3.993,0,0,0,0.2999878,nan,4,10.832,1,128,0.2885742,0.401825,0.281311,0.2704163,-0.04101562,0.03027344,0,1,3,0
33.405,0.001012,-0.046875,0.0859375,0.02539062,0.09375,-2.757812,8.265625,-0.1035156,0.05664062,0.001953125,-0.02734375,0.04296875,0,0.004760742,-0.007080078,-0.01013184,0,0,-0.001098633,0.3105164,3.993,0,0,0,0.2999878,nan,4,10.842,1,128,0.332489,0.3366394,0.3411865,0.231781,-0.04101562,0.03027344,0,1,3,0
33.415,0.001015,-0.0390625,0.01171875,-0.03125,-0.453125,-4.0625,7.367188,0.00390625,-0.005859375,0.00390625,-0.02734375,0.04101562,0,0.004394531,-0.006958008,-0.01000977,0,0,-0.001098633,0.3105164,3.993,0,0,0,0.2999878,nan,4,10.852,1,128,0.293457,0.4036255,0.3127136,0.2323303,-0.04101562,0.03027344,0,1,3,0
33.425,0.00101,0.00390625,0,-0.01367188,0.2890625,-3.578125,9.476562,-0.02148438,0.01757812,-0.009765625,-0.02539062,0.04296875,0,0.004394531,-0.007080078,-0.01000977,0,0,-0.001098633,0.3105164,3.993,0,0,0,0.2999878,nan,4,10.862,1,128,0.2770081,0.4013672,0.2981262,0.2655945,-0.04101562,0.03125,0,1,3,0.04761905
33.435,0.00101,-0.01367188,0.09570312,0.0234375,-0.2265625,-3.726562,11.57031,0.0078125,0.015625,0.009765625,-0.02539062,0.04296875,0,0.004394531,-0.007202148,-0.01013184,0,0,-0.001098633,0.3105164,3.993,0,0,0,0.2999878,nan,4,10.873,1,128,0.3276062,0.3474426,0.3625793,0.2044678,-0.04101562,0.03125,0,1,3,0
33.444,0.00101,0.1152344,0.08007812,0.01171875,-3.273438,-0.96875,12.34375,0.05078125,-0.02929688,0.005859375,-0.02539062,0.04296875,0,0.004272461,-0.007080078,-0.01013184,0,0,-0.001098633,0.3105164,3.993,0,0,0,0.2999878,nan,4,10.882,1,128,0.3126526,0.3894653,0.346283,0.1937256,-0.04101562,0.03125,0,1,3,0
33.454,0.00101,0.09765625,-0.01171875,-0.001953125,-2.15625,1.28125,12.89062,0.0390625,-0.03710938,0,-0.02734375,0.04296875,0,0.004638672,-0.007202148,-0.01013184,0,0,-0.001098633,0.3105164,3.993,0,0,0,0.2999878,nan,4,10.892,1,128,0.2964783,0.4011536,0.3161011,0.2283936,-0.04101562,0.03125,0,1,3,0
33.465,0.00101,-0.08789062,0.0078125,-0.04296875,-1.804688,2.460938,12.40625,-0.02148438,-0.01757812,-0.01953125,-0.02929688,0.04492188,0,0.004882812,-0.007446289,-0.01013184,0,0,-0.001098633,0.3105164,3.993,0,0,0,0.2999878,nan,4,10.902,1,128,0.2775574,0.4129028,0.2745361,0.2770996,-0.04101562,0.03125,0,1,3,0
33.475,0.001011,0.1015625,0.05859375,-0.009765625,-3.046875,2.757812,11.70312,-0.0078125,0.02539062,-0.01367188,-0.02734375,0.04296875,0,0.004516602,-0.007202148,-0.01037598,0,0,-0.001098633,0.3105164,3.993,0,0,0,0.2999878,nan,4,10.912,1,128,0.2939148,0.3892822,0.3273926,0.2315063,-0.04101562,0.03125,0,1,3,0
33.485,0.001038,0.05078125,-0.1230469,0,-0.34375,3.710938,11.41406,-0.03320312,0.05078125,0,-0.02539062,0.03710938,0,0.004150391,-0.006225586,-0.01037598,0,0,-0.001098633,0.3105164,3.993,0,0,0,0.2999878,nan,4,10.922,1,128,0.3197021,0.3729553,0.3270874,0.2223511,-0.04101562,0.03125,0,1,3,0
33.495,0.001057,-0.03125,-0.1308594,0.001953125,0.90625,2.875,10.49219,0.015625,-0.005859375,0.001953125,-0.02734375,0.03710938,0,0.004516602,-0.006225586,-0.01037598,0,0,-0.001098633,0.3105164,3.993,0,0,0,0.2999878,nan,4,10.932,1,128,0.3027649,0.3953552,0.3092651,0.2347107,-0.04101562,0.03125,0,1,3,0
33.505,0.000994,0.01953125,-0.03320312,0.01171875,1.117188,1.429688,9.484375,0.005859375,-0.01171875,0.009765625,-0.02734375,0.0390625,0,0.004516602,-0.006469727,-0.01025391,0,0,-0.001098633,0.3105164,3.993,0,0,0,0.2999878,nan,4,10.942,1,128,0.3099976,0.3777161,0.3300476,0.2243652,-0.04101562,0.03125,0,1,3,0.3650794
33.515,0.0009869999,0.109375,-0.08007812,0.01757812,1.773438,0.4140625,9.460938,0.0546875,-0.1054688,0.009765625,-0.02734375,0.04101562,0,0.004516602,-0.006835938,-0.01025391,0,0,-0.001098633,0.3105164,3.993,0,0,0,0.2999878,nan,4,10.952,1,128,0.3178406,0.4083252,0.3211365,0.1948242,-0.04101562,0.03125,0,1,3,0.5714286
33.524,0.000989,-0.03515625,0.046875,0.001953125,2.328125,-0.5078125,9.039062,0.001953125,0.0078125,0.009765625,-0.02929688,0.04296875,0,0.004882812,-0.007202148,-0.01013184,0,0,-0.001098633,0.3105164,3.993,0,0,0,0.2999878,nan,4,10.962,1,128,0.2981873,0.3711548,0.3261108,0.2466736,-0.04101562,0.03125,0,1,3,0.03174603
33.534,0.001012,0.01367188,0.01953125,0.01757812,1.296875,-2.6875,5.828125,0.009765625,-0.01367188,0.02148438,-0.02734375,0.04296875,0,0.004638672,-0.007202148,-0.01000977,0,0,-0.001098633,0.3105164,3.993,0,0,0,0.2999878,nan,4,10.972,1,128,0.3158264,0.3772278,0.3400574,0.2089844,-0.04101562,0.03125,0,1,3,0
33.544,0.001007,0.01171875,-0.04296875,-0.01367188,0.6796875,-3.625,7.25,-0.01757812,-0.03515625,-0.00390625,-0.02734375,0.04492188,0,0.004516602,-0.007568359,-0.009887695,0,0,-0.001098633,0.3105164,3.993,0,0,0,0.2999878,nan,4,10.982,1,128,0.2781677,0.4160461,0.2863159,0.2615967,-0.04101562,0.03125,0,1,3,0
33.555,0.001056,-0.1152344,0.08007812,0.009765625,-1.289062,-3.015625,7.296875,-0.04101562,0.03515625,0.005859375,-0.02734375,0.04492188,0,0.004516602,-0.007446289,-0.009887695,0,0,-0.001098633,0.3105164,3.993,0,0,0,0.2999878,nan,4,10.992,1,128,0.3187256,0.3564148,0.3298645,0.2371216,-0.04101562,0.03125,0,1,3,0
33.565,0.001051,-0.06445312,-0.1386719,0.03710938,-1.96875,-1.726562,10.5625,0.02539062,-0.1113281,0.01757812,-0.02734375,0.04492188,0,0.004638672,-0.00769043,-0.009765625,0,0,-0.001098633,0.3105164,3.993,0,0,0,0.2999878,nan,4,11.002,1,128,0.3439941,0.3911438,0.3201599,0.1867981,-0.04101562,0.03125,0,1,3,0
33.575,0.001038,0.0234375,-0.1210938,0.0234375,-1.015625,0.90625,14.42188,0.0078125,-0.04296875,0.01171875,-0.02734375,0.05078125,0,0.004638672,-0.008422852,-0.009643555,0,0,-0.001098633,0.3105164,3.993,0,0,0,0.2999878,nan,4,11.012,1,128,0.3013916,0.3878784,0.3200378,0.2328186,-0.04101562,0.03125,0,1,3,0
33.585,0.001005,0.02734375,0.01171875,0.0078125,-2.5,3.914062,13.85156,0.01953125,0.009765625,-0.001953125,-0.02734375,0.05078125,0,0.004760742,-0.008544922,-0.009643555,0,0,-0.001098633,0.3105164,3.993,0,0,0,0.2999878,nan,4,11.022,1,128,0.2866821,0.3922119,0.323761,0.2394714,-0.04101562,0.03125,0,1,3,0
33.595,0.001006,0.005859375,0.09375,-0.009765625,-0.453125,4.335938,12.44531,0,0.01367188,-0.001953125,-0.02929688,0.05273438,0,0.004760742,-0.008789062,-0.009643555,0,0,-0.001098633,0.3105164,3.993,0,0,0,0.2999878,nan,4,11.032,1,128,0.2926941,0.3804321,0.325531,0.2434387,-0.04101562,0.03125,0,1,3,0
33.605,0.00101,-0.0546875,0.078125,-0.009765625,0.7578125,2.523438,10.09375,-0.08398438,0.0390625,0.00390625,-0.02539062,0.04882812,0,0.004272461,-0.008300781,-0.009643555,0,0,-0.001098633,0.3105164,3.993,0,0,0,0.2999878,nan,4,11.042,1,128,0.317749,0.3695984,0.3159485,0.2388,-0.04101562,0.03125,0,1,3,0
33.615,0.001005,-0.08398438,-0.03320312,-0.03125,1.609375,0.4921875,6.914062,-0.05078125,0.005859375,-0.01757812,-0.0234375,0.046875,0,0.00402832,-0.0078125,-0.009643555,0,0,-0.001098633,0.3105164,3.993,0,0,0,0.2999878,nan,4,11.052,1,128,0.2812805,0.4204407,0.2707825,0.2696228,-0.04101562,0.03222656,0,1,3,0
33.625,0.001007,-0.07421875,-0.078125,-0.009765625,0.9375,1.734375,8.695312,-0.06445312,-0.00390625,-0.02734375,-0.0234375,0.046875,0,0.00378418,-0.00769043,-0.009887695,0,0,-0.001098633,0.3105164,3.993,0,0,0,0.2999878,nan,4,11.062,1,128,0.3016968,0.3997192,0.2828064,0.2579041,-0.04101562,0.03222656,0,1,3,0
33.635,0.001005,-0.1191406,0.0546875,-0.06445312,2.109375,1.898438,11.625,0.03710938,-0.04296875,-0.0234375,-0.0234375,0.046875,0,0.00402832,-0.00769043,-0.01000977,0,0,-0.001098633,0.3105164,3.993,0,0,0,0.2999878,nan,4,11.073,1,128,0.2840271,0.4259949,0.2839355,0.2481384,-0.04101562,0.03222656,0,1,3,0
33.644,0.001014,0.0625,0.02148438,-0.04296875,1.828125,-0.3359375,8.148438,0.07617188,0.01953125,-0.00390625,-0.02539062,0.046875,0,0.004394531,-0.0078125,-0.01013184,0,0,-0.001098633,0.3105164,3.993,0,0,0,0.2999878,nan,4,11.082,1,128,0.2705688,0.4047241,0.3224792,0.2443237,-0.04199219,0.03222656,0,1,3,0
33.654,0.001015,0.01171875,0.09765625,-0.00390625,1.90625,-1.960938,8.148438,-0.001953125,0.005859375,-0.00390625,-0.02734375,0.04882812,0,0.004638672,-0.008056641,-0.01013184,0,0,-0.001098633,0.3105164,3.993,0,0,0,0.2999878,nan,4,11.092,1,128,0.3093262,0.3697815,0.3303223,0.232666,-0.04199219,0.03222656,0,1,3,0
33.665,0.001015,0.1171875,-0.2753906,0.02148438,2,-2.585938,7.335938,0.06640625,-0.05859375,0.00390625,-0.02734375,0.04882812,0,0.004638672,-0.008056641,-0.01025391,0,0,-0.001098633,0.3105164,3.993,0,0,0,0.2999878,nan,4,11.102,1,128,0.3196716,0.400177,0.3374634,0.1848145,-0.04199219,0.03222656,0,1,3,0
33.675,0.001016,0.05859375,0.08203125,0.009765625,0.765625,-5.515625,6.21875,0.01757812,0.001953125,0.01171875,-0.02929688,0.05078125,0,0.004760742,-0.008422852,-0.01013184,0,0,-0.001098633,0.3105164,3.993,0,0,0,0.2999878,nan,4,11.112,1,128,0.3003845,0.3790588,0.3348694,0.2278137,-0.04199219,0.03222656,0,1,3,0
33.685,0.001016,-0.01367188,0.02539062,-0.015625,-0.2265625,-3.914062,8.101562,0,0.01757812,-0.0078125,-0.02929688,0.04882812,0,0.004882812,-0.008178711,-0.01013184,0,0,-0.001098633,0.3105164,3.993,0,0,0,0.2999878,nan,4,11.122,1,128,0.2844238,0.4035339,0.2995605,0.2545776,-0.04199219,0.03222656,0,1,3,0
33.695,0.00108,0.1074219,-0.09765625,0.02539062,-1.25,-2.179688,7.960938,-0.00390625,-0.01367188,0.005859375,-0.02734375,0.046875,0,0.004760742,-0.00793457,-0.01013184,0,0,-0.001098633,0.3105164,3.993,0,0,0,0.2999878,nan,4,11.132,1,128,0.3188782,0.3890381,0.3237,0.2104797,-0.04199219,0.03222656,0,1,3,0
33.705,0.001017,-0.05664062,-0.15625,0.0234375,-2.226562,-0.7109375,8.78125,0.03515625,-0.08007812,0.01757812,-0.03125,0.046875,0,0.005126953,-0.0078125,-0.01000977,0,0,-0.001098633,0.3105164,3.993,0,0,0,0.2999878,nan,4,11.142,1,128,0.3450317,0.3886108,0.3193665,0.1891174,-0.04199219,0.03222656,0,1,3,0
33.715,0.001037,-0.04296875,0.0078125,0,-1.382812,2.421875,15.85938,0.0234375,0.005859375,0.0078125,-0.03125,0.046875,0,0.005249023,-0.00793457,-0.009887695,0,0,-0.001098633,0.3105164,3.993,0,0,0,0.2999878,nan,4,11.152,1,128,0.2920532,0.3939209,0.3183899,0.2377319,-0.04199219,0.03222656,0,1,3,0
33.725,0.001024,-0.03515625,0.01953125,-0.0234375,-2.640625,2.15625,13.48438,0.01171875,0.01953125,-0.005859375,-0.03125,0.04882812,0,0.005371094,-0.008056641,-0.009887695,0,0,-0.001098633,0.3105164,3.993,0,0,0,0.2999878,nan,4,11.163,1,128,0.2805786,0.3995056,0.3113098,0.2507324,-0.04199219,0.03222656,0,1,3,0
33.735,0.001015,0.1152344,0.1484375,0.03125,-2.5,3.1875,13.53125,0.04492188,0.06054688,0.015625,-0.03320312,0.046875,0,0.005371094,-0.00793457,-0.009765625,0,0,-0.001098633,0.3105164,3.993,0,0,0,0.2999878,nan,4,11.173,1,128,0.3031616,0.360321,0.3686218,0.2099915,-0.04199219,0.03222656,0,1,3,0
33.744,0.00101,0.09179688,-0.009765625,0.03710938,1.070312,3.328125,12.59375,0.02148438,-0.01367188,0.02539062,-0.03320312,0.046875,0,0.005493164,-0.0078125,-0.009643555,0,0,-0.001098633,0.3105164,3.993,0,0,0,0.2999878,nan,4,11.182,1,128,0.3249512,0.3757935,0.3416443,0.199707,-0.04199219,0.03222656,0,1,3,0
33.754,0.000993,0.03125,0.04296875,-0.01171875,0.7421875,1.335938,7.6875,-0.01367188,-0.01367188,-0.005859375,-0.03320312,0.046875,0,0.005493164,-0.00793457,-0.009643555,0,0,-0.001098633,0.3105164,3.993,0,0,0,0.2999878,nan,4,11.192,1,128,0.2836609,0.4094238,0.2940369,0.2549744,-0.04199219,0.03222656,0,1,3,0
33.765,0.00101,0.1074219,-0.08789062,-0.001953125,1.921875,1.765625,8.289062,0.01953125,-0.04296875,0,-0.03320312,0.04882812,0,0.005493164,-0.008056641,-0.009643555,0,0,-0.001098633,0.3105164,3.993,0,0,0,0.2999878,nan,4,11.202,1,128,0.3143005,0.3982544,0.3243713,0.2052002,-0.04199219,0.03222656,0,1,3,0
33.775,0.00101,-0.01367188,-0.08789062,0.04882812,2.492188,0.875,7.40625,-0.01171875,-0.05078125,0.02929688,-0.03320312,0.04882812,0,0.005615234,-0.008056641,-0.009643555,0,0,-0.001098633,0.3105164,3.993,0,0,0,0.2999878,nan,4,11.212,1,128,0.3752747,0.3405457,0.3632507,0.1630554,-0.04199219,0.03222656,0,1,3,0
33.785,0.001009,-0.05078125,-0.06835938,-0.01367188,1.171875,-0.7421875,8.210938,0.001953125,-0.005859375,-0.00390625,-0.03320312,0.04882812,0,0.005493164,-0.008178711,-0.009521484,0,0,-0.001098633,0.3105164,3.993,0,0,0,0.2999878,nan,4,11.222,1,128,0.2740479,0.4197693,0.287384,0.2608948,-0.04199219,0.03222656,0,1,3,0
33.795,0.00101,-0.00390625,0.08398438,0.0390625,2.703125,-0.2109375,9.34375,-0.02539062,0.0546875,0.01367188,-0.03125,0.04882812,0,0.005249023,-0.008300781,-0.009521484,0,0,-0.001098633,0.3105164,3.993,0,0,0,0.2999878,nan,4,11.232,1,128,0.3190613,0.3450012,0.3591003,0.2189331,-0.04199219,0.03222656,0,1,3,0.5873016
33.805,0.001007,-0.001953125,0.1582031,0.02148438,2.234375,-0.9609375,8.054688,0.04296875,0.1621094,-0.005859375,-0.03320312,0.046875,0,0.005737305,-0.00769043,-0.009521484,0,0,-0.001098633,0.3105164,3.993,0,0,0,0.2999878,nan,4,11.242,1,128,0.2717285,0.3575745,0.3569641,0.2558289,-0.04199219,0.03222656,0,1,3,0
33.815,0.00101,0.05664062,0.015625,-0.00390625,-0.484375,-2.890625,7.625,0.02539062,0.02539062,-0.001953125,-0.03515625,0.04296875,0,0.005859375,-0.007202148,-0.009521484,0,0,-0.001098633,0.3105164,3.993,0,0,0,0.2999878,nan,4,11.252,1,128,0.3014832,0.3936768,0.3201904,0.2267456,-0.04199219,0.03222656,0,1,3,0
33.825,0.001007,0.03125,-0.01953125,-0.01757812,2.210938,-1.539062,9.132812,0.0390625,-0.009765625,-0.00390625,-0.03710938,0.04296875,0,0.006103516,-0.007202148,-0.009643555,0,0,-0.001098633,0.3105164,3.993,0,0,0,0.2999878,nan,4,11.262,1,128,0.2986755,0.3989868,0.3218689,0.2225647,-0.04199219,0.03222656,0,1,3,0.3174603
33.835,0.00101,0.03320312,0.0546875,-0.0078125,2.179688,-2.398438,8.007812,0.01367188,0.04296875,-0.01171875,-0.03710938,0.04296875,0,0.006103516,-0.007080078,-0.009643555,0,0,-0.001098633,0.3105164,3.993,0,0,0,0.2999878,nan,4,11.273,1,128,0.2668152,0.406189,0.3073425,0.2617493,-0.04199219,0.03222656,0,1,3,0
33.845,0.00101,0.02929688,0.04882812,0.02734375,-0.03125,-4.867188,5.6875,0.03320312,-0.00390625,0.02539062,-0.0390625,0.04101562,0,0.006591797,-0.006835938,-0.009521484,0,0,-0.001098633,0.3105164,3.993,0,0,0,0.2999878,nan,4,11.283,1,128,0.3370056,0.3590393,0.3557434,0.1903076,-0.04199219,0.03320312,0,1,3,0
33.855,0.00097,0,0.05078125,-0.0078125,-1.054688,-1.796875,10.63281,-0.015625,0.04101562,0.009765625,-0.04101562,0.04101562,0,0.006835938,-0.006835938,-0.009277344,0,0,-0.001098633,0.3105164,3.993,0,0,0,0.2999878,nan,4,11.292,1,128,0.2834778,0.3919373,0.3025513,0.2641296,-0.04199219,0.03320312,0,1,3,0
33.865,0.001032,0,-0.03515625,0.02929688,-2.320312,0.6171875,9.820312,0.0078125,-0.01757812,0.01953125,-0.04101562,0.0390625,0,0.006835938,-0.006713867,-0.009277344,0,0,-0.001098633,0.3105164,3.993,0,0,0,0.2999878,nan,4,11.302,1,128,0.3267822,0.378479,0.3344421,0.2023926,-0.04296875,0.03320312,0,1,3,0.0952381
33.875,0.001021,0.01953125,-0.09375,0.0078125,-2.96875,2.867188,13.55469,0.02929688,-0.02539062,0.001953125,-0.04101562,0.04101562,0,0.006958008,-0.006713867,-0.009155273,0,0,-0.001098633,0.3105164,3.993,0,0,0,0.2999878,nan,4,11.312,1,128,0.3013611,0.4029846,0.315033,0.2227173,-0.04296875,0.03320312,0,1,3,0
33.885,0.001012,-0.05273438,0.03320312,-0.005859375,-0.9765625,3.46875,15.34375,0.01953125,0.02734375,0.0078125,-0.04101562,0.0390625,0,0.006958008,-0.006591797,-0.009033203,0,0,-0.001098633,0.3105164,3.993,0,0,0,0.2999878,nan,4,11.322,1,128,0.2906494,0.3927002,0.3247375,0.2340088,-0.04296875,0.03320312,0,1,3,0
33.895,0.001016,0.0859375,0.06640625,0.001953125,-1.164062,4.546875,14.65625,0.02539062,0.015625,0,-0.04101562,0.0390625,0,0.006835938,-0.006469727,-0.009033203,0,0,-0.001098633,0.3105164,3.993,0,0,0,0.2999878,nan,4,11.332,1,128,0.2828369,0.4026794,0.3256226,0.2309875,-0.04296875,0.03320312,0,1,3,0
33.905,0.001017,0.09765625,0.01953125,-0.009765625,0.296875,1.90625,9.53125,0.00390625,0.02148438,-0.01171875,-0.04101562,0.0390625,0,0.006835938,-0.006469727,-0.009033203,0,0,-0.001098633,0.3105164,3.993,0,0,0,0.2999878,nan,4,11.342,1,128,0.2772827,0.4046936,0.3123169,0.2478333,-0.04296875,0.03320312,0,1,3,0.2380952
33.915,0.001013,0.08984375,-0.08007812,0.01171875,1.609375,2.03125,10.86719,0.015625,0.005859375,0.001953125,-0.0390625,0.03515625,0,0.006469727,-0.005737305,-0.009155273,0,0,-0.001098633,0.3105164,3.993,0,0,0,0.2999878,nan,4,11.352,1,128,0.313385,0.3995056,0.3336487,0.1955566,-0.04296875,0.03320312,0,1,3,0
33.925,0.001016,0.01367188,-0.0625,0.01171875,0.8359375,2.351562,9.648438,0.02734375,-0.06054688,0.01367188,-0.04101562,0.03515625,0,0.006835938,-0.005981445,-0.009033203,0,0,-0.001098633,0.3105164,3.993,0,0,0,0.2999878,nan,4,11.362,1,128,0.3221436,0.3934937,0.3228455,0.2036133,-0.04296875,0.03320312,0,1,3,0.1111111
33.935,0.001016,-0.001953125,0.0390625,-0.03515625,1.242188,0.7421875,7.59375,-0.015625,-0.0078125,-0.0078125,-0.04296875,0.03710938,0,0.007080078,-0.006225586,-0.008911133,0,0,-0.001098633,0.3105164,3.993,0,0,0,0.2999878,nan,4,11.373,1,128,0.2727051,0.4144287,0.2825623,0.2724304,-0.04296875,0.03320312,0,1,3,0
33.944,0.00101,-0.03515625,-0.005859375,0.01171875,2.398438,-1.851562,8.140625,-0.0234375,-0.0078125,-0.00390625,-0.04296875,0.03710938,0,0.007080078,-0.006225586,-0.009033203,0,0,-0.001098633,0.3105164,3.993,0,0,0,0.2999878,nan,4,11.382,1,128,0.3163147,0.3779297,0.3223877,0.2254639,-0.04296875,0.03320312,0,1,3,0
33.954,0.00101,-0.1757812,-0.009765625,0.01757812,1.0625,-2.859375,8.554688,-0.03125,0.06054688,0.001953125,-0.04101562,0.03515625,0,0.006958008,-0.005859375,-0.009155273,0,0,-0.001098633,0.309021,3.993,0,0,0,0.2982178,nan,4,11.392,1,128,0.315094,0.3599548,0.3328247,0.2281494,-0.04296875,0.03320312,0,1,3,0
33.965,0.001075,0.0078125,0.04882812,0.001953125,-0.28125,-4.25,9.40625,0.01367188,0.01953125,0.01171875,-0.0390625,0.03320312,0,0.006591797,-0.005737305,-0.009033203,0,0,-0.001098633,0.307312,3.993,0,0,0,0.2962036,nan,4,11.402,1,128,0.2922974,0.3901367,0.3299866,0.2168884,-0.04296875,0.03320312,0,1,3,0
33.975,0.00101,-0.01171875,0.001953125,-0.01367188,0.359375,-4.398438,10.97656,-0.01367188,0.0078125,-0.005859375,-0.0390625,0.03515625,0,0.006469727,-0.005737305,-0.009033203,0,0,-0.001098633,0.3056335,3.993,0,0,0,0.2941895,nan,4,11.412,1,128,0.2811584,0.3956299,0.3036499,0.2421265,-0.04296875,0.03320312,0,1,3,0
33.985,0.001011,0.1738281,0.00390625,0.02148438,-1.726562,-2.601562,9.742188,0.04492188,-0.01367188,0.009765625,-0.0390625,0.03515625,0,0.006347656,-0.005859375,-0.009033203,0,0,-0.001098633,0.3039551,3.993,0,0,0,0.2921753,nan,4,11.422,1,128,0.302948,0.3772583,0.3491516,0.1864929,-0.04296875,0.03320312,0,1,3,0.1111111
33.995,0.001009,0.005859375,0.07421875,0.046875,-2.742188,0.015625,8.859375,-0.04296875,-0.0390625,0.02734375,-0.03710938,0.03710938,0,0.006225586,-0.006225586,-0.008789062,0,0,-0.001098633,0.3022766,3.993,0,0,0,0.2902222,nan,4,11.432,1,128,0.3323669,0.3465576,0.3392029,0.190979,-0.04296875,0.03320312,0,1,3,0
34.005,0.001003,-0.1523438,-0.09375,-0.01367188,-1.164062,0.890625,10.33594,-0.03710938,-0.005859375,0,-0.03710938,0.03515625,0,0.006225586,-0.005859375,-0.008666992,0,0,-0.001098633,0.300415,3.993,0,0,0,0.2880249,nan,4,11.442,1,128,0.284729,0.3999023,0.273468,0.2435608,-0.04296875,0.03320312,0,1,3,0
34.015,0.001032,0.03125,0.0078125,0,-3.015625,3.1875,12.75,0.005859375,0.01171875,0.001953125,-0.03710938,0.03320312,0,0.006103516,-0.005737305,-0.008789062,0,0,-0.001098633,0.2987366,3.996,0,0,0,0.2860107,nan,4,11.452,1,128,0.2927246,0.3779602,0.3164673,0.2077637,-0.04296875,0.03320312,0,1,3,0
34.025,0.001,-0.1054688,-0.1210938,0.03125,-3.679688,0.140625,11.50781,-0.08007812,0.02148438,-0.00390625,-0.03515625,0.03125,0,0.005859375,-0.005249023,-0.008911133,0,0,-0.001098633,0.2970581,3.996,0,0,0,0.2839966,nan,4,11.462,1,128,0.328949,0.3441467,0.3078613,0.2072449,-0.04296875,0.03320312,0,1,3,0
34.035,0.000976,-0.109375,0.1171875,0.01171875,-2.695312,1.46875,13.85156,-0.05078125,0.09375,0.01757812,-0.03125,0.02929688,0,0.005371094,-0.005004883,-0.008789062,0,0,-0.001098633,0.2953796,3.996,0,0,0,0.2819824,nan,4,11.473,1,128,0.2897034,0.3363953,0.3333435,0.2219849,-0.04296875,0.03320312,0,1,3,0
34.045,0.001009,0.04296875,-0.009765625,-0.005859375,-1.367188,2.515625,15.46875,0.0390625,-0.00390625,0.015625,-0.03125,0.02929688,0,0.005249023,-0.005004883,-0.008544922,0,0,-0.001098633,0.2936707,3.996,0,0,0,0.2800293,nan,4,11.483,1,128,0.2774963,0.3804932,0.3175659,0.1991577,-0.04296875,0.03320312,0,1,3,0
34.054,0.001007,0.0078125,-0.05664062,-0.03710938,-1.210938,2.921875,12.25781,0.02148438,-0.02929688,-0.015625,-0.03320312,0.03125,0,0.005615234,-0.005249023,-0.008666992,0,0,-0.001098633,0.2921753,3.996,0,0,0,0.2781982,nan,4,11.492,1,128,0.2519531,0.4093628,0.2659912,0.2413635,-0.04296875,0.03320312,0,1,3,0
34.065,0.001046,0.046875,0.03320312,0.05078125,-0.8046875,3.789062,11.19531,-0.02929688,0.04101562,0.01953125,-0.03320312,0.03125,0,0.005493164,-0.005249023,-0.008544922,0,0,-0.001098633,0.2904968,3.996,0,0,0,0.2761841,nan,4,11.502,1,128,0.3151245,0.3156738,0.3474121,0.1837463,-0.04296875,0.03320312,0,1,3,0
34.075,0.001027,0.1347656,-0.0390625,0.01367188,0.5625,3.671875,12.09375,-0.01757812,-0.005859375,0.01757812,-0.02929688,0.03125,0,0.004882812,-0.005249023,-0.008422852,0,0,-0.001098633,0.2887878,3.996,0,0,0,0.2741699,nan,4,11.512,1,128,0.2783813,0.3758545,0.3070374,0.1939392,-0.04296875,0.03320312,0,1,3,0
34.085,0.001015,-0.1132812,-0.05078125,0.02734375,0.046875,3.53125,9.242188,-0.046875,-0.02734375,0.0078125,-0.02929688,0.03320312,0,0.004882812,-0.005371094,-0.008300781,0,0,-0.001098633,0.2871094,3.996,0,0,0,0.2722168,nan,4,11.522,1,128,0.3011169,0.3512573,0.293396,0.2026978,-0.04296875,0.03320312,0,1,3,0.1269841
34.095,0.001016,-0.02929688,-0.08398438,-0.00390625,-0.03125,2.453125,9.5,-0.05273438,0.01367188,-0.001953125,-0.02734375,0.03125,0,0.004394531,-0.005249023,-0.008300781,0,0,-0.001098633,0.2854309,3.996,0,0,0,0.2702026,nan,4,11.532,1,128,0.263092,0.3806763,0.2712708,0.2267151,-0.04296875,0.03320312,0,1,3,0.8095238
34.105,0.001015,0.01367188,-0.1015625,-0.01953125,0.21875,3.085938,10.05469,-0.04296875,-0.05859375,-0.01367188,-0.0234375,0.03320312,0,0.00402832,-0.005737305,-0.008300781,0,0,-0.001098633,0.2835693,3.996,0,0,0,0.2680054,nan,4,11.542,1,128,0.2647705,0.3912354,0.2591553,0.2191467,-0.04296875,0.03320312,0,1,3,0
34.115,0.00102,-0.02539062,-0.0234375,0.02929688,-0.046875,3.523438,11.05469,0.02148438,0.01367188,0.015625,-0.02539062,0.03320312,0,0.004272461,-0.005615234,-0.008178711,0,0,-0.001098633,0.2818909,3.996,0,0,0,0.2659912,nan,4,11.552,1,128,0.2869568,0.3452148,0.3098145,0.1856079,-0.04296875,0.03320312,0,1,3,0
34.124,0.00103,0.03125,0.01367188,0.01171875,-1.601562,4.28125,12.39062,0.02539062,0.015625,-0.00390625,-0.02539062,0.03320312,0,0.004272461,-0.005493164,-0.008178711,0,0,-0.001098633,0.280365,3.996,0,0,0,0.2642212,nan,4,11.561,1,128,0.2540588,0.3728638,0.287384,0.2072144,-0.04296875,0.03320312,0,1,3,0
34.134,0.001009,-0.02539062,-0.01953125,-0.0078125,-2.125,3.570312,12.77344,0,0.01757812,0.001953125,-0.02539062,0.03125,0,0.004272461,-0.005249023,-0.008178711,0,0,-0.001098633,0.2786865,3.996,0,0,0,0.262207,nan,4,11.572,1,128,0.2831116,0.3504028,0.2949219,0.1863403,-0.04296875,0.03320312,0,1,3,0
34.145,0.001015,-0.1054688,-0.1113281,-0.01757812,-3.234375,1.164062,11.85938,-0.009765625,-0.04101562,-0.00390625,-0.02539062,0.03125,0,0.004394531,-0.005371094,-0.008300781,0,0,-0.001098633,0.2768555,3.996,0,0,0,0.2600098,nan,4,11.583,1,128,0.2731018,0.3672485,0.2671509,0.1998901,-0.04296875,0.03320312,0,1,3,0
34.154,0.00101,0,0.06835938,-0.03515625,-1.414062,2.796875,16.08594,0.02148438,0.02539062,-0.01171875,-0.02539062,0.03320312,0,0.004394531,-0.005615234,-0.008300781,0,0,-0.001098633,0.2753296,3.996,0,0,0,0.2581787,nan,4,11.592,1,128,0.2339172,0.3668518,0.28302,0.2174988,-0.04296875,0.03320312,0,1,3,0
34.165,0.00101,0.001953125,0.0625,0.02148438,-2.6875,-0.578125,12.09375,-0.01367188,0.00390625,0.009765625,-0.02539062,0.03320312,0,0.004272461,-0.005615234,-0.008422852,0,0,-0.001098633,0.2736511,3.996,0,0,0,0.2562256,nan,4,11.602,1,128,0.2940674,0.3193665,0.3132324,0.1679077,-0.04296875,0.03417969,0,1,3,0
34.175,0.00101,-0.07617188,-0.02539062,0.01171875,-1.164062,-3.898438,6.828125,-0.0078125,-0.0625,-0.001953125,-0.02734375,0.03515625,0,0.004516602,-0.005859375,-0.008422852,0,0,-0.001098633,0.2719421,3.996,0,0,0,0.2542114,nan,4,11.612,1,128,0.2760315,0.35849,0.2640686,0.1892395,-0.04296875,0.03417969,0,1,3,0
34.185,0.00101,-0.02539062,0.01757812,0.0078125,0.1328125,-4.320312,6.796875,0.001953125,0.01367188,0.005859375,-0.02734375,0.03710938,0,0.004516602,-0.006103516,-0.008300781,0,0,-0.001098633,0.2702637,3.996,0,0,0,0.2521973,nan,4,11.622,1,128,0.263916,0.3378601,0.2897034,0.1895752,-0.04296875,0.03417969,0,1,3,0
34.195,0.001011,0,-0.02734375,-0.01367188,1.28125,-2.625,6.421875,0.02148438,0.01171875,0.005859375,-0.02734375,0.03515625,0,0.004516602,-0.005859375,-0.008300781,0,0,-0.001098633,0.2685852,3.996,0,0,0,0.2501831,nan,4,11.632,1,128,0.2493591,0.3591919,0.2754822,0.1903076,-0.04296875,0.03417969,0,1,3,0
34.205,0.000991,-0.03320312,0.1054688,0.009765625,2.75,0.7890625,9.320312,-0.005859375,0.0234375,0.0078125,-0.02734375,0.03515625,0,0.004638672,-0.005981445,-0.008178711,0,0,-0.001098633,0.2667236,3.996,0,0,0,0.2479858,nan,4,11.642,1,128,0.2663879,0.3248291,0.2935486,0.1822205,-0.04296875,0.03417969,0,1,3,0.7460318
34.215,0.001003,0.02539062,-0.1191406,0.01367188,2.101562,3.453125,10.79688,0.03125,-0.06640625,0.01171875,-0.02734375,0.03515625,0,0.004638672,-0.005981445,-0.008178711,0,0,-0.001098633,0.2650452,3.996,0,0,0,0.2459717,nan,4,11.652,1,128,0.2750854,0.3569336,0.2742615,0.1539612,-0.04394531,0.03417969,0,1,3,0
34.225,0.001012,-0.01367188,0.015625,-0.0078125,-1.820312,3.304688,13.07031,0,0.00390625,0,-0.02734375,0.03710938,0,0.004638672,-0.006225586,-0.008056641,0,0,-0.001098633,0.2633667,3.996,0,0,0,0.2440186,nan,4,11.662,1,128,0.2393799,0.3520508,0.2641907,0.197876,-0.04394531,0.03417969,0,1,3,0
34.235,0.00101,0.04101562,-0.015625,0.01367188,-2.890625,-2.265625,9.109375,-0.0078125,0,0.01171875,-0.02734375,0.03710938,0,0.004516602,-0.006103516,-0.008056641,0,0,-0.001098633,0.2616882,3.996,0,0,0,0.2420044,nan,4,11.673,1,128,0.2651978,0.3340759,0.2818298,0.1656189,-0.04394531,0.03417969,0,1,3,0.6190476
34.245,0.00101,-0.07617188,-0.0234375,0.001953125,-0.203125,-6.4375,3.726562,-0.02148438,0.009765625,0.00390625,-0.02734375,0.03710938,0,0.004638672,-0.006103516,-0.00793457,0,0,-0.001098633,0.2600098,3.996,0,0,0,0.2399902,nan,4,11.683,1,128,0.2520447,0.3351746,0.2606812,0.1921082,-0.04394531,0.03417969,0,1,3,0
34.254,0.00101,-0.0234375,0,0.009765625,0.78125,-3.34375,6.046875,0,0.02148438,0.01171875,-0.02734375,0.03710938,0,0.004516602,-0.005981445,-0.00793457,0,0,-0.001098633,0.2584839,3.996,0,0,0,0.2382202,nan,4,11.692,1,128,0.2539368,0.3292542,0.2808533,0.1698914,-0.04394531,0.03417969,0,1,3,0
34.265,0.001029,0.05859375,0.0078125,0.001953125,2.359375,1.765625,8.117188,-0.005859375,0.0078125,0.0078125,-0.02539062,0.03710938,0,0.004394531,-0.006103516,-0.0078125,0,0,-0.001098633,0.2568054,3.996,0,0,0,0.2362061,nan,4,11.702,1,128,0.2415466,0.3406677,0.2657471,0.1792603,-0.04394531,0.03417969,0,1,3,0
34.275,0.001008,-0.02148438,-0.05078125,0.03320312,0.5390625,4.226562,11.28906,-0.04101562,0.01953125,0.02539062,-0.02539062,0.03515625,0,0.004272461,-0.005859375,-0.007568359,0,0,-0.001098633,0.255127,3.996,0,0,0,0.2341919,nan,4,11.712,1,128,0.2802734,0.303009,0.2800598,0.157135,-0.04394531,0.03417969,0,1,3,0
34.285,0.001036,0,-0.01171875,0.009765625,-1.289062,2.601562,14.22656,0.005859375,-0.01171875,0.01367188,-0.02539062,0.03515625,0,0.004394531,-0.005737305,-0.007324219,0,0,-0.001098633,0.253418,3.996,0,0,0,0.2321777,nan,4,11.722,1,128,0.2391052,0.346405,0.2495117,0.1787109,-0.04394531,0.03417969,0,1,3,0
34.295,0.00098,-0.0234375,-0.03515625,-0.005859375,-0.578125,-4.695312,9.648438,-0.001953125,-0.00390625,0.00390625,-0.02539062,0.03515625,0,0.004394531,-0.005859375,-0.007324219,0,0,-0.001098633,0.2517395,3.996,0,0,0,0.2302246,nan,4,11.732,1,128,0.2260437,0.3511658,0.241394,0.188385,-0.04394531,0.03417969,0,1,3,0
34.305,0.001007,0.02148438,-0.0078125,0.009765625,2.867188,-1.242188,6.414062,0.01953125,-0.01757812,0.001953125,-0.02734375,0.03515625,0,0.004516602,-0.005981445,-0.007324219,0,0,-0.001098633,0.2499084,3.996,0,0,0,0.2280273,nan,4,11.742,1,128,0.2453918,0.3323364,0.2628479,0.1589966,-0.04394531,0.03417969,0,1,3,0
34.315,0.001024,0,-0.0625,0.01757812,1.109375,4.234375,10.76562,0.02148438,0.00390625,0.009765625,-0.02929688,0.03515625,0,0.004760742,-0.005859375,-0.007202148,0,0,-0.001098633,0.2481995,3.996,0,0,0,0.2260132,nan,4,11.752,1,128,0.2561951,0.3165283,0.2692871,0.1508179,-0.04394531,0.03417969,0,1,3,0
34.325,0.001005,-0.00390625,-0.01757812,-0.0078125,-3.0625,2.523438,14.25,-0.01367188,-0.00390625,-0.01171875,-0.02734375,0.03515625,0,0.004638672,-0.005859375,-0.007324219,0,0,-0.001098633,0.246521,3.996,0,0,0,0.223999,nan,4,11.762,1,128,0.2255249,0.3448181,0.2342834,0.181488,-0.04394531,0.03417969,0,1,3,0
34.335,0.001008,-0.02148438,0.05273438,-0.03710938,2.125,-1.703125,9.09375,0.02929688,0.01171875,-0.015625,-0.02734375,0.03515625,0,0.004516602,-0.005737305,-0.007324219,0,0,-0.001098633,0.2448425,3.996,0,0,0,0.2219849,nan,4,11.773,1,128,0.1968079,0.3572998,0.2367859,0.1884766,-0.04394531,0.03417969,0,1,3,0.2063492
34.345,0.001009,0.08007812,0.04882812,-0.01367188,-0.0859375,3.671875,14.44531,0.03515625,0.00390625,0.001953125,-0.02734375,0.03515625,0,0.004516602,-0.005737305,-0.007324219,0,0,-0.001098633,0.2431641,3.996,0,0,0,0.2199707,nan,4,11.783,1,128,0.2350769,0.3222351,0.2723389,0.1429443,-0.04394531,0.03417969,0,1,3,0
34.354,0.001006,-0.0390625,-0.03515625,-0.03320312,-1.890625,2.242188,12.85156,-0.02148438,0,-0.015625,-0.02734375,0.03320312,0,0.004516602,-0.005615234,-0.007446289,0,0,-0.001098633,0.2416382,3.996,0,0,0,0.2182007,nan,4,11.792,1,128,0.2192993,0.3408813,0.2236633,0.1827087,-0.04394531,0.03417969,0,1,3,0
34.365,0.001007,-0.07617188,-0.001953125,-0.005859375,1.414062,-2.617188,6.984375,-0.04101562,-0.00390625,-0.01367188,-0.02734375,0.03515625,0,0.004516602,-0.005737305,-0.00769043,0,0,-0.001098633,0.2399597,3.996,0,0,0,0.2161865,nan,4,11.802,1,128,0.2421875,0.3075867,0.2420654,0.1679993,-0.04394531,0.03417969,0,1,3,0
34.375,0.001065,-0.01953125,-0.06445312,0.001953125,1.007812,6.101562,15.28906,-0.01171875,0.01757812,0,-0.02734375,0.03515625,0,0.004516602,-0.005737305,-0.00769043,0,0,-0.001098633,0.2382812,3.996,0,0,0,0.2141724,nan,4,11.812,1,128,0.2408447,0.3027954,0.2592163,0.150238,-0.04394531,0.03417969,0,1,3,0
34.385,0.001006,0,0.01757812,0.0078125,0.671875,-5.367188,11.59375,0.01367188,0.01171875,0.00390625,-0.02734375,0.03515625,0,0.004394531,-0.005737305,-0.00769043,0,0,-0.001098633,0.2366028,3.996,0,0,0,0.2122192,nan,4,11.822,1,128,0.2275085,0.3136292,0.2576904,0.147522,-0.04394531,0.03417969,0,1,3,0
34.395,0.001005,-0.0078125,0.0625,0.0078125,1.960938,1.421875,10.28906,0.01171875,-0.02539062,0,-0.02539062,0.03515625,0,0.004394531,-0.005981445,-0.00769043,0,0,-0.001098633,0.2348938,3.996,0,0,0,0.2102051,nan,4,11.832,1,128,0.2232971,0.3222046,0.2459412,0.1481934,-0.04394531,0.03417969,0,1,3,0
34.405,0.00103,0.02148438,0.08398438,0.00390625,-2.210938,3.515625,14.96094,0.02539062,0.005859375,0.009765625,-0.02734375,0.03710938,0,0.004394531,-0.005981445,-0.007568359,0,0,-0.001098633,0.2330627,3.996,0,0,0,0.2080078,nan,4,11.842,1,128,0.2191162,0.3097229,0.2593079,0.1440735,-0.04394531,0.03417969,0,1,3,0
34.415,0.001002,0.03515625,-0.02929688,0.0078125,0.625,-3.554688,2.476562,-0.00390625,-0.0078125,0.0078125,-0.02734375,0.03515625,0,0.004394531,-0.005859375,-0.007446289,0,0,-0.001098633,0.2313538,3.996,0,0,0,0.2059937,nan,4,11.852,1,128,0.2283325,0.3158569,0.2374268,0.1438599,-0.04394531,0.03417969,0,1,3,0
34.425,0.001015,0.01757812,-0.05273438,0.0234375,-2.273438,4.296875,12.07812,-0.015625,-0.02148438,0.015625,-0.02539062,0.03515625,0,0.004394531,-0.005981445,-0.007324219,0,0,-0.001098633,0.2296753,3.996,0,0,0,0.2039795,nan,4,11.862,1,128,0.2421875,0.3008118,0.2463684,0.129364,-0.04394531,0.03515625,0,1,3,0
34.435,0.001007,-0.03125,0,-0.009765625,0.7890625,-4.453125,3.109375,-0.01367188,-0.015625,0.009765625,-0.02539062,0.03710938,0,0.004272461,-0.006103516,-0.007202148,0,0,-0.001098633,0.2279968,3.996,0,0,0,0.2020264,nan,4,11.872,1,128,0.2083435,0.3235474,0.2160339,0.164032,-0.04394531,0.03515625,0,1,3,0
34.444,0.001043,-0.05078125,-0.02734375,-0.01757812,0.0625,5.90625,12.28906,-0.005859375,-0.015625,-0.0078125,-0.02539062,0.03710938,0,0.004394531,-0.006103516,-0.007202148,0,0,-0.001098633,0.2264709,3.996,0,0,0,0.2001953,nan,4,11.882,1,128,0.2018127,0.3316956,0.2069092,0.1655273,-0.04394531,0.03515625,0,1,3,0
34.454,0.001,-0.015625,0.09179688,0.015625,0.921875,-4.523438,8,-0.005859375,0.03515625,0.001953125,-0.02539062,0.03710938,0,0.004394531,-0.006103516,-0.007202148,0,0,-0.001098633,0.2247925,3.996,0,0,0,0.1981812,nan,4,11.892,1,128,0.2193604,0.28479,0.2530518,0.1419983,-0.04394531,0.03515625,0,1,3,0
34.465,0.001014,-0.00390625,0.0234375,0.01171875,0.7734375,5.53125,17.55469,0.01953125,0.03320312,0.001953125,-0.02539062,0.03515625,0,0.004394531,-0.005981445,-0.007202148,0,0,-0.001098633,0.223114,3.996,0,0,0,0.196228,nan,4,11.902,1,128,0.2043762,0.3020935,0.2425232,0.1434631,-0.04394531,0.03515625,0,1,3,0
34.475,0.001015,0.04101562,-0.01367188,-0.01367188,1.375,-5.40625,6.703125,0.02734375,-0.015625,-0.01171875,-0.02734375,0.03710938,0,0.004394531,-0.006103516,-0.007202148,0,0,-0.001098633,0.2214355,3.996,0,0,0,0.1942139,nan,4,11.912,1,128,0.1934204,0.3278198,0.2185974,0.1459045,-0.04394531,0.03515625,0,1,3,0
34.485,0.001015,0.01953125,0.1269531,-0.01757812,-2.992188,5.046875,14.125,0.00390625,0.01757812,-0.015625,-0.02539062,0.03710938,0,0.004394531,-0.006103516,-0.007324219,0,0,-0.001098633,0.2197571,3.996,0,0,0,0.1921997,nan,4,11.922,1,128,0.1890564,0.3110352,0.2230225,0.1558533,-0.04394531,0.03515625,0,1,3,0
34.495,0.001015,-0.005859375,0.08007812,0.0390625,1.710938,-1.085938,6.992188,0.005859375,0.01367188,0.015625,-0.02734375,0.03515625,0,0.004516602,-0.005981445,-0.007324219,0,0,-0.001098633,0.2180481,3.996,0,0,0,0.1901855,nan,4,11.932,1,128,0.2429504,0.2619629,0.2639771,0.1033936,-0.04394531,0.03515625,0,1,3,0
34.505,0.001016,0.05859375,-0.02539062,-0.001953125,-0.6796875,-0.9140625,12.71094,0.0078125,-0.001953125,-0.00390625,-0.02734375,0.03515625,0,0.004638672,-0.005981445,-0.007202148,0,0,-0.001098633,0.216217,3.996,0,0,0,0.1879883,nan,4,11.942,1,128,0.1868286,0.3218994,0.2036133,0.1524963,-0.04394531,0.03515625,0,1,3,0
34.515,0.001025,0.009765625,-0.1347656,0.01953125,2.671875,4.742188,10.54688,0.01367188,-0.04882812,0.0078125,-0.02929688,0.03710938,0,0.004760742,-0.006225586,-0.007202148,0,0,-0.001098633,0.2145386,3.996,0,0,0,0.1859741,nan,4,11.952,1,128,0.2220154,0.2995911,0.2243652,0.1121216,-0.04394531,0.03515625,0,1,3,0
34.525,0.001002,0.1015625,0.04101562,0.01953125,-0.3125,-7.070312,5.273438,0.05078125,-0.0078125,0.02148438,-0.02929688,0.0390625,0,0.004882812,-0.006347656,-0.006958008,0,0,-0.001098633,0.2128296,3.996,0,0,0,0.184021,nan,4,11.962,1,128,0.2043762,0.293335,0.245575,0.1080627,-0.04394531,0.03515625,0,1,3,0
34.535,0.001082,0.02148438,-0.005859375,-0.01367188,-0.8828125,-0.140625,13.28906,0.06445312,-0.03125,0.009765625,-0.03320312,0.0390625,0,0.005493164,-0.006591797,-0.006835938,0,0,-0.001098633,0.2111511,3.996,0,0,0,0.1820068,nan,4,11.973,1,128,0.1842346,0.3199158,0.2076721,0.1328125,-0.04492188,0.03515625,0,1,3,0
34.545,0.001015,-0.015625,-0.00390625,-0.02539062,1.71875,5.304688,10.50781,0.001953125,-0.02539062,-0.009765625,-0.03320312,0.04101562,0,0.005615234,-0.006713867,-0.006835938,0,0,-0.001098633,0.2094727,3.996,0,0,0,0.1799927,nan,4,11.983,1,128,0.1783447,0.3204041,0.1878357,0.1512756,-0.04492188,0.03515625,0,1,3,0
34.554,0.001011,0.005859375,-0.005859375,-0.00390625,-1.492188,-7.507812,4.515625,0.01953125,-0.03515625,0,-0.03320312,0.04101562,0,0.005737305,-0.006835938,-0.006835938,0,0,-0.001098633,0.2079468,3.996,0,0,0,0.1782227,nan,4,11.992,1,128,0.2054443,0.2972412,0.2180481,0.1111145,-0.04492188,0.03515625,0,1,3,0
34.565,0.001017,0.09765625,0.03125,0.005859375,-0.109375,4.726562,16.59375,0.04492188,0.00390625,0.00390625,-0.03515625,0.04101562,0,0.005859375,-0.006713867,-0.006835938,0,0,-0.001098633,0.2062683,3.996,0,0,0,0.1762085,nan,4,12.002,1,128,0.1961365,0.2896729,0.2337952,0.1054993,-0.04492188,0.03515625,0,1,3,0
34.575,0.00101,-0.015625,-0.06054688,0.00390625,1.929688,2.085938,8.148438,-0.009765625,-0.01367188,-0.0078125,-0.03515625,0.04101562,0,0.005859375,-0.006835938,-0.006835938,0,0,-0.001098633,0.2045898,3.996,0,0,0,0.1741943,nan,4,12.012,1,128,0.2000122,0.2901306,0.2068176,0.1213684,-0.04492188,0.03515625,0,1,3,0
34.585,0.00101,-0.03320312,0.06445312,0.001953125,1.625,-5.492188,6.882812,-0.02148438,0.009765625,0.001953125,-0.03515625,0.04101562,0,0.005737305,-0.006958008,-0.006835938,0,0,-0.001098633,0.2029114,3.996,0,0,0,0.1721802,nan,4,12.022,1,128,0.1930847,0.2797546,0.212616,0.1261597,-0.04492188,0.03515625,0,1,3,0
34.595,0.001023,0.02539062,0.08007812,0.001953125,-1.96875,-2.125,11.07031,0.001953125,0.05273438,-0.005859375,-0.03320312,0.0390625,0,0.005615234,-0.006591797,-0.006958008,0,0,-0.001098633,0.2012329,3.996,0,0,0,0.1702271,nan,4,12.032,1,128,0.1770935,0.2816467,0.2183228,0.1278381,-0.04492188,0.03515625,0,1,3,0
34.605,0.001019,-0.03710938,-0.05078125,-0.01171875,-0.515625,5.78125,15.32031,-0.01171875,-0.01367188,-0.01171875,-0.03320312,0.0390625,0,0.005737305,-0.006469727,-0.006958008,0,0,-0.001098633,0.1993713,3.996,0,0,0,0.1679688,nan,4,12.042,1,128,0.1929626,0.2957458,0.1908264,0.1179504,-0.04492188,0.03515625,0,1,3,0
34.615,0.000956,-0.02539062,0.01171875,-0.01953125,0.7890625,3.289062,9.367188,-0.009765625,0.009765625,-0.01171875,-0.03320312,0.0390625,0,0.005615234,-0.006591797,-0.007080078,0,0,-0.001098633,0.1976929,3.996,0,0,0,0.1660156,nan,4,12.052,1,128,0.1812439,0.2828369,0.2011719,0.1254883,-0.04492188,0.03515625,0,1,3,0.5079365
34.625,0.001034,0.08984375,-0.1210938,0.02148438,2.75,-1.648438,6.585938,0.0390625,-0.01757812,0.01171875,-0.03320312,0.0390625,0,0.005615234,-0.006469727,-0.007080078,0,0,-0.001098633,0.1959839,3.996,0,0,0,0.1640015,nan,4,12.062,1,128,0.2130432,0.2698059,0.2382507,0.06286621,-0.04492188,0.03515625,0,1,3,0
34.635,0.00101,0.0078125,0.0859375,0,-0.125,-0.6328125,5.210938,-0.01367188,0.02148438,0.005859375,-0.03320312,0.0390625,0,0.005371094,-0.006469727,-0.007080078,0,0,-0.001098633,0.1943054,3.996,0,0,0,0.1619873,nan,4,12.072,1,128,0.1771851,0.276886,0.204895,0.1182861,-0.04492188,0.03515625,0,1,3,0
34.644,0.001051,0.0546875,-0.01757812,0.01367188,0.875,-2.390625,12.85156,0.01367188,-0.001953125,0.005859375,-0.03125,0.03710938,0,0.005249023,-0.006347656,-0.006958008,0,0,-0.001098633,0.1928101,3.996,0,0,0,0.1602173,nan,4,12.082,1,128,0.1880188,0.2788086,0.2146912,0.08966064,-0.04492188,0.03515625,0,1,3,0
34.655,0.00101,0.01757812,0.02148438,0.03125,-0.5,-5.476562,9.703125,0.005859375,0.00390625,0.015625,-0.03125,0.0390625,0,0.005249023,-0.006347656,-0.006958008,0,0,-0.001098633,0.1909485,3.996,0,0,0,0.15802,nan,4,12.093,1,128,0.1997986,0.2529907,0.2251892,0.08578491,-0.04492188,0.03515625,0,1,3,0
34.665,0.001023,0.01953125,0.06054688,0.02734375,-1.046875,6.359375,14.5625,0,0.02734375,0.02734375,-0.03125,0.0390625,0,0.005249023,-0.006469727,-0.006713867,0,0,-0.001098633,0.1894226,4.006,0,0,0,0.156189,nan,4,12.102,1,128,0.1927795,0.2454529,0.2250061,0.09448242,-0.04492188,0.03613281,0,1,3,0
34.675,0.001008,-0.02148438,-0.125,0.00390625,1.109375,4.835938,12.47656,-0.01757812,-0.00390625,0.01171875,-0.03125,0.03710938,0,0.005126953,-0.006225586,-0.006591797,0,0,-0.001098633,0.1877441,4.006,0,0,0,0.1541748,nan,4,12.112,1,128,0.1787109,0.2867737,0.1759644,0.1095276,-0.04492188,0.03613281,0,1,3,0
34.685,0.001008,-0.001953125,0.001953125,0.005859375,-0.8046875,1.523438,3.148438,-0.01367188,0.001953125,0.009765625,-0.02929688,0.03710938,0,0.004882812,-0.006103516,-0.006469727,0,0,-0.001098633,0.1860657,4.006,0,0,0,0.1522217,nan,4,12.122,1,128,0.1848755,0.2667542,0.1998596,0.09274292,-0.04492188,0.03613281,0,1,3,0
34.695,0.001009,-0.02148438,-0.07421875,0.01757812,2.03125,0.3046875,6.117188,0.009765625,-0.03320312,0.015625,-0.02929688,0.03710938,0,0.004760742,-0.006103516,-0.006347656,0,0,-0.001098633,0.1843872,4.006,0,0,0,0.1502075,nan,4,12.132,1,128,0.1891785,0.2719116,0.1973877,0.07904053,-0.04492188,0.03613281,0,1,3,0
34.705,0.000958,0.005859375,0.05078125,0.0234375,1.179688,-0.765625,6.101562,0.005859375,0.0234375,0.01757812,-0.02929688,0.03710938,0,0.004882812,-0.006103516,-0.006103516,0,0,-0.001098633,0.1825256,4.006,0,0,0,0.1480103,nan,4,12.142,1,128,0.1750793,0.2564697,0.2035828,0.0949707,-0.04492188,0.03613281,0,1,3,0
34.715,0.001017,-0.01757812,-0.00390625,-0.009765625,-2.15625,-6.398438,3.046875,-0.0078125,0.01757812,-0.001953125,-0.02929688,0.03515625,0,0.004882812,-0.005981445,-0.006103516,0,0,-0.001098633,0.1808472,4.006,0,0,0,0.1459961,nan,4,12.152,1,128,0.1512451,0.2807617,0.1704407,0.1209106,-0.04492188,0.03613281,0,1,3,0
34.725,0.0009869999,0.0390625,-0.001953125,0.01367188,1.21875,-1.367188,3.625,-0.001953125,0.00390625,0.0078125,-0.02929688,0.03515625,0,0.004882812,-0.005981445,-0.006103516,0,0,-0.001098633,0.1791687,4.006,0,0,0,0.1439819,nan,4,12.162,1,128,0.1861572,0.2470093,0.2047729,0.07867432,-0.04492188,0.03613281,0,1,3,0
34.735,0.001003,-0.0390625,-0.0078125,0.02539062,1.1875,3.203125,10.13281,0.00390625,-0.03320312,0.015625,-0.02929688,0.03710938,0,0.004882812,-0.006103516,-0.005981445,0,0,-0.001098633,0.1774597,4.006,0,0,0,0.1419678,nan,4,12.172,1,128,0.1916809,0.250824,0.1975708,0.0697937,-0.04492188,0.03613281,0,1,3,0
34.745,0.001009,0.03515625,0.07421875,0.01367188,2.328125,7.21875,14.86719,-0.001953125,0.03125,0.01757812,-0.02929688,0.03710938,0,0.004760742,-0.006103516,-0.005859375,0,0,-0.001098633,0.1757812,4.006,0,0,0,0.1400146,nan,4,12.183,1,128,0.1628723,0.2472229,0.1984863,0.09457397,-0.04492188,0.03613281,0,1,3,0
34.755,0.001005,0.001953125,-0.02929688,-0.001953125,-0.453125,3.3125,13.96094,0,0.01953125,-0.0078125,-0.02929688,0.03515625,0,0.004882812,-0.005859375,-0.005737305,0,0,-0.005737305,0.1774597,4.006,0,0,0,0.1400146,nan,4,12.193,1,128,0.1547852,0.2033691,0.1526794,0.1990662,0,0,0,1,6,0
34.764,0.00101,0.04101562,-0.06835938,0.015625,-1.84375,5.09375,7.914062,-0.001953125,-0.0234375,0.005859375,-0.02929688,0.03515625,0,0.004882812,-0.005981445,-0.005737305,0,0,-0.005737305,0.1789856,4.006,0,0,0,0.1400146,nan,4,12.202,1,128,0.2027893,0.1713562,0.1911011,0.1506958,0,0,0,1,6,0.3492064
34.775,0.00101,0.01757812,-0.02148438,0.02148438,-0.5859375,4.195312,14.63281,0.02539062,-0.02929688,0.0234375,-0.02929688,0.03710938,0,0.004882812,-0.006103516,-0.005615234,0,0,-0.005615234,0.1806641,4.006,0,0,0,0.1400146,nan,4,12.212,1,128,0.1979065,0.1797485,0.1965027,0.1485291,0,0,0,1,6,0
34.785,0.000974,-0.01367188,0.078125,0.001953125,1.25,-5.429688,8.664062,-0.01171875,0.0390625,-0.001953125,-0.02929688,0.03515625,0,0.004882812,-0.005859375,-0.005493164,0,0,-0.005493164,0.1823425,4.006,0,0,0,0.1400146,nan,4,12.222,1,128,0.161499,0.1922913,0.1721497,0.2034607,0,0,0,1,6,0
34.795,0.001011,0.0546875,-0.07421875,0.03710938,1.617188,-4.453125,4.445312,0,-0.04492188,0.02734375,-0.02734375,0.03515625,0,0.004638672,-0.005981445,-0.005371094,0,0,-0.005371094,0.184021,4.006,0,0,0,0.1400146,nan,4,12.232,1,128,0.2264099,0.1656189,0.2148132,0.129303,0,0,0,1,6,0
34.805,0.001013,0.05078125,0.02929688,-0.01757812,-1.601562,2.53125,9.046875,0.0234375,0.02148438,0.0078125,-0.02929688,0.03515625,0,0.005004883,-0.005859375,-0.005126953,0,0,-0.005126953,0.18573,4.006,0,0,0,0.1400146,nan,4,12.242,1,128,0.1444092,0.2250061,0.1539917,0.2194824,0,0,0,1,6,0.1269841
34.815,0.001026,-0.08984375,-0.0390625,0.005859375,-1.453125,1.8125,13.1875,-0.05078125,0.03710938,0.005859375,-0.03125,0.03320312,0,0.005004883,-0.005615234,-0.005004883,0,0,-0.005004883,0.1874084,4.006,0,0,0,0.1400146,nan,4,12.252,1,128,0.1906738,0.1825867,0.1685791,0.2077942,0,0,0,1,6,0
34.825,0.000996,-0.05273438,0.01171875,-0.005859375,1.445312,-6.3125,8.476562,0.005859375,0.02734375,0.0078125,-0.03125,0.03320312,0,0.005004883,-0.005493164,-0.004882812,0,0,-0.004882812,0.1890869,4.006,0,0,0,0.1400146,nan,4,12.262,1,128,0.1678162,0.2068787,0.1755981,0.2060547,0,0,0,1,6,0
34.835,0.001011,0.05273438,0.01757812,0.009765625,2.390625,6.679688,16.28906,0.0390625,0,0.0234375,-0.02929688,0.03320312,0,0.005004883,-0.005371094,-0.004638672,0,0,-0.004638672,0.1907654,4.006,0,0,0,0.1400146,nan,4,12.272,1,128,0.1932068,0.1970825,0.2079163,0.1648865,0,0,0,1,6,0
34.844,0.001003,0.005859375,-0.05078125,0.02734375,-0.3125,4.882812,13.20312,0,-0.015625,0.01367188,-0.03125,0.03125,0,0.005126953,-0.005371094,-0.004516602,0,0,-0.004516602,0.1922913,4.006,0,0,0,0.1400146,nan,4,12.282,1,128,0.2042542,0.1959839,0.1887207,0.1802063,0,0,0,1,6,0
34.855,0.001047,0.01953125,0.078125,0.009765625,-1.6875,-4.382812,3.960938,0.03320312,-0.01757812,0.01367188,-0.03125,0.03320312,0,0.005249023,-0.005615234,-0.004272461,0,0,-0.004272461,0.1941528,4.006,0,0,0,0.1400146,nan,4,12.293,1,128,0.1855774,0.2029419,0.2009583,0.1871033,0,0,0,1,6,0
34.864,0.00101,-0.046875,-0.00390625,0.001953125,0.6015625,-4.03125,6.148438,-0.02148438,-0.0078125,0.001953125,-0.03125,0.03320312,0,0.005249023,-0.005737305,-0.004272461,0,0,-0.004272461,0.1956482,4.006,0,0,0,0.1400146,nan,4,12.302,1,128,0.1982422,0.197998,0.1859436,0.2004089,0,0,0,1,6,0
34.875,0.001008,-0.03125,-0.00390625,-0.04492188,-2.335938,1.914062,5.601562,0.01953125,0.01171875,-0.01367188,-0.03125,0.03515625,0,0.005249023,-0.005737305,-0.004272461,0,0,-0.004272461,0.1973267,4.006,0,0,0,0.1400146,nan,4,12.312,1,128,0.1607971,0.2324219,0.1722107,0.2239075,0,0,0,1,6,0
34.885,0.00101,-0.01757812,-0.02539062,0.001953125,-0.8203125,4.101562,13.41406,-0.03125,-0.01367188,0.005859375,-0.02929688,0.03515625,0,0.005004883,-0.005737305,-0.004394531,0,0,-0.004394531,0.1990051,4.006,0,0,0,0.1400146,nan,4,12.322,1,128,0.2203369,0.188324,0.2056885,0.1817322,0,0,0,1,6,0
34.895,0.00101,0.02734375,-0.05664062,0.001953125,1.671875,-5.890625,7.554688,0,0.001953125,-0.01171875,-0.03125,0.03515625,0,0.005004883,-0.005737305,-0.004516602,0,0,-0.004516602,0.2007141,4.006,0,0,0,0.1400146,nan,4,12.332,1,128,0.199646,0.209198,0.1974182,0.1965332,0,0,0,1,6,0.6984127
34.905,0.001008,0.05078125,0.02539062,-0.0234375,-1.484375,1.039062,8.34375,0.0234375,-0.005859375,0,-0.02929688,0.03515625,0,0.005004883,-0.005859375,-0.004394531,0,0,-0.004394531,0.2023926,4.006,0,0,0,0.1400146,nan,4,12.342,1,128,0.1868286,0.2210388,0.202301,0.1994019,-0.0009765625,0.0009765625,0,1,6,0
34.915,0.001008,0.05859375,-0.09179688,0.02539062,0.2421875,3.203125,15.42969,0.009765625,-0.0234375,-0.01171875,-0.03125,0.03515625,0,0.005126953,-0.005859375,-0.004760742,0,0,-0.004760742,0.204071,4.006,0,0,0,0.1400146,nan,4,12.352,1,128,0.2349243,0.1904602,0.225769,0.1651611,-0.0009765625,0.0009765625,0,1,6,0
34.925,0.000989,0.04101562,-0.03320312,-0.04296875,1.007812,-7.429688,7.3125,0.00390625,0.015625,-0.03515625,-0.03125,0.03710938,0,0.005126953,-0.006103516,-0.004882812,0,0,-0.004882812,0.2057495,4.006,0,0,0,0.1400146,nan,4,12.362,1,128,0.1636047,0.2447205,0.1738586,0.2408142,-0.0009765625,0.0009765625,0,1,6,0
34.935,0.00101,0.03125,-0.01953125,-0.001953125,-1.4375,2.679688,14.33594,0.04492188,-0.05859375,-0.00390625,-0.03320312,0.0390625,0,0.005371094,-0.006469727,-0.005004883,0,0,-0.005004883,0.207428,4.006,0,0,0,0.1400146,nan,4,12.372,1,128,0.2190552,0.2131348,0.2182007,0.1793213,-0.0009765625,0.0009765625,0,1,6,0
34.945,0.00101,-0.08789062,0.0546875,-0.046875,-0.6640625,-4.125,11.21875,-0.03320312,-0.01757812,-0.02734375,-0.03320312,0.04296875,0,0.005615234,-0.007080078,-0.005126953,0,0,-0.005126953,0.2091064,4.006,0,0,0,0.1400146,nan,4,12.383,1,128,0.1844177,0.2295532,0.1705017,0.2519836,-0.0009765625,0.0009765625,0,1,6,0
34.955,0.00101,0.06054688,-0.1015625,-0.03515625,0.8984375,-6.25,5.125,0.03710938,-0.04101562,-0.01953125,-0.03320312,0.04296875,0,0.005493164,-0.007202148,-0.005371094,0,0,-0.005371094,0.2107849,4.006,0,0,0,0.1400146,nan,4,12.393,1,128,0.2068176,0.2364197,0.2114258,0.1885681,-0.0009765625,0.0009765625,0,1,6,0
34.964,0.001006,0.03710938,-0.09179688,0.00390625,1.164062,-3.054688,4.03125,-0.0078125,-0.0078125,-0.01367188,-0.03320312,0.04296875,0,0.005371094,-0.007080078,-0.005615234,0,0,-0.005615234,0.2123108,4.006,0,0,0,0.1400146,nan,4,12.402,1,128,0.237854,0.2028198,0.2294312,0.1791382,-0.0009765625,0.0009765625,0,1,6,0
34.975,0.001006,-0.04882812,0.04101562,-0.00390625,0.8046875,3.882812,15.82812,-0.03125,0.02734375,-0.02734375,-0.03320312,0.04296875,0,0.005371094,-0.007080078,-0.005859375,0,0,-0.005859375,0.2139893,4.006,0,0,0,0.1400146,nan,4,12.412,1,128,0.2093506,0.2128906,0.2064209,0.2273254,-0.0009765625,0.0009765625,0,1,6,0
34.985,0.001006,0.1191406,-0.1523438,-0.00390625,-2.257812,-1.617188,12.27344,0.02734375,-0.02539062,0.001953125,-0.03125,0.04296875,0,0.005371094,-0.007080078,-0.005981445,0,0,-0.005981445,0.2156677,4.006,0,0,0,0.1400146,nan,4,12.422,1,128,0.2311096,0.223114,0.2325745,0.1759338,-0.0009765625,0.0009765625,0,1,6,0
34.995,0.001006,-0.07226562,0.03125,-0.02929688,1.445312,-6.828125,9.046875,-0.01953125,0.03710938,-0.03515625,-0.03320312,0.04296875,0,0.005615234,-0.007202148,-0.006103516,0,0,-0.006103516,0.2173767,4.006,0,0,0,0.1400146,nan,4,12.432,1,128,0.1782227,0.2456665,0.1765747,0.2690125,-0.0009765625,0.0009765625,0,1,6,0
35.005,0.001006,0.02929688,0.1679688,-0.04296875,-0.8984375,-4.75,4.226562,0.0078125,0.02734375,-0.009765625,-0.03320312,0.04296875,0,0.005493164,-0.007202148,-0.006225586,0,0,-0.006225586,0.2190552,4.006,0,0,0,0.1400146,nan,4,12.442,1,128,0.1937866,0.2347107,0.2157288,0.2319336,-0.0009765625,0.0009765625,0,1,6,0
35.015,0.000998,-0.05859375,-0.04101562,-0.001953125,0.53125,2.085938,7.320312,-0.0234375,-0.015625,-0.015625,-0.03515625,0.04296875,0,0.005737305,-0.007080078,-0.006469727,0,0,-0.006469727,0.2207336,4.006,0,0,0,0.1400146,nan,4,12.452,1,128,0.2385864,0.2183533,0.2128601,0.2131348,-0.0009765625,0.0009765625,0,1,6,0
35.025,0.0009860001,0.0234375,-0.06054688,-0.02929688,-0.2578125,4.78125,7.375,0.005859375,0,-0.01367188,-0.03320312,0.04296875,0,0.005737305,-0.007202148,-0.006469727,0,0,-0.006469727,0.2224121,4.006,0,0,0,0.1400146,nan,4,12.462,1,128,0.2073669,0.2461243,0.2068176,0.2293396,-0.0009765625,0.0009765625,0,1,6,0
35.035,0.001,-0.03125,-0.009765625,0.0078125,-0.4609375,2.507812,14.13281,-0.02539062,0.001953125,-0.0078125,-0.03320312,0.04296875,0,0.005615234,-0.007202148,-0.006713867,0,0,-0.006713867,0.2240906,4.006,0,0,0,0.1400146,nan,4,12.472,1,128,0.2389526,0.2171021,0.2297668,0.2105408,-0.0009765625,0.0009765625,0,1,6,0
35.045,0.001006,-0.05273438,0.0859375,-0.04882812,-1.257812,0.5703125,9.296875,0.001953125,-0.01953125,-0.03320312,-0.03320312,0.04296875,0,0.005493164,-0.007202148,-0.006835938,0,0,-0.006835938,0.225769,4.006,0,0,0,0.1400146,nan,4,12.483,1,128,0.1886902,0.2767944,0.1824341,0.2552185,-0.0009765625,0.0009765625,0,1,6,0.06349207
35.055,0.001008,-0.01171875,0.01171875,0,-1.585938,4.429688,15.71875,-0.01367188,-0.0234375,-0.02148438,-0.03125,0.04296875,0,0.005371094,-0.007202148,-0.007080078,0,0,-0.007080078,0,4.006,0,0,0,0.1400146,nan,4,12.492,0,128,0,0,0,0,-0.0009765625,0.0009765625,0,1,6,0
35.065,0.001006,0.02929688,-0.01367188,-0.01757812,1.695312,-3.492188,8.664062,0.04882812,-0.02148438,-0.01367188,-0.03125,0.04296875,0,0.005371094,-0.007446289,-0.007202148,0,0,-0.007080078,0,4.006,0,0,0,0.1400146,nan,4,12.503,0,0,0,0,0,0,0,0,0,1,6,1
35.074,0.001033,0.04101562,-0.04296875,0.01367188,0.7265625,2.367188,7.65625,-0.00390625,-0.03320312,0,-0.03125,0.04296875,0,0.005371094,-0.00769043,-0.007324219,0,0,-0.007080078,0,4.006,0,0,0,0.1400146,nan,4,12.512,0,0,0,0,0,0,0,0,0,1,6,0
35.084,0.001032,-0.015625,-0.03515625,0.009765625,-0.6875,-5.382812,5.484375,-0.00390625,-0.00390625,-0.015625,-0.03125,0.04296875,0,0.005615234,-0.00769043,-0.007446289,0,0,-0.007080078,0,4.006,0,0,0,0.1400146,nan,4,12.522,0,0,0,0,0,0,0,0,0,1,6,0
35.095,0.001011,0.0234375,0.02929688,-0.01953125,1.640625,0.859375,5.515625,0.005859375,0.02148438,-0.001953125,-0.03125,0.04296875,0,0.005371094,-0.00769043,-0.007446289,0,0,-0.007080078,0,4.006,0,0,0,0.1400146,nan,4,12.532,0,0,0,0,0,0,0,0,0,1,6,0
35.105,0.001011,-0.05078125,0.00390625,0,-0.6171875,4.492188,9.15625,-0.01953125,-0.00390625,0.00390625,-0.03125,0.04296875,0,0.005371094,-0.007568359,-0.007446289,0,0,-0.007080078,0,4.006,0,0,0,0.1400146,nan,4,12.542,0,0,0,0,0,0,0,0,0,1,6,1
35.115,0.000992,-0.015625,-0.07421875,0.00390625,-2.257812,-3.710938,9.539062,-0.005859375,-0.015625,0.001953125,-0.03125,0.04296875,0,0.005249023,-0.007446289,-0.007446289,0,0,-0.007080078,0,4.006,0,0,0,0.1400146,nan,4,12.552,0,0,0,0,0,0,0,0,0,1,6,1
35.125,0.000973,-0.00390625,0.08203125,-0.01953125,-0.0859375,0.5078125,16.08594,-0.009765625,0.03710938,-0.01757812,-0.03125,0.04296875,0,0.005126953,-0.007446289,-0.007568359,0,0,-0.007080078,0,4.006,0,0,0,0.1400146,nan,4,12.562,0,0,0,0,0,0,0,0,0,1,6,0
35.135,0.001035,-0.0625,-0.03320312,-0.02148438,-1.203125,-4.21875,6.914062,-0.0234375,-0.01367188,-0.01171875,-0.03125,0.04296875,0,0.005126953,-0.007324219,-0.00769043,0,0,-0.007080078,0,4.006,0,0,0,0.1400146,nan,4,12.572,0,0,0,0,0,0,0,0,0,1,6,0
35.145,0.000989,-0.01953125,0.01367188,-0.02539062,-0.8125,-0.6484375,3.820312,0,0.02734375,-0.03515625,-0.03125,0.04296875,0,0.005249023,-0.007202148,-0.008056641,0,0,-0.007080078,0,4.006,0,0,0,0.1400146,nan,4,12.582,0,0,0,0,0,0,0,0,0,1,6,0
35.155,0.001032,0.05664062,0.0390625,-0.0546875,-1.148438,1.046875,11.05469,0.03320312,0.01171875,-0.03710938,-0.03125,0.04296875,0,0.005249023,-0.007202148,-0.008300781,0,0,-0.007080078,0,4.006,0,0,0,0.1400146,nan,4,12.593,0,0,0,0,0,0,0,0,0,1,6,0
35.165,0.001011,0.009765625,0.03125,-0.05859375,1.851562,1.320312,11.20312,-0.001953125,0.015625,-0.05273438,-0.03125,0.04296875,0,0.005249023,-0.007080078,-0.008789062,0,0,-0.007080078,0,4.006,0,0,0,0.1400146,nan,4,12.603,0,0,0,0,0,0,0,0,0,1,6,0
35.175,0.001011,-0.005859375,-0.03710938,-0.05273438,-0.7734375,-1.21875,7.195312,-0.01367188,-0.00390625,-0.05078125,-0.03125,0.04296875,0,0.005126953,-0.006958008,-0.009277344,0,0,-0.007080078,0,4.006,0,0,0,0.1400146,nan,4,12.613,0,0,0,0,0,0,0,0,0,1,6,0
35.185,0.001015,0.046875,0.02734375,-0.05078125,-0.0625,1.007812,9.367188,0.0078125,-0.00390625,-0.05664062,-0.03125,0.04296875,0,0.005249023,-0.006835938,-0.009765625,0,0,-0.007080078,0,4.006,0,0,0,0.1400146,nan,4,12.622,0,0,0,0,0,0,0,0,0,1,6,1
35.195,0.001001,0.015625,0.04882812,-0.06054688,-0.640625,-1.648438,9.195312,0.001953125,0.015625,-0.06640625,-0.03125,0.04296875,0,0.005249023,-0.006835938,-0.01037598,0,0,-0.007080078,0,4.006,0,0,0,0.1400146,nan,4,12.632,0,0,0,0,0,0,0,0,0,1,6,1
35.205,0.001014,-0.0234375,-0.0234375,-0.05273438,-0.40625,0.7578125,8.023438,-0.01367188,-0.00390625,-0.05273438,-0.03125,0.04296875,0,0.005249023,-0.006835938,-0.01098633,0,0,-0.007080078,0,4.006,0,0,0,0.1400146,nan,4,12.642,0,0,0,0,0,0,0,0,0,1,6,0
35.215,0.001017,-0.005859375,-0.0546875,-0.06054688,0.4140625,0.015625,11.74219,0.009765625,0,-0.06054688,-0.03125,0.04296875,0,0.005249023,-0.006835938,-0.01159668,0,0,-0.007080078,0,4.006,0,0,0,0.1400146,nan,4,12.652,0,0,0,0,0,0,0,0,0,1,6,0
35.225,0.001025,0.05859375,0.02734375,-0.046875,0.1953125,0.875,8.328125,0.015625,-0.005859375,-0.04296875,-0.03125,0.04296875,0,0.005126953,-0.006835938,-0.01208496,0,0,-0.007080078,0,4.006,0,0,0,0.1400146,nan,4,12.662,0,0,0,0,0,0,0,0,0,1,6,0
35.235,0.001012,-0.01171875,-0.01171875,-0.02734375,-0.3046875,-2.0625,15.30469,-0.00390625,0,-0.04492188,-0.03125,0.04296875,0,0.005249023,-0.006835938,-0.01257324,0,0,-0.007080078,0,4.006,0,0,0,0.1400146,nan,4,12.672,0,0,0,0,0,0,0,0,0,1,6,0
35.245,0.001015,0.01953125,0.04882812,-0.0078125,-0.53125,-2.6875,15.41406,-0.00390625,0.001953125,-0.015625,-0.03125,0.04296875,0,0.005249023,-0.006835938,-0.01293945,0,0,-0.007080078,0,4.006,0,0,0,0.1400146,nan,4,12.683,0,0,0,0,0,0,0,0,0,1,6,0
35.255,0.001013,-0.02539062,-0.0234375,-0.02148438,0.046875,-1.25,15.32812,0,0.001953125,-0.02539062,-0.03125,0.04296875,0,0.005249023,-0.006713867,-0.01318359,0,0,-0.007080078,0,4.006,0,0,0,0.1400146,nan,4,12.693,0,0,0,0,0,0,0,0,0,1,6,0
35.265,0.00101,0,-0.0078125,-0.02539062,1.148438,0.171875,12.57031,0.00390625,-0.00390625,-0.02148438,-0.03125,0.04296875,0,0.005126953,-0.006835938,-0.01330566,0,0,-0.007080078,0,4.006,0,0,0,0.1400146,nan,4,12.703,0,0,0,0,0,0,0,0,0,1,6,0
35.275,0.001012,0.02539062,-0.01171875,0,0.4453125,3.453125,6.59375,0.01171875,0.00390625,-0.01757812,-0.03125,0.04296875,0,0.005126953,-0.006713867,-0.0135498,0,0,-0.007080078,0,4.006,0,0,0,0.1400146,nan,4,12.713,0,0,0,0,0,0,0,0,0,1,6,0
35.284,0.001026,-0.01757812,-0.0390625,0.005859375,0.8515625,1.679688,6.78125,0.001953125,-0.01367188,0.00390625,-0.03125,0.04296875,0,0.005126953,-0.006713867,-0.01367188,0,0,-0.007080078,0,4.006,0,0,0,0.1400146,nan,4,12.722,0,0,0,0,0,0,0,0,0,1,6,0
35.295,0.001009,0.03125,0.08203125,0.03515625,-3.070312,-3.476562,9.890625,0.001953125,-0.00390625,0.02539062,-0.03125,0.04296875,0,0.005126953,-0.006835938,-0.01342773,0,0,-0.007080078,0,4.006,0,0,0,0.1400146,nan,4,12.732,0,0,0,0,0,0,0,0,0,1,6,0
35.305,0.001009,-0.0078125,-0.02929688,-0.01171875,0.640625,0.859375,7.445312,-0.005859375,-0.001953125,0.005859375,-0.03125,0.04296875,0,0.005126953,-0.006835938,-0.01330566,0,0,-0.007080078,0,4.006,0,0,0,0.1400146,nan,4,12.742,0,0,0,0,0,0,0,0,0,1,6,0
35.315,0.001023,-0.0234375,-0.05664062,-0.015625,2.09375,0.859375,10.8125,-0.03125,-0.02539062,-0.01171875,-0.03125,0.04296875,0,0.005004883,-0.006958008,-0.01330566,0,0,-0.007080078,0,4.075,0,0,0,0.1400146,nan,4,12.752,0,0,0,0,0,0,0,0,0,1,6,0
35.325,0.001004,-0.00390625,0.02734375,-0.02148438,2.734375,2.632812,8.304688,0.01367188,0.03710938,-0.00390625,-0.03125,0.04296875,0,0.005126953,-0.006835938,-0.01342773,0,0,-0.007080078,0,4.075,0,0,0,0.1400146,nan,4,12.762,0,0,0,0,0,0,0,0,0,1,6,1
35.335,0.000997,0.01953125,-0.0234375,-0.0234375,-1.734375,1.539062,8.445312,0.009765625,0.009765625,-0.03125,-0.03125,0.04296875,0,0.005249023,-0.006713867,-0.0135498,0,0,-0.007080078,0,4.075,0,0,0,0.1400146,nan,4,12.772,0,0,0,0,0,0,0,0,0,1,6,0
35.345,0.001218,0.03125,-0.00390625,0.005859375,-0.40625,4.007812,6.8125,0.00390625,-0.00390625,0,-0.03125,0.04296875,0,0.005249023,-0.006713867,-0.01379395,0,0,-0.007080078,0,4.075,0,0,0,0.1400146,nan,4,12.783,0,0,0,0,0,0,0,0,0,1,6,0
35.355,0.001014,0.001953125,0.01953125,-0.01367188,0.421875,-0.8046875,9.023438,0.001953125,0.00390625,0,-0.03125,0.04296875,0,0.005126953,-0.006591797,-0.01367188,0,0,-0.007080078,0,4.075,0,0,0,0.1400146,nan,4,12.793,0,0,0,0,0,0,0,0,0,1,6,1
35.365,0.000992,-0.00390625,0.0078125,-0.0078125,-1.648438,-3.960938,11.92969,-0.005859375,-0.01757812,-0.009765625,-0.03125,0.04296875,0,0.005126953,-0.006835938,-0.01379395,0,0,-0.007080078,0,4.075,0,0,0,0.1400146,nan,4,12.803,0,0,0,0,0,0,0,0,0,1,6,0
35.375,0.001019,-0.01953125,0.001953125,-0.03515625,1.515625,4.84375,7.34375,0,0.01367188,-0.0234375,-0.03125,0.04296875,0,0.005126953,-0.006835938,-0.01391602,0,0,-0.007080078,0,4.075,0,0,0,0.1400146,nan,4,12.813,0,0,0,0,0,0,0,0,0,1,6,1
35.385,0.001023,-0.005859375,-0.03515625,-0.02929688,-0.7421875,3.8125,7.890625,0,-0.01367188,-0.0234375,-0.03125,0.04296875,0,0.005249023,-0.006713867,-0.01416016,0,0,-0.007080078,0,4.075,0,0,0,0,nan,4,0,0,0,0,0,0,0,0,0,0,1,6,0
35.395,0.001011,0.02734375,-0.01171875,0.02539062,-0.5859375,-0.5859375,10.23438,0.009765625,-0.00390625,0.001953125,-0.03125,0.04296875,0,0.005249023,-0.006713867,-0.01428223,0,0,-0.007080078,0,4.075,0,0,0,0,nan,4,0.01,0,0,0,0,0,0,0,0,0,1,6,1
35.405,0.001028,-0.0078125,0.02929688,-0.0078125,-0.21875,-2.976562,11.3125,0,-0.001953125,-0.001953125,-0.03125,0.04296875,0,0.005249023,-0.006713867,-0.01428223,0,0,-0.007080078,0,4.075,0,0,0,0,nan,4,0.02,0,0,0,0,0,0,0,0,0,1,6,0
35.415,0.000973,-0.001953125,0.03515625,-0.02148438,0.84375,-2.101562,11.29688,0.001953125,0.009765625,-0.009765625,-0.03125,0.04296875,0,0.005249023,-0.006835938,-0.0144043,0,0,-0.007080078,0,4.075,0,0,0,0,nan,4,0.03,0,0,0,0,0,0,0,0,0,1,6,0
35.425,0.001007,0.005859375,-0.06054688,-0.01367188,2.460938,0.109375,8.65625,0.00390625,0.009765625,-0.005859375,-0.03125,0.04296875,0,0.005371094,-0.006713867,-0.0144043,0,0,-0.007080078,0,4.075,0,0,0,0,nan,4,0.04,0,0,0,0,0,0,0,0,0,1,6,1
35.435,0.001055,-0.03320312,-0.04882812,-0.02539062,1.078125,-0.8125,8.820312,-0.00390625,-0.00390625,-0.009765625,-0.03125,0.04296875,0,0.005371094,-0.006713867,-0.01452637,0,0,-0.007080078,0,4.075,0,0,0,0,nan,4,0.051,0,0,0,0,0,0,0,0,0,1,6,1
35.445,0.001044,0,-0.01367188,-0.001953125,0.6796875,0.4453125,10.5,0.005859375,-0.00390625,0.0078125,-0.03125,0.04296875,0,0.005371094,-0.006591797,-0.01452637,0,0,-0.007080078,0,4.075,0,0,0,0,nan,4,0.002,0,0,0,0,0,0,0,0,0,1,6,1
35.454,0.001023,-0.04296875,-0.01171875,0.01367188,0.078125,-1.203125,9.398438,-0.01171875,-0.0078125,0.00390625,nan,nan,nan,0.005371094,-0.006591797,-0.01452637,0,0,-0.01452637,0,4.075,0,0,0,0,nan,2,0.011,0,0,0,0,0,0,0,0,0,1,2,1
35.465,0.000993,-0.07421875,0.001953125,0.005859375,0.3984375,-1.078125,9.6875,-0.009765625,-0.0078125,-0.00390625,nan,nan,nan,0.005371094,-0.006591797,-0.01452637,0,0,-0.01452637,0,4.075,0,0,0,0,nan,2,0.022,0,0,0,0,0,0,0,0,0,1,2,1
35.474,0.001011,0.08984375,-0.03710938,-0.01953125,0.3046875,-0.0390625,9.34375,0.02148438,-0.005859375,-0.00390625,nan,nan,nan,0.005371094,-0.006591797,-0.01452637,0,0,-0.01452637,0,4.075,0,0,0,0,nan,2,0.031,0,0,0,0,0,0,0,0,0,1,2,1
35.485,0.001012,-0.015625,0.00390625,0.005859375,-0.609375,0.2578125,10.1875,-0.01953125,0,-0.00390625,nan,nan,nan,0.005371094,-0.006591797,-0.01452637,0,0,-0.01452637,0,4.075,0,0,0,0,nan,2,0.041,0,0,0,0,0,0,0,0,0,1,2,1
35.495,0.001012,-0.03515625,-0.01757812,0.015625,0,0.453125,9.757812,0.01367188,0.005859375,0.0078125,nan,nan,nan,0.005371094,-0.006469727,-0.01452637,0,0,-0.01452637,0,4.075,0,0,0,0,nan,2,0.052,0,0,0,0,0,0,0,0,0,1,2,1
35.505,0.001012,0.04492188,0.04296875,-0.02929688,0.109375,0.3984375,10.35156,-0.00390625,0,-0.001953125,nan,nan,nan,0.005371094,-0.006469727,-0.01452637,0,0,-0.01452637,0,4.075,0,0,0,0,nan,2,0.062,0,0,0,0,0,0,0,0,0,1,2,1
35.515,0.00101,-0.05273438,-0.0546875,0.01367188,1.164062,0.140625,10.17969,0.00390625,0.001953125,0.001953125,nan,nan,nan,0.005371094,-0.006347656,-0.01452637,0,0,-0.01452637,0,4.075,0,0,0,0,nan,2,0.072,0,0,0,0,0,0,0,0,0,1,2,1
35.525,0.001057,0.04101562,0.03320312,-0.001953125,0.21875,0.25,10.66406,-0.00390625,-0.00390625,0.005859375,nan,nan,nan,0.005249023,-0.006469727,-0.01452637,0,0,-0.01452637,0,4.075,0,0,0,0,nan,2,0.082,0,0,0,0,0,0,0,0,0,1,2,1
35.535,0.00098,0.01171875,-0.00390625,0.00390625,-0.3359375,0.453125,10.66406,0.01171875,0.0078125,0.00390625,nan,nan,nan,0.005249023,-0.006347656,-0.01452637,0,0,-0.01452637,0,4.075,0,0,0,0,nan,2,0.092,0,0,0,0,0,0,0,0,0,1,2,1
35.545,0.001021,-0.01757812,-0.0078125,0.015625,1.984375,0.1328125,9.601562,0.00390625,-0.001953125,0.00390625,nan,nan,nan,0.005249023,-0.006469727,-0.01452637,0,0,-0.01452637,0,4.075,0,0,0,0,nan,2,0.102,0,0,0,0,0,0,0,0,0,1,2,1
35.555,0.001012,-0.005859375,0.005859375,0.01171875,-0.109375,0.078125,9.78125,0.005859375,0.001953125,-0.005859375,nan,nan,nan,0.005249023,-0.006713867,-0.01452637,0,0,-0.01452637,0,4.075,0,0,0,0,nan,2,0.112,0,0,0,0,0,0,0,0,0,1,2,1
35.565,0.001012,-0.0078125,-0.00390625,-0.0078125,0.2890625,-0.3984375,9.78125,-0.00390625,-0.00390625,-0.00390625,nan,nan,nan,0.005249023,-0.006591797,-0.01452637,0,0,-0.01452637,0,4.075,0,0,0,0,nan,2,0.122,0,0,0,0,0,0,0,0,0,1,2,1
35.574,0.001008,-0.005859375,-0.0078125,0.01367188,-0.234375,0,10.3125,0.00390625,-0.001953125,-0.00390625,nan,nan,nan,0.005249023,-0.006591797,-0.01464844,0,0,-0.01464844,0,4.075,0,0,0,0,nan,2,0.131,0,0,0,0,0,0,0,0,0,1,2,1
35.585,0.001017,0.00390625,0.001953125,-0.01367188,0.1875,0.1171875,9.859375,0.001953125,0,0.001953125,nan,nan,nan,0.005249023,-0.006591797,-0.01452637,0,0,-0.01452637,0,4.075,0,0,0,0,nan,2,0.141,0,0,0,0,0,0,0,0,0,1,2,1
35.595,0.001205,0.005859375,-0.0078125,-0.001953125,-0.1640625,0.15625,10.00781,-0.001953125,-0.001953125,-0.005859375,nan,nan,nan,0.005249023,-0.006591797,-0.01452637,0,0,-0.01452637,0,4.075,0,0,0,0,nan,2,0.009,0,0,0,0,0,0,0,0,0,1,2,1
35.604,0.001025,0,0.001953125,0.01367188,-0.3203125,-0.3203125,9.695312,0.001953125,-0.001953125,0.0078125,nan,nan,nan,0.005249023,-0.006469727,-0.01452637,0,0,-0.01452637,0,4.075,0,0,0,0,nan,2,0.018,0,0,0,0,0,0,0,0,0,1,2,1
35.615,0.000974,-0.0078125,0.005859375,-0.001953125,0.2109375,0.046875,9.640625,-0.005859375,0,0,nan,nan,nan,0.005249023,-0.006469727,-0.01452637,0,0,-0.01452637,0,4.075,0,0,0,0,nan,2,0.029,0,0,0,0,0,0,0,0,0,1,2,1
35.625,0.001007,0.00390625,-0.005859375,-0.009765625,0.03125,0.09375,9.578125,0.001953125,0,-0.001953125,nan,nan,nan,0.005249023,-0.006469727,-0.01464844,0,0,-0.01464844,0,4.075,0,0,0,0,nan,2,0.039,0,0,0,0,0,0,0,0,0,1,2,1
35.635,0.001006,0.005859375,0.00390625,-0.005859375,0.25,0,9.882812,-0.001953125,0,-0.001953125,nan,nan,nan,0.005249023,-0.006347656,-0.01464844,0,0,-0.01464844,0,4.075,0,0,0,0,nan,2,0.049,0,0,0,0,0,0,0,0,0,1,2,1
35.645,0.001006,0,-0.005859375,-0.005859375,0.0078125,0.0078125,10.1875,0,-0.001953125,-0.00390625,nan,nan,nan,0.005249023,-0.006347656,-0.01464844,0,0,-0.01464844,0,4.075,0,0,0,0,nan,2,0.06,0,0,0,0,0,0,0,0,0,1,2,1
35.655,0.001006,0.009765625,0.00390625,-0.009765625,0.1796875,-0.0234375,10.07031,0.001953125,0,-0.001953125,nan,nan,nan,0.005126953,-0.006347656,-0.01452637,0,0,-0.01452637,0,4.075,0,0,0,0,nan,2,0.07,0,0,0,0,0,0,0,0,0,1,2,1
35.665,0.001006,-0.005859375,-0.005859375,-0.0078125,0.0625,-0.0390625,9.585938,-0.00390625,0,0,nan,nan,nan,0.005126953,-0.006347656,-0.01452637,0,0,-0.01452637,0,4.075,0,0,0,0,nan,2,0.08,0,0,0,0,0,0,0,0,0,1,2,1
35.674,0.001011,0.00390625,0,0.001953125,0,-0.0546875,9.695312,0.001953125,-0.001953125,0.00390625,nan,nan,nan,0.005126953,-0.006347656,-0.01452637,0,0,-0.01452637,0,4.075,0,0,0,0,nan,2,0.089,0,0,0,0,0,0,0,0,0,1,2,1
35.685,0.001011,0.00390625,0,0.0078125,-0.125,0,9.914062,0.001953125,0,0,nan,nan,nan,0.005126953,-0.006225586,-0.01452637,0,0,-0.01452637,0,4.075,0,0,0,0,nan,2,0.099,0,0,0,0,0,0,0,0,0,1,2,1
35.695,0.001011,0,-0.005859375,-0.005859375,0.03125,0.1875,9.796875,0,-0.001953125,-0.00390625,nan,nan,nan,0.005126953,-0.006225586,-0.01464844,0,0,-0.01464844,0,4.075,0,0,0,0,nan,2,0.109,0,0,0,0,0,0,0,0,0,1,2,1
35.705,0.001011,0.00390625,0,0.00390625,-0.171875,-0.03125,9.914062,0,0,0.001953125,nan,nan,nan,0.005126953,-0.006225586,-0.01464844,0,0,-0.01464844,0,4.075,0,0,0,0,nan,2,0.119,0,0,0,0,0,0,0,0,0,1,2,1
35.715,0.001016,0.001953125,-0.005859375,-0.00390625,0.0703125,0.1953125,9.898438,0,0,-0.00390625,nan,nan,nan,0.005126953,-0.006103516,-0.01464844,0,0,-0.01464844,0,4.075,0,0,0,0,nan,2,0.129,0,0,0,0,0,0,0,0,0,1,2,1
35.725,0.001004,-0.001953125,0,0,-0.109375,-0.0859375,9.789062,0,0,0.001953125,nan,nan,nan,0.005126953,-0.006103516,-0.01464844,0,0,-0.01464844,0,4.075,0,0,0,0,nan,2,0.139,0,0,0,0,0,0,0,0,0,1,2,1
35.735,0.000985,-0.00390625,-0.001953125,0,0.078125,0.0390625,9.757812,-0.00390625,0,0,nan,nan,nan,0.005004883,-0.006103516,-0.01464844,0,0,-0.01464844,0,4.075,0,0,0,0,nan,2,0.149,0,0,0,0,0,0,0,0,0,1,2,1
35.745,0.001048,0.00390625,-0.001953125,0.001953125,-0.0546875,0.0234375,9.835938,0.005859375,-0.001953125,0,nan,nan,nan,0.005004883,-0.005981445,-0.01464844,0,0,-0.01464844,0,4.075,0,0,0,0,nan,2,0.16,0,0,0,0,0,0,0,0,0,1,2,1
35.755,0.001014,-0.00390625,0.00390625,-0.00390625,0,0.09375,9.921875,-0.00390625,0,0,nan,nan,nan,0.005004883,-0.005981445,-0.01464844,0,0,-0.01464844,0,4.075,0,0,0,0,nan,2,0.17,0,0,0,0,0,0,0,0,0,1,2,1
35.764,0.000984,0,0.001953125,0.001953125,0.0078125,-0.0703125,9.78125,0.001953125,0.001953125,0.001953125,nan,nan,nan,0.005004883,-0.005981445,-0.01452637,0,0,-0.01452637,0,4.075,0,0,0,0,nan,2,0.179,0,0,0,0,0,0,0,0,0,1,2,1
35.775,0.000969,-0.005859375,0,-0.005859375,-0.0625,0,9.90625,-0.00390625,-0.001953125,-0.00390625,nan,nan,nan,0.005004883,-0.005859375,-0.01464844,0,0,-0.01464844,0,4.075,0,0,0,0,nan,2,0.189,0,0,0,0,0,0,0,0,0,1,2,1
35.785,0.000992,-0.00390625,-0.001953125,0.0078125,-0.0234375,0.0703125,9.867188,-0.001953125,0,0.00390625,nan,nan,nan,0.005004883,-0.005859375,-0.01464844,0,0,-0.01464844,0,4.075,0,0,0,0,nan,2,0.199,0,0,0,0,0,0,0,0,0,1,2,1
35.795,0.001026,0,0,-0.00390625,-0.0234375,-0.015625,9.828125,0,0,0,nan,nan,nan,0.005004883,-0.005859375,-0.01452637,0,0,-0.01452637,0,4.075,0,0,0,0,nan,2,0.209,0,0,0,0,0,0,0,0,0,1,2,1
35.805,0.001009,0,0.001953125,0.001953125,-0.03125,0.0546875,9.820312,0,0.001953125,0,nan,nan,nan,0.004882812,-0.005737305,-0.01452637,0,0,-0.01452637,0,4.075,0,0,0,0,nan,2,0.219,0,0,0,0,0,0,0,0,0,1,2,1
35.815,0.001028,-0.001953125,-0.001953125,0,0.015625,-0.0078125,9.796875,0,-0.001953125,0,nan,nan,nan,0.004882812,-0.005737305,-0.01452637,0,0,-0.01452637,0,4.075,0,0,0,0,nan,2,0.229,0,0,0,0,0,0,0,0,0,1,2,1
35.825,0.001008,0,0.001953125,0.00390625,-0.0234375,0.0390625,9.804688,0,0,0,nan,nan,nan,0.004882812,-0.005737305,-0.01464844,0,0,-0.01464844,0,4.075,0,0,0,0,nan,2,0.239,0,0,0,0,0,0,0,0,0,1,2,1
35.835,0.000996,0.00390625,-0.001953125,0,-0.0234375,0.0078125,9.804688,0,0,0.001953125,nan,nan,nan,0.004882812,-0.005737305,-0.01452637,0,0,-0.01452637,0,4.075,0,0,0,0,nan,2,0.25,0,0,0,0,0,0,0,0,0,1,2,1
35.845,0.001019,0.00390625,0.001953125,0,-0.0234375,0.0234375,9.835938,0.001953125,0,0,nan,nan,nan,0.004882812,-0.005615234,-0.01464844,0,0,-0.01464844,0,4.075,0,0,0,0,nan,2,0.26,0,0,0,0,0,0,0,0,0,1,2,1
35.855,0.001014,-0.001953125,0,0.00390625,-0.0390625,-0.0078125,9.765625,0,-0.001953125,0.00390625,nan,nan,nan,0.004882812,-0.005615234,-0.01452637,0,0,-0.01452637,0,4.075,0,0,0,0,nan,2,0.27,0,0,0,0,0,0,0,0,0,1,2,1
35.864,0.00103,0.001953125,0.001953125,-0.001953125,-0.015625,0.03125,9.851562,0,0,0,nan,nan,nan,0.004882812,-0.005615234,-0.01452637,0,0,-0.01452637,0,4.075,0,0,0,0,nan,2,0.279,0,0,0,0,0,0,0,0,0,1,2,1
35.875,0.001038,0,-0.001953125,-0.001953125,-0.0078125,0.015625,9.898438,0.001953125,-0.001953125,0,nan,nan,nan,0.004882812,-0.005493164,-0.01452637,0,0,-0.01452637,0,4.075,0,0,0,0,nan,2,0.289,0,0,0,0,0,0,0,0,0,1,2,1
35.885,0.001005,0,0.001953125,0,0.015625,0.046875,9.890625,0,0,0,nan,nan,nan,0.004760742,-0.005493164,-0.01452637,0,0,-0.01452637,0,4.075,0,0,0,0,nan,2,0.299,0,0,0,0,0,0,0,0,0,1,2,1
35.895,0.000989,0,-0.001953125,0.001953125,0.015625,0.0546875,9.875,0,0,0.001953125,nan,nan,nan,0.004760742,-0.005493164,-0.01452637,0,0,-0.01452637,0,4.075,0,0,0,0,nan,2,0.309,0,0,0,0,0,0,0,0,0,1,2,1
35.905,0.000993,-0.001953125,0.001953125,0.001953125,0,0.0078125,9.882812,-0.001953125,0,0,nan,nan,nan,0.004760742,-0.005493164,-0.01452637,0,0,-0.01452637,0,4.075,0,0,0,0,nan,2,0.319,0,0,0,0,0,0,0,0,0,1,2,1
35.915,0.000989,0,0,0,-0.015625,-0.0078125,9.835938,0,-0.001953125,0,nan,nan,nan,0.004760742,-0.005493164,-0.01452637,0,0,-0.01452637,0,4.075,0,0,0,0,nan,2,0.329,0,0,0,0,0,0,0,0,0,1,2,1
35.925,0.000982,0,-0.001953125,-0.001953125,0,-0.0078125,9.757812,0.001953125,0,0,nan,nan,nan,0.004760742,-0.005371094,-0.01452637,0,0,-0.01452637,0,4.075,0,0,0,0,nan,2,0.339,0,0,0,0,0,0,0,0,0,1,2,1
35.935,0.00104,0.001953125,-0.001953125,0,-0.015625,0.0078125,9.75,0.001953125,-0.001953125,-0.001953125,nan,nan,nan,0.004760742,-0.005371094,-0.01452637,0,0,-0.01452637,0,4.075,0,0,0,0,nan,2,0.35,0,0,0,0,0,0,0,0,0,1,2,1
35.945,0.001012,0.00390625,-0.001953125,0,-0.015625,0.0390625,9.835938,0.001953125,-0.001953125,0,nan,nan,nan,0.004760742,-0.005371094,-0.01452637,0,0,-0.01452637,0,4.075,0,0,0,0,nan,2,0.36,0,0,0,0,0,0,0,0,0,1,2,1
35.955,0.001056,-0.001953125,0.00390625,-0.001953125,-0.015625,0.0078125,9.851562,-0.001953125,0.001953125,0,nan,nan,nan,0.004760742,-0.005371094,-0.01452637,0,0,-0.01452637,0,4.075,0,0,0,0,nan,2,0.37,0,0,0,0,0,0,0,0,0,1,2,1
35.964,0.001033,0,-0.001953125,-0.00390625,-0.03125,0.0078125,9.867188,0,-0.001953125,0,nan,nan,nan,0.004760742,-0.005249023,-0.01452637,0,0,-0.01452637,0,4.074,0,0,0,0,nan,2,0.379,0,0,0,0,0,0,0,0,0,1,2,1
35.975,0.00103,0.001953125,0,0.001953125,-0.03125,0,9.8125,0,-0.001953125,0,nan,nan,nan,0.004760742,-0.005249023,-0.01452637,0,0,-0.01452637,0,4.074,0,0,0,0,nan,2,0.389,0,0,0,0,0,0,0,0,0,1,2,1
35.985,0.000985,-0.001953125,-0.001953125,0.001953125,-0.0234375,0,9.867188,-0.001953125,0,0.001953125,nan,nan,nan,0.004760742,-0.005249023,-0.01452637,0,0,-0.01452637,0,4.074,0,0,0,0,nan,2,0.399,0,0,0,0,0,0,0,0,0,1,2,1
35.995,0.001031,0.00390625,0.001953125,-0.001953125,-0.0390625,0,9.835938,0,0,0,nan,nan,nan,0.004760742,-0.005249023,-0.01452637,0,0,-0.01452637,0,4.074,0,0,0,0,nan,2,0.409,0,0,0,0,0,0,0,0,0,1,2,1
36.005,0.000958,-0.001953125,-0.001953125,0,-0.015625,0.0234375,9.84375,0,-0.001953125,0,nan,nan,nan,0.004638672,-0.005126953,-0.01452637,0,0,-0.01452637,0,4.074,0,0,0,0,nan,2,0.419,0,0,0,0,0,0,0,0,0,1,2,1
36.015,0.001003,0.001953125,0,0,0,0.046875,9.828125,0,0,0,nan,nan,nan,0.004638672,-0.005126953,-0.01452637,0,0,-0.01452637,0,4.074,0,0,0,0,nan,2,0.429,0,0,0,0,0,0,0,0,0,1,2,1
36.025,0.001014,0,0,0.001953125,-0.0234375,0.015625,9.828125,0,0,0.001953125,nan,nan,nan,0.004638672,-0.005126953,-0.01452637,0,0,-0.01452637,0,4.074,0,0,0,0,nan,2,0.439,0,0,0,0,0,0,0,0,0,1,2,1
36.035,0.001007,0.001953125,0,0,0.03125,0.03125,9.796875,0.001953125,0,0,nan,nan,nan,0.004638672,-0.005126953,-0.01452637,0,0,-0.01452637,0,4.074,0,0,0,0,nan,2,0.449,0,0,0,0,0,0,0,0,0,1,2,1
36.045,0.001002,0,-0.001953125,0.001953125,-0.0546875,0.015625,9.78125,0,-0.001953125,-0.001953125,nan,nan,nan,0.004638672,-0.005126953,-0.01452637,0,0,-0.01452637,0,4.074,0,0,0,0,nan,2,0.46,0,0,0,0,0,0,0,0,0,1,2,1
