t,dt_s,gyro_x,gyro_y,gyro_z,acc_x,acc_y,acc_z,rates.x,rates.y,rates.z,ratesTarget.x,ratesTarget.y,ratesTarget.z,attitude.x,attitude.y,attitude.z,attitudeTarget.x,attitudeTarget.y,attitudeTarget.z,thrustTarget,battery_v,rc_roll,rc_pitch,rc_yaw,rc_throttle,rc_mode,flight_mode,rc_age_s,armed,fault_mask,motor_rl,motor_rr,motor_fr,motor_fl,rate_i_x,rate_i_y,rate_i_z,mix_scale,control_source,accel_correction_confidence
52.363,0.001002,-0.01367188,-0.03320312,-0.005859375,0,0.03125,8.585938,-0.001953125,-0.005859375,-0.015625,0,0,0,0.001708984,-0.002197266,0.0001220703,0,0,0.0007324219,0,4.077,0,0,0,0,nan,2,0.211,1,0,0.1000061,0.1000061,0.1000061,0.1000061,0,0,0,1,2,0
52.373,0.001002,-0.00390625,-0.01757812,-0.00390625,-0.71875,0.9765625,7.023438,0.00390625,-0.009765625,-0.001953125,0,0,0,0.001586914,-0.002197266,0.0001220703,0,0,0.0007324219,0,4.077,0,0,0,0,nan,2,0.221,1,0,0.1000061,0.1000061,0.1000061,0.1000061,0,0,0,1,2,0
52.383,0.001002,-0.005859375,-0.01171875,0.02734375,0.875,-1.5,5.890625,-0.005859375,0.009765625,0.01757812,0,0,0,0.001464844,-0.002075195,0.0002441406,0,0,0.0007324219,0,4.077,0,0,0,0,nan,2,0.231,1,0,0.1000061,0.1000061,0.1000061,0.1000061,0,0,0,1,2,0
52.394,0.001002,-0.03320312,0.04492188,0.00390625,0.125,0.4140625,11.86719,0.005859375,0.01367188,0.01171875,0,0,0,0.001586914,-0.002075195,0.0003662109,0,0,0.0007324219,0,4.077,0,0,0,0,nan,2,0.241,1,0,0.1000061,0.1000061,0.1000061,0.1000061,0,0,0,1,2,0
52.404,0.001002,-0.01367188,0.009765625,-0.0078125,-0.4453125,-1.09375,11.77344,0.0078125,0.001953125,-0.00390625,0,0,0,0.001708984,-0.002075195,0.0003662109,0,0,0.0007324219,0,4.077,0,0,0,0,nan,2,0.251,1,0,0.1000061,0.1000061,0.1000061,0.1000061,0,0,0,1,2,0
52.414,0.001002,-0.02539062,0.03125,0.00390625,-0.0078125,0.21875,13.22656,-0.009765625,0.001953125,-0.005859375,0,0,0,0.001708984,-0.002075195,0.0003662109,0,0,0.0007324219,0,4.077,0,0,0,0,nan,2,0.262,1,0,0.1000061,0.1000061,0.1000061,0.1000061,0,0,0,1,2,0
52.423,0.001015,0.03515625,0.01171875,0.02539062,-0.1953125,0.359375,10.375,-0.0078125,0.009765625,0.009765625,0,0,0,0.001586914,-0.002075195,0.0003662109,0,0,0.0007324219,0,4.077,0,0,0,0,nan,2,0.271,1,0,0.1000061,0.1000061,0.1000061,0.1000061,0,0,0,1,2,0
52.433,0.001051,-0.02929688,0.009765625,0.07421875,-0.0546875,0.40625,10.53906,0.00390625,-0.01171875,0.06445312,0,0,0,0.001586914,-0.002075195,0.0007324219,0,0,0.0007324219,0,4.077,0,0,0,0,nan,2,0.281,1,0,0.1000061,0.1000061,0.1000061,0.1000061,0,0,0,1,2,0
52.443,0.001017,0.01171875,-0.01171875,0.09960938,-0.328125,0.0390625,10.21094,-0.001953125,0.00390625,0.1015625,0,0,0,0.001464844,-0.002075195,0.001586914,0,0,0.0007324219,0,4.077,0,0,0,0,nan,2,0.291,1,0,0.1000061,0.1000061,0.1000061,0.1000061,0,0,0,1,2,0.1428571
52.453,0.001027,0.02929688,-0.03710938,0.02929688,0.3828125,-0.7734375,9.875,-0.001953125,-0.005859375,0.05859375,0,0,0,0.001342773,-0.002197266,0.002441406,0,0,0.0007324219,0,4.077,0,0,0,0,nan,2,0.301,1,0,0.1000061,0.1000061,0.1000061,0.1000061,0,0,0,1,2,0.7301587
52.463,0.001018,0.0078125,0.009765625,-0.04492188,-0.015625,-0.6796875,11.14844,0.00390625,0.001953125,-0.01171875,0,0,0,0.001342773,-0.002197266,0.002685547,0,0,0.0007324219,0,4.077,0,0,0,0,nan,2,0.311,1,0,0.1000061,0.1000061,0.1000061,0.1000061,0,0,0,1,2,0
52.473,0.001018,-0.02539062,0.00390625,-0.06835938,-0.515625,1.335938,10.67969,-0.01171875,0.005859375,-0.06054688,0,0,0,0.001342773,-0.002197266,0.002319336,0,0,0.0007324219,0,4.077,0,0,0,0,nan,2,0.321,1,0,0.1000061,0.1000061,0.1000061,0.1000061,0,0,0,1,2,0
52.484,0.001012,-0.01757812,0.01367188,-0.02929688,0.1796875,-0.1171875,8.25,0.005859375,0.00390625,-0.04101562,0,0,0,0.001342773,-0.002197266,0.001708984,0,0,0.0007324219,0,4.077,0,0,0,0,nan,2,0.331,1,0,0.1000061,0.1000061,0.1000061,0.1000061,0,0,0,1,2,0
52.494,0.001059,0.02148438,-0.009765625,0.02539062,-0.0546875,-1.054688,10.57031,0,-0.005859375,0.009765625,0,0,0,0.001342773,-0.002197266,0.001586914,0,0,0.0007324219,0,4.077,0,0,0,0.0001831055,nan,2,0.341,1,0,0.1000061,0.1000061,0.1000061,0.1000061,0,0,0,1,3,0
52.504,0.001027,0,0.015625,0.015625,0.6484375,1.515625,11.53906,-0.009765625,0.005859375,0.0234375,0,0,0,0.001342773,-0.002319336,0.001708984,0,0,0.0007324219,0,4.077,0,0,0,0.002197266,nan,2,0.351,1,0,0.1000061,0.1000061,0.1000061,0.1000061,0,0,0,1,3,0
52.514,0.001015,-0.02539062,0.02929688,0.03320312,-0.671875,1.273438,11.88281,-0.01171875,0.005859375,0.03515625,0,0,0,0.001342773,-0.002197266,0.002075195,0,0,0.0007324219,0,4.077,0,0,0,0.004211426,nan,2,0.362,1,0,0.1000061,0.1000061,0.1000061,0.1000061,0,0,0,1,3,0
52.524,0.000995,-0.03710938,0,0.0625,0.828125,1.164062,9.710938,-0.01171875,0.01367188,0.04882812,0,0,0,0.001220703,-0.002197266,0.002441406,0,0,0.0007324219,0,4.077,0,0,0,0.006225586,nan,2,0.372,1,0,0.1000061,0.1000061,0.1000061,0.1000061,0,0,0,1,3,0.9047619
52.533,0.000991,0.04492188,0.009765625,0.0859375,0.15625,1.34375,12.78125,0.01757812,0,0.06835938,0,0,0,0.001342773,-0.002197266,0.003051758,0,0,0.0007324219,0,4.077,0,0,0,0.008178711,nan,2,0.381,1,0,0.1000061,0.1000061,0.1000061,0.1000061,0,0,0,1,3,0
52.543,0.001008,0.009765625,0.001953125,0.09179688,0.7265625,0.34375,4.757812,0.01171875,0,0.08789062,0,0,0,0.001464844,-0.002075195,0.00378418,0,0,0.0007324219,0,4.077,0,0,0,0.01019287,nan,2,0.391,1,0,0.1000061,0.1000061,0.1000061,0.1000061,0,0,0,1,3,0
52.553,0.00101,0.005859375,0.02148438,0.078125,-1.421875,-0.1171875,9.25,0.001953125,0.01171875,0.0859375,0,0,0,0.001464844,-0.002075195,0.004760742,0,0,0.0007324219,0,4.077,0,0,0,0.01220703,nan,2,0.401,1,0,0.1000061,0.1000061,0.1000061,0.1000061,0,0,0,1,3,0.07936508
52.563,0.001004,0.04101562,0.00390625,0.005859375,-1.117188,-3.335938,13.19531,-0.001953125,0.0078125,0.03515625,0,0,0,0.001464844,-0.002075195,0.005371094,0,0,0.0007324219,0,4.077,0,0,0,0.01422119,nan,2,0.411,1,0,0.1000061,0.1000061,0.1000061,0.1000061,0,0,0,1,3,0
52.573,0.001004,0.009765625,0.02148438,-0.04101562,-0.3203125,-1.554688,7.953125,0.01171875,0.0078125,-0.02929688,0,0,0,0.001464844,-0.001953125,0.005371094,0,0,0.0007324219,0,4.077,0,0,0,0.01617432,nan,2,0.421,1,0,0.1000061,0.1000061,0.1000061,0.1000061,0,0,0,1,3,0
52.583,0.001004,0.00390625,-0.00390625,-0.0234375,-0.2890625,2.265625,11.89062,0.015625,-0.015625,-0.03320312,0,0,0,0.001708984,-0.002075195,0.005004883,0,0,0.0007324219,0,4.077,0,0,0,0.01818848,nan,2,0.431,1,0,0.1000061,0.1000061,0.1000061,0.1000061,0,0,0,1,3,0
52.594,0.001004,-0.06054688,0.02929688,0.05078125,0.6640625,2.546875,16.75,-0.01171875,0.00390625,0.01757812,0,0,0,0.001708984,-0.002075195,0.004882812,0,0,0.0007324219,0,4.077,0,0,0,0.02020264,nan,2,0.441,1,0,0.1000061,0.1000061,0.1000061,0.1000061,0,0,0,1,3,0
52.604,0.001004,-0.06445312,0.0078125,0.1015625,1.6875,0.3984375,16.01562,-0.02539062,0.009765625,0.078125,0,0,0,0.001708984,-0.001953125,0.005371094,0,0,0.0007324219,0,4.077,0,0,0,0.0222168,nan,2,0.451,1,0,0.1000061,0.1000061,0.1000061,0.1000061,0,0,0,1,3,0
52.614,0.001004,0.02734375,-0.02734375,0.06054688,-0.484375,2.578125,6.414062,0.009765625,-0.01757812,0.07617188,0,0,0,0.001586914,-0.002075195,0.006225586,0,0,0.0007324219,0,4.077,0,0,0,0.02416992,nan,2,0.462,1,0,0.1000061,0.1000061,0.1000061,0.1000061,0,0,0,1,3,0
52.624,0.001004,0.009765625,0.0078125,-0.00390625,-0.15625,4.484375,10.07812,0.02734375,-0.01757812,0.01171875,0,0,0,0.001831055,-0.002197266,0.006713867,0,0,0.0007324219,0,4.077,0,0,0,0.02618408,nan,2,0.472,1,0,0.1000061,0.1000061,0.1000061,0.1000061,0,0,0,1,3,0
52.634,0.000997,0.02734375,0.01757812,-0.02929688,1.09375,4.851562,10.71875,0.01171875,0.009765625,-0.03320312,0,0,0,0.001831055,-0.002197266,0.006469727,0,0,0.0007324219,0,4.077,0,0,0,0.02838135,nan,2,0.482,1,0,0.1000061,0.1000061,0.1000061,0.1000061,0,0,0,1,3,0
52.643,0.001008,-0.0390625,0.015625,0.02734375,-1.476562,-1.351562,8.992188,-0.015625,0,0,0,0,0,0.001831055,-0.002197266,0.006225586,0,0,0.0007324219,0,4.077,0,0,0,0.0302124,nan,2,0.491,1,0,0.1000061,0.1000061,0.1000061,0.1000061,0,0,0,1,3,0
52.653,0.0009869999,0.01171875,0.009765625,0.08398438,-2.257812,-1.359375,7.710938,0.01367188,0.005859375,0.06445312,0,0,0,0.001953125,-0.002197266,0.006713867,0,0,0.0007324219,0,4.077,0,0,0,0.03222656,nan,2,0.501,1,0,0.1000061,0.1000061,0.1000061,0.1000061,0,0,0,1,3,0
52.663,0.001012,-0.02734375,0,0.0859375,-2.351562,-0.3046875,5.234375,0.00390625,0.00390625,0.08789062,0,0,0,0.002075195,-0.002197266,0.007446289,0,0,0.0007324219,0,4.077,0,0,0,0.03417969,nan,2,0.511,1,0,0.1000061,0.1000061,0.1000061,0.1000061,0,0,0,1,3,0
52.673,0.001012,0.078125,-0.02929688,0.07421875,-0.5234375,1.265625,5.085938,0.0390625,-0.0078125,0.08007812,0,0,0,0.002197266,-0.002197266,0.008300781,0,0,0.0007324219,0,4.077,0,0,0,0.03619385,nan,2,0.521,1,0,0.1000061,0.1000061,0.1000061,0.1000061,0,0,0,1,3,0
52.683,0.00101,-0.02734375,0.001953125,0.02734375,0.921875,1.445312,5.570312,0.01757812,-0.009765625,0.04882812,0,0,0,0.002441406,-0.002319336,0.009033203,0,0,0.0007324219,0,4.077,0,0,0,0.03820801,nan,2,0.531,1,0,0.1000061,0.1000061,0.1000061,0.1000061,0,0,0,1,3,0
52.694,0.001039,0.01171875,0.01757812,0.01757812,0.3828125,0.7109375,7.265625,-0.001953125,0.005859375,0.02148438,0,0,0,0.002563477,-0.002319336,0.009277344,0,0,0.0007324219,0,4.077,0,0,0,0.04022217,nan,2,0.541,1,0,0.1000061,0.1000061,0.1000061,0.1000061,0,0,0,1,3,0
52.704,0.001018,0.009765625,0.00390625,0.02539062,-0.3125,0.265625,7.929688,-0.005859375,0.00390625,0.0234375,0,0,0,0.002441406,-0.002319336,0.009521484,0,0,0.0007324219,0,4.077,0,0,0,0.04217529,nan,2,0.551,1,0,0.1000061,0.1000061,0.1000061,0.1000061,0,0,0,1,3,0
52.714,0.001018,0.02148438,0.02734375,0.01367188,-0.65625,0.796875,13.96094,-0.009765625,0.01757812,0.01953125,0,0,0,0.002441406,-0.002319336,0.009765625,0,0,0.0007324219,0,4.077,0,0,0,0.04418945,nan,2,0.562,1,0,0.1000061,0.1000061,0.1000061,0.1000061,0,0,0,1,3,0
52.724,0.001052,-0.07226562,0.01171875,0.001953125,-1.882812,2.828125,10.67969,-0.01367188,-0.005859375,0.009765625,0,0,0,0.002563477,-0.002319336,0.009887695,0,0,0.0007324219,0,4.077,0,0,0,0.04638672,nan,2,0.572,1,0,0.1000061,0.1000061,0.1000061,0.1000061,0,0,0,1,3,0
52.733,0.001032,0.05273438,0,-0.01367188,0.3671875,-4.195312,10.20312,0.02148438,0.00390625,-0.01171875,0,0,0,0.002441406,-0.002197266,0.009887695,0,0,0.0007324219,0,4.077,0,0,0,0.04821777,nan,2,0.581,1,0,0.1000061,0.1000061,0.1000061,0.1000061,0,0,0,1,3,0
52.743,0.00096,-0.015625,-0.0078125,-0.02539062,-1.335938,-4.734375,9.992188,-0.00390625,-0.00390625,-0.01757812,-0.015625,0.01367188,0,0.002563477,-0.002319336,0.009765625,0,0,0.0007324219,0.1001587,4.077,0,0,0,0.0501709,nan,2,0.591,1,0,0.09503174,0.1075134,0.09429932,0.1038208,0,0,0,1,3,0
52.753,0.000974,-0.0234375,-0.00390625,0.0234375,0.3828125,-0.75,9.835938,-0.03515625,0.00390625,-0.001953125,-0.01367188,0.01367188,0,0.002197266,-0.002197266,0.009643555,0,0,0.0007324219,0.1018677,4.077,0,0,0,0.05218506,nan,2,0.601,1,0,0.1320496,0.07324219,0.1257019,0.07641602,0,0,0,1,3,0.7142857
52.763,0.001005,0.02734375,-0.02148438,0.04101562,0.7265625,0.5234375,13.75781,-0.009765625,0,0.03125,-0.01171875,0.01367188,0,0.001953125,-0.002197266,0.009765625,0,0,0.0007324219,0.1035461,4.077,0,0,0,0.05419922,nan,2,0.611,1,0,0.1393127,0.07015991,0.1439209,0.0607605,0,0,0,1,3,0
52.773,0.001005,0.0078125,-0.001953125,0.04101562,-1.710938,0.421875,8.453125,-0.001953125,0,0.04101562,-0.01171875,0.01367188,0,0.001953125,-0.002197266,0.01013184,0,0,0.0007324219,0.1052246,4.077,0,0,0,0.05621338,nan,2,0.621,1,0,0.1277161,0.08392334,0.130127,0.07910156,0,0,0,1,3,0
52.784,0.001035,-0.005859375,0.01171875,0.08398438,0.4921875,-3.484375,6.328125,-0.001953125,0.001953125,0.06835938,-0.01171875,0.01367188,0,0.001953125,-0.002319336,0.01074219,0,0,0.0007324219,0.1069031,4.077,0,0,0,0.05822754,nan,2,0.631,1,0,0.155426,0.05804443,0.1560669,0.05807495,0,0,0,1,3,0
52.794,0.001005,-0.001953125,-0.0234375,0.01367188,-0.640625,3.460938,7.054688,0.01367188,-0.00390625,0.046875,-0.01171875,0.01367188,0,0.002075195,-0.002319336,0.01147461,0,0,0.0007324219,0.1085815,4.077,0,0,0,0.06018066,nan,2,0.641,1,0,0.08105469,0.140625,0.07992554,0.1327515,0,0,0,1,3,0
52.804,0.001005,0.005859375,-0.01367188,0,1.21875,-1.476562,10.32031,-0.00390625,-0.001953125,-0.001953125,-0.01171875,0.01367188,0,0.002075195,-0.002319336,0.01159668,0,0,0.0007324219,0.11026,4.077,0,0,0,0.06219482,nan,2,0.651,1,0,0.08026123,0.1427917,0.07821655,0.1398315,0,0,0,1,3,0
52.814,0.001005,0.0234375,-0.01367188,0.02148438,-0.421875,3.5625,11.59375,0,0.005859375,0.01367188,-0.01171875,0.01367188,0,0.001953125,-0.002197266,0.01159668,0,0,0.0007324219,0.111969,4.077,0,0,0,0.06420898,nan,2,0.661,1,0,0.1273193,0.09991455,0.1287231,0.09188843,0,0,0,1,3,0
52.824,0.001005,0,0.001953125,0.03515625,0.6484375,-4.609375,6.492188,-0.0078125,0.005859375,0.03125,-0.01171875,0.01367188,0,0.001953125,-0.002075195,0.01184082,0,0,0.0007324219,0.1136475,4.077,0,0,0,0.06622314,nan,2,0.672,1,0,0.1409607,0.08789062,0.1392822,0.0864563,0,0,0,1,3,0
52.833,0.001019,-0.03320312,-0.00390625,-0.03320312,1.359375,-0.90625,5.945312,-0.00390625,-0.00390625,-0.0078125,-0.01171875,0.01367188,0,0.001831055,-0.002075195,0.01196289,0,0,0.0007324219,0.1153259,4.077,0,0,0,0.06817627,nan,2,0.681,1,0,0.07095337,0.1636658,0.0670166,0.159668,0,0,0,1,3,0
52.843,0.001015,-0.05859375,0.0703125,-0.01757812,-1.757812,1.335938,13.99219,-0.01171875,0.009765625,-0.01953125,-0.01171875,0.01367188,0,0.001953125,-0.002197266,0.01184082,0,0,0.0007324219,0.1170044,4.077,0,0,0,0.07019043,nan,2,0.691,1,0,0.1021729,0.1237793,0.1035461,0.1385193,0,0,0,1,3,0
52.853,0.001017,-0.02734375,0.001953125,0.00390625,1.867188,-3.257812,7.453125,-0.01171875,0.005859375,0.001953125,-0.009765625,0.01171875,0,0.001708984,-0.002075195,0.01171875,0,0,0.0007324219,0.1186829,4.077,0,0,0,0.07220459,nan,2,0.701,1,0,0.1378174,0.1005554,0.1352539,0.1011353,0,0,0,1,3,0
52.863,0.001015,0.01757812,0.02929688,0.02734375,-1.015625,3.0625,7.851562,0.0078125,-0.0078125,0.02148438,-0.009765625,0.01367188,0,0.001708984,-0.002197266,0.01184082,0,0,0.0007324219,0.1203918,4.077,0,0,0,0.07421875,nan,2,0.711,1,0,0.1459351,0.09817505,0.149292,0.08813477,0,0,0,1,3,0
52.873,0.001015,-0.03515625,0.04101562,0.06640625,0.8125,0.921875,17.3125,0.01171875,-0.00390625,0.05078125,-0.01171875,0.01367188,0,0.001831055,-0.002197266,0.01220703,0,0,0.0007324219,0.1220703,4.077,0,0,0,0.07617188,nan,2,0.721,1,0,0.1732483,0.07180786,0.1743774,0.06881714,0,0,0,1,3,0
52.884,0.000945,-0.01953125,-0.015625,0.03125,0.1953125,-0.8046875,7.351562,0.001953125,0.0078125,0.04492188,-0.009765625,0.01171875,0,0.001708984,-0.001831055,0.01269531,0,0,0.0007324219,0.1237488,4.077,0,0,0,0.07818604,nan,2,0.731,1,0,0.1315918,0.1225891,0.1299744,0.1108704,0,0,0,1,3,0
52.894,0.001018,-0.05078125,0.05078125,0.04101562,-0.7890625,-5.6875,7.523438,-0.01171875,0.01171875,0.04296875,-0.009765625,0.009765625,0,0.001586914,-0.001831055,0.01318359,0,0,0.0007324219,0.1254272,4.077,0,0,0,0.0802002,nan,2,0.741,1,0,0.1367188,0.1129761,0.1348877,0.117157,0,0,0,1,3,0.2380952
52.903,0.001008,0.03320312,-0.078125,0.03710938,-1.109375,-1.914062,14.35938,0.03710938,-0.02734375,0.04492188,-0.009765625,0.009765625,0,0.001831055,-0.001708984,0.0135498,0,0,0.0007324219,0.1269531,4.077,0,0,0,0.08197021,nan,2,0.75,1,0,0.1385803,0.1355591,0.1334839,0.1001892,0,0,0,1,3,0
52.914,0.001015,0.0546875,0.0078125,0.0078125,-1.484375,-0.03125,11.07812,0.01757812,-0.01757812,0.015625,-0.01171875,0.01171875,0,0.001953125,-0.001953125,0.01379395,0,0,0.0007324219,0.1288147,4.077,0,0,0,0.08422852,nan,2,0.761,1,0,0.1109009,0.1482849,0.1133118,0.1426697,0,0,0,1,3,0
52.924,0.001015,-0.02734375,0.01171875,-0.0078125,1.101562,3.03125,8.03125,0.00390625,0.001953125,-0.00390625,-0.01367188,0.01171875,0,0.002197266,-0.002075195,0.01391602,0,0,0.0007324219,0.1304932,4.077,0,0,0,0.08618164,nan,2,0.772,1,0,0.1115417,0.1450806,0.1125793,0.1527405,0,0,0,1,3,0
52.933,0.001005,-0.015625,0.005859375,0.02539062,1.625,-3.59375,8.367188,0.005859375,-0.01367188,0.01367188,-0.01367188,0.01367188,0,0.002197266,-0.002197266,0.01391602,0,0,0.0007324219,0.1321716,4.077,0,0,0,0.0881958,nan,2,0.781,1,0,0.1571655,0.11203,0.1526184,0.106842,0,0,0,1,3,0
52.943,0.00101,-0.00390625,0.005859375,-0.02929688,1.71875,-3.476562,4.546875,0.005859375,0.0078125,-0.015625,-0.01367188,0.01367188,0,0.002319336,-0.002197266,0.01391602,0,0,0.0007324219,0.1338501,4.077,0,0,0,0.09020996,nan,2,0.791,1,0,0.09521484,0.1706848,0.09979248,0.1697388,0,0,0,1,3,0
52.953,0.000999,-0.009765625,0.01953125,-0.05859375,1.117188,-4.539062,2.84375,0.005859375,0.0234375,-0.04492188,-0.015625,0.01171875,0,0.002441406,-0.002075195,0.01367188,0,0,0.0007324219,0.1355286,4.077,0,0,0,0.09222412,nan,2,0.801,1,0,0.08654785,0.178772,0.09121704,0.1856079,0,0,0,1,3,0
52.963,0.001005,-0.01757812,0.01757812,-0.03710938,1.164062,-4.53125,4.5625,-0.02734375,0.01953125,-0.04492188,-0.01367188,0.01171875,0,0.002319336,-0.001953125,0.01318359,0,0,0.0007324219,0.137207,4.077,0,0,0,0.09417725,nan,2,0.811,1,0,0.1288147,0.1430054,0.1251221,0.151947,0,0,0,1,3,0
52.973,0.001005,0.00390625,0.015625,-0.03320312,0.3359375,-2.304688,9.476562,0,0.00390625,-0.03515625,-0.01367188,0.01171875,0,0.002319336,-0.001831055,0.01281738,0,0,0.0007324219,0.138916,4.077,0,0,0,0.09619141,nan,2,0.821,1,0,0.1300964,0.1492004,0.1339722,0.1423645,0,0,0,1,3,0.6507937
52.984,0.001005,0.0078125,0.00390625,-0.078125,-0.640625,2.265625,9.476562,0.009765625,-0.005859375,-0.0625,-0.01367188,0.01171875,0,0.002319336,-0.001831055,0.0123291,0,0,0.0007324219,0.1405945,4.077,0,0,0,0.09820557,nan,2,0.831,1,0,0.09283447,0.1922607,0.09448242,0.1828003,0,0,0,1,3,0.6349207
52.994,0.001005,0.04101562,0.0078125,-0.0390625,-0.9296875,5.132812,8.46875,0.01757812,0.005859375,-0.06054688,-0.015625,0.01171875,0,0.002685547,-0.001953125,0.01171875,0,0,0.0007324219,0.1422729,4.077,0,0,0,0.1002197,nan,2,0.841,1,0,0.1319885,0.1513977,0.1369019,0.1488037,0,0,0,1,3,0.5714286
53.004,0.001005,-0.05273438,0.01757812,0.02929688,-1.015625,2.007812,16.20312,-0.02148438,0.00390625,0.005859375,-0.015625,0.01171875,0,0.002685547,-0.001953125,0.01147461,0,0,0.0007324219,0.1439514,4.077,0,0,0,0.1021729,nan,2,0.851,1,0,0.2107849,0.07672119,0.2013245,0.08700562,0,0,0,1,3,0
53.014,0.001005,0.08789062,-0.04492188,-0.04296875,-0.171875,8.242188,13.78125,0.03320312,-0.02539062,-0.02929688,-0.015625,0.01171875,0,0.002685547,-0.001953125,0.01135254,0,0,0.0007324219,0.1456299,4.077,0,0,0,0.104187,nan,2,0.861,1,0,0.09771729,0.2062073,0.1045837,0.1740723,0,0,0,1,3,0
53.024,0.001005,0.009765625,-0.02539062,-0.00390625,0.625,3.9375,12.19531,-0.01757812,0.005859375,-0.01757812,-0.015625,0.01171875,0,0.002685547,-0.001953125,0.0111084,0,0,0.0007324219,0.1473389,4.077,0,0,0,0.1062012,nan,2,0.872,1,0,0.1586609,0.1369629,0.1541748,0.1394958,0,0,0,1,3,0
53.033,0.00101,0.04492188,-0.0390625,0.02539062,0.53125,0.1328125,7.195312,0.01171875,-0.009765625,0.015625,-0.015625,0.01171875,0,0.002685547,-0.001953125,0.0111084,0,0,0.0007324219,0.1490173,4.077,0,0,0,0.1082153,nan,2,0.881,1,0,0.1858215,0.1200562,0.1859131,0.1042175,0,0,0,1,3,0
53.043,0.001068,-0.05859375,0.05273438,0.03125,-0.171875,-4.796875,5.09375,-0.009765625,0.0078125,0.03125,-0.015625,0.01171875,0,0.002807617,-0.001953125,0.01135254,0,0,0.0007324219,0.1506958,4.077,0,0,0,0.1102295,nan,2,0.891,1,0,0.1739502,0.1236267,0.1732178,0.1319885,0,0,0,1,3,0
53.053,0.001034,-0.0703125,0.02539062,0.03125,-1.695312,-0.890625,15.5625,-0.03320312,0.00390625,0.02734375,-0.015625,0.01171875,0,0.002563477,-0.001953125,0.01159668,0,0,0.0007324219,0.1523743,4.077,0,0,0,0.1121826,nan,2,0.901,1,0,0.1679077,0.1357727,0.1585388,0.1472778,0,0,0,1,3,0
53.063,0.001033,-0.005859375,0.00390625,0.03125,1.476562,7.585938,9.273438,0.005859375,-0.00390625,0.03320312,-0.015625,0.01171875,0,0.002563477,-0.001953125,0.01184082,0,0,0.0007324219,0.1540527,4.077,0,0,0,0.1141968,nan,2,0.911,1,0,0.1735535,0.1388245,0.1757812,0.1281128,0,0,0,1,3,0
53.074,0.001017,-0.005859375,0.009765625,0.015625,-1.453125,-8.945312,7.390625,0.001953125,0,0.015625,-0.015625,0.01171875,0,0.002563477,-0.001953125,0.01208496,0,0,0.0007324219,0.1557617,4.077,0,0,0,0.1162109,nan,2,0.921,1,0,0.151001,0.1619873,0.1545105,0.1554871,0,0,0,1,3,0
53.084,0.001028,0.06445312,-0.015625,-0.001953125,0.5,6.609375,11.60938,0.06640625,-0.01171875,0.00390625,-0.01757812,0.01171875,0,0.002929688,-0.001953125,0.01220703,0,0,0.0007324219,0.1574402,4.077,0,0,0,0.1182251,nan,2,0.931,1,0,0.1362915,0.1846008,0.1517334,0.1571045,0,0,0,1,3,0
53.094,0.001041,0.05273438,-0.02734375,0.009765625,0.7578125,-3.515625,9.171875,0.04882812,-0.01367188,0.01367188,-0.02148438,0.01367188,0,0.003540039,-0.002075195,0.0123291,0,0,0.0007324219,0.1591187,4.077,0,0,0,0.1201782,nan,2,0.941,1,0,0.1674805,0.1550903,0.1697693,0.144165,-0.0009765625,0,0,1,3,0.7301587
53.103,0.001067,0.009765625,0.005859375,0.03710938,-1.054688,4.929688,10.0625,0.02148438,-0.00390625,0.02148438,-0.02148438,0.01367188,0,0.00378418,-0.002319336,0.01245117,0,0,0.0007324219,0.1606445,4.077,0,0,0,0.1220093,nan,2,0.951,1,0,0.1732178,0.1469421,0.1802673,0.1421204,-0.0009765625,0,0,1,3,0
53.113,0.001043,0,-0.0234375,-0.03125,-0.78125,-5.453125,7.820312,-0.015625,0.01171875,-0.0078125,-0.02148438,0.01171875,0,0.003540039,-0.002075195,0.01257324,0,0,0.0007324219,0.162323,4.077,0,0,0,0.1240234,nan,2,0.961,1,0,0.1255798,0.2038879,0.1219482,0.1978455,-0.0009765625,0,0,1,3,0.2698413
53.123,0.0009860001,-0.0078125,-0.001953125,-0.06835938,-0.265625,-1.539062,12.07031,0.0078125,-0.001953125,-0.05664062,-0.02148438,0.01171875,0,0.003540039,-0.002075195,0.01220703,0,0,0.0007324219,0.1640015,4.077,0,0,0,0.1259766,nan,2,0.971,1,0,0.1023865,0.2279663,0.1082764,0.2173767,-0.0009765625,0,0,1,3,0
53.133,0.001,0.04101562,-0.0546875,-0.06640625,0.8203125,1.117188,6.289062,0.015625,-0.01757812,-0.07421875,-0.02148438,0.01367188,0,0.003540039,-0.002197266,0.01147461,0,0,0.0007324219,0.165863,4.077,0,0,0,0.1281738,nan,2,0.981,1,0,0.129364,0.2113342,0.1310425,0.1916809,-0.0009765625,0,0,1,3,0
53.143,0.000909,0.009765625,0.01171875,-0.05664062,0.3359375,-3.3125,5.226562,0.005859375,-0.01171875,-0.05273438,-0.02148438,0.01367188,0,0.003540039,-0.002319336,0.01086426,0,0,0.0007324219,0.1675415,4.077,0,0,0,0.130188,nan,2,0.991,1,0,0.1641541,0.1731262,0.1708984,0.1619873,-0.0009765625,0.0009765625,0,1,3,0
53.153,0.001003,0.02734375,0.01367188,-0.02929688,-0.609375,3.5625,12.35156,0.0078125,0.001953125,-0.04882812,-0.02148438,0.01367188,0,0.003540039,-0.002441406,0.01037598,0,0,0.0007324219,0.16922,4.077,0,0,0,0.1322021,nan,2,1.001,1,0,0.1695862,0.1678772,0.1774902,0.1619568,-0.0009765625,0.0009765625,0,1,3,0
53.163,0.001,-0.01953125,0.0078125,0.015625,-1.226562,-6.46875,2.21875,-0.005859375,-0.00390625,0.005859375,-0.02148438,0.01367188,0,0.003540039,-0.002441406,0.01013184,0,0,0.0007324219,0.1708984,4.077,0,0,0,0.1342163,nan,2,1.011,1,0,0.2195435,0.1263123,0.2174988,0.1203003,-0.0009765625,0.0009765625,0,1,3,0
53.173,0.001002,0.046875,-0.03710938,0.1210938,-1.640625,-0.109375,12.79688,0.001953125,-0.001953125,0.07226562,-0.01953125,0.01367188,0,0.003417969,-0.002441406,0.01049805,0,0,0.0007324219,0.1725769,4.077,0,0,0,0.1362305,nan,2,1.021,1,0,0.2760925,0.07440186,0.2796021,0.0602417,-0.0009765625,0.0009765625,0,1,3,0
53.184,0.000979,-0.03125,-0.0078125,0.1074219,1.03125,-2.28125,9.632812,0.009765625,-0.00390625,0.1054688,-0.02148438,0.015625,0,0.003540039,-0.002441406,0.01147461,0,0,0.0007324219,0.1742859,4.077,0,0,0,0.1381836,nan,2,1.031,1,0,0.2297668,0.1217041,0.2307129,0.1149292,-0.0009765625,0.0009765625,0,1,3,0.2380952
53.194,0.001028,-0.04296875,-0.02734375,0.09375,0.2578125,0.6484375,6.671875,-0.01367188,-0.02148438,0.09765625,-0.02148438,0.015625,0,0.003540039,-0.002563477,0.01245117,0,0,0.0007324219,0.1759644,4.077,0,0,0,0.1401978,nan,2,1.041,1,0,0.2061462,0.1559143,0.192627,0.1491394,-0.0009765625,0.0009765625,0,1,3,0
53.204,0.001002,0.08007812,-0.03515625,0.1035156,-3.640625,2.789062,13.86719,0.0078125,-0.005859375,0.1054688,-0.02148438,0.015625,0,0.003662109,-0.002563477,0.0135498,0,0,0.0007324219,0.1776428,4.077,0,0,0,0.1422119,nan,2,1.051,1,0,0.2094421,0.1521912,0.2098389,0.1391296,-0.0009765625,0.0009765625,0,1,3,0
53.214,0.001002,0.08203125,-0.06054688,-0.01171875,-1.578125,1.171875,18.21875,0.00390625,-0.02734375,0.03125,-0.02148438,0.015625,0,0.003662109,-0.002685547,0.01428223,0,0,0.0007324219,0.1793213,4.077,0,0,0,0.1442261,nan,2,1.061,1,0,0.1112976,0.263031,0.1017761,0.2412415,-0.0009765625,0.0009765625,0,1,3,0
53.224,0.001002,-0.02539062,0.00390625,-0.01757812,1.335938,6.007812,12.80469,-0.01171875,0.02539062,-0.005859375,-0.02148438,0.015625,0,0.003540039,-0.002441406,0.0144043,0,0,0.0007324219,0.1809998,4.077,0,0,0,0.1461792,nan,2,1.072,1,0,0.1355896,0.2227783,0.1426697,0.2229919,-0.0009765625,0.0009765625,0,1,3,0
53.233,0.001018,0.04492188,0.0078125,-0.03320312,1.007812,4.085938,15.46094,0.001953125,0.00390625,-0.03320312,-0.01953125,0.015625,0,0.003417969,-0.002441406,0.01416016,0,0,0.0007324219,0.1827087,4.077,0,0,0,0.1481934,nan,2,1.081,1,0,0.1448059,0.2239685,0.1523132,0.2097168,-0.0009765625,0.0009765625,0,1,3,0
53.243,0.001015,0.0234375,0.005859375,-0.07421875,-0.4453125,2.882812,16.09375,0.02539062,-0.01757812,-0.04882812,-0.02148438,0.015625,0,0.003540039,-0.002563477,0.01379395,0,0,0.0007324219,0.1843872,4.077,0,0,0,0.1502075,nan,2,1.091,1,0,0.1341858,0.2404175,0.1408997,0.2220459,-0.0009765625,0.0009765625,0,1,3,0
53.253,0.001015,0.01171875,0.005859375,-0.09375,-1.234375,5.5625,13.60938,-0.009765625,0.01757812,-0.1054688,-0.02148438,0.015625,0,0.003417969,-0.002563477,0.01293945,0,0,0.0007324219,0.1860657,4.077,0,0,0,0.1522217,nan,2,1.101,1,0,0.1170959,0.2536011,0.123291,0.2502747,-0.0009765625,0.0009765625,0,1,3,0
53.263,0.001018,0.015625,-0.005859375,-0.06835938,-0.515625,-4.804688,10.30469,-0.00390625,0.015625,-0.06640625,-0.01953125,0.01367188,0,0.003173828,-0.002441406,0.01208496,0,0,0.0007324219,0.1877441,4.077,0,0,0,0.1541748,nan,2,1.111,1,0,0.181427,0.1956482,0.190094,0.1838074,-0.0009765625,0.0009765625,0,1,3,0
53.273,0.000984,-0.015625,-0.0078125,-0.01953125,1.289062,-5.898438,5.289062,0.0078125,-0.02148438,-0.04101562,-0.01953125,0.015625,0,0.003417969,-0.002563477,0.01147461,0,0,0.0007324219,0.1894226,4.077,0,0,0,0.156189,nan,2,1.121,1,0,0.2203064,0.1683655,0.2148438,0.1542053,-0.0009765625,0.0009765625,0,1,3,0
53.284,0.000988,0.04296875,-0.04101562,-0.00390625,-0.7109375,-6.867188,5.71875,0.01953125,-0.015625,-0.00390625,-0.01953125,0.015625,0,0.003295898,-0.002563477,0.01135254,0,0,0.0007324219,0.1911316,4.077,0,0,0,0.1582031,nan,2,1.131,1,0,0.2148132,0.1769104,0.2215576,0.1511841,-0.0009765625,0.0009765625,0,1,3,0
53.294,0.001032,0.0234375,-0.03515625,0.08203125,1.15625,1.117188,6.484375,-0.001953125,-0.01953125,0.05273438,-0.01953125,0.015625,0,0.003295898,-0.002685547,0.01159668,0,0,0.0007324219,0.1928101,4.077,0,0,0,0.1602173,nan,2,1.141,1,0,0.2771606,0.1184998,0.269989,0.1055298,-0.0009765625,0.0009765625,0,1,3,0
53.304,0.001085,-0.015625,0.03125,0.1015625,-0.046875,-2.984375,9.976562,0.001953125,0.01367188,0.0859375,-0.02148438,0.015625,0,0.003417969,-0.002685547,0.0123291,0,0,0.0007324219,0.1944885,4.077,0,0,0,0.1622314,nan,2,1.151,1,0,0.2489014,0.1333923,0.256958,0.1387024,-0.0009765625,0.0009765625,0,1,3,0
53.314,0.001008,0.04492188,-0.005859375,0.06640625,-0.265625,0.921875,14.03906,0.01757812,0,0.0859375,-0.02148438,0.015625,0,0.003540039,-0.002807617,0.01330566,0,0,0.0007324219,0.196167,4.077,0,0,0,0.1641846,nan,2,1.162,1,0,0.2055054,0.1895142,0.2148438,0.1748352,-0.0009765625,0.0009765625,0,1,3,0
53.324,0.001015,0.0078125,0.01953125,0.1210938,1.835938,-6.90625,10.44531,0.009765625,0.00390625,0.1054688,-0.02148438,0.015625,0,0.003540039,-0.002685547,0.01416016,0,0,0.0007324219,0.1978455,4.077,0,0,0,0.1661987,nan,2,1.172,1,0,0.2531433,0.1459351,0.2557678,0.1365662,-0.0009765625,0.0009765625,0,1,3,0
53.333,0.001002,0.01953125,-0.005859375,0.09765625,-1.289062,4.421875,12.14844,-0.005859375,-0.009765625,0.1054688,-0.02148438,0.015625,0,0.003540039,-0.002685547,0.01513672,0,0,0.0007324219,0.1993713,4.077,0,0,0,0.1680298,nan,2,1.181,1,0,0.2309875,0.1756287,0.2267761,0.1640625,-0.0009765625,0.0009765625,0,1,3,0
53.343,0.001004,-0.01953125,0.01171875,0.03710938,-0.515625,-2.039062,8.625,0.001953125,0.00390625,0.06835938,-0.02148438,0.015625,0,0.003540039,-0.002685547,0.01599121,0,0,0.0007324219,0.2012329,4.077,0,0,0,0.1702271,nan,2,1.191,1,0,0.1764832,0.2268982,0.1816711,0.2198181,-0.0009765625,0.0009765625,0,1,3,0
53.353,0.001003,-0.01757812,0.0390625,0.07226562,1.742188,-1.359375,7.859375,0.001953125,0.0234375,0.05273438,-0.02148438,0.015625,0,0.003417969,-0.002685547,0.01647949,0,0,0.0007324219,0.2029114,4.077,0,0,0,0.1721802,nan,2,1.201,1,0,0.2158813,0.1820374,0.22995,0.1837158,-0.0009765625,0.0009765625,0,1,3,0
53.363,0.001,0.04296875,0.03125,0.09179688,-3.664062,0.828125,11.13281,0.02148438,0.001953125,0.09960938,-0.02148438,0.01757812,0,0.003540039,-0.002807617,0.01745605,0,0,0.0007324219,0.2045898,4.077,0,0,0,0.1741943,nan,2,1.211,1,0,0.2505493,0.1569214,0.2648926,0.1460266,-0.0009765625,0.0009765625,0,1,3,0
53.373,0.001002,0.01367188,0.00390625,0.0234375,0.8984375,0.828125,4.953125,-0.0078125,-0.005859375,0.03125,-0.02148438,0.01757812,0,0.003662109,-0.002929688,0.01806641,0,0,0.0007324219,0.2062683,4.077,0,0,0,0.1762085,nan,2,1.221,1,0,0.1700134,0.2458191,0.1659851,0.2432556,-0.0009765625,0.0009765625,0,1,3,0
53.383,0.001002,-0.06445312,0.01171875,0.0546875,0.9921875,3.703125,13.39844,-0.00390625,-0.005859375,0.04296875,-0.02148438,0.01757812,0,0.003662109,-0.003051758,0.01843262,0,0,0.0007324219,0.2079468,4.077,0,0,0,0.1782227,nan,2,1.231,1,0,0.2306519,0.1877136,0.2277527,0.1856995,-0.0009765625,0.0009765625,0,1,3,0
53.394,0.001002,-0.01757812,-0.03125,0.06054688,-0.84375,-6.203125,8.382812,0,0,0.0703125,-0.02148438,0.01757812,0,0.003662109,-0.002929688,0.01904297,0,0,0.0007324219,0.2096558,4.077,0,0,0,0.1801758,nan,2,1.241,1,0,0.2426453,0.1818848,0.2419128,0.1721497,-0.0009765625,0.0009765625,0,1,3,0
53.404,0.001002,0.005859375,-0.005859375,0.07421875,0.0703125,3.796875,8.59375,0.03320312,-0.00390625,0.07226562,-0.0234375,0.01757812,0,0.00390625,-0.003051758,0.01977539,0,0,0.0007324219,0.2113342,4.077,0,0,0,0.1821899,nan,2,1.251,1,0,0.2335205,0.1958313,0.2399902,0.1759644,-0.0009765625,0.0009765625,0,1,3,0.1111111
53.414,0.001002,0.0234375,-0.03125,0.05273438,-1.71875,0.15625,13.34375,0.03320312,-0.0078125,0.07226562,-0.02539062,0.01757812,0,0.00402832,-0.003051758,0.02062988,0,0,0.0007324219,0.2130127,4.077,0,0,0,0.1842041,nan,2,1.261,1,0,0.2106323,0.2229309,0.2171326,0.201355,-0.0009765625,0.0009765625,0,1,3,0
53.424,0.001002,-0.04492188,0.009765625,0.07617188,1.414062,-2.40625,9.390625,-0.02929688,0.01171875,0.06445312,-0.0234375,0.01757812,0,0.00402832,-0.003051758,0.02111816,0,0,0.0007324219,0.2146912,4.077,0,0,0,0.1862183,nan,2,1.272,1,0,0.2442322,0.1859131,0.2350159,0.193634,-0.0009765625,0.0009765625,0,1,3,0.952381
53.433,0.001018,-0.03320312,-0.03125,0.1660156,1.125,-2.53125,6.273438,0,0.00390625,0.1210938,-0.0234375,0.01757812,0,0.00402832,-0.002929688,0.02197266,0,0,0.0007324219,0.216217,4.077,0,0,0,0.1879883,nan,2,1.281,1,0,0.3208618,0.1162109,0.3206787,0.1071167,-0.0009765625,0.0009765625,0,1,3,0
53.443,0.001032,0.02539062,-0.03710938,0.0703125,-0.8359375,2.65625,14.55469,0.01171875,-0.0078125,0.1269531,-0.02539062,0.01757812,0,0.004150391,-0.003051758,0.0234375,0,0,0.0007324219,0.2180786,4.077,0,0,0,0.1901855,nan,2,1.291,1,0,0.228302,0.2157898,0.2270813,0.2010803,-0.0009765625,0.0009765625,0,1,3,0
53.453,0.001021,0.01171875,0.02148438,0.1601562,-0.21875,7.953125,12.88281,-0.001953125,0.001953125,0.1289062,-0.02539062,0.01757812,0,0.004150391,-0.003051758,0.02453613,0,0,0.0007324219,0.2197571,4.077,0,0,0,0.1921997,nan,2,1.301,1,0,0.2831726,0.157196,0.2865295,0.1521301,-0.0009765625,0.0009765625,0,1,3,0
53.464,0.001059,0.01757812,-0.01171875,0.1015625,-1.484375,1.46875,11.44531,-0.02929688,0.001953125,0.1191406,-0.02539062,0.01757812,0,0.00402832,-0.003051758,0.02600098,0,0,0.0007324219,0.2214355,4.077,0,0,0,0.1942139,nan,2,1.311,1,0,0.2385864,0.2088623,0.2301331,0.2081299,-0.0009765625,0.0009765625,0,1,3,0
53.473,0.000968,0.1367188,-0.0546875,0.1523438,-5.070312,3.007812,14.84375,0.04296875,-0.01953125,0.1464844,-0.02539062,0.01953125,0,0.004150391,-0.003173828,0.02734375,0,0,0.0007324219,0.223114,4.077,0,0,0,0.196228,nan,2,1.321,1,0,0.2710571,0.1882019,0.2829285,0.1502686,-0.001953125,0.0009765625,0,1,3,0
53.484,0.000972,0.07617188,-0.08789062,0.1171875,-2.273438,8.453125,10.73438,0.0859375,-0.05859375,0.1230469,-0.02929688,0.02148438,0,0.005004883,-0.003540039,0.02868652,0,0,0.0007324219,0.2247925,4.077,0,0,0,0.1981812,nan,2,1.331,1,0,0.2449341,0.2269287,0.2460022,0.181366,-0.001953125,0.0009765625,0,1,3,0
53.494,0.001015,-0.1191406,0.09570312,0.1269531,0.078125,3.039062,12.17969,-0.08789062,0.04882812,0.1230469,-0.02929688,0.02148438,0,0.004882812,-0.003662109,0.02990723,0,0,0.0007324219,0.2263184,4.077,0,0,0,0.2000122,nan,2,1.341,1,0,0.2610779,0.1699219,0.2506409,0.2236023,-0.001953125,0.0009765625,0,1,3,0
53.504,0.001015,-0.1386719,0.08398438,0.1269531,-4.351562,2.664062,16.86719,-0.1269531,0.08984375,0.1367188,-0.02148438,0.01757812,0,0.003662109,-0.002807617,0.03137207,0,0,0.0007324219,0.2263184,4.077,0,0,0,0.2000122,nan,2,1.351,1,0,0.2694092,0.1691284,0.2616577,0.2050476,-0.001953125,0.0009765625,0,1,3,0
53.514,0.001015,0.1171875,-0.05859375,0.0703125,-1.46875,8.273438,12.25,0.05664062,-0.04296875,0.08789062,-0.01953125,0.015625,0,0.003295898,-0.002685547,0.0324707,0,0,0.0007324219,0.2263184,4.077,0,0,0,0.2000122,nan,2,1.361,1,0,0.206604,0.2775879,0.2200317,0.2010498,-0.001953125,0.0009765625,0,1,3,0
53.524,0.001015,-0.078125,0.02929688,0.08984375,-0.3828125,-1.265625,11.10156,0.02539062,-0.01757812,0.09179688,-0.0234375,0.01757812,0,0.00378418,-0.003051758,0.0333252,0,0,0.0007324219,0.2263184,4.077,0,0,0,0.2000122,nan,2,1.372,1,0,0.2530823,0.1991882,0.256012,0.196991,-0.001953125,0.0009765625,0,1,3,0
53.533,0.001005,0.07617188,0.005859375,0.06640625,-2.054688,8.382812,8.71875,0.01953125,-0.009765625,0.078125,-0.0234375,0.01953125,0,0.00390625,-0.003173828,0.03417969,0,0,0.0007324219,0.2263184,4.077,0,0,0,0.2000122,nan,2,1.381,1,0,0.2232056,0.2330322,0.232666,0.2163696,-0.001953125,0.0009765625,0,1,3,0
53.543,0.001008,0.02539062,0.05273438,0.09375,-2.046875,-1.476562,13.84375,0.02539062,0.0078125,0.08984375,-0.0234375,0.01953125,0,0.00402832,-0.003173828,0.03503418,0,0,0.0007324219,0.2263184,4.077,0,0,0,0.2000122,nan,2,1.391,1,0,0.2583618,0.1937866,0.2705383,0.1825562,-0.001953125,0.0009765625,0,1,3,0
53.553,0.001006,-0.01757812,-0.009765625,0.078125,0.6484375,-1.703125,6.828125,-0.01367188,-0.005859375,0.07226562,-0.0234375,0.01953125,0,0.00402832,-0.003173828,0.0357666,0,0,0.0007324219,0.2263184,4.077,0,0,0,0.2000122,nan,2,1.401,1,0,0.2402954,0.2201538,0.22995,0.2148743,-0.001953125,0.0009765625,0,1,3,0
53.563,0.001001,-0.0390625,0.00390625,0.09765625,-0.5546875,-1.554688,4.789062,0.00390625,0.00390625,0.08984375,-0.0234375,0.01953125,0,0.00402832,-0.003173828,0.03662109,0,0,0.0007324219,0.2263184,4.077,0,0,0,0.2000122,nan,2,1.411,1,0,0.263855,0.1895447,0.2687073,0.1831665,-0.001953125,0.0009765625,0,1,3,0
53.573,0.001005,-0.04296875,-0.009765625,0.09375,2.203125,-7.945312,7.367188,0,0.01171875,0.09570312,-0.0234375,0.01953125,0,0.00402832,-0.003173828,0.03759766,0,0,0.0007324219,0.2263184,4.077,0,0,0,0.2000122,nan,2,1.421,1,0,0.26297,0.1928406,0.2633667,0.1860657,-0.001953125,0.0009765625,0,1,3,0
53.583,0.001005,0.0859375,-0.078125,0.06054688,1.570312,2.429688,4.570312,0,-0.03515625,0.0703125,-0.0234375,0.01953125,0,0.00402832,-0.003295898,0.03833008,0,0,0.0007324219,0.2263184,4.077,0,0,0,0.2000122,nan,2,1.431,1,0,0.2451477,0.2222595,0.236969,0.2008667,-0.001953125,0.0009765625,0,1,3,0
53.594,0.001005,-0.03320312,0.03320312,0.1230469,-0.421875,-0.0625,9.835938,0.00390625,0.02734375,0.109375,-0.02539062,0.02148438,0,0.004150391,-0.003662109,0.03930664,0,0,0.0007324219,0.2263184,4.077,0,0,0,0.2000122,nan,2,1.441,1,0,0.270813,0.1659546,0.2901001,0.1784058,-0.001953125,0.0009765625,0,1,3,0.4444444
53.604,0.001006,-0.05859375,0.02539062,0.1308594,2.945312,-1.476562,7.6875,-0.04296875,0.03710938,0.140625,-0.02539062,0.02148438,0,0.004150391,-0.003540039,0.04064941,0,0,0.0007324219,0.2263184,4.077,0,0,0,0.2000122,nan,2,1.451,1,0,0.2878113,0.1549988,0.2842407,0.1782227,-0.001953125,0.0009765625,0,1,3,0
53.614,0.001004,-0.078125,0,0.09570312,-1.328125,0.1640625,11.77344,-0.06640625,0.03710938,0.1152344,-0.0234375,0.02148438,0,0.00390625,-0.003417969,0.04199219,0,0,0.0007324219,0.2263184,4.077,0,0,0,0.2000122,nan,2,1.461,1,0,0.2387085,0.20578,0.2287292,0.2320557,-0.001953125,0.0009765625,0,1,3,0
53.623,0.001063,0.1113281,-0.05078125,0.1621094,2.179688,-3.203125,6.601562,0.08203125,-0.01757812,0.1308594,-0.02539062,0.01953125,0,0.004150391,-0.003417969,0.04309082,0,0,0.0007324219,0.2263184,4.077,0,0,0,0.2000122,nan,2,1.471,1,0,0.2846069,0.1852417,0.3070374,0.1283569,-0.001953125,0.0009765625,0,1,3,0
53.634,0.001005,-0.0234375,0.03710938,0.09570312,0.3671875,1.671875,11.17969,0.01757812,-0.01367188,0.1152344,-0.02734375,0.01953125,0,0.004516602,-0.003417969,0.04455566,0,0,0.0007324219,0.2263184,4.077,0,0,0,0.2000122,nan,2,1.482,1,0,0.2227783,0.2403259,0.2154236,0.2267456,-0.001953125,0.0009765625,0,1,3,0
53.643,0.001017,0.109375,-0.08789062,0.1289062,1.84375,-3.03125,7.445312,0.05273438,-0.05664062,0.1152344,-0.02734375,0.01953125,0,0.004516602,-0.003417969,0.04553223,0,0,0.0007324219,0.2263184,4.077,0,0,0,0.2000122,nan,2,1.491,1,0,0.264801,0.2201843,0.2651672,0.1551208,-0.001953125,0.0009765625,0,1,3,0
53.653,0.001011,-0.1074219,0.109375,0.1210938,2.625,-0.28125,8.15625,-0.02148438,-0.009765625,0.1152344,-0.02929688,0.0234375,0,0.004882812,-0.00378418,0.04675293,0,0,0.0007324219,0.2263184,4.077,0,0,0,0.2000122,nan,2,1.501,1,0,0.2621765,0.1850891,0.2514648,0.206543,-0.001953125,0.001953125,0,1,3,0
53.663,0.001006,0.1464844,0.03125,0.1445312,2.15625,-2.195312,5.515625,0.02929688,0.02539062,0.125,-0.02734375,0.02148438,0,0.004638672,-0.003540039,0.04797363,0,0,0.0007324219,0.2263184,4.077,0,0,0,0.2000122,nan,2,1.511,1,0,0.2649536,0.1861267,0.2955627,0.1586304,-0.001953125,0.001953125,0,1,3,0
53.674,0.001027,0.04296875,0.09960938,0.125,0.46875,-2.492188,9.09375,0.05078125,-0.00390625,0.1542969,-0.03320312,0.0234375,0,0.005493164,-0.00390625,0.04956055,0,0,0.0007324219,0.2263184,4.077,0,0,0,0.2000122,nan,2,1.521,1,0,0.2716064,0.17276,0.2866211,0.1742859,-0.001953125,0.001953125,0,1,3,0.07936508
53.684,0.001123,-0.05859375,0.05273438,0.1523438,2.671875,-4.835938,10.17969,-0.009765625,0.01171875,0.1289062,-0.03515625,0.0234375,0,0.005737305,-0.00402832,0.05078125,0,0,0.0007324219,0.2263184,4.077,0,0,0,0.2000122,nan,2,1.531,1,0,0.2682495,0.1805725,0.2673645,0.1890869,-0.001953125,0.001953125,0,1,3,0
53.694,0.000998,0.0078125,-0.05859375,0.1132812,-0.6328125,-1.453125,8.78125,0.01171875,-0.0078125,0.1210938,-0.03320312,0.0234375,0,0.005493164,-0.00390625,0.05212402,0,0,0.0007324219,0.2263184,4.077,0,0,0,0.2000122,nan,2,1.541,1,0,0.2371826,0.2309265,0.2426758,0.194458,-0.001953125,0.001953125,0,1,3,0
53.704,0.001043,-0.07226562,-0.06054688,0.1621094,2.585938,-6.4375,6.703125,-0.04296875,0.005859375,0.1484375,-0.03125,0.02148438,0,0.005249023,-0.003662109,0.05358887,0,0,0.0007324219,0.2263184,4.077,0,0,0,0.2000122,nan,2,1.551,1,0,0.2943115,0.1704712,0.2767029,0.1637573,-0.001953125,0.001953125,0,1,3,0.3650794
53.714,0.001016,0.1269531,-0.03320312,0.1289062,-0.6171875,-6.304688,10.97656,0.015625,-0.00390625,0.1464844,-0.03125,0.02148438,0,0.005126953,-0.003540039,0.05505371,0,0,0.0007324219,0.2263184,4.077,0,0,0,0.2000122,nan,2,1.561,1,0,0.2623596,0.2026672,0.2731018,0.1671143,-0.001953125,0.001953125,0,1,3,0
53.724,0.001015,0.046875,0.03710938,0.109375,2.007812,-1.015625,6.085938,0.03710938,-0.02539062,0.109375,-0.03125,0.02148438,0,0.005371094,-0.003662109,0.05639648,0,0,0.0007324219,0.2263184,4.077,0,0,0,0.2000122,nan,2,1.572,1,0,0.211731,0.2560425,0.2175903,0.2199097,-0.001953125,0.001953125,0,1,3,0
53.734,0.001015,0.1015625,-0.046875,0.1738281,-1.75,-4.289062,11.78906,0.08789062,-0.02929688,0.1660156,-0.03320312,0.02148438,0,0.005737305,-0.003662109,0.05786133,0,0,0.0007324219,0.2263184,4.077,0,0,0,0.2000122,nan,2,1.582,1,0,0.2930908,0.1758728,0.3151245,0.1211853,-0.001953125,0.001953125,0,1,3,0
53.743,0.001001,-0.01171875,0.07421875,0.1425781,-1.515625,2.351562,9.1875,0.00390625,0,0.1464844,-0.03515625,0.0234375,0,0.005981445,-0.00390625,0.05932617,0,0,0.0007324219,0.2263184,4.077,0,0,0,0.2000122,nan,2,1.591,1,0,0.2615967,0.1870728,0.2640686,0.1924744,-0.001953125,0.001953125,0,1,3,0.4126984
53.753,0.001005,-0.09765625,0.05664062,0.171875,-2.640625,1.359375,13.74219,-0.01367188,0.0078125,0.1582031,-0.03515625,0.0234375,0,0.005981445,-0.00402832,0.06079102,0,0,0.0007324219,0.2263184,4.077,0,0,0,0.2000122,nan,2,1.601,1,0,0.2903748,0.161377,0.2876892,0.165802,-0.002929688,0.001953125,0,1,3,0
53.763,0.000997,0.1035156,-0.1503906,0.09960938,-3.851562,5.773438,12.07031,0.02929688,-0.04296875,0.1132812,-0.03515625,0.02539062,0,0.005981445,-0.00402832,0.06213379,0,0,0.0007324219,0.2263184,4.077,0,0,0,0.2000122,nan,2,1.611,1,0,0.2347717,0.2455139,0.2307739,0.1941833,-0.002929688,0.001953125,0,1,3,0
53.773,0.001005,0.05664062,-0.0859375,0.08007812,0.359375,2.03125,13.14062,0.009765625,-0.06445312,0.1074219,-0.03710938,0.02734375,0,0.006103516,-0.004394531,0.06335449,0,0,0.0007324219,0.2263184,4.077,0,0,0,0.2000122,nan,2,1.621,1,0,0.2388306,0.243866,0.2219543,0.2006226,-0.002929688,0.001953125,0,1,3,0
53.783,0.001005,0.03515625,0.0546875,0.1113281,-3.601562,7.492188,10.32031,0.0078125,0.00390625,0.1035156,-0.0390625,0.02929688,0,0.006591797,-0.004760742,0.06420898,0,0,0.0007324219,0.2263184,4.077,0,0,0,0.2000122,nan,2,1.631,1,0,0.2661133,0.1782837,0.2726746,0.1881714,-0.002929688,0.001953125,0,1,3,0
53.794,0.001005,0.04296875,0.015625,0.01757812,-2.328125,-3.039062,10.25781,-0.0234375,0.00390625,0.07617188,-0.04101562,0.02929688,0,0.006835938,-0.004882812,0.06518555,0,0,0.0007324219,0.2263184,4.077,0,0,0,0.2000122,nan,2,1.641,1,0,0.2156982,0.2367554,0.208374,0.2444458,-0.002929688,0.001953125,0,1,3,0
53.804,0.001005,0.02734375,-0.03515625,0.1386719,0.265625,3.34375,12.07031,-0.00390625,-0.0078125,0.1132812,-0.04101562,0.02929688,0,0.006713867,-0.004760742,0.06604004,0,0,0.0007324219,0.2263184,4.077,0,0,0,0.2000122,nan,2,1.651,1,0,0.3085022,0.1599731,0.305603,0.1311646,-0.002929688,0.001953125,0,1,3,0
53.814,0.000999,0.1308594,-0.05859375,0.2460938,-0.6484375,-3.796875,11.14062,0.06054688,-0.02148438,0.2050781,-0.04101562,0.02929688,0,0.006713867,-0.004760742,0.06774902,0,0,0.0007324219,0.2263184,4.077,0,0,0,0.2000122,nan,2,1.661,1,0,0.3667603,0.1038513,0.3870239,0.04760742,-0.002929688,0.001953125,0,1,3,0
53.824,0.001005,-0.05273438,0.09179688,0.046875,-0.640625,-2.867188,11.52344,-0.015625,0.009765625,0.1015625,-0.04296875,0.03125,0,0.007080078,-0.005126953,0.06933594,0,0,0.0007324219,0.2263184,4.077,0,0,0,0.2000122,nan,2,1.671,1,0,0.1628113,0.2840881,0.1601562,0.2982178,-0.002929688,0.001953125,0,1,3,0
53.834,0.001005,-0.02734375,0.0703125,0.109375,-0.6796875,5.046875,8.148438,-0.06054688,0.015625,0.1269531,-0.04101562,0.03125,0,0.006958008,-0.005249023,0.07055664,0,0,0.0007324219,0.2263184,4.077,0,0,0,0.2000122,nan,2,1.682,1,0,0.2591248,0.1876526,0.2537537,0.2047119,-0.002929688,0.001953125,0,1,3,0.3492064
53.843,0.001014,0.005859375,-0.08203125,0.08203125,-4.140625,6.320312,13.91406,0.05273438,-0.01757812,0.09570312,-0.04101562,0.02929688,0,0.006835938,-0.005004883,0.0715332,0,0,0.0007324219,0.2263184,4.077,0,0,0,0.2000122,nan,2,1.691,1,0,0.2153015,0.2610168,0.2262878,0.2026672,-0.002929688,0.001953125,0,1,3,0
53.853,0.001006,0.0625,0.02929688,0.1132812,-1.796875,-0.234375,11.92188,-0.02148438,0.02929688,0.07421875,-0.0390625,0.02929688,0,0.006347656,-0.004882812,0.07250977,0,0,0.0007324219,0.2263184,4.077,0,0,0,0.2000122,nan,2,1.701,1,0,0.2053528,0.2442627,0.2264099,0.2292175,-0.002929688,0.001953125,0,1,3,0
53.863,0.001007,-0.001953125,0.05859375,0.1699219,-0.546875,3.851562,9.539062,-0.00390625,0.01953125,0.1445312,-0.03710938,0.02929688,0,0.005981445,-0.004760742,0.07373047,0,0,0.0007324219,0.2263184,4.077,0,0,0,0.2000122,nan,2,1.711,1,0,0.3142395,0.1413574,0.3298035,0.119873,-0.002929688,0.001953125,0,1,3,0
53.873,0.001018,-0.02734375,0.009765625,0.1738281,-2.09375,-4,9.304688,0.0078125,0.01757812,0.1875,-0.03710938,0.02734375,0,0.006103516,-0.004516602,0.07543945,0,0,0.0007324219,0.2263184,4.077,0,0,0,0.2000122,nan,2,1.721,1,0,0.3163757,0.141449,0.3197327,0.1276855,-0.002929688,0.001953125,0,1,3,0
53.884,0.001046,0.0703125,-0.05078125,0.1523438,-2.859375,1.585938,8.804688,0.0390625,0,0.1308594,-0.03710938,0.02734375,0,0.006347656,-0.004516602,0.07678223,0,0,0.0007324219,0.2263184,4.077,0,0,0,0.2000122,nan,2,1.731,1,0,0.2568054,0.2047424,0.2723083,0.1714478,-0.002929688,0.001953125,0,1,3,0.1587302
53.894,0.001051,-0.04882812,0.06054688,0.1289062,-0.2421875,2.851562,8.78125,-0.06445312,0.05078125,0.15625,-0.03515625,0.02734375,0,0.005981445,-0.004638672,0.07836914,0,0,0.0007324219,0.2263184,4.077,0,0,0,0.2000122,nan,2,1.741,1,0,0.2602234,0.1755066,0.2680359,0.2015076,-0.002929688,0.001953125,0,1,3,0
53.904,0.000965,-0.08398438,-0.05273438,0.1523438,-4.328125,4.867188,14.20312,-0.02734375,-0.0234375,0.125,-0.03320312,0.02734375,0,0.005737305,-0.004638672,0.07971191,0,0,0.0007324219,0.2263184,4.077,0,0,0,0.2000122,nan,2,1.751,1,0,0.263031,0.2091675,0.2467957,0.1862793,-0.002929688,0.001953125,0,1,3,0
53.914,0.001018,0.06445312,-0.046875,0.1367188,-0.546875,1.632812,12.10938,0.03320312,-0.01953125,0.1054688,-0.03320312,0.02734375,0,0.005493164,-0.004760742,0.08068848,0,0,0.0007324219,0.2263184,4.077,0,0,0,0.2000122,nan,2,1.761,1,0,0.2514954,0.218811,0.2651672,0.1698303,-0.002929688,0.001953125,0,1,3,0
53.924,0.001018,0.1171875,-0.1152344,0.1503906,-1.695312,-1.140625,11.00781,0.03515625,-0.03320312,0.1484375,-0.03515625,0.02929688,0,0.005737305,-0.004882812,0.08203125,0,0,0.0007324219,0.2263184,4.077,0,0,0,0.2000122,nan,2,1.771,1,0,0.2965393,0.178833,0.2988281,0.131073,-0.002929688,0.001953125,0,1,3,0
53.933,0.001005,0.06054688,-0.01171875,0.04882812,-2.757812,4.570312,7.929688,0.07421875,-0.05859375,0.08203125,-0.0390625,0.03125,0,0.006347656,-0.005371094,0.08325195,0,0,0.0007324219,0.2263184,4.077,0,0,0,0.2000122,nan,2,1.781,1,0,0.1723328,0.2996826,0.1771851,0.2560425,-0.002929688,0.001953125,0,1,3,0.2222222
53.943,0.001004,-0.06640625,-0.07617188,0.1621094,-2.710938,1.726562,12.58594,-0.01171875,-0.03320312,0.1289062,-0.0390625,0.03320312,0,0.006469727,-0.005615234,0.08410645,0,0,0.0007324219,0.2263184,4.077,0,0,0,0.2000122,nan,2,1.791,1,0,0.3308716,0.1398926,0.3108215,0.1236877,-0.002929688,0.001953125,0,1,3,0
53.953,0.000979,-0.001953125,-0.1210938,0.1484375,-0.4453125,-0.5390625,9.539062,0.04492188,-0.00390625,0.1191406,-0.04101562,0.03320312,0,0.006713867,-0.005615234,0.08544922,0,0,0.0007324219,0.2263184,4.077,0,0,0,0.2000122,nan,2,1.801,1,0,0.2628784,0.201416,0.2714539,0.1695251,-0.002929688,0.002929688,0,1,3,0.2857143
53.963,0.001005,0.07421875,0.046875,0.1953125,-3.359375,3.40625,10.13281,0.09570312,0.01171875,0.1699219,-0.046875,0.03515625,0,0.00769043,-0.005981445,0.08691406,0,0,0.0007324219,0.2263184,4.077,0,0,0,0.2000122,nan,2,1.811,1,0,0.3156128,0.1290283,0.3508301,0.1098022,-0.00390625,0.002929688,0,1,3,0
53.973,0.001005,-0.01953125,0.02929688,0.06835938,-3.226562,6.671875,7.523438,0.01171875,-0.0078125,0.1152344,-0.04882812,0.03710938,0,0.008300781,-0.006347656,0.08837891,0,0,0.0007324219,0.2263184,4.077,0,0,0,0.2000122,nan,2,1.821,1,0,0.1973877,0.2592773,0.1903381,0.2582397,-0.00390625,0.002929688,0,1,3,0
53.983,0.001005,-0.08398438,0.06445312,0.1484375,-2.5625,-1.054688,13.60156,-0.1210938,0.0078125,0.1230469,-0.046875,0.03710938,0,0.0078125,-0.006103516,0.08947754,0,0,0.0007324219,0.2263184,4.077,0,0,0,0.2000122,nan,2,1.831,1,0,0.3115845,0.1513672,0.2731628,0.1691284,-0.00390625,0.002929688,0,1,3,0
53.994,0.001005,-0.09765625,0.08984375,0.171875,-0.84375,7.171875,9.75,-0.02929688,0.02929688,0.1347656,-0.04296875,0.03515625,0,0.007202148,-0.005981445,0.09057617,0,0,0.0007324219,0.2263184,4.077,0,0,0,0.2000122,nan,2,1.841,1,0,0.3043823,0.1474304,0.3161011,0.1373291,-0.00390625,0.002929688,0,1,3,0
54.004,0.001005,-0.05859375,0.1210938,0.1152344,-2.859375,0.5703125,13.44531,-0.03125,0.06445312,0.1484375,-0.04296875,0.03515625,0,0.007324219,-0.005737305,0.09216309,0,0,0.0007324219,0.2263184,4.077,0,0,0,0.2000122,nan,2,1.851,1,0,0.2626648,0.1736145,0.2763977,0.1925964,-0.00390625,0.002929688,0,1,3,0
54.014,0.001005,-0.09375,0.02929688,0.08398438,-3.75,6.882812,10.58594,-0.03710938,0.03710938,0.06835938,-0.04296875,0.03320312,0,0.007202148,-0.005371094,0.09301758,0,0,0.0007324219,0.2263184,4.077,0,0,0,0.2000122,nan,2,1.861,1,0,0.2123413,0.2423096,0.2056274,0.2449646,-0.00390625,0.002929688,0,1,3,0
54.024,0.001005,-0.02539062,0.06835938,0.09960938,0.3984375,-7.914062,7.609375,-0.07226562,0.06445312,0.09960938,-0.0390625,0.02929688,0,0.006591797,-0.004882812,0.09387207,0,0,0.0007324219,0.2263184,4.077,0,0,0,0.2000122,nan,2,1.871,1,0,0.2713013,0.177124,0.2746887,0.1821289,-0.00390625,0.002929688,0,1,3,0
54.034,0.001005,-0.08398438,0.06054688,0.09375,1.0625,0.75,3.554688,-0.04492188,0.046875,0.09179688,-0.03515625,0.02734375,0,0.005981445,-0.004516602,0.09484863,0,0,0.0007324219,0.2263184,4.077,0,0,0,0.2000122,nan,2,1.882,1,0,0.2550659,0.1930847,0.2650452,0.1920776,-0.00390625,0.002929688,0,1,3,0
54.043,0.001018,-0.08984375,0.1328125,0.1230469,-0.328125,0.109375,8.976562,-0.01367188,0.0234375,0.1074219,-0.03515625,0.02734375,0,0.005859375,-0.004516602,0.09570312,0,0,0.0007324219,0.2263184,4.077,0,0,0,0.2000122,nan,2,1.891,1,0,0.2771301,0.1715393,0.2874451,0.1691284,-0.00390625,0.002929688,0,1,3,0
54.053,0.000999,0.08203125,-0.08007812,0.1347656,0.9921875,-6.242188,8.929688,-0.001953125,-0.02148438,0.1484375,-0.03515625,0.02539062,0,0.005859375,-0.004394531,0.0970459,0,0,0.0007324219,0.2263184,4.077,0,0,0,0.2000122,nan,2,1.901,1,0,0.3048401,0.1715088,0.2952271,0.133667,-0.00390625,0.002929688,0,1,3,0
54.063,0.000921,0.1738281,-0.0390625,0.0390625,0.765625,-5.929688,7.539062,0.05664062,0.005859375,0.07226562,-0.03515625,0.02539062,0,0.005981445,-0.004272461,0.09814453,0,0,0.0007324219,0.2263184,4.077,0,0,0,0.2000122,nan,2,1.911,1,0,0.1589355,0.3054504,0.1829834,0.2579041,-0.00390625,0.002929688,0,1,3,0
54.073,0.001018,0.2089844,0.04296875,0.1035156,3.21875,-9.703125,8.742188,0.06054688,0.0859375,0.07617188,-0.0390625,0.02539062,0,0.006347656,-0.004150391,0.09887695,0,0,0.0007324219,0.2263184,4.077,0,0,0,0.2000122,nan,2,1.921,1,0,0.217926,0.2107849,0.2761841,0.2003479,-0.00390625,0.002929688,0,1,3,0
54.083,0.001018,-0.02539062,-0.005859375,0.05664062,1.8125,3.46875,6.28125,-0.04101562,-0.005859375,0.09179688,-0.0390625,0.02539062,0,0.006713867,-0.004272461,0.09997559,0,0,0.0007324219,0.2263184,4.077,0,0,0,0.2000122,nan,2,1.931,1,0,0.2455444,0.2153015,0.2258301,0.2185974,-0.00390625,0.002929688,0,1,3,0
54.093,0.001018,-0.01367188,-0.05078125,0.1230469,0.4765625,-1.460938,12.01562,-0.001953125,-0.03515625,0.1113281,-0.03710938,0.02734375,0,0.006103516,-0.004516602,0.1009521,0,0,0.0007324219,0.2263184,4.077,0,0,0,0.2000122,nan,2,1.941,1,0,0.2675171,0.2036438,0.2757263,0.1583557,-0.00390625,0.002929688,0,1,3,0
54.104,0.001018,0.01757812,-0.1035156,0.1855469,1.570312,1.21875,7.96875,-0.0078125,-0.02539062,0.1660156,-0.03515625,0.02734375,0,0.005981445,-0.004394531,0.102417,0,0,0.0007324219,0.2263184,4.077,0,0,0,0.2000122,nan,2,1.951,1,0,0.3424377,0.1345825,0.3308716,0.09738159,-0.00390625,0.002929688,0,1,3,0
54.114,0.001087,0,-0.04492188,0.04882812,2.492188,-3.140625,7.84375,0.046875,-0.009765625,0.1035156,-0.0390625,0.02734375,0,0.006469727,-0.004516602,0.1038818,0,0,0.0007324219,0.2263184,4.077,0,0,0,0.2000122,nan,2,1.961,1,0,0.1724243,0.29599,0.1793518,0.2575073,-0.00390625,0.002929688,0,1,3,0
54.124,0.001015,-0.1992188,0.02148438,0.1367188,0.0703125,4.476562,5.710938,-0.009765625,0.001953125,0.1074219,-0.04101562,0.02734375,0,0.006835938,-0.004638672,0.1048584,0,0,0.0007324219,0.2263184,4.077,0,0,0,0.2000122,nan,2,1.971,1,0,0.2840576,0.17099,0.2673035,0.1828918,-0.00390625,0.002929688,0,1,3,0
54.134,0.001015,-0.005859375,0.08203125,0.109375,-0.953125,-0.578125,17.32812,-0.005859375,-0.001953125,0.1035156,-0.0390625,0.02929688,0,0.006347656,-0.004760742,0.105957,0,0,0.0007324219,0.2263184,4.077,0,0,0,0.2000122,nan,2,1.982,1,0,0.2476501,0.2064209,0.2684631,0.1827087,-0.00390625,0.002929688,0,1,3,0
54.143,0.001005,0.09570312,-0.1445312,0.1972656,0.6796875,3.765625,12.66406,0.005859375,-0.02734375,0.1738281,-0.03710938,0.02929688,0,0.006225586,-0.004760742,0.1071777,0,0,0.0007324219,0.2263184,4.077,0,0,0,0.2000122,nan,2,1.991,1,0,0.3492126,0.129364,0.346283,0.08044434,-0.00390625,0.002929688,0,1,3,0
54.153,0.001009,-0.07421875,0,0.125,3.023438,-3.648438,8.890625,0,-0.0078125,0.1425781,-0.0390625,0.02929688,0,0.006591797,-0.005004883,0.1088867,0,0,0.0007324219,0.2263184,4.077,0,0,0,0.2000122,nan,2,2.001,1,0,0.2315063,0.2313538,0.2235718,0.2188416,-0.00390625,0.002929688,0,1,3,0
54.163,0.001005,0.140625,-0.04492188,0.08984375,1.171875,3.578125,4.007812,0.05273438,-0.02539062,0.1054688,-0.04101562,0.02929688,0,0.006835938,-0.005004883,0.1101074,0,0,0.0007324219,0.2263184,4.077,0,0,0,0.2000122,nan,2,2.011,1,0,0.227417,0.2475281,0.2377319,0.1925964,-0.00390625,0.002929688,0,1,3,0
54.173,0.001003,-0.0625,0.06835938,0.1503906,0.2109375,-1.882812,14.29688,0.0078125,0.00390625,0.1230469,-0.04296875,0.02929688,0,0.007202148,-0.004760742,0.1112061,0,0,0.0007324219,0.2263184,4.077,0,0,0,0.2000122,nan,2,2.021,1,0,0.2938843,0.1711121,0.285553,0.1547241,-0.00390625,0.002929688,0,1,3,0
54.183,0.001005,0.1074219,-0.1210938,0.1328125,0.1171875,-0.3125,15.92969,-0.00390625,-0.02148438,0.1582031,-0.04296875,0.02734375,0,0.007080078,-0.004516602,0.1126709,0,0,0.0007324219,0.2263184,4.077,0,0,0,0.2000122,nan,2,2.031,1,0,0.2826538,0.1973877,0.2717285,0.1535034,-0.00390625,0.002929688,0,1,3,0
54.194,0.000953,0.1992188,-0.08203125,0.05273438,3.023438,2.53125,5.0625,0.08789062,-0.01757812,0.08789062,-0.04492188,0.02734375,0,0.007324219,-0.004638672,0.1140137,0,0,0.0007324219,0.2263184,4.077,0,0,0,0.2000122,nan,2,2.041,1,0,0.1647034,0.308136,0.197998,0.234436,-0.00390625,0.002929688,0,1,3,0
54.204,0.001005,0.1679688,0.1015625,0.05859375,0.0390625,2.976562,10.85938,0.04492188,0.02929688,0.08398438,-0.046875,0.03125,0,0.0078125,-0.005126953,0.1148682,0,0,0.0007324219,0.2263184,4.077,0,0,0,0.2000122,nan,2,2.051,1,0,0.2158203,0.217865,0.258728,0.2128296,-0.004882812,0.002929688,0,1,3,0
54.214,0.000948,0.00390625,-0.03710938,0.1464844,-1.351562,7.921875,13.53125,0.0078125,-0.0234375,0.1269531,-0.04882812,0.03125,0,0.008178711,-0.005126953,0.1158447,0,0,0.0007324219,0.2263184,4.077,0,0,0,0.2000122,nan,2,2.061,1,0,0.3173828,0.156311,0.3051147,0.1264648,-0.004882812,0.002929688,0,1,3,0
54.224,0.001005,0.2441406,-0.09960938,0.1210938,-1.875,-2.5,14.52344,0.1308594,-0.0703125,0.1425781,-0.05273438,0.03125,0,0.008911133,-0.005126953,0.1173096,0,0,0.0007324219,0.2263184,4.077,0,0,0,0.2000122,nan,2,2.071,1,0,0.2588806,0.2364197,0.2750854,0.1348877,-0.004882812,0.002929688,0,1,3,0
54.233,0.000991,-0.1484375,0.05859375,0.2050781,-0.265625,4.03125,11.96875,-0.04882812,0.05273438,0.1640625,-0.05664062,0.03125,0,0.009399414,-0.005249023,0.1185303,0,0,0.0007324219,0.2263184,4.077,0,0,0,0.2000122,nan,2,2.081,1,0,0.3333435,0.100769,0.3227844,0.1483765,-0.004882812,0.002929688,0,1,3,0
54.243,0.001034,-0.005859375,-0.05078125,0.04101562,0.34375,4.164062,9.65625,-0.01953125,0.01367188,0.09765625,-0.05273438,0.02929688,0,0.008789062,-0.004760742,0.1201172,0,0,0.0007324219,0.2263184,4.077,0,0,0,0.2000122,nan,2,2.091,1,0,0.1524963,0.3186951,0.1602783,0.2738037,-0.004882812,0.002929688,0,1,3,0
54.253,0.000953,0.04492188,-0.01953125,0.08203125,-2.851562,6.125,16.57812,-0.03515625,0.02734375,0.07226562,-0.04882812,0.02734375,0,0.008300781,-0.004516602,0.1209717,0,0,0.0007324219,0.2263184,4.077,0,0,0,0.2000122,nan,2,2.101,1,0,0.2172241,0.2459412,0.2247925,0.2173157,-0.004882812,0.002929688,0,1,3,0
54.263,0.001009,-0.07421875,-0.015625,0.09960938,-2.335938,2.523438,12.67969,-0.06445312,0.0078125,0.078125,-0.046875,0.02539062,0,0.0078125,-0.00402832,0.121582,0,0,0.0007324219,0.2263184,4.077,0,0,0,0.2000122,nan,2,2.111,1,0,0.2837219,0.1890259,0.2630615,0.1694641,-0.004882812,0.002929688,0,1,3,0
54.274,0.001048,-0.1699219,-0.03320312,0.2089844,-2.289062,-1.9375,6.65625,-0.05078125,0.01171875,0.1464844,-0.04492188,0.0234375,0,0.007568359,-0.00402832,0.1226807,0,0,0.0007324219,0.2263184,4.077,0,0,0,0.2000122,nan,2,2.121,1,0,0.3510437,0.1104431,0.3397827,0.1039734,-0.004882812,0.002929688,0,1,3,0
54.283,0.000925,0.2617188,-0.07421875,0.1171875,0.9453125,-4.664062,6.96875,0.1523438,-0.05859375,0.1386719,-0.04492188,0.02734375,0,0.007568359,-0.004394531,0.1243896,0,0,0.0007324219,0.2263184,4.077,0,0,0,0.2000122,nan,2,2.131,1,0,0.1990662,0.2808838,0.2595825,0.165741,-0.004882812,0.002929688,0,1,3,0
54.293,0.001011,-0.09570312,0.1035156,0.1992188,-0.703125,-3.085938,14.23438,-0.0234375,0.06054688,0.1738281,-0.04882812,0.02734375,0,0.008178711,-0.004638672,0.1259766,0,0,0.0007324219,0.2259827,4.077,0,0,0,0.199585,nan,2,2.141,1,0,0.3095398,0.1162109,0.3226624,0.1555176,-0.004882812,0.002929688,0,1,3,0
54.304,0.001011,0.09960938,-0.1132812,0.03125,-3.359375,1.1875,8.992188,0.06445312,-0.02929688,0.08398438,-0.04882812,0.02539062,0,0.008178711,-0.004150391,0.1273193,0,0,0.0007324219,0.2243042,4.077,0,0,0,0.1975708,nan,2,2.151,1,0,0.1445923,0.3401184,0.1590271,0.2534485,-0.004882812,0.002929688,0,1,3,0.6666667
54.314,0.001002,0.04296875,0.03515625,0.08203125,0.3203125,-9.09375,5.023438,0.01953125,0.015625,0.0703125,-0.05273438,0.02539062,0,0.008789062,-0.004272461,0.1279297,0,0,0.0007324219,0.2226257,4.077,0,0,0,0.1956177,nan,2,2.161,1,0,0.2384033,0.2108765,0.2401428,0.2009888,-0.004882812,0.002929688,0,1,3,0
54.324,0.001011,-0.02734375,0.01953125,0.1035156,1.914062,-1.03125,6.90625,-0.0078125,0.0234375,0.078125,-0.0546875,0.0234375,0,0.009033203,-0.00402832,0.1286621,0,0,0.0007324219,0.2209167,4.077,0,0,0,0.1936035,nan,2,2.171,1,0,0.2639771,0.1828918,0.2632141,0.173645,-0.004882812,0.002929688,0,1,3,0
54.334,0.001011,0.1835938,-0.0625,0.08398438,2.65625,1.492188,10.26562,0.06445312,-0.04296875,0.08789062,-0.0546875,0.02539062,0,0.009155273,-0.004150391,0.1295166,0,0,0.0007324219,0.2192383,4.077,0,0,0,0.1915894,nan,2,2.182,1,0,0.2382507,0.2259827,0.2582092,0.1545105,-0.004882812,0.002929688,0,1,3,0
54.343,0.001009,-0.0078125,0.001953125,0.01367188,0.09375,5.414062,15.85156,-0.02148438,0.01171875,0.04882812,-0.0546875,0.02539062,0,0.009277344,-0.004150391,0.130249,0,0,0.0007324219,0.2177124,4.077,0,0,0,0.1898193,nan,2,2.191,1,0,0.1784668,0.2620239,0.1767883,0.2536011,-0.004882812,0.00390625,0,1,3,0
54.353,0.001011,0.02539062,0.0078125,-0.04492188,-0.625,4.554688,10.57812,-0.009765625,0.001953125,-0.01171875,-0.0546875,0.02539062,0,0.009155273,-0.004150391,0.1303711,0,0,0.0007324219,0.2158813,4.077,0,0,0,0.1876221,nan,2,2.201,1,0,0.1374207,0.3034973,0.1455078,0.2770691,-0.004882812,0.00390625,0,1,3,0
54.363,0.001011,-0.02734375,-0.046875,-0.00390625,1.460938,2.382812,4.765625,-0.01757812,-0.01757812,-0.02539062,-0.0546875,0.02734375,0,0.009277344,-0.004394531,0.130127,0,0,0.0007324219,0.2142029,4.077,0,0,0,0.1856079,nan,2,2.211,1,0,0.209198,0.2295227,0.205719,0.2123108,-0.005859375,0.00390625,0,1,3,0
54.373,0.001007,0.06835938,-0.0078125,0.02734375,0.328125,3.179688,16.66406,0.02148438,0,0.02148438,-0.0546875,0.02734375,0,0.009155273,-0.004638672,0.130127,0,0,0.0007324219,0.2124939,4.077,0,0,0,0.1835938,nan,2,2.221,1,0,0.2382202,0.1922913,0.2635803,0.1559143,-0.005859375,0.00390625,0,1,3,0
54.383,0.001009,-0.02929688,-0.015625,-0.02148438,-0.4765625,-5.976562,7.09375,0.001953125,-0.01757812,-0.02148438,-0.0546875,0.02734375,0,0.009277344,-0.004638672,0.130127,0,0,0.0007324219,0.2108154,4.077,0,0,0,0.1815796,nan,2,2.231,1,0,0.1801453,0.2559814,0.1823425,0.224823,-0.005859375,0.00390625,0,1,3,0
54.393,0.001009,-0.00390625,-0.01171875,0.02539062,2.335938,1.5625,7.429688,-0.02148438,0.0078125,0.015625,-0.0546875,0.02734375,0,0.009033203,-0.004638672,0.130127,0,0,0.0007324219,0.209137,4.077,0,0,0,0.1796265,nan,2,2.241,1,0,0.239624,0.1887207,0.2432556,0.1649475,-0.005859375,0.00390625,0,1,3,0
54.404,0.001009,0.1210938,-0.03320312,-0.02929688,-2.328125,-1.851562,16.03906,0.02734375,-0.05273438,-0.009765625,-0.05273438,0.02734375,0,0.008789062,-0.004760742,0.130127,0,0,0.0007324219,0.2074585,4.077,0,0,0,0.1776123,nan,2,2.251,1,0,0.1789551,0.2658997,0.187561,0.1973877,-0.005859375,0.00390625,0,1,3,0
54.414,0.001009,-0.109375,-0.04882812,-0.02929688,2.679688,-3.5,8.421875,-0.005859375,-0.02148438,-0.03515625,-0.0546875,0.02929688,0,0.009277344,-0.005004883,0.1297607,0,0,0.0007324219,0.20578,4.077,0,0,0,0.1755981,nan,2,2.261,1,0,0.185791,0.2380066,0.1732483,0.2260132,-0.005859375,0.00390625,0,1,3,0.1746032
54.423,0.001031,0.01757812,-0.0234375,0.04296875,-2.570312,4.171875,8.796875,0,-0.0078125,0.01171875,-0.0546875,0.03125,0,0.009155273,-0.005004883,0.1296387,0,0,0.0007324219,0.2042542,4.077,0,0,0,0.1738281,nan,2,2.27,1,0,0.258728,0.1619263,0.2653809,0.1309814,-0.005859375,0.00390625,0,1,3,0.3650794
54.433,0.00101,-0.1074219,0.01367188,0.04296875,2.085938,-9.28125,7.539062,-0.0859375,-0.01171875,0.04492188,-0.05273438,0.03125,0,0.008789062,-0.005249023,0.1300049,0,0,0.0007324219,0.2025757,4.077,0,0,0,0.171814,nan,2,2.281,1,0,0.2496033,0.1647644,0.229187,0.1667175,-0.005859375,0.00390625,0,1,3,0
54.443,0.001048,0.01757812,-0.001953125,0.07226562,-2.664062,7.15625,12.79688,-0.01953125,-0.01171875,0.04882812,-0.05078125,0.03320312,0,0.008422852,-0.005371094,0.1303711,0,0,0.0007324219,0.2007141,4.077,0,0,0,0.1696167,nan,2,2.291,1,0,0.236145,0.1791382,0.2405701,0.1470032,-0.005859375,0.00390625,0,1,3,0
54.453,0.000966,0.0078125,-0.06054688,0.08984375,3.765625,-11.28906,13.67188,0.001953125,-0.01367188,0.09765625,-0.05078125,0.03320312,0,0.008422852,-0.005371094,0.1312256,0,0,0.0007324219,0.1990356,4.077,0,0,0,0.1676025,nan,2,2.301,1,0,0.2616272,0.1549683,0.2638855,0.1156311,-0.005859375,0.00390625,0,1,3,0
54.463,0.001017,-0.09765625,-0.009765625,0.02148438,1.992188,4.851562,13.78906,0.03710938,-0.04296875,0.0546875,-0.05273438,0.03320312,0,0.008789062,-0.005615234,0.131958,0,0,0.0007324219,0.1973572,4.077,0,0,0,0.1655884,nan,2,2.311,1,0,0.169281,0.2496033,0.1653442,0.2051392,-0.005859375,0.00390625,0,1,3,0
54.473,0.001014,-0.0234375,0.02929688,-0.02539062,-2.65625,6.507812,6.765625,-0.009765625,0,-0.01171875,-0.05273438,0.03320312,0,0.008666992,-0.005737305,0.1322021,0,0,0.0007324219,0.1956482,4.077,0,0,0,0.1635742,nan,2,2.321,1,0,0.1332397,0.2667847,0.1389771,0.2436218,-0.005859375,0.00390625,0,1,3,0.7460318
54.483,0.001015,-0.06640625,0.01757812,-0.04882812,0.5546875,-0.7890625,6.398438,-0.05273438,0.00390625,-0.04101562,-0.05078125,0.03515625,0,0.008544922,-0.005737305,0.131958,0,0,0.0007324219,0.1939697,4.077,0,0,0,0.1616211,nan,2,2.331,1,0,0.1554565,0.2404175,0.1447754,0.23526,-0.005859375,0.00390625,0,1,3,0
54.493,0.001015,-0.04492188,-0.02734375,0.03320312,-0.96875,0.03125,7.796875,0.005859375,-0.00390625,0.01171875,-0.05078125,0.03320312,0,0.008422852,-0.005615234,0.1317139,0,0,0.0007324219,0.1922913,4.077,0,0,0,0.1596069,nan,2,2.341,1,0,0.250824,0.1526184,0.2554016,0.110321,-0.005859375,0.00390625,0,1,3,0
54.504,0.001015,-0.01367188,-0.02734375,-0.04101562,-1.65625,-0.5078125,17.23438,-0.01367188,-0.01171875,-0.0234375,-0.05078125,0.03515625,0,0.008422852,-0.005737305,0.1317139,0,0,0.0007324219,0.1906128,4.077,0,0,0,0.1575928,nan,2,2.351,1,0,0.1524353,0.243103,0.1509705,0.2159119,-0.005859375,0.00390625,0,1,3,0
54.514,0.001015,0,-0.03320312,-0.078125,0.2421875,-0.9453125,2.65625,0.00390625,-0.001953125,-0.04882812,-0.05078125,0.03515625,0,0.008422852,-0.005737305,0.1313477,0,0,0.0007324219,0.1889343,4.077,0,0,0,0.1555786,nan,2,2.361,1,0,0.127655,0.2652588,0.133667,0.229126,-0.005859375,0.00390625,0,1,3,0
54.524,0.001015,0.02148438,-0.04101562,-0.1152344,0.6328125,-11.625,2.4375,0.04296875,-0.0234375,-0.1191406,-0.05273438,0.03515625,0,0.008666992,-0.005859375,0.1303711,0,0,0.0007324219,0.1872559,4.077,0,0,0,0.1536255,nan,2,2.371,1,0,0.09564209,0.2985229,0.1059265,0.2488708,-0.005859375,0.00390625,0,1,3,0
54.534,0.001015,-0.05664062,0.01171875,0.00390625,0.59375,-3.609375,3.328125,-0.01367188,0.01953125,-0.05273438,-0.05273438,0.03320312,0,0.008666992,-0.005737305,0.1295166,0,0,0.0007324219,0.1855469,4.077,0,0,0,0.1516113,nan,2,2.382,1,0,0.2394409,0.1400452,0.2408752,0.1218872,-0.005859375,0.00390625,0,1,3,0
54.543,0.001005,0.1113281,0.04882812,-0.05078125,-2.125,8.195312,17.41406,0.02148438,-0.0078125,-0.05664062,-0.05273438,0.03320312,0,0.008666992,-0.005615234,0.1291504,0,0,0.0007324219,0.1840515,4.077,0,0,0,0.1497803,nan,2,2.391,1,0,0.1477661,0.2380371,0.162323,0.1880188,-0.005859375,0.00390625,0,1,3,0
54.553,0.00101,-0.03710938,0.07617188,-0.02148438,1.507812,3.273438,15.88281,-0.08203125,0.02539062,-0.03320312,-0.04492188,0.03320312,0,0.007568359,-0.005493164,0.1286621,0,0,0.0007324219,0.1821899,4.077,0,0,0,0.147583,nan,2,2.401,1,0,0.1963196,0.1695557,0.2093201,0.1535645,-0.005859375,0.00390625,0,1,3,0
54.563,0.000999,0.02148438,-0.03710938,-0.03320312,-0.1796875,6.367188,9.492188,-0.01367188,-0.0078125,-0.00390625,-0.04296875,0.03320312,0,0.007080078,-0.005371094,0.12854,0,0,0.0007324219,0.1805115,4.077,0,0,0,0.1455688,nan,2,2.411,1,0,0.1753235,0.2055969,0.1871948,0.1539001,-0.005859375,0.00390625,0,1,3,0
54.574,0.00102,0.0703125,-0.0625,-0.0390625,1.4375,-4.671875,6.070312,0.02539062,-0.00390625,-0.04296875,-0.04296875,0.03320312,0,0.007080078,-0.005371094,0.1281738,0,0,0.0007324219,0.178833,4.077,0,0,0,0.1436157,nan,2,2.421,1,0,0.1410217,0.2329407,0.1540833,0.1872559,-0.005859375,0.00390625,0,1,3,0
54.583,0.000989,-0.0859375,-0.03710938,0.02148438,0.1796875,-7.257812,10.48438,-0.0703125,-0.0078125,-0.00390625,-0.04101562,0.03320312,0,0.006835938,-0.005371094,0.1280518,0,0,0.0007324219,0.177124,4.077,0,0,0,0.1416016,nan,2,2.431,1,0,0.2223816,0.1476135,0.1995544,0.1390381,-0.005859375,0.00390625,0,1,3,0
54.594,0.001078,0.0390625,0.00390625,-0.046875,0.8515625,-2.445312,2.664062,-0.01757812,-0.0078125,-0.009765625,-0.03710938,0.03320312,0,0.006347656,-0.005493164,0.1280518,0,0,0.0007324219,0.1754456,4.077,0,0,0,0.1395874,nan,2,2.441,1,0,0.1443787,0.2202454,0.1573181,0.1798706,-0.005859375,0.00390625,0,1,3,0
54.604,0.001009,-0.01171875,-0.0234375,-0.08789062,0.375,-2.195312,10.03125,-0.009765625,0.001953125,-0.046875,-0.03710938,0.03125,0,0.006225586,-0.005371094,0.1278076,0,0,0.0007324219,0.1737671,4.077,0,0,0,0.1375732,nan,2,2.451,1,0,0.1171875,0.2466125,0.1188965,0.2124023,-0.005859375,0.00390625,0,1,3,0
54.614,0.001009,-0.09960938,0,-0.1015625,-2.726562,4.132812,13.92969,-0.0234375,0.03125,-0.1074219,-0.03710938,0.03125,0,0.006225586,-0.005249023,0.1268311,0,0,0.0007324219,0.1720886,4.077,0,0,0,0.1356201,nan,2,2.461,1,0,0.09869385,0.2485046,0.1016541,0.2394714,-0.006835938,0.00390625,0,1,3,0
54.624,0.001009,-0.03125,-0.0234375,-0.05078125,0.796875,1.976562,4.328125,-0.01953125,0,-0.04882812,-0.03515625,0.03125,0,0.005981445,-0.005126953,0.1260986,0,0,0.0007324219,0.1704102,4.077,0,0,0,0.133606,nan,2,2.471,1,0,0.1976929,0.1602478,0.1929321,0.1307373,-0.006835938,0.004882812,0,1,3,0
54.634,0.001009,0.04296875,0.02929688,-0.08789062,1.078125,-1.320312,6.585938,0.05078125,-0.00390625,-0.09375,-0.03710938,0.03125,0,0.006103516,-0.005249023,0.1253662,0,0,0.0007324219,0.1687012,4.077,0,0,0,0.1315918,nan,2,2.482,1,0,0.1040344,0.2424622,0.1266174,0.2017517,-0.006835938,0.004882812,0,1,3,0
54.643,0.001015,-0.1132812,-0.07226562,-0.04882812,-0.65625,2.5625,3.5,-0.01367188,-0.02929688,-0.04101562,-0.0390625,0.03125,0,0.006469727,-0.005371094,0.1247559,0,0,0.0007324219,0.1672058,4.077,0,0,0,0.1298218,nan,2,2.491,1,0,0.2073669,0.151947,0.1794128,0.1300659,-0.006835938,0.004882812,0,1,3,0
54.653,0.001017,0.02148438,0.01171875,-0.09375,0.8203125,-3.640625,9.34375,0.03125,0.0078125,-0.1074219,-0.0390625,0.03320312,0,0.006469727,-0.005493164,0.1239014,0,0,0.0007324219,0.1653442,4.077,0,0,0,0.1276245,nan,2,2.501,1,0,0.08172607,0.2539978,0.1076355,0.2180176,-0.006835938,0.004882812,0,1,3,0.3333333
54.663,0.001006,-0.05273438,-0.00390625,-0.08398438,-2.03125,4.507812,15.10156,0.009765625,0.00390625,-0.08007812,-0.0390625,0.03320312,0,0.006591797,-0.005371094,0.1230469,0,0,0.0007324219,0.1636658,4.077,0,0,0,0.1256104,nan,2,2.511,1,0,0.1400452,0.1979065,0.144165,0.1725464,-0.006835938,0.004882812,0,1,3,0
54.673,0.001015,-0.0390625,-0.02734375,-0.02734375,-0.3515625,-6.84375,4.898438,0.02734375,-0.005859375,-0.05273438,-0.04101562,0.03320312,0,0.006958008,-0.005615234,0.1223145,0,0,0.0007324219,0.1619873,4.077,0,0,0,0.1235962,nan,2,2.521,1,0,0.1854858,0.1516113,0.1896362,0.1211853,-0.006835938,0.004882812,0,1,3,0
54.683,0.001015,-0.06054688,-0.03125,-0.078125,1.023438,-9.8125,8.773438,-0.001953125,-0.015625,-0.05273438,-0.04296875,0.03320312,0,0.007080078,-0.005737305,0.1218262,0,0,0.0007324219,0.1603088,4.077,0,0,0,0.121582,nan,2,2.531,1,0,0.1342773,0.2033386,0.128418,0.1751709,-0.006835938,0.004882812,0,1,3,0
54.693,0.001015,0.0234375,0.0703125,-0.05859375,0.9453125,7.125,16.1875,0.001953125,0.01367188,-0.05859375,-0.04296875,0.03515625,0,0.007080078,-0.005737305,0.1212158,0,0,0.0007324219,0.1585999,4.077,0,0,0,0.1196289,nan,2,2.541,1,0,0.1330261,0.186615,0.1505127,0.1642761,-0.006835938,0.004882812,0,1,3,0
54.704,0.001015,0.05664062,0.01953125,-0.07617188,-1.804688,6.15625,9.945312,0.0078125,-0.001953125,-0.07617188,-0.04101562,0.03320312,0,0.006958008,-0.005737305,0.1206055,0,0,0.0007324219,0.1569214,4.077,0,0,0,0.1176147,nan,2,2.551,1,0,0.1139526,0.2155457,0.1286621,0.1695557,-0.006835938,0.004882812,0,1,3,0
54.714,0.001015,0.0390625,-0.03320312,-0.03320312,1.65625,-0.296875,5.492188,0.02148438,0,-0.03125,-0.04296875,0.03320312,0,0.007080078,-0.005615234,0.1201172,0,0,0.0007324219,0.1552429,4.077,0,0,0,0.1156006,nan,2,2.561,1,0,0.1678772,0.159729,0.177887,0.1154785,-0.006835938,0.004882812,0,1,3,0
54.724,0.001015,0,0.0078125,-0.005859375,0.0390625,-1.445312,10.00781,0.00390625,0.005859375,-0.03125,-0.04296875,0.03320312,0,0.007080078,-0.005615234,0.119751,0,0,0.0007324219,0.1535645,4.077,0,0,0,0.1135864,nan,2,2.571,1,0,0.1556091,0.1625671,0.1632996,0.1327209,-0.006835938,0.004882812,0,1,3,0.2539683
54.733,0.000997,-0.03515625,0.02148438,-0.03710938,1.65625,-3.304688,11.78125,-0.0234375,-0.005859375,-0.009765625,-0.04101562,0.03320312,0,0.006835938,-0.005493164,0.1196289,0,0,0.0007324219,0.1520386,4.077,0,0,0,0.1118164,nan,2,2.581,1,0,0.1532288,0.1676331,0.1470337,0.1402893,-0.006835938,0.004882812,0,1,3,0
54.743,0.000988,0.07421875,-0.02148438,-0.05273438,-0.875,-3.851562,4.132812,0.02148438,-0.015625,-0.06445312,-0.0390625,0.03320312,0,0.006591797,-0.005615234,0.1191406,0,0,0.0007324219,0.1503601,4.077,0,0,0,0.1098022,nan,2,2.591,1,0,0.09188843,0.2272644,0.1118469,0.1704407,-0.006835938,0.004882812,0,1,3,0
54.753,0.000971,-0.0078125,-0.02539062,-0.04296875,1.164062,-1.796875,17.00781,-0.00390625,-0.01757812,-0.03125,-0.04101562,0.03515625,0,0.006713867,-0.005737305,0.1187744,0,0,0.0007324219,0.1484985,4.077,0,0,0,0.107605,nan,2,2.601,1,0,0.1542664,0.1615906,0.1508179,0.1273804,-0.006835938,0.004882812,0,1,3,0
54.763,0.001029,-0.0234375,0.02148438,-0.0625,0.3828125,-6.554688,8.125,-0.01757812,0.01171875,-0.06835938,-0.0390625,0.03515625,0,0.006591797,-0.005859375,0.1181641,0,0,0.0007324219,0.1468201,4.077,0,0,0,0.1055908,nan,2,2.611,1,0,0.1013489,0.2006836,0.1065369,0.1787109,-0.006835938,0.004882812,0,1,3,0
54.773,0.000995,-0.005859375,-0.02734375,0.02929688,0.6640625,1.085938,16.90625,0.0078125,0,-0.00390625,-0.0390625,0.03515625,0,0.006591797,-0.005737305,0.1177979,0,0,0.0007324219,0.1451416,4.077,0,0,0,0.1035767,nan,2,2.621,1,0,0.2027283,0.1040649,0.2087708,0.06497192,-0.006835938,0.004882812,0,1,3,0
54.783,0.000959,-0.03125,-0.08007812,-0.02148438,1.828125,-10.32812,7.148438,-0.015625,0.01171875,0,-0.0390625,0.03320312,0,0.006469727,-0.005615234,0.1179199,0,0,0.0007324219,0.1434631,4.077,0,0,0,0.1016235,nan,2,2.631,1,0,0.1329041,0.170166,0.1305237,0.1402283,-0.006835938,0.004882812,0,1,3,0
54.794,0.0009860001,-0.06640625,0.0546875,0.001953125,2.1875,4.40625,14.53906,-0.05273438,0.05273438,-0.015625,-0.03710938,0.03320312,0,0.006103516,-0.005493164,0.1176758,0,0,0.0007324219,0.1421204,4.077,0,0,0,0.09997559,nan,2,2.641,1,0,0.1392822,0.1403809,0.1513672,0.1373901,-0.006835938,0.004882812,0,1,3,0
54.804,0.001035,0.01171875,-0.07421875,0.02929688,0.5078125,-0.9765625,2.007812,-0.01953125,0.01171875,0.0234375,-0.03320312,0.02929688,0,0.005615234,-0.005004883,0.1177979,0,0,0.0007324219,0.1421204,4.077,0,0,0,0.09997559,nan,2,2.651,1,0,0.1758423,0.1322937,0.1793518,0.08093262,-0.006835938,0.004882812,0,1,3,0
54.813,0.00106,-0.1054688,0.03320312,-0.04296875,-0.6640625,4.90625,15.89844,-0.07421875,-0.01367188,-0.02148438,-0.03125,0.03125,0,0.005249023,-0.005126953,0.1177979,0,0,0.0007324219,0.1421204,4.077,0,0,0,0.09997559,nan,2,2.66,1,0,0.1047974,0.1993408,0.08227539,0.1820374,-0.006835938,0.004882812,0,1,3,0
54.823,0.001018,-0.015625,-0.05664062,-0.0234375,-2.507812,-6.40625,8.5,-0.0234375,-0.01953125,-0.04492188,-0.02734375,0.03125,0,0.004516602,-0.005249023,0.1174316,0,0,0.0007324219,0.1421204,4.077,0,0,0,0.09997559,nan,2,2.67,1,0,0.1201172,0.1835632,0.126709,0.1380615,-0.006835938,0.004882812,0,1,3,0
54.833,0.000885,0.0859375,-0.01171875,-0.01367188,0.4296875,1.210938,13.64844,-0.0078125,0.015625,-0.01171875,-0.02539062,0.03125,0,0.004394531,-0.005126953,0.1171875,0,0,0.0007324219,0.1421204,4.077,0,0,0,0.09997559,nan,2,2.68,1,0,0.1495056,0.146698,0.1636963,0.1085205,-0.006835938,0.004882812,0,1,3,0
54.843,0.001044,-0.1113281,-0.02734375,-0.05664062,0.9921875,-1.960938,2.804688,-0.09960938,0.0078125,-0.04101562,-0.0234375,0.02929688,0,0.00390625,-0.005004883,0.1169434,0,0,0.0007324219,0.1421204,4.077,0,0,0,0.09997559,nan,2,2.691,1,0,0.1131897,0.1858826,0.08450317,0.184845,-0.006835938,0.004882812,0,1,3,0
54.853,0.001022,0.0078125,-0.04296875,-0.0625,-0.9296875,3.234375,7.210938,-0.04101562,-0.01953125,-0.07226562,-0.01953125,0.02929688,0,0.003295898,-0.005004883,0.1162109,0,0,0.0007324219,0.1421204,4.077,0,0,0,0.09997559,nan,2,2.701,1,0,0.1140747,0.1924744,0.1076965,0.1541748,-0.006835938,0.004882812,0,1,3,0
54.863,0.001052,0.03515625,-0.1015625,-0.01171875,-0.453125,2.828125,14.72656,0.02539062,-0.04296875,-0.02539062,-0.01953125,0.03125,0,0.003417969,-0.005249023,0.1157227,0,0,0.0007324219,0.1421204,4.077,0,0,0,0.09997559,nan,2,2.711,1,0,0.1757507,0.1382446,0.1746826,0.07974243,-0.006835938,0.004882812,0,1,3,0
54.873,0.001017,0.07617188,0.001953125,-0.06445312,-1.726562,-2.421875,12.63281,0.02539062,-0.01953125,-0.06640625,-0.02148438,0.03320312,0,0.003417969,-0.005371094,0.1152344,0,0,0.0007324219,0.1421204,4.077,0,0,0,0.09997559,nan,2,2.721,1,0,0.09542847,0.2071533,0.1095886,0.15625,-0.006835938,0.004882812,0,1,3,0
54.883,0.001015,0.009765625,-0.02148438,-0.02734375,2.054688,-4.25,5.921875,0.01953125,-0.0234375,-0.04882812,-0.02148438,0.03320312,0,0.003540039,-0.005371094,0.114624,0,0,0.0007324219,0.1421204,4.077,0,0,0,0.09997559,nan,2,2.731,1,0,0.1515198,0.1581421,0.1484985,0.11026,-0.006835938,0.004882812,0,1,3,0
54.893,0.001015,-0.09765625,0.0234375,0.01953125,0.390625,-2.960938,4.867188,-0.02539062,0,0.001953125,-0.0234375,0.03515625,0,0.00378418,-0.005737305,0.1143799,0,0,0.0007324219,0.1421204,4.077,0,0,0,0.09997559,nan,2,2.741,1,0,0.1969604,0.0920105,0.1860962,0.09335327,-0.006835938,0.004882812,0,1,3,0
54.904,0.001015,-0.03320312,-0.03710938,-0.02734375,-1.992188,5.085938,15.11719,-0.046875,-0.005859375,-0.0234375,-0.01953125,0.03320312,0,0.003417969,-0.005737305,0.1143799,0,0,0.0007324219,0.1421204,4.077,0,0,0,0.09997559,nan,2,2.751,1,0,0.1174316,0.1854858,0.1047363,0.1607666,-0.006835938,0.005859375,0,1,3,0
54.914,0.001015,-0.0078125,0.03320312,0.0078125,2.570312,3,15.21094,-0.03320312,0.01367188,-0.005859375,-0.01757812,0.03320312,0,0.002929688,-0.005493164,0.1141357,0,0,0.0007324219,0.1421204,4.077,0,0,0,0.09997559,nan,2,2.761,1,0,0.1542969,0.1426392,0.1558533,0.1156006,-0.006835938,0.005859375,0,1,3,0
54.924,0.001015,0.1113281,0.02539062,-0.02148438,0.3671875,-4.671875,1.960938,0.05664062,-0.009765625,-0.01953125,-0.01757812,0.03320312,0,0.003051758,-0.005615234,0.1141357,0,0,0.0007324219,0.1421204,4.077,0,0,0,0.09997559,nan,2,2.771,1,0,0.1081543,0.1927185,0.1351318,0.1324158,-0.006835938,0.005859375,0,1,3,0
54.933,0.00104,0.04101562,0.03515625,-0.05859375,-3.289062,-5.875,10.05469,0.04492188,0.001953125,-0.04492188,-0.01953125,0.03320312,0,0.003173828,-0.005737305,0.1138916,0,0,0.0007324219,0.1421204,4.077,0,0,0,0.09997559,nan,2,2.781,1,0,0.08065796,0.2122498,0.1031189,0.1723938,-0.006835938,0.005859375,0,1,3,0
54.944,0.001015,-0.00390625,-0.03710938,0.04101562,-1.539062,-0.734375,4.375,0.015625,-0.0078125,0.01757812,-0.01953125,0.03320312,0,0.003173828,-0.005615234,0.1136475,0,0,0.0007324219,0.1421204,4.077,0,0,0,0.09997559,nan,2,2.792,1,0,0.2071228,0.09741211,0.2080078,0.0559082,-0.006835938,0.005859375,0,1,3,0
54.953,0.001003,0.09179688,-0.01953125,-0.005859375,0.40625,5.164062,13.03906,0.0546875,-0.005859375,0.009765625,-0.01953125,0.03320312,0,0.003417969,-0.005615234,0.1137695,0,0,0.0007324219,0.1421204,4.077,0,0,0,0.09997559,nan,2,2.801,1,0,0.120575,0.1814575,0.1407776,0.1256104,-0.006835938,0.005859375,0,1,3,0
54.963,0.001017,0.1152344,-0.01757812,-0.02734375,1.851562,-5.625,4.40625,0.0546875,-0.02148438,-0.0078125,-0.02148438,0.03515625,0,0.003662109,-0.005737305,0.1137695,0,0,0.0007324219,0.1421204,4.077,0,0,0,0.09997559,nan,2,2.811,1,0,0.1148682,0.1906738,0.129425,0.1334534,-0.006835938,0.005859375,0,1,3,0
54.973,0.000996,0.01757812,-0.03710938,-0.009765625,-4.25,0.03125,11.98438,-0.009765625,-0.0234375,-0.0078125,-0.02148438,0.03515625,0,0.003662109,-0.005859375,0.1136475,0,0,0.0007324219,0.1421204,4.077,0,0,0,0.09997559,nan,2,2.821,1,0,0.1524963,0.1568298,0.141449,0.1176758,-0.006835938,0.005859375,0,1,3,0
54.983,0.001002,0.08398438,-0.04492188,0.0234375,1.171875,7.296875,11.875,0.001953125,-0.02539062,0.015625,-0.02148438,0.03515625,0,0.003662109,-0.005981445,0.1136475,0,0,0.0007324219,0.1421204,4.077,0,0,0,0.09997559,nan,2,2.831,1,0,0.1711426,0.1375732,0.1695557,0.09014893,-0.006835938,0.005859375,0,1,3,0
54.993,0.001015,-0.04492188,0.0546875,0.06640625,0.7265625,-2.757812,8.015625,0.005859375,0.01367188,0.046875,-0.0234375,0.03515625,0,0.00390625,-0.005981445,0.1140137,0,0,0.0007324219,0.1421204,4.077,0,0,0,0.09997559,nan,2,2.841,1,0,0.1868591,0.1056824,0.1889343,0.0869751,-0.0078125,0.005859375,0,1,3,0
55.003,0.001002,0.00390625,-0.0390625,0.00390625,1.804688,5.914062,11.53125,-0.0078125,-0.005859375,0.03125,-0.0234375,0.03515625,0,0.00378418,-0.005859375,0.114502,0,0,0.0007324219,0.1421204,4.077,0,0,0,0.09997559,nan,2,2.851,1,0,0.1280212,0.1786499,0.1216736,0.1400757,-0.0078125,0.005859375,0,1,3,0
55.014,0.001009,0.06445312,-0.02734375,0.009765625,1.875,-3.945312,9.15625,0.02929688,-0.015625,0.015625,-0.02148438,0.03515625,0,0.003662109,-0.005737305,0.1147461,0,0,0.0007324219,0.1421204,4.077,0,0,0,0.09997559,nan,2,2.861,1,0,0.1291504,0.1812744,0.13797,0.1200256,-0.0078125,0.005859375,0,1,3,0.1587302
55.024,0.001009,0.001953125,-0.0546875,-0.03320312,0.2578125,-6.703125,14.84375,-0.01757812,-0.00390625,-0.02929688,-0.02148438,0.03320312,0,0.003540039,-0.005615234,0.114624,0,0,0.0007324219,0.1421204,4.077,0,0,0,0.09997559,nan,2,2.871,1,0,0.09545898,0.211792,0.08618164,0.1749878,-0.0078125,0.005859375,0,1,3,0
55.034,0.001009,0.03320312,-0.015625,-0.02539062,-0.1640625,-3.789062,11.39062,0.001953125,0.0078125,-0.015625,-0.01953125,0.03320312,0,0.003295898,-0.005615234,0.114502,0,0,0.0007324219,0.1421204,4.077,0,0,0,0.09997559,nan,2,2.881,1,0,0.124054,0.177887,0.1345825,0.131897,-0.0078125,0.005859375,0,1,3,0
55.044,0.001009,0.06445312,-0.03515625,0.0234375,0.3046875,6.5625,10.89844,0.0390625,-0.02148438,0.0078125,-0.02148438,0.03320312,0,0.003417969,-0.005615234,0.1143799,0,0,0.0007324219,0.1421204,4.077,0,0,0,0.09997559,nan,2,2.892,1,0,0.1641235,0.145813,0.1727295,0.08578491,-0.0078125,0.005859375,0,1,3,0
55.053,0.001016,-0.02734375,0.07617188,-0.005859375,-2.476562,-3.242188,5.0625,-0.015625,0.0234375,0.009765625,-0.02148438,0.03320312,0,0.003417969,-0.005615234,0.114624,0,0,0.0007324219,0.1421204,4.077,0,0,0,0.09997559,nan,2,2.901,1,0,0.1317444,0.1549072,0.1374512,0.1443481,-0.0078125,0.005859375,0,1,3,0
55.063,0.001006,0.01171875,-0.02734375,-0.01953125,2.492188,7.460938,13.71875,0.01367188,-0.00390625,-0.001953125,-0.02148438,0.03320312,0,0.003540039,-0.005615234,0.114624,0,0,0.0007324219,0.1421204,4.077,0,0,0,0.09997559,nan,2,2.911,1,0,0.1234436,0.1778259,0.1281433,0.1390076,-0.0078125,0.005859375,0,1,3,0
55.073,0.001009,-0.01953125,0.02734375,-0.01953125,3.054688,0.8671875,15.25,0.0078125,0.01367188,-0.02148438,-0.02148438,0.03515625,0,0.003662109,-0.005737305,0.114502,0,0,0.0007324219,0.1421204,4.077,0,0,0,0.09997559,nan,2,2.921,1,0,0.1241455,0.1651917,0.1329346,0.1461487,-0.0078125,0.005859375,0,1,3,0
55.083,0.001015,-0.03125,0.07617188,-0.05273438,-1.117188,-4.03125,4.21875,-0.0078125,0.01953125,-0.04101562,-0.02148438,0.03515625,0,0.003662109,-0.005737305,0.1141357,0,0,0.0007324219,0.1421204,4.077,0,0,0,0.09997559,nan,2,2.931,1,0,0.1054077,0.1845703,0.1123657,0.1661072,-0.0078125,0.005859375,0,1,3,0
55.093,0.001013,0.05859375,-0.01757812,-0.06835938,-0.9375,-6.867188,4.46875,0.0234375,-0.0078125,-0.05664062,-0.02148438,0.03320312,0,0.003662109,-0.005615234,0.1136475,0,0,0.1136475,0.1424561,4.077,0,0,0,0.09997559,nan,4,2.941,1,0,0.1177673,0.1730957,0.1209717,0.1579285,0,0,0,1,6,0
55.104,0.001012,0.03320312,-0.01171875,-0.01953125,-1.210938,0.1953125,9.726562,0.015625,-0.01367188,-0.04882812,-0.0234375,0.03320312,0,0.00378418,-0.005615234,0.1130371,0,0,0.1130371,0.1441345,4.077,0,0,0,0.09997559,nan,4,2.951,1,0,0.1491089,0.1486511,0.1468506,0.1318665,0,0,0,1,6,0.9365079
55.114,0.001012,0.05859375,-0.01171875,-0.0078125,1.75,-4.085938,15.60938,-0.009765625,0.001953125,0.005859375,-0.02148438,0.03320312,0,0.003540039,-0.005615234,0.1130371,0,0,0.1130371,0.145813,4.077,0,0,0,0.09997559,nan,4,2.961,1,0,0.1755676,0.1210632,0.1765747,0.1100159,0,0,0,1,6,0
55.124,0.000966,-0.0390625,0.01171875,-0.00390625,-1.320312,4.398438,14.50781,-0.04296875,0.01171875,0.00390625,-0.02148438,0.03320312,0,0.003417969,-0.005493164,0.1130371,0,0,0.1130371,0.1474915,4.077,0,0,0,0.09997559,nan,4,2.971,1,0,0.1578064,0.138855,0.144104,0.1492615,0,0,0,1,6,0
55.134,0.000997,-0.05273438,0.06445312,-0.00390625,2.039062,6.210938,11.64062,-0.005859375,0.02148438,-0.01367188,-0.02148438,0.03320312,0,0.003662109,-0.005615234,0.112915,0,0,0.112915,0.1491699,4.077,0,0,0,0.09997559,nan,4,2.981,1,0,0.1407776,0.1488342,0.1431274,0.1639709,0,0,0,1,6,0
55.144,0.001056,0.1113281,-0.00390625,0.02539062,-0.6171875,-5.601562,8.773438,0.01953125,-0.009765625,0.02734375,-0.02148438,0.03320312,0,0.003662109,-0.005493164,0.1130371,0,0,0.1130371,0.1508789,4.077,0,0,0,0.09997559,nan,4,2.992,1,0,0.1835938,0.1283569,0.1860352,0.1054688,0,0,0,1,6,0
55.153,0.001006,0,0.0078125,0.04882812,-0.7109375,1.59375,13.33594,0.02734375,-0.01171875,0.04492188,-0.0234375,0.03320312,0,0.00402832,-0.005615234,0.1134033,0,0,0.1134033,0.1523743,4.077,0,0,0,0.09997559,nan,4,3.001,1,0,0.1782837,0.1305847,0.1799316,0.120697,0,0,0,1,6,0
55.163,0.000999,0.046875,0,-0.01171875,-3.320312,-3.046875,5,0.0078125,0,0.01757812,-0.0234375,0.03320312,0,0.00402832,-0.005737305,0.1137695,0,0,0.1137695,0.1540527,4.077,0,0,0,0.09997559,nan,4,3.011,1,0,0.114563,0.1976013,0.1165771,0.1875,0,0,0,1,6,0
55.173,0.001006,0.04101562,0.01757812,-0.02734375,-0.078125,4.03125,13.77344,0.009765625,0.0078125,-0.02148438,-0.0234375,0.03320312,0,0.00402832,-0.005615234,0.1136475,0,0,0.1136475,0.1557312,4.077,0,0,0,0.09997559,nan,4,3.021,1,0,0.1211548,0.191925,0.1283875,0.181488,0,0,0,1,6,0
55.183,0.001004,0.0078125,0.01953125,-0.0703125,-2.117188,2.90625,2.265625,0.01953125,0.00390625,-0.05664062,-0.02539062,0.03320312,0,0.004150391,-0.005615234,0.1132812,0,0,0.1132812,0.1574097,4.077,0,0,0,0.09997559,nan,4,3.031,1,0,0.1074829,0.2096558,0.1141663,0.1983948,0,0,0,1,6,0
55.193,0.000971,0.04492188,0.03515625,-0.0546875,-1.164062,-1.289062,6.03125,-0.01171875,0.01367188,-0.06445312,-0.0234375,0.03320312,0,0.00390625,-0.005493164,0.1126709,0,0,0.1126709,0.1591187,4.077,0,0,0,0.09997559,nan,4,3.041,1,0,0.1321106,0.1876526,0.1356812,0.1809998,0,0,0,1,6,0
55.203,0.001007,0.01171875,-0.01757812,-0.0703125,-0.9765625,-1.78125,16.77344,0.02148438,-0.005859375,-0.0625,-0.0234375,0.03320312,0,0.00402832,-0.005493164,0.1120605,0,0,0.1120605,0.1607971,4.077,0,0,0,0.09997559,nan,4,3.051,1,0,0.1229553,0.2068787,0.1276855,0.1856384,0,0,0,1,6,0
55.214,0.001007,-0.04101562,0.04882812,-0.04296875,-0.234375,4.25,19.04688,-0.009765625,0.03320312,-0.0625,-0.0234375,0.03320312,0,0.00402832,-0.005371094,0.1113281,0,0,0.1113281,0.1624756,4.077,0,0,0,0.09997559,nan,4,3.061,1,0,0.1546021,0.1636963,0.1599121,0.1716919,0,0,0,1,6,0
55.224,0.001007,0.005859375,0.00390625,0.001953125,1.070312,1.507812,9.757812,-0.001953125,0.015625,-0.02148438,-0.0234375,0.03125,0,0.00390625,-0.005249023,0.1109619,0,0,0.1109619,0.1641541,4.077,0,0,0,0.09997559,nan,4,3.071,1,0,0.1909485,0.1395874,0.1957397,0.1303406,0,0,0,1,6,0.2539683
55.234,0.001051,0.0234375,0.05664062,-0.08007812,2.6875,-5.015625,7.0625,0.009765625,0.04101562,-0.046875,-0.0234375,0.03125,0,0.00378418,-0.005004883,0.1108398,0,0,0.1108398,0.1658325,4.077,0,0,0,0.09997559,nan,4,3.082,1,0,0.09130859,0.2315674,0.1106262,0.2298584,0,0,0,1,6,0
55.244,0.001006,-0.015625,-0.0078125,-0.0234375,-1.023438,-7.84375,8.703125,0.0078125,0.0078125,-0.05664062,-0.0234375,0.02929688,0,0.00390625,-0.004882812,0.1101074,0,0,0.1101074,0.167511,4.077,0,0,0,0.09997559,nan,4,3.092,1,0,0.1665955,0.1757507,0.1630554,0.1647339,0,0,0,1,6,0
55.253,0.001016,0.005859375,-0.01953125,0,1.59375,2.257812,10.71875,0.00390625,-0.03710938,-0.01171875,-0.0234375,0.03125,0,0.00378418,-0.005126953,0.1098633,0,0,0.1098633,0.1690369,4.077,0,0,0,0.09997559,nan,4,3.101,1,0,0.2065735,0.1446228,0.2019043,0.1230469,0,0,0,1,6,0
55.263,0.001017,-0.01757812,-0.01953125,-0.02929688,-2.601562,-4.234375,7.273438,-0.01171875,-0.001953125,-0.0234375,-0.02148438,0.03125,0,0.003662109,-0.005126953,0.1097412,0,0,0.1097412,0.1707153,4.077,0,0,0,0.09997559,nan,4,3.111,1,0,0.1581116,0.1882629,0.1539307,0.1825867,0,0.0009765625,0,1,6,0
55.273,0.001016,-0.06640625,0.01953125,-0.09570312,-1.25,9.492188,11.78906,-0.02539062,0,-0.06835938,-0.02148438,0.03125,0,0.003417969,-0.005126953,0.1092529,0,0,0.1092529,0.1723938,4.077,0,0,0,0.09997559,nan,4,3.121,1,0,0.1088867,0.2405396,0.1021729,0.2380371,0,0.0009765625,0,1,6,0
55.283,0.001014,0.046875,0,-0.01367188,2,-3.929688,4.570312,0.00390625,-0.001953125,-0.0390625,-0.02148438,0.03125,0,0.003540039,-0.005249023,0.1086426,0,0,0.1086426,0.1741028,4.077,0,0,0,0.09997559,nan,4,3.131,1,0,0.1994629,0.1509705,0.2004395,0.1454773,0,0.0009765625,0,1,6,0
55.293,0.001015,-0.07226562,0.1074219,-0.01171875,-1.507812,4.179688,11.94531,-0.02539062,0.03515625,-0.01953125,-0.02148438,0.03125,0,0.003662109,-0.005126953,0.1083984,0,0,0.1083984,0.1757812,4.077,0,0,0,0.09997559,nan,4,3.141,1,0,0.1821594,0.1555786,0.1842651,0.1810913,0,0.0009765625,0,1,6,0
55.303,0.001015,0.05664062,0.07617188,-0.0234375,2.882812,-9.289062,6.945312,-0.009765625,0.005859375,-0.00390625,-0.02148438,0.03125,0,0.003417969,-0.005249023,0.1083984,0,0,0.1083984,0.1774597,4.077,0,0,0,0.09997559,nan,4,3.151,1,0,0.174408,0.177002,0.1827087,0.1756897,0,0.0009765625,0,1,6,0
55.314,0.001015,-0.005859375,-0.09375,-0.0078125,-2.742188,0.3984375,14.97656,0.0078125,-0.015625,-0.02148438,-0.02148438,0.03125,0,0.003540039,-0.005126953,0.1081543,0,0,0.1081543,0.1791382,4.077,0,0,0,0.09997559,nan,4,3.161,1,0,0.1760864,0.1984253,0.1677551,0.1742859,-0.0009765625,0.0009765625,0,1,6,0
55.324,0.001015,0.009765625,-0.009765625,-0.02929688,1.15625,-0.5390625,10.3125,-0.01367188,0.015625,-0.03320312,-0.01953125,0.02929688,0,0.003295898,-0.005004883,0.1077881,0,0,0.1077881,0.1808167,4.077,0,0,0,0.09997559,nan,4,3.171,1,0,0.1685791,0.1970825,0.1692505,0.188385,-0.0009765625,0.0009765625,0,1,6,0
55.334,0.001015,0.09960938,-0.08984375,-0.03515625,-0.8984375,2.929688,15.14062,-0.005859375,-0.01953125,-0.01757812,-0.01953125,0.02929688,0,0.003173828,-0.005004883,0.107666,0,0,0.107666,0.1824951,4.077,0,0,0,0.09997559,nan,4,3.181,1,0,0.1785583,0.2048645,0.1664734,0.1801147,-0.0009765625,0.0009765625,0,1,6,0
55.343,0.001044,-0.01171875,-0.009765625,-0.05859375,1.0625,3.59375,10.64844,-0.0078125,0.02148438,-0.06445312,-0.01953125,0.02929688,0,0.003417969,-0.005004883,0.1071777,0,0,0.1071777,0.184021,4.077,0,0,0,0.09997559,nan,4,3.191,1,0,0.1277466,0.236145,0.125885,0.2463074,-0.0009765625,0.0009765625,0,1,6,0
55.353,0.001008,-0.03710938,0.02539062,-0.03320312,-2.125,-5.054688,7.914062,-0.01367188,0.02734375,-0.05273438,-0.01953125,0.02929688,0,0.003295898,-0.004760742,0.1065674,0,0,0.1065674,0.1856995,4.077,0,0,0,0.09997559,nan,4,3.201,1,0,0.1841125,0.1849365,0.1831665,0.1905823,-0.0009765625,0.0009765625,0,1,6,0.5555556
55.364,0.001014,0.01171875,-0.06054688,0.04101562,0.25,4.609375,15.08594,-0.005859375,-0.009765625,0.01953125,-0.01953125,0.02734375,0,0.003173828,-0.004638672,0.1064453,0,0,0.1065674,0,4.077,0,0,0,0.09997559,nan,4,3.212,0,0,0,0,0,0,0,0,0,1,6,0
55.374,0.001024,0.0078125,-0.009765625,0.001953125,-2.507812,2.40625,9.179688,0,-0.0078125,0.02148438,-0.01953125,0.02734375,0,0.003295898,-0.004760742,0.1068115,0,0,0.1065674,0,4.077,0,0,0,0.09997559,nan,4,3.222,0,0,0,0,0,0,0,0,0,1,6,1
55.383,0.000996,0.1171875,-0.04882812,-0.05273438,-0.984375,0.875,4.679688,0.0546875,-0.005859375,-0.03710938,-0.01953125,0.02734375,0,0.003417969,-0.004638672,0.1066895,0,0,0.1065674,0,4.077,0,0,0,0.09997559,nan,4,3.231,0,0,0,0,0,0,0,0,0,1,6,0
55.393,0.000998,-0.05859375,0,-0.0234375,-1.34375,-5.289062,7.453125,-0.0078125,-0.005859375,-0.02929688,-0.01953125,0.02734375,0,0.00378418,-0.004760742,0.1063232,0,0,0.1065674,0,4.077,0,0,0,0.09997559,nan,4,3.241,0,0,0,0,0,0,0,0,0,1,6,1
55.403,0.001006,-0.0078125,-0.0078125,0.04882812,-2.078125,4.546875,10.50781,-0.01367188,-0.001953125,0.03710938,-0.01953125,0.02734375,0,0.00378418,-0.004638672,0.1064453,0,0,0.1065674,0,4.077,0,0,0,0.09997559,nan,4,3.251,0,0,0,0,0,0,0,0,0,1,6,0
55.413,0.001006,-0.01757812,0.0234375,-0.001953125,1.039062,-1.921875,7.6875,0.0234375,-0.0078125,0.005859375,-0.01953125,0.02734375,0,0.00390625,-0.004638672,0.1066895,0,0,0.1065674,0,4.077,0,0,0,0.09997559,nan,4,3.261,0,0,0,0,0,0,0,0,0,1,6,0
55.423,0.001006,-0.015625,-0.02734375,0.00390625,-1.710938,-0.6640625,13.11719,-0.005859375,-0.005859375,0.001953125,-0.01953125,0.02734375,0,0.00390625,-0.004638672,0.1066895,0,0,0.1065674,0,4.077,0,0,0,0.09997559,nan,4,3.271,0,0,0,0,0,0,0,0,0,1,6,0
55.433,0.001006,0.01367188,0.01367188,-0.1015625,1.0625,-0.59375,2.648438,0.009765625,0.005859375,-0.05273438,-0.01953125,0.02734375,0,0.00402832,-0.004638672,0.1065674,0,0,0.1065674,0,4.077,0,0,0,0.09997559,nan,4,3.281,0,0,0,0,0,0,0,0,0,1,6,0
55.444,0.001006,-0.005859375,0.001953125,-0.1367188,-0.640625,-0.7421875,8.265625,-0.005859375,-0.009765625,-0.1171875,-0.01953125,0.02734375,0,0.00402832,-0.004516602,0.1055908,0,0,0.1065674,0,4.077,0,0,0,0.09997559,nan,4,3.292,0,0,0,0,0,0,0,0,0,1,6,0
55.454,0.001006,0,0.00390625,-0.05859375,-2.179688,0.671875,8.3125,-0.01367188,0.009765625,-0.08203125,-0.01953125,0.02734375,0,0.00390625,-0.004516602,0.1044922,0,0,0.1065674,0,4.077,0,0,0,0.09997559,nan,4,3.302,0,0,0,0,0,0,0,0,0,1,6,0
55.464,0.001003,0.05859375,-0.01367188,-0.04101562,-0.1875,-1.15625,6.484375,0.05664062,-0.0234375,-0.05664062,-0.01953125,0.02734375,0,0.004150391,-0.004638672,0.1038818,0,0,0.1065674,0,4.077,0,0,0,0.09997559,nan,4,3.312,0,0,0,0,0,0,0,0,0,1,6,0
55.474,0.001007,-0.005859375,-0.01953125,0.01757812,-0.1953125,-1.117188,7.445312,0.00390625,-0.005859375,0.001953125,-0.01953125,0.02734375,0,0.004394531,-0.004760742,0.1036377,0,0,0.1065674,0,4.077,0,0,0,0.09997559,nan,4,3.322,0,0,0,0,0,0,0,0,0,1,6,0
55.483,0.001014,-0.00390625,0.03710938,0.02929688,0.0234375,1.15625,9.046875,-0.009765625,0.01367188,0.01953125,-0.01953125,0.02734375,0,0.004394531,-0.004760742,0.1037598,0,0,0.1065674,0,4.077,0,0,0,0.09997559,nan,4,3.331,0,0,0,0,0,0,0,0,0,1,6,1
55.493,0.001021,0.02929688,-0.01757812,-0.05859375,-0.6640625,0.03125,10.86719,0.009765625,-0.01171875,-0.03515625,-0.01953125,0.02734375,0,0.004394531,-0.004760742,0.1036377,0,0,0.1065674,0,4.077,0,0,0,0.09997559,nan,4,3.341,0,0,0,0,0,0,0,0,0,1,6,0
55.503,0.001021,-0.02539062,0.1210938,-0.04492188,-0.2265625,-0.71875,11.10156,-0.009765625,0.02734375,-0.04492188,-0.01953125,0.02734375,0,0.004394531,-0.004760742,0.1032715,0,0,0.1065674,0,4.077,0,0,0,0.09997559,nan,4,3.351,0,0,0,0,0,0,0,0,0,1,6,0
55.513,0.001014,-0.00390625,0.01367188,-0.08007812,0.171875,2.109375,8.554688,-0.0234375,0.01171875,-0.06054688,-0.01953125,0.02734375,0,0.00402832,-0.004516602,0.1027832,0,0,0.1065674,0,4.077,0,0,0,0.09997559,nan,4,3.361,0,0,0,0,0,0,0,0,0,1,6,0
55.523,0.001014,-0.01757812,0.04492188,-0.02734375,0.1953125,-1.140625,12.57812,-0.0078125,0.005859375,-0.046875,-0.01953125,0.02734375,0,0.00402832,-0.004638672,0.1021729,0,0,0.1065674,0,4.077,0,0,0,0.09997559,nan,4,3.371,0,0,0,0,0,0,0,0,0,1,6,0
55.533,0.001007,-0.00390625,-0.001953125,-0.009765625,-0.7109375,2.3125,10.69531,0.001953125,-0.015625,-0.009765625,-0.01953125,0.02734375,0,0.00402832,-0.004516602,0.1019287,0,0,0.1065674,0,4.077,0,0,0,0.09997559,nan,4,3.381,0,0,0,0,0,0,0,0,0,1,6,0
55.544,0.001021,0.01171875,0.02539062,0.01953125,0.4296875,-1.914062,7.585938,0.01367188,0,0.0078125,-0.01953125,0.02734375,0,0.00402832,-0.004516602,0.1019287,0,0,0.1065674,0,4.077,0,0,0,0.09997559,nan,4,3.392,0,0,0,0,0,0,0,0,0,1,6,0
55.554,0.001014,0.03320312,0.02734375,-0.03125,0.5625,0.4375,12.125,0.02148438,-0.0078125,-0.015625,-0.01953125,0.02734375,0,0.004272461,-0.004516602,0.1019287,0,0,0.1065674,0,4.077,0,0,0,0.09997559,nan,4,3.402,0,0,0,0,0,0,0,0,0,1,6,0
55.564,0.001023,-0.02539062,-0.01367188,-0.0078125,-0.65625,-0.3671875,6.484375,0.001953125,-0.0078125,-0.02539062,-0.01953125,0.02734375,0,0.004394531,-0.004638672,0.1016846,0,0,0.1065674,0,4.077,0,0,0,0.09997559,nan,4,3.412,0,0,0,0,0,0,0,0,0,1,6,0
55.574,0.001019,0.01171875,-0.015625,-0.02148438,-1.375,0.7890625,6.132812,0.005859375,0.001953125,-0.015625,-0.01953125,0.02734375,0,0.004272461,-0.004638672,0.1014404,0,0,0.1065674,0,4.077,0,0,0,0.09997559,nan,4,3.422,0,0,0,0,0,0,0,0,0,1,6,0
55.584,0.001007,0.05273438,0.0078125,0.015625,-0.8515625,-5.117188,13.27344,0.00390625,0.005859375,0.00390625,-0.01953125,0.02734375,0,0.004272461,-0.004638672,0.1014404,0,0,0.1065674,0,4.077,0,0,0,0.09997559,nan,4,3.432,0,0,0,0,0,0,0,0,0,1,6,0
55.593,0.000999,-0.03125,0.046875,0.001953125,-1.554688,0.296875,6.109375,-0.009765625,0.01757812,0.009765625,-0.01953125,0.02734375,0,0.004394531,-0.004638672,0.1014404,0,0,0.1065674,0,4.077,0,0,0,0.09997559,nan,4,3.441,0,0,0,0,0,0,0,0,0,1,6,0
55.603,0.001013,-0.0078125,-0.015625,-0.03710938,2.164062,2.453125,6.054688,0.00390625,-0.01367188,-0.009765625,-0.01953125,0.02734375,0,0.004394531,-0.004638672,0.1015625,0,0,0.1065674,0,4.077,0,0,0,0.09997559,nan,4,3.451,0,0,0,0,0,0,0,0,0,1,6,0
55.613,0.001006,0.01367188,-0.015625,0.01367188,1.164062,-3.039062,8.296875,0.0078125,-0.00390625,-0.001953125,-0.01953125,0.02734375,0,0.004272461,-0.004638672,0.1014404,0,0,0.1065674,0,4.077,0,0,0,0.09997559,nan,4,3.461,0,0,0,0,0,0,0,0,0,1,6,1
55.623,0.000999,0.0078125,0.03125,0.009765625,-2.320312,-3.359375,14.30469,0.0078125,0,-0.00390625,-0.01953125,0.02734375,0,0.004394531,-0.004638672,0.1014404,0,0,0.1065674,0,4.077,0,0,0,0.09997559,nan,4,3.471,0,0,0,0,0,0,0,0,0,1,6,0
55.633,0.001013,0.00390625,-0.04101562,0.00390625,0.4140625,-0.703125,9.117188,-0.001953125,-0.001953125,0.0078125,-0.01953125,0.02734375,0,0.004394531,-0.004638672,0.1014404,0,0,0.1065674,0,4.077,0,0,0,0.09997559,nan,4,3.481,0,0,0,0,0,0,0,0,0,1,6,1
55.644,0.001006,-0.03515625,-0.001953125,0,-0.765625,-2.765625,10.61719,-0.0078125,0,0.00390625,-0.01953125,0.02734375,0,0.004394531,-0.004638672,0.1014404,0,0,0.1065674,0,4.077,0,0,0,0.09997559,nan,4,3.491,0,0,0,0,0,0,0,0,0,1,6,0
55.654,0.000999,-0.02929688,0.01953125,0.01171875,-1.171875,-1.984375,11.21875,-0.005859375,0.00390625,0,-0.01953125,0.02734375,0,0.004394531,-0.004638672,0.1014404,0,0,0.1065674,0,4.077,0,0,0,0.09997559,nan,4,3.502,0,0,0,0,0,0,0,0,0,1,6,0
55.664,0.001,-0.015625,-0.015625,-0.01171875,1.554688,2.046875,9.75,-0.005859375,-0.0078125,0.005859375,-0.01953125,0.02734375,0,0.004394531,-0.004638672,0.1015625,0,0,0.1065674,0,4.077,0,0,0,0.09997559,nan,4,3.512,0,0,0,0,0,0,0,0,0,1,6,1
55.674,0.001006,-0.0546875,-0.02734375,-0.00390625,1.382812,-3.265625,9.648438,-0.01757812,-0.005859375,0.001953125,-0.01953125,0.02734375,0,0.004272461,-0.004638672,0.1015625,0,0,0.1065674,0,4.077,0,0,0,0.09997559,nan,4,3.522,0,0,0,0,0,0,0,0,0,1,6,1
55.683,0.001033,0.0625,-0.015625,-0.0234375,1.320312,4.375,8.984375,0.00390625,-0.0078125,-0.01367188,-0.01953125,0.02734375,0,0.004272461,-0.004638672,0.1015625,0,0,0.1065674,0,4.077,0,0,0,0.09997559,nan,4,3.531,0,0,0,0,0,0,0,0,0,1,6,1
55.693,0.000968,-0.015625,0.01953125,0.0234375,-1.101562,1.117188,9.867188,-0.001953125,-0.00390625,0.00390625,-0.01953125,0.02734375,0,0.004272461,-0.004638672,0.1014404,0,0,0.1065674,0,4.077,0,0,0,0,nan,4,0.009,0,0,0,0,0,0,0,0,0,1,6,1
55.703,0.001003,-0.05664062,-0.0234375,0.02148438,0.765625,-1.976562,9.828125,-0.015625,0.001953125,0.01367188,-0.01953125,0.02734375,0,0.004150391,-0.004638672,0.1015625,0,0,0.1065674,0,4.077,0,0,0,0,nan,4,0.019,0,0,0,0,0,0,0,0,0,1,6,1
55.713,0.001005,0.03710938,0.01953125,-0.009765625,-0.96875,-0.28125,10.38281,0.00390625,0.001953125,0,-0.01953125,0.02734375,0,0.004150391,-0.004760742,0.1016846,0,0,0.1065674,0,4.077,0,0,0,0,nan,4,0.029,0,0,0,0,0,0,0,0,0,1,6,1
55.724,0.001035,0.0390625,-0.08203125,-0.02148438,2.015625,1.375,8.5625,0.005859375,-0.005859375,-0.0078125,-0.01953125,0.02734375,0,0.004150391,-0.004760742,0.1015625,0,0,0.1065674,0,4.077,0,0,0,0,nan,4,0.002,0,0,0,0,0,0,0,0,0,1,6,1
55.734,0.001054,0.0234375,0.05273438,-0.00390625,-0.25,0.3359375,9.898438,0.005859375,0.005859375,0.001953125,nan,nan,nan,0.004150391,-0.004638672,0.1015625,0,0,0.1015625,0,4.077,0,0,0,0,nan,2,0.012,0,0,0,0,0,0,0,0,0,1,2,1
55.744,0.001009,0.03125,-0.03320312,-0.0078125,1.40625,0.765625,8.921875,0.0078125,-0.0078125,0,nan,nan,nan,0.00402832,-0.004638672,0.1015625,0,0,0.1015625,0,4.077,0,0,0,0,nan,2,0.022,0,0,0,0,0,0,0,0,0,1,2,1
55.754,0.000984,0.0390625,-0.03515625,-0.001953125,1.632812,-0.609375,8.351562,0.005859375,-0.005859375,0,nan,nan,nan,0.00402832,-0.004638672,0.1014404,0,0,0.1014404,0,4.077,0,0,0,0,nan,2,0.032,0,0,0,0,0,0,0,0,0,1,2,0
55.764,0.001007,0,0.0078125,0.02148438,0.1796875,-1.0625,9.460938,-0.009765625,0.005859375,0.0078125,nan,nan,nan,0.00402832,-0.004638672,0.1014404,0,0,0.1014404,0,4.077,0,0,0,0,nan,2,0.042,0,0,0,0,0,0,0,0,0,1,2,1
55.773,0.001015,-0.06054688,0.04492188,0.00390625,1.09375,0.390625,9.953125,0,0,0.00390625,nan,nan,nan,0.00402832,-0.004638672,0.1015625,0,0,0.1015625,0,4.077,0,0,0,0,nan,2,0.052,0,0,0,0,0,0,0,0,0,1,2,1
55.783,0.001013,0.03320312,-0.05273438,0.009765625,-0.1875,0.2890625,8.53125,0.0078125,-0.01367188,0.001953125,nan,nan,nan,0.00402832,-0.004638672,0.1015625,0,0,0.1015625,0,4.077,0,0,0,0,nan,2,0.062,0,0,0,0,0,0,0,0,0,1,2,0
55.793,0.001012,0.01171875,-0.01171875,-0.01367188,0.0703125,-0.3046875,9.789062,0,0.001953125,-0.005859375,nan,nan,nan,0.00390625,-0.004638672,0.1014404,0,0,0.1014404,0,4.077,0,0,0,0,nan,2,0.072,0,0,0,0,0,0,0,0,0,1,2,1
55.803,0.001011,0.01171875,-0.01171875,0.02148438,0.078125,0.046875,9.15625,-0.0078125,-0.001953125,0.005859375,nan,nan,nan,0.00390625,-0.004516602,0.1015625,0,0,0.1015625,0,4.077,0,0,0,0,nan,2,0.082,0,0,0,0,0,0,0,0,0,1,2,1
55.813,0.001012,-0.02734375,0.001953125,-0.01757812,-0.1484375,-0.2421875,9.84375,0.00390625,0.001953125,-0.00390625,nan,nan,nan,0.00390625,-0.004516602,0.1015625,0,0,0.1015625,0,4.077,0,0,0,0,nan,2,0.092,0,0,0,0,0,0,0,0,0,1,2,1
55.823,0.001011,-0.001953125,0.001953125,-0.0234375,0.421875,0.53125,9.84375,-0.00390625,-0.001953125,-0.0078125,nan,nan,nan,0.00390625,-0.004516602,0.1014404,0,0,0.1014404,0,4.077,0,0,0,0,nan,2,0.102,0,0,0,0,0,0,0,0,0,1,2,1
55.834,0.001012,-0.01367188,-0.0078125,0.015625,-0.2421875,-0.1796875,9.617188,0,-0.005859375,0.01171875,nan,nan,nan,0.00390625,-0.004516602,0.1015625,0,0,0.1015625,0,4.077,0,0,0,0,nan,2,0.112,0,0,0,0,0,0,0,0,0,1,2,1
55.844,0.000923,0.0078125,-0.01171875,-0.015625,-0.0234375,0.5703125,9.40625,0.001953125,-0.00390625,-0.001953125,nan,nan,nan,0.00390625,-0.004516602,0.1015625,0,0,0.1015625,0,4.077,0,0,0,0,nan,2,0.122,0,0,0,0,0,0,0,0,0,1,2,1
55.854,0.000996,0.0234375,-0.015625,0.01171875,0,0.078125,10.03125,0.00390625,-0.001953125,-0.001953125,nan,nan,nan,0.00390625,-0.004516602,0.1014404,0,0,0.1014404,0,4.077,0,0,0,0,nan,2,0.132,0,0,0,0,0,0,0,0,0,1,2,1
55.864,0.001007,0.01757812,0,0.0234375,-0.0078125,-0.0703125,9.984375,0,-0.001953125,0.00390625,nan,nan,nan,0.00390625,-0.004516602,0.1014404,0,0,0.1014404,0,4.077,0,0,0,0,nan,2,0.142,0,0,0,0,0,0,0,0,0,1,2,1
55.873,0.001029,0.005859375,0.00390625,0.01757812,-0.1015625,0.0625,9.882812,0,-0.001953125,0,nan,nan,nan,0.00390625,-0.004516602,0.1014404,0,0,0.1014404,0,4.077,0,0,0,0,nan,2,0.152,0,0,0,0,0,0,0,0,0,1,2,1
55.883,0.00105,-0.005859375,-0.00390625,0.005859375,-0.0078125,0.1640625,9.84375,0.001953125,-0.001953125,-0.001953125,nan,nan,nan,0.00390625,-0.004516602,0.1014404,0,0,0.1014404,0,4.077,0,0,0,0,nan,2,0.162,0,0,0,0,0,0,0,0,0,1,2,1
55.893,0.001016,-0.009765625,-0.00390625,-0.01953125,0.0703125,-0.046875,9.34375,-0.001953125,0,-0.009765625,nan,nan,nan,0.00390625,-0.004516602,0.1014404,0,0,0.1014404,0,4.077,0,0,0,0,nan,2,0.172,0,0,0,0,0,0,0,0,0,1,2,1
55.903,0.001027,0,-0.001953125,-0.009765625,-0.1171875,-0.046875,9.734375,0,-0.001953125,-0.001953125,nan,nan,nan,0.00390625,-0.004516602,0.1014404,0,0,0.1014404,0,4.077,0,0,0,0,nan,2,0.182,0,0,0,0,0,0,0,0,0,1,2,1
55.914,0.001056,-0.001953125,-0.005859375,-0.001953125,0.046875,0.1015625,10.13281,-0.001953125,-0.00390625,-0.001953125,nan,nan,nan,0.00378418,-0.004516602,0.1014404,0,0,0.1014404,0,4.077,0,0,0,0,nan,2,0.192,0,0,0,0,0,0,0,0,0,1,2,1
55.923,0.001014,0.001953125,0.00390625,0.0078125,0.3125,0.0625,9.789062,0,0.001953125,0.00390625,nan,nan,nan,0.00378418,-0.004516602,0.1014404,0,0,0.1014404,0,4.077,0,0,0,0,nan,2,0.202,0,0,0,0,0,0,0,0,0,1,2,1
55.934,0.000983,-0.001953125,0.001953125,0.01171875,-0.2109375,0.0078125,10.05469,-0.00390625,-0.00390625,0.001953125,nan,nan,nan,0.00378418,-0.004516602,0.1014404,0,0,0.1014404,0,4.077,0,0,0,0,nan,2,0.212,0,0,0,0,0,0,0,0,0,1,2,1
55.944,0.000975,-0.001953125,-0.005859375,-0.015625,0.359375,-0.03125,9.867188,0.001953125,0,-0.001953125,nan,nan,nan,0.00378418,-0.004516602,0.1015625,0,0,0.1015625,0,4.077,0,0,0,0,nan,2,0.222,0,0,0,0,0,0,0,0,0,1,2,1
55.954,0.00102,-0.001953125,-0.001953125,0.001953125,-0.09375,0.28125,9.640625,-0.00390625,-0.00390625,0,nan,nan,nan,0.00378418,-0.004516602,0.1014404,0,0,0.1014404,0,4.077,0,0,0,0,nan,2,0.232,0,0,0,0,0,0,0,0,0,1,2,1
55.963,0.001017,0.00390625,-0.00390625,0.001953125,0.28125,-0.0625,9.75,0.00390625,0.001953125,0.001953125,nan,nan,nan,0.00378418,-0.004516602,0.1014404,0,0,0.1014404,0,4.077,0,0,0,0,nan,2,0.241,0,0,0,0,0,0,0,0,0,1,2,1
55.973,0.0009869999,0,-0.00390625,-0.0078125,-0.140625,-0.015625,9.796875,-0.001953125,-0.00390625,-0.005859375,nan,nan,nan,0.00378418,-0.004516602,0.1014404,0,0,0.1014404,0,4.077,0,0,0,0,nan,2,0.252,0,0,0,0,0,0,0,0,0,1,2,1
55.983,0.001011,0.00390625,-0.001953125,0.01171875,0.15625,-0.046875,9.789062,0.001953125,0.001953125,0.001953125,nan,nan,nan,0.00378418,-0.004516602,0.1014404,0,0,0.1014404,0,4.077,0,0,0,0,nan,2,0.262,0,0,0,0,0,0,0,0,0,1,2,1
55.993,0.001007,-0.00390625,-0.001953125,-0.0078125,-0.1484375,0.0234375,9.8125,0,-0.00390625,0,nan,nan,nan,0.00378418,-0.004516602,0.1014404,0,0,0.1014404,0,4.077,0,0,0,0,nan,2,0.272,0,0,0,0,0,0,0,0,0,1,2,1
56.003,0.001007,-0.00390625,0.00390625,0.001953125,0.140625,-0.0390625,9.78125,0,0.001953125,-0.001953125,nan,nan,nan,0.00378418,-0.004516602,0.1014404,0,0,0.1014404,0,4.077,0,0,0,0,nan,2,0.282,0,0,0,0,0,0,0,0,0,1,2,1
56.013,0.001007,-0.00390625,0,0,-0.078125,0.078125,9.78125,-0.001953125,-0.001953125,0.001953125,nan,nan,nan,0.00378418,-0.004516602,0.1014404,0,0,0.1014404,0,4.077,0,0,0,0,nan,2,0.292,0,0,0,0,0,0,0,0,0,1,2,1
56.023,0.001007,-0.001953125,-0.001953125,-0.001953125,0.0859375,-0.0234375,9.890625,-0.001953125,0.001953125,-0.001953125,nan,nan,nan,0.00378418,-0.004394531,0.1014404,0,0,0.1014404,0,4.077,0,0,0,0,nan,2,0.302,0,0,0,0,0,0,0,0,0,1,2,1
56.034,0.001007,-0.001953125,0.005859375,0.00390625,-0.0234375,0.0234375,9.789062,0,0.001953125,0.001953125,nan,nan,nan,0.003662109,-0.004394531,0.1014404,0,0,0.1014404,0,4.077,0,0,0,0,nan,2,0.312,0,0,0,0,0,0,0,0,0,1,2,1
56.044,0.000998,-0.005859375,-0.001953125,-0.001953125,0.046875,0.03125,9.835938,-0.001953125,0,0,nan,nan,nan,0.003662109,-0.004394531,0.1014404,0,0,0.1014404,0,4.077,0,0,0,0,nan,2,0.322,0,0,0,0,0,0,0,0,0,1,2,1
56.054,0.000956,-0.00390625,0,-0.00390625,-0.015625,0.078125,9.8125,-0.001953125,0,0,nan,nan,nan,0.003662109,-0.004394531,0.1014404,0,0,0.1014404,0,4.077,0,0,0,0,nan,2,0.332,0,0,0,0,0,0,0,0,0,1,2,1
56.064,0.001002,-0.001953125,0.001953125,0.001953125,0.046875,0.046875,9.835938,0,0,0,nan,nan,nan,0.003662109,-0.004394531,0.1014404,0,0,0.1014404,0,4.077,0,0,0,0,nan,2,0.342,0,0,0,0,0,0,0,0,0,1,2,1
56.073,0.001016,0,-0.001953125,0,-0.03125,0.0625,9.820312,0,-0.001953125,0,nan,nan,nan,0.003662109,-0.004394531,0.1014404,0,0,0.1014404,0,4.077,0,0,0,0,nan,2,0.352,0,0,0,0,0,0,0,0,0,1,2,1
56.083,0.001007,0.005859375,0,0.001953125,-0.03125,0.015625,9.867188,0.001953125,0,0,nan,nan,nan,0.003662109,-0.004394531,0.1014404,0,0,0.1014404,0,4.077,0,0,0,0,nan,2,0.362,0,0,0,0,0,0,0,0,0,1,2,1
56.093,0.001018,0.001953125,0.001953125,-0.001953125,0.0390625,0.046875,9.8125,0,0.001953125,0,nan,nan,nan,0.003662109,-0.004394531,0.1014404,0,0,0.1014404,0,4.077,0,0,0,0,nan,2,0.372,0,0,0,0,0,0,0,0,0,1,2,1
56.103,0.001013,-0.00390625,-0.001953125,0,0.0078125,-0.0078125,9.8125,-0.001953125,0,0,nan,nan,nan,0.003662109,-0.004394531,0.1014404,0,0,0.1014404,0,4.077,0,0,0,0,nan,2,0.382,0,0,0,0,0,0,0,0,0,1,2,1
56.113,0.001011,0,0,0,0.0078125,0.03125,9.789062,0,0,0,nan,nan,nan,0.003540039,-0.004394531,0.1014404,0,0,0.1014404,0,4.077,0,0,0,0,nan,2,0.392,0,0,0,0,0,0,0,0,0,1,2,1
56.124,0.001051,-0.00390625,0.001953125,-0.001953125,0.015625,0,9.835938,-0.001953125,0,0,nan,nan,nan,0.003540039,-0.004272461,0.1014404,0,0,0.1014404,0,4.077,0,0,0,0,nan,2,0.402,0,0,0,0,0,0,0,0,0,1,2,1
56.134,0.001013,0,0.001953125,0.001953125,0.0234375,-0.015625,9.859375,0,0.001953125,0,nan,nan,nan,0.003540039,-0.004272461,0.1014404,0,0,0.1014404,0,4.077,0,0,0,0,nan,2,0.412,0,0,0,0,0,0,0,0,0,1,2,1
56.144,0.001014,-0.001953125,0,0,0.03125,0.03125,9.820312,-0.001953125,0,0.001953125,nan,nan,nan,0.003540039,-0.004272461,0.1014404,0,0,0.1014404,0,4.077,0,0,0,0,nan,2,0.422,0,0,0,0,0,0,0,0,0,1,2,1
56.154,0.001013,-0.001953125,-0.00390625,-0.001953125,0.03125,0.0078125,9.8125,0,-0.001953125,0,nan,nan,nan,0.003540039,-0.004272461,0.1014404,0,0,0.1014404,0,4.077,0,0,0,0,nan,2,0.432,0,0,0,0,0,0,0,0,0,1,2,1
56.164,0.001013,0.001953125,0,-0.001953125,0.046875,0.0234375,9.820312,0,0,0,nan,nan,nan,0.003540039,-0.004272461,0.1014404,0,0,0.1014404,0,4.077,0,0,0,0,nan,2,0.442,0,0,0,0,0,0,0,0,0,1,2,1
56.174,0.001012,-0.001953125,-0.001953125,0,0.0078125,0.0234375,9.867188,0,0,0,nan,nan,nan,0.003540039,-0.004272461,0.1014404,0,0,0.1014404,0,4.077,0,0,0,0,nan,2,0.453,0,0,0,0,0,0,0,0,0,1,2,1
56.183,0.001006,-0.001953125,0.00390625,0,0.03125,0,9.804688,-0.001953125,0,0,nan,nan,nan,0.003540039,-0.004272461,0.1014404,0,0,0.1014404,0,4.077,0,0,0,0,nan,2,0.462,0,0,0,0,0,0,0,0,0,1,2,1
56.193,0.001,0,0,0,0,0,9.84375,-0.001953125,0,0,nan,nan,nan,0.003540039,-0.004272461,0.1014404,0,0,0.1014404,0,4.077,0,0,0,0,nan,2,0.472,0,0,0,0,0,0,0,0,0,1,2,1
56.203,0.001001,0,-0.001953125,0.001953125,0.03125,0.0078125,9.820312,0,0,0.001953125,nan,nan,nan,0.003417969,-0.004150391,0.1014404,0,0,0.1014404,0,4.077,0,0,0,0,nan,2,0.482,0,0,0,0,0,0,0,0,0,1,2,1
56.213,0.001002,0.00390625,-0.001953125,0,0.0078125,0,9.789062,0,0,0,nan,nan,nan,0.003417969,-0.004150391,0.1014404,0,0,0.1014404,0,4.077,0,0,0,0,nan,2,0.492,0,0,0,0,0,0,0,0,0,1,2,1
56.223,0.001001,0,0,0.001953125,0.015625,-0.0078125,9.820312,0,0,0,nan,nan,nan,0.003417969,-0.004150391,0.1014404,0,0,0.1014404,0,4.077,0,0,0,0,nan,2,0.502,0,0,0,0,0,0,0,0,0,1,2,1
56.234,0.001003,0.001953125,-0.001953125,0.001953125,0.03125,0,9.8125,0,0,0,nan,nan,nan,0.003417969,-0.004150391,0.1014404,0,0,0.1014404,0,4.077,0,0,0,0,nan,2,0.512,0,0,0,0,0,0,0,0,0,1,2,1
56.244,0.001014,-0.001953125,0,0.001953125,0.0078125,0.0390625,9.765625,-0.001953125,-0.001953125,0,nan,nan,nan,0.003417969,-0.004150391,0.1014404,0,0,0.1014404,0,4.077,0,0,0,0,nan,2,0.522,0,0,0,0,0,0,0,0,0,1,2,1
56.254,0.001003,-0.001953125,-0.001953125,0.001953125,0.0390625,0,9.859375,0,0,0,nan,nan,nan,0.003417969,-0.004150391,0.1014404,0,0,0.1014404,0,4.077,0,0,0,0,nan,2,0.532,0,0,0,0,0,0,0,0,0,1,2,1
56.264,0.00101,-0.00390625,-0.001953125,0,0.046875,0.03125,9.765625,0,0,0,nan,nan,nan,0.003417969,-0.004150391,0.1014404,0,0,0.1014404,0,4.077,0,0,0,0,nan,2,0.542,0,0,0,0,0,0,0,0,0,1,2,1
56.273,0.001011,0,-0.001953125,0,-0.015625,0.0390625,9.804688,0,-0.001953125,0,nan,nan,nan,0.003417969,-0.004150391,0.1014404,0,0,0.1014404,0,4.077,0,0,0,0,nan,2,0.551,0,0,0,0,0,0,0,0,0,1,2,1
56.283,0.001017,-0.001953125,-0.00390625,-0.001953125,0.0078125,0.046875,9.8125,0,-0.001953125,0,nan,nan,nan,0.003417969,-0.004150391,0.1014404,0,0,0.1014404,0,4.077,0,0,0,0,nan,2,0.562,0,0,0,0,0,0,0,0,0,1,2,1
56.293,0.001018,-0.001953125,-0.00390625,0.001953125,0.046875,0.0390625,9.8125,0,-0.001953125,-0.001953125,nan,nan,nan,0.003417969,-0.004150391,0.1014404,0,0,0.1014404,0,4.077,0,0,0,0,nan,2,0.572,0,0,0,0,0,0,0,0,0,1,2,1
56.303,0.001019,-0.001953125,0.00390625,0,0.0546875,0.03125,9.796875,0,0.001953125,0,nan,nan,nan,0.003417969,-0.004150391,0.1014404,0,0,0.1014404,0,4.077,0,0,0,0,nan,2,0.582,0,0,0,0,0,0,0,0,0,1,2,1
56.313,0.001018,-0.001953125,0,-0.001953125,0.046875,0.015625,9.796875,-0.001953125,0,-0.001953125,nan,nan,nan,0.003295898,-0.004150391,0.1014404,0,0,0.1014404,0,4.077,0,0,0,0,nan,2,0.592,0,0,0,0,0,0,0,0,0,1,2,1
56.323,0.001019,0.00390625,0.00390625,0.001953125,0,-0.015625,9.835938,0,0.001953125,0,nan,nan,nan,0.003295898,-0.004150391,0.1014404,0,0,0.1014404,0,4.077,0,0,0,0,nan,2,0.602,0,0,0,0,0,0,0,0,0,1,2,1
56.334,0.001018,0,0,0.001953125,0.0078125,-0.015625,9.828125,0.001953125,0,0,nan,nan,nan,0.003295898,-0.004150391,0.1014404,0,0,0.1014404,0,4.077,0,0,0,0,nan,2,0.612,0,0,0,0,0,0,0,0,0,1,2,1
56.346,0.002628,-0.001953125,0.00390625,-0.00390625,-0.015625,0.015625,9.84375,0,0.001953125,-0.001953125,nan,nan,nan,0.003295898,-0.004150391,0.1014404,0,0,0.1014404,0,4.077,0,0,0,0,nan,2,0.624,0,0,0,0,0,0,0,0,0,1,2,1
56.353,0.001013,-0.001953125,0,0,0.0078125,0.0390625,9.851562,-0.001953125,0,-0.001953125,nan,nan,nan,0.003295898,-0.004150391,0.1014404,0,0,0.1014404,0,4.077,0,0,0,0,nan,2,0.632,0,0,0,0,0,0,0,0,0,1,2,1
