t,dt_s,gyro_x,gyro_y,gyro_z,acc_x,acc_y,acc_z,rates.x,rates.y,rates.z,ratesTarget.x,ratesTarget.y,ratesTarget.z,attitude.x,attitude.y,attitude.z,attitudeTarget.x,attitudeTarget.y,attitudeTarget.z,thrustTarget,battery_v,rc_roll,rc_pitch,rc_yaw,rc_throttle,rc_mode,flight_mode,rc_age_s,armed,fault_mask,motor_rl,motor_rr,motor_fr,motor_fl,rate_i_x,rate_i_y,rate_i_z,mix_scale,control_source,accel_correction_confidence
144.812,0.001043,-0.01171875,-0.03515625,-0.09960938,2.28125,-2.382812,4.351562,-0.046875,-0.01171875,-0.09765625,0.06835938,0.04492188,0,-0.01159668,-0.007446289,0.03100586,0,0,-0.007568359,0.3105164,4.034,0,0,0,0.2999878,nan,2,9.491,1,0,0.3686218,0.3045959,0.1789246,0.3899536,0.05859375,0.01757812,0,1,3,0
144.822,0.001006,-0.0390625,0.06054688,-0.08398438,-1.398438,5.101562,13.64844,-0.04296875,0.0078125,-0.08007812,0.0703125,0.04492188,0,-0.01171875,-0.007446289,0.0300293,0,0,-0.007568359,0.3105164,4.034,0,0,0,0.2999878,nan,2,9.501,1,0,0.3832703,0.2738342,0.2093506,0.3756714,0.05859375,0.01757812,0,1,3,0
144.832,0.00101,0.05273438,0.08007812,-0.04101562,0.3203125,-4.179688,7.132812,0.01953125,0.015625,-0.06835938,0.07226562,0.04492188,0,-0.01196289,-0.007446289,0.02929688,0,0,-0.007568359,0.3105164,4.034,0,0,0,0.2999878,nan,2,9.511,1,0,0.3796692,0.2733154,0.2384033,0.3507385,0.05859375,0.01757812,0,1,3,0
144.841,0.001013,0,0.00390625,-0.03125,-0.015625,2.101562,13.10156,-0.01757812,0.02734375,-0.04492188,0.07226562,0.04296875,0,-0.01196289,-0.007324219,0.02880859,0,0,-0.007568359,0.3105164,4.034,0,0,0,0.2999878,nan,2,9.52,1,0,0.4055176,0.2472839,0.2408447,0.3484192,0.05859375,0.01757812,0,1,3,0
144.852,0.00101,-0.02148438,-0.06445312,-0.00390625,-1.742188,0.1640625,11.36719,0.02734375,-0.0078125,-0.02148438,0.07226562,0.04296875,0,-0.01196289,-0.007324219,0.02844238,0,0,-0.007568359,0.3105164,4.034,0,0,0,0.2999878,nan,2,9.53,1,0,0.4277954,0.2425232,0.2633362,0.3084717,0.05859375,0.01757812,0,1,3,0
144.862,0.000976,0.04296875,-0.1132812,-0.0078125,1.632812,-2.546875,4.148438,0.005859375,-0.0390625,-0.01171875,0.07226562,0.04296875,0,-0.01184082,-0.007324219,0.02819824,0,0,-0.007568359,0.3105164,4.034,0,0,0,0.2999878,nan,2,9.54,1,0,0.4238586,0.2593384,0.2391052,0.3197937,0.05859375,0.01757812,0,1,3,0
144.872,0.00099,0.01953125,-0.03125,-0.0078125,1.4375,2.476562,11.14062,0.02539062,-0.05078125,0.015625,0.06835938,0.04492188,0,-0.01147461,-0.007568359,0.02832031,0,0,-0.007568359,0.3105164,4.034,0,0,0,0.2999878,nan,2,9.551,1,0,0.4150391,0.2656555,0.2285461,0.3328247,0.05859375,0.01757812,0,1,3,0
144.882,0.00101,-0.02539062,0.01953125,0.04882812,-2.28125,1.117188,13.77344,0.0546875,-0.009765625,0.05273438,0.06445312,0.046875,0,-0.01074219,-0.00769043,0.02868652,0,0,-0.007568359,0.3105164,4.034,0,0,0,0.2999878,nan,2,9.561,1,0,0.4292297,0.2314148,0.2612,0.320282,0.05859375,0.01757812,0,1,3,0
144.892,0.00101,0.09960938,0.03320312,0.02734375,-2.34375,2.328125,10.99219,0.04882812,0.015625,0.03710938,0.0625,0.046875,0,-0.01049805,-0.00769043,0.0291748,0,0,-0.007568359,0.3105164,4.034,0,0,0,0.2999878,nan,2,9.571,1,0,0.3759766,0.2758179,0.2363586,0.3539429,0.05859375,0.01757812,0,1,3,0
144.902,0.00101,-0.2167969,0.08203125,-0.1015625,-0.40625,-3.90625,8.21875,-0.01953125,0.02734375,-0.03515625,0.0625,0.04492188,0,-0.01037598,-0.007568359,0.0291748,0,0,-0.007568359,0.3105164,4.034,0,0,0,0.2999878,nan,2,9.581,1,0,0.3064575,0.3453064,0.1306763,0.4596863,0.05859375,0.01757812,0,1,3,0
144.912,0.001016,-0.0390625,-0.03710938,-0.01953125,1.835938,-4.585938,6.226562,-0.04101562,0,-0.02929688,0.06640625,0.04492188,0,-0.0111084,-0.007324219,0.02880859,0,0,-0.007568359,0.3105164,4.034,0,0,0,0.2999878,nan,2,9.591,1,0,0.4013977,0.269043,0.2268677,0.3447876,0.05957031,0.01855469,0,1,3,0
144.922,0.001022,-0.00390625,-0.04296875,0.01367188,1.359375,1.757812,11.47656,0.01171875,-0.015625,-0.001953125,0.06835938,0.04492188,0,-0.01123047,-0.007446289,0.02868652,0,0,-0.007568359,0.3105164,4.034,0,0,0,0.2999878,nan,2,9.601,1,0,0.413208,0.2572327,0.245575,0.3261108,0.05957031,0.01855469,0,1,3,0
144.931,0.001074,0.03515625,-0.01367188,-0.0078125,-0.8359375,4.476562,13.00781,0.009765625,-0.01953125,0.01367188,0.06640625,0.04492188,0,-0.01098633,-0.007568359,0.02880859,0,0,-0.007568359,0.3105164,4.034,0,0,0,0.2999878,nan,2,9.61,1,0,0.3981323,0.2688293,0.224762,0.3504028,0.05957031,0.01855469,0,1,3,0
144.942,0.00101,-0.1171875,0.0625,-0.03125,-0.5703125,-3.8125,8.734375,-0.0703125,0.02734375,-0.01367188,0.06835938,0.04492188,0,-0.01159668,-0.00769043,0.02880859,0,0,-0.007568359,0.3105164,4.034,0,0,0,0.2999878,nan,2,9.621,1,0,0.362915,0.2842102,0.1913757,0.403595,0.05957031,0.01855469,0,1,3,0.1269841
144.951,0.00101,0.0859375,-0.001953125,-0.009765625,0.6328125,-3.804688,4.992188,-0.02929688,0.02539062,-0.0390625,0.07421875,0.04492188,0,-0.01220703,-0.007568359,0.02856445,0,0,-0.007568359,0.3105164,4.034,0,0,0,0.2999878,nan,2,9.63,1,0,0.3633118,0.2930298,0.2135925,0.3721619,0.05957031,0.01855469,0,1,3,0
144.961,0.00101,0.02539062,-0.00390625,-0.01953125,1.125,1.71875,10.40625,0.02734375,-0.009765625,-0.02734375,0.07226562,0.04492188,0,-0.01208496,-0.007568359,0.02807617,0,0,-0.007568359,0.3105164,4.034,0,0,0,0.2999878,nan,2,9.64,1,0,0.4014893,0.2668457,0.239624,0.334137,0.05957031,0.01855469,0,1,3,0
144.972,0.00101,-0.01367188,0.03710938,-0.04492188,-2.125,2.070312,11.95312,0.0234375,-0.015625,-0.02539062,0.0703125,0.046875,0,-0.01159668,-0.0078125,0.02783203,0,0,-0.007568359,0.3105164,4.034,0,0,0,0.2999878,nan,2,9.651,1,0,0.3902893,0.2729187,0.2147827,0.3641052,0.05957031,0.01855469,0,1,3,0
144.982,0.00101,-0.05078125,0.01757812,-0.01757812,1.632812,-4.15625,4.359375,-0.05078125,-0.01171875,-0.00390625,0.0703125,0.046875,0,-0.01171875,-0.0078125,0.02783203,0,0,-0.007568359,0.3105164,4.034,0,0,0,0.2999878,nan,2,9.661,1,0,0.4159241,0.2524414,0.216095,0.3576355,0.05957031,0.01855469,0,1,3,0
144.992,0.001057,0.05859375,-0.06640625,0.04296875,2.257812,1.296875,11.44531,-0.015625,-0.01367188,0.01953125,0.07226562,0.04492188,0,-0.01220703,-0.007324219,0.02770996,0,0,-0.007568359,0.3105164,4.034,0,0,0,0.2999878,nan,2,9.671,1,0,0.4547729,0.2284546,0.2735291,0.2853394,0.05957031,0.01855469,0,1,3,0
145.002,0.001051,-0.00390625,0.08984375,0.04296875,-2.59375,3.601562,13.67969,-0.03320312,0.04296875,0.03710938,0.07421875,0.04296875,0,-0.01220703,-0.007202148,0.0279541,0,0,-0.007568359,0.3105164,4.034,0,0,0,0.2999878,nan,2,9.681,1,0,0.4317932,0.216095,0.2676086,0.3265991,0.05957031,0.01855469,0,1,3,0
145.012,0.000984,0.03320312,0.02148438,-0.009765625,-1.539062,-5.070312,5.359375,0.015625,0.04101562,0,0.07421875,0.04101562,0,-0.01220703,-0.006835938,0.02819824,0,0,-0.007568359,0.3105164,4.034,0,0,0,0.2999878,nan,2,9.691,1,0,0.3568726,0.2988586,0.2032776,0.3830872,0.05957031,0.01855469,0,1,3,0
145.022,0.001039,0.04296875,0.009765625,0.001953125,2.40625,-1.195312,6.320312,0.02929688,0.015625,-0.0078125,0.07226562,0.0390625,0,-0.01220703,-0.006469727,0.0279541,0,0,-0.007568359,0.3105164,4.034,0,0,0,0.2999878,nan,2,9.701,1,0,0.3987732,0.2668762,0.2358093,0.3406372,0.05957031,0.01855469,0,1,3,0
145.031,0.001078,-0.1816406,-0.02929688,0.01953125,1.289062,0.8671875,12.25781,-0.08007812,-0.005859375,0.005859375,0.07226562,0.0390625,0,-0.01208496,-0.006469727,0.0279541,0,0,-0.007568359,0.3105164,4.034,0,0,0,0.2999878,nan,2,9.71,1,0,0.4388733,0.2303162,0.2198486,0.3530884,0.06054688,0.01855469,0,1,3,0
145.041,0.001015,-0.03515625,0.04882812,0.005859375,-1.929688,-0.2265625,8.601562,0.02929688,0.01367188,0.015625,0.07226562,0.0390625,0,-0.01208496,-0.006469727,0.02807617,0,0,-0.007568359,0.3105164,4.034,0,0,0,0.2999878,nan,2,9.72,1,0,0.401062,0.2554321,0.2456055,0.3400269,0.06054688,0.01855469,0,1,3,0
145.051,0.000991,-0.01367188,0.05078125,-0.03320312,-0.0546875,-3.648438,4.132812,0.0234375,0.04882812,-0.01953125,0.0703125,0.03515625,0,-0.01184082,-0.005859375,0.02807617,0,0,-0.007568359,0.3105164,4.034,0,0,0,0.2999878,nan,2,9.73,1,0,0.3567505,0.3016968,0.1932678,0.3904114,0.06054688,0.01855469,0,1,3,0
145.062,0.001065,-0.02929688,-0.05078125,-0.00390625,2.34375,1.960938,13.53125,0.01953125,0.001953125,-0.009765625,0.0703125,0.03125,0,-0.01159668,-0.005249023,0.02783203,0,0,-0.007568359,0.3105164,4.034,0,0,0,0.2999878,nan,2,9.74,1,0,0.4138794,0.2688599,0.2203979,0.3389587,0.06054688,0.01855469,0,1,3,0
145.072,0.001146,0.07226562,-0.02148438,0.015625,-2.257812,3.132812,12.52344,0.0390625,0.0078125,-0.02734375,0.06835938,0.03125,0,-0.01159668,-0.005126953,0.02758789,0,0,-0.007568359,0.3105164,4.034,0,0,0,0.2999878,nan,2,9.751,1,0,0.3946838,0.2689514,0.2393799,0.3390808,0.06054688,0.01855469,0,1,3,0
145.082,0.001029,-0.015625,-0.07226562,0.05664062,-0.078125,-2.929688,8.679688,0.0234375,-0.01171875,0.01367188,0.06640625,0.03125,0,-0.0111084,-0.005249023,0.02746582,0,0,-0.007568359,0.3105164,4.034,0,0,0,0.2999878,nan,2,9.761,1,0,0.4546204,0.212616,0.2760925,0.2987671,0.06054688,0.01855469,0,1,3,0
145.092,0.001037,-0.03320312,-0.04101562,0.0859375,1.671875,-4.148438,7.585938,-0.0625,-0.01757812,0.03125,0.06835938,0.03320312,0,-0.01147461,-0.005615234,0.02758789,0,0,-0.007568359,0.3105164,4.034,0,0,0,0.2999878,nan,2,9.771,1,0,0.4555664,0.2055969,0.265625,0.3153381,0.06054688,0.01855469,0,1,3,0
145.102,0.000943,0.1386719,-0.1132812,0.0546875,0.8125,1.789062,10.45312,0.07421875,-0.015625,0.0546875,0.0703125,0.03320312,0,-0.01159668,-0.005615234,0.02819824,0,0,-0.007568359,0.3105164,4.034,0,0,0,0.2999878,nan,2,9.781,1,0,0.4017334,0.2688599,0.2658691,0.3056335,0.06054688,0.01855469,0,1,3,0
145.111,0.001187,0.046875,0.02929688,0.015625,0.015625,2.484375,11.35938,-0.009765625,0.005859375,0.04492188,0.0703125,0.03320312,0,-0.01159668,-0.005737305,0.02868652,0,0,-0.007568359,0.3105164,4.034,0,0,0,0.2999878,nan,2,9.79,1,0,0.3855286,0.2725525,0.2150574,0.3689575,0.06054688,0.01855469,0,1,3,0
145.121,0.001189,0.07617188,0.0078125,0.04296875,-1.960938,5.1875,14.38281,0.02148438,-0.001953125,0.03710938,0.0703125,0.03320312,0,-0.01159668,-0.005615234,0.02905273,0,0,-0.007568359,0.3105164,4.034,0,0,0,0.2999878,nan,2,9.8,1,0,0.4052429,0.259491,0.2415771,0.3358154,0.06054688,0.01855469,0,1,3,0
145.131,0.001023,0.08398438,-0.1015625,0.0859375,-0.0859375,-1.445312,8.25,0.0625,-0.02734375,0.06445312,0.06835938,0.03515625,0,-0.01135254,-0.005737305,0.02954102,0,0,-0.007568359,0.3105164,4.034,0,0,0,0.2999878,nan,2,9.81,1,0,0.4484253,0.2263489,0.2887573,0.278595,0.06054688,0.01855469,0,1,3,0
145.141,0.001022,-0.03515625,-0.03125,0.02148438,1.445312,-3.335938,10.75,-0.0078125,0.0078125,0.03515625,0.06640625,0.03515625,0,-0.0111084,-0.005859375,0.0300293,0,0,-0.007568359,0.3105164,4.034,0,0,0,0.2999878,nan,2,9.82,1,0,0.3778992,0.2785034,0.2012939,0.3843994,0.06054688,0.01855469,0,1,3,0
145.151,0.001023,-0.0546875,0.009765625,0.009765625,1.90625,-1.664062,6.835938,0.005859375,-0.01367188,0.02148438,0.06640625,0.03515625,0,-0.0111084,-0.005981445,0.03039551,0,0,-0.007568359,0.3105164,4.034,0,0,0,0.2999878,nan,2,9.83,1,0,0.3824158,0.2828979,0.2063293,0.3704529,0.06054688,0.01855469,0,1,3,0
145.162,0.001023,-0.1777344,0.01367188,0.03320312,1.421875,-0.90625,6.710938,-0.05859375,0.009765625,0.01367188,0.06640625,0.03515625,0,-0.0111084,-0.005981445,0.03051758,0,0,-0.007568359,0.3105164,4.034,0,0,0,0.2999878,nan,2,9.84,1,0,0.4073792,0.2478943,0.2105103,0.3763123,0.06054688,0.01855469,0,1,3,0
145.172,0.001023,0.04882812,0.02539062,0.04296875,-0.75,4.03125,13.15625,0.04492188,-0.0078125,0.0390625,0.06640625,0.03710938,0,-0.01123047,-0.006103516,0.03088379,0,0,-0.007568359,0.3105164,4.034,0,0,0,0.2999878,nan,2,9.851,1,0,0.4109497,0.2523193,0.2608337,0.3179626,0.06054688,0.01855469,0,1,3,0
145.182,0.001023,0.0234375,-0.02539062,-0.03125,-2.109375,3.882812,13.82031,0.0390625,0,-0.00390625,0.06445312,0.03710938,0,-0.01086426,-0.006103516,0.03112793,0,0,-0.007568359,0.3105164,4.034,0,0,0,0.2999878,nan,2,9.861,1,0,0.3387756,0.3243408,0.1753845,0.4035645,0.06054688,0.01855469,0,1,3,0
145.192,0.001022,0.0625,0.0625,-0.01757812,-0.375,-2.78125,8.210938,0.04882812,0.03515625,0,0.06445312,0.03515625,0,-0.01074219,-0.005981445,0.03112793,0,0,-0.007568359,0.3105164,4.033,0,0,0,0.2999878,nan,2,9.871,1,0,0.3638306,0.2875366,0.2184753,0.3723145,0.06054688,0.01855469,0,1,3,0
145.202,0.00101,-0.1171875,0.03125,0.02539062,1.125,-4.429688,3.398438,-0.09570312,0.03515625,0.01953125,0.06640625,0.03320312,0,-0.01098633,-0.005493164,0.03125,0,0,-0.007568359,0.3105164,4.033,0,0,0,0.2999878,nan,2,9.881,1,0,0.4436646,0.2157593,0.2388611,0.343811,0.06152344,0.01855469,0,1,3,0
145.212,0.001015,0.09960938,0.001953125,0.05273438,1.648438,-0.4921875,6.976562,0.01367188,0.001953125,0.03515625,0.06835938,0.03125,0,-0.01159668,-0.005126953,0.03137207,0,0,-0.007568359,0.3105164,4.033,0,0,0,0.2999878,nan,2,9.891,1,0,0.4325256,0.2417297,0.2740173,0.2938538,0.06152344,0.01855469,0,1,3,0
145.222,0.001012,-0.06445312,0.0390625,0.015625,0.2265625,4.976562,18.64062,0.05078125,0.0234375,0.02734375,0.06640625,0.02929688,0,-0.01086426,-0.004760742,0.03173828,0,0,-0.007568359,0.3105164,4.033,0,0,0,0.2999878,nan,2,9.901,1,0,0.3952026,0.2660217,0.2275696,0.3532715,0.06152344,0.01855469,0,1,3,0
145.232,0.001009,0.08398438,-0.01757812,0.01171875,-2.25,4.679688,12.35938,0.03320312,0.0078125,0.005859375,0.06640625,0.02734375,0,-0.01098633,-0.004760742,0.03186035,0,0,-0.007568359,0.3105164,4.033,0,0,0,0.2999878,nan,2,9.911,1,0,0.3691711,0.2949829,0.2125549,0.3654175,0.06152344,0.01855469,0,1,3,0
145.241,0.000953,0.09765625,0.09960938,0.02929688,-2.132812,2.390625,11.13281,0.02929688,0.04101562,0.03320312,0.06640625,0.02734375,0,-0.01098633,-0.004638672,0.03210449,0,0,-0.007568359,0.3105164,4.033,0,0,0,0.2999878,nan,2,9.92,1,0,0.4016724,0.2403564,0.2680969,0.3319702,0.06152344,0.01855469,0,1,3,0
145.251,0.001004,0.001953125,0.0625,0.04882812,-0.3515625,-6.726562,5.351562,-0.0546875,0.0078125,0.05078125,0.06640625,0.02734375,0,-0.0111084,-0.004638672,0.0324707,0,0,-0.007568359,0.3105164,4.033,0,0,0,0.2999878,nan,2,9.93,1,0,0.4434509,0.215332,0.2552185,0.328125,0.06152344,0.01953125,0,1,3,0
145.262,0.00097,0.1640625,0.04296875,0.03125,1.234375,-1.882812,5.382812,0.0390625,-0.0078125,0.03710938,0.06640625,0.02734375,0,-0.0111084,-0.004638672,0.03283691,0,0,-0.007568359,0.3105164,4.033,0,0,0,0.2999878,nan,2,9.94,1,0,0.3984375,0.262085,0.2502441,0.3313599,0.06152344,0.01953125,0,1,3,0
145.272,0.001029,0.015625,-0.001953125,0.01367188,2.914062,0.9453125,11.97656,0.005859375,-0.00390625,0.02148438,0.06445312,0.02734375,0,-0.01074219,-0.004638672,0.03308105,0,0,-0.007568359,0.3105164,4.033,0,0,0,0.2999878,nan,2,9.951,1,0,0.3957214,0.2674561,0.2211914,0.3577271,0.06152344,0.01953125,0,1,3,0
145.282,0.001013,0.1953125,-0.04492188,0.03125,0.2734375,1.484375,13.21875,0.07421875,0.005859375,0.03710938,0.06445312,0.02734375,0,-0.01086426,-0.004638672,0.03344727,0,0,-0.007568359,0.3105164,4.033,0,0,0,0.2999878,nan,2,9.961,1,0,0.3922424,0.2710266,0.2581787,0.3206482,0.06152344,0.01953125,0,1,3,0
145.292,0.001009,-0.1425781,0.04101562,0.046875,-1.617188,3.585938,12.94531,-0.00390625,0.01171875,0.046875,0.0625,0.02929688,0,-0.01037598,-0.004760742,0.03393555,0,0,-0.007568359,0.3105164,4.033,0,0,0,0.2999878,nan,2,9.971,1,0,0.4098816,0.2434998,0.2313538,0.3573914,0.06152344,0.01953125,0,1,3,0
145.302,0.001009,0.03515625,-0.01953125,0.015625,-3,1.609375,10.01562,0.00390625,0.009765625,0.01953125,0.0625,0.02734375,0,-0.01062012,-0.004760742,0.03430176,0,0,-0.007568359,0.3105164,4.033,0,0,0,0.2999878,nan,2,9.981,1,0,0.3774414,0.2824707,0.2133789,0.3688354,0.06152344,0.01953125,0,1,3,0
145.312,0.001006,0.01757812,-0.06640625,0.03125,-0.546875,0.28125,12.125,0.04882812,-0.005859375,0.015625,0.0625,0.02734375,0,-0.01049805,-0.004760742,0.03442383,0,0,-0.007568359,0.3105164,4.033,0,0,0,0.2999878,nan,2,9.991,1,0,0.3917236,0.2766113,0.2299805,0.343811,0.06152344,0.01953125,0,1,3,0
145.322,0.001019,0.09375,0.02148438,0.03515625,1.28125,-3.640625,11.71094,0.04296875,0.04101562,0.0390625,0.0625,0.02734375,0,-0.01037598,-0.004638672,0.03479004,0,0,-0.007568359,0.3105164,4.033,0,0,0,0.2999878,nan,2,10.001,1,0,0.3961487,0.2504272,0.2574158,0.3381348,0.06152344,0.01953125,0,1,3,0
145.332,0.00102,-0.0546875,-0.03710938,0.07226562,1.46875,-2.90625,5.101562,0.01367188,-0.005859375,0.05664062,0.06054688,0.02734375,0,-0.01013184,-0.004638672,0.03527832,0,0,-0.007568359,0.3105164,4.033,0,0,0,0.2999878,nan,2,10.011,1,0,0.4345093,0.2338867,0.2523804,0.3213501,0.06152344,0.01953125,0,1,3,0
145.341,0.001011,0.00390625,0.06640625,0.01367188,1.960938,-4.5,4.289062,0.001953125,0.01367188,0.03320312,0.06054688,0.02734375,0,-0.01000977,-0.004638672,0.0357666,0,0,-0.007568359,0.3105164,4.033,0,0,0,0.2999878,nan,2,10.02,1,0,0.3822632,0.2729187,0.2135315,0.3733826,0.06152344,0.01953125,0,1,3,0
145.351,0.001011,-0.07226562,-0.06640625,0.08398438,1.140625,-0.2109375,12.75781,-0.03320312,0.001953125,0.03710938,0.06054688,0.02734375,0,-0.01013184,-0.004516602,0.03601074,0,0,-0.007568359,0.3105164,4.033,0,0,0,0.2999878,nan,2,10.03,1,0,0.4351807,0.2323303,0.2425842,0.3320007,0.06152344,0.01953125,0,1,3,0
145.361,0.001011,-0.1054688,0.05273438,0.04101562,-0.4765625,2.742188,12.23438,-0.0078125,0.03125,0.04101562,0.06054688,0.02734375,0,-0.01013184,-0.004516602,0.03662109,0,0,-0.007568359,0.3105164,4.033,0,0,0,0.2999878,nan,2,10.04,1,0,0.3910217,0.2580566,0.2211609,0.3718567,0.0625,0.01953125,0,1,3,0
145.372,0.001011,-0.04882812,-0.06054688,0.0546875,-1.382812,6.835938,14.03125,-0.0390625,-0.02734375,0.04296875,0.0625,0.02734375,0,-0.01037598,-0.004394531,0.0369873,0,0,-0.007568359,0.3105164,4.033,0,0,0,0.2999878,nan,2,10.051,1,0,0.4279785,0.2482605,0.2270813,0.3387756,0.0625,0.01953125,0,1,3,0
145.382,0.001011,-0.1425781,0.03710938,0.04296875,-1.976562,-0.0234375,12.07812,-0.04101562,0.001953125,0.02929688,0.0625,0.02734375,0,-0.01037598,-0.004516602,0.03735352,0,0,-0.007568359,0.3105164,4.033,0,0,0,0.2999878,nan,2,10.061,1,0,0.415863,0.2449951,0.2223206,0.3589478,0.0625,0.01953125,0,1,3,0
145.392,0.001011,0.07226562,0.001953125,0.009765625,-0.5234375,-1.65625,11.80469,0.07617188,0.02734375,0.03125,0.06054688,0.02539062,0,-0.01013184,-0.004394531,0.03771973,0,0,-0.007568359,0.3105164,4.033,0,0,0,0.2999878,nan,2,10.071,1,0,0.3738403,0.2797852,0.2359314,0.3525391,0.0625,0.01953125,0,1,3,0
145.402,0.001011,0.1230469,0.01171875,0.03320312,0.734375,-6.375,3.625,0.03125,0,0.05078125,0.06054688,0.02734375,0,-0.01013184,-0.004394531,0.03808594,0,0,-0.007568359,0.3105164,4.033,0,0,0,0.2999878,nan,2,10.081,1,0,0.4115601,0.2511902,0.2539673,0.3253784,0.0625,0.01953125,0,1,3,0
145.412,0.000991,0.08789062,0.0703125,-0.02734375,2.148438,-3.445312,4.492188,0.05078125,0.01171875,0.015625,0.05859375,0.02734375,0,-0.009643555,-0.004516602,0.03845215,0,0,-0.007568359,0.3105164,4.033,0,0,0,0.2999878,nan,2,10.091,1,0,0.3482361,0.3045044,0.1992798,0.3900757,0.0625,0.01953125,0,1,3,0
145.422,0.001014,-0.08984375,-0.01171875,0.01953125,2.890625,1.765625,12.44531,-0.03125,-0.02148438,0.005859375,0.05859375,0.02539062,0,-0.009643555,-0.004394531,0.03845215,0,0,-0.007568359,0.3105164,4.033,0,0,0,0.2999878,nan,2,10.101,1,0,0.4221497,0.2527771,0.2201233,0.3470764,0.0625,0.01953125,0,1,3,0
145.432,0.001005,0.01171875,-0.0625,0.078125,-1.0625,2.007812,15.1875,0.046875,-0.02734375,0.03125,0.05859375,0.02539062,0,-0.009643555,-0.004394531,0.03857422,0,0,-0.007568359,0.3105164,4.033,0,0,0,0.2999878,nan,2,10.111,1,0,0.4540405,0.2238159,0.2853088,0.2789307,0.0625,0.01953125,0,1,3,0
145.442,0.001011,-0.125,-0.00390625,0.07617188,-3.203125,2.078125,9.789062,-0.1328125,0.01367188,0.06054688,0.06445312,0.02539062,0,-0.01074219,-0.004394531,0.0390625,0,0,-0.007568359,0.3105164,4.033,0,0,0,0.2999878,nan,2,10.121,1,0,0.457428,0.2009277,0.2529297,0.3308105,0.0625,0.01953125,0,1,3,0
145.452,0.001021,-0.078125,-0.02734375,0.03125,-1.5625,2.25,10.16406,0.009765625,0.01367188,0.04296875,0.06445312,0.02539062,0,-0.01074219,-0.004272461,0.03955078,0,0,-0.007568359,0.3105164,4.033,0,0,0,0.2999878,nan,2,10.13,1,0,0.3805847,0.2830811,0.2116394,0.3667908,0.0625,0.01953125,0,1,3,0
145.461,0.00101,-0.0859375,-0.08789062,0.06445312,0.484375,-5.34375,11.07031,-0.046875,0.00390625,0.04101562,0.06445312,0.02539062,0,-0.01074219,-0.004150391,0.04003906,0,0,-0.007568359,0.3105164,4.033,0,0,0,0.2999878,nan,2,10.14,1,0,0.4199829,0.2471008,0.2174072,0.3576355,0.0625,0.01953125,0,1,3,0
145.472,0.00101,-0.0546875,-0.046875,0.05273438,1.210938,-3.03125,5.164062,0.03125,-0.01367188,0.04296875,0.06445312,0.02539062,0,-0.01062012,-0.00402832,0.04052734,0,0,-0.007568359,0.3105164,4.033,0,0,0,0.2999878,nan,2,10.15,1,0,0.4026184,0.2721558,0.2244873,0.3428345,0.0625,0.01953125,0,1,3,0
145.482,0.00101,-0.1464844,0.06640625,-0.02734375,0.8203125,-3.679688,4.757812,-0.03320312,0.02929688,0.01367188,0.06445312,0.02539062,0,-0.01062012,-0.004150391,0.04089355,0,0,-0.007568359,0.3105164,4.033,0,0,0,0.2999878,nan,2,10.161,1,0,0.352478,0.2963257,0.1682434,0.4250793,0.0625,0.01953125,0,1,3,0
145.492,0.00101,-0.04882812,-0.00390625,0.01757812,1.476562,-1.851562,6.109375,-0.0078125,-0.03515625,0.01757812,0.06445312,0.02734375,0,-0.01074219,-0.004394531,0.0411377,0,0,-0.007568359,0.3105164,4.033,0,0,0,0.2999878,nan,2,10.171,1,0,0.400116,0.2697449,0.2154541,0.356781,0.0625,0.01953125,0,1,3,0
145.502,0.001016,-0.1621094,-0.02734375,0,0.890625,4.695312,13.98438,-0.05859375,-0.04296875,0.01757812,0.06640625,0.02929688,0,-0.01098633,-0.004882812,0.04138184,0,0,-0.007568359,0.3105164,4.033,0,0,0,0.2999878,nan,2,10.181,1,0,0.4134216,0.2547913,0.2081604,0.3657532,0.06347656,0.01953125,0,1,3,0
145.512,0.001027,-0.203125,-0.015625,0.009765625,-2.40625,2.921875,12.77344,-0.1132812,-0.009765625,0.01757812,0.0703125,0.02929688,0,-0.01184082,-0.005004883,0.04162598,0,0,-0.007568359,0.3105164,4.033,0,0,0,0.2999878,nan,2,10.191,1,0,0.4095459,0.2553406,0.2011414,0.3760681,0.06347656,0.01953125,0,1,3,0
145.521,0.001033,0.02539062,-0.02734375,0.015625,-2.101562,-0.1328125,10.8125,-0.04296875,0.0390625,0.00390625,0.07617188,0.02734375,0,-0.01269531,-0.004760742,0.04162598,0,0,-0.007568359,0.3105164,4.033,0,0,0,0.2999878,nan,2,10.2,1,0,0.3804626,0.2750549,0.2215881,0.3649902,0.06347656,0.01953125,0,1,3,0
145.532,0.001009,0.01757812,0.0078125,0.015625,1.09375,-1.09375,6.101562,-0.03710938,0.02929688,0.001953125,0.078125,0.02539062,0,-0.01318359,-0.004394531,0.04174805,0,0,-0.007568359,0.3105164,4.033,0,0,0,0.2999878,nan,2,10.211,1,0,0.3970947,0.2650146,0.2208862,0.3591003,0.06347656,0.01953125,0,1,3,0
145.542,0.00101,-0.009765625,-0.06054688,0.0234375,2.726562,-1.484375,9.273438,-0.009765625,-0.02148438,0.001953125,0.08007812,0.02539062,0,-0.01342773,-0.004272461,0.04174805,0,0,-0.007568359,0.3105164,4.033,0,0,0,0.2999878,nan,2,10.221,1,0,0.4235535,0.2564697,0.2311096,0.3309937,0.06347656,0.01953125,0,1,3,0.2380952
145.551,0.00101,-0.01757812,-0.005859375,-0.03710938,-0.359375,-0.09375,9.453125,-0.05273438,0.01171875,-0.0234375,0.08203125,0.02539062,0,-0.0135498,-0.004272461,0.04162598,0,0,-0.007568359,0.3105164,4.033,0,0,0,0.2999878,nan,2,10.23,1,0,0.375946,0.2827454,0.1821899,0.4012451,0.06347656,0.01953125,0,1,3,0.2857143
145.561,0.00101,0.01367188,0,0,-1.554688,4.664062,14.35156,-0.0234375,0.01171875,0.01171875,0.08203125,0.02539062,0,-0.01379395,-0.004150391,0.04150391,0,0,-0.007568359,0.3105164,4.033,0,0,0,0.2999878,nan,2,10.24,1,0,0.4259033,0.2349243,0.2468567,0.3344116,0.06347656,0.01953125,0,1,3,0
145.572,0.001007,0.0078125,0.09375,0,0.359375,-5.5,5.28125,-0.06445312,0.04101562,0.005859375,0.08398438,0.0234375,0,-0.01416016,-0.00402832,0.04162598,0,0,-0.007568359,0.3105164,4.033,0,0,0,0.2999878,nan,2,10.25,1,0,0.3973999,0.2507629,0.2176208,0.3763428,0.06347656,0.01953125,0,1,3,0
145.582,0.00101,0.04101562,-0.00390625,0.005859375,1.40625,-4.085938,5.773438,0.02539062,0.02148438,0.00390625,0.0859375,0.02148438,0,-0.0144043,-0.00378418,0.04162598,0,0,-0.007568359,0.3105164,4.033,0,0,0,0.2999878,nan,2,10.261,1,0,0.4012451,0.262207,0.2445679,0.3340759,0.06445312,0.01953125,0,1,3,0
145.592,0.00101,0.078125,0.09765625,-0.01757812,0.2578125,5.257812,16.08594,0.009765625,0.02148438,-0.03710938,0.0859375,0.02148438,0,-0.0144043,-0.003662109,0.04138184,0,0,-0.007568359,0.3105164,4.033,0,0,0,0.2999878,nan,2,10.271,1,0,0.3540649,0.2985229,0.1921082,0.3973999,0.06445312,0.01953125,0,1,3,0
145.602,0.00101,-0.01953125,-0.03125,-0.03710938,-0.9765625,-1.5,7.140625,0.0234375,-0.01367188,-0.04296875,0.0859375,0.02148438,0,-0.01428223,-0.003662109,0.04101562,0,0,-0.007568359,0.3105164,4.033,0,0,0,0.2999878,nan,2,10.281,1,0,0.3745422,0.2950439,0.1914978,0.381012,0.06445312,0.01953125,0,1,3,0
145.612,0.001014,0.0546875,0.0078125,-0.05078125,1.828125,-2.679688,9.828125,0.02539062,0.015625,-0.05078125,0.0859375,0.02148438,0,-0.01428223,-0.00378418,0.04052734,0,0,-0.007568359,0.3105164,4.033,0,0,0,0.2999878,nan,2,10.291,1,0,0.3644409,0.2894287,0.2062683,0.381958,0.06445312,0.01953125,0,1,3,0
145.622,0.001012,-0.1464844,0.00390625,-0.04296875,-2.179688,2.023438,11.51562,-0.0625,0.02929688,-0.04492188,0.08789062,0.02148438,0,-0.01452637,-0.003540039,0.04003906,0,0,-0.007568359,0.3105164,4.033,0,0,0,0.2999878,nan,2,10.301,1,0,0.4077454,0.2489319,0.2098389,0.3755798,0.06445312,0.01953125,0,1,3,0
145.632,0.001007,-0.09570312,-0.02148438,-0.0234375,0.734375,-3.148438,7.953125,-0.009765625,-0.005859375,-0.02734375,0.08789062,0.02148438,0,-0.01464844,-0.003540039,0.03979492,0,0,-0.007568359,0.3105164,4.033,0,0,0,0.2999878,nan,2,10.311,1,0,0.4017944,0.2668457,0.2093506,0.3641357,0.06445312,0.01953125,0,1,3,0
145.642,0.001008,0.02929688,0.03515625,0.005859375,2.632812,1.296875,10.25,-0.00390625,0,-0.02148438,0.08984375,0.02148438,0,-0.01501465,-0.003540039,0.03942871,0,0,-0.007568359,0.3105164,4.033,0,0,0,0.2999878,nan,2,10.321,1,0,0.4074707,0.2557068,0.2338867,0.3450012,0.06445312,0.01953125,0,1,3,0
145.651,0.001022,-0.0546875,0.005859375,-0.08398438,-2.789062,2.859375,11.625,-0.009765625,0.0078125,-0.04882812,0.08789062,0.02148438,0,-0.01477051,-0.003540039,0.03930664,0,0,-0.007568359,0.3105164,4.033,0,0,0,0.2999878,nan,2,10.33,1,0,0.3400574,0.3202209,0.1516418,0.4301758,0.06445312,0.01953125,0,1,3,0
145.662,0.000996,0.06835938,0.015625,-0.08789062,0.78125,-4.804688,7.148438,-0.01171875,0.00390625,-0.08398438,0.08984375,0.02148438,0,-0.01501465,-0.003417969,0.03857422,0,0,-0.007568359,0.3105164,4.033,0,0,0,0.2999878,nan,2,10.34,1,0,0.3502502,0.3125305,0.1727905,0.4065247,0.06445312,0.01953125,0,1,3,0
145.672,0.001008,0.05078125,-0.0234375,-0.1035156,-0.015625,3.898438,12.63281,-0.005859375,-0.005859375,-0.1015625,0.08984375,0.02148438,0,-0.01513672,-0.003540039,0.03759766,0,0,-0.007568359,0.3105164,4.033,0,0,0,0.2999878,nan,2,10.35,1,0,0.3482971,0.3172607,0.1656189,0.4109192,0.06445312,0.02050781,0,1,3,0
145.682,0.000992,0.07617188,-0.04296875,-0.1035156,0.4296875,-4.742188,5.414062,0.04492188,-0.0078125,-0.1054688,0.08984375,0.02148438,0,-0.01501465,-0.003540039,0.03649902,0,0,-0.007568359,0.3105164,4.033,0,0,0,0.2999878,nan,2,10.361,1,0,0.3592834,0.3096924,0.1916504,0.3814697,0.06445312,0.02050781,0,1,3,0
145.692,0.001015,-0.05078125,-0.01171875,-0.09570312,-0.40625,4.484375,14.03125,-0.03125,0.009765625,-0.09960938,0.08984375,0.02148438,0,-0.01489258,-0.003540039,0.03552246,0,0,-0.007568359,0.3105164,4.033,0,0,0,0.2999878,nan,2,10.371,1,0,0.3866577,0.2736816,0.1893311,0.3924255,0.06542969,0.02050781,0,1,3,0
145.702,0.001046,0.03710938,-0.02148438,-0.07421875,0.8203125,-4.765625,4.125,0.02734375,-0.00390625,-0.07421875,0.08984375,0.02148438,0,-0.01501465,-0.003540039,0.03466797,0,0,-0.007568359,0.3105164,4.033,0,0,0,0.2999878,nan,2,10.381,1,0,0.3888245,0.2764282,0.2165833,0.3602905,0.06542969,0.02050781,0,1,3,0
145.711,0.001007,-0.07421875,0.001953125,-0.04492188,1.8125,2.867188,13.41406,-0.02929688,0.01757812,-0.05078125,0.08984375,0.02148438,0,-0.01501465,-0.003540039,0.03417969,0,0,-0.007568359,0.3105164,4.033,0,0,0,0.2999878,nan,2,10.39,1,0,0.4080505,0.2497864,0.216217,0.3680725,0.06542969,0.02050781,0,1,3,0
145.722,0.001023,0.1191406,0.02148438,0.01953125,-0.515625,-5.0625,4.789062,0.03710938,0.01171875,-0.0078125,0.08984375,0.02148438,0,-0.01513672,-0.003417969,0.03381348,0,0,-0.007568359,0.3105164,4.033,0,0,0,0.2999878,nan,2,10.401,1,128,0.4302368,0.2294922,0.2700195,0.3123474,0.06542969,0.02050781,0,1,3,0
145.732,0.00102,-0.001953125,-0.01171875,-0.001953125,1.664062,-2.101562,6.835938,0.01171875,-0.04492188,0.01953125,0.08789062,0.02148438,0,-0.01477051,-0.003662109,0.03393555,0,0,-0.007568359,0.3105164,4.033,0,0,0,0.2999878,nan,2,10.41,1,128,0.4381104,0.2407532,0.2328491,0.3303833,0.06542969,0.02050781,0,1,3,0
145.742,0.00102,0.04101562,0.01171875,0.05078125,-0.65625,8.585938,15.77344,-0.00390625,-0.02539062,0.04492188,0.08789062,0.0234375,0,-0.01464844,-0.00378418,0.03430176,0,0,-0.007568359,0.3105164,4.033,0,0,0,0.2999878,nan,2,10.42,1,128,0.4411011,0.2263794,0.2515869,0.3230591,0.06542969,0.02050781,0,1,3,0
145.751,0.001003,0.03125,0.07617188,-0.001953125,-1.34375,-2.304688,11.07031,-0.03710938,0.009765625,0.01171875,0.08984375,0.0234375,0,-0.01513672,-0.00390625,0.0345459,0,0,-0.007568359,0.3105164,4.033,0,0,0,0.2999878,nan,2,10.43,1,128,0.3764038,0.277771,0.1991577,0.3887329,0.06542969,0.02050781,0,1,3,0
145.762,0.00101,0.02929688,-0.00390625,-0.04296875,1.507812,-4.015625,5.78125,-0.04101562,-0.00390625,-0.02539062,0.09375,0.0234375,0,-0.015625,-0.00378418,0.0345459,0,0,-0.007568359,0.3105164,4.033,0,0,0,0.2999878,nan,2,10.44,1,128,0.3441162,0.3214111,0.1551819,0.4213562,0.06542969,0.02050781,0,1,3,0
145.772,0.00101,0.03710938,-0.08984375,0,0.9453125,3.882812,12.53125,0.01953125,-0.05273438,-0.01367188,0.09570312,0.02539062,0,-0.01586914,-0.004150391,0.03442383,0,0,-0.007568359,0.3105164,4.033,0,0,0,0.2999878,nan,2,10.45,1,128,0.4083557,0.2720947,0.2220764,0.3395691,0.06542969,0.02050781,0,1,3,0
145.782,0.00101,0.01953125,-0.0625,-0.04296875,-2.367188,1.5,10.29688,0.001953125,-0.02929688,-0.02929688,0.09375,0.02539062,0,-0.01574707,-0.004272461,0.03417969,0,0,-0.007568359,0.3105164,4.033,0,0,0,0.2999878,nan,2,10.461,1,128,0.3895874,0.2862854,0.1925659,0.3736267,0.06542969,0.02050781,0,1,3,0
145.792,0.00101,0.03710938,-0.03515625,-0.01171875,2.117188,-6.109375,5.3125,0.009765625,-0.04492188,-0.03125,0.09375,0.02734375,0,-0.01574707,-0.004394531,0.03369141,0,0,-0.007568359,0.3105164,4.033,0,0,0,0.2999878,nan,2,10.471,1,128,0.4153442,0.2652893,0.2140198,0.3474426,0.06640625,0.02050781,0,1,3,0
145.802,0.00101,-0.02539062,0.07226562,-0.06835938,0.4453125,5.578125,16.625,-0.009765625,-0.001953125,-0.04492188,0.09375,0.02734375,0,-0.01550293,-0.004638672,0.03344727,0,0,-0.007568359,0.3105164,4.033,0,0,0,0.2999878,nan,2,10.481,1,128,0.3687134,0.2892761,0.1773682,0.4067383,0.06640625,0.02050781,0,1,3,0
145.812,0.00101,0.02929688,0.03515625,0.01367188,-1.476562,-1.757812,6.0625,0.00390625,-0.015625,-0.0078125,0.09179688,0.02929688,0,-0.01550293,-0.004882812,0.03320312,0,0,-0.007568359,0.3105164,4.033,0,0,0,0.2999878,nan,2,10.491,1,128,0.4278259,0.2324524,0.2463989,0.3354187,0.06640625,0.02050781,0,1,3,0
145.822,0.001012,0.1464844,0.02539062,0.02734375,1.40625,-2.328125,11.91406,0.046875,0.03515625,0.001953125,0.09179688,0.02929688,0,-0.01538086,-0.004760742,0.03308105,0,0,-0.007568359,0.3105164,4.033,0,0,0,0.2999878,nan,2,10.501,1,128,0.407196,0.242218,0.2582397,0.3344727,0.06640625,0.02050781,0,1,3,0
145.832,0.001009,0.0234375,-0.0703125,0.009765625,-0.4453125,2.15625,10.71875,0.009765625,0,-0.005859375,0.09179688,0.02929688,0,-0.01525879,-0.004760742,0.03308105,0,0,-0.007568359,0.3105164,4.033,0,0,0,0.2999878,nan,2,10.511,1,128,0.4024353,0.2653809,0.2104797,0.3638,0.06640625,0.02050781,0,1,3,0
145.842,0.00101,-0.04296875,-0.0546875,0.0234375,-1.3125,0.1875,8.390625,0.03320312,-0.02539062,0.03515625,0.08789062,0.03125,0,-0.01477051,-0.005126953,0.0333252,0,0,-0.007568359,0.3105164,4.034,0,0,0,0.2999878,nan,2,10.521,1,128,0.4456787,0.2243042,0.2541199,0.3180237,0.06640625,0.02050781,0,1,3,0
145.851,0.000965,-0.02734375,-0.03320312,-0.08789062,1.3125,-5.765625,7.796875,-0.0234375,-0.01757812,-0.03515625,0.08789062,0.03125,0,-0.01477051,-0.005126953,0.03320312,0,0,-0.007568359,0.3105164,4.034,0,0,0,0.2999878,nan,2,10.53,1,128,0.339325,0.3339539,0.1283875,0.4404297,0.06640625,0.02050781,0,1,3,0.952381
145.861,0.001007,0.06445312,0.0078125,-0.01953125,0.625,0.8984375,11.66406,0.0078125,0,-0.04492188,0.08984375,0.03125,0,-0.01489258,-0.005249023,0.03283691,0,0,-0.007568359,0.3105164,4.034,0,0,0,0.2999878,nan,2,10.54,1,128,0.3846741,0.2763062,0.2081604,0.3729553,0.06640625,0.02050781,0,1,3,0
145.872,0.001011,-0.1328125,-0.015625,-0.0546875,-1.492188,0.8984375,10.20312,-0.03710938,0.01757812,-0.0703125,0.08984375,0.03125,0,-0.01489258,-0.005249023,0.03222656,0,0,-0.007568359,0.3105164,4.034,0,0,0,0.2999878,nan,2,10.55,1,128,0.3648376,0.2933655,0.1617126,0.4222107,0.06640625,0.02050781,0,1,3,0
145.882,0.001038,-0.125,-0.01757812,-0.04296875,2.585938,-2.414062,6.492188,-0.0625,0.01171875,-0.03710938,0.09179688,0.03125,0,-0.01525879,-0.005249023,0.03173828,0,0,-0.007568359,0.3105164,4.034,0,0,0,0.2999878,nan,2,10.561,1,128,0.4217834,0.241333,0.2148743,0.3641357,0.06640625,0.02050781,0,1,3,0
145.892,0.001016,0.00390625,-0.05273438,-0.04296875,-1.75,4.554688,13.6875,-0.02929688,-0.0078125,-0.04882812,0.09375,0.03125,0,-0.01574707,-0.005126953,0.03125,0,0,-0.007568359,0.3105164,4.034,0,0,0,0.2999878,nan,2,10.571,1,128,0.3974304,0.2780151,0.1973572,0.3692932,0.06640625,0.02050781,0,1,3,0
145.902,0.001004,0.09570312,-0.015625,-0.02734375,0.609375,-5.4375,8.351562,-0.00390625,-0.0078125,-0.03320312,0.09570312,0.03125,0,-0.01599121,-0.005126953,0.03076172,0,0,-0.007568359,0.3105164,4.034,0,0,0,0.2999878,nan,2,10.581,1,128,0.4089966,0.2634277,0.221405,0.3482971,0.06738281,0.02050781,0,1,3,0.6031746
145.912,0.00101,-0.08007812,0.1152344,-0.078125,1.632812,1.9375,10.45312,-0.03710938,0.03125,-0.046875,0.09570312,0.03125,0,-0.01599121,-0.005126953,0.03051758,0,0,-0.007568359,0.3105164,4.034,0,0,0,0.2999878,nan,2,10.591,1,128,0.3608093,0.2891235,0.1729736,0.41922,0.06738281,0.02050781,0,1,3,0
145.922,0.001014,-0.04101562,0.001953125,-0.04492188,-2.601562,1.320312,12.25,-0.015625,0.0234375,-0.04882812,0.09765625,0.02929688,0,-0.01623535,-0.005004883,0.0300293,0,0,-0.007568359,0.3105164,4.034,0,0,0,0.2999878,nan,2,10.601,1,128,0.3770142,0.2795105,0.1909485,0.3946228,0.06738281,0.02050781,0,1,3,0
145.932,0.001014,0.02148438,-0.09570312,-0.06445312,1.210938,-1.664062,3.96875,0.01171875,-0.03320312,-0.06054688,0.09765625,0.02929688,0,-0.01623535,-0.005004883,0.02941895,0,0,-0.007568359,0.3105164,4.034,0,0,0,0.2999878,nan,2,10.611,1,128,0.3888855,0.2957153,0.18573,0.3717957,0.06738281,0.02050781,0,1,3,0
145.942,0.001009,0.02539062,-0.00390625,-0.08203125,-1.453125,6.492188,15.24219,-0.001953125,-0.02929688,-0.07617188,0.09570312,0.03125,0,-0.01611328,-0.005249023,0.02868652,0,0,-0.007568359,0.3105164,4.034,0,0,0,0.2999878,nan,2,10.621,1,128,0.3842468,0.290802,0.1795349,0.3875122,0.06738281,0.02050781,0,1,3,0
145.952,0.00101,-0.02539062,0.04492188,-0.08789062,1.367188,-1.445312,8.53125,-0.0234375,0.01171875,-0.07226562,0.09765625,0.03125,0,-0.01623535,-0.005126953,0.0279541,0,0,-0.007568359,0.3105164,4.034,0,0,0,0.2999878,nan,2,10.631,1,128,0.3770447,0.2835999,0.1834106,0.3980103,0.06738281,0.02050781,0,1,3,0
145.961,0.001008,-0.005859375,0.01757812,-0.015625,-2.179688,5.078125,15.33594,-0.05859375,0.0390625,-0.05273438,0.09960938,0.03125,0,-0.01660156,-0.005004883,0.02746582,0,0,-0.007568359,0.3105164,4.034,0,0,0,0.2999878,nan,2,10.64,1,128,0.4137573,0.2383423,0.2225037,0.3674927,0.06738281,0.02050781,0,1,3,0
145.971,0.001008,-0.08984375,0.01171875,-0.01757812,0.3046875,-5.453125,4.929688,-0.05273438,0.01953125,-0.0234375,0.1015625,0.02929688,0,-0.01708984,-0.004882812,0.02709961,0,0,-0.007568359,0.3105164,4.034,0,0,0,0.2999878,nan,2,10.65,1,128,0.4208984,0.2439575,0.2189331,0.3583374,0.06738281,0.02050781,0,1,3,0
145.982,0.001008,0.01757812,-0.1074219,0.07617188,1.5625,5.21875,13.78906,0.01367188,-0.05273438,0.04296875,0.1035156,0.02929688,0,-0.01721191,-0.004760742,0.02722168,0,0,-0.007568359,0.3105164,4.034,0,0,0,0.2999878,nan,2,10.661,1,128,0.4995422,0.1959534,0.2895203,0.2570801,0.06835938,0.02050781,0,1,3,0
145.992,0.001008,-0.02148438,-0.09960938,0.1230469,-2.070312,1.5,13.17969,0.0078125,-0.05664062,0.08984375,0.1015625,0.03125,0,-0.01696777,-0.005126953,0.02783203,0,0,-0.007568359,0.3105164,4.034,0,0,0,0.2999878,nan,2,10.671,1,128,0.5108948,0.174469,0.2936096,0.2631531,0.06835938,0.02148438,0,1,3,0
146.002,0.001014,-0.03515625,-0.009765625,0.01953125,0.3359375,-1.21875,8.960938,-0.01953125,-0.02539062,0.0546875,0.1015625,0.03125,0,-0.0168457,-0.005249023,0.02868652,0,0,-0.007568359,0.3105164,4.034,0,0,0,0.2999878,nan,2,10.681,1,128,0.393219,0.2804871,0.1776428,0.3907776,0.06835938,0.02148438,0,1,3,0
146.012,0.001008,-0.02929688,-0.02734375,0.05664062,1.34375,-3.0625,7.632812,-0.08007812,-0.02148438,0.03710938,0.1035156,0.03125,0,-0.01733398,-0.005371094,0.02893066,0,0,-0.007568359,0.3105164,4.034,0,0,0,0.2999878,nan,2,10.691,1,128,0.4418945,0.2330017,0.2205505,0.3466797,0.06835938,0.02148438,0,1,3,0
146.022,0.001005,0.02929688,0.00390625,0.0703125,0.4140625,-1.664062,8.992188,0.02148438,0.02539062,0.02539062,0.1054688,0.03320312,0,-0.01745605,-0.005493164,0.0291748,0,0,-0.007568359,0.3105164,4.034,0,0,0,0.2999878,nan,2,10.701,1,128,0.4061584,0.2479248,0.2374268,0.3506165,0.06835938,0.02148438,0,1,3,0
146.032,0.001022,-0.1308594,0.03710938,-0.01171875,-1.796875,5.890625,14.5,-0.04101562,0.01953125,-0.01171875,0.1054688,0.03320312,0,-0.01745605,-0.005371094,0.02929688,0,0,-0.007568359,0.3105164,4.034,0,0,0,0.2999878,nan,2,10.711,1,128,0.3768005,0.2813721,0.1654053,0.4184875,0.06835938,0.02148438,0,1,3,0
146.041,0.000993,0.0546875,-0.0546875,0.03125,-1.273438,-0.078125,8.109375,0.001953125,-0.01171875,0.005859375,0.1054688,0.03125,0,-0.0177002,-0.005371094,0.02929688,0,0,-0.007568359,0.3105164,4.034,0,0,0,0.2999878,nan,2,10.72,1,128,0.4248352,0.2516174,0.2264099,0.3392334,0.06835938,0.02148438,0,1,3,0
146.051,0.001002,-0.015625,-0.02148438,-0.005859375,2.820312,0.4765625,9.742188,0.015625,-0.03515625,0.015625,0.1054688,0.03515625,0,-0.01745605,-0.005737305,0.02954102,0,0,-0.007568359,0.3105164,4.034,0,0,0,0.2999878,nan,2,10.73,1,128,0.407196,0.2660828,0.2049255,0.3638611,0.06835938,0.02148438,0,1,3,0.2698413
146.062,0.001002,0.06445312,-0.03710938,-0.015625,-1.539062,3.4375,12.46094,0.015625,-0.03710938,-0.0078125,0.1035156,0.03515625,0,-0.01721191,-0.005981445,0.02966309,0,0,-0.007568359,0.3105164,4.034,0,0,0,0.2999878,nan,2,10.74,1,128,0.3757935,0.300354,0.1729736,0.3929749,0.06835938,0.02148438,0,1,3,0
146.072,0.001012,-0.05273438,0.05859375,0.01367188,-0.9765625,-1.0625,8.070312,-0.03515625,0.04296875,0.001953125,0.1054688,0.03515625,0,-0.01745605,-0.005859375,0.02966309,0,0,-0.007568359,0.3105164,4.034,0,0,0,0.2999878,nan,2,10.75,1,128,0.4029236,0.2467651,0.2158813,0.3765259,0.06835938,0.02148438,0,1,3,0
146.082,0.001012,-0.05273438,-0.01953125,0.01367188,2.304688,0.375,9.757812,-0.01757812,-0.009765625,0.02734375,0.1054688,0.03320312,0,-0.0177002,-0.005737305,0.02990723,0,0,-0.007568359,0.3105164,4.034,0,0,0,0.2999878,nan,2,10.761,1,128,0.4324036,0.2465515,0.2189636,0.3442078,0.06933594,0.02148438,0,1,3,0.4603175
146.092,0.001012,0.009765625,-0.1015625,0.03125,0.0703125,3.898438,13.14062,0.03320312,-0.01953125,0.03320312,0.1054688,0.03515625,0,-0.01745605,-0.005737305,0.03015137,0,0,-0.007568359,0.3105164,4.034,0,0,0,0.2999878,nan,2,10.771,1,128,0.4379883,0.2418213,0.2367859,0.325531,0.06933594,0.02148438,0,1,3,0
146.102,0.001012,0.06835938,-0.01757812,0.03515625,-1.898438,3.242188,12.26562,0.01367188,0.01367188,0.015625,0.1054688,0.03515625,0,-0.0177002,-0.005859375,0.03027344,0,0,-0.007568359,0.3105164,4.034,0,0,0,0.2999878,nan,2,10.781,1,128,0.4087219,0.2533264,0.2303162,0.3497314,0.06933594,0.02148438,0,1,3,0
146.112,0.001012,0.02539062,0.03515625,0.005859375,0.609375,-4.679688,4.390625,-0.046875,0.0078125,0.00390625,0.1074219,0.03515625,0,-0.01794434,-0.005737305,0.03039551,0,0,-0.007568359,0.3105164,4.034,0,0,0,0.2999878,nan,2,10.791,1,128,0.3945312,0.2714233,0.1878052,0.3883667,0.06933594,0.02148438,0,1,3,0
146.122,0.001016,0.04296875,0.09960938,0.02929688,0.34375,-2.101562,8.984375,0.0234375,0.0234375,0.01171875,0.1074219,0.03515625,0,-0.01794434,-0.005737305,0.03063965,0,0,-0.007568359,0.3105164,4.034,0,0,0,0.2999878,nan,2,10.801,1,128,0.3874817,0.2669678,0.2157898,0.3718872,0.06933594,0.02148438,0,1,3,0
146.132,0.001014,-0.03515625,0.1347656,-0.05664062,-2.9375,7.507812,16.3125,-0.04296875,0.07226562,-0.02929688,0.1074219,0.03320312,0,-0.01794434,-0.005493164,0.03076172,0,0,-0.007568359,0.3105164,4.034,0,0,0,0.2999878,nan,2,10.811,1,128,0.3139343,0.3231812,0.1281433,0.4768372,0.06933594,0.02148438,0,1,3,0
146.142,0.001011,-0.09179688,0.02734375,-0.005859375,0.9921875,-3.859375,6.617188,-0.01757812,0.009765625,0.01953125,0.109375,0.03125,0,-0.01831055,-0.005371094,0.03088379,0,0,-0.007568359,0.3105164,4.034,0,0,0,0.2999878,nan,2,10.821,1,128,0.4297791,0.2364197,0.2310791,0.3448181,0.06933594,0.02148438,0,1,3,0
146.151,0.001042,-0.0390625,0.005859375,0.05664062,-0.0234375,0.3515625,12.09375,-0.04296875,0.009765625,0.03125,0.1113281,0.03320312,0,-0.01855469,-0.005493164,0.03100586,0,0,-0.007568359,0.3105164,4.034,0,0,0,0.2999878,nan,2,10.83,1,128,0.4428101,0.2179565,0.2373657,0.3439941,0.06933594,0.02148438,0,1,3,0
146.161,0.00101,-0.04296875,-0.03125,0.03515625,-1.421875,1.5,9.507812,-0.03515625,0.009765625,0.0234375,0.1132812,0.03125,0,-0.01879883,-0.005371094,0.03125,0,0,-0.007568359,0.3105164,4.034,0,0,0,0.2999878,nan,2,10.84,1,128,0.4317932,0.2371216,0.2194824,0.3537292,0.0703125,0.02148438,0,1,3,0.3492064
146.172,0.00101,-0.1289062,0.06835938,0.01953125,1.5,-3.09375,6.539062,-0.03515625,0.0234375,0.009765625,0.1132812,0.03125,0,-0.0189209,-0.005249023,0.03137207,0,0,-0.007568359,0.3105164,4.034,0,0,0,0.2999878,nan,2,10.85,1,128,0.4055481,0.2524719,0.2019958,0.3820801,0.0703125,0.02148438,0,1,3,0
146.182,0.001007,0.02539062,0.02539062,0.015625,-0.4140625,5.40625,14.38281,-0.01757812,0.009765625,0.01367188,0.1171875,0.03125,0,-0.01953125,-0.005126953,0.03149414,0,0,-0.007568359,0.3105164,4.034,0,0,0,0.2999878,nan,2,10.861,1,128,0.4087524,0.2573547,0.2164001,0.3596191,0.0703125,0.02148438,0,1,3,0
146.192,0.001004,-0.06835938,-0.01367188,-0.009765625,-1.453125,-3.710938,9.609375,-0.03515625,-0.005859375,0.01171875,0.1191406,0.03125,0,-0.01977539,-0.005126953,0.03173828,0,0,-0.007568359,0.3105164,4.034,0,0,0,0.2999878,nan,2,10.871,1,128,0.4095459,0.2642517,0.1922302,0.3760986,0.0703125,0.02148438,0,1,3,0
146.202,0.00101,0.02734375,0.015625,-0.00390625,2.898438,-2.8125,5.09375,-0.001953125,-0.009765625,-0.01171875,0.1191406,0.02929688,0,-0.01989746,-0.005004883,0.03173828,0,0,-0.007568359,0.3105164,4.034,0,0,0,0.2999878,nan,2,10.881,1,128,0.3886414,0.2862854,0.1820679,0.3851013,0.0703125,0.02148438,0,1,3,0
146.212,0.00101,0.1308594,0.02148438,-0.02539062,-1.101562,6.085938,15.70312,0.05664062,-0.01367188,-0.01171875,0.1171875,0.02929688,0,-0.01953125,-0.005004883,0.03173828,0,0,-0.007568359,0.3105164,4.034,0,0,0,0.2999878,nan,2,10.891,1,128,0.3854065,0.2888184,0.1957703,0.3721313,0.0703125,0.02148438,0,1,3,0
146.222,0.001003,0.05664062,0.046875,-0.02929688,-0.65625,-5.164062,7.75,0.04882812,-0.01757812,-0.01757812,0.1152344,0.03125,0,-0.01916504,-0.005249023,0.03161621,0,0,-0.007568359,0.3105164,4.034,0,0,0,0.2999878,nan,2,10.901,1,128,0.3862915,0.281311,0.1929932,0.3815002,0.0703125,0.02148438,0,1,3,0.03174603
146.232,0.001013,0.03320312,0.0859375,-0.03710938,1.296875,-0.0078125,8.515625,0.02148438,0.02148438,-0.02734375,0.1132812,0.03125,0,-0.01904297,-0.005249023,0.03137207,0,0,-0.007568359,0.3105164,4.034,0,0,0,0.2999878,nan,2,10.911,1,128,0.3724976,0.2836914,0.1871948,0.3987427,0.0703125,0.02148438,0,1,3,0
146.242,0.00101,-0.005859375,0.0859375,-0.04101562,-1.054688,2.984375,11.14062,-0.001953125,0.04296875,-0.04296875,0.1132812,0.02929688,0,-0.0189209,-0.004882812,0.03112793,0,0,-0.007568359,0.3105164,4.034,0,0,0,0.2999878,nan,2,10.921,1,128,0.3719788,0.2816772,0.1829224,0.4055176,0.07128906,0.02148438,0,1,3,0
146.252,0.001015,-0.05078125,0.04492188,-0.005859375,2.484375,-1.796875,10.42188,-0.01367188,0.03125,-0.02148438,0.1152344,0.02929688,0,-0.01904297,-0.004760742,0.03088379,0,0,-0.007568359,0.3105164,4.034,0,0,0,0.2999878,nan,2,10.931,1,128,0.4160461,0.2411499,0.2185364,0.3663635,0.07128906,0.02148438,0,1,3,0
146.261,0.0009860001,-0.07617188,-0.1015625,0.00390625,-2.8125,-0.0234375,10.41406,-0.0390625,-0.009765625,0.009765625,0.1152344,0.02734375,0,-0.01928711,-0.004638672,0.03076172,0,0,-0.007568359,0.3105164,4.034,0,0,0,0.2999878,nan,2,10.94,1,128,0.4529724,0.2287292,0.2233276,0.3370361,0.07128906,0.02148438,0,1,3,0
146.271,0.00101,-0.03710938,-0.046875,0.03515625,1.367188,-2.492188,5.007812,-0.02734375,-0.01953125,0.03320312,0.1171875,0.02734375,0,-0.01965332,-0.004760742,0.03100586,0,0,-0.007568359,0.3105164,4.034,0,0,0,0.2999878,nan,2,10.95,1,128,0.4547424,0.2216187,0.2377625,0.3279724,0.07128906,0.02148438,0,1,3,0
146.282,0.00101,-0.01171875,0.02539062,0.02929688,0.9375,4.445312,13.11719,0.01367188,-0.01757812,0.05664062,0.1171875,0.02929688,0,-0.01940918,-0.004882812,0.03149414,0,0,-0.007568359,0.3105164,4.034,0,0,0,0.2999878,nan,2,10.961,1,128,0.4380188,0.2320557,0.2327271,0.3392944,0.07128906,0.02148438,0,1,3,0
146.292,0.00101,-0.05859375,-0.03125,0.05859375,-2.171875,3.90625,13.75781,0,-0.0234375,0.05078125,0.1152344,0.02929688,0,-0.01916504,-0.005004883,0.03210449,0,0,-0.007568359,0.3105164,4.034,0,0,0,0.2999878,nan,2,10.971,1,128,0.4385071,0.2355042,0.216156,0.3518982,0.07128906,0.02246094,0,1,3,0
146.302,0.001007,0.02539062,-0.07421875,0.04882812,0.75,-4.695312,5.921875,-0.03320312,-0.04492188,0.03710938,0.1152344,0.03320312,0,-0.01940918,-0.005493164,0.0324707,0,0,-0.007568359,0.3105164,4.034,0,0,0,0.2999878,nan,2,10.981,1,128,0.4249573,0.2501526,0.2062683,0.3607178,0.07128906,0.02246094,0,1,3,0
146.312,0.00101,0.01757812,0.0625,-0.01171875,2.171875,0.34375,10.01562,0.01171875,0.01953125,-0.015625,0.1171875,0.03320312,0,-0.01953125,-0.005615234,0.0324707,0,0,-0.007568359,0.3105164,4.034,0,0,0,0.2999878,nan,2,10.991,1,128,0.3672485,0.2878723,0.1858521,0.4011536,0.07128906,0.02246094,0,1,3,0.01587302
146.322,0.001009,-0.0703125,0.02148438,-0.0625,-2.117188,2.59375,10.11719,0.01171875,-0.03710938,-0.046875,0.1152344,0.03515625,0,-0.01916504,-0.005859375,0.03210449,0,0,-0.007568359,0.3105164,4.034,0,0,0,0.2999878,nan,2,11.001,1,128,0.3718872,0.3059387,0.1523438,0.4119568,0.07226562,0.02246094,0,1,3,0
146.332,0.001,0.04882812,0,-0.0390625,2.28125,-2.476562,10.67188,0.02929688,-0.01953125,-0.03515625,0.1152344,0.03515625,0,-0.01904297,-0.005981445,0.03173828,0,0,-0.007568359,0.3105164,4.034,0,0,0,0.2999878,nan,2,11.011,1,128,0.4126587,0.2575989,0.2151794,0.3566895,0.07226562,0.02246094,0,1,3,0
146.342,0.001011,-0.08984375,0.001953125,-0.015625,-2.726562,0.75,9.71875,-0.05859375,0.03710938,-0.04101562,0.1152344,0.03515625,0,-0.01928711,-0.005981445,0.03125,0,0,-0.007568359,0.3105164,4.034,0,0,0,0.2999878,nan,2,11.021,1,128,0.4187317,0.2351379,0.20401,0.3842163,0.07226562,0.02246094,0,1,3,0.2539683
146.352,0.00101,-0.04882812,-0.05664062,-0.00390625,2.625,-0.046875,7.054688,-0.02734375,-0.0234375,-0.00390625,0.1171875,0.03515625,0,-0.01953125,-0.005981445,0.03112793,0,0,-0.007568359,0.3105164,4.034,0,0,0,0.2999878,nan,2,11.031,1,128,0.4393311,0.2422485,0.2140503,0.3464966,0.07226562,0.02246094,0,1,3,0
146.361,0.00101,0.05078125,-0.1035156,0.04492188,-1.289062,5.445312,13.75,-0.00390625,-0.046875,0.015625,0.1191406,0.03515625,0,-0.01977539,-0.005981445,0.03112793,0,0,-0.007568359,0.3105164,4.034,0,0,0,0.2999878,nan,2,11.04,1,128,0.4594116,0.234314,0.2366638,0.3117065,0.07226562,0.02246094,0,1,3,0
146.372,0.00101,-0.04101562,0.05273438,-0.08789062,0.4765625,-7.789062,7.40625,-0.01367188,-0.01953125,-0.04101562,0.1171875,0.03710938,0,-0.01965332,-0.006347656,0.03100586,0,0,-0.007568359,0.3105164,4.034,0,0,0,0.2999878,nan,2,11.05,1,128,0.3454285,0.3226318,0.1299438,0.4441223,0.07226562,0.02246094,0,1,3,0
146.382,0.001039,-0.00390625,0.1015625,0.009765625,0.2265625,4.21875,12.14062,-0.01367188,0.0234375,-0.0234375,0.1191406,0.03710938,0,-0.01977539,-0.006225586,0.03076172,0,0,-0.007568359,0.3105164,4.034,0,0,0,0.2999878,nan,2,11.061,1,128,0.4168396,0.2391357,0.2225037,0.3636169,0.07226562,0.02246094,0,1,3,0
146.392,0.001011,0.08007812,-0.01367188,0.03320312,-1.25,-3.15625,8.53125,0.04101562,0.0078125,0.0078125,0.1171875,0.03710938,0,-0.01953125,-0.006225586,0.03063965,0,0,-0.007568359,0.3105164,4.034,0,0,0,0.2999878,nan,2,11.071,1,128,0.4307251,0.2364502,0.2407227,0.3342285,0.07226562,0.02246094,0,1,3,0
146.402,0.000995,-0.1015625,-0.009765625,-0.00390625,1.84375,0.4765625,9.039062,0.01953125,-0.02148438,0.03125,0.1152344,0.0390625,0,-0.01904297,-0.006591797,0.03100586,0,0,-0.007568359,0.3105164,4.034,0,0,0,0.2999878,nan,2,11.081,1,128,0.4321594,0.2394409,0.2132874,0.3572083,0.07226562,0.02246094,0,1,3,0
146.412,0.000945,-0.046875,-0.01367188,-0.0078125,-1.601562,5.796875,16.08594,-0.00390625,-0.015625,0.005859375,0.1152344,0.04101562,0,-0.01904297,-0.006713867,0.03125,0,0,-0.007568359,0.3105164,4.034,0,0,0,0.2999878,nan,2,11.091,1,128,0.394989,0.278656,0.177124,0.3913269,0.07324219,0.02246094,0,1,3,0
146.422,0.001035,0.1289062,0.04882812,-0.02539062,0.5859375,-4.859375,6.125,0.03710938,-0.005859375,-0.0078125,0.1152344,0.0390625,0,-0.01916504,-0.006713867,0.03112793,0,0,-0.007568359,0.3105164,4.034,0,0,0,0.2999878,nan,2,11.101,1,128,0.3912048,0.2834473,0.2001953,0.3672485,0.07324219,0.02246094,0,1,3,0
146.432,0.001021,0.001953125,0.0390625,0.015625,0.0078125,2.023438,10.35938,0.009765625,-0.01171875,-0.001953125,0.1132812,0.04101562,0,-0.0189209,-0.006835938,0.03112793,0,0,-0.007568359,0.3105164,4.034,0,0,0,0.2999878,nan,2,11.111,1,128,0.4277344,0.2424316,0.215332,0.3566284,0.07324219,0.02246094,0,1,3,0
146.441,0.001011,0.0703125,0.03125,0,-2.273438,5.96875,13.6875,-0.00390625,0.015625,-0.0078125,0.1132812,0.04101562,0,-0.0189209,-0.006713867,0.03112793,0,0,-0.007568359,0.3105164,4.034,0,0,0,0.2999878,nan,2,11.12,1,128,0.3968811,0.2653503,0.1957703,0.3840942,0.07324219,0.02246094,0,1,3,0
146.451,0.000971,0.009765625,0.08984375,-0.005859375,1.460938,-4.398438,7.867188,0.005859375,0.04492188,-0.015625,0.1132812,0.0390625,0,-0.0189209,-0.006591797,0.03100586,0,0,-0.007568359,0.3105164,4.034,0,0,0,0.2999878,nan,2,11.13,1,128,0.3887329,0.2647705,0.1990051,0.3896179,0.07324219,0.02246094,0,1,3,0
146.461,0.001012,0.02539062,-0.05273438,-0.01171875,-3.039062,1.773438,12.44531,0.02148438,0.009765625,-0.01953125,0.1152344,0.03710938,0,-0.01904297,-0.006225586,0.03076172,0,0,-0.007568359,0.3105164,4.034,0,0,0,0.2999878,nan,2,11.14,1,128,0.4194336,0.2593994,0.2147217,0.3485107,0.07324219,0.02246094,0,1,3,0
146.471,0.00101,-0.0625,-0.078125,0,2.617188,-0.890625,6.046875,-0.05078125,-0.01757812,-0.0234375,0.1152344,0.03710938,0,-0.01916504,-0.006225586,0.03039551,0,0,-0.007568359,0.3105164,4.034,0,0,0,0.2999878,nan,2,11.15,1,128,0.4440308,0.2374573,0.2044678,0.3561707,0.07324219,0.02246094,0,1,3,0
146.482,0.00101,-0.00390625,0.02929688,-0.02539062,-2.367188,5.257812,11.80469,-0.01171875,-0.009765625,-0.0078125,0.1152344,0.0390625,0,-0.01928711,-0.006347656,0.03027344,0,0,-0.007568359,0.3105164,4.034,0,0,0,0.2999878,nan,2,11.16,1,128,0.4177856,0.2553711,0.2005615,0.3683777,0.07324219,0.02246094,0,1,3,0
146.492,0.00101,0.009765625,0.0234375,-0.009765625,0.7265625,-6.5,7.960938,0.0078125,-0.02539062,0,0.1152344,0.0390625,0,-0.01928711,-0.006469727,0.03027344,0,0,-0.007568359,0.3105164,4.034,0,0,0,0.2999878,nan,2,11.171,1,128,0.4193726,0.2584534,0.2080994,0.3561707,0.07421875,0.02246094,0,1,3,0
146.502,0.001016,0.05859375,0.01953125,0.0234375,-0.2109375,6.03125,15.17188,0.04492188,-0.0078125,0.01171875,0.1152344,0.0390625,0,-0.01916504,-0.006591797,0.03039551,0,0,-0.007568359,0.3105164,4.035,0,0,0,0.2999878,nan,2,11.181,1,128,0.4222107,0.245575,0.2302856,0.3440552,0.07421875,0.0234375,0,1,3,0
146.512,0.00101,-0.01953125,0.07421875,-0.01367188,-0.734375,-2.039062,8.648438,-0.01953125,0.03515625,-0.015625,0.1132812,0.04101562,0,-0.01904297,-0.006835938,0.03027344,0,0,-0.007568359,0.3105164,4.035,0,0,0,0.2999878,nan,2,11.191,1,128,0.3873901,0.2622681,0.1856689,0.4067993,0.07421875,0.0234375,0,1,3,0
146.522,0.001004,-0.01953125,0.009765625,0.04101562,1.234375,-0.4765625,10.28125,-0.05273438,0.04882812,0.005859375,0.1171875,0.0390625,0,-0.01953125,-0.006591797,0.03027344,0,0,-0.007568359,0.3105164,4.035,0,0,0,0.2999878,nan,2,11.201,1,128,0.4382324,0.2173462,0.23172,0.3547668,0.07421875,0.0234375,0,1,3,0
146.532,0.001005,-0.04882812,-0.06445312,0.03710938,-1.359375,0.328125,10.03125,-0.0234375,-0.0078125,0.03320312,0.1191406,0.03710938,0,-0.01989746,-0.006225586,0.03039551,0,0,-0.007568359,0.3105164,4.035,0,0,0,0.2999878,nan,2,11.211,1,128,0.4646606,0.2254333,0.2340698,0.3179321,0.07421875,0.0234375,0,1,3,0
146.542,0.001009,-0.05859375,0.00390625,-0.01757812,1.640625,-1.710938,5.929688,-0.0078125,0.001953125,0.005859375,0.1191406,0.03710938,0,-0.02001953,-0.006103516,0.03063965,0,0,-0.007568359,0.3105164,4.035,0,0,0,0.2999878,nan,2,11.221,1,128,0.3940735,0.2814331,0.1746826,0.3919067,0.07421875,0.0234375,0,1,3,0
146.552,0.00101,0.01367188,-0.0078125,-0.009765625,-0.53125,8.015625,17.375,0,-0.02539062,-0.00390625,0.1210938,0.03710938,0,-0.0201416,-0.006103516,0.03063965,0,0,-0.007568359,0.3105164,4.035,0,0,0,0.2999878,nan,2,11.231,1,128,0.4117737,0.2709961,0.1917725,0.3675842,0.07421875,0.0234375,0,1,3,0
146.561,0.00101,-0.0234375,0.1347656,-0.015625,0.0703125,-5.148438,5.789062,-0.02734375,0.04101562,-0.009765625,0.1191406,0.03710938,0,-0.02001953,-0.006225586,0.03063965,0,0,-0.007568359,0.3105164,4.035,0,0,0,0.2999878,nan,2,11.24,1,128,0.3896484,0.2556458,0.1844177,0.412384,0.07421875,0.0234375,0,1,3,0
146.572,0.001044,-0.02734375,0.05078125,-0.01757812,-0.03125,-1.601562,8.71875,-0.005859375,0.0390625,-0.02539062,0.1210938,0.03515625,0,-0.0201416,-0.005981445,0.03039551,0,0,-0.007568359,0.3105164,4.035,0,0,0,0.2999878,nan,2,11.25,1,128,0.3876648,0.2703247,0.1881409,0.3959961,0.07519531,0.0234375,0,1,3,0
146.582,0.000994,-0.00390625,-0.01953125,-0.00390625,-0.8671875,-1.570312,9.984375,0.02734375,0.009765625,-0.005859375,0.1210938,0.03515625,0,-0.0201416,-0.005859375,0.03027344,0,0,-0.007568359,0.3105164,4.035,0,0,0,0.2999878,nan,2,11.261,1,128,0.438324,0.2314453,0.2337952,0.3385315,0.07519531,0.0234375,0,1,3,0.01587302
146.592,0.000994,-0.08203125,-0.04882812,0,2.0625,2.335938,12.99219,-0.0546875,0.0078125,0.005859375,0.1210938,0.03515625,0,-0.0201416,-0.005859375,0.03015137,0,0,-0.007568359,0.3105164,4.035,0,0,0,0.2999878,nan,2,11.271,1,128,0.4526978,0.2217102,0.2079163,0.3597717,0.07519531,0.0234375,0,1,3,0
146.602,0.00101,0.02929688,-0.05078125,0.009765625,-1.804688,-2.375,8,0,-0.02148438,0.009765625,0.1210938,0.03515625,0,-0.02026367,-0.005859375,0.03027344,0,0,-0.007568359,0.3105164,4.035,0,0,0,0.2999878,nan,2,11.281,1,128,0.4344788,0.2489929,0.2121582,0.3464661,0.07519531,0.0234375,0,1,3,0
146.612,0.00101,-0.03710938,-0.015625,0.001953125,2.359375,1.242188,8.75,0.015625,-0.01953125,0.015625,0.1210938,0.03515625,0,-0.02026367,-0.005859375,0.03039551,0,0,-0.007568359,0.3105164,4.035,0,0,0,0.2999878,nan,2,11.291,1,128,0.4138489,0.2643127,0.1973572,0.3666077,0.07519531,0.0234375,0,1,3,0
146.622,0.001014,0.03125,0.02539062,0.02148438,-2.921875,3.742188,13.78125,-0.03320312,0.01953125,0.009765625,0.1230469,0.03515625,0,-0.02050781,-0.005859375,0.03051758,0,0,-0.007568359,0.3105164,4.035,0,0,0,0.2999878,nan,2,11.301,1,128,0.4247437,0.2390747,0.2084351,0.369873,0.07519531,0.0234375,0,1,3,0
146.632,0.001014,-0.01953125,0.0078125,0.03320312,1.15625,-2.617188,6.625,0.009765625,0.0078125,0.015625,0.1230469,0.03515625,0,-0.02038574,-0.005859375,0.03063965,0,0,-0.007568359,0.3105164,4.035,0,0,0,0.2999878,nan,2,11.311,1,128,0.4300232,0.2398987,0.2185059,0.3536682,0.07519531,0.0234375,0,1,3,0
146.642,0.001007,0.03515625,-0.09375,-0.01367188,0.0078125,3.765625,14.3125,-0.01367188,-0.009765625,0.00390625,0.1210938,0.03515625,0,-0.02026367,-0.005859375,0.03088379,0,0,-0.007568359,0.3105164,4.035,0,0,0,0.2999878,nan,2,11.321,1,128,0.4041748,0.2753601,0.1704407,0.3921204,0.07519531,0.0234375,0,1,3,0
146.652,0.001008,0.02539062,-0.08398438,-0.04882812,-0.84375,-7.0625,7.1875,0.01757812,-0.03710938,-0.01757812,0.1210938,0.03515625,0,-0.02026367,-0.005859375,0.03076172,0,0,-0.007568359,0.3105164,4.035,0,0,0,0.2999878,nan,2,11.331,1,128,0.401062,0.2922668,0.1723022,0.3764954,0.07617188,0.0234375,0,1,3,0.2539683
146.661,0.001008,0.0234375,0,-0.015625,2.1875,4.320312,12.0625,-0.001953125,-0.015625,-0.01367188,0.1230469,0.03515625,0,-0.02038574,-0.005859375,0.03051758,0,0,-0.007568359,0.3105164,4.035,0,0,0,0.2999878,nan,2,11.34,1,128,0.4220581,0.2568359,0.1998901,0.3632812,0.07617188,0.0234375,0,1,3,0
146.671,0.000964,-0.06835938,0.06054688,-0.05078125,-1.171875,-1.132812,6.84375,-0.02539062,0.009765625,-0.03710938,0.1210938,0.03515625,0,-0.02026367,-0.005859375,0.03039551,0,0,-0.007568359,0.3105164,4.035,0,0,0,0.2999878,nan,2,11.35,1,128,0.3719482,0.2923584,0.1479187,0.4298706,0.07617188,0.0234375,0,1,3,0
146.682,0.001012,0.03320312,0.03710938,0.05078125,0.8046875,0.28125,11.77344,-0.001953125,0.03710938,0.01171875,0.1230469,0.03515625,0,-0.02038574,-0.005737305,0.03027344,0,0,-0.007568359,0.3105164,4.035,0,0,0,0.2999878,nan,2,11.36,1,128,0.4588318,0.2000122,0.2583923,0.3248901,0.07617188,0.0234375,0,1,3,0
146.692,0.001012,-0.05273438,-0.01757812,0.015625,-1.445312,-0.7578125,9.609375,-0.0234375,0.005859375,0.005859375,0.1230469,0.03320312,0,-0.02050781,-0.005493164,0.03039551,0,0,-0.007568359,0.3101807,4.035,0,0,0,0.2996216,nan,2,11.371,1,128,0.4310303,0.2463684,0.1987915,0.364563,0.07617188,0.0234375,0,1,3,0
146.702,0.001012,-0.00390625,0.01367188,0.01757812,2.367188,-0.21875,8.625,0.01757812,-0.0078125,0.0234375,0.1230469,0.03320312,0,-0.02062988,-0.005371094,0.03051758,0,0,-0.007568359,0.3085022,4.035,0,0,0,0.2976074,nan,2,11.381,1,128,0.4433594,0.2295532,0.2273865,0.3337097,0.07617188,0.0234375,0,1,3,0
146.712,0.001009,-0.09960938,0.09960938,0.0078125,-1.289062,7.625,15.10156,-0.03515625,0.01953125,0.02929688,0.1230469,0.03320312,0,-0.02062988,-0.005371094,0.03076172,0,0,-0.007568359,0.3068237,4.035,0,0,0,0.2955933,nan,2,11.391,1,128,0.427948,0.2243958,0.2039795,0.3709412,0.07617188,0.0234375,0,1,3,0
146.722,0.001012,0,0.08203125,0,1.6875,-4.109375,5.484375,-0.03125,0.046875,0,0.1269531,0.03125,0,-0.02099609,-0.005126953,0.03088379,0,0,-0.007568359,0.3049622,4.035,0,0,0,0.293396,nan,2,11.401,1,128,0.3822021,0.2597046,0.1781921,0.3997803,0.07714844,0.0234375,0,1,3,0
146.732,0.001014,-0.0625,-0.03320312,0.0078125,-1.929688,1.109375,12.40625,-0.03125,0.02148438,-0.009765625,0.1269531,0.02929688,0,-0.02124023,-0.005004883,0.03088379,0,0,-0.007568359,0.3032837,4.035,0,0,0,0.2913818,nan,2,11.411,1,128,0.3992004,0.2538147,0.1738892,0.3862,0.07714844,0.0234375,0,1,3,0
146.742,0.000989,-0.03125,-0.015625,0.015625,0.828125,-3.6875,4.515625,0.0078125,-0.001953125,0.009765625,0.1269531,0.02929688,0,-0.0213623,-0.005004883,0.03088379,0,0,-0.007568359,0.3016052,4.035,0,0,0,0.2894287,nan,2,11.421,1,128,0.4364624,0.2224426,0.215271,0.3322144,0.07714844,0.0234375,0,1,3,0
146.752,0.001014,-0.08398438,-0.04101562,-0.015625,-0.9296875,3.859375,12.67188,-0.01757812,-0.0078125,-0.00390625,0.1269531,0.02929688,0,-0.02111816,-0.005004883,0.03088379,0,0,-0.007568359,0.2999268,4.035,0,0,0,0.2874146,nan,2,11.431,1,128,0.4036865,0.2541199,0.1603394,0.3814697,0.07714844,0.0234375,0,1,3,0
146.761,0.00101,-0.01367188,0.01757812,-0.02734375,1.21875,-2.140625,7.085938,0.01367188,-0.001953125,-0.01367188,0.1269531,0.02929688,0,-0.02111816,-0.004882812,0.03076172,0,0,-0.007568359,0.2984009,4.035,0,0,0,0.2855835,nan,2,11.44,1,128,0.3995056,0.2498474,0.1819153,0.3623352,0.07714844,0.0234375,0,1,3,0
146.771,0.00101,-0.0625,0.0390625,0.02148438,-2.234375,3.257812,15.6875,-0.01757812,0.03320312,0.0078125,0.125,0.02929688,0,-0.02099609,-0.004882812,0.03088379,0,0,-0.007568359,0.2967224,4.035,0,0,0,0.2835693,nan,2,11.45,1,128,0.4101257,0.220459,0.1912231,0.3650513,0.07714844,0.0234375,0,1,3,0
146.782,0.00101,0.0234375,-0.04882812,0.02539062,2.101562,0.2578125,7.617188,0.001953125,0.005859375,0.01757812,0.1269531,0.02734375,0,-0.02111816,-0.004638672,0.03100586,0,0,-0.007568359,0.2950439,4.035,0,0,0,0.2816162,nan,2,11.46,1,128,0.42453,0.2232056,0.1994629,0.3329163,0.07714844,0.0234375,0,1,3,0
146.792,0.00101,-0.01171875,-0.05273438,0.01757812,-1.804688,4.304688,10.90625,0,0.009765625,-0.01367188,0.125,0.02734375,0,-0.02087402,-0.004516602,0.03100586,0,0,-0.007568359,0.293335,4.035,0,0,0,0.2796021,nan,2,11.471,1,128,0.3931274,0.2472534,0.1644897,0.3684998,0.07714844,0.0234375,0,1,3,0
146.802,0.00101,-0.09765625,0.0078125,-0.02929688,1.671875,0.0234375,11.07031,-0.06054688,0,-0.02734375,0.1269531,0.02734375,0,-0.02111816,-0.004394531,0.03076172,0,0,-0.007568359,0.2916565,4.035,0,0,0,0.2775879,nan,2,11.481,1,128,0.3863525,0.2504883,0.139801,0.3900146,0.078125,0.0234375,0,1,3,0
146.812,0.00101,0.03125,0.02148438,-0.02929688,0.4296875,-7.273438,4.007812,0,-0.00390625,-0.01367188,0.1289062,0.02734375,0,-0.0213623,-0.004394531,0.03063965,0,0,-0.007568359,0.289978,4.035,0,0,0,0.2755737,nan,2,11.491,1,128,0.3825989,0.2493591,0.1670532,0.3609314,0.078125,0.0234375,0,1,3,0
146.822,0.00101,0.0546875,-0.005859375,-0.0234375,-1.429688,2.1875,11.35938,0.03125,-0.001953125,-0.02929688,0.1289062,0.02539062,0,-0.0213623,-0.004394531,0.03039551,0,0,-0.007568359,0.2881165,4.035,0,0,0,0.2733765,nan,2,11.501,1,128,0.3760986,0.2523804,0.1710205,0.3530273,0.078125,0.0234375,0,1,3,0
146.832,0.001013,-0.015625,-0.05078125,0.02734375,0.7109375,2.664062,12.21094,0.01171875,0.001953125,-0.00390625,0.1269531,0.02734375,0,-0.02124023,-0.004394531,0.03027344,0,0,-0.007568359,0.286438,4.035,0,0,0,0.2714233,nan,2,11.511,1,128,0.4216614,0.2016602,0.1983032,0.3241272,0.078125,0.0234375,0,1,3,0
146.842,0.00101,-0.0234375,0.03125,-0.015625,-0.1796875,-8.984375,3.476562,-0.01367188,-0.02148438,0,0.1269531,0.02734375,0,-0.02111816,-0.004516602,0.03027344,0,0,-0.007568359,0.2847595,4.035,0,0,0,0.2694092,nan,2,11.521,1,128,0.4058533,0.2190857,0.1646423,0.3494568,0.078125,0.0234375,0,1,3,0.4920635
146.852,0.00101,0.005859375,0.09179688,-0.04101562,-1.5,1.609375,10.13281,0.009765625,0.01757812,-0.04882812,0.1269531,0.02734375,0,-0.0213623,-0.004760742,0.02990723,0,0,-0.007568359,0.2830811,4.035,0,0,0,0.267395,nan,2,11.531,1,128,0.3367004,0.2648926,0.1369324,0.3937683,0.078125,0.02441406,0,1,3,0
146.862,0.00101,0.03125,0.001953125,-0.02148438,-2.226562,-0.59375,11.03906,0.02539062,-0.015625,-0.01171875,0.1269531,0.02929688,0,-0.02099609,-0.004760742,0.02966309,0,0,-0.007568359,0.2814026,4.035,0,0,0,0.2653809,nan,2,11.541,1,128,0.4046936,0.2123718,0.1832581,0.3252258,0.078125,0.02441406,0,1,3,0
146.871,0.001008,-0.03125,0.01757812,0.03125,1.070312,2.585938,8.976562,0.001953125,0.01367188,0.001953125,0.1269531,0.02929688,0,-0.02124023,-0.004882812,0.02966309,0,0,-0.007568359,0.2798767,4.035,0,0,0,0.2636108,nan,2,11.55,1,128,0.4114685,0.1911011,0.1976624,0.3192139,0.07910156,0.02441406,0,1,3,0.1269841
146.881,0.001008,-0.09765625,-0.0546875,0.00390625,0.203125,-6.171875,2.960938,-0.07617188,-0.0390625,-0.001953125,0.1308594,0.03125,0,-0.02172852,-0.005126953,0.02966309,0,0,-0.007568359,0.2781982,4.035,0,0,0,0.2615967,nan,2,11.56,1,128,0.3952637,0.223938,0.1380615,0.3554993,0.07910156,0.02441406,0,1,3,0
146.892,0.001038,-0.015625,0.005859375,0.00390625,-1.03125,-1.664062,6.210938,-0.07617188,-0.015625,0.015625,0.1367188,0.03125,0,-0.02258301,-0.005249023,0.02978516,0,0,-0.007568359,0.2765198,4.035,0,0,0,0.2595825,nan,2,11.571,1,128,0.4123535,0.1930542,0.1802979,0.320343,0.07910156,0.02441406,0,1,3,0
146.902,0.001037,0,-0.06835938,-0.02929688,-0.4140625,3.59375,13.91406,-0.01367188,-0.02929688,-0.0078125,0.1386719,0.03320312,0,-0.02307129,-0.005493164,0.02978516,0,0,-0.007568359,0.2748108,4.035,0,0,0,0.2576294,nan,2,11.581,1,128,0.3623657,0.2460938,0.1405945,0.3502197,0.07910156,0.02441406,0,1,3,0
146.912,0.001008,0.0546875,0,-0.04882812,0.3671875,3.445312,15.64844,0.04296875,-0.01171875,-0.03515625,0.1367188,0.03320312,0,-0.02294922,-0.005615234,0.02954102,0,0,-0.007568359,0.2731323,4.035,0,0,0,0.2556152,nan,2,11.591,1,128,0.3383484,0.2589722,0.1266174,0.3686218,0.07910156,0.02441406,0,1,3,0
146.922,0.001008,-0.02929688,-0.07617188,-0.02734375,1.59375,5.421875,11.75781,-0.00390625,-0.01953125,-0.02539062,0.1367188,0.03515625,0,-0.02294922,-0.005737305,0.02929688,0,0,-0.007568359,0.2714539,4.035,0,0,0,0.2536011,nan,2,11.601,1,128,0.3839722,0.2187805,0.1461487,0.3369141,0.07910156,0.02441406,0,1,3,0
146.932,0.001013,-0.02929688,-0.046875,-0.03515625,0.1171875,-4.671875,7.34375,-0.03710938,-0.02734375,-0.04492188,0.1386719,0.03710938,0,-0.02319336,-0.006103516,0.02893066,0,0,-0.007568359,0.2695923,4.035,0,0,0,0.2514038,nan,2,11.611,1,128,0.3684998,0.2263489,0.1281128,0.3554382,0.08007812,0.02441406,0,1,3,0
146.942,0.001005,0.09375,-0.005859375,-0.01953125,1.382812,1.398438,5.734375,0.0390625,-0.00390625,-0.03710938,0.140625,0.0390625,0,-0.02331543,-0.006347656,0.02844238,0,0,-0.007568359,0.2679138,4.035,0,0,0,0.2493896,nan,2,11.621,1,128,0.3825684,0.2013855,0.1820068,0.3056946,0.08007812,0.02441406,0,1,3,0
146.952,0.001008,0.0625,0.08398438,-0.07421875,0.96875,-2.195312,9.953125,0.0078125,0.015625,-0.046875,0.1386719,0.0390625,0,-0.02319336,-0.006469727,0.02807617,0,0,-0.007568359,0.2662354,4.035,0,0,0,0.2473755,nan,2,11.631,1,128,0.3283691,0.2453308,0.1155396,0.3756714,0.08007812,0.02441406,0,1,3,0.0952381
146.961,0.001012,-0.0546875,0.05664062,-0.06445312,0.1484375,-6.265625,3.710938,0.0234375,0.01953125,-0.06445312,0.1386719,0.0390625,0,-0.02294922,-0.006347656,0.02758789,0,0,-0.007568359,0.2647095,4.035,0,0,0,0.2456055,nan,2,11.64,1,128,0.3434753,0.2309875,0.1233215,0.361084,0.08007812,0.02441406,0,1,3,0
146.971,0.000991,-0.1113281,-0.07226562,-0.01171875,2.179688,4.351562,10.53906,-0.04101562,-0.00390625,-0.01953125,0.1386719,0.03710938,0,-0.02307129,-0.006225586,0.02709961,0,0,-0.007568359,0.263031,4.035,0,0,0,0.2435913,nan,2,11.65,1,128,0.4258423,0.1623535,0.1639709,0.2999878,0.08007812,0.02441406,0,1,3,0
146.982,0.001012,-0.046875,-0.0234375,-0.09570312,0.8828125,2.835938,15.04688,0.04882812,0.015625,-0.07421875,0.1367188,0.03710938,0,-0.02282715,-0.006225586,0.0267334,0,0,-0.007568359,0.2613525,4.035,0,0,0,0.2415771,nan,2,11.66,1,128,0.2821045,0.2861023,0.07299805,0.4041748,0.08007812,0.02441406,0,1,3,0
146.992,0.001012,-0.06054688,0.04882812,-0.05859375,0.28125,4.945312,13.53125,-0.05664062,0,-0.07421875,0.1386719,0.03710938,0,-0.02331543,-0.006225586,0.02600098,0,0,-0.007568359,0.2596741,4.035,0,0,0,0.239624,nan,2,11.671,1,128,0.3565063,0.2145386,0.1088867,0.3587341,0.08007812,0.02441406,0,1,3,0
147.002,0.001017,0.005859375,0.1015625,-0.06054688,-1.085938,-2.84375,10.82812,0.01367188,0.03125,-0.05664062,0.140625,0.03710938,0,-0.02331543,-0.006225586,0.02539062,0,0,-0.007568359,0.2579651,4.035,0,0,0,0.2376099,nan,2,11.681,1,128,0.3392944,0.213501,0.1324158,0.3467102,0.08105469,0.02441406,0,1,3,0
147.012,0.001013,0.08398438,-0.05859375,-0.03125,-0.65625,-5.242188,1.492188,0.0078125,0,-0.046875,0.140625,0.03710938,0,-0.02331543,-0.006103516,0.02490234,0,0,-0.007568359,0.2562866,4.035,0,0,0,0.2355957,nan,2,11.691,1,128,0.3735352,0.1983032,0.14505,0.3083191,0.08105469,0.02441406,0,1,3,0
147.022,0.001013,0.04296875,0.06835938,-0.07421875,0.6484375,-0.8828125,7.539062,0.02734375,0.0234375,-0.04296875,0.1386719,0.03710938,0,-0.02319336,-0.006225586,0.02453613,0,0,-0.007568359,0.2546082,4.035,0,0,0,0.2335815,nan,2,11.701,1,128,0.3233643,0.2230835,0.1136475,0.3583069,0.08105469,0.02441406,0,1,3,0
147.032,0.001008,0,-0.009765625,-0.1113281,1.09375,5.148438,15.17969,0.01953125,-0.0078125,-0.0859375,0.1386719,0.03710938,0,-0.02307129,-0.006225586,0.02392578,0,0,-0.007568359,0.2527466,4.035,0,0,0,0.2313843,nan,2,11.711,1,128,0.2969055,0.2666626,0.06396484,0.3834839,0.08105469,0.02441406,0,1,3,0
147.042,0.001044,-0.1035156,-0.08984375,-0.046875,-0.4453125,-2.015625,10.05469,-0.0546875,-0.046875,-0.05664062,0.140625,0.0390625,0,-0.02331543,-0.006469727,0.02319336,0,0,-0.007568359,0.2510681,4.035,0,0,0,0.2293701,nan,2,11.721,1,128,0.3927002,0.1783447,0.1233521,0.3098755,0.08105469,0.02441406,0,1,3,0
147.051,0.001045,0.01367188,0.001953125,-0.04101562,-1.328125,-9.734375,2.492188,-0.009765625,-0.04492188,-0.0390625,0.1425781,0.04296875,0,-0.02380371,-0.006958008,0.02282715,0,0,-0.007568359,0.2495422,4.035,0,0,0,0.2276001,nan,2,11.73,1,128,0.3623962,0.1934509,0.1353149,0.3070679,0.08105469,0.02441406,0,1,3,0.1904762
147.061,0.000982,-0.07226562,-0.0234375,-0.109375,-0.0234375,4.710938,14.38281,0.0078125,-0.001953125,-0.08984375,0.1425781,0.04296875,0,-0.02368164,-0.007080078,0.02209473,0,0,-0.007568359,0.2478638,4.035,0,0,0,0.2255859,nan,2,11.74,1,128,0.2863159,0.2607117,0.05361938,0.3908386,0.08105469,0.02539062,0,1,3,0
147.071,0.001011,0.1132812,0.05078125,-0.1386719,0.7265625,-2.203125,4.203125,0.09765625,0.01367188,-0.1035156,0.140625,0.04296875,0,-0.02331543,-0.007080078,0.02124023,0,0,-0.007568359,0.2461853,4.035,0,0,0,0.2235718,nan,2,11.75,1,128,0.2778625,0.2653809,0.07867432,0.362854,0.08203125,0.02539062,0,1,3,0
147.081,0.00101,-0.08789062,-0.05078125,-0.09570312,-0.3359375,-2.054688,11.32812,0.01367188,0.009765625,-0.1074219,0.1367188,0.04101562,0,-0.02282715,-0.006713867,0.0201416,0,0,-0.007568359,0.2445068,4.035,0,0,0,0.2216187,nan,2,11.76,1,128,0.3416443,0.2080688,0.09094238,0.3373413,0.08203125,0.02539062,0,1,3,0
147.092,0.001034,0.04492188,0.03515625,-0.07617188,0.359375,2.421875,13.55469,0.02734375,0.01757812,-0.08203125,0.1367188,0.04101562,0,-0.02282715,-0.006713867,0.01916504,0,0,-0.007568359,0.2428284,4.035,0,0,0,0.2196045,nan,2,11.771,1,128,0.3461914,0.1878662,0.1271057,0.3101196,0.08203125,0.02539062,0,1,3,0
147.102,0.001031,0.005859375,-0.0078125,-0.1054688,0.8125,-1.992188,5.070312,-0.03125,-0.001953125,-0.09179688,0.1367188,0.04101562,0,-0.02282715,-0.006958008,0.01831055,0,0,-0.007568359,0.2411499,4.035,0,0,0,0.2175903,nan,2,11.781,1,128,0.3242188,0.2095337,0.08120728,0.3495789,0.08203125,0.02539062,0,1,3,0
147.112,0.001021,-0.06445312,0.001953125,-0.08789062,-0.953125,-2.859375,8.289062,-0.03320312,-0.01367188,-0.09960938,0.1367188,0.04296875,0,-0.02282715,-0.007080078,0.01733398,0,0,-0.007568359,0.2394409,4.035,0,0,0,0.2155762,nan,2,11.791,1,128,0.3375854,0.1958008,0.08712769,0.3372803,0.08203125,0.02539062,0,1,3,0
147.122,0.001021,0.02148438,-0.1015625,-0.08203125,-0.859375,-0.65625,13.76562,0.01757812,-0.01367188,-0.078125,0.1386719,0.04296875,0,-0.02294922,-0.007202148,0.01660156,0,0,-0.007568359,0.2376099,4.035,0,0,0,0.2133789,nan,2,11.801,1,128,0.3238831,0.2120972,0.09484863,0.3195496,0.08203125,0.02539062,0,1,3,0
147.132,0.00101,0.15625,-0.02539062,-0.07421875,1.617188,8.132812,14.03906,0.01367188,0.005859375,-0.06835938,0.1386719,0.04296875,0,-0.02331543,-0.007324219,0.01586914,0,0,-0.007568359,0.2359009,4.035,0,0,0,0.2114258,nan,2,11.811,1,128,0.3226013,0.202301,0.1047058,0.3140259,0.08203125,0.02539062,0,1,3,0
147.142,0.001011,-0.015625,-0.00390625,-0.0625,-0.203125,-0.4765625,11.69531,0.0078125,-0.001953125,-0.0625,0.140625,0.04296875,0,-0.02331543,-0.007324219,0.01525879,0,0,-0.007568359,0.2342224,4.035,0,0,0,0.2094116,nan,2,11.821,1,128,0.3407593,0.1844177,0.1099854,0.3017273,0.08300781,0.02539062,0,1,3,0
147.152,0.001011,-0.0390625,0.03710938,-0.0859375,-0.75,-1.046875,8.390625,-0.01953125,0.001953125,-0.08203125,0.140625,0.04492188,0,-0.0234375,-0.007324219,0.01452637,0,0,-0.007568359,0.2325439,4.046,0,0,0,0.2073975,nan,2,11.831,1,128,0.315155,0.2028198,0.07336426,0.3388367,0.08300781,0.02539062,0,1,3,0
147.161,0.00101,-0.02539062,-0.0390625,-0.04882812,0.328125,-1.875,6.328125,-0.0078125,-0.01953125,-0.0546875,0.140625,0.04492188,0,-0.02355957,-0.007324219,0.01391602,0,0,-0.007568359,0.2310181,4.046,0,0,0,0.2056274,nan,2,11.84,1,128,0.3637695,0.1646118,0.1149902,0.2807312,0.08300781,0.02539062,0,1,3,0
147.171,0.00101,-0.005859375,-0.00390625,-0.08984375,-0.59375,-0.625,5.414062,-0.0234375,0.001953125,-0.07226562,0.140625,0.04492188,0,-0.02355957,-0.007446289,0.01330566,0,0,-0.007568359,0.2293396,4.046,0,0,0,0.2036133,nan,2,11.85,1,128,0.3118896,0.199646,0.06680298,0.3390503,0.08300781,0.02539062,0,1,3,0
147.182,0.00101,-0.07421875,0.009765625,-0.08203125,1.210938,6.9375,7.242188,-0.01367188,0.01171875,-0.08203125,0.140625,0.04492188,0,-0.02355957,-0.007446289,0.01245117,0,0,-0.007568359,0.2276611,4.046,0,0,0,0.2015991,nan,2,11.86,1,128,0.3130188,0.1921082,0.0737915,0.3317566,0.08300781,0.02539062,0,1,3,0.1428571
147.192,0.001045,0.01171875,0.01757812,-0.0625,0.7109375,-1.023438,14.1875,0,0.001953125,-0.0546875,0.1425781,0.04492188,0,-0.02368164,-0.007324219,0.01184082,0,0,-0.007568359,0.2259827,4.046,0,0,0,0.199585,nan,2,11.871,1,128,0.3426208,0.1679077,0.1025696,0.2908325,0.08300781,0.02539062,0,1,3,0
147.202,0.00101,0.001953125,-0.02539062,-0.06054688,0.0078125,2.039062,10.21875,-0.005859375,-0.001953125,-0.06640625,0.1425781,0.04492188,0,-0.02368164,-0.007324219,0.01123047,0,0,-0.007568359,0.2243042,4.046,0,0,0,0.1975708,nan,2,11.881,1,128,0.321167,0.1871948,0.07299805,0.3157959,0.08300781,0.02539062,0,1,3,0
147.212,0.001007,0,0.03320312,-0.07226562,-0.5625,-3.085938,15.55469,0.015625,0.001953125,-0.0625,0.140625,0.04492188,0,-0.02355957,-0.007446289,0.01074219,0,0,-0.007568359,0.2225952,4.046,0,0,0,0.1956177,nan,2,11.891,1,128,0.2946472,0.2032166,0.06222534,0.3303528,0.08398438,0.02539062,0,1,3,0
147.222,0.00101,-0.046875,0.01757812,-0.03320312,-0.7265625,1.953125,12.84375,-0.015625,-0.01757812,-0.04492188,0.140625,0.04492188,0,-0.02355957,-0.007568359,0.01013184,0,0,-0.007568359,0.2209167,4.046,0,0,0,0.1936035,nan,2,11.901,1,128,0.3572083,0.1440125,0.1053162,0.2771606,0.08398438,0.02539062,0,1,3,0
147.232,0.00101,-0.04296875,-0.04296875,-0.03710938,-0.9375,-5.4375,9.171875,-0.01171875,-0.02734375,-0.04296875,0.1425781,0.046875,0,-0.02368164,-0.00769043,0.009643555,0,0,-0.007568359,0.2190857,4.046,0,0,0,0.1914062,nan,2,11.911,1,128,0.3417664,0.1598206,0.08764648,0.2870483,0.08398438,0.02539062,0,1,3,0
147.242,0.001011,-0.08984375,0.02929688,-0.06445312,-0.5390625,-5.875,1.507812,-0.001953125,0,-0.05859375,0.140625,0.04882812,0,-0.02331543,-0.008056641,0.009155273,0,0,-0.007568359,0.2173767,4.046,0,0,0,0.1893921,nan,2,11.921,1,128,0.3010254,0.1783447,0.05480957,0.3353577,0.08398438,0.02539062,0,1,3,0
147.252,0.001019,0.0234375,0.0078125,-0.08007812,-0.1484375,-8.289062,8.171875,0.02539062,-0.01953125,-0.06640625,0.1386719,0.05078125,0,-0.02319336,-0.008300781,0.008544922,0,0,-0.007568359,0.2156982,4.046,0,0,0,0.1873779,nan,2,11.931,1,128,0.3013916,0.188324,0.06362915,0.3094788,0.08398438,0.02539062,0,1,3,0
147.262,0.00101,0.03125,-0.05859375,-0.07617188,-1.164062,2.773438,14.42188,-0.00390625,-0.001953125,-0.07226562,0.1386719,0.04882812,0,-0.02319336,-0.008056641,0.0078125,0,0,-0.007568359,0.2140198,4.046,0,0,0,0.1854248,nan,2,11.941,1,128,0.3162231,0.1807251,0.06289673,0.2962341,0.08398438,0.02539062,0,1,3,0
147.271,0.001001,-0.03515625,0.109375,-0.06445312,-0.609375,-8.289062,6.828125,-0.005859375,0.01757812,-0.06054688,0.1386719,0.04882812,0,-0.02307129,-0.008300781,0.007202148,0,0,-0.007568359,0.2124939,4.046,0,0,0,0.1835938,nan,2,11.95,1,128,0.3172913,0.1506348,0.08139038,0.3007202,0.08398438,0.02636719,0,1,3,0
147.281,0.000996,0.01953125,-0.07421875,-0.08007812,-0.984375,-4.273438,3.34375,0.015625,-0.0234375,-0.08203125,0.1386719,0.04882812,0,-0.02294922,-0.008178711,0.006469727,0,0,-0.007568359,0.2108154,4.046,0,0,0,0.1815796,nan,2,11.96,1,128,0.2997437,0.1947632,0.04351807,0.3052368,0.08496094,0.02636719,0,1,3,0
147.292,0.001007,-0.001953125,0.0078125,-0.06054688,0.1953125,-6.570312,16.69531,-0.015625,0.01171875,-0.06640625,0.1386719,0.04882812,0,-0.02294922,-0.008300781,0.005859375,0,0,-0.007568359,0.209137,4.046,0,0,0,0.1796265,nan,2,11.971,1,128,0.3165283,0.151825,0.07382202,0.294342,0.08496094,0.02636719,0,1,3,0
147.302,0.001059,-0.009765625,-0.01367188,-0.06445312,1.148438,-1.585938,8.734375,-0.005859375,-0.01953125,-0.05664062,0.1386719,0.04882812,0,-0.02307129,-0.008300781,0.005249023,0,0,-0.007568359,0.2074585,4.046,0,0,0,0.1776123,nan,2,11.981,1,128,0.3248291,0.1565552,0.07095337,0.2774963,0.08496094,0.02636719,0,1,3,0
147.312,0.00101,0.08203125,0,-0.0703125,1.203125,-2.132812,12.71875,0.0078125,-0.00390625,-0.046875,0.1386719,0.04882812,0,-0.02319336,-0.008300781,0.004760742,0,0,-0.007568359,0.20578,4.046,0,0,0,0.1755981,nan,2,11.991,1,128,0.3048706,0.1650696,0.0713501,0.2817383,0.08496094,0.02636719,0,1,3,0
147.322,0.00101,-0.07226562,0.0546875,-0.05273438,-0.15625,6.429688,9.679688,-0.03125,0.00390625,-0.046875,0.1386719,0.05078125,0,-0.02307129,-0.008300781,0.004272461,0,0,-0.007568359,0.204071,4.046,0,0,0,0.173584,nan,2,12.001,1,128,0.3192139,0.1417542,0.0637207,0.2916565,0.08496094,0.02636719,0,1,3,0
147.332,0.001009,0.05859375,0.04101562,-0.02539062,-1.796875,-4.953125,7.554688,0.009765625,0.0078125,-0.03320312,0.1386719,0.05078125,0,-0.02319336,-0.008422852,0.00390625,0,0,-0.007568359,0.20224,4.046,0,0,0,0.1713867,nan,2,12.011,1,128,0.3136902,0.1419983,0.08258057,0.2706299,0.08496094,0.02636719,0,1,3,0
147.342,0.001006,0.04492188,0.00390625,-0.05078125,1.335938,-0.9609375,12.95312,0.01757812,-0.005859375,-0.04101562,0.1367188,0.05078125,0,-0.02294922,-0.008422852,0.003540039,0,0,-0.007568359,0.200531,4.046,0,0,0,0.1693726,nan,2,12.021,1,128,0.296814,0.164978,0.05163574,0.2887573,0.08496094,0.02636719,0,1,3,0
147.352,0.001013,-0.03125,0.03125,-0.09960938,1.484375,2.140625,8.28125,0,-0.0078125,-0.0703125,0.1367188,0.05078125,0,-0.02270508,-0.008422852,0.003051758,0,0,-0.007568359,0.1988525,4.046,0,0,0,0.1674194,nan,2,12.031,1,128,0.2673035,0.1889648,0.01501465,0.3241882,0.08496094,0.02636719,0,1,3,0
147.362,0.00101,0.05664062,-0.01171875,-0.06445312,-0.015625,2.921875,6.5625,0.0234375,-0.02148438,-0.06445312,0.1367188,0.05078125,0,-0.02270508,-0.008544922,0.002319336,0,0,-0.007568359,0.1971741,4.046,0,0,0,0.1654053,nan,2,12.041,1,128,0.2982483,0.1608582,0.05603027,0.2735596,0.0859375,0.02636719,0,1,3,0
147.371,0.00101,0.078125,0.0546875,-0.02929688,-0.9375,0.8046875,6.539062,0.02734375,0.009765625,-0.0546875,0.1347656,0.05078125,0,-0.02258301,-0.008544922,0.001831055,0,0,-0.007568359,0.1956482,4.046,0,0,0,0.1635742,nan,2,12.05,1,128,0.3098755,0.1322021,0.08319092,0.2573853,0.0859375,0.02636719,0,1,3,0
147.381,0.00101,0.04492188,0.03125,-0.0546875,-1.476562,-10.14844,8.273438,0.01757812,-0.00390625,-0.06640625,0.1347656,0.05078125,0,-0.02233887,-0.008666992,0.001220703,0,0,-0.007568359,0.1939697,4.046,0,0,0,0.1616211,nan,2,12.06,1,128,0.2907715,0.1564636,0.04656982,0.282135,0.0859375,0.02636719,0,1,3,0
147.392,0.00101,0.046875,-0.005859375,-0.03515625,2.1875,4.28125,7.0625,0.02734375,0.00390625,-0.04882812,0.1347656,0.05078125,0,-0.02233887,-0.008544922,0.0006103516,0,0,-0.007568359,0.1922913,4.046,0,0,0,0.1596069,nan,2,12.071,1,128,0.3066101,0.138031,0.07159424,0.2528992,0.0859375,0.02636719,0,1,3,0
147.402,0.00101,-0.08984375,0.01367188,-0.0703125,-0.3828125,-2.648438,5.34375,-0.01171875,0.001953125,-0.05078125,0.1328125,0.05078125,0,-0.0222168,-0.008544922,0.0001220703,0,0,-0.007568359,0.1906128,4.046,0,0,0,0.1575928,nan,2,12.081,1,128,0.2874756,0.1530151,0.03012085,0.2918091,0.0859375,0.02636719,0,1,3,0
147.412,0.00101,-0.01757812,-0.02539062,-0.04492188,1.164062,-2.257812,5,0.01757812,-0.01953125,-0.03515625,0.1328125,0.05273438,0,-0.02209473,-0.008666992,-0.0003662109,0,0,-0.007568359,0.1889343,4.046,0,0,0,0.1555786,nan,2,12.091,1,128,0.3239441,0.1165161,0.07614136,0.2390747,0.0859375,0.02636719,0,1,3,0
147.422,0.00101,-0.03320312,0.03710938,-0.0546875,-1.203125,4.148438,8.882812,-0.01757812,0.0078125,-0.04882812,0.1328125,0.05273438,0,-0.02209473,-0.008911133,-0.0007324219,0,0,-0.007568359,0.1872253,4.046,0,0,0,0.1536255,nan,2,12.101,1,128,0.2911682,0.1311951,0.04589844,0.2807007,0.0859375,0.02636719,0,1,3,0.8571429
147.432,0.001016,-0.02148438,-0.009765625,-0.06640625,0.171875,-4.695312,13.75,-0.015625,-0.009765625,-0.05859375,0.1328125,0.05273438,0,-0.0222168,-0.008911133,-0.001342773,0,0,-0.007568359,0.1853943,4.046,0,0,0,0.1513672,nan,2,12.111,1,128,0.2821045,0.1534424,0.02514648,0.2808533,0.08691406,0.02636719,0,1,3,0
147.442,0.001012,-0.0078125,-0.001953125,-0.08398438,-0.40625,1.28125,5.007812,-0.009765625,-0.01367188,-0.06445312,0.1347656,0.05273438,0,-0.02233887,-0.008911133,-0.001831055,0,0,-0.007568359,0.1837158,4.046,0,0,0,0.1494141,nan,2,12.121,1,128,0.2769165,0.1576538,0.01852417,0.2817383,0.08691406,0.02636719,0,1,3,0
147.452,0.001003,-0.00390625,-0.009765625,-0.04296875,0.1796875,-2.640625,10.94531,0.00390625,-0.02929688,-0.06054688,0.1328125,0.0546875,0,-0.0222168,-0.009033203,-0.002563477,0,0,-0.007568359,0.1820068,4.046,0,0,0,0.1473999,nan,2,12.131,1,128,0.2970276,0.1357727,0.03616333,0.2590942,0.08691406,0.02734375,0,1,3,0
147.461,0.001018,-0.01757812,0.09375,-0.0625,1.382812,5.515625,10.5625,-0.02539062,0.03320312,-0.06054688,0.1347656,0.0546875,0,-0.02233887,-0.009033203,-0.003051758,0,0,-0.007568359,0.1805115,4.046,0,0,0,0.1455688,nan,2,12.14,1,128,0.2764893,0.1257019,0.03704834,0.2827759,0.08691406,0.02734375,0,1,3,0
147.471,0.001008,0.04296875,-0.03125,-0.02148438,1.023438,-4.085938,11.66406,0.01953125,-0.03125,-0.0234375,0.1347656,0.0546875,0,-0.02233887,-0.009155273,-0.003417969,0,0,-0.007568359,0.178833,4.046,0,0,0,0.1436157,nan,2,12.15,1,128,0.322998,0.1051025,0.07522583,0.2119446,0.08691406,0.02734375,0,1,3,0
147.481,0.001011,0.04296875,-0.009765625,0.005859375,-1.507812,4.460938,8.21875,0.015625,-0.01757812,0,0.1347656,0.0546875,0,-0.02233887,-0.009277344,-0.003540039,0,0,-0.007568359,0.177124,4.046,0,0,0,0.1416016,nan,2,12.16,1,128,0.3337097,0.08786011,0.0838623,0.203125,0.08691406,0.02734375,0,1,3,0.1428571
147.492,0.001282,-0.04882812,0.015625,-0.01171875,-0.078125,-1.117188,9.96875,-0.015625,-0.01171875,-0.01953125,0.1328125,0.05664062,0,-0.02233887,-0.009277344,-0.003662109,0,0,-0.003662109,0.176178,4.046,0,0,0,0.1400146,nan,4,12.171,1,128,0.1878357,0.1697693,0.1610413,0.1860352,0,0,0,1,6,0.2698413
147.502,0.001014,-0.04492188,0.06054688,-0.046875,0.953125,3.492188,10.91406,0.009765625,0.01757812,-0.046875,0.1328125,0.0546875,0,-0.0222168,-0.009277344,-0.00402832,0,0,-0.00402832,0.1777954,4.046,0,0,0,0.1400146,nan,4,12.181,1,128,0.1452942,0.2058716,0.1362915,0.2237549,0,0,0,1,6,0
147.512,0.001008,-0.03320312,0.1308594,-0.03710938,-0.7421875,-0.8984375,8.109375,-0.03320312,0.06445312,-0.04296875,0.1347656,0.0546875,0,-0.02246094,-0.009155273,-0.004516602,0,0,-0.004516602,0.1794739,4.046,0,0,0,0.1400146,nan,4,12.191,1,128,0.1726379,0.1647034,0.1679993,0.212616,0,0,0,1,6,0
147.522,0.001008,-0.09375,0.009765625,0,0.3671875,-3.757812,7.71875,-0.0546875,0.05078125,-0.01757812,0.1367188,0.05078125,0,-0.02294922,-0.008544922,-0.004882812,0,0,-0.004882812,0.1811829,4.046,0,0,0,0.1400146,nan,4,12.201,1,128,0.2176819,0.1445312,0.1849976,0.1774597,0.0009765625,0,0,1,6,0
147.532,0.001004,-0.07617188,-0.02539062,-0.04882812,-0.1953125,-4.875,8.96875,-0.04882812,0.046875,-0.04296875,0.140625,0.046875,0,-0.02331543,-0.00793457,-0.005126953,0,0,-0.005126953,0.1828613,4.046,0,0,0,0.1400146,nan,4,12.211,1,128,0.1759644,0.1972656,0.1399841,0.2181702,0.0009765625,0,0,1,6,0.1111111
147.542,0.001,-0.02148438,-0.01757812,-0.078125,0.828125,5.25,14.79688,0,0.01171875,-0.05664062,0.140625,0.04492188,0,-0.02331543,-0.007568359,-0.005737305,0,0,-0.005737305,0.1845398,4.046,0,0,0,0.1400146,nan,4,12.221,1,128,0.1684265,0.214447,0.1323547,0.2229309,0.0009765625,0,0,1,6,0
147.551,0.001033,0.1113281,0.015625,-0.02929688,-1.09375,4.539062,14.41406,0.01953125,0,-0.04296875,0.140625,0.04492188,0,-0.02331543,-0.00769043,-0.006225586,0,0,-0.006225586,0.1860657,4.046,0,0,0,0.1400146,nan,4,12.23,1,128,0.20047,0.1785583,0.1856079,0.1795654,0.0009765625,0,0,1,6,0
147.562,0.000997,0.06054688,0.009765625,-0.02929688,0.3515625,6.320312,13.83594,0.01367188,-0.001953125,-0.05078125,0.1386719,0.046875,0,-0.02307129,-0.00769043,-0.006713867,0,0,-0.006713867,0.1878967,4.046,0,0,0,0.1400146,nan,4,12.241,1,128,0.1842346,0.1960754,0.1630554,0.2082214,0.0009765625,0,0,1,6,0
147.571,0.001012,0.05078125,-0.001953125,0.03710938,1.59375,8.625,12.32031,0.015625,0.01171875,-0.015625,0.1386719,0.046875,0,-0.02294922,-0.0078125,-0.007080078,0,0,-0.007080078,0.1894226,4.046,0,0,0,0.1400146,nan,4,12.25,1,128,0.2315369,0.144165,0.2185059,0.1634827,0.0009765625,0,0,1,6,0
147.581,0.001012,0.00390625,0.001953125,0.0234375,-0.3671875,8.796875,14.92188,-0.0234375,0.04492188,-0.00390625,0.1367188,0.04492188,0,-0.02282715,-0.007324219,-0.007080078,0,0,-0.007080078,0.1911011,4.046,0,0,0,0.1400146,nan,4,12.26,1,128,0.2224426,0.1582642,0.1913452,0.1923523,0.0009765625,0,0,1,6,0
147.592,0.001067,0.09375,-0.046875,0.001953125,-0.46875,4.460938,13.71875,0.01367188,-0.001953125,0,0.1367188,0.04296875,0,-0.02294922,-0.007202148,-0.007202148,0,0,-0.007202148,0.1927795,4.046,0,0,0,0.1400146,nan,4,12.271,1,128,0.2145691,0.1865234,0.1896057,0.1804504,0.001953125,0,0,1,6,0
147.602,0.001012,-0.01757812,0.05859375,-0.06445312,1.835938,1.835938,6,-0.03515625,0.009765625,-0.04101562,0.1386719,0.04296875,0,-0.02307129,-0.007080078,-0.007446289,0,0,-0.007446289,0.194458,4.046,0,0,0,0.1400146,nan,4,12.281,1,128,0.1734314,0.2202148,0.138092,0.2461243,0.001953125,0,0,1,6,0
147.612,0.001012,0.00390625,0.00390625,-0.0625,-1.90625,0.0625,10.08594,0.005859375,0.015625,-0.04492188,0.1386719,0.04101562,0,-0.02319336,-0.006958008,-0.0078125,0,0,-0.0078125,0.1961365,4.046,0,0,0,0.1400146,nan,4,12.291,1,128,0.1628723,0.2322693,0.1464539,0.242981,0.001953125,0,0,1,6,0.03174603
147.622,0.001014,-0.02734375,-0.001953125,-0.1191406,-2,7.15625,14.92969,0.03320312,0.009765625,-0.09179688,0.1367188,0.04296875,0,-0.02294922,-0.007080078,-0.008300781,0,0,-0.008300781,0.1978455,4.046,0,0,0,0.1400146,nan,4,12.301,1,128,0.1143188,0.2814636,0.09820557,0.2973328,0.001953125,0,0,1,6,0
147.632,0.001032,-0.03125,0.0546875,-0.1113281,-1.695312,2.015625,5.429688,0.01757812,0.07421875,-0.1152344,0.1367188,0.0390625,0,-0.02282715,-0.006591797,-0.009521484,0,0,-0.009521484,0.1995239,4.046,0,0,0,0.1400146,nan,4,12.311,1,128,0.1574707,0.2292786,0.1528015,0.2585144,0.001953125,0,0,1,6,0
147.642,0.001032,0.06445312,0.01953125,-0.1503906,-1.414062,5.75,12.9375,0.01757812,-0.009765625,-0.1191406,0.1347656,0.0390625,0,-0.02258301,-0.006347656,-0.01062012,0,0,-0.01062012,0.2012024,4.046,0,0,0,0.1400146,nan,4,12.321,1,128,0.1595764,0.2620544,0.1209412,0.2622681,0.001953125,0,0,1,6,0
147.652,0.001009,-0.04296875,0.01171875,-0.1171875,-0.171875,3.96875,5.257812,0.01367188,0.0078125,-0.1230469,0.1347656,0.03710938,0,-0.02233887,-0.006347656,-0.01196289,0,0,-0.01196289,0.2028809,4.046,0,0,0,0.1400146,nan,4,12.331,1,128,0.1877136,0.2224731,0.161438,0.2398987,0.001953125,0,0,1,6,0
147.662,0.00101,0.1132812,-0.07421875,-0.02539062,1.554688,-7.859375,4.90625,0.00390625,0.01953125,-0.06445312,0.1347656,0.03710938,0,-0.02233887,-0.005981445,-0.01293945,0,0,-0.01293945,0.2045593,4.046,0,0,0,0.1400146,nan,4,12.341,1,128,0.2684021,0.1483154,0.243103,0.1584473,0.001953125,0,0,1,6,0.06349207
147.671,0.001012,-0.03125,0.06640625,-0.0234375,0.234375,-8.296875,7.664062,0.0078125,0,-0.04492188,0.1328125,0.03710938,0,-0.0222168,-0.006103516,-0.01342773,0,0,-0.01342773,0.2060852,4.046,0,0,0,0.1400146,nan,4,12.35,1,128,0.2307129,0.1864319,0.2033997,0.2037659,0.002929688,0,0,1,6,0
147.681,0.00101,-0.07226562,0.01953125,-0.03320312,-0.875,-3.148438,12.65625,-0.01953125,0.03320312,-0.02539062,0.1347656,0.03515625,0,-0.02246094,-0.005981445,-0.01367188,0,0,-0.01367188,0.2077637,4.046,0,0,0,0.1400146,nan,4,12.36,1,128,0.2272949,0.1826477,0.2044373,0.2167053,0.002929688,0.0009765625,0,1,6,0
147.692,0.001012,-0.0546875,0.03320312,-0.08398438,0.3828125,-7.601562,5.539062,-0.04101562,0.046875,-0.0546875,0.1347656,0.03515625,0,-0.02246094,-0.005737305,-0.01403809,0,0,-0.01403809,0.2094421,4.046,0,0,0,0.1400146,nan,4,12.37,1,128,0.1652527,0.2455139,0.1355286,0.2915039,0.002929688,0.0009765625,0,1,6,0.1111111
147.702,0.001009,0.07226562,-0.08789062,-0.009765625,0.8203125,-6.648438,4.046875,0.02929688,-0.015625,-0.02539062,0.1347656,0.03320312,0,-0.02233887,-0.005615234,-0.0144043,0,0,-0.0144043,0.2111206,4.046,0,0,0,0.1400146,nan,4,12.381,1,128,0.2382507,0.2011414,0.2107849,0.1943665,0.002929688,0.0009765625,0,1,6,0
147.712,0.001011,0.03320312,0.1054688,0.00390625,1.671875,-1.351562,4.953125,0.046875,-0.009765625,0.001953125,0.1328125,0.03515625,0,-0.02209473,-0.005859375,-0.01452637,0,0,-0.01452637,0.2128296,4.046,0,0,0,0.1400146,nan,4,12.391,1,128,0.2484131,0.1792297,0.2395935,0.1839905,0.002929688,0.0009765625,0,1,6,0
147.722,0.001011,0.06640625,0.01171875,0.03320312,0.1640625,-0.8671875,3.351562,0.04492188,-0.01367188,0.01953125,0.1328125,0.03515625,0,-0.02197266,-0.005981445,-0.01452637,0,0,-0.01452637,0.2145081,4.046,0,0,0,0.1400146,nan,4,12.401,1,128,0.257843,0.1756287,0.2470398,0.1774597,0.002929688,0.0009765625,0,1,6,0
147.732,0.001012,0.02148438,-0.08007812,0.07421875,-0.5234375,-5.320312,3.53125,0.0234375,-0.0546875,0.0546875,0.1308594,0.03710938,0,-0.02172852,-0.006347656,-0.01416016,0,0,-0.01416016,0.2161865,4.046,0,0,0,0.1400146,nan,4,12.411,1,128,0.2917175,0.160675,0.2523193,0.1600037,0.002929688,0.0009765625,0,1,6,0
147.742,0.001011,-0.02539062,-0.109375,-0.03125,-2.703125,5.171875,12.14062,0.00390625,-0.02148438,-0.0078125,0.1308594,0.0390625,0,-0.02172852,-0.006469727,-0.01391602,0,0,-0.01391602,0.217865,4.046,0,0,0,0.1400146,nan,4,12.421,1,128,0.1772461,0.2748108,0.1398926,0.2795105,0.002929688,0.0009765625,0,1,6,0
147.752,0.001012,-0.04882812,-0.03320312,-0.05273438,0.7734375,2.5625,10.54688,-0.01953125,0,-0.00390625,0.1308594,0.0390625,0,-0.02172852,-0.006591797,-0.01379395,0,0,-0.01379395,0.2195435,4.046,0,0,0,0.1400146,nan,4,12.431,1,128,0.1913757,0.2522278,0.1520081,0.2826233,0.00390625,0.0009765625,0,1,6,0
147.762,0.001007,-0.0078125,-0.009765625,-0.00390625,1.273438,-3.09375,0.9609375,-0.01171875,-0.01367188,-0.02929688,0.1308594,0.0390625,0,-0.02185059,-0.006591797,-0.01416016,0,0,-0.01416016,0.2212219,4.046,0,0,0,0.1400146,nan,4,12.441,1,128,0.2390442,0.2155457,0.2038269,0.2265015,0.00390625,0.0009765625,0,1,6,0
147.771,0.00101,-0.08984375,-0.0546875,-0.01171875,-2.820312,4.46875,13.375,-0.01367188,-0.01953125,-0.03320312,0.1308594,0.0390625,0,-0.02185059,-0.006591797,-0.0144043,0,0,-0.0144043,0.2227478,4.046,0,0,0,0.1400146,nan,4,12.45,1,128,0.2388916,0.2240601,0.1876831,0.2403564,0.00390625,0.0009765625,0,1,6,0
147.781,0.001008,-0.00390625,-0.0234375,-0.03125,-1.078125,1.1875,13.14844,0.001953125,-0.01171875,-0.03710938,0.1308594,0.0390625,0,-0.02197266,-0.006591797,-0.01477051,0,0,-0.01477051,0.2244263,4.046,0,0,0,0.1400146,nan,4,12.46,1,128,0.2243042,0.2381897,0.1911621,0.2440491,0.00390625,0.0009765625,0,1,6,0
147.792,0.001013,0.03710938,-0.08007812,-0.0703125,0.765625,-0.4765625,8.867188,0.005859375,-0.01171875,-0.04882812,0.1308594,0.0390625,0,-0.02197266,-0.006713867,-0.01513672,0,0,-0.01513672,0.2261047,4.046,0,0,0,0.1400146,nan,4,12.47,1,128,0.1981201,0.2661133,0.1651917,0.2750549,0.00390625,0.0009765625,0,1,6,0
147.802,0.00101,-0.078125,-0.02734375,-0.09960938,-0.7578125,-2.34375,9.421875,-0.04101562,0.001953125,-0.07226562,0.1328125,0.04101562,0,-0.02197266,-0.006835938,-0.015625,0,0,-0.015625,0.2277832,4.038,0,0,0,0.1400146,nan,4,12.481,1,128,0.1937256,0.2658386,0.1480103,0.3036194,0.00390625,0.0009765625,0,1,6,0.8253968
147.812,0.00101,-0.05078125,-0.05273438,-0.09179688,-0.578125,5.015625,13.57031,0.01171875,-0.015625,-0.06640625,0.1328125,0.04101562,0,-0.02209473,-0.006835938,-0.01635742,0,0,-0.01635742,0.2294922,4.038,0,0,0,0.1400146,nan,4,12.491,1,128,0.2234497,0.249176,0.1916809,0.2535706,0.00390625,0.0009765625,0,1,6,0
147.822,0.00101,-0.1367188,0.02148438,-0.08789062,0.484375,-0.90625,6.015625,-0.04492188,0.02929688,-0.08203125,0.1328125,0.04101562,0,-0.02233887,-0.006958008,-0.01708984,0,0,-0.01708984,0.2311707,4.038,0,0,0,0.1400146,nan,4,12.501,1,128,0.2095947,0.2473145,0.1703491,0.2973633,0.004882812,0.0009765625,0,1,6,0
147.832,0.00101,-0.08984375,-0.02539062,-0.06640625,-0.046875,-5.96875,8.046875,-0.01367188,-0.0234375,-0.05664062,0.1347656,0.04296875,0,-0.02246094,-0.007080078,-0.01782227,0,0,-0.01782227,0.2328491,4.038,0,0,0,0.1400146,nan,4,12.511,1,128,0.2539368,0.2269897,0.2089844,0.2414856,0.004882812,0.0009765625,0,1,6,0.4285714
147.842,0.001009,0.02539062,-0.02539062,-0.0390625,-2.109375,5.773438,14.21094,0.001953125,0.01367188,-0.05078125,0.1367188,0.04101562,0,-0.02270508,-0.006958008,-0.01843262,0,0,-0.01843262,0.2345276,4.038,0,0,0,0.1400146,nan,4,12.521,1,128,0.2454834,0.2282715,0.2210083,0.2433777,0.004882812,0.0009765625,0,1,6,0
147.852,0.001012,-0.08398438,-0.02734375,-0.00390625,1.75,0.0859375,6.40625,-0.04296875,-0.0234375,-0.005859375,0.1347656,0.04101562,0,-0.02258301,-0.007080078,-0.01867676,0,0,-0.01855469,0,4.038,0,0,0,0.1400146,nan,4,12.531,0,0,0,0,0,0,0,0,0,1,6,0
147.862,0.001011,-0.1269531,0.03320312,0.06054688,-1.53125,-1.492188,4.34375,-0.05078125,0.04296875,0.01953125,0.1347656,0.04101562,0,-0.02270508,-0.006835938,-0.01855469,0,0,-0.01855469,0,4.038,0,0,0,0.1400146,nan,4,12.541,0,0,0,0,0,0,0,0,0,1,6,0
147.872,0.001,-0.02539062,-0.04492188,0.009765625,-1.28125,2.523438,3.78125,0.02148438,-0.001953125,0.01367188,0.1347656,0.04101562,0,-0.02258301,-0.006713867,-0.01843262,0,0,-0.01855469,0,4.038,0,0,0,0.1400146,nan,4,12.551,0,0,0,0,0,0,0,0,0,1,6,0
147.882,0.001,-0.03125,0.01367188,0.01171875,3.21875,-1.960938,10.58594,-0.01757812,0.01953125,0.005859375,0.1347656,0.04101562,0,-0.02270508,-0.006469727,-0.01831055,0,0,-0.01855469,0,4.038,0,0,0,0.1400146,nan,4,12.561,0,0,0,0,0,0,0,0,0,1,6,0
147.892,0.00101,0.04882812,-0.03515625,0.0390625,-1.101562,-1.289062,14.6875,0.01757812,-0.0234375,0.03710938,0.1347656,0.04101562,0,-0.02282715,-0.006347656,-0.01806641,0,0,-0.01855469,0,4.038,0,0,0,0.1400146,nan,4,12.571,0,0,0,0,0,0,0,0,0,1,6,0
147.901,0.001021,-0.04296875,0.001953125,0.125,-1.054688,-0.5078125,7.46875,-0.0078125,0,0.09179688,0.1347656,0.04101562,0,-0.02282715,-0.006469727,-0.01745605,0,0,-0.01855469,0,4.038,0,0,0,0.1400146,nan,4,12.581,0,0,0,0,0,0,0,0,0,1,6,0
147.911,0.00101,0.0390625,-0.03320312,0.2011719,-0.578125,-4.1875,10.5,0.0078125,-0.0078125,0.1679688,0.1347656,0.04101562,0,-0.02282715,-0.006347656,-0.01611328,0,0,-0.01855469,0,4.038,0,0,0,0.1400146,nan,4,12.591,0,0,0,0,0,0,0,0,0,1,6,0
147.922,0.00101,-0.05859375,-0.02929688,0.2167969,1.703125,-2.492188,6.796875,-0.01367188,-0.00390625,0.2089844,0.1347656,0.04101562,0,-0.02270508,-0.006225586,-0.01416016,0,0,-0.01855469,0,4.038,0,0,0,0.1400146,nan,4,12.601,0,0,0,0,0,0,0,0,0,1,6,0
147.932,0.00101,-0.06445312,-0.01367188,0.1484375,-0.7421875,-1.65625,16.52344,-0.02539062,-0.005859375,0.1738281,0.1347656,0.04101562,0,-0.02282715,-0.006225586,-0.01220703,0,0,-0.01855469,0,4.038,0,0,0,0.1400146,nan,4,12.611,0,0,0,0,0,0,0,0,0,1,6,0
147.942,0.001007,-0.0234375,-0.005859375,0.03710938,-2.679688,3,7,-0.005859375,0.005859375,0.08398438,0.1347656,0.04101562,0,-0.02282715,-0.006225586,-0.01086426,0,0,-0.01855469,0,4.038,0,0,0,0.1400146,nan,4,12.621,0,0,0,0,0,0,0,0,0,1,6,0
147.952,0.001015,0.02734375,0.03125,-0.0859375,-1.570312,1.476562,3.15625,0.01171875,-0.001953125,-0.04101562,0.1347656,0.04101562,0,-0.02270508,-0.006347656,-0.01074219,0,0,-0.01855469,0,4.038,0,0,0,0.1400146,nan,4,12.631,0,0,0,0,0,0,0,0,0,1,6,0
147.962,0.00101,0.01367188,0.015625,-0.1386719,-2.585938,-1.21875,5.78125,0.005859375,-0.001953125,-0.1230469,0.1347656,0.04101562,0,-0.02258301,-0.006347656,-0.01159668,0,0,-0.01855469,0,4.038,0,0,0,0.1400146,nan,4,12.641,0,0,0,0,0,0,0,0,0,1,6,0
147.972,0.00102,-0.01953125,-0.00390625,-0.1328125,-0.2265625,1.390625,12,-0.005859375,0,-0.1367188,0.1347656,0.04101562,0,-0.02270508,-0.006347656,-0.01293945,0,0,-0.01855469,0,4.038,0,0,0,0.1400146,nan,4,12.651,0,0,0,0,0,0,0,0,0,1,6,0
147.982,0.00101,-0.04101562,-0.06445312,-0.1074219,-1.289062,-2.03125,8.703125,-0.009765625,-0.01171875,-0.1191406,0.1347656,0.04101562,0,-0.02270508,-0.006347656,-0.01428223,0,0,-0.01855469,0,4.038,0,0,0,0.1400146,nan,4,12.661,0,0,0,0,0,0,0,0,0,1,6,1
147.992,0.001021,0.01953125,-0.02734375,-0.0390625,0.4140625,-0.28125,11.67969,0.001953125,-0.015625,-0.06445312,0.1347656,0.04101562,0,-0.02270508,-0.006469727,-0.01525879,0,0,-0.01855469,0,4.038,0,0,0,0.1400146,nan,4,12.671,0,0,0,0,0,0,0,0,0,1,6,0
148.001,0.000982,-0.01367188,0,0.04101562,-0.390625,-0.921875,8.09375,-0.00390625,0.00390625,0.00390625,0.1347656,0.04101562,0,-0.02246094,-0.006591797,-0.01550293,0,0,-0.01855469,0,4.038,0,0,0,0.1400146,nan,4,12.681,0,0,0,0,0,0,0,0,0,1,6,0
148.011,0.001021,-0.0078125,0,0.01953125,0.2109375,0.4453125,9.867188,-0.005859375,0.01171875,0.02929688,0.1347656,0.04101562,0,-0.0222168,-0.006591797,-0.01525879,0,0,-0.01855469,0,4.038,0,0,0,0.1400146,nan,4,12.691,0,0,0,0,0,0,0,0,0,1,6,1
148.022,0.001018,-0.02929688,0.0078125,-0.04101562,0.5703125,-0.1875,7.429688,-0.0078125,-0.01171875,-0.02539062,0.1347656,0.04101562,0,-0.02233887,-0.006591797,-0.01525879,0,0,-0.01855469,0,4.038,0,0,0,0.1400146,nan,4,12.701,0,0,0,0,0,0,0,0,0,1,6,0
148.032,0.001009,-0.0078125,-0.02929688,-0.06445312,-0.125,0.3359375,10.21875,-0.005859375,-0.0234375,-0.05078125,0.1347656,0.04101562,0,-0.02233887,-0.006591797,-0.015625,0,0,-0.01855469,0,4.038,0,0,0,0.1400146,nan,4,12.711,0,0,0,0,0,0,0,0,0,1,6,1
148.042,0.001009,-0.02148438,-0.0078125,-0.03515625,0.1171875,-1.195312,12.25,0.001953125,0,-0.046875,0.1347656,0.04101562,0,-0.0222168,-0.006591797,-0.01623535,0,0,-0.01855469,0,4.038,0,0,0,0.1400146,nan,4,12.721,0,0,0,0,0,0,0,0,0,1,6,0
148.052,0.001027,0.0078125,-0.01953125,-0.04882812,-0.109375,1.6875,9.398438,0.00390625,0.01367188,-0.0390625,0.1347656,0.04101562,0,-0.0222168,-0.006469727,-0.01660156,0,0,-0.01855469,0,4.038,0,0,0,0.1400146,nan,4,12.731,0,0,0,0,0,0,0,0,0,1,6,1
148.062,0.000999,-0.015625,0.03320312,-0.03515625,0.1484375,-1.742188,9.414062,0.005859375,0.009765625,-0.04101562,0.1347656,0.04101562,0,-0.02209473,-0.006469727,-0.01708984,0,0,-0.01855469,0,4.038,0,0,0,0.1400146,nan,4,12.741,0,0,0,0,0,0,0,0,0,1,6,1
148.072,0.001021,0.03320312,0.04101562,-0.015625,-0.03125,-0.8046875,11.02344,0.01367188,0.00390625,-0.02734375,0.1347656,0.04101562,0,-0.02197266,-0.006591797,-0.01745605,0,0,-0.01855469,0,4.038,0,0,0,0.1400146,nan,4,12.751,0,0,0,0,0,0,0,0,0,1,6,0
148.082,0.001018,0.05078125,-0.005859375,0.02148438,-0.09375,0.1875,7.289062,0.01757812,0,0.009765625,0.1347656,0.04101562,0,-0.02197266,-0.006591797,-0.01745605,0,0,-0.01855469,0,4.038,0,0,0,0.1400146,nan,4,12.761,0,0,0,0,0,0,0,0,0,1,6,0
148.092,0.001021,0.009765625,-0.01367188,-0.005859375,0.4375,1.171875,8.5,0.001953125,-0.0078125,0.00390625,0.1347656,0.04101562,0,-0.02185059,-0.006591797,-0.01733398,0,0,-0.01855469,0,4.038,0,0,0,0.1400146,nan,4,12.771,0,0,0,0,0,0,0,0,0,1,6,0
148.101,0.001023,0.0078125,0.03515625,-0.0234375,0.0703125,-1.414062,12.98438,0.005859375,0.005859375,-0.015625,0.1347656,0.04101562,0,-0.02185059,-0.006591797,-0.01745605,0,0,-0.01855469,0,4.038,0,0,0,0.1400146,nan,4,12.781,0,0,0,0,0,0,0,0,0,1,6,0
148.111,0.000999,0,0.01171875,-0.009765625,1.007812,-2.664062,10.94531,-0.01171875,0.01367188,-0.02148438,0.1347656,0.04101562,0,-0.02172852,-0.006469727,-0.01757812,0,0,-0.01855469,0,4.038,0,0,0,0.1400146,nan,4,12.791,0,0,0,0,0,0,0,0,0,1,6,0
148.122,0.001001,0.01953125,-0.02539062,-0.02734375,-0.375,2.742188,4.914062,-0.001953125,-0.005859375,-0.01757812,0.1347656,0.04101562,0,-0.02185059,-0.006469727,-0.01782227,0,0,-0.01855469,0,4.038,0,0,0,0.1400146,nan,4,12.801,0,0,0,0,0,0,0,0,0,1,6,0
148.132,0.001009,-0.0078125,0.0234375,0.00390625,1.195312,-1.71875,14.70312,-0.01171875,0.01757812,0,0.1347656,0.04101562,0,-0.02185059,-0.006469727,-0.01782227,0,0,-0.01855469,0,4.038,0,0,0,0.1400146,nan,4,12.811,0,0,0,0,0,0,0,0,0,1,6,0
148.142,0.001023,0.01953125,0.03125,-0.0390625,-1.429688,3.242188,10.83594,0.001953125,0.015625,-0.01953125,0.1347656,0.04101562,0,-0.02185059,-0.006469727,-0.01794434,0,0,-0.01855469,0,4.038,0,0,0,0.1400146,nan,4,12.821,0,0,0,0,0,0,0,0,0,1,6,0
148.152,0.001007,-0.05078125,0.04882812,-0.005859375,1.554688,4.007812,10.23438,-0.015625,0.015625,-0.01367188,0.1347656,0.04101562,0,-0.02197266,-0.006347656,-0.01806641,0,0,-0.01855469,0,4.038,0,0,0,0.1400146,nan,4,12.831,0,0,0,0,0,0,0,0,0,1,6,0
148.162,0.001015,-0.01953125,-0.03710938,0.0078125,2.914062,1.085938,5.953125,-0.01171875,-0.00390625,0,0.1347656,0.04101562,0,-0.02197266,-0.006347656,-0.01818848,0,0,-0.01855469,0,4.038,0,0,0,0.1400146,nan,4,12.841,0,0,0,0,0,0,0,0,0,1,6,0
148.172,0.001015,-0.02929688,0.0234375,-0.005859375,2.84375,1.773438,7.742188,-0.02148438,0.01953125,-0.005859375,0.1347656,0.04101562,0,-0.02209473,-0.006225586,-0.01818848,0,0,-0.01855469,0,4.038,0,0,0,0.1400146,nan,4,12.851,0,0,0,0,0,0,0,0,0,1,6,0
148.181,0.001,-0.00390625,0.015625,-0.01367188,1.898438,1.632812,8.890625,0.005859375,-0.001953125,-0.01171875,0.1347656,0.04101562,0,-0.02197266,-0.006347656,-0.01818848,0,0,-0.01855469,0,4.038,0,0,0,0,nan,4,0.005,0,0,0,0,0,0,0,0,0,1,6,1
148.191,0.00103,0.03125,-0.03710938,-0.001953125,2.828125,0.6484375,9.835938,0.001953125,-0.015625,-0.009765625,0.1347656,0.04101562,0,-0.02197266,-0.006347656,-0.01831055,0,0,-0.01855469,0,4.038,0,0,0,0,nan,4,0.015,0,0,0,0,0,0,0,0,0,1,6,1
148.201,0.001,0.00390625,0.02734375,0.0078125,1.804688,2.890625,12.29688,-0.0078125,0.005859375,0.0078125,0.1347656,0.04101562,0,-0.02197266,-0.006347656,-0.01831055,0,0,-0.01855469,0,4.038,0,0,0,0,nan,4,0.025,0,0,0,0,0,0,0,0,0,1,6,0
148.212,0.001026,-0.06054688,0.0234375,0.01953125,-1.007812,-2.5,5.335938,-0.01367188,0.00390625,0.005859375,0.1347656,0.04101562,0,-0.02197266,-0.006347656,-0.01831055,0,0,-0.01855469,0,4.038,0,0,0,0,nan,4,0.002,0,0,0,0,0,0,0,0,0,1,6,0
148.222,0.000994,0.0546875,-0.05859375,-0.005859375,3.226562,0.828125,11.76562,0.00390625,-0.0078125,0,nan,nan,nan,-0.02197266,-0.006225586,-0.01818848,0,0,-0.01818848,0,4.038,0,0,0,0,nan,2,0.012,0,0,0,0,0,0,0,0,0,1,2,0
148.232,0.001002,0.00390625,0.015625,0.00390625,0.6640625,5.296875,9.976562,-0.001953125,0.005859375,-0.00390625,nan,nan,nan,-0.02197266,-0.006225586,-0.01831055,0,0,-0.01831055,0,4.038,0,0,0,0,nan,2,0.022,0,0,0,0,0,0,0,0,0,1,2,0
148.242,0.001019,-0.00390625,0.03125,0,-1.578125,3.085938,8.320312,-0.0078125,0.005859375,0,nan,nan,nan,-0.02185059,-0.006225586,-0.01831055,0,0,-0.01831055,0,4.038,0,0,0,0,nan,2,0.032,0,0,0,0,0,0,0,0,0,1,2,1
148.252,0.000997,0.06640625,0.00390625,-0.01757812,-1.015625,0.7109375,9.921875,0,0,0.0078125,nan,nan,nan,-0.02185059,-0.006347656,-0.01818848,0,0,-0.01818848,0,4.038,0,0,0,0,nan,2,0.042,0,0,0,0,0,0,0,0,0,1,2,1
148.262,0.001011,0.1074219,-0.02539062,-0.01171875,-0.171875,3.289062,10.41406,0.02148438,-0.00390625,0.00390625,nan,nan,nan,-0.02172852,-0.006347656,-0.01818848,0,0,-0.01818848,0,4.038,0,0,0,0,nan,2,0.053,0,0,0,0,0,0,0,0,0,1,2,0
148.272,0.001009,0.03320312,0.0234375,-0.02929688,-0.7578125,1.054688,10.75,0.0078125,-0.001953125,-0.001953125,nan,nan,nan,-0.02172852,-0.006347656,-0.01806641,0,0,-0.01806641,0,4.038,0,0,0,0,nan,2,0.063,0,0,0,0,0,0,0,0,0,1,2,0
148.282,0.001017,0.046875,-0.015625,-0.01757812,-0.1875,2.070312,9.6875,0.01953125,-0.0078125,-0.00390625,nan,nan,nan,-0.02160645,-0.006347656,-0.01806641,0,0,-0.01806641,0,4.038,0,0,0,0,nan,2,0.073,0,0,0,0,0,0,0,0,0,1,2,1
148.291,0.001018,0.0625,-0.02539062,0.01171875,1.460938,1.375,8.835938,0.0078125,0,0.005859375,nan,nan,nan,-0.02148438,-0.006347656,-0.01806641,0,0,-0.01806641,0,4.038,0,0,0,0,nan,2,0.082,0,0,0,0,0,0,0,0,0,1,2,1
148.301,0.001033,-0.0078125,0.01171875,0.005859375,-0.6171875,-0.6484375,10.13281,-0.001953125,0.001953125,0.00390625,nan,nan,nan,-0.0213623,-0.006469727,-0.01806641,0,0,-0.01806641,0,4.038,0,0,0,0,nan,2,0.092,0,0,0,0,0,0,0,0,0,1,2,1
148.312,0.00101,-0.09765625,0.009765625,0,0.765625,-1.117188,10,-0.005859375,0,-0.00390625,nan,nan,nan,-0.02124023,-0.006469727,-0.01806641,0,0,-0.01806641,0,4.038,0,0,0,0,nan,2,0.102,0,0,0,0,0,0,0,0,0,1,2,1
148.322,0.001016,0.0390625,0.01171875,0,-0.7109375,0.5390625,10.64062,0.005859375,-0.01367188,0.005859375,nan,nan,nan,-0.02124023,-0.006469727,-0.01806641,0,0,-0.01806641,0,4.038,0,0,0,0,nan,2,0.112,0,0,0,0,0,0,0,0,0,1,2,1
148.332,0.001017,-0.0234375,-0.03710938,0,0.53125,-0.1640625,8.367188,-0.00390625,0.001953125,0,nan,nan,nan,-0.02111816,-0.006347656,-0.01806641,0,0,-0.01806641,0,4.038,0,0,0,0,nan,2,0.122,0,0,0,0,0,0,0,0,0,1,2,0
148.342,0.001018,0.005859375,0.01367188,0,0.53125,0.4921875,9.375,0.005859375,-0.001953125,-0.001953125,nan,nan,nan,-0.02099609,-0.006347656,-0.01806641,0,0,-0.01806641,0,4.038,0,0,0,0,nan,2,0.132,0,0,0,0,0,0,0,0,0,1,2,1
148.352,0.001014,-0.03710938,-0.04296875,0.01367188,0.90625,-0.8203125,9.742188,-0.009765625,-0.001953125,0,nan,nan,nan,-0.02099609,-0.006347656,-0.01806641,0,0,-0.01806641,0,4.038,0,0,0,0,nan,2,0.142,0,0,0,0,0,0,0,0,0,1,2,1
148.362,0.001005,-0.04492188,-0.0234375,0.01953125,0.6328125,-1.59375,9.21875,-0.0234375,-0.01367188,0.00390625,nan,nan,nan,-0.02087402,-0.006347656,-0.01806641,0,0,-0.01806641,0,4.038,0,0,0,0,nan,2,0.153,0,0,0,0,0,0,0,0,0,1,2,1
148.372,0.001197,-0.03710938,-0.0625,-0.00390625,1.265625,-1.320312,9.367188,-0.01367188,-0.01757812,0.001953125,nan,nan,nan,-0.02087402,-0.006347656,-0.01806641,0,0,-0.01806641,0,4.038,0,0,0,0,nan,2,0.162,0,0,0,0,0,0,0,0,0,1,2,1
148.382,0.00115,0.04296875,0.09960938,0,-0.3515625,0.4375,11.17969,0,0.01953125,-0.001953125,nan,nan,nan,-0.02075195,-0.006225586,-0.01806641,0,0,-0.01806641,0,4.038,0,0,0,0,nan,2,0.172,0,0,0,0,0,0,0,0,0,1,2,0
148.392,0.001122,0.02148438,0.0078125,-0.00390625,0.0546875,0.3125,11,0.005859375,0.0078125,-0.009765625,nan,nan,nan,-0.02062988,-0.006225586,-0.01818848,0,0,-0.01818848,0,4.038,0,0,0,0,nan,2,0.182,0,0,0,0,0,0,0,0,0,1,2,0
148.401,0.001072,0,-0.01953125,-0.001953125,0.046875,-0.2421875,9.867188,0.001953125,0,-0.005859375,nan,nan,nan,-0.02050781,-0.006225586,-0.01818848,0,0,-0.01818848,0,4.038,0,0,0,0,nan,2,0.192,0,0,0,0,0,0,0,0,0,1,2,1
148.412,0.001028,0.0234375,-0.0078125,-0.009765625,0.0390625,-0.359375,9.828125,0.001953125,0,0.005859375,nan,nan,nan,-0.02050781,-0.006103516,-0.01806641,0,0,-0.01806641,0,4.038,0,0,0,0,nan,2,0.202,0,0,0,0,0,0,0,0,0,1,2,1
148.466,0.001318,-0.02148438,0.00390625,0.001953125,0.421875,0.5703125,10.25781,-0.009765625,0,0.00390625,nan,nan,nan,-0.02050781,-0.006103516,-0.01806641,0,0,-0.01806641,0,4.038,0,0,0,0,nan,2,0.205,0,0,0,0,0,0,0,0,0,1,2,1
148.472,0.001957,0.00390625,-0.01171875,-0.01953125,-0.0546875,-0.046875,9.273438,0.00390625,-0.00390625,-0.009765625,nan,nan,nan,-0.01953125,-0.006347656,-0.0189209,0,0,-0.0189209,0,4.038,0,0,0,0,nan,2,0.263,0,0,0,0,0,0,0,0,0,1,2,1
148.481,0.00102,-0.001953125,0,-0.005859375,0.015625,0.2734375,10.13281,-0.001953125,0.001953125,-0.00390625,nan,nan,nan,-0.01940918,-0.006347656,-0.0189209,0,0,-0.0189209,0,4.038,0,0,0,0,nan,2,0.272,0,0,0,0,0,0,0,0,0,1,2,1
148.491,0.00101,0.005859375,-0.005859375,0.01171875,0.078125,-0.15625,10.6875,0.005859375,-0.005859375,0.001953125,nan,nan,nan,-0.01928711,-0.006347656,-0.0189209,0,0,-0.0189209,0,4.077,0,0,0,0,nan,2,0.282,0,0,0,0,0,0,0,0,0,1,2,1
148.502,0.001,-0.00390625,0.00390625,0.0078125,-0.0078125,0.3203125,9.351562,0,0,-0.001953125,nan,nan,nan,-0.01916504,-0.006347656,-0.01904297,0,0,-0.01904297,0,4.077,0,0,0,0,nan,2,0.292,0,0,0,0,0,0,0,0,0,1,2,1
148.512,0.001011,-0.01367188,0.009765625,0.009765625,0.1640625,-0.109375,9.398438,-0.005859375,0.00390625,0.009765625,nan,nan,nan,-0.01904297,-0.006347656,-0.0189209,0,0,-0.0189209,0,4.077,0,0,0,0,nan,2,0.302,0,0,0,0,0,0,0,0,0,1,2,1
148.522,0.000994,-0.001953125,0.009765625,-0.005859375,0.171875,0.046875,9.71875,-0.00390625,0.001953125,-0.001953125,nan,nan,nan,-0.01904297,-0.006225586,-0.0189209,0,0,-0.0189209,0,4.077,0,0,0,0,nan,2,0.312,0,0,0,0,0,0,0,0,0,1,2,1
148.532,0.00102,0.009765625,0.001953125,0.0078125,0.4140625,0.1171875,9.679688,0,0.00390625,0,nan,nan,nan,-0.0189209,-0.006225586,-0.01904297,0,0,-0.01904297,0,4.077,0,0,0,0,nan,2,0.322,0,0,0,0,0,0,0,0,0,1,2,1
148.542,0.001011,0.009765625,-0.0078125,0.01171875,0.09375,0.359375,10.01562,0,-0.00390625,0.00390625,nan,nan,nan,-0.01879883,-0.006225586,-0.01904297,0,0,-0.01904297,0,4.077,0,0,0,0,nan,2,0.332,0,0,0,0,0,0,0,0,0,1,2,1
148.552,0.001032,-0.00390625,0.00390625,0.00390625,0.171875,0.109375,9.898438,-0.00390625,0.00390625,0,nan,nan,nan,-0.01867676,-0.006225586,-0.01904297,0,0,-0.01904297,0,4.077,0,0,0,0,nan,2,0.343,0,0,0,0,0,0,0,0,0,1,2,1
148.562,0.001021,-0.005859375,0.009765625,-0.001953125,-0.1796875,0.25,9.84375,-0.001953125,0.001953125,0,nan,nan,nan,-0.01855469,-0.006225586,-0.01904297,0,0,-0.01904297,0,4.077,0,0,0,0,nan,2,0.353,0,0,0,0,0,0,0,0,0,1,2,1
148.572,0.001033,0,0.0078125,-0.001953125,0,-0.03125,9.75,0.001953125,0.00390625,0.001953125,nan,nan,nan,-0.01843262,-0.006225586,-0.01904297,0,0,-0.01904297,0,4.077,0,0,0,0,nan,2,0.363,0,0,0,0,0,0,0,0,0,1,2,1
148.581,0.001018,-0.005859375,0.001953125,-0.00390625,0.125,0.1796875,9.726562,-0.001953125,0,-0.00390625,nan,nan,nan,-0.01843262,-0.006225586,-0.01904297,0,0,-0.01904297,0,4.077,0,0,0,0,nan,2,0.372,0,0,0,0,0,0,0,0,0,1,2,1
148.591,0.001003,-0.005859375,-0.00390625,0.001953125,-0.015625,-0.1171875,9.640625,0,-0.001953125,0,nan,nan,nan,-0.01831055,-0.006225586,-0.01904297,0,0,-0.01904297,0,4.077,0,0,0,0,nan,2,0.382,0,0,0,0,0,0,0,0,0,1,2,1
148.602,0.001043,0.001953125,0.00390625,0,0.1328125,-0.0078125,9.796875,0.001953125,0.001953125,0,nan,nan,nan,-0.01818848,-0.006225586,-0.01904297,0,0,-0.01904297,0,4.077,0,0,0,0,nan,2,0.392,0,0,0,0,0,0,0,0,0,1,2,1
148.612,0.001016,-0.0078125,-0.00390625,0,-0.015625,-0.1484375,9.8125,-0.001953125,0,0,nan,nan,nan,-0.01806641,-0.006225586,-0.01904297,0,0,-0.01904297,0,4.077,0,0,0,0,nan,2,0.402,0,0,0,0,0,0,0,0,0,1,2,1
148.622,0.000998,0.009765625,0.001953125,0,0.0703125,0.0078125,9.851562,0.001953125,0.00390625,0,nan,nan,nan,-0.01794434,-0.006103516,-0.01904297,0,0,-0.01904297,0,4.077,0,0,0,0,nan,2,0.412,0,0,0,0,0,0,0,0,0,1,2,1
148.632,0.001009,-0.00390625,-0.00390625,-0.0078125,0.03125,-0.1171875,9.789062,-0.001953125,-0.001953125,-0.001953125,nan,nan,nan,-0.01794434,-0.006225586,-0.01904297,0,0,-0.01904297,0,4.077,0,0,0,0,nan,2,0.422,0,0,0,0,0,0,0,0,0,1,2,1
148.642,0.001035,-0.001953125,0.0078125,0,0.0703125,-0.1328125,9.96875,-0.001953125,0.001953125,-0.001953125,nan,nan,nan,-0.01782227,-0.006103516,-0.01904297,0,0,-0.01904297,0,4.077,0,0,0,0,nan,2,0.432,0,0,0,0,0,0,0,0,0,1,2,1
148.652,0.000982,-0.00390625,-0.001953125,0.001953125,0.140625,0,9.914062,-0.001953125,0.001953125,0,nan,nan,nan,-0.0177002,-0.006103516,-0.01904297,0,0,-0.01904297,0,4.077,0,0,0,0,nan,2,0.442,0,0,0,0,0,0,0,0,0,1,2,1
148.662,0.001026,0,0.001953125,0,0,0,9.875,0,0,0,nan,nan,nan,-0.01757812,-0.006103516,-0.01904297,0,0,-0.01904297,0,4.077,0,0,0,0,nan,2,0.453,0,0,0,0,0,0,0,0,0,1,2,1
148.672,0.00104,-0.00390625,0.00390625,0.00390625,0.125,0,9.804688,-0.001953125,0.001953125,0.001953125,nan,nan,nan,-0.01757812,-0.006103516,-0.01904297,0,0,-0.01904297,0,4.077,0,0,0,0,nan,2,0.463,0,0,0,0,0,0,0,0,0,1,2,1
148.681,0.001007,0,-0.001953125,-0.001953125,-0.0390625,0.015625,9.84375,0,0,0.001953125,nan,nan,nan,-0.01745605,-0.006103516,-0.01904297,0,0,-0.01904297,0,4.077,0,0,0,0,nan,2,0.472,0,0,0,0,0,0,0,0,0,1,2,1
148.691,0.000995,-0.00390625,0,-0.001953125,0.046875,0.0234375,9.84375,-0.001953125,0,0,nan,nan,nan,-0.01733398,-0.005981445,-0.01904297,0,0,-0.01904297,0,4.077,0,0,0,0,nan,2,0.482,0,0,0,0,0,0,0,0,0,1,2,1
148.701,0.001013,0,0.001953125,0.00390625,0,0.015625,9.78125,-0.001953125,0.001953125,0.001953125,nan,nan,nan,-0.01733398,-0.005981445,-0.01904297,0,0,-0.01904297,0,4.077,0,0,0,0,nan,2,0.492,0,0,0,0,0,0,0,0,0,1,2,1
148.712,0.001011,0,0,-0.001953125,0.078125,0.015625,9.773438,-0.001953125,0,-0.001953125,nan,nan,nan,-0.01721191,-0.005981445,-0.01904297,0,0,-0.01904297,0,4.077,0,0,0,0,nan,2,0.502,0,0,0,0,0,0,0,0,0,1,2,1
148.722,0.001011,0,0,0,-0.0078125,0.0390625,9.765625,0,0,0,nan,nan,nan,-0.01708984,-0.005981445,-0.01904297,0,0,-0.01904297,0,4.077,0,0,0,0,nan,2,0.512,0,0,0,0,0,0,0,0,0,1,2,1
148.732,0.001011,-0.001953125,-0.001953125,-0.001953125,0.0390625,-0.0234375,9.804688,0,0.001953125,0,nan,nan,nan,-0.01708984,-0.005981445,-0.01904297,0,0,-0.01904297,0,4.077,0,0,0,0,nan,2,0.522,0,0,0,0,0,0,0,0,0,1,2,1
148.742,0.001007,0,0.0078125,-0.001953125,0.03125,0.015625,9.789062,0,0.001953125,-0.001953125,nan,nan,nan,-0.01696777,-0.005981445,-0.01904297,0,0,-0.01904297,0,4.077,0,0,0,0,nan,2,0.532,0,0,0,0,0,0,0,0,0,1,2,1
148.752,0.001006,0.00390625,0,0,0.03125,0.0234375,9.8125,0.001953125,0.001953125,0,nan,nan,nan,-0.0168457,-0.005859375,-0.01904297,0,0,-0.01904297,0,4.077,0,0,0,0,nan,2,0.542,0,0,0,0,0,0,0,0,0,1,2,1
148.762,0.001013,-0.00390625,0.001953125,0,0.03125,0.03125,9.804688,-0.001953125,0,0,nan,nan,nan,-0.01672363,-0.005859375,-0.01904297,0,0,-0.01904297,0,4.077,0,0,0,0,nan,2,0.553,0,0,0,0,0,0,0,0,0,1,2,1
148.772,0.001011,-0.00390625,0,-0.001953125,0.015625,0.0078125,9.867188,-0.001953125,0.001953125,0,nan,nan,nan,-0.01672363,-0.005859375,-0.01904297,0,0,-0.01904297,0,4.077,0,0,0,0,nan,2,0.563,0,0,0,0,0,0,0,0,0,1,2,1
148.782,0.001011,0.001953125,0.001953125,0,0.0625,0.015625,9.757812,0,0.001953125,0,nan,nan,nan,-0.01660156,-0.005859375,-0.01904297,0,0,-0.01904297,0,4.077,0,0,0,0,nan,2,0.573,0,0,0,0,0,0,0,0,0,1,2,1
148.791,0.001009,0.00390625,0,-0.001953125,0.0625,-0.015625,9.820312,0,0,0,nan,nan,nan,-0.01647949,-0.005859375,-0.01904297,0,0,-0.01904297,0,4.077,0,0,0,0,nan,2,0.582,0,0,0,0,0,0,0,0,0,1,2,1
148.801,0.001009,-0.001953125,-0.001953125,0,0.046875,0.03125,9.796875,-0.001953125,0,0,nan,nan,nan,-0.01647949,-0.005859375,-0.01904297,0,0,-0.01904297,0,4.077,0,0,0,0,nan,2,0.592,0,0,0,0,0,0,0,0,0,1,2,1
148.812,0.001041,0,0,0,0,0.015625,9.78125,0,0,0,nan,nan,nan,-0.01635742,-0.005859375,-0.01904297,0,0,-0.01904297,0,4.077,0,0,0,0,nan,2,0.602,0,0,0,0,0,0,0,0,0,1,2,1
148.822,0.001019,-0.001953125,0.001953125,0,0.015625,-0.0234375,9.773438,-0.001953125,0,0,nan,nan,nan,-0.01623535,-0.005859375,-0.01904297,0,0,-0.01904297,0,4.077,0,0,0,0,nan,2,0.612,0,0,0,0,0,0,0,0,0,1,2,1
148.832,0.001014,0.001953125,-0.001953125,0,0.03125,0,9.773438,0,0,0,nan,nan,nan,-0.01623535,-0.005737305,-0.01904297,0,0,-0.01904297,0,4.077,0,0,0,0,nan,2,0.622,0,0,0,0,0,0,0,0,0,1,2,1
148.842,0.001025,0,-0.005859375,0,0.0703125,0.046875,9.78125,0,-0.001953125,0,nan,nan,nan,-0.01611328,-0.005737305,-0.01904297,0,0,-0.01904297,0,4.077,0,0,0,0,nan,2,0.632,0,0,0,0,0,0,0,0,0,1,2,1
