t,dt_s,gyro_x,gyro_y,gyro_z,acc_x,acc_y,acc_z,rates.x,rates.y,rates.z,ratesTarget.x,ratesTarget.y,ratesTarget.z,attitude.x,attitude.y,attitude.z,attitudeTarget.x,attitudeTarget.y,attitudeTarget.z,thrustTarget,battery_v,rc_roll,rc_pitch,rc_yaw,rc_throttle,rc_mode,flight_mode,rc_age_s,armed,fault_mask,motor_rl,motor_rr,motor_fr,motor_fl,rate_i_x,rate_i_y,rate_i_z,mix_scale,control_source,accel_correction_confidence
1196.443,0.001018,-0.02734375,-0.04492188,0.08398438,0.1015625,-2.328125,9.28125,-0.02734375,0.00390625,0.07421875,0,0.00390625,0,0.0001220703,-0.0006103516,0.1032715,0,0,0.1010742,0.3105164,4.077,0,0,0,0.2999878,nan,2,1.974,1,0,0.3761292,0.2512817,0.3669128,0.2477722,-0.001953125,0.0009765625,0,1,3,0.3968254
1196.454,0.00108,0.05078125,-0.04492188,0.08398438,0.0625,1.023438,9.203125,0.01953125,-0.009765625,0.07617188,0,0.001953125,0,0.0001220703,-0.0004882812,0.1040039,0,0,0.1010742,0.3105164,4.077,0,0,0,0.2999878,nan,2,1.984,1,0,0.3378601,0.2973633,0.3375244,0.2693481,-0.001953125,0.0009765625,0,1,3,0
1196.464,0.001016,-0.1425781,-0.04101562,0.046875,2.078125,-1.703125,8.273438,-0.015625,-0.03320312,0.07226562,-0.00390625,0.00390625,0,0.0004882812,-0.0007324219,0.1048584,0,0,0.1010742,0.3105164,4.077,0,0,0,0.2999878,nan,2,1.994,1,0,0.3379211,0.2961731,0.3070374,0.3009644,-0.001953125,0.0009765625,0,1,3,0
1196.473,0.001032,0.0546875,-0.02929688,-0.03515625,-0.359375,-1.570312,10.76562,0.02734375,-0.02539062,-0.001953125,-0.001953125,0.005859375,0,0.0002441406,-0.0009765625,0.1051025,0,0,0.1010742,0.3105164,4.077,0,0,0,0.2999878,nan,2,2.003,1,0,0.2363281,0.39151,0.2440796,0.3701477,-0.001953125,0.0009765625,0,1,3,0
1196.483,0.000907,-0.02148438,0.0703125,-0.01953125,1.320312,0.6953125,9.664062,0.015625,0.015625,-0.01953125,-0.00390625,0.005859375,0,0.0006103516,-0.0009765625,0.1048584,0,0,0.1010742,0.3105164,4.077,0,0,0,0.2999878,nan,2,2.013,1,0,0.2842712,0.3276367,0.2937927,0.3363647,-0.001953125,0.0009765625,0,1,3,0.3968254
1196.493,0.00102,0.0625,0.04882812,-0.02929688,-1.046875,-0.703125,8.390625,-0.03125,0.0234375,-0.015625,-0.00390625,0.005859375,0,0.0004882812,-0.0009765625,0.1047363,0,0,0.1010742,0.3105164,4.077,0,0,0,0.2999878,nan,2,2.023,1,0,0.3042603,0.3081665,0.3069153,0.3227539,-0.001953125,0.0009765625,0,1,3,0
1196.503,0.000938,0.01367188,-0.04296875,0.04101562,-1.078125,2.835938,12.92969,0.03125,-0.02539062,0.01367188,-0.00390625,0.005859375,0,0.0007324219,-0.0009765625,0.1046143,0,0,0.1010742,0.3105164,4.077,0,0,0,0.2999878,nan,2,2.033,1,0,0.357605,0.2778931,0.3538208,0.2527771,-0.001953125,0.0009765625,0,1,3,0
1196.513,0.001001,0.02734375,0.0234375,0.02539062,0.7265625,0.3671875,6.804688,0.01953125,0.015625,0.03125,-0.00390625,0.005859375,0,0.0007324219,-0.0009765625,0.1049805,0,0,0.1010742,0.3105164,4.077,0,0,0,0.2999878,nan,2,2.043,1,0,0.3133545,0.3021851,0.3309937,0.2955627,-0.001953125,0.0009765625,0,1,3,0
1196.523,0.001002,0.08398438,0,0.009765625,-0.453125,-1.53125,9.085938,0.0078125,-0.0078125,0.0234375,-0.00390625,0.005859375,0,0.0007324219,-0.0008544922,0.1052246,0,0,0.1010742,0.3105164,4.077,0,0,0,0.2999878,nan,2,2.053,1,0,0.3190613,0.3118896,0.317688,0.293457,-0.001953125,0.0009765625,0,1,3,0
1196.533,0.000959,0.125,-0.05859375,0.1210938,-0.0859375,4.578125,13.51562,0.01953125,0.005859375,0.04296875,-0.001953125,0.00390625,0,0.0002441406,-0.0007324219,0.1052246,0,0,0.1010742,0.3105164,4.077,0,0,0,0.2999878,nan,2,2.063,1,0,0.3868408,0.2367859,0.418457,0.2000122,-0.001953125,0.0009765625,0,1,3,0
1196.544,0.000999,0.09179688,-0.06054688,0.05664062,1.976562,-1.59375,7.242188,0.0078125,-0.04101562,0.08789062,-0.001953125,0.005859375,0,0.0004882812,-0.0009765625,0.1062012,0,0,0.1010742,0.3105164,4.077,0,0,0,0.2999878,nan,2,2.074,1,0,0.3470459,0.2941895,0.3378296,0.263031,-0.001953125,0.0009765625,0,1,3,0
1196.554,0.000967,0.01757812,-0.04296875,0.05078125,-1.5,-0.046875,9.789062,0.0234375,-0.0546875,0.04101562,-0.00390625,0.0078125,0,0.0006103516,-0.001464844,0.1066895,0,0,0.1010742,0.3105164,4.077,0,0,0,0.2999878,nan,2,2.084,1,0,0.3056946,0.3308105,0.300293,0.3052979,-0.001953125,0.0009765625,0,1,3,0.1111111
1196.564,0.000999,0.0234375,-0.00390625,0.02148438,0.8671875,1.695312,11.97656,0,-0.0078125,0.0234375,-0.00390625,0.009765625,0,0.0007324219,-0.001708984,0.1070557,0,0,0.1010742,0.3105164,4.077,0,0,0,0.2999878,nan,2,2.094,1,0,0.2996521,0.3198853,0.3016357,0.3209534,-0.001953125,0.0009765625,0,1,3,0
1196.574,0.001005,0.01367188,0.001953125,0.00390625,0.5234375,-4.257812,8.65625,-0.04492188,0.03320312,0.02148438,-0.001953125,0.0078125,0,0.0004882812,-0.001464844,0.1072998,0,0,0.1010742,0.3105164,4.077,0,0,0,0.2999878,nan,2,2.104,1,0,0.3026733,0.3117065,0.3025818,0.3251648,-0.001953125,0.0009765625,0,1,3,0.5714286
1196.584,0.001005,0.01171875,-0.01757812,-0.015625,-1.625,3.875,12.49219,-0.015625,0.0078125,-0.00390625,0,0.0078125,0,0.0001220703,-0.001342773,0.1072998,0,0,0.1010742,0.3105164,4.077,0,0,0,0.2999878,nan,2,2.114,1,0,0.2838745,0.3396912,0.2874146,0.3310852,-0.001953125,0.0009765625,0,1,3,0
1196.593,0.001015,-0.1386719,-0.03515625,0.08007812,2.734375,-2.664062,8.71875,0.015625,0.009765625,0.0390625,-0.001953125,0.0078125,0,0.0003662109,-0.001220703,0.1074219,0,0,0.1010742,0.3105164,4.077,0,0,0,0.2999878,nan,2,2.123,1,0,0.3712158,0.2551575,0.3658752,0.2498474,-0.001953125,0.0009765625,0,1,3,0.3492064
1196.603,0.001017,0.05273438,-0.046875,0.06054688,0.1171875,-0.15625,10.03906,-0.001953125,-0.02539062,0.06445312,0,0.0078125,0,0,-0.001220703,0.1081543,0,0,0.1010742,0.3105164,4.077,0,0,0,0.2999878,nan,2,2.133,1,0,0.3463135,0.2895203,0.3433228,0.26297,-0.001953125,0.0009765625,0,1,3,0.3333333
1196.613,0.001008,0.01171875,-0.08789062,0.04296875,-0.0546875,0.4765625,11.97656,-0.01367188,0.0078125,0.01953125,0,0.005859375,0,-0.0001220703,-0.001098633,0.1083984,0,0,0.1010742,0.3105164,4.077,0,0,0,0.2999878,nan,2,2.143,1,0,0.3036194,0.3268738,0.2982483,0.313385,-0.001953125,0.0009765625,0,1,3,0
1196.623,0.001015,0.015625,-0.01171875,0.01367188,0.4375,-3.453125,9.460938,-0.03710938,0.0234375,0.01367188,0.001953125,0.005859375,0,-0.0003662109,-0.0008544922,0.1086426,0,0,0.1010742,0.3105164,4.077,0,0,0,0.2999878,nan,2,2.153,1,0,0.3025513,0.3166809,0.2956238,0.3272705,-0.001953125,0.0009765625,0,1,3,0.2857143
1196.633,0.001015,0.01757812,-0.0703125,-0.01367188,-1.3125,3.59375,10.51562,0.04101562,-0.02148438,-0.0234375,0.001953125,0.005859375,0,-0.0004882812,-0.0008544922,0.1086426,0,0,0.1010742,0.3105164,4.077,0,0,0,0.2999878,nan,2,2.163,1,0,0.2643433,0.3702698,0.2782593,0.3292542,-0.001953125,0.0009765625,0,1,3,0
1196.643,0.001015,-0.00390625,0.0546875,0.0234375,0.203125,0.671875,11.95312,-0.001953125,-0.02148438,0.01757812,0.001953125,0.0078125,0,-0.0003662109,-0.001342773,0.1086426,0,0,0.1010742,0.3105164,4.077,0,0,0,0.2999878,nan,2,2.174,1,0,0.3423462,0.2787781,0.3435669,0.2774048,-0.001953125,0.0009765625,0,1,3,0
1196.654,0.001015,0.05273438,-0.015625,-0.01757812,0.5703125,-0.3203125,7.632812,0.03515625,-0.0078125,-0.005859375,0.001953125,0.0078125,0,-0.0002441406,-0.001342773,0.1086426,0,0,0.1010742,0.3105164,4.077,0,0,0,0.2999878,nan,2,2.184,1,0,0.2850952,0.3395996,0.2966919,0.3207397,-0.001953125,0.0009765625,0,1,3,0
1196.664,0.001015,-0.1503906,-0.07421875,-0.005859375,-1.523438,0.6640625,10.49219,-0.08398438,-0.01757812,-0.03125,0.001953125,0.0078125,0,-0.0003662109,-0.001464844,0.1083984,0,0,0.1010742,0.3105164,4.077,0,0,0,0.2999878,nan,2,2.194,1,0,0.3087463,0.3231812,0.2650146,0.3451538,-0.001953125,0.0009765625,0,1,3,0
1196.674,0.001015,0.05859375,-0.04492188,0.05273438,-0.9375,1.398438,11.64062,0.0546875,-0.015625,0.01171875,0.00390625,0.009765625,0,-0.0006103516,-0.001708984,0.1082764,0,0,0.1010742,0.3105164,4.077,0,0,0,0.2999878,nan,2,2.204,1,0,0.3572083,0.2669983,0.3876038,0.2302856,-0.001953125,0.0009765625,0,1,3,0
1196.683,0.001036,0.046875,0.02539062,-0.01171875,1.375,0.6015625,7.609375,-0.015625,0.009765625,0.00390625,0.00390625,0.01171875,0,-0.0006103516,-0.001953125,0.1083984,0,0,0.1010742,0.3105164,4.077,0,0,0,0.2999878,nan,2,2.213,1,0,0.2938843,0.3190002,0.2998657,0.3293457,-0.001953125,0.0009765625,0,1,3,0
1196.694,0.001012,-0.1054688,0.1015625,0.06054688,-1.351562,-2.445312,8.671875,-0.04492188,0.00390625,0.03320312,0.005859375,0.01367188,0,-0.0009765625,-0.002075195,0.1085205,0,0,0.1010742,0.3105164,4.077,0,0,0,0.2999878,nan,2,2.224,1,0,0.3476868,0.2658997,0.345459,0.2830505,-0.001953125,0.0009765625,0,1,3,0
1196.703,0.001145,0.04492188,-0.00390625,0.0390625,-0.3203125,0.4609375,11.36719,0.00390625,0.005859375,0.02539062,0.0078125,0.01171875,0,-0.001342773,-0.001953125,0.1088867,0,0,0.1010742,0.3105164,4.077,0,0,0,0.2999878,nan,2,2.233,1,0,0.3096008,0.3144226,0.3197327,0.2983398,-0.001953125,0.0009765625,0,1,3,0
1196.713,0.000992,-0.04101562,-0.015625,0.1289062,2.070312,-3.101562,11.65625,0.02539062,-0.02539062,0.1015625,0.0078125,0.01367188,0,-0.001220703,-0.002075195,0.109375,0,0,0.1010742,0.3105164,4.077,0,0,0,0.2999878,nan,2,2.243,1,0,0.426239,0.2068787,0.4238892,0.1851196,-0.001953125,0.0009765625,0,1,3,0
1196.723,0.001008,0.0078125,-0.07617188,0.07226562,-0.0703125,3.25,11.34375,0.046875,-0.0625,0.1074219,0.005859375,0.015625,0,-0.001098633,-0.002563477,0.1105957,0,0,0.1010742,0.3105164,4.077,0,0,0,0.2999878,nan,2,2.253,1,0,0.3398132,0.3040466,0.3334351,0.264801,-0.001953125,0.001953125,0,1,3,0
1196.733,0.001005,-0.06054688,-0.03515625,-0.015625,1.351562,-2.117188,10.19531,0.046875,-0.02148438,0.01171875,0.00390625,0.015625,0,-0.0007324219,-0.002563477,0.111084,0,0,0.1010742,0.3105164,4.077,0,0,0,0.2999878,nan,2,2.263,1,0,0.2325745,0.4034119,0.2302551,0.3758545,-0.001953125,0.001953125,0,1,3,0
1196.743,0.001005,-0.1230469,-0.03710938,-0.0625,-2.242188,0.6171875,11.03906,-0.0234375,-0.02539062,-0.04882812,0.005859375,0.01757812,0,-0.0009765625,-0.002929688,0.1108398,0,0,0.1010742,0.3105164,4.077,0,0,0,0.2999878,nan,2,2.273,1,0,0.2507935,0.3773804,0.2259216,0.38797,-0.001953125,0.001953125,0,1,3,0
1196.754,0.001005,0.1191406,0.01953125,-0.07226562,0.140625,1.640625,9.851562,0.005859375,-0.005859375,-0.07617188,0.0078125,0.01953125,0,-0.001220703,-0.003051758,0.1102295,0,0,0.1010742,0.3105164,4.077,0,0,0,0.2999878,nan,2,2.284,1,0,0.2594299,0.3643494,0.2713013,0.3470154,-0.001953125,0.001953125,0,1,3,0
1196.764,0.001005,0.05859375,-0.02148438,-0.00390625,2.117188,1.1875,11.48438,0.03710938,-0.02539062,-0.02148438,0.005859375,0.01953125,0,-0.0009765625,-0.003295898,0.1097412,0,0,0.1010742,0.3105164,4.077,0,0,0,0.2999878,nan,2,2.294,1,0,0.3562927,0.2761841,0.3601685,0.2494812,-0.001953125,0.001953125,0,1,3,0
1196.774,0.001005,0.1015625,0.06445312,-0.01953125,0.59375,-0.4765625,10.49219,0.01367188,0.01367188,-0.0234375,0.005859375,0.01953125,0,-0.0009765625,-0.003295898,0.1094971,0,0,0.1010742,0.3105164,4.077,0,0,0,0.2999878,nan,2,2.304,1,0,0.3031006,0.3135986,0.3183899,0.3070374,-0.001953125,0.001953125,0,1,3,0
1196.784,0.001005,0.03320312,-0.005859375,0.02539062,0.5390625,-1.835938,6.445312,0.06835938,-0.0234375,-0.009765625,0.001953125,0.02148438,0,-0.0004882812,-0.003417969,0.1091309,0,0,0.1010742,0.3105164,4.077,0,0,0,0.2999878,nan,2,2.314,1,0,0.3403931,0.2888794,0.3499756,0.2628479,-0.001953125,0.001953125,0,1,3,0
1196.793,0.001071,-0.07617188,-0.05859375,-0.01171875,-1.445312,2.5625,13.89062,-0.0390625,-0.03125,-0.01171875,0.001953125,0.0234375,0,-0.0003662109,-0.00378418,0.1091309,0,0,0.1010742,0.3105164,4.077,0,0,0,0.2999878,nan,2,2.323,1,0,0.3196716,0.3115845,0.2859192,0.3249817,-0.001953125,0.001953125,0,1,3,0
1196.803,0.001022,0.015625,0.07617188,0.0390625,1.453125,-2.328125,5.398438,0.03320312,0.04296875,0.001953125,0.00390625,0.02148438,0,-0.0004882812,-0.003662109,0.1088867,0,0,0.1010742,0.3105164,4.077,0,0,0,0.2999878,nan,2,2.333,1,0,0.3382263,0.2722778,0.3714294,0.2601624,-0.001953125,0.001953125,0,1,3,0
1196.813,0.000992,-0.04101562,0.03125,0.03710938,1.171875,-2.328125,6.984375,0.01367188,0.009765625,0.03320312,0.001953125,0.02148438,0,-0.0002441406,-0.003417969,0.1091309,0,0,0.1010742,0.3105164,4.077,0,0,0,0.2999878,nan,2,2.343,1,0,0.3547668,0.2716675,0.3504028,0.2652588,-0.001953125,0.001953125,0,1,3,0
1196.823,0.00101,0.015625,0.07421875,0.05078125,-1.695312,1.90625,13.10156,0.01757812,0.01953125,0.05078125,0.001953125,0.01953125,0,-0.0002441406,-0.003417969,0.1096191,0,0,0.1010742,0.3105164,4.077,0,0,0,0.2999878,nan,2,2.353,1,0,0.3259277,0.29245,0.337738,0.2859802,-0.001953125,0.001953125,0,1,3,0
1196.833,0.001015,-0.01171875,0.0078125,-0.009765625,1.640625,1.679688,8.3125,-0.00390625,-0.009765625,0.01367188,0.001953125,0.01953125,0,-0.0002441406,-0.003295898,0.1099854,0,0,0.1010742,0.3105164,4.077,0,0,0,0.2999878,nan,2,2.363,1,0,0.2763672,0.35672,0.2653198,0.343689,-0.001953125,0.001953125,0,1,3,0
1196.843,0.001012,0.09179688,0.1523438,0.05078125,-0.6171875,-3.125,10,0.0078125,0.05273438,0.0234375,0.00390625,0.01757812,0,-0.0004882812,-0.003051758,0.1101074,0,0,0.1010742,0.3105164,4.077,0,0,0,0.2999878,nan,2,2.373,1,0,0.3208008,0.2857666,0.3528137,0.2827454,-0.001953125,0.001953125,0,1,3,0
1196.854,0.000995,-0.0625,0.07421875,0.0390625,-0.328125,1.929688,10.125,0.00390625,0.03320312,0.05273438,0.001953125,0.015625,0,-0.0002441406,-0.002685547,0.1107178,0,0,0.1010742,0.3105164,4.077,0,0,0,0.2999878,nan,2,2.384,1,0,0.3248291,0.2950134,0.3227539,0.2994995,-0.001953125,0.001953125,0,1,3,0
1196.864,0.001018,-0.09960938,0.02148438,-0.01757812,1.195312,-0.7578125,7.148438,-0.03515625,0.01953125,-0.0078125,0.001953125,0.01367188,0,-0.0004882812,-0.002319336,0.1108398,0,0,0.1010742,0.3105164,4.077,0,0,0,0.2999878,nan,2,2.394,1,0,0.2712708,0.3577576,0.2541199,0.3589783,-0.001953125,0.001953125,0,1,3,0
1196.873,0.001002,0.0546875,0.02734375,0.009765625,-2.96875,0.515625,12.76562,0.05664062,0.001953125,0.009765625,0.001953125,0.01367188,0,-0.0003662109,-0.002319336,0.1108398,0,0,0.1010742,0.3105164,4.077,0,0,0,0.2999878,nan,2,2.403,1,0,0.3087769,0.3163147,0.3307495,0.2862244,-0.001953125,0.001953125,0,1,3,0
1196.884,0.001018,-0.1230469,0.001953125,0.015625,-0.2421875,1.820312,10.92188,-0.03125,-0.00390625,-0.01171875,0,0.01367188,0,0.0001220703,-0.002319336,0.1107178,0,0,0.1010742,0.3105164,4.077,0,0,0,0.2999878,nan,2,2.414,1,0,0.3328247,0.2961426,0.2989502,0.3141785,-0.001953125,0.001953125,0,1,3,0
1196.893,0.001005,0.078125,0.02539062,0.005859375,2.140625,-1.992188,8.773438,0.0234375,0,0.00390625,0,0.01367188,0,-0.0001220703,-0.002319336,0.1107178,0,0,0.1010742,0.3105164,4.077,0,0,0,0.2999878,nan,2,2.423,1,0,0.3125305,0.3130493,0.3282471,0.2882996,-0.001953125,0.001953125,0,1,3,0
1196.903,0.000999,-0.09765625,-0.03515625,-0.0234375,-1.328125,0.21875,7.578125,-0.03710938,0.001953125,-0.0078125,0,0.01367188,0,0,-0.002197266,0.1108398,0,0,0.1010742,0.3105164,4.077,0,0,0,0.2999878,nan,2,2.433,1,0,0.2954712,0.3357849,0.2664795,0.3443604,-0.001953125,0.001953125,0,1,3,0
1196.913,0.001026,0.09570312,0.02929688,0.04882812,0.2890625,3.601562,12.04688,0.03320312,0.001953125,-0.01953125,0,0.01367188,0,0,-0.002197266,0.1104736,0,0,0.1010742,0.3105164,4.077,0,0,0,0.2999878,nan,2,2.443,1,0,0.3222351,0.3031006,0.3382263,0.2785339,-0.001953125,0.001953125,0,1,3,0
1196.923,0.001003,0.03515625,-0.0703125,-0.01953125,1.4375,-1.742188,10.65625,0.01171875,-0.0234375,-0.03320312,0,0.01367188,0,0,-0.002197266,0.1102295,0,0,0.1010742,0.3105164,4.077,0,0,0,0.2999878,nan,2,2.453,1,0,0.3153992,0.3213501,0.3077087,0.2976379,-0.001953125,0.001953125,0,1,3,0
1196.933,0.001005,0.03710938,-0.05078125,-0.01757812,0.2265625,-2.8125,9.6875,0.04101562,-0.01367188,-0.005859375,-0.001953125,0.015625,0,0.0002441406,-0.002441406,0.1101074,0,0,0.1010742,0.3105164,4.077,0,0,0,0.2999878,nan,2,2.463,1,0,0.3111572,0.3153992,0.3180237,0.2975159,-0.001953125,0.001953125,0,1,3,0.3492064
1196.943,0.001005,0.001953125,-0.08984375,0.03125,-1.390625,2.625,10.92188,0.00390625,-0.02148438,0.02539062,-0.001953125,0.015625,0,0.0002441406,-0.002563477,0.1102295,0,0,0.1010742,0.3105164,4.077,0,0,0,0.2999878,nan,2,2.473,1,0,0.3503418,0.2854309,0.341095,0.2652283,-0.001953125,0.001953125,0,1,3,0
1196.954,0.001005,0.01367188,0.03320312,0.05664062,1.039062,-1.359375,8.328125,-0.02539062,0.005859375,0.03515625,0,0.015625,0,0,-0.002685547,0.1104736,0,0,0.1010742,0.3105164,4.077,0,0,0,0.2999878,nan,2,2.484,1,0,0.3442078,0.2762146,0.3442078,0.2774658,-0.001953125,0.001953125,0,1,3,0
1196.964,0.001005,0.01953125,0.01953125,0.02929688,1.492188,-0.1328125,8.039062,-0.001953125,-0.02734375,0.05664062,0,0.01757812,0,0.0001220703,-0.002807617,0.111084,0,0,0.1010742,0.3105164,4.077,0,0,0,0.2999878,nan,2,2.494,1,0,0.3323669,0.3025513,0.317749,0.2893982,-0.001953125,0.001953125,0,1,3,0
1196.974,0.001005,0.02734375,-0.0546875,0.01367188,-1.632812,0.1484375,13.07031,0,-0.01953125,0.01757812,0,0.01757812,0,0.0001220703,-0.002929688,0.1113281,0,0,0.1010742,0.3105164,4.077,0,0,0,0.2999878,nan,2,2.504,1,0,0.2947693,0.3359985,0.2885742,0.3227539,-0.001953125,0.001953125,0,1,3,0
1196.984,0.001005,0.08984375,0.02148438,0.01953125,1,0.1875,7,0.06054688,0.01171875,0.015625,-0.001953125,0.01757812,0,0.0003662109,-0.002929688,0.1115723,0,0,0.1010742,0.3105164,4.077,0,0,0,0.2999878,nan,2,2.514,1,0,0.3039856,0.3183899,0.3250732,0.2946472,-0.001953125,0.001953125,0,1,3,0
1196.994,0.001005,0.01953125,0.01757812,0.046875,0.1796875,-1.5625,9.546875,0.02539062,0.001953125,0.01757812,-0.00390625,0.01757812,0,0.0007324219,-0.002807617,0.1116943,0,0,0.1010742,0.3105164,4.077,0,0,0,0.2999878,nan,2,2.524,1,0,0.3330078,0.2939453,0.3342896,0.2808533,-0.001953125,0.001953125,0,1,3,0.4603175
1197.003,0.00096,0.03710938,-0.04492188,0.01953125,0.15625,1.78125,9.515625,-0.001953125,-0.03125,0.02539062,-0.00390625,0.01757812,0,0.0006103516,-0.002929688,0.1119385,0,0,0.1010742,0.3105164,4.077,0,0,0,0.2999878,nan,2,2.533,1,0,0.3238525,0.315155,0.311615,0.2915039,-0.001953125,0.001953125,0,1,3,0.4126984
1197.013,0.001041,0.02734375,-0.02539062,-0.03320312,1.515625,-1.320312,8.492188,0.04101562,-0.0078125,-0.015625,-0.005859375,0.01757812,0,0.0009765625,-0.002929688,0.1119385,0,0,0.1010742,0.3105164,4.077,0,0,0,0.2999878,nan,2,2.543,1,0,0.2627563,0.3670959,0.2687378,0.3435364,-0.001953125,0.001953125,0,1,3,0
1197.023,0.001014,0.03320312,0.01367188,-0.08984375,-1.609375,-2.585938,9.648438,0.001953125,-0.00390625,-0.06835938,-0.005859375,0.01953125,0,0.0008544922,-0.003051758,0.1115723,0,0,0.1010742,0.3105164,4.077,0,0,0,0.2999878,nan,2,2.553,1,0,0.239502,0.3863831,0.2424316,0.3737793,-0.001953125,0.001953125,0,1,3,0
1197.033,0.001015,0.03515625,-0.03710938,-0.06835938,-1.84375,3.78125,13.96094,0,0.0234375,-0.08789062,-0.0078125,0.01757812,0,0.001342773,-0.003051758,0.1105957,0,0,0.1010742,0.3105164,4.077,0,0,0,0.2999878,nan,2,2.563,1,0,0.2824402,0.3375854,0.2791748,0.3428955,-0.001953125,0.001953125,0,1,3,0
1197.044,0.000997,0.03515625,0.01171875,-0.015625,1.34375,2.148438,10.375,-0.001953125,0.009765625,-0.03710938,-0.0078125,0.01757812,0,0.001342773,-0.003051758,0.1101074,0,0,0.1010742,0.3105164,4.077,0,0,0,0.2999878,nan,2,2.573,1,0,0.3330994,0.2910767,0.3365784,0.2813416,-0.001953125,0.001953125,0,1,3,0
1197.053,0.000953,0.03320312,-0.02734375,0.06054688,0.6328125,-2.226562,8.351562,0.009765625,-0.009765625,0.0078125,-0.0078125,0.01757812,0,0.001220703,-0.002929688,0.1098633,0,0,0.1010742,0.3105164,4.077,0,0,0,0.2999878,nan,2,2.584,1,0,0.3697205,0.2648315,0.3680725,0.2394714,-0.001953125,0.001953125,0,1,3,0
1197.064,0.001003,0.0078125,0.04296875,0.001953125,0.8125,0.0625,8.460938,-0.02929688,0.02148438,0.01171875,-0.005859375,0.01757812,0,0.0008544922,-0.002807617,0.1101074,0,0,0.1010742,0.3105164,4.077,0,0,0,0.2999878,nan,2,2.594,1,0,0.3061829,0.3142395,0.3063354,0.3153381,-0.001953125,0.001953125,0,1,3,0
1197.074,0.001009,0.01953125,0.02539062,-0.04101562,-0.9921875,2.039062,14.42969,0.01171875,-0.00390625,-0.009765625,-0.00390625,0.01757812,0,0.0008544922,-0.002807617,0.1101074,0,0,0.1010742,0.3105164,4.077,0,0,0,0.2999878,nan,2,2.604,1,0,0.2828369,0.344574,0.2891235,0.325592,-0.001953125,0.001953125,0,1,3,0
1197.083,0.000863,-0.0546875,0.03515625,-0.0625,2.195312,-1.929688,7.953125,-0.009765625,0.00390625,-0.05078125,-0.00390625,0.015625,0,0.0007324219,-0.002685547,0.1096191,0,0,0.1010742,0.3105164,4.077,0,0,0,0.2999878,nan,2,2.613,1,0,0.2872314,0.3410645,0.2771606,0.3366394,-0.001953125,0.001953125,0,1,3,0
1197.093,0.000941,0.0546875,-0.02148438,-0.01171875,1.007812,-2.609375,7.171875,0.01367188,-0.005859375,-0.02148438,-0.00390625,0.01757812,0,0.0007324219,-0.002807617,0.1092529,0,0,0.1010742,0.3105164,4.077,0,0,0,0.2999878,nan,2,2.623,1,0,0.327179,0.2972412,0.3367615,0.2809143,-0.001953125,0.001953125,0,1,3,0
1197.103,0.001021,-0.01171875,-0.0078125,0.015625,-3.328125,0.96875,12.53906,-0.01367188,0.001953125,-0.001953125,-0.00390625,0.015625,0,0.0006103516,-0.002807617,0.1091309,0,0,0.1010742,0.3105164,4.077,0,0,0,0.2999878,nan,2,2.633,1,0,0.3320618,0.2971191,0.3251038,0.2878113,-0.001953125,0.001953125,0,1,3,0
1197.113,0.001032,0.1972656,0.0703125,-0.04492188,0.3359375,2.328125,6.75,-0.001953125,0.0234375,-0.01953125,-0.00390625,0.01757812,0,0.0006103516,-0.002929688,0.1091309,0,0,0.1010742,0.3105164,4.077,0,0,0,0.2999878,nan,2,2.643,1,0,0.2634888,0.3485107,0.2810364,0.3490601,-0.001953125,0.001953125,0,1,3,0
1197.123,0.000981,-0.001953125,-0.08007812,0.02929688,1.53125,-2.460938,8.671875,0.03515625,-0.03515625,0.015625,-0.005859375,0.01757812,0,0.0008544922,-0.002929688,0.1091309,0,0,0.1010742,0.3105164,4.077,0,0,0,0.2999878,nan,2,2.653,1,0,0.3506165,0.2940979,0.3380737,0.2593079,-0.001953125,0.001953125,0,1,3,0
1197.133,0.001005,0,0.03125,0.02929688,-1.523438,0.2578125,12.16406,0.0234375,0.005859375,0.015625,-0.0078125,0.01757812,0,0.001220703,-0.003051758,0.1092529,0,0,0.1010742,0.3105164,4.077,0,0,0,0.2999878,nan,2,2.663,1,0,0.3228149,0.2984314,0.3282471,0.2926331,-0.001953125,0.001953125,0,1,3,0
1197.143,0.001005,0.03125,-0.07226562,0.04882812,1.015625,0.078125,8.960938,-0.0078125,-0.015625,0.05273438,-0.005859375,0.01757812,0,0.001098633,-0.002929688,0.1097412,0,0,0.1010742,0.3105164,4.077,0,0,0,0.2999878,nan,2,2.673,1,0,0.3547668,0.2850037,0.3407898,0.2615356,-0.001953125,0.001953125,0,1,3,0
1197.154,0.001005,0.015625,-0.03515625,-0.01757812,-0.1796875,-3.90625,8.695312,0.00390625,-0.001953125,0.01367188,-0.005859375,0.01757812,0,0.001098633,-0.002929688,0.1099854,0,0,0.1010742,0.3105164,4.077,0,0,0,0.2999878,nan,2,2.684,1,0,0.276947,0.3528748,0.2737427,0.338562,-0.001953125,0.001953125,0,1,3,0.3174603
1197.164,0.001005,-0.05273438,0.03710938,0.009765625,-1.570312,5.484375,13.39062,0.009765625,0.0234375,0.03320312,-0.005859375,0.01757812,0,0.0009765625,-0.002807617,0.1102295,0,0,0.1010742,0.3105164,4.077,0,0,0,0.2999878,nan,2,2.694,1,0,0.3212585,0.2960205,0.3356323,0.2891846,-0.001953125,0.001953125,0,1,3,0
1197.174,0.001005,0.04492188,0.015625,-0.03320312,1.164062,-0.6640625,8.265625,0.009765625,0.01367188,0.001953125,-0.005859375,0.01757812,0,0.001098633,-0.002807617,0.1104736,0,0,0.1010742,0.3105164,4.077,0,0,0,0.2999878,nan,2,2.704,1,0,0.2697449,0.3545837,0.2715454,0.3462219,-0.001953125,0.001953125,0,1,3,0
1197.184,0.001005,0.005859375,-0.0234375,0.03515625,-0.9296875,-1.460938,9.101562,0.02734375,-0.0234375,0.03125,-0.0078125,0.015625,0,0.001342773,-0.002685547,0.1105957,0,0,0.1010742,0.3105164,4.077,0,0,0,0.2999878,nan,2,2.714,1,0,0.3466492,0.2922363,0.340332,0.2628479,-0.001953125,0.001953125,0,1,3,0
1197.194,0.001005,0.03320312,0.01367188,-0.0078125,-1.695312,1.65625,13.30469,0.01171875,-0.001953125,0.01171875,-0.0078125,0.01757812,0,0.001220703,-0.002807617,0.1108398,0,0,0.1010742,0.3105164,4.077,0,0,0,0.2999878,nan,2,2.724,1,0,0.2845459,0.3421631,0.2926331,0.3227539,-0.001953125,0.001953125,0,1,3,0
1197.203,0.001016,-0.04492188,0.01757812,-0.07617188,1.609375,-1.671875,7.859375,-0.01953125,0.005859375,-0.03320312,-0.005859375,0.015625,0,0.001098633,-0.002685547,0.1108398,0,0,0.1010742,0.3105164,4.077,0,0,0,0.2999878,nan,2,2.733,1,0,0.2452087,0.3808289,0.2376099,0.378418,-0.001953125,0.001953125,0,1,3,0
1197.213,0.001014,-0.04882812,0.02929688,-0.0703125,-0.140625,-0.5859375,5.546875,-0.02929688,0.02148438,-0.0703125,-0.00390625,0.015625,0,0.0006103516,-0.002441406,0.1103516,0,0,0.1010742,0.3105164,4.077,0,0,0,0.2999878,nan,2,2.743,1,0,0.2434082,0.3804626,0.2462463,0.3720093,-0.001953125,0.001953125,0,1,3,0
1197.223,0.001046,0.08789062,-0.01367188,-0.0546875,-1.390625,3.703125,13.32812,0.03320312,-0.04101562,-0.046875,-0.00390625,0.015625,0,0.0007324219,-0.002685547,0.1097412,0,0,0.1010742,0.3105164,4.077,0,0,0,0.2999878,nan,2,2.753,1,0,0.2995911,0.3409119,0.3015137,0.3000793,-0.001953125,0.001953125,0,1,3,0
1197.233,0.001049,0.03320312,-0.04492188,-0.00390625,0.8359375,0.84375,9.265625,0.0390625,-0.009765625,-0.03320312,-0.005859375,0.015625,0,0.0008544922,-0.002685547,0.1092529,0,0,0.1010742,0.3105164,4.077,0,0,0,0.2999878,nan,2,2.763,1,0,0.3398438,0.2900085,0.3486633,0.2635803,-0.001953125,0.001953125,0,1,3,0.03174603
1197.243,0.001015,0.08789062,0.03125,0.04296875,1.554688,0.6171875,8.789062,0.04296875,0.02539062,0.03125,-0.005859375,0.015625,0,0.0008544922,-0.002685547,0.1092529,0,0,0.1010742,0.3105164,4.077,0,0,0,0.2999878,nan,2,2.773,1,0,0.3614807,0.2544861,0.3884888,0.2376404,-0.001953125,0.001953125,0,1,3,0
1197.253,0.001015,-0.0234375,-0.02929688,0.03515625,-2.328125,-1.4375,10.21094,-0.009765625,-0.01171875,0.0390625,-0.005859375,0.015625,0,0.0009765625,-0.002685547,0.1096191,0,0,0.1010742,0.3105164,4.077,0,0,0,0.2999878,nan,2,2.784,1,0,0.3427734,0.2925415,0.3258057,0.2810059,-0.001953125,0.001953125,0,1,3,0
1197.264,0.001068,-0.0390625,0.1875,0.05273438,0.84375,2.914062,8.75,-0.01757812,0.05664062,0.01757812,-0.00390625,0.015625,0,0.0007324219,-0.002685547,0.1098633,0,0,0.1010742,0.3105164,4.077,0,0,0,0.2999878,nan,2,2.794,1,0,0.2920227,0.3049316,0.3201294,0.3250427,-0.001953125,0.001953125,0,1,3,0
1197.274,0.00099,0.04296875,-0.07421875,-0.04882812,1.125,-2.84375,9.523438,0.0234375,0.00390625,-0.01757812,-0.005859375,0.015625,0,0.0008544922,-0.002441406,0.1097412,0,0,0.1010742,0.3105164,4.077,0,0,0,0.2999878,nan,2,2.804,1,0,0.2844543,0.3496704,0.2850342,0.3229675,-0.001953125,0.001953125,0,1,3,0.3492064
1197.283,0.001038,0.08984375,-0.02929688,-0.05273438,-0.90625,2.25,10.02344,0.04296875,0.01367188,-0.0390625,-0.005859375,0.015625,0,0.0009765625,-0.002441406,0.1094971,0,0,0.1010742,0.3105164,4.077,0,0,0,0.2999878,nan,2,2.813,1,0,0.269043,0.3553467,0.2884521,0.3292542,-0.001953125,0.001953125,0,1,3,0
1197.294,0.001012,0.0078125,-0.09375,0.0078125,-0.1171875,2.414062,11.04688,-0.0234375,-0.046875,-0.015625,-0.005859375,0.015625,0,0.0009765625,-0.002563477,0.1092529,0,0,0.1010742,0.3105164,4.077,0,0,0,0.2999878,nan,2,2.824,1,0,0.336792,0.3110352,0.3042908,0.2899475,-0.001953125,0.002929688,0,1,3,0
1197.303,0.001009,-0.1464844,0.09960938,-0.01171875,1.117188,-3.5,10.99219,-0.001953125,0.046875,-0.01757812,-0.005859375,0.01367188,0,0.001098633,-0.002319336,0.1090088,0,0,0.1010742,0.3105164,4.077,0,0,0,0.2999878,nan,2,2.833,1,0,0.3064575,0.3067017,0.3121643,0.316803,-0.001953125,0.002929688,0,1,3,0
1197.313,0.001003,-0.03710938,-0.02734375,0.03125,-1.15625,-1.085938,7.945312,-0.06054688,-0.02929688,0.0078125,-0.00390625,0.01367188,0,0.0007324219,-0.002319336,0.1088867,0,0,0.1010742,0.3105164,4.077,0,0,0,0.2999878,nan,2,2.843,1,0,0.3688965,0.2728271,0.3344421,0.2659302,-0.001953125,0.002929688,0,1,3,0
1197.323,0.001009,0.0546875,-0.04492188,0.02929688,-0.828125,3.070312,12.64062,0.01757812,0.01757812,0.0234375,-0.00390625,0.01367188,0,0.0006103516,-0.002319336,0.1091309,0,0,0.1010742,0.3105164,4.077,0,0,0,0.2999878,nan,2,2.853,1,0,0.3218689,0.2997131,0.3355103,0.2850037,-0.001953125,0.002929688,0,1,3,0
1197.333,0.001037,-0.02539062,0.02734375,0.01367188,0.953125,-1.109375,8.726562,0.01171875,0.01367188,0.0234375,-0.005859375,0.01367188,0,0.0009765625,-0.002197266,0.109375,0,0,0.1010742,0.3105164,4.077,0,0,0,0.2999878,nan,2,2.863,1,0,0.30896,0.3143616,0.3076477,0.3111267,-0.001953125,0.002929688,0,1,3,0
1197.343,0.001008,0.1933594,0.001953125,0.07226562,-1.070312,2,8.53125,0.0703125,-0.0078125,0.03515625,-0.00390625,0.01171875,0,0.0007324219,-0.002075195,0.1097412,0,0,0.1010742,0.3105164,4.077,0,0,0,0.2999878,nan,2,2.873,1,0,0.3279419,0.3083191,0.3632812,0.2425537,-0.001953125,0.002929688,0,1,3,0
1197.353,0.001008,-0.02148438,-0.0546875,0.04492188,-0.6953125,-2.171875,8.703125,-0.01757812,0.01171875,0.06835938,-0.00390625,0.01171875,0,0.0007324219,-0.002075195,0.1104736,0,0,0.1010742,0.3105164,4.077,0,0,0,0.2999878,nan,2,2.884,1,0,0.329895,0.2951965,0.3208008,0.2962036,-0.001953125,0.002929688,0,1,3,0
1197.364,0.001008,-0.02539062,0.009765625,0.02929688,0.578125,-0.8125,7.726562,-0.01367188,0.02539062,0.01953125,-0.00390625,0.01171875,0,0.0006103516,-0.001953125,0.1107178,0,0,0.1010742,0.3105164,4.077,0,0,0,0.2999878,nan,2,2.894,1,0,0.2980042,0.3236694,0.2985535,0.3218689,-0.001953125,0.002929688,0,1,3,0
1197.374,0.001008,0.0546875,-0.02929688,0.06445312,-1.632812,2.382812,13.32812,-0.005859375,-0.02148438,0.0703125,-0.00390625,0.01171875,0,0.0004882812,-0.001953125,0.1113281,0,0,0.1010742,0.3105164,4.077,0,0,0,0.2999878,nan,2,2.904,1,0,0.3627625,0.2731018,0.3553162,0.250946,-0.001953125,0.002929688,0,1,3,0
1197.384,0.001008,-0.05664062,0.09375,-0.009765625,0.7421875,1.414062,8.203125,-0.009765625,0.02539062,0.03125,-0.00390625,0.01171875,0,0.0006103516,-0.001953125,0.1118164,0,0,0.1010742,0.3105164,4.077,0,0,0,0.2999878,nan,2,2.914,1,0,0.2657471,0.3478088,0.2702026,0.3583374,-0.001953125,0.002929688,0,1,3,0
1197.394,0.001008,-0.01367188,-0.03515625,-0.0859375,-1.46875,0.0234375,9.765625,-0.03710938,-0.00390625,-0.04101562,-0.001953125,0.01171875,0,0.0003662109,-0.001953125,0.1118164,0,0,0.1010742,0.3105164,4.077,0,0,0,0.2999878,nan,2,2.924,1,0,0.2309265,0.4005127,0.2160339,0.3946228,-0.001953125,0.002929688,0,1,3,0.07936508
1197.403,0.001015,0.125,-0.0390625,0.005859375,-0.5390625,0.890625,11.55469,0.0234375,-0.06054688,-0.04101562,0,0.01367188,0,-0.0001220703,-0.002319336,0.1112061,0,0,0.1010742,0.3105164,4.077,0,0,0,0.2999878,nan,2,2.933,1,0,0.319397,0.3237305,0.3286743,0.2702942,-0.001953125,0.002929688,0,1,3,0
1197.413,0.001015,-0.001953125,-0.0078125,-0.04101562,1.390625,0.1640625,7.804688,-0.001953125,-0.00390625,-0.02734375,0,0.015625,0,0.0001220703,-0.002563477,0.111084,0,0,0.1010742,0.3105164,4.077,0,0,0,0.2999878,nan,2,2.943,1,0,0.2886353,0.3293457,0.2925415,0.3315735,-0.001953125,0.002929688,0,1,3,0
1197.423,0.001052,-0.0390625,0.01367188,0.01953125,1.492188,-1.6875,9.265625,0.02539062,0.01171875,0.005859375,-0.001953125,0.015625,0,0.0002441406,-0.002441406,0.1109619,0,0,0.1010742,0.3105164,4.077,0,0,0,0.2999878,nan,2,2.953,1,0,0.3469849,0.2786255,0.3514709,0.2650146,-0.001953125,0.002929688,0,1,3,0.4285714
1197.433,0.001069,-0.08007812,-0.015625,0.005859375,-2.382812,0.9609375,9.304688,-0.015625,-0.00390625,0.0078125,-0.001953125,0.015625,0,0.0003662109,-0.002563477,0.111084,0,0,0.1010742,0.3105164,4.077,0,0,0,0.2999878,nan,2,2.963,1,0,0.3174133,0.3093262,0.303894,0.3114624,-0.001953125,0.002929688,0,1,3,0
1197.443,0.001015,0.0546875,-0.01367188,-0.01757812,0.1953125,1.984375,11.35938,0.0390625,-0.005859375,0.009765625,-0.001953125,0.015625,0,0.0002441406,-0.002685547,0.1112061,0,0,0.1010742,0.3105164,4.077,0,0,0,0.2999878,nan,2,2.973,1,0,0.2897034,0.3382263,0.3079834,0.3062134,-0.001953125,0.002929688,0,1,3,0
1197.453,0.000968,-0.046875,-0.1230469,-0.01953125,2.359375,-3.820312,11.80469,0.03320312,-0.015625,-0.00390625,-0.00390625,0.01757812,0,0.0007324219,-0.002807617,0.1112061,0,0,0.1010742,0.3105164,4.077,0,0,0,0.2999878,nan,2,2.984,1,0,0.3050842,0.3316345,0.2904663,0.3149109,-0.001953125,0.002929688,0,1,3,0
1197.464,0.001015,0.109375,-0.009765625,0.01953125,-1.695312,-0.015625,8.273438,0.001953125,-0.02929688,0.03515625,-0.001953125,0.01953125,0,0.0004882812,-0.003295898,0.1114502,0,0,0.1010742,0.3105164,4.077,0,0,0,0.2999878,nan,2,2.994,1,0,0.3405151,0.288208,0.3466187,0.2667847,-0.001953125,0.002929688,0,1,3,0
1197.474,0.001015,-0.04882812,-0.00390625,0.04296875,-0.8125,2.53125,11.66406,-0.00390625,0.02148438,0.02929688,-0.00390625,0.01953125,0,0.0006103516,-0.003173828,0.1116943,0,0,0.1010742,0.3105164,4.077,0,0,0,0.2999878,nan,2,3.004,1,0,0.3288574,0.291626,0.3265076,0.295105,-0.001953125,0.002929688,0,1,3,0
1197.484,0.001015,0.0078125,-0.0078125,0.01757812,1.1875,-2.414062,6.953125,0.009765625,0.0078125,0.01953125,-0.00390625,0.01757812,0,0.0004882812,-0.003051758,0.1119385,0,0,0.1010742,0.3105164,4.077,0,0,0,0.2999878,nan,2,3.014,1,0,0.312561,0.3146057,0.3183899,0.2965393,-0.001953125,0.002929688,0,1,3,0
1197.494,0.001015,-0.1113281,-0.05273438,0.1035156,-0.25,0.3125,10.07031,-0.01367188,-0.01171875,0.09179688,-0.00390625,0.01757812,0,0.0004882812,-0.003051758,0.1124268,0,0,0.1010742,0.3105164,4.077,0,0,0,0.2999878,nan,2,3.024,1,0,0.4220581,0.2138367,0.3989868,0.2072144,-0.001953125,0.002929688,0,1,3,0
1197.503,0.001005,-0.001953125,-0.005859375,-0.005859375,0.640625,-1.351562,8.5,0.00390625,-0.0078125,0.046875,-0.001953125,0.01953125,0,0.0003662109,-0.003173828,0.1130371,0,0,0.1010742,0.3105164,4.077,0,0,0,0.2999878,nan,2,3.033,1,0,0.2718201,0.3574524,0.2723694,0.3404541,-0.001953125,0.002929688,0,1,3,0
1197.513,0.001028,0.03125,0.01757812,0.0078125,-0.0234375,-1.382812,8.84375,-0.01367188,0.001953125,0.015625,-0.001953125,0.01953125,0,0.0002441406,-0.003173828,0.1132812,0,0,0.1010742,0.3105164,4.077,0,0,0,0.2999878,nan,2,3.043,1,0,0.2919006,0.3346252,0.2910156,0.3245544,-0.001953125,0.002929688,0,1,3,0
1197.523,0.001016,0.0234375,0.08007812,0.01953125,-1.867188,4.671875,14,0.0078125,0.015625,0.01171875,0,0.01953125,0,0.0001220703,-0.003295898,0.1134033,0,0,0.1010742,0.3105164,4.077,0,0,0,0.2999878,nan,2,3.053,1,0,0.3047485,0.3125305,0.3212891,0.3035583,-0.001953125,0.002929688,0,1,3,0
1197.533,0.001002,0.00390625,0.02539062,0.001953125,0.9765625,-1.476562,9.304688,0.05078125,0.0078125,0.01171875,-0.001953125,0.01953125,0,0.0003662109,-0.003173828,0.1136475,0,0,0.1010742,0.3105164,4.077,0,0,0,0.2999878,nan,2,3.063,1,0,0.2977295,0.3293457,0.3103027,0.3047791,-0.001953125,0.002929688,0,1,3,0.2857143
1197.543,0.001002,0.01171875,0.05664062,-0.00390625,0.7421875,-1.820312,8.773438,-0.01367188,0.02148438,-0.0078125,0,0.01953125,0,0.0001220703,-0.003173828,0.1136475,0,0,0.1010742,0.3105164,4.077,0,0,0,0.2999878,nan,2,3.073,1,0,0.291748,0.3267822,0.2970276,0.3265381,-0.001953125,0.002929688,0,1,3,0
1197.553,0.001002,0.1542969,-0.0390625,-0.04882812,-2.3125,3.757812,13.65625,0.06054688,-0.005859375,-0.03125,-0.001953125,0.01953125,0,0.0003662109,-0.003173828,0.1134033,0,0,0.1010742,0.3105164,4.077,0,0,0,0.2999878,nan,2,3.084,1,0,0.2669983,0.3656006,0.2834778,0.3260498,-0.001953125,0.002929688,0,1,3,0
1197.564,0.000996,-0.02929688,0.125,0.04296875,1.09375,0.3046875,6.992188,-0.01171875,0.0625,-0.03125,-0.00390625,0.01757812,0,0.0007324219,-0.003051758,0.112915,0,0,0.1010742,0.3105164,4.077,0,0,0,0.2999878,nan,2,3.094,1,0,0.34729,0.2548828,0.3568115,0.2831116,-0.001953125,0.002929688,0,1,3,0
1197.574,0.001002,-0.05664062,-0.01367188,0,0.7265625,1.023438,5.296875,-0.0390625,0.001953125,-0.00390625,-0.00390625,0.01757812,0,0.0006103516,-0.002929688,0.112793,0,0,0.1010742,0.3105164,4.077,0,0,0,0.2999878,nan,2,3.104,1,0,0.3473511,0.2842407,0.3231201,0.2874146,-0.001953125,0.002929688,0,1,3,0
1197.584,0.001029,0.08789062,-0.02734375,0.0625,0.171875,-3.078125,10.91406,0.03515625,-0.01171875,0.04492188,-0.00390625,0.01757812,0,0.0004882812,-0.002929688,0.112915,0,0,0.1010742,0.3105164,4.077,0,0,0,0.2999878,nan,2,3.114,1,0,0.3605652,0.2729187,0.3736267,0.2349854,-0.001953125,0.002929688,0,1,3,0
1197.593,0.001058,0.015625,-0.05078125,0.05859375,-0.6015625,3.140625,13.78906,0.00390625,-0.0234375,0.05859375,-0.00390625,0.01757812,0,0.0004882812,-0.003051758,0.1134033,0,0,0.1010742,0.3105164,4.077,0,0,0,0.2999878,nan,2,3.123,1,0,0.3511047,0.2876587,0.3381958,0.2651062,-0.001953125,0.002929688,0,1,3,0
1197.603,0.001015,0.009765625,0.05664062,0.01757812,1.726562,-2.421875,9.734375,-0.02148438,0.0234375,0.005859375,-0.00390625,0.01757812,0,0.0004882812,-0.002929688,0.1136475,0,0,0.1010742,0.3105164,4.077,0,0,0,0.2999878,nan,2,3.133,1,0,0.2848511,0.3340454,0.2826843,0.3405151,-0.001953125,0.002929688,0,1,3,0.01587302
1197.613,0.001098,0.02734375,0.04492188,-0.01757812,-1.351562,-0.6015625,8.632812,0.005859375,0.009765625,-0.005859375,-0.00390625,0.01757812,0,0.0006103516,-0.003051758,0.1137695,0,0,0.1010742,0.3105164,4.077,0,0,0,0.2999878,nan,2,3.143,1,0,0.2878723,0.3330688,0.2913818,0.3298035,-0.001953125,0.002929688,0,1,3,0
1197.623,0.000997,-0.078125,-0.02734375,-0.00390625,-1,2.390625,11.23438,-0.0234375,-0.005859375,-0.0078125,-0.00390625,0.01757812,0,0.0006103516,-0.002929688,0.1136475,0,0,0.1010742,0.3105164,4.077,0,0,0,0.2999878,nan,2,3.153,1,0,0.3169861,0.3181763,0.2946472,0.3123169,-0.001953125,0.002929688,0,1,3,0
1197.633,0.001015,-0.1171875,0.03515625,0.01171875,1.296875,-3.703125,5.765625,-0.01757812,0.0625,-0.009765625,-0.00390625,0.015625,0,0.0006103516,-0.002685547,0.1135254,0,0,0.1010742,0.3105164,4.077,0,0,0,0.2999878,nan,2,3.163,1,0,0.3136902,0.2940979,0.3203125,0.3139954,-0.001953125,0.002929688,0,1,3,0
1197.643,0.001015,0,-0.02148438,0.02929688,1.429688,-1.335938,7.9375,-0.02148438,-0.03125,0.015625,0,0.015625,0,0.0001220703,-0.002563477,0.1136475,0,0,0.1010742,0.3105164,4.077,0,0,0,0.2999878,nan,2,3.173,1,0,0.341156,0.3084412,0.3214722,0.2710571,-0.001953125,0.002929688,0,1,3,0
1197.653,0.001015,-0.05273438,0.0546875,-0.015625,-1.546875,1.992188,11.30469,-0.00390625,0.01171875,-0.00390625,0,0.015625,0,0,-0.002563477,0.1136475,0,0,0.1010742,0.3105164,4.077,0,0,0,0.2999878,nan,2,3.184,1,0,0.287262,0.3353577,0.2903442,0.3291321,-0.001953125,0.002929688,0,1,3,0
1197.664,0.001015,-0.0703125,0.06445312,-0.03125,0.4921875,1.53125,10.66406,-0.01757812,0.00390625,-0.00390625,0,0.015625,0,-0.0001220703,-0.002563477,0.1137695,0,0,0.1010742,0.3105164,4.077,0,0,0,0.2999878,nan,2,3.194,1,0,0.2938538,0.3316956,0.2858887,0.330658,-0.001953125,0.002929688,0,1,3,0
1197.674,0.001015,0.01953125,0.0078125,0.0859375,1.3125,-1.554688,11.40625,0.05078125,0.01367188,0.04101562,0,0.01367188,0,0,-0.002319336,0.1137695,0,0,0.1010742,0.3105164,4.077,0,0,0,0.2999878,nan,2,3.204,1,0,0.3888855,0.239502,0.4034729,0.2102356,-0.001953125,0.002929688,0,1,3,0
1197.684,0.001015,-0.02148438,0.01757812,0.009765625,-1.195312,-2.515625,7.835938,0.03515625,0.005859375,0.015625,-0.001953125,0.01367188,0,0.0001220703,-0.002441406,0.1141357,0,0,0.1010742,0.3105164,4.077,0,0,0,0.2999878,nan,2,3.214,1,0,0.2851257,0.3403015,0.2936707,0.322998,-0.001953125,0.002929688,0,1,3,0
1197.694,0.001015,-0.1230469,0.04492188,0.01953125,-0.4765625,3.835938,13.3125,-0.001953125,0.01757812,0.00390625,-0.001953125,0.015625,0,0.0003662109,-0.002441406,0.1141357,0,0,0.1010742,0.3105164,4.077,0,0,0,0.2999878,nan,2,3.224,1,0,0.3069458,0.3109131,0.3026123,0.3216248,-0.001953125,0.002929688,0,1,3,0
1197.704,0.001015,-0.009765625,0.1113281,0.0234375,0.6796875,-1.742188,6.789062,0,0.046875,0.0078125,-0.001953125,0.01367188,0,0.0003662109,-0.002197266,0.1142578,0,0,0.1010742,0.3105164,4.077,0,0,0,0.2999878,nan,2,3.234,1,0,0.3071594,0.3041687,0.3185425,0.3122253,-0.001953125,0.002929688,0,1,3,0
1197.713,0.001034,0.02734375,0.01171875,0.01367188,-0.4453125,0.5,6.90625,0.05664062,-0.005859375,0.02148438,-0.00390625,0.01367188,0,0.0004882812,-0.002197266,0.114624,0,0,0.1010742,0.3105164,4.077,0,0,0,0.2999878,nan,2,3.243,1,0,0.2935791,0.3415222,0.3027954,0.3042297,-0.001953125,0.002929688,0,1,3,0
1197.723,0.001037,-0.05273438,0.03125,-0.04492188,-1.0625,-0.4296875,10.97656,0.02734375,0.009765625,-0.02539062,-0.005859375,0.01367188,0,0.001098633,-0.002197266,0.114624,0,0,0.1010742,0.3105164,4.077,0,0,0,0.2999878,nan,2,3.254,1,0,0.2572021,0.3666687,0.2514038,0.3668213,-0.001953125,0.002929688,0,1,3,0
1197.733,0.000974,-0.03515625,-0.00390625,-0.03515625,1.421875,-0.796875,8.03125,-0.02148438,0.00390625,-0.03710938,-0.005859375,0.01171875,0,0.001098633,-0.002075195,0.1142578,0,0,0.1010742,0.3105164,4.077,0,0,0,0.2999878,nan,2,3.263,1,0,0.2912598,0.3396912,0.2749023,0.3362732,-0.001953125,0.002929688,0,1,3,0
1197.743,0.001008,0.1894531,-0.08789062,0.03710938,0.8203125,-3.320312,11.22656,0.07226562,-0.03320312,0,-0.005859375,0.01171875,0,0.001098633,-0.002075195,0.1140137,0,0,0.1010742,0.3105164,4.077,0,0,0,0.2999878,nan,2,3.273,1,0,0.341095,0.3038025,0.3578186,0.2394104,-0.001953125,0.002929688,0,1,3,0
1197.754,0.001046,-0.02929688,-0.03125,-0.02734375,-2.421875,2.335938,11.89844,-0.02148438,-0.001953125,-0.0078125,-0.0078125,0.01367188,0,0.001220703,-0.002319336,0.1141357,0,0,0.1010742,0.3105164,4.077,0,0,0,0.2999878,nan,2,3.284,1,0,0.2838745,0.3404846,0.2712402,0.3464966,-0.001953125,0.002929688,0,1,3,0
1197.764,0.00104,-0.015625,-0.0078125,-0.0703125,1.5,1.6875,6.773438,-0.0234375,-0.0078125,-0.04882812,-0.005859375,0.01367188,0,0.0009765625,-0.002319336,0.1138916,0,0,0.1010742,0.3105164,4.077,0,0,0,0.2999878,nan,2,3.294,1,0,0.2624512,0.3704529,0.2550354,0.3541565,-0.001953125,0.002929688,0,1,3,0
1197.774,0.001008,0.03320312,-0.0078125,-0.02734375,0.4921875,-1.335938,6.742188,-0.009765625,0.0390625,-0.046875,-0.00390625,0.01367188,0,0.0007324219,-0.002197266,0.1132812,0,0,0.1010742,0.3105164,4.077,0,0,0,0.2999878,nan,2,3.304,1,0,0.3045349,0.3118286,0.3159485,0.3098145,-0.001953125,0.002929688,0,1,3,0
1197.784,0.001008,-0.001953125,0.03320312,0.0234375,0.59375,-2.546875,10.52344,0.02539062,-0.009765625,0.01367188,-0.005859375,0.01367188,0,0.001098633,-0.002075195,0.1132812,0,0,0.1010742,0.3105164,4.077,0,0,0,0.2999878,nan,2,3.314,1,0,0.3547668,0.2771606,0.3494263,0.2607422,-0.001953125,0.002929688,0,1,3,0
1197.794,0.001008,-0.009765625,0.01171875,-0.08984375,-1.539062,2.4375,14.65625,0.01367188,-0.00390625,-0.0390625,-0.0078125,0.01171875,0,0.001220703,-0.002075195,0.1131592,0,0,0.1010742,0.3105164,4.077,0,0,0,0.2999878,nan,2,3.324,1,0,0.2467957,0.3848267,0.2444153,0.3660583,-0.001953125,0.002929688,0,1,3,0
1197.803,0.001018,-0.009765625,-0.1035156,-0.04101562,1.0625,-1.1875,4.96875,-0.01171875,-0.03710938,-0.06054688,-0.0078125,0.01367188,0,0.001342773,-0.002197266,0.1125488,0,0,0.1010742,0.3105164,4.077,0,0,0,0.2999878,nan,2,3.333,1,0,0.3109741,0.3335876,0.2797241,0.3178101,-0.001953125,0.002929688,0,1,3,0
1197.813,0.001011,-0.1269531,0.01757812,0.009765625,2.109375,0.171875,5.257812,-0.03515625,-0.005859375,0.005859375,-0.0078125,0.015625,0,0.001342773,-0.002441406,0.1123047,0,0,0.1010742,0.3105164,4.077,0,0,0,0.2999878,nan,2,3.343,1,0,0.3718262,0.2511292,0.35672,0.2624207,-0.001953125,0.002929688,0,1,3,0
1197.823,0.001004,0.02539062,-0.009765625,0.01757812,-0.828125,-0.640625,10.33594,0.01367188,-0.01367188,0.001953125,-0.0078125,0.01367188,0,0.001342773,-0.002441406,0.1123047,0,0,0.1010742,0.3105164,4.077,0,0,0,0.2999878,nan,2,3.353,1,0,0.3248901,0.3097229,0.3218994,0.2855835,-0.001953125,0.002929688,0,1,3,0
1197.833,0.00101,0.09375,-0.1289062,-0.01953125,-0.4921875,2.875,13.33594,0.0078125,-0.02148438,-0.001953125,-0.0078125,0.01367188,0,0.001220703,-0.002319336,0.1124268,0,0,0.1010742,0.3105164,4.077,0,0,0,0.2999878,nan,2,3.363,1,0,0.2972107,0.3493042,0.2883301,0.307251,-0.001953125,0.002929688,0,1,3,0
1197.843,0.001015,0.0625,0.03710938,-0.0546875,2.539062,1.3125,8.453125,-0.0234375,0.005859375,-0.0234375,-0.005859375,0.015625,0,0.0008544922,-0.002563477,0.1123047,0,0,0.1010742,0.3105164,4.077,0,0,0,0.2999878,nan,2,3.373,1,0,0.2663574,0.3538513,0.2745361,0.3473511,-0.001953125,0.002929688,0,1,3,0
1197.853,0.001015,0.1269531,-0.03515625,-0.02929688,0.5234375,-4.992188,9.039062,0.015625,0.001953125,-0.02148438,-0.00390625,0.01367188,0,0.0007324219,-0.002441406,0.1120605,0,0,0.1010742,0.3105164,4.077,0,0,0,0.2999878,nan,2,3.383,1,0,0.3027954,0.3288879,0.3144531,0.29599,-0.001953125,0.002929688,0,1,3,0
1197.864,0.001015,0.04101562,0.05664062,0.04296875,-0.765625,0.6796875,7,0.02148438,0.02539062,0.02734375,-0.00390625,0.01367188,0,0.0007324219,-0.002441406,0.1119385,0,0,0.1010742,0.3105164,4.077,0,0,0,0.2999878,nan,2,3.394,1,0,0.3670044,0.2520447,0.385376,0.2376709,-0.001953125,0.002929688,0,1,3,0
1197.874,0.001015,-0.08203125,0.03710938,0.03710938,-0.640625,0.7421875,13.92188,-0.02539062,-0.01171875,0.05273438,-0.00390625,0.01367188,0,0.0008544922,-0.002441406,0.1124268,0,0,0.1010742,0.3105164,4.077,0,0,0,0.2999878,nan,2,3.404,1,0,0.358429,0.2747192,0.3373718,0.2715759,-0.001953125,0.002929688,0,1,3,0
1197.884,0.001015,-0.0859375,0.01953125,-0.05273438,0.4921875,-2.257812,6.867188,-0.03320312,0.0078125,-0.01367188,-0.00390625,0.015625,0,0.0006103516,-0.002563477,0.1125488,0,0,0.1010742,0.3105164,4.077,0,0,0,0.2999878,nan,2,3.414,1,0,0.2506409,0.3708496,0.2412415,0.3793335,-0.001953125,0.002929688,0,1,3,0
1197.894,0.001015,-0.05078125,-0.02148438,0.06054688,0.5546875,-2.703125,9.796875,-0.02929688,0.001953125,0.01367188,-0.001953125,0.01367188,0,0.0004882812,-0.002441406,0.1124268,0,0,0.1010742,0.3105164,4.077,0,0,0,0.2999878,nan,2,3.424,1,0,0.3652649,0.2675171,0.3479004,0.2614136,-0.001953125,0.002929688,0,1,3,0.1746032
1197.904,0.001015,-0.02734375,-0.02734375,0.06054688,-1.320312,2.125,11.03906,-0.02539062,0.015625,0.0703125,-0.001953125,0.01367188,0,0.0002441406,-0.002319336,0.1130371,0,0,0.1010742,0.3105164,4.077,0,0,0,0.2999878,nan,2,3.434,1,0,0.3789062,0.2505493,0.3677979,0.2448425,-0.001953125,0.002929688,0,1,3,0
1197.913,0.000952,0.05078125,-0.009765625,0.001953125,1.039062,0.640625,6.53125,0.01953125,-0.01953125,0.01757812,0,0.01367188,0,0.0001220703,-0.002319336,0.1132812,0,0,0.1010742,0.3105164,4.077,0,0,0,0.2999878,nan,2,3.443,1,0,0.2790222,0.3591919,0.282196,0.3216858,-0.001953125,0.002929688,0,1,3,0
1197.923,0.001002,0.01757812,-0.1191406,-0.0703125,-1.640625,-0.8046875,10.42969,-0.001953125,-0.04492188,-0.04492188,0,0.01367188,0,0.0001220703,-0.002441406,0.1131592,0,0,0.1010742,0.3105164,4.077,0,0,0,0.2999878,nan,2,3.453,1,0,0.2505493,0.4015503,0.2243042,0.3657227,-0.001953125,0.002929688,0,1,3,0
1197.933,0.00104,-0.01757812,-0.06445312,-0.06054688,-1.5625,3.617188,12.28906,-0.07226562,0.005859375,-0.06445312,0,0.01367188,0,0,-0.002441406,0.1125488,0,0,0.1010742,0.3105164,4.077,0,0,0,0.2999878,nan,2,3.463,1,0,0.2869568,0.3414307,0.2575378,0.3562012,-0.001953125,0.002929688,0,1,3,0
1197.943,0.001002,-0.0390625,0.09179688,0.009765625,1.039062,0.4765625,9.070312,-0.02148438,0.0078125,0,0.001953125,0.015625,0,-0.0002441406,-0.002563477,0.1123047,0,0,0.1010742,0.3105164,4.077,0,0,0,0.2999878,nan,2,3.473,1,0,0.3539429,0.2649231,0.3570557,0.2661438,-0.001953125,0.00390625,0,1,3,0
1197.954,0.001009,-0.04101562,-0.0078125,0.0234375,1.34375,-5.460938,11.23438,-0.04492188,-0.02539062,0.001953125,0.00390625,0.015625,0,-0.0004882812,-0.002685547,0.1123047,0,0,0.1010742,0.3105164,4.077,0,0,0,0.2999878,nan,2,3.484,1,0,0.3247375,0.313385,0.2991638,0.3048096,-0.001953125,0.00390625,0,1,3,0
1197.964,0.001003,0.015625,0,-0.046875,-1.070312,4.070312,9.460938,-0.015625,0.01367188,-0.046875,0.00390625,0.01757812,0,-0.0006103516,-0.002929688,0.1121826,0,0,0.1010742,0.3105164,4.077,0,0,0,0.2999878,nan,2,3.494,1,0,0.2393494,0.377533,0.2424927,0.3827209,-0.001953125,0.00390625,0,1,3,0
1197.974,0.001009,-0.0859375,0.05078125,-0.0390625,-0.484375,3.578125,14.59375,0,0.00390625,-0.02148438,0.001953125,0.01757812,0,-0.0003662109,-0.003051758,0.1119385,0,0,0.1010742,0.3105164,4.077,0,0,0,0.2999878,nan,2,3.504,1,0,0.3090515,0.3155212,0.3025208,0.315033,-0.001953125,0.00390625,0,1,3,0
1197.984,0.001005,-0.05273438,-0.05664062,0.001953125,1.367188,-0.71875,7.171875,0.01171875,-0.0078125,-0.01367188,0.001953125,0.01757812,0,-0.0004882812,-0.002807617,0.1115723,0,0,0.1010742,0.3105164,4.077,0,0,0,0.2999878,nan,2,3.514,1,0,0.3490601,0.2914734,0.3337708,0.2677917,-0.001953125,0.00390625,0,1,3,0
1197.994,0.001005,0.09179688,0.009765625,0.02734375,1.007812,-0.90625,6.953125,0.0546875,0.0078125,0.03515625,0.001953125,0.01757812,0,-0.0003662109,-0.002807617,0.1118164,0,0,0.1010742,0.3105164,4.077,0,0,0,0.2999878,nan,2,3.524,1,0,0.3450012,0.2805786,0.3660278,0.2504883,-0.001953125,0.00390625,0,1,3,0
1198.004,0.001005,-0.0390625,0.07421875,-0.03320312,-2.101562,1.984375,14.53906,-0.01171875,0.01367188,-0.01367188,0,0.01757812,0,0,-0.002929688,0.1118164,0,0,0.1010742,0.3105164,4.077,0,0,0,0.2999878,nan,2,3.534,1,0,0.2698975,0.3504333,0.2594604,0.3623047,-0.001953125,0.00390625,0,1,3,0
1198.013,0.00102,0.078125,0.0859375,-0.01953125,1.242188,-3.375,4.695312,-0.005859375,0.015625,-0.00390625,0.001953125,0.01757812,0,-0.0002441406,-0.002807617,0.1119385,0,0,0.1010742,0.3105164,4.077,0,0,0,0.2999878,nan,2,3.543,1,0,0.2888794,0.3339233,0.2991028,0.3201904,-0.001953125,0.00390625,0,1,3,0
1198.023,0.000958,0.01953125,0.01367188,0,0.5390625,-2.328125,8.4375,-0.009765625,0.00390625,-0.02148438,0.001953125,0.01757812,0,-0.0002441406,-0.002929688,0.1116943,0,0,0.1010742,0.3105164,4.077,0,0,0,0.2999878,nan,2,3.553,1,0,0.3052368,0.3203735,0.3012085,0.3152771,-0.001953125,0.00390625,0,1,3,0
1198.033,0.001008,-0.0546875,0.046875,0.0546875,-2.46875,2.890625,14.07031,-0.02148438,0.04296875,0.04492188,0.001953125,0.015625,0,-0.0002441406,-0.002685547,0.1118164,0,0,0.1010742,0.3105164,4.077,0,0,0,0.2999878,nan,2,3.563,1,0,0.3806763,0.2337952,0.3820801,0.2455444,-0.001953125,0.00390625,0,1,3,0
1198.043,0.001015,-0.0703125,-0.09570312,0.05078125,1.78125,0.75,6.453125,-0.02929688,-0.03710938,0.04492188,0.001953125,0.015625,0,-0.0003662109,-0.002563477,0.1121826,0,0,0.1010742,0.3105164,4.077,0,0,0,0.2999878,nan,2,3.573,1,0,0.3626099,0.2911072,0.3204956,0.2679138,-0.001953125,0.00390625,0,1,3,0
1198.053,0.001015,-0.07421875,-0.00390625,0.1542969,0.6015625,-2.625,9.59375,-0.02539062,0.01367188,0.09765625,0.001953125,0.015625,0,-0.0003662109,-0.002685547,0.112793,0,0,0.1010742,0.3105164,4.077,0,0,0,0.2999878,nan,2,3.583,1,0,0.4284363,0.1939392,0.4169006,0.2028198,-0.001953125,0.00390625,0,1,3,0.6031746
1198.063,0.001006,-0.0078125,0.06054688,0.005859375,-0.75,0.578125,11.89844,0.01367188,0.015625,0.02539062,0.001953125,0.015625,0,-0.0003662109,-0.002685547,0.1134033,0,0,0.1010742,0.3105164,4.077,0,0,0,0.2999878,nan,2,3.594,1,0,0.2635803,0.3576965,0.2687073,0.3521118,-0.001953125,0.00390625,0,1,3,0
1198.074,0.001015,-0.0078125,-0.02539062,0.02929688,1.453125,0.6484375,7.9375,-0.02148438,-0.015625,0.04296875,0.001953125,0.015625,0,-0.0003662109,-0.002807617,0.1137695,0,0,0.1010742,0.3105164,4.077,0,0,0,0.2999878,nan,2,3.604,1,0,0.3365173,0.299408,0.3179016,0.288269,-0.001953125,0.00390625,0,1,3,0
1198.084,0.001015,-0.02734375,-0.01953125,0.005859375,-1.351562,-1.992188,7.945312,-0.01367188,0.01757812,0.01953125,0.00390625,0.015625,0,-0.0006103516,-0.002685547,0.1141357,0,0,0.1010742,0.3105164,4.077,0,0,0,0.2999878,nan,2,3.614,1,0,0.2879944,0.3370361,0.2862244,0.3308105,-0.001953125,0.00390625,0,1,3,0
1198.094,0.001015,0.01953125,0.09960938,-0.04296875,-0.2890625,4.515625,12.48438,-0.015625,0.0390625,-0.04296875,0.00390625,0.015625,0,-0.0007324219,-0.002563477,0.1138916,0,0,0.1010742,0.3105164,4.077,0,0,0,0.2999878,nan,2,3.624,1,0,0.2489929,0.3647766,0.2536926,0.3746338,-0.001953125,0.00390625,0,1,3,0
1198.103,0.001023,0.06445312,-0.06054688,-0.04296875,1.351562,-1.304688,8.171875,0.001953125,0.02734375,-0.04101562,0.005859375,0.01171875,0,-0.0008544922,-0.001831055,0.1135254,0,0,0.1010742,0.3105164,4.077,0,0,0,0.2999878,nan,2,3.633,1,0,0.2938232,0.34729,0.2865295,0.3144226,-0.001953125,0.00390625,0,1,3,0
1198.113,0.0009869999,0.05664062,0.06445312,-0.08398438,-0.7890625,-2.414062,8.8125,0.01757812,0.01367188,-0.05078125,0.00390625,0.01171875,0,-0.0008544922,-0.001953125,0.1131592,0,0,0.1010742,0.3105164,4.077,0,0,0,0.2999878,nan,2,3.643,1,0,0.2639771,0.3599854,0.2717896,0.346344,-0.001953125,0.00390625,0,1,3,0
1198.123,0.001015,-0.07421875,0.078125,0.00390625,-2.054688,3.296875,12.67969,-0.01757812,-0.00390625,-0.02539062,0.00390625,0.01171875,0,-0.0008544922,-0.001953125,0.1125488,0,0,0.1010742,0.3105164,4.077,0,0,0,0.2999878,nan,2,3.653,1,0,0.3643799,0.2655029,0.349823,0.2623596,-0.001953125,0.00390625,0,1,3,0
1198.133,0.001009,-0.06835938,0.04882812,0.01757812,-0.2734375,1.578125,10.01562,-0.05273438,0.02929688,0.03125,0.005859375,0.01171875,0,-0.0008544922,-0.001831055,0.112793,0,0,0.1010742,0.3105164,4.077,0,0,0,0.2999878,nan,2,3.663,1,0,0.3560486,0.2611084,0.3397217,0.2852173,-0.001953125,0.00390625,0,1,3,0.1746032
1198.143,0.001008,-0.0234375,0.078125,0.1113281,1.039062,-3.148438,12.36719,-0.02539062,0.02929688,0.1035156,0.0078125,0.009765625,0,-0.001220703,-0.001708984,0.1135254,0,0,0.1010742,0.3105164,4.077,0,0,0,0.2999878,nan,2,3.673,1,0,0.410553,0.206543,0.4160461,0.2089539,-0.001953125,0.00390625,0,1,3,0
1198.153,0.001008,-0.01757812,-0.06640625,0.046875,-1.085938,3.820312,11.42969,-0.07421875,0.005859375,0.0390625,0.009765625,0.009765625,0,-0.001464844,-0.001586914,0.1141357,0,0,0.1010742,0.3105164,4.077,0,0,0,0.2999878,nan,2,3.683,1,0,0.3061218,0.3269958,0.2735596,0.3354187,-0.001953125,0.00390625,0,1,3,0
1198.163,0.001008,0.078125,0.02539062,-0.0625,1.703125,0.3671875,10.21094,0.01757812,-0.01367188,-0.01953125,0.009765625,0.009765625,0,-0.001708984,-0.001708984,0.1142578,0,0,0.1010742,0.3105164,4.077,0,0,0,0.2999878,nan,2,3.694,1,0,0.2255249,0.4049683,0.2364197,0.3752136,-0.001953125,0.00390625,0,1,3,0
1198.174,0.001008,-0.0625,0.005859375,0.0078125,0.859375,-3.429688,8.359375,-0.04882812,-0.00390625,-0.01171875,0.01171875,0.009765625,0,-0.001953125,-0.001708984,0.1138916,0,0,0.1010742,0.3105164,4.077,0,0,0,0.2999878,nan,2,3.704,1,0,0.3424377,0.288147,0.3227844,0.2887268,-0.001953125,0.00390625,0,1,3,0
1198.184,0.001008,-0.02539062,-0.01367188,0.0078125,0.8828125,-1.25,7.15625,-0.03125,0.0078125,0.001953125,0.01367188,0.009765625,0,-0.002197266,-0.001708984,0.1138916,0,0,0.1010742,0.3105164,4.077,0,0,0,0.2999878,nan,2,3.714,1,0,0.331665,0.2961121,0.3192444,0.2950745,-0.001953125,0.00390625,0,1,3,0
1198.194,0.001008,-0.00390625,0.01367188,0.02148438,-2.078125,0.8125,14.33594,-0.015625,-0.01367188,0.03320312,0.01367188,0.01171875,0,-0.002319336,-0.001831055,0.1141357,0,0,0.1010742,0.3105164,4.077,0,0,0,0.2999878,nan,2,3.724,1,0,0.3364258,0.294281,0.3271484,0.2842407,-0.001953125,0.00390625,0,1,3,0
1198.204,0.001008,-0.09765625,0.0859375,0.03515625,0.2109375,-1.976562,6.320312,-0.03320312,0.05664062,0.06054688,0.015625,0.009765625,0,-0.002563477,-0.001708984,0.114624,0,0,0.1010742,0.3105164,4.077,0,0,0,0.2999878,nan,2,3.734,1,0,0.3484802,0.2610168,0.3517151,0.2808838,-0.001953125,0.00390625,0,1,3,0
1198.213,0.001015,0.001953125,0.0390625,0.015625,-0.359375,0.171875,10.10156,-0.02929688,0.04882812,0.02929688,0.01757812,0.005859375,0,-0.003051758,-0.0009765625,0.1151123,0,0,0.1010742,0.3105164,4.077,0,0,0,0.2999878,nan,2,3.743,1,0,0.289032,0.3383484,0.2857666,0.328949,-0.001953125,0.00390625,0,1,3,0.2222222
1198.223,0.001015,-0.02734375,0.03320312,0.09960938,-1.03125,2.070312,12.89844,-0.0546875,0.04492188,0.0546875,0.01953125,0.00390625,0,-0.003295898,-0.0007324219,0.1153564,0,0,0.1010742,0.3105164,4.077,0,0,0,0.2999878,nan,2,3.753,1,0,0.378479,0.2416687,0.3652344,0.2567444,-0.001953125,0.00390625,0,1,3,0
1198.233,0.001011,0.08789062,-0.02734375,0.05273438,1.15625,-0.4140625,7.96875,0.01757812,-0.01953125,0.06445312,0.02148438,0.00390625,0,-0.003417969,-0.0007324219,0.1160889,0,0,0.1010742,0.3105164,4.077,0,0,0,0.2999878,nan,2,3.763,1,0,0.3267822,0.3119202,0.3268433,0.2765808,-0.001953125,0.00390625,0,1,3,0
1198.243,0.001013,0.04882812,-0.04296875,-0.04101562,-2.0625,-1.242188,8.875,0.02148438,-0.02148438,-0.01367188,0.01953125,0.005859375,0,-0.003295898,-0.0008544922,0.116333,0,0,0.1010742,0.3105164,4.077,0,0,0,0.2999878,nan,2,3.773,1,0,0.2446289,0.3912659,0.2394409,0.3667603,-0.001953125,0.00390625,0,1,3,0
1198.254,0.001034,-0.1523438,0.046875,-0.1035156,-0.953125,3.03125,11.54688,-0.04101562,0.01953125,-0.0859375,0.01953125,0.005859375,0,-0.003295898,-0.0009765625,0.1157227,0,0,0.1010742,0.3105164,4.077,0,0,0,0.2999878,nan,2,3.783,1,0,0.223938,0.392395,0.2081299,0.4176331,-0.001953125,0.00390625,0,1,3,0
1198.264,0.000997,0.04296875,0.005859375,0.009765625,0.578125,-0.3515625,10.27344,0.001953125,0.00390625,-0.03515625,0.02148438,0.005859375,0,-0.003540039,-0.0009765625,0.1151123,0,0,0.1010742,0.3105164,4.077,0,0,0,0.2999878,nan,2,3.794,1,0,0.3509827,0.2764587,0.353363,0.261322,-0.001953125,0.00390625,0,1,3,0
1198.274,0.001016,0.01367188,-0.02929688,-0.04101562,0.6875,-1.921875,7.46875,0.009765625,0.02929688,-0.03125,0.01953125,0.005859375,0,-0.003295898,-0.0008544922,0.1147461,0,0,0.1010742,0.3105164,4.077,0,0,0,0.2999878,nan,2,3.804,1,0,0.3013916,0.3210144,0.3046875,0.315033,-0.001953125,0.00390625,0,1,3,0
1198.284,0.001026,0.1347656,-0.078125,-0.06445312,0.6796875,-3.289062,7.75,0.02929688,-0.009765625,-0.04492188,0.01953125,0.00390625,0,-0.003295898,-0.0007324219,0.114502,0,0,0.1010742,0.3105164,4.077,0,0,0,0.2999878,nan,2,3.814,1,0,0.2694397,0.3665466,0.2716675,0.3344421,-0.001953125,0.00390625,0,1,3,0
1198.294,0.001011,-0.06054688,0.05664062,0.02148438,-1.390625,1.125,12.75,0.015625,-0.009765625,0.005859375,0.01953125,0.005859375,0,-0.003173828,-0.0009765625,0.1142578,0,0,0.1010742,0.3105164,4.077,0,0,0,0.2999878,nan,2,3.824,1,0,0.3506775,0.2777405,0.3454895,0.268219,-0.001953125,0.00390625,0,1,3,0
1198.303,0.001031,-0.04882812,-0.0234375,0.01757812,1.835938,1.289062,9.085938,-0.04101562,-0.009765625,0.009765625,0.01953125,0.005859375,0,-0.003295898,-0.0009765625,0.1143799,0,0,0.1010742,0.3105164,4.077,0,0,0,0.2999878,nan,2,3.833,1,0,0.3348999,0.2969971,0.3082886,0.3019409,-0.001953125,0.00390625,0,1,3,0
1198.313,0.001015,-0.1894531,0.009765625,0.009765625,0.5703125,-4.734375,11.42969,-0.06640625,0.05273438,0.001953125,0.01953125,0.00390625,0,-0.003417969,-0.0006103516,0.1143799,0,0,0.1010742,0.3105164,4.077,0,0,0,0.2999878,nan,2,3.843,1,0,0.3292236,0.2883606,0.3008728,0.3236694,-0.001953125,0.00390625,0,1,3,0
1198.323,0.001039,0.015625,0,0.015625,-1.71875,1.945312,8.875,-0.01953125,0.01171875,0.02148438,0.02148438,0.001953125,0,-0.003540039,-0.0004882812,0.114624,0,0,0.1010742,0.3105164,4.077,0,0,0,0.2999878,nan,2,3.853,1,0,0.3336792,0.2956848,0.3174133,0.2953186,-0.0009765625,0.00390625,0,1,3,0
1198.334,0.000978,-0.05078125,-0.046875,0.0546875,2.109375,-0.3359375,10.44531,-0.01953125,-0.01953125,0.04101562,0.02148438,0.001953125,0,-0.003662109,-0.0003662109,0.1148682,0,0,0.1010742,0.3105164,4.077,0,0,0,0.2999878,nan,2,3.863,1,0,0.3614502,0.2793274,0.3347473,0.266571,-0.0009765625,0.00390625,0,1,3,0
1198.344,0.001052,0.02734375,0.03320312,0.04101562,1.125,-1.8125,9.6875,-0.001953125,-0.00390625,0.05664062,0.0234375,0.00390625,0,-0.00378418,-0.0004882812,0.1154785,0,0,0.1010742,0.3105164,4.077,0,0,0,0.2999878,nan,2,3.873,1,0,0.3277893,0.2987671,0.3259583,0.2895813,-0.0009765625,0.00390625,0,1,3,0.5873016
1198.353,0.000975,-0.02148438,-0.04101562,0.03320312,-2.164062,1.835938,12.26562,-0.0078125,-0.03125,0.04492188,0.0234375,0.00390625,0,-0.00390625,-0.0006103516,0.1159668,0,0,0.1010742,0.3105164,4.077,0,0,0,0.2999878,nan,2,3.883,1,0,0.322113,0.3158264,0.3036804,0.3004761,-0.0009765625,0.00390625,0,1,3,0
1198.363,0.001005,-0.03710938,0.0546875,-0.005859375,0.4609375,-4.664062,6.96875,0.009765625,0.03320312,0.0078125,0.02148438,0.005859375,0,-0.00378418,-0.0008544922,0.1160889,0,0,0.1010742,0.3105164,4.077,0,0,0,0.2999878,nan,2,3.894,1,0,0.2910156,0.3117371,0.3047791,0.3345642,-0.0009765625,0.00390625,0,1,3,0
1198.374,0.001005,0.04492188,0.01953125,0.00390625,0.1015625,-0.7265625,9.859375,0.001953125,0.03515625,0.0078125,0.02148438,0.00390625,0,-0.00378418,-0.0004882812,0.1160889,0,0,0.1010742,0.3105164,4.077,0,0,0,0.2999878,nan,2,3.904,1,0,0.3131714,0.3089294,0.3168945,0.3031006,-0.0009765625,0.00390625,0,1,3,0.7777778
1198.384,0.001005,-0.04101562,-0.009765625,0.005859375,-1.265625,2.171875,11.04688,-0.009765625,-0.01953125,0.0234375,0.0234375,0.001953125,0,-0.00378418,-0.0004882812,0.116333,0,0,0.1010742,0.3105164,4.077,0,0,0,0.2999878,nan,2,3.914,1,0,0.3250427,0.31604,0.3021851,0.2988586,-0.0009765625,0.00390625,0,1,3,0
1198.394,0.001005,0.05273438,0.00390625,-0.05078125,1.5,0.9609375,8.484375,0.001953125,0,-0.01953125,0.0234375,0.00390625,0,-0.00378418,-0.0004882812,0.116333,0,0,0.1010742,0.3105164,4.077,0,0,0,0.2999878,nan,2,3.924,1,0,0.2674866,0.3594971,0.2640381,0.3510437,-0.0009765625,0.00390625,0,1,3,0
1198.404,0.001005,-0.03320312,0.01953125,-0.05859375,0.984375,-4.414062,10.91406,0.08203125,0.01757812,-0.05273438,0.01953125,0.00390625,0,-0.003295898,-0.0004882812,0.1158447,0,0,0.1010742,0.3105164,4.077,0,0,0,0.2999878,nan,2,3.934,1,0,0.2726135,0.3483887,0.2923279,0.3287659,-0.0009765625,0.00390625,0,1,3,0
1198.413,0.001015,0.09960938,-0.0078125,-0.01367188,-1.648438,-0.484375,10.53906,0.0078125,-0.01757812,-0.0234375,0.01953125,0.00390625,0,-0.003173828,-0.0006103516,0.1154785,0,0,0.1010742,0.3105164,4.077,0,0,0,0.2999878,nan,2,3.943,1,0,0.3320923,0.3005066,0.3192749,0.2902222,-0.0009765625,0.00390625,0,1,3,0
1198.423,0.001017,-0.009765625,-0.1015625,-0.00390625,0.4140625,2.71875,11.30469,0.01171875,-0.04296875,-0.01367188,0.01757812,0.00390625,0,-0.003051758,-0.0007324219,0.1153564,0,0,0.1010742,0.3105164,4.077,0,0,0,0.2999878,nan,2,3.953,1,0,0.334137,0.3149414,0.3070068,0.2860413,-0.0009765625,0.00390625,0,1,3,0
1198.433,0.000948,-0.01757812,-0.005859375,0,1.421875,-3.273438,9.46875,-0.009765625,-0.02929688,0.00390625,0.01757812,0.005859375,0,-0.003051758,-0.0009765625,0.1153564,0,0,0.1010742,0.3105164,4.077,0,0,0,0.2999878,nan,2,3.963,1,0,0.3264465,0.3103027,0.30896,0.2964172,-0.0009765625,0.00390625,0,1,3,0.2698413
1198.443,0.001015,0.0078125,0.0078125,-0.001953125,0.21875,-0.859375,10.82812,-0.02929688,-0.00390625,-0.00390625,0.02148438,0.005859375,0,-0.003540039,-0.0009765625,0.1153564,0,0,0.1010742,0.3105164,4.077,0,0,0,0.2999878,nan,2,3.973,1,0,0.313446,0.3136597,0.3087463,0.3062439,-0.0009765625,0.00390625,0,1,3,0
1198.453,0.001015,0.06445312,-0.0078125,0.01171875,-2.445312,4.007812,13.35938,0.01757812,-0.001953125,-0.00390625,0.02148438,0.005859375,0,-0.003540039,-0.0009765625,0.1152344,0,0,0.1010742,0.3105164,4.077,0,0,0,0.2999878,nan,2,3.983,1,0,0.3222046,0.3082275,0.3193359,0.2923279,-0.0009765625,0.00390625,0,1,3,0
1198.464,0.001064,0.08203125,-0.0234375,-0.00390625,1.171875,-0.6015625,7.914062,0.02539062,0.009765625,0.005859375,0.01953125,0.005859375,0,-0.003295898,-0.0009765625,0.1152344,0,0,0.1010742,0.3105164,4.077,0,0,0,0.2999878,nan,2,3.994,1,0,0.3143921,0.3123474,0.3171997,0.2981567,-0.0009765625,0.00390625,0,1,3,0
1198.474,0.001007,-0.04101562,0.001953125,0.04882812,2.515625,-2.007812,8.71875,-0.02148438,0.005859375,0.05273438,0.02148438,0.00390625,0,-0.003540039,-0.0008544922,0.1157227,0,0,0.1010742,0.3105164,4.077,0,0,0,0.2999878,nan,2,4.004,1,0,0.3582458,0.2732544,0.3440552,0.266571,-0.0009765625,0.00390625,0,1,3,0
1198.484,0.001043,0.03515625,0.04101562,0.02734375,-1.46875,-2.96875,8.195312,0.01171875,0.01171875,0.03515625,0.02148438,0.00390625,0,-0.003540039,-0.0007324219,0.1160889,0,0,0.1010742,0.3105164,4.077,0,0,0,0.2999878,nan,2,4.014,1,0,0.3146667,0.3109131,0.3180847,0.2984314,-0.0009765625,0.00390625,0,1,3,0
1198.494,0.001027,0.001953125,0.0234375,0.01953125,0.6796875,2.601562,12.78906,-0.009765625,0.0234375,0.02539062,0.02148438,0.00390625,0,-0.003540039,-0.0004882812,0.116333,0,0,0.1010742,0.3105164,4.077,0,0,0,0.2999878,nan,2,4.024,1,0,0.3163147,0.3080444,0.3095703,0.3081665,-0.0009765625,0.00390625,0,1,3,0
1198.504,0.001012,-0.01367188,0.0078125,0.03710938,1.140625,-2.234375,6.367188,-0.02734375,-0.001953125,0.03320312,0.0234375,0.001953125,0,-0.00378418,-0.0003662109,0.1165771,0,0,0.1010742,0.3105164,4.077,0,0,0,0.2999878,nan,2,4.034,1,0,0.3435669,0.290802,0.3241882,0.2835388,-0.0009765625,0.00390625,0,1,3,0
1198.513,0.001009,-0.00390625,-0.01171875,-0.02734375,-0.96875,2.773438,8.796875,0.00390625,0,0.01171875,0.0234375,0.001953125,0,-0.00378418,-0.0003662109,0.1169434,0,0,0.1010742,0.3105164,4.077,0,0,0,0.2999878,nan,2,4.043,1,0,0.2686462,0.3598633,0.2631531,0.3504639,-0.0009765625,0.00390625,0,1,3,0
1198.523,0.001008,0.0390625,-0.04882812,-0.0390625,0.5390625,-0.96875,9.195312,-0.01953125,-0.01953125,-0.05664062,0.02539062,0.001953125,0,-0.004150391,-0.0003662109,0.1165771,0,0,0.1010742,0.3105164,4.077,0,0,0,0.2999878,nan,2,4.053,1,0,0.258728,0.3834229,0.2397156,0.36026,-0.0009765625,0.00390625,0,1,3,0
1198.533,0.001009,-0.015625,0.09765625,-0.07226562,1.796875,0.7890625,7.414062,0.02539062,0.02734375,-0.05859375,0.0234375,0.001953125,0,-0.00390625,-0.0003662109,0.1160889,0,0,0.1010742,0.3105164,4.077,0,0,0,0.2999878,nan,2,4.063,1,0,0.2710876,0.3421326,0.2845459,0.3443604,-0.0009765625,0.00390625,0,1,3,0
1198.543,0.001009,-0.1308594,0.05078125,-0.02539062,1.515625,-4.421875,9.671875,-0.01757812,0.00390625,-0.05078125,0.02148438,0.001953125,0,-0.003662109,-0.0002441406,0.1154785,0,0,0.1010742,0.3105164,4.077,0,0,0,0.2999878,nan,2,4.073,1,0,0.3331604,0.2965088,0.3058167,0.3066406,-0.0009765625,0.00390625,0,1,3,0
1198.553,0.001008,-0.109375,0.03515625,-0.04882812,-1.148438,-1.015625,7.539062,-0.015625,0.01757812,-0.04296875,0.02148438,0,0,-0.003662109,-0.0001220703,0.1149902,0,0,0.1010742,0.3105164,4.077,0,0,0,0.2999878,nan,2,4.083,1,0,0.3023071,0.3202209,0.2874451,0.3321533,-0.0009765625,0.00390625,0,1,3,0
1198.563,0.001003,-0.04882812,0.03125,-0.03125,-1.210938,5.015625,14.35156,-0.015625,0,-0.03320312,0.0234375,0,0,-0.00378418,-0.0001220703,0.114624,0,0,0.1010742,0.3105164,4.077,0,0,0,0.2999878,nan,2,4.094,1,0,0.3203125,0.30896,0.3053284,0.3075256,-0.0009765625,0.00390625,0,1,3,0
1198.574,0.001008,-0.03710938,-0.0390625,0.02734375,1.039062,-0.546875,11.14062,0.001953125,-0.01171875,0.015625,0.0234375,0,0,-0.00378418,-0.0001220703,0.114502,0,0,0.1010742,0.3105164,4.077,0,0,0,0.2999878,nan,2,4.104,1,0,0.3757629,0.2567139,0.3621216,0.2474976,-0.0009765625,0.00390625,0,1,3,0
1198.584,0.001008,0.0234375,-0.0234375,0.0234375,1.789062,1.242188,6.695312,-0.00390625,0,0.02929688,0.0234375,0.001953125,0,-0.00390625,-0.0002441406,0.1148682,0,0,0.1010742,0.3105164,4.077,0,0,0,0.2999878,nan,2,4.114,1,0,0.3225708,0.3045044,0.3179016,0.2971497,-0.0009765625,0.00390625,0,1,3,0
1198.594,0.001008,-0.0859375,0.0078125,-0.03125,-0.828125,-3.429688,5.46875,-0.02148438,0.03515625,-0.01953125,0.02148438,0,0,-0.00378418,-0.0001220703,0.1148682,0,0,0.1010742,0.3105164,4.077,0,0,0,0.2999878,nan,2,4.124,1,0,0.2752991,0.3418884,0.2621155,0.3628235,-0.0009765625,0.00390625,0,1,3,0
1198.604,0.001008,-0.01171875,0.04101562,-0.03320312,-1.5,4.507812,13.85156,-0.00390625,0.00390625,-0.03320312,0.0234375,0,0,-0.00390625,-0.0001220703,0.114502,0,0,0.1010742,0.3105164,4.077,0,0,0,0.2999878,nan,2,4.134,1,0,0.2940369,0.3329468,0.2833557,0.3317566,-0.0009765625,0.00390625,0,1,3,0
1198.613,0.001015,-0.03320312,-0.02148438,0.03125,1.851562,-0.8828125,10.85938,-0.01757812,0.001953125,0.015625,0.0234375,0,0,-0.00378418,0,0.1143799,0,0,0.1010742,0.3105164,4.077,0,0,0,0.2999878,nan,2,4.143,1,0,0.3768616,0.2549133,0.3560791,0.2542725,-0.0009765625,0.00390625,0,1,3,0
1198.623,0.001001,0.03320312,0.02929688,-0.046875,0.515625,-3.984375,7.773438,-0.01953125,0.02539062,-0.015625,0.0234375,0,0,-0.00402832,0.0001220703,0.114502,0,0,0.1010742,0.3105164,4.077,0,0,0,0.2999878,nan,2,4.153,1,0,0.2645874,0.3556213,0.2630615,0.3588257,-0.0009765625,0.00390625,0,1,3,0
1198.633,0.001017,-0.02148438,0.02734375,0.005859375,-1.835938,1.6875,11.85156,0.009765625,-0.005859375,-0.001953125,0.0234375,0,0,-0.00378418,-0.0001220703,0.1143799,0,0,0.1010742,0.3105164,4.077,0,0,0,0.2999878,nan,2,4.163,1,0,0.3180542,0.3069763,0.3097534,0.3073425,-0.0009765625,0.00390625,0,1,3,0
1198.643,0.001015,-0.1464844,-0.04492188,0,0.296875,1.640625,10.11719,-0.04882812,-0.005859375,0.02539062,0.0234375,0,0,-0.00378418,0,0.114624,0,0,0.1010742,0.3105164,4.077,0,0,0,0.2999878,nan,2,4.173,1,0,0.3552551,0.2774048,0.3121643,0.2972717,-0.0009765625,0.00390625,0,1,3,0.03174603
1198.653,0.001015,-0.02539062,0.01953125,0,1.796875,-1.273438,9.40625,0.05273438,-0.01757812,0.0234375,0.02148438,0,0,-0.003417969,-0.0001220703,0.1148682,0,0,0.1010742,0.3105164,4.077,0,0,0,0.2999878,nan,2,4.183,1,0,0.3069458,0.3266602,0.3035278,0.3049622,-0.0009765625,0.00390625,0,1,3,0.5396826
1198.663,0.001015,-0.06445312,0.001953125,0.08007812,-1.015625,0.4609375,9.953125,-0.03125,-0.00390625,0.06445312,0.01953125,0,0,-0.003417969,-0.0001220703,0.1152344,0,0,0.1010742,0.3105164,4.077,0,0,0,0.2999878,nan,2,4.194,1,0,0.3940125,0.2368164,0.3650208,0.2462463,-0.0009765625,0.00390625,0,1,3,0.3015873
1198.674,0.001041,0.005859375,0.01171875,0.03125,-0.0546875,-1.195312,12.54688,0.00390625,0.001953125,0.06054688,0.02148438,0.001953125,0,-0.003540039,-0.0002441406,0.1159668,0,0,0.1010742,0.3105164,4.077,0,0,0,0.2999878,nan,2,4.204,1,0,0.3086243,0.3177795,0.3076782,0.3080444,-0.0009765625,0.00390625,0,1,3,0
1198.684,0.001021,0.02929688,0.015625,-0.02539062,0.75,0.046875,8.171875,-0.00390625,0.015625,-0.0078125,0.02148438,0,0,-0.00378418,-0.0001220703,0.1160889,0,0,0.1010742,0.3105164,4.077,0,0,0,0.2999878,nan,2,4.214,1,0,0.2557678,0.3656006,0.258667,0.3620911,-0.0009765625,0.00390625,0,1,3,0
1198.694,0.00105,-0.001953125,0.01171875,-0.05273438,-0.953125,-3.46875,8.382812,0.009765625,0.01171875,-0.05078125,0.02148438,0,0,-0.003662109,0,0.1158447,0,0,0.1010742,0.3105164,4.077,0,0,0,0.2999878,nan,2,4.224,1,0,0.2556763,0.3706665,0.2540283,0.3617249,-0.0009765625,0.00390625,0,1,3,0
1198.704,0.001015,0.0078125,-0.0625,0.015625,-2.304688,5.21875,11.90625,-0.0234375,0.001953125,-0.03710938,0.02148438,0,0,-0.00378418,0,0.1153564,0,0,0.1010742,0.3105164,4.077,0,0,0,0.2999878,nan,2,4.234,1,0,0.3302917,0.3016968,0.305481,0.304657,-0.0009765625,0.00390625,0,1,3,0
1198.714,0.001015,-0.0546875,0.009765625,-0.01953125,0.234375,1.5625,10.67188,-0.001953125,0.005859375,-0.0234375,0.01953125,0,0,-0.003417969,0,0.1151123,0,0,0.1010742,0.3105164,4.077,0,0,0,0.2999878,nan,2,4.244,1,0,0.3157959,0.3095398,0.2981873,0.318573,-0.0009765625,0.00390625,0,1,3,0
1198.723,0.001001,0.01367188,0.01367188,-0.03320312,0.984375,-3.367188,10,0.01367188,0.005859375,-0.03515625,0.01953125,0,0,-0.003417969,0.0001220703,0.1148682,0,0,0.1010742,0.3105164,4.077,0,0,0,0.2999878,nan,2,4.253,1,0,0.2877808,0.3395691,0.2876892,0.3270569,-0.0009765625,0.00390625,0,1,3,0
1198.733,0.000997,-0.05273438,-0.01171875,0.05078125,0.015625,-1.0625,8.296875,-0.0234375,0.00390625,0.001953125,0.02148438,0,0,-0.003417969,0.0001220703,0.114624,0,0,0.1010742,0.3105164,4.077,0,0,0,0.2999878,nan,2,4.263,1,0,0.3694153,0.2592773,0.3504028,0.2630005,-0.0009765625,0.00390625,0,1,3,0
1198.743,0.001008,0.009765625,0.00390625,-0.0234375,-2.007812,0.7734375,10.92969,-0.01367188,0.01171875,-0.001953125,0.02148438,0,0,-0.003417969,0,0.1148682,0,0,0.1010742,0.3105164,4.077,0,0,0,0.2999878,nan,2,4.273,1,0,0.2917175,0.3300171,0.2831421,0.3372498,-0.0009765625,0.00390625,0,1,3,0
1198.753,0.001005,-0.09765625,0.04296875,-0.04101562,1.4375,2.023438,7.335938,-0.0546875,0.02148438,-0.03710938,0.0234375,0,0,-0.00378418,0.0001220703,0.114502,0,0,0.1010742,0.3105164,4.077,0,0,0,0.2999878,nan,2,4.283,1,0,0.2898865,0.3268738,0.272583,0.3527527,-0.0009765625,0.00390625,0,1,3,0
1198.763,0.001005,-0.03515625,0.01757812,-0.0078125,0.578125,-3.976562,12.75781,-0.02539062,-0.001953125,-0.03710938,0.0234375,-0.001953125,0,-0.00402832,0.0002441406,0.1140137,0,0,0.1010742,0.3105164,4.077,0,0,0,0.2999878,nan,2,4.293,1,0,0.3229065,0.3082275,0.3068848,0.3040771,0,0.00390625,0,1,3,0
1198.774,0.001005,0.01953125,-0.09570312,-0.04296875,-0.46875,1.070312,10.74219,-0.01953125,-0.01757812,-0.02734375,0.02734375,-0.001953125,0,-0.004516602,0.0002441406,0.1138916,0,0,0.1010742,0.3105164,4.077,0,0,0,0.2999878,nan,2,4.304,1,0,0.2966614,0.3444824,0.2805786,0.3204041,0,0.00390625,0,1,3,0
1198.784,0.001005,-0.0234375,0,-0.05859375,-0.328125,3.859375,13.24219,-0.0078125,-0.005859375,-0.0546875,0.02734375,0,0,-0.004638672,0.0001220703,0.1134033,0,0,0.1010742,0.3105164,4.077,0,0,0,0.2999878,nan,2,4.314,1,0,0.277832,0.3509216,0.2689819,0.3443604,0,0.00390625,0,1,3,0
1198.794,0.001005,0.07226562,-0.03320312,-0.01171875,0.875,-1.1875,7.6875,0.06835938,0.0078125,-0.03125,0.02539062,-0.001953125,0,-0.00402832,0.0002441406,0.112915,0,0,0.1010742,0.3105164,4.077,0,0,0,0.2999878,nan,2,4.324,1,0,0.3269043,0.2997437,0.3352051,0.2802429,0,0.00390625,0,1,3,0
1198.804,0.001005,-0.01367188,0.005859375,0.046875,2.335938,-0.078125,7.804688,0,-0.005859375,0.04101562,0.0234375,0,0,-0.00402832,0,0.1130371,0,0,0.1010742,0.3105164,4.077,0,0,0,0.2999878,nan,2,4.334,1,0,0.3798523,0.2458496,0.3681641,0.2482605,0,0.00390625,0,1,3,0
1198.814,0.000999,0.01953125,-0.005859375,-0.005859375,-1.84375,0.84375,11.08594,0.00390625,-0.0234375,0.015625,0.02539062,0,0,-0.004150391,-0.0001220703,0.1134033,0,0,0.1010742,0.3105164,4.077,0,0,0,0.2999878,nan,2,4.344,1,0,0.2935791,0.3405457,0.2845459,0.3234558,0,0.00390625,0,1,3,0
1198.823,0.001068,0.05859375,0.08007812,-0.02929688,-0.0859375,1.789062,6.789062,-0.00390625,0.04492188,-0.005859375,0.0234375,0,0,-0.00402832,-0.0001220703,0.1134033,0,0,0.1010742,0.3105164,4.077,0,0,0,0.2999878,nan,2,4.353,1,0,0.2723389,0.3333435,0.2814026,0.3549805,0,0.00390625,0,1,3,0
1198.833,0.001003,0.04101562,0.01171875,-0.001953125,0.6171875,-3.054688,10.64062,-0.02148438,0.01757812,-0.005859375,0.02539062,0,0,-0.004150391,0.0001220703,0.1134033,0,0,0.1010742,0.3105164,4.077,0,0,0,0.2999878,nan,2,4.363,1,0,0.3196716,0.3061829,0.3087463,0.3074951,0,0.00390625,0,1,3,0
1198.843,0.000936,0.04296875,-0.07617188,0.04296875,-0.3984375,3.289062,13.71094,-0.005859375,0.001953125,0.01953125,0.02539062,-0.001953125,0,-0.004272461,0.0003662109,0.1132812,0,0,0.1010742,0.3105164,4.077,0,0,0,0.2999878,nan,2,4.373,1,0,0.3653259,0.2737732,0.3465881,0.2564087,0,0.00390625,0,1,3,0
1198.853,0.001056,-0.05273438,0.08398438,-0.009765625,2.257812,1.171875,9.476562,-0.015625,0.02929688,0.001953125,0.0234375,-0.001953125,0,-0.00402832,0.0002441406,0.1135254,0,0,0.1010742,0.3105164,4.077,0,0,0,0.2999878,nan,2,4.383,1,0,0.2949219,0.3182678,0.2881775,0.3406982,0,0.00390625,0,1,3,0.4603175
1198.864,0.00094,0.0234375,-0.01953125,0.01367188,1.367188,-4.84375,9.539062,0.009765625,0.0078125,0.0078125,0.02539062,-0.00390625,0,-0.004150391,0.0004882812,0.1135254,0,0,0.1010742,0.3105164,4.077,0,0,0,0.2999878,nan,2,4.394,1,0,0.3127441,0.3168945,0.3075867,0.3049011,0,0.00390625,0,1,3,0
1198.874,0.001017,0.1660156,-0.009765625,0.0625,-1.070312,3.78125,7.078125,0.046875,0.009765625,0.02539062,0.02539062,-0.00390625,0,-0.00402832,0.0006103516,0.1136475,0,0,0.1010742,0.3105164,4.077,0,0,0,0.2999878,nan,2,4.404,1,0,0.3404236,0.287323,0.3536682,0.2606812,0,0.00390625,0,1,3,0
1198.884,0.001062,0.04492188,-0.09960938,0.0390625,-0.4609375,-1.945312,7.359375,0.03320312,-0.0546875,0.0625,0.02148438,-0.001953125,0,-0.00378418,0.0003662109,0.1143799,0,0,0.1010742,0.3105164,4.077,0,0,0,0.2999878,nan,2,4.414,1,0,0.34552,0.3037415,0.3198547,0.2730103,0,0.00390625,0,1,3,0
1198.893,0.001027,-0.02148438,0.0390625,0.06445312,1.273438,-0.9921875,7.28125,0.01171875,0.005859375,0.04101562,0.02148438,-0.001953125,0,-0.003662109,0.0003662109,0.1147461,0,0,0.1010742,0.3105164,4.077,0,0,0,0.2999878,nan,2,4.423,1,0,0.3181458,0.3032532,0.3147278,0.3059998,0,0.00390625,0,1,3,0
1198.904,0.001039,0.04296875,0.07421875,0.03320312,-1.429688,0.328125,10.4375,0.01953125,0.01171875,0.05273438,0.02148438,-0.001953125,0,-0.003540039,0.0004882812,0.1153564,0,0,0.1010742,0.3105164,4.077,0,0,0,0.2999878,nan,2,4.434,1,0,0.3176575,0.304657,0.3210144,0.2987671,0,0.00390625,0,1,3,0
1198.914,0.001015,0.06054688,-0.03320312,0.01367188,1.492188,0.421875,8.664062,0.001953125,0.001953125,0.01953125,0.02148438,-0.00390625,0,-0.003540039,0.0004882812,0.1157227,0,0,0.1010742,0.3105164,4.077,0,0,0,0.2999878,nan,2,4.444,1,0,0.2948303,0.3339844,0.2879639,0.3253174,0,0.00390625,0,1,3,0
1198.923,0.001042,-0.01757812,0.04101562,-0.046875,-0.828125,-4,8.960938,0.01953125,0.03320312,-0.04882812,0.02148438,-0.00390625,0,-0.003540039,0.0006103516,0.1154785,0,0,0.1010742,0.3105164,4.077,0,0,0,0.2999878,nan,2,4.453,1,0,0.2228088,0.3919983,0.2342529,0.3930359,0,0.00390625,0,1,3,0.1428571
1198.933,0.001003,-0.0234375,0.0078125,-0.0625,-1.523438,3.421875,11.24219,0.05664062,0.01171875,-0.0625,0.01953125,-0.005859375,0,-0.003051758,0.0009765625,0.1149902,0,0,0.1010742,0.3105164,4.077,0,0,0,0.2999878,nan,2,4.463,1,0,0.2781982,0.3571777,0.2710571,0.3356628,0,0.00390625,0,1,3,0
1198.943,0.00101,-0.04492188,0.03515625,-0.01171875,-0.0078125,1.070312,11.75781,-0.0390625,0.005859375,-0.009765625,0.01757812,-0.005859375,0,-0.002929688,0.0009765625,0.1147461,0,0,0.1010742,0.3105164,4.077,0,0,0,0.2999878,nan,2,4.473,1,0,0.3518066,0.2713623,0.3208313,0.2980652,0,0.00390625,0,1,3,0
1198.953,0.001002,0.02148438,0.02734375,-0.03515625,1.210938,-3.640625,6.710938,0.00390625,0.00390625,0.001953125,0.01953125,-0.005859375,0,-0.003173828,0.0009765625,0.1147461,0,0,0.1010742,0.3105164,4.077,0,0,0,0.2999878,nan,2,4.483,1,0,0.2998657,0.3244324,0.3027039,0.315094,0,0.00390625,0,1,3,0
1198.963,0.001002,0.1054688,0.005859375,-0.02734375,0.375,0,7.515625,0.05078125,0.01171875,-0.001953125,0.01757812,-0.005859375,0,-0.002929688,0.0009765625,0.1148682,0,0,0.1010742,0.3105164,4.077,0,0,0,0.2999878,nan,2,4.493,1,0,0.2769165,0.3467102,0.292511,0.3259888,0,0.00390625,0,1,3,0
1198.973,0.001002,0.05273438,-0.01953125,0.046875,-1.382812,1.9375,13.91406,0.015625,0.005859375,0.03320312,0.01757812,-0.0078125,0,-0.002807617,0.001220703,0.1149902,0,0,0.1010742,0.3105164,4.077,0,0,0,0.2999878,nan,2,4.504,1,0,0.3571167,0.2720947,0.3511353,0.2617188,0,0.00390625,0,1,3,0
1198.984,0.001002,0.04101562,0.03710938,0.01367188,2,1.59375,8.398438,0.01367188,0.00390625,0.01367188,0.01757812,-0.0078125,0,-0.002929688,0.001220703,0.1152344,0,0,0.1010742,0.3105164,4.077,0,0,0,0.2999878,nan,2,4.514,1,0,0.3003845,0.3276978,0.3017273,0.3122864,0,0.00390625,0,1,3,0
1198.994,0.001002,-0.04101562,0.001953125,-0.06054688,0.2578125,-4.210938,10.57812,0,-0.01367188,-0.03125,0.01757812,-0.0078125,0,-0.002807617,0.001098633,0.1152344,0,0,0.1010742,0.3105164,4.077,0,0,0,0.2999878,nan,2,4.524,1,0,0.2467651,0.3825989,0.2342224,0.3785095,0,0.00390625,0,1,3,0
1199.004,0.001002,-0.05664062,-0.06445312,-0.02539062,-1.25,3.476562,10.57031,-0.046875,-0.01757812,-0.04492188,0.01953125,-0.0078125,0,-0.003173828,0.001342773,0.1148682,0,0,0.1010742,0.3105164,4.077,0,0,0,0.2999878,nan,2,4.534,1,0,0.3069458,0.3348083,0.2711792,0.3291626,0,0.00390625,0,1,3,0
1199.014,0.001002,0.078125,0.03320312,0.001953125,0.8203125,1.632812,9.960938,0.04492188,0.005859375,-0.00390625,0.01953125,-0.0078125,0,-0.003295898,0.001220703,0.114624,0,0,0.1010742,0.3105164,4.077,0,0,0,0.2999878,nan,2,4.544,1,0,0.322052,0.299408,0.3461304,0.2745056,0,0.00390625,0,1,3,0.04761905
1199.023,0.00102,-0.01171875,0.005859375,0.02734375,1.257812,-3.984375,11.27344,0.005859375,-0.001953125,0.009765625,0.01757812,-0.0078125,0,-0.002929688,0.001342773,0.114624,0,0,0.1010742,0.3105164,4.077,0,0,0,0.2999878,nan,2,4.553,1,0,0.3395691,0.2917786,0.3215027,0.2892456,0,0.00390625,0,1,3,0
1199.033,0.001016,-0.04492188,0.0703125,0.03320312,-1.210938,3.257812,10.85938,-0.01757812,0.015625,0.01953125,0.01953125,-0.0078125,0,-0.003173828,0.001342773,0.1148682,0,0,0.1010742,0.3105164,4.077,0,0,0,0.2999878,nan,2,4.563,1,0,0.3253174,0.290741,0.3240356,0.3020325,0,0.00390625,0,1,3,0
1199.043,0.001016,-0.04296875,0.05078125,0.015625,0.7578125,0.9609375,12.16406,-0.00390625,-0.001953125,0.02148438,0.01757812,-0.0078125,0,-0.003051758,0.001220703,0.1151123,0,0,0.1010742,0.3105164,4.077,0,0,0,0.2999878,nan,2,4.573,1,0,0.3172302,0.3040771,0.3071289,0.3136902,0,0.00390625,0,1,3,0
1199.053,0.001018,0.02539062,-0.05273438,-0.015625,0.4609375,-2.195312,8.515625,-0.001953125,0.00390625,-0.01953125,0.01953125,-0.0078125,0,-0.003173828,0.001342773,0.1149902,0,0,0.1010742,0.3105164,4.077,0,0,0,0.2999878,nan,2,4.583,1,0,0.2845459,0.3441772,0.2790527,0.3343201,0,0.00390625,0,1,3,0
1199.064,0.000989,-0.09179688,0.07617188,0.01171875,-0.96875,1.515625,8.296875,-0.005859375,0.001953125,0,0.01953125,-0.0078125,0,-0.003173828,0.001220703,0.1149902,0,0,0.1010742,0.3105164,4.077,0,0,0,0.2999878,nan,2,4.594,1,0,0.3304749,0.2929688,0.3168945,0.3017883,0,0.00390625,0,1,3,0
1199.074,0.001007,-0.005859375,0.005859375,0.08007812,-1.234375,0.2890625,13.46094,-0.02539062,0.015625,0.02734375,0.01757812,-0.0078125,0,-0.003051758,0.001342773,0.1148682,0,0,0.1010742,0.3105164,4.077,0,0,0,0.2999878,nan,2,4.604,1,128,0.3910522,0.2313232,0.3716736,0.2480774,0,0.00390625,0,1,3,0
1199.084,0.000916,-0.05859375,0.06054688,0.06054688,1.046875,-0.1953125,7.375,-0.009765625,0.02148438,0.05664062,0.01953125,-0.0078125,0,-0.003051758,0.001220703,0.1154785,0,0,0.1010742,0.3105164,4.077,0,0,0,0.2999878,nan,2,4.614,1,128,0.348877,0.2623596,0.3468933,0.2839661,0,0.00390625,0,1,3,0
1199.094,0.000981,-0.04101562,-0.001953125,0.02734375,-1.0625,-0.375,8.617188,0.009765625,-0.00390625,0.06054688,0.01757812,-0.005859375,0,-0.002929688,0.001098633,0.1160889,0,0,0.1010742,0.3105164,4.077,0,0,0,0.2999878,nan,2,4.624,1,128,0.3233337,0.305542,0.3118591,0.3013611,0,0.00390625,0,1,3,0
1199.104,0.001005,0.08203125,-0.02734375,0.03125,1.703125,-0.0234375,10.27344,0.03320312,0,0.03125,0.01757812,-0.0078125,0,-0.002807617,0.001220703,0.1164551,0,0,0.1010742,0.3105164,4.077,0,0,0,0.2999878,nan,2,4.634,1,128,0.2977295,0.3314209,0.2993164,0.3136292,0,0.00390625,0,1,3,0
1199.114,0.001005,0.05859375,-0.08398438,0.08203125,-0.1953125,-4.40625,9.234375,-0.0234375,-0.0078125,0.0625,0.01953125,-0.0078125,0,-0.003173828,0.001342773,0.1169434,0,0,0.1010742,0.3105164,4.077,0,0,0,0.2999878,nan,2,4.644,1,128,0.3685913,0.2687683,0.3553772,0.2493591,0,0.00390625,0,1,3,0.07936508
1199.123,0.001016,-0.00390625,-0.01757812,0.07617188,-1.34375,2.09375,10.73438,-0.005859375,0.00390625,0.06835938,0.01953125,-0.0078125,0,-0.003295898,0.001342773,0.1175537,0,0,0.1010742,0.3105164,4.077,0,0,0,0.2999878,nan,2,4.653,1,128,0.3486938,0.2798767,0.3414917,0.2720337,0,0.002929688,0,1,3,0
1199.133,0.001019,0.07226562,-0.09960938,0.1035156,1,-2.6875,4.554688,-0.005859375,-0.0234375,0.08203125,0.02148438,-0.0078125,0,-0.003540039,0.001464844,0.1182861,0,0,0.1010742,0.3105164,4.077,0,0,0,0.2999878,nan,2,4.663,1,128,0.3544006,0.2862549,0.3379517,0.2635193,0,0.002929688,0,1,3,0
1199.143,0.001017,0.015625,-0.01367188,-0.001953125,-0.7890625,0.40625,8.140625,0.05273438,0.005859375,0.02734375,0.01953125,-0.0078125,0,-0.003173828,0.001464844,0.1188965,0,0,0.1010742,0.3105164,4.077,0,0,0,0.2999878,nan,2,4.673,1,128,0.2633057,0.3629456,0.2694397,0.346405,0,0.002929688,0,1,3,0
1199.153,0.001015,-0.03320312,-0.01367188,-0.01171875,-0.1953125,1.445312,10.64062,-0.005859375,-0.02539062,-0.01757812,0.01953125,-0.0078125,0,-0.003295898,0.001220703,0.1187744,0,0,0.1010742,0.3105164,4.077,0,0,0,0.2999878,nan,2,4.683,1,128,0.29776,0.3356018,0.2771301,0.3315735,0,0.002929688,0,1,3,0
1199.163,0.001016,0.01953125,-0.046875,-0.0390625,2.328125,0.875,8.585938,0,-0.0078125,-0.02148438,0.01953125,-0.0078125,0,-0.003173828,0.001220703,0.1185303,0,0,0.1010742,0.3105164,4.077,0,0,0,0.2999878,nan,2,4.693,1,128,0.2982483,0.3335876,0.2826843,0.3275757,0,0.002929688,0,1,3,0
1199.174,0.001016,-0.06054688,0.08203125,-0.1132812,0.875,-3.921875,9.015625,-0.02148438,0.015625,-0.08203125,0.01953125,-0.0078125,0,-0.003295898,0.001220703,0.118042,0,0,0.1010742,0.3105164,4.077,0,0,0,0.2999878,nan,2,4.704,1,128,0.2284851,0.3872375,0.2233582,0.4030151,0,0.002929688,0,1,3,0.6349207
1199.184,0.001016,-0.02734375,-0.08984375,-0.01757812,-0.5,-0.375,6.640625,-0.01953125,-0.009765625,-0.04296875,0.02148438,-0.0078125,0,-0.003662109,0.001464844,0.1174316,0,0,0.1010742,0.3105164,4.077,0,0,0,0.2999878,nan,2,4.714,1,128,0.3477173,0.2931213,0.3241882,0.2770691,0,0.002929688,0,1,3,0
1199.194,0.001016,-0.109375,0.04882812,0.05273438,-2.328125,1.171875,11.17969,-0.02929688,-0.001953125,0.0234375,0.0234375,-0.0078125,0,-0.00390625,0.001342773,0.1173096,0,0,0.1010742,0.3105164,4.077,0,0,0,0.2999878,nan,2,4.724,1,128,0.3852539,0.2386169,0.3728943,0.2453613,0,0.002929688,0,1,3,0
1199.204,0.001016,-0.009765625,-0.02734375,0.04101562,0.1875,2.710938,10.45312,0.02539062,-0.0703125,0.04296875,0.0234375,-0.005859375,0,-0.00402832,0.0008544922,0.1177979,0,0,0.1010742,0.3105164,4.077,0,0,0,0.2999878,nan,2,4.734,1,128,0.3287659,0.3152161,0.314209,0.283905,0,0.002929688,0,1,3,0
1199.214,0.001017,0.04101562,-0.0546875,0.03515625,-0.15625,-3.257812,11.53125,0.001953125,0.01367188,0.04492188,0.0234375,-0.005859375,0,-0.00402832,0.001098633,0.1182861,0,0,0.1010742,0.3105164,4.077,0,0,0,0.2999878,nan,2,4.744,1,128,0.3222046,0.3045349,0.3129578,0.3024292,0,0.002929688,0,1,3,0
1199.223,0.000963,-0.1035156,0.0625,0.001953125,-0.671875,4.21875,12.5,-0.0625,0.0234375,0.02539062,0.02539062,-0.005859375,0,-0.004150391,0.001098633,0.1186523,0,0,0.1010742,0.3105164,4.077,0,0,0,0.2999878,nan,2,4.753,1,128,0.3035583,0.3141785,0.2800598,0.3442993,0,0.002929688,0,1,3,0
1199.233,0.000978,0.09179688,0.04882812,0.09179688,1.46875,-3.414062,11.1875,0.05078125,0.0078125,0.0703125,0.02539062,-0.0078125,0,-0.004150391,0.001098633,0.1191406,0,0,0.1010742,0.3105164,4.077,0,0,0,0.2999878,nan,2,4.763,1,128,0.3558655,0.2678528,0.3738708,0.2445068,0.0009765625,0.002929688,0,1,3,0
1199.243,0.001074,0.02929688,-0.01757812,0.03710938,-1.421875,1.023438,9.53125,0.03125,-0.005859375,0.046875,0.0234375,-0.0078125,0,-0.00390625,0.001220703,0.119751,0,0,0.1010742,0.3105164,4.077,0,0,0,0.2999878,nan,2,4.773,1,128,0.3009644,0.3276062,0.2970886,0.3164368,0,0.002929688,0,1,3,0.5555556
1199.253,0.001005,0.0703125,-0.03515625,0.08007812,0.8671875,-0.6484375,10.42969,0.01757812,0.00390625,0.05273438,0.0234375,-0.0078125,0,-0.00378418,0.001220703,0.1201172,0,0,0.1010742,0.3105164,4.077,0,0,0,0.2999878,nan,2,4.783,1,128,0.3547668,0.2738647,0.3493042,0.2641602,0.0009765625,0.002929688,0,1,3,0
1199.263,0.001007,0.02929688,-0.0546875,0.07226562,1.625,-0.1796875,7.390625,-0.001953125,-0.015625,0.08398438,0.02148438,-0.0078125,0,-0.003662109,0.001220703,0.1209717,0,0,0.1010742,0.3105164,4.077,0,0,0,0.2999878,nan,2,4.793,1,128,0.3600464,0.274353,0.3417358,0.2659912,0.0009765625,0.002929688,0,1,3,0
1199.273,0.001007,0,-0.01367188,0.00390625,-1.015625,0.125,11.85938,-0.00390625,-0.001953125,0.01367188,0.02148438,-0.0078125,0,-0.003662109,0.001098633,0.1213379,0,0,0.1010742,0.3105164,4.077,0,0,0,0.2999878,nan,2,4.804,1,128,0.2701111,0.3581848,0.258667,0.3551331,0.0009765625,0.002929688,0,1,3,0
1199.284,0.001007,-0.02929688,0.03125,0.0546875,1.351562,-0.0546875,9.585938,0,0.01171875,0.04492188,0.02148438,-0.005859375,0,-0.003662109,0.001098633,0.1217041,0,0,0.1010742,0.3105164,4.077,0,0,0,0.2999878,nan,2,4.814,1,128,0.3486328,0.270874,0.3444824,0.2781067,0.0009765625,0.002929688,0,1,3,0.2063492
1199.294,0.001007,0.02929688,-0.005859375,-0.001953125,-0.515625,-3.71875,9.835938,0.009765625,0,0.01757812,0.02148438,-0.0078125,0,-0.003662109,0.001220703,0.1220703,0,0,0.1010742,0.3105164,4.077,0,0,0,0.2999878,nan,2,4.824,1,128,0.2822571,0.3461304,0.2752686,0.3384705,0.0009765625,0.002929688,0,1,3,0
1199.304,0.001007,0.02148438,-0.09375,-0.06054688,-0.7421875,5.007812,13.88281,-0.001953125,-0.04101562,-0.02929688,0.02148438,-0.005859375,0,-0.003662109,0.001098633,0.1220703,0,0,0.1010742,0.3105164,4.077,0,0,0,0.2999878,nan,2,4.834,1,128,0.2621765,0.3844604,0.2306824,0.3647766,0.0009765625,0.002929688,0,1,3,0
1199.314,0.001,-0.01953125,-0.02148438,-0.001953125,1.492188,-1.445312,6.929688,-0.00390625,-0.02148438,-0.01367188,0.02148438,-0.005859375,0,-0.003662109,0.0009765625,0.1218262,0,0,0.1010742,0.3105164,4.077,0,0,0,0.2999878,nan,2,4.844,1,128,0.3293457,0.3034973,0.3118896,0.2973633,0.0009765625,0.002929688,0,1,3,0
1199.323,0.001012,0.04101562,0.03320312,0.05078125,1.289062,-1.679688,7.664062,-0.001953125,-0.001953125,0.04492188,0.0234375,-0.005859375,0,-0.00390625,0.0008544922,0.1219482,0,0,0.1010742,0.3105164,4.077,0,0,0,0.2999878,nan,2,4.853,1,128,0.379303,0.2446289,0.3803101,0.237854,0.0009765625,0.002929688,0,1,3,0
1199.333,0.001015,-0.04101562,-0.046875,-0.02929688,-1.703125,1.046875,12.60156,-0.0234375,-0.001953125,0,0.0234375,-0.005859375,0,-0.00390625,0.0009765625,0.1221924,0,0,0.1010742,0.3105164,4.077,0,0,0,0.2999878,nan,2,4.863,1,128,0.2868042,0.3434448,0.2619629,0.349884,0.0009765625,0.002929688,0,1,3,0
1199.343,0.001016,0.0234375,0.07617188,-0.03515625,0.2734375,0.65625,7.828125,0.02929688,0.03125,-0.03710938,0.0234375,-0.005859375,0,-0.00378418,0.001098633,0.1219482,0,0,0.1010742,0.3105164,4.077,0,0,0,0.2999878,nan,2,4.873,1,128,0.2611694,0.3536987,0.2736816,0.3535461,0.0009765625,0.002929688,0,1,3,0
1199.353,0.00101,-0.02148438,-0.02148438,0.001953125,0.890625,-3.625,12.77344,-0.00390625,0.0078125,-0.01171875,0.02148438,-0.0078125,0,-0.003662109,0.001342773,0.1217041,0,0,0.1010742,0.3105164,4.077,0,0,0,0.2999878,nan,2,4.883,1,128,0.3359375,0.2945251,0.3172302,0.2944031,0.0009765625,0.002929688,0,1,3,0
1199.363,0.001013,-0.05664062,0.01953125,-0.0078125,-1.242188,2.640625,11.25781,-0.02539062,0.009765625,0,0.0234375,-0.0078125,0,-0.00378418,0.001342773,0.1217041,0,0,0.1010742,0.3105164,4.077,0,0,0,0.2999878,nan,2,4.893,1,128,0.320282,0.3035889,0.3054199,0.3128052,0.0009765625,0.002929688,0,1,3,0
1199.373,0.001013,0.06445312,-0.01757812,0,0.6328125,1.523438,13.0625,0.0234375,-0.0078125,0.005859375,0.0234375,-0.0078125,0,-0.00402832,0.001342773,0.1217041,0,0,0.1010742,0.3105164,4.077,0,0,0,0.2999878,nan,2,4.904,1,128,0.3099976,0.3220215,0.3121338,0.2979431,0.0009765625,0.002929688,0,1,3,0
1199.384,0.001023,-0.01367188,0.005859375,-0.0078125,0.921875,-0.96875,7.476562,-0.0078125,0.001953125,-0.01367188,0.0234375,-0.0078125,0,-0.00390625,0.001342773,0.1217041,0,0,0.1010742,0.3105164,4.077,0,0,0,0.2999878,nan,2,4.914,1,128,0.3008728,0.3252869,0.287384,0.3285522,0.0009765625,0.002929688,0,1,3,0
1199.394,0.00106,0.1152344,0.009765625,0.02734375,-0.7890625,-1.921875,7.289062,-0.0078125,0.01953125,0,0.0234375,-0.0078125,0,-0.00402832,0.001464844,0.1217041,0,0,0.1010742,0.3105164,4.077,0,0,0,0.2999878,nan,2,4.924,1,128,0.313324,0.3062439,0.3131409,0.3094177,0.0009765625,0.002929688,0,1,3,0
1199.403,0.001052,-0.08203125,0.01171875,0.08398438,-0.6875,1.757812,11.74219,-0.03710938,-0.0078125,0.04882812,0.0234375,-0.0078125,0,-0.00402832,0.001464844,0.1218262,0,0,0.1010742,0.3105164,4.077,0,0,0,0.2999878,nan,2,4.933,1,128,0.4028931,0.2266846,0.3679199,0.2445984,0.0009765625,0.002929688,0,1,3,0
1199.413,0.00102,-0.015625,-0.01171875,0.1015625,1.695312,-1.65625,9.296875,0.005859375,-0.01171875,0.08398438,0.02539062,-0.0078125,0,-0.004150391,0.001342773,0.1225586,0,0,0.1010742,0.3105164,4.077,0,0,0,0.2999878,nan,2,4.943,1,128,0.3719788,0.2583923,0.3631592,0.2485657,0.0009765625,0.002929688,0,1,3,0.3650794
1199.423,0.001005,-0.07226562,0.01367188,0.1074219,-1.273438,3.671875,12.875,0,-0.009765625,0.1308594,0.02539062,-0.0078125,0,-0.004272461,0.001220703,0.1237793,0,0,0.1010742,0.3105164,4.077,0,0,0,0.2999878,nan,2,4.953,1,128,0.38974,0.2401428,0.3745728,0.2376709,0.0009765625,0.002929688,0,1,3,0
1199.433,0.000985,0.07617188,-0.07226562,0.09570312,0.375,-3.117188,9.773438,0.03125,-0.04296875,0.1054688,0.02539062,-0.005859375,0,-0.004272461,0.001098633,0.1248779,0,0,0.1010742,0.3105164,4.077,0,0,0,0.2999878,nan,2,4.963,1,128,0.3303528,0.3111572,0.3185425,0.2820435,0.0009765625,0.002929688,0,1,3,0.06349207
1199.443,0.000925,-0.06445312,-0.02929688,0.09765625,-2.171875,2.328125,10.03906,-0.01171875,-0.01171875,0.09960938,0.0234375,-0.005859375,0,-0.00402832,0.0009765625,0.1258545,0,0,0.1010742,0.3105164,4.077,0,0,0,0.2999878,nan,2,4.973,1,128,0.351593,0.2780762,0.3267517,0.285675,0.0009765625,0.002929688,0,1,3,0
1199.453,0.001005,-0.02929688,-0.0078125,0.08398438,0.828125,-0.8203125,5.476562,-0.03515625,0.005859375,0.0546875,0.02539062,-0.005859375,0,-0.004272461,0.0009765625,0.126709,0,0,0.1010742,0.3105164,4.077,0,0,0,0.2999878,nan,2,4.983,1,128,0.3032227,0.3235474,0.2816162,0.3337402,0.0009765625,0.002929688,0,1,3,0
1199.463,0.001038,0.07617188,0.05078125,0.04882812,-0.78125,-0.671875,7.914062,0.01757812,0.0390625,0.04492188,0.02539062,-0.005859375,0,-0.004150391,0.0009765625,0.1270752,0,0,0.1010742,0.3105164,4.077,0,0,0,0.2999878,nan,2,4.993,1,128,0.3196716,0.2897949,0.3308105,0.3018188,0.0009765625,0.002929688,0,1,3,0
1199.473,0.000935,0.01171875,-0.009765625,0.01953125,0.421875,2.820312,11.51562,-0.00390625,0.009765625,0.01171875,0.02539062,-0.0078125,0,-0.004272461,0.001342773,0.1273193,0,0,0.1010742,0.3105164,4.077,0,0,0,0.2999878,nan,2,5.004,1,128,0.2966614,0.3338318,0.2809143,0.330658,0.0009765625,0.002929688,0,1,3,0
1199.483,0.000956,-0.02148438,-0.1113281,0.04101562,0.9921875,-6.054688,13.44531,0.02148438,-0.05859375,0.04492188,0.02539062,-0.0078125,0,-0.003662109,0.001098633,0.1276855,0,0,0.1276855,0.3105164,4.077,0,0,0,0.2999878,nan,2,5.014,0,0,0,0,0,0,0,0,0,1,2,0
1199.494,0.001014,-0.05664062,-0.009765625,0.04492188,1.289062,2.882812,10.54688,-0.01757812,-0.01367188,0.05078125,0.02539062,-0.0078125,0,-0.00378418,0.0007324219,0.1282959,0,0,0.1282959,0.3105164,4.077,0,0,0,0.2999878,nan,2,5.024,0,0,0,0,0,0,0,0,0,1,2,0
1199.504,0.001008,0.08007812,-0.08398438,0.0390625,-1.40625,-0.0234375,12.10938,0.02734375,-0.0234375,0.05664062,0.02539062,-0.0078125,0,-0.00390625,0.0006103516,0.1289062,0,0,0.1289062,0.3105164,4.077,0,0,0,0.2999878,nan,2,5.034,0,0,0,0,0,0,0,0,0,1,2,0
1199.514,0.001008,0.05273438,-0.04492188,-0.01757812,0.65625,5.929688,6.445312,0.04492188,-0.01171875,0.0078125,0.02539062,-0.0078125,0,-0.003540039,0.0003662109,0.1291504,0,0,0.1291504,0.3105164,4.077,0,0,0,0.2999878,nan,2,5.044,0,0,0,0,0,0,0,0,0,1,2,0
1199.524,0.001014,-0.02929688,0.04101562,-0.02148438,1.757812,0.7421875,8.140625,0.01171875,0.02539062,-0.03320312,0.02539062,-0.0078125,0,-0.003540039,0.0007324219,0.1289062,0,0,0.1289062,0.3105164,4.077,0,0,0,0.2999878,nan,2,5.054,0,0,0,0,0,0,0,0,0,1,2,0
1199.534,0.001007,-0.02148438,-0.05078125,0.05078125,0.71875,7.945312,13.74219,-0.0078125,-0.01953125,0.04101562,0.02539062,-0.0078125,0,-0.003662109,0.0008544922,0.1290283,0,0,0.1290283,0.3105164,4.077,0,0,0,0.2999878,nan,2,5.064,0,0,0,0,0,0,0,0,0,1,2,0
1199.543,0.001006,0.04101562,0.01367188,0.05078125,1.445312,-0.5859375,8.382812,0.03710938,-0.0078125,0.05859375,0.02539062,-0.0078125,0,-0.003417969,0.0007324219,0.1295166,0,0,0.1295166,0.3105164,4.077,0,0,0,0.2999878,nan,2,5.073,0,0,0,0,0,0,0,0,0,1,2,0
1199.553,0.001013,-0.02539062,-0.00390625,0.02539062,-2.398438,2.8125,13.95312,-0.0078125,0.005859375,0.03515625,0.02539062,-0.0078125,0,-0.003417969,0.0007324219,0.1300049,0,0,0.1300049,0.3105164,4.077,0,0,0,0.2999878,nan,2,5.083,0,0,0,0,0,0,0,0,0,1,2,0
1199.563,0.001012,0.01953125,-0.01757812,-0.009765625,-1.546875,2.515625,6.421875,0.02929688,-0.02539062,-0.001953125,0.02539062,-0.0078125,0,-0.003295898,0.0007324219,0.130127,0,0,0.130127,0.3105164,4.077,0,0,0,0.2999878,nan,2,5.093,0,0,0,0,0,0,0,0,0,1,2,0
1199.573,0.001011,0.009765625,-0.01757812,-0.06445312,-0.6640625,5.054688,6.96875,0.01953125,-0.0078125,-0.04882812,0.02539062,-0.0078125,0,-0.002929688,0.0006103516,0.1298828,0,0,0.1298828,0.3105164,4.077,0,0,0,0.2999878,nan,2,5.104,0,0,0,0,0,0,0,0,0,1,2,0
1199.583,0.001012,-0.005859375,-0.0390625,-0.015625,0.1171875,1.992188,11.8125,0.01367188,-0.005859375,-0.02929688,0.02539062,-0.0078125,0,-0.002807617,0.0006103516,0.1293945,0,0,0.1293945,0.3105164,4.077,0,0,0,0.2999878,nan,2,5.114,0,0,0,0,0,0,0,0,0,1,2,0
1199.593,0.001012,-0.0078125,0.01953125,-0.04101562,-0.546875,-2.203125,7.992188,-0.001953125,0.005859375,-0.02929688,0.02539062,-0.0078125,0,-0.002929688,0.0006103516,0.1291504,0,0,0.1291504,0.3105164,4.077,0,0,0,0.2999878,nan,2,5.124,0,0,0,0,0,0,0,0,0,1,2,0
1199.604,0.001011,0.03515625,0.04101562,-0.0859375,-0.1328125,2.484375,11.38281,0.001953125,-0.009765625,-0.05859375,0.02539062,-0.0078125,0,-0.002929688,0.0004882812,0.1287842,0,0,0.1287842,0.3105164,4.077,0,0,0,0.2999878,nan,2,5.134,0,0,0,0,0,0,0,0,0,1,2,0
1199.614,0.001012,-0.0078125,-0.009765625,-0.1347656,-1.460938,0.9765625,0.3203125,0,-0.01171875,-0.1132812,0.02539062,-0.0078125,0,-0.002929688,0.0003662109,0.1278076,0,0,0.1278076,0.3105164,4.077,0,0,0,0.2999878,nan,2,5.144,0,0,0,0,0,0,0,0,0,1,2,0
1199.624,0.001006,-0.001953125,0.05078125,-0.1230469,0.4765625,1.460938,1.710938,0.005859375,0.00390625,-0.1308594,0.02539062,-0.0078125,0,-0.002807617,0.0002441406,0.1265869,0,0,0.1265869,0.3105164,4.077,0,0,0,0.2999878,nan,2,5.154,0,0,0,0,0,0,0,0,0,1,2,0
1199.634,0.00101,0,-0.0078125,-0.06640625,0.3984375,5.257812,10.8125,0.01171875,-0.01953125,-0.09765625,0.02539062,-0.0078125,0,-0.002807617,0.0002441406,0.1253662,0,0,0.1253662,0.3105164,4.077,0,0,0,0.2999878,nan,2,5.164,0,0,0,0,0,0,0,0,0,1,2,0
1199.643,0.000991,-0.001953125,-0.01757812,-0.02929688,0.125,3.804688,9.820312,-0.005859375,0,-0.05078125,0.02539062,-0.0078125,0,-0.002807617,0.0001220703,0.1247559,0,0,0.1247559,0.3105164,4.077,0,0,0,0.2999878,nan,2,5.173,0,0,0,0,0,0,0,0,0,1,2,1
1199.653,0.001022,-0.06445312,-0.01171875,-0.02148438,0.6484375,-0.6328125,9.304688,-0.03515625,0,-0.03125,0.02539062,-0.0078125,0,-0.002807617,0.0001220703,0.1243896,0,0,0.1243896,0.3105164,4.077,0,0,0,0.2999878,nan,2,5.183,0,0,0,0,0,0,0,0,0,1,2,1
1199.663,0.001003,0,-0.0625,-0.01757812,0.390625,0.640625,10.39062,0.005859375,-0.015625,-0.01171875,0.02539062,-0.0078125,0,-0.002685547,0,0.1241455,0,0,0.1241455,0.3105164,4.077,0,0,0,0.2999878,nan,2,5.193,0,0,0,0,0,0,0,0,0,1,2,1
1199.673,0.00101,-0.001953125,-0.001953125,-0.06640625,-0.546875,0.6796875,12.11719,0.001953125,-0.005859375,-0.04296875,0.02539062,-0.0078125,0,-0.002563477,-0.0001220703,0.1239014,0,0,0.1239014,0.3105164,4.077,0,0,0,0.2999878,nan,2,5.204,0,0,0,0,0,0,0,0,0,1,2,0
1199.683,0.001009,-0.0078125,0.01171875,-0.0390625,0.1328125,-0.0234375,8.328125,0.00390625,0.01367188,-0.05859375,0.02539062,-0.0078125,0,-0.002563477,0,0.1234131,0,0,0.1234131,0.3105164,4.077,0,0,0,0.2999878,nan,2,5.214,0,0,0,0,0,0,0,0,0,1,2,0
1199.693,0.001025,-0.04882812,-0.04101562,0.03125,0.234375,0.3671875,7.835938,-0.02148438,0,0.01367188,0.02539062,-0.0078125,0,-0.002563477,0,0.1231689,0,0,0.1231689,0.3105164,4.077,0,0,0,0.2999878,nan,2,5.224,0,0,0,0,0,0,0,0,0,1,2,0
1199.704,0.001003,-0.03320312,-0.04296875,0.001953125,0.609375,-0.265625,5.859375,-0.009765625,-0.01171875,0.01367188,0.02539062,-0.0078125,0,-0.002685547,0.0001220703,0.1234131,0,0,0.1234131,0.3105164,4.077,0,0,0,0.2999878,nan,2,5.234,0,0,0,0,0,0,0,0,0,1,2,0
1199.714,0.001039,-0.005859375,-0.02539062,-0.01757812,-0.8671875,-0.6796875,11.51562,-0.005859375,-0.001953125,-0.015625,0.02539062,-0.0078125,0,-0.002807617,0,0.123291,0,0,0.123291,0.3105164,4.077,0,0,0,0.2999878,nan,2,5.244,0,0,0,0,0,0,0,0,0,1,2,0
1199.724,0.001003,-0.03125,-0.09960938,-0.02148438,-0.5859375,0.6328125,5.070312,0.00390625,-0.02734375,-0.015625,0.02539062,-0.0078125,0,-0.002807617,0,0.1231689,0,0,0.1231689,0.3105164,4.077,0,0,0,0.2999878,nan,2,5.254,0,0,0,0,0,0,0,0,0,1,2,0
1199.734,0.001,0.001953125,0.02148438,-0.009765625,-0.140625,1.085938,11.11719,0.005859375,0.00390625,-0.02148438,0.02539062,-0.0078125,0,-0.002807617,-0.0001220703,0.1229248,0,0,0.1229248,0.3105164,4.077,0,0,0,0.2999878,nan,2,5.264,0,0,0,0,0,0,0,0,0,1,2,0
1199.743,0.001008,-0.0234375,0.009765625,-0.02734375,-0.5703125,1.679688,8.007812,-0.005859375,-0.005859375,-0.01953125,0.02539062,-0.0078125,0,-0.002685547,-0.0001220703,0.1228027,0,0,0.1228027,0.3105164,4.077,0,0,0,0.2999878,nan,2,5.273,0,0,0,0,0,0,0,0,0,1,2,0
1199.753,0.001022,-0.009765625,-0.005859375,-0.05664062,0.84375,2.507812,8.992188,0,-0.0078125,-0.03320312,0.02539062,-0.0078125,0,-0.002685547,-0.0002441406,0.1225586,0,0,0.1225586,0.3105164,4.077,0,0,0,0.2999878,nan,2,5.283,0,0,0,0,0,0,0,0,0,1,2,1
1199.763,0.001017,0.00390625,-0.01171875,-0.04296875,-0.4609375,0.1328125,11.44531,0.005859375,-0.005859375,-0.04101562,0.02539062,-0.0078125,0,-0.002685547,-0.0002441406,0.1221924,0,0,0.1221924,0.3105164,4.077,0,0,0,0.2999878,nan,2,5.293,0,0,0,0,0,0,0,0,0,1,2,0
1199.773,0.00102,0.01757812,-0.009765625,0.00390625,-0.578125,-4.523438,14.32812,0.0078125,-0.0078125,-0.0234375,0.02539062,-0.0078125,0,-0.002685547,-0.0002441406,0.1218262,0,0,0.1218262,0.3105164,4.077,0,0,0,0.2999878,nan,2,5.303,0,0,0,0,0,0,0,0,0,1,2,0
1199.783,0.001047,0.02929688,-0.0078125,-0.00390625,0.9921875,3.96875,13.63281,0,0.00390625,-0.001953125,0.02539062,-0.0078125,0,-0.002685547,-0.0002441406,0.1217041,0,0,0.1217041,0.3105164,4.077,0,0,0,0.2999878,nan,2,5.314,0,0,0,0,0,0,0,0,0,1,2,0
1199.794,0.00104,-0.0390625,0.00390625,0.01171875,-1.234375,-2.703125,9.085938,-0.005859375,-0.001953125,0.009765625,0.02539062,-0.0078125,0,-0.002685547,-0.0002441406,0.1217041,0,0,0.1217041,0.3105164,4.077,0,0,0,0.2999878,nan,2,5.324,0,0,0,0,0,0,0,0,0,1,2,1
1199.804,0.001005,0.01367188,0.02148438,0.00390625,1.625,-2.210938,10.85156,0.005859375,0.005859375,-0.001953125,0.02539062,-0.0078125,0,-0.002563477,-0.0002441406,0.1217041,0,0,0.1217041,0.3105164,4.077,0,0,0,0.2999878,nan,2,5.334,0,0,0,0,0,0,0,0,0,1,2,0
1199.814,0.001056,-0.02734375,-0.01367188,-0.01367188,-2.804688,-6.234375,11.32031,-0.001953125,-0.00390625,-0.02148438,0.02539062,-0.0078125,0,-0.002563477,-0.0002441406,0.121582,0,0,0.121582,0.3105164,4.077,0,0,0,0.2999878,nan,2,5.344,0,0,0,0,0,0,0,0,0,1,2,0
1199.824,0.00097,0.001953125,-0.0078125,0.00390625,-1.0625,-0.53125,10.01562,0.01367188,-0.01367188,-0.001953125,0.02539062,-0.0078125,0,-0.002319336,-0.0002441406,0.12146,0,0,0.12146,0,4.077,0,0,0,0,nan,2,0.003,0,0,0,0,0,0,0,0,0,1,2,1
1199.834,0.001044,-0.03125,0.01367188,0.005859375,-1.195312,0.2578125,8.578125,-0.01171875,0,0.015625,0.02539062,-0.0078125,0,-0.002197266,-0.0003662109,0.121582,0,0,0.121582,0,4.077,0,0,0,0,nan,2,0.013,0,0,0,0,0,0,0,0,0,1,2,0
1199.844,0.001018,-0.04492188,0.00390625,0.009765625,-0.125,-1.15625,9.53125,-0.009765625,0.00390625,0.009765625,0.02539062,-0.0078125,0,-0.002197266,-0.0003662109,0.1217041,0,0,0.1217041,0,4.077,0,0,0,0,nan,2,0.023,0,0,0,0,0,0,0,0,0,1,2,1
1199.853,0.001017,0.009765625,0.005859375,-0.009765625,-1.109375,-1.289062,10.03125,0.005859375,0.001953125,-0.001953125,0.02539062,-0.0078125,0,-0.002197266,-0.0003662109,0.1217041,0,0,0.1217041,0,4.077,0,0,0,0,nan,2,0.032,0,0,0,0,0,0,0,0,0,1,2,1
1199.863,0.001008,0.06640625,0.01171875,-0.02929688,0.1796875,2.9375,9.695312,0.00390625,0.009765625,-0.009765625,0.02539062,-0.0078125,0,-0.002197266,-0.0003662109,0.1217041,0,0,0.1217041,0,4.077,0,0,0,0,nan,2,0.009,0,0,0,0,0,0,0,0,0,1,2,1
1199.873,0.000954,-0.02929688,0.02734375,0.01757812,-0.9765625,-2.828125,9.914062,-0.0078125,0.005859375,-0.00390625,0.02539062,-0.0078125,0,-0.002197266,-0.0003662109,0.121582,0,0,0.121582,0,4.077,0,0,0,0,nan,2,0.019,0,0,0,0,0,0,0,0,0,1,2,1
1199.884,0.001003,0.005859375,-0.02148438,-0.01757812,0.4453125,1.28125,10.26562,-0.001953125,0,0.00390625,0.02539062,-0.0078125,0,-0.002075195,-0.0002441406,0.121582,0,0,0.121582,0,4.077,0,0,0,0,nan,2,0.029,0,0,0,0,0,0,0,0,0,1,2,1
1199.893,0.001008,-0.04101562,-0.00390625,0.02734375,0.296875,-1.5625,10.125,-0.009765625,-0.005859375,0.005859375,0.02539062,-0.0078125,0,-0.002197266,-0.0003662109,0.1217041,0,0,0.1217041,0,4.077,0,0,0,0,nan,2,0.039,0,0,0,0,0,0,0,0,0,1,2,1
1199.904,0.001013,0.08789062,-0.001953125,-0.015625,0.0078125,3.898438,9.445312,0.01171875,0.001953125,-0.009765625,0.02539062,-0.0078125,0,-0.002319336,-0.0003662109,0.121582,0,0,0.121582,0,4.077,0,0,0,0,nan,2,0.049,0,0,0,0,0,0,0,0,0,1,2,1
1199.914,0.001008,-0.08203125,-0.00390625,0.01171875,-0.7421875,-1.617188,9.351562,-0.005859375,0,0.001953125,0.02539062,-0.0078125,0,-0.002197266,-0.0003662109,0.121582,0,0,0.121582,0,4.077,0,0,0,0,nan,2,0.06,0,0,0,0,0,0,0,0,0,1,2,1
1199.924,0.001007,-0.078125,-0.01953125,0.01367188,0.28125,-2.359375,9.757812,-0.02148438,-0.00390625,0,0.02539062,-0.0078125,0,-0.002319336,-0.0003662109,0.1217041,0,0,0.1217041,0,4.077,0,0,0,0,nan,2,0.07,0,0,0,0,0,0,0,0,0,1,2,1
1199.934,0.001011,0.03125,0.005859375,0.02539062,1.054688,-0.921875,9.15625,-0.009765625,-0.001953125,0.001953125,0.02539062,-0.0078125,0,-0.002197266,-0.0003662109,0.121582,0,0,0.121582,0,4.077,0,0,0,0,nan,2,0.08,0,0,0,0,0,0,0,0,0,1,2,1
1199.943,0.000998,-0.03710938,-0.0078125,0.01953125,0.3515625,-0.7578125,9.179688,-0.0078125,-0.001953125,0,0.02539062,-0.0078125,0,-0.002197266,-0.0003662109,0.121582,0,0,0.121582,0,4.077,0,0,0,0,nan,2,0.089,0,0,0,0,0,0,0,0,0,1,2,1
1199.953,0.001007,-0.05859375,0.005859375,-0.00390625,0.3984375,-0.2421875,9.265625,-0.009765625,0.00390625,-0.005859375,0.02539062,-0.0078125,0,-0.002197266,-0.0003662109,0.121582,0,0,0.121582,0,4.077,0,0,0,0,nan,2,0.099,0,0,0,0,0,0,0,0,0,1,2,1
1199.963,0.001012,-0.04296875,0.009765625,-0.01953125,-0.0546875,0.515625,9.851562,-0.001953125,0.001953125,-0.005859375,0.02539062,-0.0078125,0,-0.002197266,-0.0003662109,0.121582,0,0,0.121582,0,4.077,0,0,0,0,nan,2,0.109,0,0,0,0,0,0,0,0,0,1,2,1
1199.973,0.001012,0.01757812,0.00390625,-0.005859375,0.3203125,0.140625,9.609375,0.0078125,-0.005859375,0.001953125,0.02539062,-0.0078125,0,-0.002197266,-0.0003662109,0.121582,0,0,0.121582,0,4.077,0,0,0,0,nan,2,0.119,0,0,0,0,0,0,0,0,0,1,2,1
1199.983,0.001012,0.03320312,-0.0234375,0.02148438,-0.046875,-0.1015625,9.828125,0.001953125,-0.005859375,0.005859375,0.02539062,-0.0078125,0,-0.002197266,-0.0003662109,0.121582,0,0,0.121582,0,4.077,0,0,0,0,nan,2,0.129,0,0,0,0,0,0,0,0,0,1,2,1
1199.993,0.001011,-0.0234375,-0.015625,-0.01367188,0.2734375,0.703125,9.21875,-0.0078125,0.00390625,-0.00390625,0.02539062,-0.0078125,0,-0.002197266,-0.0003662109,0.121582,0,0,0.121582,0,4.077,0,0,0,0,nan,2,0.139,0,0,0,0,0,0,0,0,0,1,2,1
1200.004,0.001013,0.009765625,-0.015625,-0.001953125,0.5078125,-0.59375,9.203125,0.00390625,-0.005859375,0,0.02539062,-0.0078125,0,-0.002075195,-0.0003662109,0.121582,0,0,0.121582,0,4.077,0,0,0,0,nan,2,0.149,0,0,0,0,0,0,0,0,0,1,2,1
1200.014,0.000982,-0.01757812,-0.01171875,-0.01171875,-0.015625,0.3984375,10.07031,-0.00390625,0,-0.005859375,0.02539062,-0.0078125,0,-0.002075195,-0.0003662109,0.121582,0,0,0.121582,0,4.077,0,0,0,0,nan,2,0.16,0,0,0,0,0,0,0,0,0,1,2,1
1200.024,0.000989,0.015625,-0.02148438,0.01757812,-0.2265625,-0.1484375,9.71875,0,-0.005859375,0.005859375,0.02539062,-0.0078125,0,-0.002075195,-0.0003662109,0.121582,0,0,0.121582,0,4.077,0,0,0,0,nan,2,0.17,0,0,0,0,0,0,0,0,0,1,2,1
1200.034,0.001032,0.00390625,0.009765625,-0.01171875,0.4375,-0.4140625,9.640625,0.00390625,0.00390625,0.001953125,0.02539062,-0.0078125,0,-0.002075195,-0.0003662109,0.121582,0,0,0.121582,0,4.077,0,0,0,0,nan,2,0.18,0,0,0,0,0,0,0,0,0,1,2,1
1200.043,0.000997,-0.01171875,0.015625,-0.01953125,0.3203125,0.21875,9.953125,0,0.00390625,-0.00390625,0.02539062,-0.0078125,0,-0.002075195,-0.0004882812,0.121582,0,0,0.121582,0,4.077,0,0,0,0,nan,2,0.189,0,0,0,0,0,0,0,0,0,1,2,1
1200.053,0.00099,-0.009765625,0.0078125,-0.009765625,0.0546875,0.1015625,10.29688,-0.001953125,0.00390625,-0.005859375,0.02539062,-0.0078125,0,-0.001953125,-0.0003662109,0.121582,0,0,0.121582,0,4.077,0,0,0,0,nan,2,0.199,0,0,0,0,0,0,0,0,0,1,2,1
1200.063,0.001013,-0.001953125,0,0.001953125,0.1796875,-0.0078125,9.851562,0,0,-0.001953125,0.02539062,-0.0078125,0,-0.001953125,-0.0003662109,0.121582,0,0,0.121582,0,4.077,0,0,0,0,nan,2,0.209,0,0,0,0,0,0,0,0,0,1,2,1
1200.073,0.001014,-0.0078125,-0.005859375,-0.001953125,0.1953125,0.0625,9.679688,0,-0.001953125,-0.001953125,0.02539062,-0.0078125,0,-0.001953125,-0.0004882812,0.121582,0,0,0.121582,0,4.077,0,0,0,0,nan,2,0.219,0,0,0,0,0,0,0,0,0,1,2,1
1200.083,0.001014,0,-0.005859375,-0.015625,0.1796875,0.0390625,9.710938,0.001953125,0,-0.005859375,0.02539062,-0.0078125,0,-0.001953125,-0.0004882812,0.121582,0,0,0.121582,0,4.077,0,0,0,0,nan,2,0.229,0,0,0,0,0,0,0,0,0,1,2,1
1200.094,0.001005,0.001953125,0.00390625,-0.01757812,0.40625,-0.2109375,9.960938,0.00390625,0.005859375,-0.00390625,0.02539062,-0.0078125,0,-0.001953125,-0.0004882812,0.121582,0,0,0.121582,0,4.077,0,0,0,0,nan,2,0.239,0,0,0,0,0,0,0,0,0,1,2,1
1200.104,0.001014,0.009765625,0.009765625,-0.001953125,0.1640625,0.09375,9.945312,0.001953125,0.001953125,0.001953125,0.02539062,-0.0078125,0,-0.001831055,-0.0003662109,0.121582,0,0,0.121582,0,4.077,0,0,0,0,nan,2,0.249,0,0,0,0,0,0,0,0,0,1,2,1
1200.114,0.001007,0.001953125,-0.005859375,0.0234375,-0.3203125,0.2109375,9.710938,-0.001953125,-0.00390625,0.005859375,0.02539062,-0.0078125,0,-0.001831055,-0.0004882812,0.121582,0,0,0.121582,0,4.077,0,0,0,0,nan,2,0.26,0,0,0,0,0,0,0,0,0,1,2,1
1200.124,0.001009,-0.00390625,-0.01367188,-0.00390625,0.0859375,-0.1015625,9.796875,0,-0.001953125,-0.005859375,0.02539062,-0.0078125,0,-0.001831055,-0.0003662109,0.121582,0,0,0.121582,0,4.077,0,0,0,0,nan,2,0.27,0,0,0,0,0,0,0,0,0,1,2,1
1200.134,0.001013,0.001953125,0.01171875,-0.00390625,0.015625,0.0234375,9.867188,0,0.00390625,0.00390625,0.02539062,-0.0078125,0,-0.001831055,-0.0003662109,0.121582,0,0,0.121582,0,4.077,0,0,0,0,nan,2,0.28,0,0,0,0,0,0,0,0,0,1,2,1
1200.144,0.001015,-0.01171875,-0.009765625,0.001953125,-0.015625,0.125,9.742188,-0.00390625,-0.00390625,-0.001953125,0.02539062,-0.0078125,0,-0.001831055,-0.0004882812,0.121582,0,0,0.121582,0,4.077,0,0,0,0,nan,2,0.29,0,0,0,0,0,0,0,0,0,1,2,1
1200.153,0.001011,0.0078125,0.015625,-0.001953125,0.09375,-0.0859375,9.796875,0.001953125,0.0078125,0.001953125,0.02539062,-0.0078125,0,-0.001708984,-0.0003662109,0.121582,0,0,0.121582,0,4.077,0,0,0,0,nan,2,0.299,0,0,0,0,0,0,0,0,0,1,2,1
1200.163,0.00101,-0.009765625,-0.0078125,-0.00390625,-0.09375,0.1953125,9.8125,-0.00390625,-0.00390625,-0.00390625,0.02539062,-0.0078125,0,-0.001831055,-0.0003662109,0.121582,0,0,0.121582,0,4.077,0,0,0,0,nan,2,0.309,0,0,0,0,0,0,0,0,0,1,2,1
1200.173,0.000967,0.0078125,0.01171875,0.01171875,0.0390625,0.0078125,9.820312,0.00390625,0.00390625,0.001953125,0.02539062,-0.0078125,0,-0.001708984,-0.0003662109,0.12146,0,0,0.12146,0,4.077,0,0,0,0,nan,2,0.319,0,0,0,0,0,0,0,0,0,1,2,1
1200.183,0.00101,-0.0078125,-0.005859375,-0.00390625,-0.0625,0.109375,9.757812,-0.00390625,-0.001953125,0.00390625,0.02539062,-0.0078125,0,-0.001708984,-0.0003662109,0.121582,0,0,0.121582,0,4.077,0,0,0,0,nan,2,0.329,0,0,0,0,0,0,0,0,0,1,2,1
1200.193,0.001011,-0.001953125,0.005859375,0.001953125,0.046875,-0.015625,9.851562,0,0.001953125,-0.00390625,0.02539062,-0.0078125,0,-0.001708984,-0.0003662109,0.121582,0,0,0.121582,0,4.077,0,0,0,0,nan,2,0.339,0,0,0,0,0,0,0,0,0,1,2,1
1200.204,0.001011,-0.005859375,-0.0078125,0.001953125,-0.03125,0.0703125,9.765625,-0.00390625,-0.001953125,0.00390625,0.02539062,-0.0078125,0,-0.001708984,-0.0003662109,0.121582,0,0,0.121582,0,4.077,0,0,0,0,nan,2,0.349,0,0,0,0,0,0,0,0,0,1,2,1
1200.214,0.001011,-0.001953125,0,0,0.09375,-0.0078125,9.8125,0,0.001953125,0,0.02539062,-0.0078125,0,-0.001708984,-0.0003662109,0.121582,0,0,0.121582,0,4.077,0,0,0,0,nan,2,0.359,0,0,0,0,0,0,0,0,0,1,2,1
1200.224,0.001009,-0.00390625,-0.001953125,0.001953125,-0.0625,0.0703125,9.75,-0.001953125,-0.001953125,-0.001953125,0.02539062,-0.0078125,0,-0.001708984,-0.0003662109,0.121582,0,0,0.121582,0,4.077,0,0,0,0,nan,2,0.37,0,0,0,0,0,0,0,0,0,1,2,1
1200.233,0.000995,0.001953125,0,0,0.0625,-0.078125,9.796875,0,0.001953125,0,0.02539062,-0.0078125,0,-0.001586914,-0.0003662109,0.121582,0,0,0.121582,0,4.077,0,0,0,0,nan,2,0.379,0,0,0,0,0,0,0,0,0,1,2,1
1200.244,0.001006,0,-0.001953125,0,-0.0546875,0.1015625,9.804688,-0.001953125,-0.001953125,-0.001953125,0.02539062,-0.0078125,0,-0.001586914,-0.0003662109,0.121582,0,0,0.121582,0,4.077,0,0,0,0,nan,2,0.39,0,0,0,0,0,0,0,0,0,1,2,1
1200.253,0.001009,-0.001953125,0.00390625,-0.00390625,0.078125,-0.015625,9.789062,0,0.001953125,0,0.02539062,-0.0078125,0,-0.001586914,-0.0003662109,0.12146,0,0,0.12146,0,4.077,0,0,0,0,nan,2,0.399,0,0,0,0,0,0,0,0,0,1,2,1
1200.263,0.001008,-0.001953125,0,-0.001953125,-0.0390625,0.0625,9.773438,-0.001953125,0,0,0.02539062,-0.0078125,0,-0.001586914,-0.0003662109,0.12146,0,0,0.12146,0,4.077,0,0,0,0,nan,2,0.409,0,0,0,0,0,0,0,0,0,1,2,1
1200.273,0.001009,-0.001953125,0.001953125,0,0.0390625,0.0078125,9.867188,0,0,-0.001953125,0.02539062,-0.0078125,0,-0.001586914,-0.0003662109,0.12146,0,0,0.12146,0,4.077,0,0,0,0,nan,2,0.419,0,0,0,0,0,0,0,0,0,1,2,1
1200.283,0.001009,0.001953125,0,-0.001953125,0,0.0390625,9.828125,0,0,0,0.02539062,-0.0078125,0,-0.001586914,-0.0003662109,0.12146,0,0,0.12146,0,4.077,0,0,0,0,nan,2,0.429,0,0,0,0,0,0,0,0,0,1,2,1
1200.293,0.001009,-0.001953125,0,-0.00390625,0.03125,0.03125,9.8125,0,0,-0.001953125,0.02539062,-0.0078125,0,-0.001586914,-0.0003662109,0.12146,0,0,0.12146,0,4.077,0,0,0,0,nan,2,0.439,0,0,0,0,0,0,0,0,0,1,2,1
1200.304,0.001008,0,0.00390625,0.001953125,0.0078125,0.0390625,9.835938,0,0.001953125,0,0.02539062,-0.0078125,0,-0.001464844,-0.0003662109,0.12146,0,0,0.12146,0,4.077,0,0,0,0,nan,2,0.449,0,0,0,0,0,0,0,0,0,1,2,1
1200.314,0.001009,-0.001953125,-0.001953125,-0.001953125,0.0703125,0.0234375,9.820312,0,0,0,0.02539062,-0.0078125,0,-0.001464844,-0.0003662109,0.12146,0,0,0.12146,0,4.077,0,0,0,0,nan,2,0.459,0,0,0,0,0,0,0,0,0,1,2,1
1200.324,0.001009,0.001953125,0.001953125,0.001953125,0.0234375,0.03125,9.84375,0,0.001953125,0,0.02539062,-0.0078125,0,-0.001464844,-0.0003662109,0.12146,0,0,0.12146,0,4.077,0,0,0,0,nan,2,0.47,0,0,0,0,0,0,0,0,0,1,2,1
1200.334,0.001008,0.001953125,0,-0.001953125,0,0.0703125,9.828125,0,0,0,0.02539062,-0.0078125,0,-0.001464844,-0.0003662109,0.12146,0,0,0.12146,0,4.077,0,0,0,0,nan,2,0.48,0,0,0,0,0,0,0,0,0,1,2,1
1200.343,0.00106,0,-0.001953125,0,0,0.03125,9.78125,0,-0.001953125,-0.001953125,0.02539062,-0.0078125,0,-0.001464844,-0.0003662109,0.12146,0,0,0.12146,0,4.077,0,0,0,0,nan,2,0.489,0,0,0,0,0,0,0,0,0,1,2,1
1200.353,0.000948,0,0.001953125,0,0.0234375,0.0234375,9.773438,0,0,-0.001953125,0.02539062,-0.0078125,0,-0.001342773,-0.0003662109,0.12146,0,0,0.12146,0,4.077,0,0,0,0,nan,2,0.499,0,0,0,0,0,0,0,0,0,1,2,1
1200.364,0.001508,-0.00390625,0.00390625,0,0.0625,0.046875,9.773438,-0.001953125,0.001953125,0,0.02539062,-0.0078125,0,-0.001342773,-0.0004882812,0.12146,0,0,0.12146,0,4.077,0,0,0,0,nan,2,0.51,0,0,0,0,0,0,0,0,0,1,2,1
1200.374,0.000999,0,-0.001953125,-0.001953125,0.03125,0.03125,9.84375,0,0,0,0.02539062,-0.0078125,0,-0.001342773,-0.0004882812,0.12146,0,0,0.12146,0,4.077,0,0,0,0,nan,2,0.519,0,0,0,0,0,0,0,0,0,1,2,1
1200.384,0.001286,-0.001953125,0.00390625,0,0.015625,0,9.859375,-0.001953125,0.001953125,0,0.02539062,-0.0078125,0,-0.001342773,-0.0004882812,0.12146,0,0,0.12146,0,4.077,0,0,0,0,nan,2,0.529,0,0,0,0,0,0,0,0,0,1,2,1
1200.393,0.001173,-0.001953125,-0.001953125,0,0,0.0625,9.84375,0,0,0,0.02539062,-0.0078125,0,-0.001342773,-0.0004882812,0.12146,0,0,0.12146,0,4.077,0,0,0,0,nan,2,0.539,0,0,0,0,0,0,0,0,0,1,2,1
1200.404,0.001148,0,0.00390625,0,0.0078125,0.03125,9.804688,0,0.001953125,0,0.02539062,-0.0078125,0,-0.001342773,-0.0004882812,0.12146,0,0,0.12146,0,4.077,0,0,0,0,nan,2,0.55,0,0,0,0,0,0,0,0,0,1,2,1
1200.413,0.001457,0,-0.001953125,0.001953125,0.0078125,0.0234375,9.789062,0,0,0,0.02539062,-0.0078125,0,-0.001342773,-0.0004882812,0.12146,0,0,0.12146,0,4.077,0,0,0,0,nan,2,0.559,0,0,0,0,0,0,0,0,0,1,2,1
1200.467,0.05203,-0.001953125,-0.001953125,0,0.015625,0.03125,9.765625,-0.001953125,-0.001953125,0,0.02539062,-0.0078125,0,-0.001342773,-0.0006103516,0.12146,0,0,0.12146,0,4.077,0,0,0,0,nan,2,0.613,0,0,0,0,0,0,0,0,0,1,2,1
1200.474,0.000869,-0.001953125,-0.001953125,0,0.015625,0.0234375,9.820312,0,-0.001953125,0,0.02539062,-0.0078125,0,-0.001342773,-0.0006103516,0.12146,0,0,0.12146,0,4.077,0,0,0,0,nan,2,0.619,0,0,0,0,0,0,0,0,0,1,2,1
