t,dt_s,gyro_x,gyro_y,gyro_z,acc_x,acc_y,acc_z,rates.x,rates.y,rates.z,ratesTarget.x,ratesTarget.y,ratesTarget.z,attitude.x,attitude.y,attitude.z,attitudeTarget.x,attitudeTarget.y,attitudeTarget.z,thrustTarget,battery_v,rc_roll,rc_pitch,rc_yaw,rc_throttle,rc_mode,flight_mode,rc_age_s,armed,fault_mask,motor_rl,motor_rr,motor_fr,motor_fl,rate_i_x,rate_i_y,rate_i_z,mix_scale,control_source,accel_correction_confidence,route_revision,route_schema,route_step,route_state,route_target_z,route_actual_z,route_target_yaw,route_actual_yaw,route_flow_x,route_flow_y,route_quality,route_termination_reason,magnetic_yaw,navigation_yaw,magnetic_innovation,magnetometer_flags
45.994,0.001045,-0.08007812,-0.06835938,-0.06445312,-1.265625,-2.898438,13.11719,-0.02148438,-0.06054688,-0.03710938,-0.07226562,-0.04296875,0.2695312,0.01208496,0.007202148,-0.08984375,0,0,0.0002441406,0.601532,4.09,0,0,0,0.4799805,nan,4,11.893,1,0,0.3163147,0.8544922,0.4714355,0.763916,-0.06445312,-0.02441406,0.015625,1,3,0,1,2,4,3,0.15,-0.11,0,-0.09,0,0,1,0,0,-0.09,0,36
46.004,0.000968,-0.03320312,0.0234375,-0.06054688,1.265625,-2.351562,6.054688,-0.03710938,0.01367188,-0.0625,-0.0703125,-0.04296875,0.2714844,0.01159668,0.007202148,-0.0904541,0,0,0.0002441406,0.5950317,4.09,0,0,0,0.4799805,nan,4,11.903,1,0,0.350769,0.7758179,0.5454407,0.7080688,-0.06445312,-0.02441406,0.015625,1,3,0,1,2,4,3,0.15,-0.11,0,-0.09,0,0,3,0,0,-0.09,0,36
46.014,0.001188,0.0078125,0.01953125,-0.03320312,0.515625,-1.757812,9.296875,-0.0078125,0,-0.04101562,-0.06835938,-0.04296875,0.2734375,0.01147461,0.007202148,-0.09094238,0,0,0.0002441406,0.5887756,4.09,0,0,0,0.4799805,nan,4,11.912,1,0,0.3892212,0.733429,0.5859985,0.6464233,-0.06445312,-0.02441406,0.015625,1,3,0.1587302,1,2,4,3,0.15,-0.1,0,-0.091,0,0,4,0,0,-0.091,0,36
46.025,0.001601,-0.03320312,0.015625,0.0078125,0.8203125,-2.179688,6.554688,-0.02539062,0.01171875,-0.00390625,-0.06835938,-0.04296875,0.2734375,0.01123047,0.007324219,-0.09106445,0,0,0.0002441406,0.5820007,4.09,0,0,0,0.4799805,nan,4,11.923,1,0,0.4179382,0.6881409,0.6078491,0.6141052,-0.06445312,-0.02539062,0.015625,1,3,0,1,2,4,3,0.15,-0.1,0,-0.091,0,0,2,0,0,-0.091,0,36
46.035,0.001458,-0.02148438,0.0078125,0.08789062,-3.007812,-3.367188,11.64844,-0.009765625,-0.00390625,0.0546875,-0.06640625,-0.04296875,0.2734375,0.0111084,0.007324219,-0.09082031,0,0,0.0002441406,0.5751953,4.09,0,0,0,0.4799805,nan,4,11.933,1,0,0.4546204,0.6422729,0.6465149,0.5573425,-0.06445312,-0.02539062,0.015625,1,3,0,1,2,4,3,0.15,-0.09,0,-0.091,0,0,4,0,0,-0.091,0,36
46.045,0.00103,0.005859375,0,0.1132812,0.4453125,-4.976562,7.359375,0.01171875,0.02929688,0.1132812,-0.06640625,-0.04492188,0.2714844,0.0111084,0.007568359,-0.08996582,0,0,0.0002441406,0.5689087,4.09,0,0,0,0.4799805,nan,4,11.943,1,0,0.4543457,0.6231079,0.6568298,0.5413818,-0.06445312,-0.02539062,0.015625,1,3,0,1,2,4,3,0.15,-0.09,0,-0.09,0,0,3,0,0,-0.09,0,36
46.054,0.001555,-0.01171875,0.02148438,-0.08007812,-1.007812,0.765625,14.15625,-0.01171875,0,-0.009765625,-0.06640625,-0.04492188,0.2695312,0.0111084,0.007568359,-0.08935547,0,0,0.0002441406,0.5626221,4.09,0,0,0,0.4799805,nan,4,11.953,1,0,0.2557983,0.8175659,0.4404907,0.7365723,-0.06542969,-0.02539062,0.015625,1,3,0,1,2,4,3,0.15,-0.09,0,-0.089,0,0,3,0,0,-0.089,0,36
46.065,0.001407,0.06640625,0.04101562,-0.0859375,2.8125,-3.0625,11.99219,0.01171875,0.001953125,-0.08203125,-0.06640625,-0.04492188,0.2714844,0.01098633,0.007568359,-0.09008789,0,0,0.0002441406,0.5696106,4.09,0,0,0,0.4799805,nan,4,11.964,1,0,0.2942505,0.7857361,0.4992676,0.6992188,-0.06542969,-0.02539062,0.015625,1,3,0,1,2,4,3,0.15,-0.09,0,-0.09,0,0,2,0,0,-0.09,0,36
46.074,0.001144,-0.05664062,0.04492188,-0.03125,-0.8125,1.914062,12.99219,0.005859375,0.00390625,-0.0625,-0.06835938,-0.04492188,0.2734375,0.01135254,0.007446289,-0.09069824,0,0,0.0002441406,0.5756531,4.09,0,0,0,0.4799805,nan,4,11.973,1,0,0.3851624,0.703949,0.5766602,0.6369019,-0.06542969,-0.02539062,0.015625,1,3,0,1,2,4,3,0.15,-0.09,0,-0.091,0,0,3,0,0,-0.091,0,36
46.084,0.0009860001,0.07226562,-0.0390625,0.03320312,2.921875,-6.039062,10.46875,0.01953125,-0.0234375,0,-0.06835938,-0.04492188,0.2734375,0.01147461,0.007568359,-0.09106445,0,0,0.0002441406,0.5820007,4.09,0,0,0,0.4799805,nan,4,11.982,1,0,0.449585,0.6735535,0.6355286,0.5693359,-0.06542969,-0.02539062,0.015625,1,3,0,1,2,4,3,0.15,-0.1,0,-0.091,0,0,2,0,0,-0.091,0,36
46.094,0.000976,0.0234375,0.04492188,0.1113281,0.1640625,3.3125,8.835938,0.01757812,0,0.07617188,-0.0703125,-0.04492188,0.2734375,0.01171875,0.007446289,-0.09057617,0,0,0.0002441406,0.5887146,4.09,0,0,0,0.4799805,nan,4,11.993,1,0,0.4876709,0.6296082,0.6890869,0.5484924,-0.06542969,-0.02539062,0.015625,1,3,0.1269841,1,2,4,3,0.15,-0.1,0,-0.091,0,0,2,0,0,-0.091,0,36
46.104,0.001002,0,0.04296875,0.1132812,-0.5,2.09375,12.15625,0,0.03515625,0.1191406,-0.0703125,-0.04492188,0.2695312,0.01171875,0.00769043,-0.08947754,0,0,0.0002441406,0.5952454,4.09,0,0,0,0.4799805,nan,4,12.003,1,0,0.4630737,0.6598206,0.6665039,0.5915527,-0.06542969,-0.02539062,0.015625,1,3,0,1,2,4,3,0.15,-0.1,0,-0.089,0,0,1,0,0,-0.089,0,36
46.115,0.001034,-0.03515625,-0.009765625,-0.109375,-0.90625,4.179688,7.421875,-0.01367188,-0.0078125,-0.03515625,-0.0703125,-0.046875,0.2675781,0.01184082,0.0078125,-0.08898926,0,0,0.0002441406,0.6019897,4.09,0,0,0,0.4799805,nan,4,12.013,1,0,0.2638855,0.8921814,0.4424438,0.8095093,-0.06542969,-0.02539062,0.015625,1,3,0,1,2,4,3,0.15,-0.11,0,-0.089,0,0,3,0,0,-0.089,0,36
46.125,0.001121,0.015625,-0.05078125,-0.1015625,0.625,-4.039062,12.71094,-0.00390625,-0.04296875,-0.09570312,-0.0703125,-0.04492188,0.2695312,0.01159668,0.007446289,-0.08984375,0,0,0.0002441406,0.6085205,4.09,0,0,0,0.4799805,nan,4,12.023,1,0,0.3311768,0.8416443,0.5195007,0.7417297,-0.06542969,-0.02539062,0.015625,1,3,0,1,2,4,3,0.15,-0.11,0,-0.09,0,0,1,0,0,-0.09,0,36
46.134,0.000988,0.02734375,0.0234375,-0.05664062,2.71875,-1.132812,6.046875,0.06835938,-0.009765625,-0.0703125,-0.07226562,-0.04296875,0.2734375,0.01220703,0.007324219,-0.09057617,0,0,0.0002441406,0.6145935,4.09,0,0,0,0.4799805,nan,4,12.032,1,0,0.4037476,0.7645264,0.6205139,0.6695557,-0.06542969,-0.02539062,0.015625,1,3,0,1,2,4,3,0.15,-0.11,0,-0.091,0,0,2,0,0,-0.091,0,36
46.145,0.000974,-0.0234375,-0.05273438,0.0390625,-0.65625,4.78125,10.19531,-0.02539062,-0.03710938,0.009765625,-0.07421875,-0.04296875,0.2734375,0.01220703,0.007080078,-0.09082031,0,0,0.0002441406,0.6217651,4.09,0,0,0,0.4799805,nan,4,12.043,1,0,0.5053406,0.6926575,0.6785278,0.6105957,-0.06542969,-0.02539062,0.015625,1,3,0,1,2,4,3,0.15,-0.12,0,-0.091,0,0,3,0,0,-0.091,0,36
46.154,0.001007,0.00390625,0.07226562,0.1171875,2.578125,1.085938,5.617188,-0.02929688,0.01757812,0.08984375,-0.07226562,-0.04101562,0.2714844,0.01196289,0.006835938,-0.09033203,0,0,0.0002441406,0.6278992,4.09,0,0,0,0.4799805,nan,4,12.053,1,0,0.5352783,0.6473999,0.7434692,0.5854492,-0.06542969,-0.02539062,0.015625,1,3,0,1,2,4,3,0.15,-0.12,0,-0.09,0,0,2,0,0,-0.09,0,36
46.165,0.001058,0.001953125,0.015625,0.1152344,-3.367188,7.046875,13.25,0.02734375,0.0078125,0.1171875,-0.07226562,-0.04101562,0.2695312,0.01220703,0.006958008,-0.0892334,0,0,0.0002441406,0.631134,4.09,0,0,0,0.4799805,nan,4,12.063,1,0,0.5000916,0.7059326,0.7045288,0.6139526,-0.06542969,-0.02539062,0.015625,1,3,0,1,2,4,3,0.15,-0.12,0,-0.089,0,0,4,0,0,-0.089,0,36
46.175,0.001056,-0.05273438,0.01171875,-0.07421875,1.289062,-3.570312,4.9375,-0.02539062,-0.03320312,-0.00390625,-0.07421875,-0.04101562,0.2675781,0.01220703,0.006835938,-0.08862305,0,0,0.0002441406,0.6337891,4.09,0,0,0,0.4799805,nan,4,12.073,1,0,0.3339539,0.8874207,0.506073,0.8076477,-0.06542969,-0.02539062,0.015625,1,3,0,1,2,4,3,0.15,-0.13,0,-0.089,0,0,2,0,0,-0.089,0,36
46.185,0.001239,0.08007812,-0.0078125,-0.08789062,-0.40625,5.039062,12.64844,0.01171875,0.001953125,-0.0859375,-0.07226562,-0.04101562,0.2695312,0.01208496,0.006835938,-0.08935547,0,0,0.0002441406,0.6268311,4.09,0,0,0,0.4799805,nan,4,12.084,1,0,0.3342285,0.861145,0.5426331,0.7693787,-0.06640625,-0.02539062,0.015625,1,3,0,1,2,4,3,0.15,-0.12,0,-0.089,0,0,3,0,0,-0.089,0,36
46.195,0.00111,-0.07226562,0.02734375,-0.009765625,2.773438,0.0078125,6.890625,-0.01367188,0.0234375,-0.04101562,-0.07226562,-0.04296875,0.2714844,0.01220703,0.006958008,-0.08996582,0,0,0.0002441406,0.6207581,4.09,0,0,0,0.4799805,nan,4,12.093,1,0,0.4477539,0.7322388,0.6400146,0.6630249,-0.06640625,-0.02539062,0.015625,1,3,0,1,2,4,3,0.15,-0.12,0,-0.09,0,0,4,0,0,-0.09,0,36
46.205,0.001035,0.02734375,0.0546875,0.06054688,-0.3984375,7.789062,7.640625,0.01171875,0.01171875,0.03515625,-0.07226562,-0.04101562,0.2714844,0.01208496,0.006958008,-0.08996582,0,0,0.0002441406,0.6140137,4.09,0,0,0,0.4799805,nan,4,12.104,1,0,0.4877014,0.6781006,0.6985779,0.5916138,-0.06640625,-0.02539062,0.015625,1,3,0,1,2,4,3,0.15,-0.12,0,-0.09,0,0,2,0,0,-0.09,0,36
46.214,0.000997,0.03320312,-0.04492188,0.08984375,1.351562,0.78125,5.765625,0.02734375,-0.001953125,0.08203125,-0.07226562,-0.04296875,0.2695312,0.01220703,0.007080078,-0.08935547,0,0,0.0002441406,0.6079712,4.09,0,0,0,0.4799805,nan,4,12.113,1,0,0.4868164,0.6792603,0.6861877,0.5795593,-0.06640625,-0.02539062,0.015625,1,3,0,1,2,4,3,0.15,-0.11,0,-0.089,0,0,2,0,0,-0.089,0,36
46.225,0.001409,0.0390625,-0.05273438,-0.01953125,-1.539062,2.671875,12.71094,0.03515625,-0.01171875,0.02539062,-0.07421875,-0.04296875,0.2675781,0.01245117,0.007202148,-0.08874512,0,0,0.0002441406,0.6013489,4.09,0,0,0,0.4799805,nan,4,12.123,1,0,0.3696594,0.78479,0.5662231,0.6846924,-0.06640625,-0.02539062,0.015625,1,3,0,1,2,4,3,0.15,-0.11,0,-0.089,0,0,4,0,0,-0.089,0,36
46.235,0.001385,-0.078125,-0.109375,-0.0625,3.421875,-2.835938,5.625,-0.02539062,-0.05664062,-0.05859375,-0.07421875,-0.04296875,0.2675781,0.01245117,0.007202148,-0.08911133,0,0,0.0002441406,0.5945435,4.09,0,0,0,0.4799805,nan,4,12.133,1,0,0.3386536,0.8160095,0.5032654,0.7202759,-0.06640625,-0.02539062,0.015625,1,3,0,1,2,4,3,0.15,-0.11,0,-0.089,0,0,3,0,0,-0.089,0,36
46.244,0.001304,0.005859375,0.001953125,-0.03320312,-1.515625,5.984375,13.57812,-0.0234375,-0.0078125,-0.0390625,-0.07226562,-0.04101562,0.2695312,0.01208496,0.006958008,-0.08959961,0,0,0.0002441406,0.588562,4.09,0,0,0,0.4799805,nan,4,12.143,1,0,0.3845215,0.7340393,0.5836792,0.6520081,-0.06640625,-0.02539062,0.01660156,1,3,0,1,2,4,3,0.15,-0.1,0,-0.09,0,0,1,0,0,-0.09,0,36
46.255,0.001335,-0.0625,-0.001953125,0.04492188,1.03125,2.046875,11.28125,0.0078125,0.0078125,0.015625,-0.07421875,-0.04101562,0.2695312,0.01220703,0.006958008,-0.08984375,0,0,0.0002441406,0.5813904,4.09,0,0,0,0.4799805,nan,4,12.154,1,0,0.4413757,0.6611633,0.6436157,0.5794067,-0.06640625,-0.02636719,0.01660156,1,3,0,1,2,4,3,0.15,-0.1,0,-0.09,0,0,2,0,0,-0.09,0,36
46.265,0.001388,-0.02734375,-0.06640625,0.09179688,-2.273438,6.5625,9.953125,-0.04101562,-0.015625,0.06445312,-0.0703125,-0.04296875,0.2695312,0.01184082,0.007080078,-0.08935547,0,0,0.0002441406,0.5750427,4.09,0,0,0,0.4799805,nan,4,12.163,1,0,0.456604,0.644104,0.63974,0.5596619,-0.06640625,-0.02636719,0.01660156,1,3,0,1,2,4,3,0.15,-0.09,0,-0.089,0,0,2,0,0,-0.089,0,36
46.275,0.001054,0.04101562,0.05273438,0.0234375,2.65625,-1.71875,11.22656,0.005859375,0.03125,0.0546875,-0.0703125,-0.04296875,0.2675781,0.01171875,0.007080078,-0.08862305,0,0,0.0002441406,0.5686951,4.09,0,0,0,0.4799805,nan,4,12.173,1,0,0.3661499,0.7035828,0.5840759,0.6210022,-0.06640625,-0.02636719,0.01660156,1,3,0,1,2,4,3,0.15,-0.09,0,-0.089,0,0,2,0,0,-0.089,0,36
46.284,0.001463,-0.04492188,0,-0.06835938,-1.046875,2.789062,11.82031,-0.01367188,0.01757812,-0.04101562,-0.0703125,-0.04492188,0.2675781,0.01184082,0.007324219,-0.08862305,0,0,0.0002441406,0.5625916,4.09,0,0,0,0.4799805,nan,4,12.183,1,0,0.276825,0.7901611,0.4692078,0.7142029,-0.06640625,-0.02636719,0.01660156,1,3,0,1,2,4,3,0.15,-0.09,0,-0.089,0,0,3,0,0,-0.089,0,36
46.294,0.00133,-0.07421875,-0.04492188,-0.0078125,2.171875,-0.5859375,7.75,-0.05078125,-0.01171875,-0.01757812,-0.06835938,-0.04492188,0.2675781,0.01147461,0.007324219,-0.08898926,0,0,0.0002441406,0.5561829,4.09,0,0,0,0.4799805,nan,4,12.192,1,0,0.3775635,0.6837158,0.5560913,0.6073303,-0.06640625,-0.02636719,0.01660156,1,3,0,1,2,4,3,0.15,-0.08,0,-0.089,0,0,2,0,0,-0.089,0,36
46.305,0.001005,0.07421875,0.01953125,-0.001953125,-1.101562,5.328125,6.40625,0.01757812,0.02148438,0,-0.06640625,-0.04296875,0.2675781,0.0111084,0.007202148,-0.08898926,0,0,0.0002441406,0.5580139,4.09,0,0,0,0.4799805,nan,4,12.203,1,0,0.3525085,0.6932373,0.5835571,0.6027832,-0.06640625,-0.02636719,0.01660156,1,3,0,1,2,4,3,0.15,-0.09,0,-0.089,0,0,2,0,0,-0.089,0,36
46.315,0.001549,-0.0625,-0.01367188,0.0234375,-2.796875,2.015625,13.30469,-0.02148438,-0.005859375,0.01171875,-0.06835938,-0.04296875,0.2675781,0.01123047,0.007202148,-0.08898926,0,0,0.0002441406,0.5645752,4.09,0,0,0,0.4799805,nan,4,12.213,1,0,0.3919373,0.6816101,0.578949,0.6057739,-0.06640625,-0.02636719,0.01660156,1,3,0,1,2,4,3,0.15,-0.09,0,-0.089,0,0,2,0,0,-0.089,0,36
46.324,0.001262,0.07617188,0.04296875,-0.00390625,-1.554688,-5.234375,3.96875,0.0234375,0.01171875,0.015625,-0.06640625,-0.04296875,0.2675781,0.0111084,0.007202148,-0.08874512,0,0,0.0002441406,0.5705566,4.09,0,0,0,0.4799805,nan,4,12.223,1,0,0.3626099,0.7148132,0.5831299,0.6216736,-0.06640625,-0.02636719,0.01660156,1,3,0,1,2,4,3,0.15,-0.09,0,-0.089,0,0,2,0,0,-0.089,0,36
46.335,0.001119,-0.07226562,0.01953125,-0.03125,-4.421875,-0.9765625,13.25781,-0.02539062,0.01171875,-0.03125,-0.06835938,-0.04296875,0.2675781,0.01135254,0.007324219,-0.08898926,0,0,0.0002441406,0.5774841,4.09,0,0,0,0.4799805,nan,4,12.233,1,0,0.3511658,0.7434998,0.5369568,0.6782837,-0.06738281,-0.02636719,0.01660156,1,3,0,1,2,4,3,0.15,-0.1,0,-0.089,0,0,2,0,0,-0.089,0,36
46.344,0.001313,-0.01171875,0.005859375,0.03515625,1.09375,-5.210938,8.53125,-0.005859375,-0.009765625,0.00390625,-0.06835938,-0.04296875,0.2675781,0.01135254,0.007202148,-0.08911133,0,0,0.0002441406,0.5835571,4.09,0,0,0,0.4799805,nan,4,12.242,1,0,0.4234314,0.6907959,0.6177368,0.6022339,-0.06738281,-0.02636719,0.01660156,1,3,0.4603175,1,2,4,3,0.15,-0.1,0,-0.089,0,0,3,0,0,-0.089,0,36
46.355,0.001256,0.02148438,-0.0625,0.0078125,0.1484375,-1.1875,4.859375,0.0078125,0.00390625,0.02734375,-0.06640625,-0.04296875,0.2675781,0.01123047,0.007324219,-0.08874512,0,0,0.0002441406,0.5906677,4.09,0,0,0,0.4799805,nan,4,12.253,1,0,0.4048767,0.7189026,0.6094971,0.629425,-0.06738281,-0.02636719,0.01660156,1,3,0,1,2,4,3,0.15,-0.1,0,-0.089,0,0,2,0,0,-0.089,0,36
46.365,0.001177,-0.02929688,0.01367188,-0.01757812,0.625,-4.242188,14.92969,-0.03710938,0,-0.0078125,-0.06640625,-0.04296875,0.2675781,0.01098633,0.007202148,-0.08874512,0,0,0.0002441406,0.5880127,4.09,0,0,0,0.4799805,nan,4,12.263,1,0,0.3656311,0.7493591,0.5595703,0.6775208,-0.06738281,-0.02636719,0.01660156,1,3,0,1,2,4,3,0.15,-0.11,0,-0.089,0,0,2,0,0,-0.089,0,36
46.375,0.001307,-0.04492188,-0.01953125,0.02148438,2.335938,-6.132812,5.109375,-0.001953125,-0.009765625,0.0078125,-0.06640625,-0.04296875,0.2675781,0.01098633,0.007202148,-0.08874512,0,0,0.0002441406,0.5815125,4.09,0,0,0,0.4799805,nan,4,12.273,1,0,0.4026184,0.7054749,0.5999756,0.617981,-0.06738281,-0.02636719,0.01660156,1,3,0,1,2,4,3,0.15,-0.11,0,-0.089,0,0,2,0,0,-0.089,0,36
46.385,0.001317,0.06054688,0.0390625,-0.01757812,0.15625,0.9609375,15.67188,0.04882812,0.02539062,0.00390625,-0.06640625,-0.04492188,0.2675781,0.01123047,0.007324219,-0.08862305,0,0,0.0002441406,0.5813904,4.09,0,0,0,0.4799805,nan,4,12.283,1,0,0.362793,0.7330933,0.586853,0.6428223,-0.06738281,-0.02636719,0.01660156,1,3,0,1,2,4,3,0.15,-0.11,0,-0.089,0,0,3,0,0,-0.089,0,36
46.395,0.001278,-0.001953125,0.0546875,0.015625,3.546875,-1.59375,11.49219,0.01953125,0.01171875,0,-0.0703125,-0.04492188,0.2675781,0.01159668,0.007324219,-0.08874512,0,0,0.0002441406,0.5881653,4.09,0,0,0,0.4799805,nan,4,12.294,1,0,0.3948975,0.7181702,0.6002502,0.6393738,-0.06738281,-0.02636719,0.01660156,1,3,0,1,2,4,3,0.15,-0.11,0,-0.089,0,0,2,0,0,-0.089,0,36
46.405,0.00135,-0.04296875,-0.05273438,0.01367188,-1.476562,5.71875,9.367188,-0.02929688,-0.001953125,0.01757812,-0.06835938,-0.04492188,0.2675781,0.01159668,0.007446289,-0.08862305,0,0,0.0002441406,0.5922852,4.09,0,0,0,0.4799805,nan,4,12.302,1,0,0.423645,0.7053528,0.6087341,0.6314087,-0.06738281,-0.02636719,0.01660156,1,3,0,1,2,4,3,0.15,-0.11,0,-0.089,0,0,1,0,0,-0.089,0,36
46.415,0.001228,0.01953125,0.01367188,-0.01953125,0.5390625,-2.4375,10.63281,-0.009765625,0.01171875,-0.00390625,-0.06640625,-0.04492188,0.265625,0.01123047,0.007568359,-0.08850098,0,0,0.0002441406,0.5883484,4.09,0,0,0,0.4799805,nan,4,12.313,1,0,0.3666992,0.7503052,0.5722961,0.664093,-0.06738281,-0.02636719,0.01660156,1,3,0,1,2,4,3,0.15,-0.11,0,-0.089,0,0,2,0,0,-0.089,0,36
46.425,0.001215,-0.09179688,-0.03710938,0.01171875,2.265625,1.046875,5.179688,-0.02539062,-0.01171875,-0.005859375,-0.06835938,-0.04492188,0.2675781,0.01135254,0.007568359,-0.08862305,0,0,0.0002441406,0.5816956,4.09,0,0,0,0.4799805,nan,4,12.324,1,0,0.4003601,0.7098694,0.5831909,0.6333313,-0.06738281,-0.02636719,0.01660156,1,3,0,1,2,4,3,0.15,-0.11,0,-0.089,0,0,2,0,0,-0.089,0,36
46.434,0.001449,-0.009765625,0.05859375,0.01367188,-0.703125,1.742188,14.55469,-0.001953125,0.01757812,0.01171875,-0.06835938,-0.04492188,0.2675781,0.01123047,0.007568359,-0.08862305,0,0,0.0002441406,0.575531,4.09,0,0,0,0.4799805,nan,4,12.333,1,0,0.3909912,0.6944885,0.6009216,0.6156616,-0.06738281,-0.02636719,0.01660156,1,3,0,1,2,4,3,0.15,-0.1,0,-0.089,0,0,2,0,0,-0.089,0,36
46.445,0.001437,0.005859375,0.03320312,-0.03320312,2.335938,1.382812,4.5625,-0.00390625,0.005859375,-0.02148438,-0.06640625,-0.04492188,0.2675781,0.0111084,0.00769043,-0.08862305,0,0,0.0002441406,0.5689392,4.09,0,0,0,0.4799805,nan,4,12.343,1,0,0.3295288,0.7485962,0.5351868,0.6624146,-0.06738281,-0.02636719,0.01660156,1,3,0,1,2,4,3,0.15,-0.1,0,-0.089,0,0,3,0,0,-0.089,0,36
46.455,0.001536,-0.06054688,0.03320312,0.01953125,-2.460938,2.765625,8.476562,-0.01367188,-0.001953125,-0.00390625,-0.06835938,-0.04492188,0.2675781,0.01123047,0.007568359,-0.08886719,0,0,0.0002441406,0.5621338,4.09,0,0,0,0.4799805,nan,4,12.354,1,0,0.3874512,0.6791077,0.5802002,0.6018372,-0.06738281,-0.02734375,0.01660156,1,3,0,1,2,4,3,0.15,-0.1,0,-0.089,0,0,2,0,0,-0.089,0,36
46.465,0.001434,0.046875,-0.005859375,0.01757812,1.390625,-1.773438,12.55469,0.001953125,-0.001953125,0.0234375,-0.06640625,-0.04492188,0.2675781,0.01123047,0.007568359,-0.08862305,0,0,0.0002441406,0.5555115,4.09,0,0,0,0.4799805,nan,4,12.364,1,0,0.377533,0.6732483,0.5829773,0.5883484,-0.06738281,-0.02734375,0.01660156,1,3,0,1,2,4,3,0.15,-0.09,0,-0.089,0,0,2,0,0,-0.089,0,36
46.474,0.001112,-0.04101562,-0.01953125,0.00390625,0.4140625,4.460938,8.554688,-0.02148438,-0.005859375,0.0078125,-0.06640625,-0.04492188,0.265625,0.0111084,0.007446289,-0.08850098,0,0,0.0002441406,0.5497437,4.09,0,0,0,0.4799805,nan,4,12.372,1,0,0.348877,0.6922607,0.5412292,0.6166077,-0.06835938,-0.02734375,0.01660156,1,3,0.2857143,1,2,4,3,0.15,-0.09,0,-0.088,0,0,2,0,0,-0.088,0,36
46.484,0.001037,-0.01171875,0.001953125,0.015625,1.117188,2.429688,12.20312,0,0.00390625,0.0078125,-0.06640625,-0.04492188,0.265625,0.01123047,0.007446289,-0.08850098,0,0,0.0002441406,0.5432129,4.09,0,0,0,0.4799805,nan,4,12.382,1,0,0.3526001,0.6738281,0.555603,0.5907898,-0.06835938,-0.02734375,0.01660156,1,3,0,1,2,4,3,0.15,-0.09,0,-0.088,0,0,2,0,0,-0.088,0,36
46.495,0.001168,-0.03125,-0.00390625,-0.01367188,0.7734375,2.21875,7.9375,0.00390625,0.00390625,0.00390625,-0.06640625,-0.04492188,0.265625,0.01123047,0.007568359,-0.08825684,0,0,0.0002441406,0.5363464,4.09,0,0,0,0.4799805,nan,4,12.393,1,0,0.3250732,0.6879272,0.530365,0.6019592,-0.06835938,-0.02734375,0.01660156,1,3,0,1,2,4,3,0.15,-0.09,0,-0.088,0,0,4,0,0,-0.088,0,36
46.504,0.000971,-0.001953125,-0.01953125,-0.03515625,-2.914062,3.0625,12.65625,0,-0.009765625,-0.02929688,-0.06640625,-0.04492188,0.265625,0.01123047,0.007446289,-0.08850098,0,0,0.0002441406,0.5300293,4.09,0,0,0,0.4799805,nan,4,12.403,1,0,0.2943726,0.7080078,0.495636,0.6220398,-0.06835938,-0.02734375,0.01660156,1,3,0,1,2,4,3,0.15,-0.09,0,-0.088,0,0,1,0,0,-0.088,0,36
46.514,0.001413,0.009765625,0.01171875,-0.001953125,1.40625,-0.1015625,10.79688,0.00390625,0.00390625,-0.00390625,-0.06640625,-0.04492188,0.2675781,0.01123047,0.007446289,-0.08862305,0,0,0.0002441406,0.5236816,4.09,0,0,0,0.4799805,nan,4,12.412,1,0,0.3378906,0.6458435,0.5468445,0.5640869,-0.06835938,-0.02734375,0.01660156,1,3,0,1,2,4,3,0.15,-0.09,0,-0.089,0,0,3,0,0,-0.089,0,36
46.524,0.000998,0.0078125,0.01953125,-0.01953125,-1.273438,1.242188,1.96875,0.005859375,-0.005859375,-0.00390625,-0.06640625,-0.04492188,0.265625,0.01123047,0.007324219,-0.08850098,0,0,0.0002441406,0.5171204,4.09,0,0,0,0.4799805,nan,4,12.423,1,0,0.2983093,0.6750793,0.506012,0.5890808,-0.06835938,-0.02734375,0.01660156,1,3,0,1,2,4,3,0.15,-0.08,0,-0.089,0,0,2,0,0,-0.089,0,36
46.535,0.001016,0.03710938,0.0234375,0.001953125,-1.0625,-2.460938,8.125,0.001953125,-0.00390625,0.005859375,-0.06640625,-0.04296875,0.265625,0.0111084,0.007202148,-0.08850098,0,0,0.0002441406,0.5159302,4.09,0,0,0,0.4799805,nan,4,12.433,1,0,0.3161926,0.6542053,0.525238,0.5680237,-0.06835938,-0.02734375,0.01660156,1,3,0,1,2,4,3,0.15,-0.08,0,-0.089,0,0,2,0,0,-0.089,0,36
46.544,0.001036,-0.001953125,0.01953125,0.015625,-0.0859375,-5.328125,12.73438,0.01757812,0.03710938,0.01757812,-0.06835938,-0.04492188,0.265625,0.01135254,0.007568359,-0.08837891,0,0,0.0002441406,0.5223389,4.09,0,0,0,0.4799805,nan,4,12.443,1,0,0.3296509,0.6464233,0.5462036,0.5670776,-0.06835938,-0.02734375,0.01660156,1,3,0,1,2,4,3,0.15,-0.08,0,-0.088,0,0,4,0,0,-0.088,0,36
46.554,0.001093,-0.01367188,0.01171875,-0.02929688,0.046875,-1.65625,4.5625,-0.005859375,-0.0078125,-0.02929688,-0.06835938,-0.04492188,0.265625,0.01135254,0.007568359,-0.08850098,0,0,0.0002441406,0.5285645,4.09,0,0,0,0.4799805,nan,4,12.452,1,0,0.289978,0.7106934,0.4881897,0.6254578,-0.06835938,-0.02734375,0.01660156,1,3,0,1,2,4,3,0.15,-0.09,0,-0.088,0,0,1,0,0,-0.088,0,36
46.564,0.001007,-0.005859375,-0.001953125,0.03515625,-1.992188,4.664062,11.26562,-0.01367188,-0.00390625,0.01171875,-0.06640625,-0.04492188,0.2675781,0.01123047,0.007446289,-0.08862305,0,0,0.0002441406,0.5351562,4.09,0,0,0,0.4799805,nan,4,12.463,1,0,0.3797302,0.6308289,0.5813599,0.5487671,-0.06835938,-0.02734375,0.01660156,1,3,0,1,2,4,3,0.15,-0.09,0,-0.089,0,0,2,0,0,-0.089,0,36
46.575,0.000998,0.0390625,-0.009765625,0.005859375,0.1953125,2.007812,14.46875,-0.0078125,-0.01757812,0.009765625,-0.06640625,-0.04492188,0.265625,0.0111084,0.007324219,-0.08850098,0,0,0.0002441406,0.5421753,4.09,0,0,0,0.4799805,nan,4,12.473,1,0,0.3450317,0.6843872,0.5474854,0.5918274,-0.06835938,-0.02734375,0.01660156,1,3,0,1,2,4,3,0.15,-0.09,0,-0.088,0,0,4,0,0,-0.088,0,36
46.585,0.001031,-0.00390625,-0.03320312,0.03515625,3.359375,-0.90625,9.984375,-0.0078125,-0.015625,0.0234375,-0.06640625,-0.04492188,0.265625,0.0111084,0.007324219,-0.08837891,0,0,0.0002441406,0.5487061,4.09,0,0,0,0.4799805,nan,4,12.483,1,0,0.3831482,0.6607971,0.579895,0.5710449,-0.06835938,-0.02734375,0.01660156,1,3,0,1,2,4,3,0.15,-0.1,0,-0.088,0,0,3,0,0,-0.088,0,36
46.595,0.001036,0,-0.01367188,0.009765625,-1.46875,7.148438,6.03125,0,0.005859375,0.0078125,-0.06640625,-0.04492188,0.265625,0.0111084,0.007324219,-0.08813477,0,0,0.0002441406,0.5550232,4.09,0,0,0,0.4799805,nan,4,12.493,1,0,0.3471069,0.7016296,0.5535583,0.6177979,-0.06835938,-0.02734375,0.01660156,1,3,0.1269841,1,2,4,3,0.15,-0.1,0,-0.088,0,0,3,0,0,-0.088,0,36
46.605,0.000979,-0.02539062,-0.04492188,-0.046875,-0.453125,2.109375,12.71875,-0.005859375,-0.0078125,-0.03710938,-0.06640625,-0.04492188,0.265625,0.0111084,0.007446289,-0.08837891,0,0,0.0002441406,0.5615845,4.09,0,0,0,0.4799805,nan,4,12.503,1,0,0.3217468,0.7476807,0.5181885,0.6586914,-0.06835938,-0.02734375,0.01757812,1,3,0,1,2,4,3,0.15,-0.11,0,-0.088,0,0,3,0,0,-0.088,0,36
46.615,0.001035,-0.02929688,-0.009765625,0.00390625,3.578125,-1.234375,11.98438,-0.01367188,-0.005859375,-0.00390625,-0.06640625,-0.04492188,0.2675781,0.01098633,0.007446289,-0.08862305,0,0,0.0002441406,0.5683289,4.09,0,0,0,0.4799805,nan,4,12.514,1,0,0.3991699,0.678894,0.5983582,0.5968323,-0.06835938,-0.02734375,0.01757812,1,3,0,1,2,4,3,0.15,-0.11,0,-0.089,0,0,2,0,0,-0.089,0,36
46.625,0.001422,-0.03320312,-0.06054688,-0.001953125,1.5,1.828125,4.476562,-0.0078125,-0.0078125,-0.00390625,-0.06640625,-0.04492188,0.2675781,0.01098633,0.007446289,-0.08874512,0,0,0.0002441406,0.5746765,4.09,0,0,0,0.4799805,nan,4,12.523,1,0,0.3816528,0.7106323,0.5822449,0.624176,-0.06933594,-0.02734375,0.01757812,1,3,0,1,2,4,3,0.15,-0.11,0,-0.089,0,0,1,0,0,-0.089,0,36
46.635,0.0016,-0.03320312,0.00390625,0.00390625,-1.3125,4.273438,13.14062,-0.005859375,-0.001953125,0.00390625,-0.06640625,-0.04296875,0.2675781,0.01098633,0.007324219,-0.08874512,0,0,0.0002441406,0.5810852,4.09,0,0,0,0.4799805,nan,4,12.533,1,0,0.3899841,0.7114563,0.5947876,0.6281128,-0.06933594,-0.02734375,0.01757812,1,3,0,1,2,4,3,0.15,-0.11,0,-0.089,0,0,2,0,0,-0.089,0,36
46.645,0.001449,0,0.03515625,-0.03515625,0.7578125,-8.265625,7.101562,0,0.01367188,-0.00390625,-0.06445312,-0.04492188,0.2675781,0.01086426,0.007446289,-0.08862305,0,0,0.0002441406,0.5834045,4.09,0,0,0,0.4799805,nan,4,12.543,1,0,0.3564453,0.7477112,0.565918,0.6635132,-0.06933594,-0.02734375,0.01757812,1,3,0,1,2,4,3,0.15,-0.11,0,-0.089,0,0,2,0,0,-0.089,0,36
46.654,0.001176,-0.00390625,0.02929688,-0.005859375,-4.070312,1.398438,10.25781,-0.01171875,0.00390625,-0.02539062,-0.06445312,-0.04492188,0.2675781,0.01086426,0.007446289,-0.08886719,0,0,0.0002441406,0.5792236,4.09,0,0,0,0.4799805,nan,4,12.552,1,0,0.3665161,0.7295227,0.5704346,0.6503906,-0.06933594,-0.02734375,0.01757812,1,3,0,1,2,4,3,0.15,-0.11,0,-0.089,0,0,2,0,0,-0.089,0,36
46.665,0.001153,-0.01953125,0.04101562,0.02734375,-2.34375,0.984375,14.29688,0.009765625,0,0.015625,-0.06640625,-0.04492188,0.2675781,0.01098633,0.007324219,-0.08886719,0,0,0.0002441406,0.5732727,4.09,0,0,0,0.4799805,nan,4,12.563,1,0,0.4046021,0.6797791,0.6147461,0.5939636,-0.06933594,-0.02734375,0.01757812,1,3,0,1,2,4,3,0.15,-0.11,0,-0.089,0,0,3,0,0,-0.089,0,36
46.675,0.001501,0.02734375,0.001953125,-0.005859375,0.859375,-3.710938,4.445312,0.001953125,0.00390625,0.001953125,-0.06640625,-0.04492188,0.2675781,0.01098633,0.007446289,-0.08874512,0,0,0.0002441406,0.5667114,4.09,0,0,0,0.4799805,nan,4,12.573,1,0,0.3551941,0.7173767,0.5619202,0.6322937,-0.06933594,-0.02832031,0.01757812,1,3,0,1,2,4,3,0.15,-0.1,0,-0.089,0,0,3,0,0,-0.089,0,36
46.684,0.000977,0.0078125,-0.015625,0.009765625,-3.460938,0.25,13.78906,-0.001953125,0.00390625,0.005859375,-0.06640625,-0.04492188,0.2675781,0.01098633,0.007568359,-0.08874512,0,0,0.0002441406,0.5607605,4.09,0,0,0,0.4799805,nan,4,12.583,1,0,0.3668823,0.6949158,0.5716553,0.6095581,-0.06933594,-0.02832031,0.01757812,1,3,0,1,2,4,3,0.15,-0.1,0,-0.089,0,0,2,0,0,-0.089,0,36
46.694,0.001211,-0.0703125,0.03710938,0.01171875,1.523438,-10.48438,5.515625,-0.01171875,0.005859375,0.01171875,-0.06640625,-0.04492188,0.2675781,0.01098633,0.007568359,-0.08862305,0,0,0.0002441406,0.5540771,4.09,0,0,0,0.4799805,nan,4,12.593,1,0,0.366333,0.6785889,0.567749,0.6036682,-0.06933594,-0.02832031,0.01757812,1,3,0,1,2,4,3,0.15,-0.1,0,-0.089,0,0,4,0,0,-0.089,0,36
46.705,0.001028,0.009765625,-0.0234375,-0.02734375,0.0625,0.015625,5.054688,-0.015625,-0.005859375,-0.03125,-0.06640625,-0.04492188,0.2675781,0.0111084,0.007568359,-0.08874512,0,0,0.0002441406,0.5473022,4.09,0,0,0,0.4799805,nan,4,12.603,1,0,0.3190308,0.7170105,0.5152588,0.6379395,-0.06933594,-0.02832031,0.01757812,1,3,0,1,2,4,3,0.15,-0.09,0,-0.089,0,0,4,0,0,-0.089,0,36
46.714,0.001163,-0.07226562,0.02539062,0.0390625,2.015625,-3.679688,13.05469,-0.00390625,0.001953125,0.01171875,-0.06640625,-0.04492188,0.2675781,0.0111084,0.007568359,-0.08886719,0,0,0.0002441406,0.5411072,4.09,0,0,0,0.4799805,nan,4,12.613,1,0,0.380127,0.6410217,0.5819702,0.5613098,-0.06933594,-0.02832031,0.01757812,1,3,0,1,2,4,3,0.15,-0.08,0,-0.089,0,0,2,0,0,-0.089,0,36
46.725,0.000992,0.0390625,0.04101562,0.009765625,2.648438,-2.757812,8.023438,0.01171875,-0.00390625,0.0234375,-0.06640625,-0.04492188,0.265625,0.0111084,0.007446289,-0.08862305,0,0,0.0002441406,0.5344238,4.09,0,0,0,0.4799805,nan,4,12.623,1,0,0.3383179,0.666626,0.5540771,0.5786133,-0.06933594,-0.02832031,0.01757812,1,3,0,1,2,4,3,0.15,-0.08,0,-0.089,0,0,2,0,0,-0.089,0,36
46.735,0.001001,-0.01953125,0.001953125,-0.005859375,-1.554688,1.242188,9.578125,0.00390625,0.0078125,-0.00390625,-0.06835938,-0.04492188,0.265625,0.01135254,0.007568359,-0.08850098,0,0,0.0002441406,0.5276794,4.09,0,0,0,0.4799805,nan,4,12.633,1,0,0.3121948,0.6792603,0.5184326,0.600769,-0.06933594,-0.02832031,0.01757812,1,3,0.5873016,1,2,4,3,0.15,-0.08,0,-0.089,0,0,3,0,0,-0.089,0,36
46.745,0.001029,0.015625,-0.01171875,-0.009765625,0.875,0.3984375,14.79688,0.0078125,-0.001953125,0.00390625,-0.06835938,-0.04492188,0.265625,0.01135254,0.007568359,-0.08850098,0,0,0.0002441406,0.5217896,4.09,0,0,0,0.4799805,nan,4,12.643,1,0,0.3212891,0.6618652,0.5324402,0.5715942,-0.06933594,-0.02832031,0.01757812,1,3,0,1,2,4,3,0.15,-0.08,0,-0.089,0,0,4,0,0,-0.089,0,36
46.754,0.001029,0.0234375,-0.001953125,-0.04492188,2.226562,2.304688,5.984375,0.00390625,-0.001953125,-0.03125,-0.06835938,-0.04492188,0.2675781,0.01135254,0.007446289,-0.08874512,0,0,0.0002441406,0.5156555,4.09,0,0,0,0.4799805,nan,4,12.653,1,0,0.2730103,0.6964111,0.4850159,0.6081543,-0.06933594,-0.02832031,0.01757812,1,3,0,1,2,4,3,0.15,-0.08,0,-0.089,0,0,2,0,0,-0.089,0,36
46.764,0.001145,-0.00390625,-0.05859375,0.02929688,-0.140625,4.773438,12.0625,0,-0.01757812,0,-0.06835938,-0.04492188,0.2675781,0.01135254,0.007446289,-0.08898926,0,0,0.0002441406,0.5091248,4.09,0,0,0,0.4799805,nan,4,12.663,1,0,0.357605,0.6065979,0.558136,0.5140686,-0.0703125,-0.02832031,0.01757812,1,3,0,1,2,4,3,0.15,-0.07,0,-0.089,0,0,2,0,0,-0.089,0,36
46.774,0.000979,0.015625,0.02148438,0.0078125,2.75,-3.515625,10.03125,-0.009765625,-0.01171875,0.01171875,-0.06640625,-0.04492188,0.2675781,0.0111084,0.007324219,-0.08886719,0,0,0.0002441406,0.5044556,4.09,0,0,0,0.4799805,nan,4,12.672,1,0,0.3134766,0.6333313,0.5263367,0.5446777,-0.0703125,-0.02832031,0.01757812,1,3,0,1,2,4,3,0.15,-0.07,0,-0.089,0,0,3,0,0,-0.089,0,36
46.785,0.00102,0.04492188,0.01757812,0.001953125,1.140625,-1.664062,5.882812,0.01953125,0.02539062,-0.001953125,-0.06640625,-0.04492188,0.2675781,0.0111084,0.007568359,-0.08886719,0,0,0.0002441406,0.511261,4.09,0,0,0,0.4799805,nan,4,12.683,1,0,0.307251,0.6473389,0.5333557,0.5571289,-0.0703125,-0.02832031,0.01757812,1,3,0,1,2,4,3,0.15,-0.08,0,-0.089,0,0,2,0,0,-0.089,0,36
46.795,0.001045,-0.009765625,-0.0546875,0.01367188,-3.515625,2.351562,4.648438,-0.0078125,-0.03710938,0.00390625,-0.06835938,-0.04492188,0.2675781,0.01123047,0.007568359,-0.08898926,0,0,0.0002441406,0.5180969,4.09,0,0,0,0.4799805,nan,4,12.693,1,0,0.3391418,0.6520996,0.525116,0.5560303,-0.0703125,-0.02832031,0.01757812,1,3,0,1,2,4,3,0.15,-0.09,0,-0.089,0,0,2,0,0,-0.089,0,36
46.805,0.000991,0.046875,-0.001953125,-0.00390625,-4.046875,-2.046875,13.16406,-0.00390625,-0.01953125,-0.00390625,-0.06640625,-0.04296875,0.2675781,0.0111084,0.007202148,-0.08898926,0,0,0.0002441406,0.5245667,4.09,0,0,0,0.4799805,nan,4,12.703,1,0,0.3123169,0.673645,0.526886,0.5853882,-0.0703125,-0.02832031,0.01757812,1,3,0,1,2,4,3,0.15,-0.09,0,-0.089,0,0,2,0,0,-0.089,0,36
46.814,0.001625,-0.03125,0.01953125,0.02148438,-0.640625,-7.398438,2.25,0.01171875,0.0234375,0.005859375,-0.06835938,-0.04492188,0.2675781,0.01123047,0.007324219,-0.08898926,0,0,0.0002441406,0.5305786,4.09,0,0,0,0.4799805,nan,4,12.712,1,0,0.3341675,0.6559753,0.5566711,0.5755615,-0.0703125,-0.02832031,0.01757812,1,3,0,1,2,4,3,0.15,-0.1,0,-0.089,0,0,3,0,0,-0.089,0,36
46.824,0.001174,-0.0546875,-0.04296875,-0.01757812,0.2109375,1.203125,4.257812,-0.03320312,-0.0078125,-0.01757812,-0.06835938,-0.04492188,0.2675781,0.01123047,0.007568359,-0.08898926,0,0,0.0002441406,0.5373535,4.09,0,0,0,0.4799805,nan,4,12.723,1,0,0.3268738,0.6946411,0.5140686,0.6138306,-0.0703125,-0.02832031,0.01757812,1,3,0,1,2,4,3,0.15,-0.11,0,-0.089,0,0,3,0,0,-0.089,0,36
46.835,0.001226,-0.01171875,-0.01171875,0.05664062,-1.257812,5.3125,13.6875,0.005859375,-0.0078125,0.03125,-0.06640625,-0.04492188,0.2675781,0.01123047,0.007446289,-0.08898926,0,0,0.0002441406,0.5439148,4.09,0,0,0,0.4799805,nan,4,12.733,1,0,0.3921814,0.6351929,0.6048584,0.5433655,-0.0703125,-0.02832031,0.01757812,1,3,0,1,2,4,3,0.15,-0.12,0,-0.089,0,0,2,0,0,-0.089,0,36
46.844,0.001226,-0.02929688,0,0.009765625,1.78125,-3.273438,6.46875,0.00390625,0.005859375,0.02148438,-0.06835938,-0.04492188,0.2675781,0.01135254,0.007446289,-0.08862305,0,0,0.0002441406,0.5501404,4.09,0,0,0,0.4799805,nan,4,12.743,1,0,0.3447571,0.6908264,0.5571289,0.6077881,-0.0703125,-0.02832031,0.01757812,1,3,0,1,2,4,3,0.15,-0.12,0,-0.089,0,0,2,0,0,-0.089,0,36
46.855,0.00106,0.015625,-0.01171875,0,1.882812,1.664062,6.890625,-0.0078125,-0.015625,0.005859375,-0.06640625,-0.04492188,0.265625,0.01123047,0.007324219,-0.08850098,0,0,0.0002441406,0.5482788,4.09,0,0,0,0.4799805,nan,4,12.753,1,0,0.3338013,0.7026978,0.5428467,0.6138306,-0.0703125,-0.02832031,0.01757812,1,3,0,1,2,4,3,0.15,-0.12,0,-0.089,0,0,3,0,0,-0.089,0,36
46.864,0.001474,-0.005859375,0.015625,0.02539062,-0.765625,2.820312,13.63281,0.009765625,0.02148438,0.01757812,-0.06835938,-0.04492188,0.265625,0.01123047,0.007446289,-0.08837891,0,0,0.0002441406,0.5545959,4.09,0,0,0,0.4799805,nan,4,12.763,1,0,0.3618469,0.6771545,0.5843811,0.5949707,-0.0703125,-0.02832031,0.01757812,1,3,0,1,2,4,3,0.15,-0.12,0,-0.088,0,0,2,0,0,-0.088,0,36
46.875,0.001371,-0.02734375,-0.05273438,-0.015625,3.101562,-0.796875,10.14844,-0.01171875,-0.015625,-0.0078125,-0.06835938,-0.04492188,0.265625,0.01135254,0.007568359,-0.08837891,0,0,0.0002441406,0.5569458,4.09,0,0,0,0.4799805,nan,4,12.773,1,0,0.3324585,0.7276917,0.528656,0.6389771,-0.0703125,-0.02832031,0.01757812,1,3,0,1,2,4,3,0.15,-0.12,0,-0.088,0,0,4,0,0,-0.088,0,36
46.884,0.001214,-0.01953125,-0.01171875,0.0390625,-2.515625,5.085938,11.78906,-0.00390625,-0.0078125,0.015625,-0.06640625,-0.04492188,0.265625,0.01123047,0.007324219,-0.08837891,0,0,0.0002441406,0.5548706,4.09,0,0,0,0.4799805,nan,4,12.782,1,0,0.37677,0.6699829,0.5891418,0.5836182,-0.0703125,-0.02832031,0.01757812,1,3,0,1,2,4,3,0.15,-0.12,0,-0.088,0,0,4,0,0,-0.088,0,36
46.895,0.001215,-0.005859375,0,0.005859375,0.390625,3.15625,16.39062,0.01171875,0.015625,0.02148438,-0.06835938,-0.04492188,0.265625,0.01135254,0.007446289,-0.0880127,0,0,0.0002441406,0.5489197,4.09,0,0,0,0.4799805,nan,4,12.793,1,0,0.3422546,0.688446,0.5607605,0.6042786,-0.0703125,-0.02929688,0.01757812,1,3,0,1,2,4,3,0.15,-0.12,0,-0.088,0,0,2,0,0,-0.088,0,36
46.904,0.00114,-0.03125,0.009765625,-0.01953125,-0.2421875,3.171875,7.601562,-0.009765625,-0.0078125,-0.01171875,-0.06835938,-0.04492188,0.265625,0.01123047,0.007324219,-0.0880127,0,0,0.0002441406,0.5431824,4.09,0,0,0,0.4799805,nan,4,12.803,1,0,0.3102417,0.7138062,0.5186462,0.6299744,-0.0703125,-0.02929688,0.01757812,1,3,0,1,2,4,3,0.15,-0.12,0,-0.088,0,0,2,0,0,-0.088,0,36
46.915,0.000979,0.02539062,0.0078125,0.02929688,-0.9609375,3.546875,10.9375,0.015625,0.01171875,0.01171875,-0.06835938,-0.04492188,0.265625,0.01135254,0.007324219,-0.0880127,0,0,0.0002441406,0.5361328,4.09,0,0,0,0.4799805,nan,4,12.813,1,0,0.3517761,0.6520691,0.5760498,0.5646057,-0.07128906,-0.02929688,0.01757812,1,3,0,1,2,4,3,0.15,-0.11,0,-0.088,0,0,1,0,0,-0.088,0,36
46.925,0.001326,0.01757812,-0.01367188,-0.04492188,1.289062,-6.335938,12.13281,0.015625,0.001953125,-0.01171875,-0.06835938,-0.04492188,0.2636719,0.01147461,0.007446289,-0.08789062,0,0,0.0002441406,0.5297241,4.09,0,0,0,0.4799805,nan,4,12.823,1,0,0.2902222,0.708252,0.504364,0.6160889,-0.07128906,-0.02929688,0.01757812,1,3,0,1,2,4,3,0.15,-0.1,0,-0.088,0,0,3,0,0,-0.088,0,36
46.934,0.000983,-0.01757812,-0.01367188,0.0078125,-1.640625,0.375,7.65625,-0.01367188,-0.015625,-0.01367188,-0.06835938,-0.04492188,0.265625,0.01135254,0.007446289,-0.08813477,0,0,0.0002441406,0.5237427,4.09,0,0,0,0.4799805,nan,4,12.832,1,0,0.32901,0.6601257,0.5341187,0.5716553,-0.07128906,-0.02929688,0.01757812,1,3,0,1,2,4,3,0.15,-0.09,0,-0.088,0,0,2,0,0,-0.088,0,36
46.945,0.001314,0.0078125,0.01367188,0.03125,-0.4765625,1.976562,11.40625,0.00390625,0.00390625,0.02539062,-0.06835938,-0.04296875,0.265625,0.01135254,0.007324219,-0.0880127,0,0,0.0002441406,0.5163879,4.09,0,0,0,0.4799805,nan,4,12.843,1,0,0.3447876,0.621521,0.5643616,0.5349121,-0.07128906,-0.02929688,0.01757812,1,3,0,1,2,4,3,0.15,-0.08,0,-0.088,0,0,2,0,0,-0.088,0,36
46.955,0.00108,-0.009765625,0,0.001953125,3.492188,-4.726562,12.69531,0,0.001953125,0.005859375,-0.06835938,-0.04492188,0.2636719,0.01135254,0.007324219,-0.08789062,0,0,0.0002441406,0.5101013,4.09,0,0,0,0.4799805,nan,4,12.853,1,0,0.301178,0.6549072,0.5153809,0.5689697,-0.07128906,-0.02929688,0.01757812,1,3,0,1,2,4,3,0.15,-0.08,0,-0.088,0,0,1,0,0,-0.088,0,36
46.964,0.000996,0.03125,0.0078125,0.0234375,2.679688,-2.148438,7.4375,0.005859375,0.001953125,0.01171875,-0.06835938,-0.04492188,0.2636719,0.01135254,0.007324219,-0.08789062,0,0,0.0002441406,0.5080261,4.09,0,0,0,0.4799805,nan,4,12.863,1,0,0.321106,0.630188,0.5393982,0.5414124,-0.07128906,-0.02929688,0.01757812,1,3,0,1,2,4,3,0.15,-0.07,0,-0.088,0,0,3,0,0,-0.088,0,36
46.974,0.001005,0.03320312,0.03320312,-0.01171875,1.578125,0.5078125,15.71094,0.01757812,0.005859375,0.01367188,-0.06835938,-0.04492188,0.2636719,0.01147461,0.007446289,-0.08776855,0,0,0.0002441406,0.5143127,4.09,0,0,0,0.4799805,nan,4,12.873,1,0,0.3023376,0.6607361,0.5241394,0.5700073,-0.07128906,-0.02929688,0.01855469,1,3,0,1,2,4,3,0.15,-0.07,0,-0.088,0,0,3,0,0,-0.088,0,36
46.985,0.000996,-0.03320312,-0.03125,-0.001953125,2.125,-0.328125,9.609375,-0.01757812,-0.02734375,-0.009765625,-0.06835938,-0.04492188,0.2636719,0.01147461,0.007324219,-0.08776855,0,0,0.0002441406,0.5211792,4.09,0,0,0,0.4799805,nan,4,12.883,1,0,0.3117981,0.6741943,0.5133057,0.5854797,-0.07128906,-0.02929688,0.01855469,1,3,0.04761905,1,2,4,3,0.15,-0.07,0,-0.088,0,0,2,0,0,-0.088,0,36
46.994,0.000968,-0.005859375,0.01953125,0.046875,0.5625,-1.390625,4.546875,-0.01367188,-0.01953125,0.03710938,-0.06640625,-0.04296875,0.2636719,0.01123047,0.007080078,-0.08764648,0,0,0.0002441406,0.5275574,4.09,0,0,0,0.4799805,nan,4,12.893,1,0,0.3705139,0.6213989,0.5845337,0.5337219,-0.07128906,-0.02929688,0.01855469,1,3,0,1,2,4,3,0.15,-0.07,0,-0.088,0,0,3,0,0,-0.088,0,36
47.005,0.000983,-0.03320312,-0.009765625,-0.0234375,-3.117188,4.851562,11.96094,-0.0234375,-0.015625,0.001953125,-0.06640625,-0.04101562,0.2636719,0.0111084,0.006958008,-0.08740234,0,0,0.0002441406,0.5342407,4.09,0,0,0,0.4799805,nan,4,12.903,1,0,0.3014526,0.7052917,0.5076599,0.6225281,-0.07128906,-0.02929688,0.01855469,1,3,0,1,2,4,3,0.15,-0.07,0,-0.087,0,0,2,0,0,-0.087,0,36
47.015,0.001705,-0.04492188,0.02734375,-0.0078125,-1.523438,2.53125,13.29688,-0.01171875,0.01367188,-0.01367188,-0.06640625,-0.04101562,0.2636719,0.0111084,0.006958008,-0.08764648,0,0,0.0002441406,0.5384521,4.09,0,0,0,0.4799805,nan,4,12.914,1,0,0.3182678,0.6895752,0.5343323,0.6115723,-0.07128906,-0.02929688,0.01855469,1,3,0,1,2,4,3,0.15,-0.06,0,-0.088,0,0,3,0,0,-0.088,0,36
47.024,0.001012,-0.03320312,0.03515625,-0.001953125,-0.46875,-0.5390625,5.15625,-0.015625,0.02929688,0.01367188,-0.06640625,-0.04296875,0.2636719,0.01098633,0.007202148,-0.08752441,0,0,0.0002441406,0.5430298,4.09,0,0,0,0.4799805,nan,4,12.923,1,0,0.3514709,0.6635742,0.5690002,0.5881042,-0.07128906,-0.02929688,0.01855469,1,3,0,1,2,4,3,0.15,-0.07,0,-0.088,0,0,4,0,0,-0.088,0,36
47.035,0.000975,-0.03125,-0.01757812,0.005859375,-3.914062,-0.546875,6.03125,0,-0.01171875,0.0078125,-0.06640625,-0.04296875,0.2636719,0.01098633,0.007202148,-0.08740234,0,0,0.0002441406,0.5498047,4.09,0,0,0,0.4799805,nan,4,12.933,1,0,0.3542175,0.6890869,0.5601501,0.5957947,-0.07128906,-0.02929688,0.01855469,1,3,0,1,2,4,3,0.15,-0.08,0,-0.087,0,0,4,0,0,-0.087,0,36
47.044,0.001005,-0.0234375,0.04492188,-0.0078125,-1.835938,-0.9140625,14.34375,-0.0078125,0.015625,0,-0.06445312,-0.04296875,0.2636719,0.01086426,0.007202148,-0.08740234,0,0,0.0002441406,0.5559387,4.09,0,0,0,0.4799805,nan,4,12.943,1,0,0.3433533,0.6971741,0.5638733,0.6193237,-0.07128906,-0.02929688,0.01855469,1,3,0,1,2,4,3,0.15,-0.1,0,-0.087,0,0,3,0,0,-0.087,0,36
47.054,0.001533,0,0.02148438,-0.01953125,-1.5,-1.882812,4.5,-0.009765625,0.00390625,-0.01367188,-0.06445312,-0.04296875,0.2636719,0.01086426,0.007324219,-0.08752441,0,0,0.0002441406,0.5623169,4.09,0,0,0,0.4799805,nan,4,12.953,1,0,0.3444824,0.714447,0.558075,0.6322937,-0.07128906,-0.02929688,0.01855469,1,3,0,1,2,4,3,0.15,-0.11,0,-0.088,0,0,2,0,0,-0.088,0,36
47.065,0.001413,0.005859375,0.0546875,0.015625,-0.9609375,1.773438,9.382812,-0.001953125,0.009765625,0.01171875,-0.06445312,-0.04296875,0.2636719,0.01086426,0.007324219,-0.08752441,0,0,0.0002441406,0.5691528,4.09,0,0,0,0.4799805,nan,4,12.963,1,0,0.3800964,0.6915588,0.5979614,0.6070251,-0.07226562,-0.02929688,0.01855469,1,3,0.4920635,1,2,4,3,0.15,-0.12,0,-0.088,0,0,2,0,0,-0.088,0,36
47.074,0.001033,0.01171875,-0.02929688,0.02148438,-0.5859375,-5.90625,11.26562,0.001953125,-0.009765625,0.01953125,-0.06445312,-0.04296875,0.2636719,0.01086426,0.007202148,-0.08728027,0,0,0.0002441406,0.5707092,4.09,0,0,0,0.4799805,nan,4,12.973,1,0,0.3788147,0.7018738,0.5927124,0.6094971,-0.07226562,-0.02929688,0.01855469,1,3,0,1,2,4,3,0.15,-0.13,0,-0.087,0,0,2,0,0,-0.087,0,36
47.085,0.000983,0.03710938,-0.0078125,-0.009765625,3.828125,-3.007812,6.539062,0.00390625,0.005859375,-0.00390625,-0.06445312,-0.04492188,0.2636719,0.01086426,0.007324219,-0.08728027,0,0,0.0002441406,0.5706482,4.09,0,0,0,0.4799805,nan,4,12.983,1,0,0.3528137,0.7231445,0.5721436,0.634491,-0.07226562,-0.02929688,0.01855469,1,3,0,1,2,4,3,0.15,-0.13,0,-0.087,0,0,4,0,0,-0.087,0,36
47.095,0.001408,-0.03710938,-0.04492188,-0.001953125,-0.7890625,5.359375,9.570312,-0.01367188,-0.009765625,0,-0.06445312,-0.04492188,0.2636719,0.01086426,0.007446289,-0.08728027,0,0,0.0002441406,0.5679626,4.09,0,0,0,0.4799805,nan,4,12.993,1,0,0.3726807,0.7062073,0.57547,0.6175537,-0.07226562,-0.02929688,0.01855469,1,3,0,1,2,4,3,0.15,-0.13,0,-0.087,0,0,4,0,0,-0.087,0,36
47.104,0.001017,-0.005859375,0.04296875,0.005859375,1.460938,1.242188,14.17969,-0.00390625,0.005859375,-0.009765625,-0.06445312,-0.04492188,0.2636719,0.01086426,0.007324219,-0.08740234,0,0,0.0002441406,0.5617371,4.09,0,0,0,0.4799805,nan,4,13.003,1,0,0.3597412,0.6937256,0.581665,0.6118469,-0.07226562,-0.02929688,0.01855469,1,3,0,1,2,4,3,0.15,-0.13,0,-0.087,0,0,1,0,0,-0.087,0,36
47.115,0.000967,-0.04492188,-0.02929688,0.01367188,2.03125,-1.476562,5.414062,-0.01171875,-0.001953125,0.009765625,-0.06445312,-0.04492188,0.2636719,0.01086426,0.007324219,-0.08740234,0,0,0.0002441406,0.5550232,4.09,0,0,0,0.4799805,nan,4,13.013,1,0,0.3716736,0.6742249,0.5810242,0.5932312,-0.07226562,-0.03027344,0.01855469,1,3,0,1,2,4,3,0.15,-0.13,0,-0.087,0,0,2,0,0,-0.087,0,36
47.124,0.0009869999,0.02734375,0.009765625,0.009765625,-1.679688,4.101562,15.16406,-0.001953125,-0.0078125,0.005859375,-0.06445312,-0.04296875,0.2636719,0.01074219,0.007202148,-0.08740234,0,0,0.0002441406,0.5608826,4.09,0,0,0,0.4799805,nan,4,13.023,1,0,0.3535156,0.7026062,0.5744324,0.6129761,-0.07226562,-0.03027344,0.01855469,1,3,0,1,2,4,3,0.15,-0.13,0,-0.087,0,0,2,0,0,-0.087,0,36
47.134,0.001189,0.0078125,0.001953125,-0.02929688,1.1875,0.1953125,6.015625,0.015625,0.001953125,-0.02148438,-0.06445312,-0.04296875,0.2636719,0.01086426,0.007324219,-0.08752441,0,0,0.0002441406,0.5637207,4.09,0,0,0,0.4799805,nan,4,13.033,1,0,0.3280029,0.7339783,0.5481262,0.6447754,-0.07226562,-0.03027344,0.01855469,1,3,0,1,2,4,3,0.15,-0.13,0,-0.087,0,0,4,0,0,-0.087,0,36
47.144,0.001032,-0.06445312,-0.03320312,0.01171875,-2.578125,6.75,10.58594,-0.0078125,-0.005859375,0.005859375,-0.06640625,-0.04492188,0.2636719,0.01098633,0.007324219,-0.08752441,0,0,0.0002441406,0.5572205,4.09,0,0,0,0.4799805,nan,4,13.043,1,0,0.3733521,0.682251,0.5775757,0.5956726,-0.07226562,-0.03027344,0.01855469,1,3,0,1,2,4,3,0.15,-0.11,0,-0.088,0,0,4,0,0,-0.088,0,36
47.154,0.000974,0.03125,-0.01953125,-0.0390625,-1.171875,0.140625,12.44531,0.00390625,-0.005859375,-0.02148438,-0.06445312,-0.04296875,0.2636719,0.01086426,0.007202148,-0.08752441,0,0,0.0002441406,0.5505676,4.09,0,0,0,0.4799805,nan,4,13.053,1,0,0.3040161,0.7330627,0.5249329,0.6401978,-0.07226562,-0.03027344,0.01855469,1,3,0,1,2,4,3,0.15,-0.1,0,-0.088,0,0,2,0,0,-0.088,0,36
47.164,0.000972,0.009765625,-0.01757812,-0.001953125,1.65625,0.2890625,6.070312,0.01171875,0.01367188,-0.009765625,-0.06445312,-0.04492188,0.2636719,0.01086426,0.007324219,-0.08764648,0,0,0.0002441406,0.5440063,4.09,0,0,0,0.4799805,nan,4,13.063,1,0,0.3379211,0.6832886,0.5618896,0.5929565,-0.07226562,-0.03027344,0.01855469,1,3,0,1,2,4,3,0.15,-0.08,0,-0.088,0,0,1,0,0,-0.088,0,36
47.174,0.000979,-0.05664062,-0.03320312,0.03320312,-3.21875,8.03125,11.55469,-0.01367188,-0.01367188,0.01953125,-0.06445312,-0.04492188,0.2636719,0.01086426,0.007324219,-0.08764648,0,0,0.0002441406,0.5372925,4.09,0,0,0,0.4799805,nan,4,13.073,1,0,0.368103,0.6491699,0.5713806,0.5605469,-0.07226562,-0.03027344,0.01855469,1,3,0,1,2,4,3,0.15,-0.07,0,-0.088,0,0,2,0,0,-0.088,0,36
47.185,0.001165,-0.01757812,0.001953125,-0.01953125,4.671875,1.726562,12.53906,0.01171875,0.01757812,-0.0078125,-0.06445312,-0.04492188,0.2636719,0.01086426,0.007446289,-0.08752441,0,0,0.0002441406,0.5306702,4.09,0,0,0,0.4799805,nan,4,13.083,1,0,0.2872009,0.7011414,0.5161743,0.6181641,-0.07226562,-0.03027344,0.01855469,1,3,0,1,2,4,3,0.15,-0.05,0,-0.087,0,0,4,0,0,-0.087,0,36
47.194,0.001015,-0.0078125,-0.02148438,0.01171875,-1.359375,-0.171875,5,0.001953125,0.001953125,0.00390625,-0.06640625,-0.04492188,0.2636719,0.01098633,0.007446289,-0.08752441,0,0,0.0002441406,0.5243225,4.09,0,0,0,0.4799805,nan,4,13.093,1,0,0.331604,0.6528015,0.5462036,0.5667114,-0.07226562,-0.03027344,0.01855469,1,3,0,1,2,4,3,0.15,-0.04,0,-0.088,0,0,3,0,0,-0.088,0,36
47.205,0.001015,-0.01367188,-0.03125,0.0078125,-3.679688,2.773438,14.36719,-0.0234375,-0.0234375,0.01953125,-0.06445312,-0.04492188,0.2636719,0.01086426,0.007324219,-0.08740234,0,0,0.0002441406,0.5177307,4.09,0,0,0,0.4799805,nan,4,13.103,1,0,0.3327026,0.6437683,0.5390625,0.5553284,-0.07226562,-0.03027344,0.01855469,1,3,0,1,2,4,3,0.15,-0.03,0,-0.087,0,0,2,0,0,-0.087,0,36
47.214,0.001251,0.0546875,0.005859375,0.009765625,0.2578125,-3.179688,6.421875,0.02539062,0.01171875,0.005859375,-0.06445312,-0.04296875,0.2636719,0.01086426,0.007324219,-0.08728027,0,0,0.0002441406,0.5113831,4.09,0,0,0,0.4799805,nan,4,13.113,1,0,0.2953186,0.6564941,0.5307312,0.5629578,-0.07324219,-0.03027344,0.01855469,1,3,0,1,2,4,3,0.15,-0.03,0,-0.087,0,0,2,0,0,-0.087,0,36
47.225,0.001346,0.0078125,-0.009765625,0.03320312,-1.460938,0.359375,6.375,-0.00390625,-0.01367188,0.02148438,-0.06640625,-0.04492188,0.2617188,0.01098633,0.007324219,-0.08728027,0,0,0.0002441406,0.5096436,4.09,0,0,0,0.4799805,nan,4,13.123,1,0,0.3310242,0.628479,0.5415955,0.5374756,-0.07324219,-0.03027344,0.01855469,1,3,0,1,2,4,3,0.15,-0.02,0,-0.087,0,0,2,0,0,-0.087,0,36
47.234,0.000994,-0.01171875,0.005859375,-0.01171875,1.046875,-1.9375,14.76562,-0.01757812,-0.0078125,0.01757812,-0.06445312,-0.04296875,0.2617188,0.01086426,0.007202148,-0.08703613,0,0,0.0002441406,0.515625,4.09,0,0,0,0.4799805,nan,4,13.133,1,0,0.3030396,0.6628418,0.5185242,0.5781555,-0.07324219,-0.03027344,0.01855469,1,3,0,1,2,4,3,0.15,-0.02,0,-0.087,0,0,2,0,0,-0.087,0,36
47.244,0.001645,-0.0078125,0.00390625,0.0234375,3.773438,-3.414062,10.4375,0,0.02148438,0.00390625,-0.06445312,-0.04492188,0.2617188,0.01074219,0.007446289,-0.08703613,0,0,0.0002441406,0.5139771,4.09,0,0,0,0.4799805,nan,4,13.143,1,0,0.3027039,0.6530762,0.5306091,0.569519,-0.07324219,-0.03027344,0.01855469,1,3,0,1,2,4,3,0.15,-0.02,0,-0.087,0,0,2,0,0,-0.087,0,36
47.254,0.001264,-0.05664062,-0.05078125,0.03515625,-1.390625,2.53125,7.234375,-0.04101562,-0.01953125,0.03515625,-0.0625,-0.04492188,0.2617188,0.01062012,0.007446289,-0.08679199,0,0,0.0002441406,0.5085144,4.09,0,0,0,0.4799805,nan,4,13.152,1,0,0.3459778,0.6157227,0.5413208,0.5309753,-0.07324219,-0.03027344,0.01855469,1,3,0,1,2,4,3,0.15,-0.02,0,-0.087,0,0,3,0,0,-0.087,0,36
47.264,0.00119,0.0234375,0.01757812,0.001953125,0.5390625,1.804688,16.04688,0.01367188,0.00390625,0.01171875,-0.0625,-0.04492188,0.2597656,0.01062012,0.007324219,-0.08654785,0,0,0.0002441406,0.5119324,4.09,0,0,0,0.4799805,nan,4,13.163,1,0,0.2921143,0.662323,0.5218506,0.5714417,-0.07324219,-0.03027344,0.01855469,1,3,0,1,2,4,3,0.15,-0.03,0,-0.087,0,0,3,0,0,-0.087,0,36
47.275,0.001033,-0.0234375,-0.01757812,0.005859375,2.21875,-1.546875,13.71094,-0.005859375,-0.0078125,0.00390625,-0.06445312,-0.04492188,0.2597656,0.01074219,0.007446289,-0.08654785,0,0,0.0002441406,0.5186462,4.09,0,0,0,0.4799805,nan,4,13.173,1,0,0.3139954,0.662262,0.5222778,0.5760193,-0.07324219,-0.03027344,0.01855469,1,3,0,1,2,4,3,0.15,-0.04,0,-0.087,0,0,3,0,0,-0.087,0,36
47.285,0.000995,0.03125,-0.02929688,0.02929688,2.710938,0.875,4.640625,-0.009765625,-0.02929688,0.0234375,-0.0625,-0.04296875,0.2597656,0.01049805,0.007080078,-0.08630371,0,0,0.0002441406,0.5251465,4.09,0,0,0,0.4799805,nan,4,13.183,1,0,0.3345947,0.6528931,0.5540771,0.5589905,-0.07324219,-0.03027344,0.01855469,1,3,0,1,2,4,3,0.15,-0.05,0,-0.086,0,0,3,0,0,-0.086,0,36
47.295,0.00099,0.03125,0.08789062,-0.00390625,-2.75,6.023438,10.10156,0.015625,0.04296875,0.01171875,-0.06445312,-0.04296875,0.2597656,0.01062012,0.007202148,-0.08618164,0,0,0.0002441406,0.5321655,4.09,0,0,0,0.4799805,nan,4,13.194,1,0,0.3114929,0.6687927,0.552948,0.5953674,-0.07324219,-0.03027344,0.01855469,1,3,0,1,2,4,3,0.15,-0.07,0,-0.086,0,0,2,0,0,-0.086,0,36
47.304,0.001157,0.005859375,0.02539062,-0.02148438,-3.421875,0.6171875,14.625,-0.0234375,0.001953125,-0.00390625,-0.0625,-0.04492188,0.2597656,0.01062012,0.007324219,-0.08605957,0,0,0.0002441406,0.5379028,4.09,0,0,0,0.4799805,nan,4,13.203,1,0,0.3172302,0.6957703,0.5263062,0.6123657,-0.07324219,-0.03027344,0.01855469,1,3,0,1,2,4,3,0.15,-0.08,0,-0.086,0,0,2,0,0,-0.086,0,36
47.315,0.001136,0.015625,0.04101562,0.01171875,0.953125,-1.492188,7.390625,0.0078125,0.03320312,0,-0.0625,-0.04492188,0.2597656,0.01049805,0.007446289,-0.08618164,0,0,0.0002441406,0.5448608,4.09,0,0,0,0.4799805,nan,4,13.213,1,0,0.3423767,0.6706848,0.5804138,0.5859375,-0.07324219,-0.03027344,0.01855469,1,3,0,1,2,4,3,0.15,-0.1,0,-0.086,0,0,2,0,0,-0.086,0,36
47.325,0.00102,-0.01953125,-0.01367188,0.02734375,-2.367188,2.484375,3.65625,-0.005859375,0.001953125,0.015625,-0.0625,-0.046875,0.2597656,0.01049805,0.0078125,-0.08618164,0,0,0.0002441406,0.5513,4.09,0,0,0,0.4799805,nan,4,13.223,1,0,0.3747253,0.6694031,0.5831604,0.5778809,-0.07324219,-0.03125,0.01855469,1,3,0,1,2,4,3,0.15,-0.1,0,-0.086,0,0,3,0,0,-0.086,0,36
47.335,0.001073,-0.01171875,0.04882812,0.01367188,-3.546875,-0.84375,13.125,-0.01367188,0.001953125,0.001953125,-0.0625,-0.04492188,0.2597656,0.01037598,0.007568359,-0.08605957,0,0,0.0002441406,0.5579834,4.09,0,0,0,0.4799805,nan,4,13.233,1,0,0.3483276,0.6937561,0.5753174,0.6144714,-0.07324219,-0.03125,0.01855469,1,3,0,1,2,4,3,0.15,-0.1,0,-0.086,0,0,3,0,0,-0.086,0,36
47.345,0.001005,0.02734375,0.05078125,-0.009765625,2.539062,-3.023438,15.23438,0.0234375,0.02929688,0.01171875,-0.0625,-0.046875,0.2597656,0.01049805,0.00769043,-0.08605957,0,0,0.0002441406,0.5645447,4.09,0,0,0,0.4799805,nan,4,13.244,1,0,0.3562622,0.6968384,0.592926,0.6121521,-0.07324219,-0.03125,0.01855469,1,3,0,1,2,4,3,0.15,-0.1,0,-0.086,0,0,5,0,0,-0.086,0,36
47.354,0.001008,-0.0390625,-0.04101562,-0.02148438,-0.6953125,0.21875,8.109375,-0.02148438,-0.02148438,-0.01757812,-0.0625,-0.046875,0.2597656,0.01049805,0.00769043,-0.08605957,0,0,0.0002441406,0.5707092,4.09,0,0,0,0.4799805,nan,4,13.253,1,0,0.3484802,0.7355347,0.5510254,0.6477661,-0.07324219,-0.03125,0.01953125,1,3,0,1,2,4,3,0.15,-0.1,0,-0.086,0,0,3,0,0,-0.086,0,36
47.364,0.000995,0.046875,-0.005859375,0.005859375,0.171875,0.8125,13.25781,0.01171875,-0.00390625,0.001953125,-0.0625,-0.04492188,0.2597656,0.01037598,0.007568359,-0.08618164,0,0,0.0002441406,0.5771484,4.09,0,0,0,0.4799805,nan,4,13.263,1,0,0.3802795,0.7051697,0.6123657,0.6107483,-0.07324219,-0.03125,0.01953125,1,3,0,1,2,4,3,0.15,-0.1,0,-0.086,0,0,3,0,0,-0.086,0,36
47.375,0.001028,-0.02929688,-0.04492188,0.00390625,3.164062,-4.96875,7.390625,-0.01171875,-0.01367188,0.001953125,-0.0625,-0.046875,0.2597656,0.01049805,0.0078125,-0.08618164,0,0,0.0002441406,0.5783997,4.09,0,0,0,0.4799805,nan,4,13.273,1,0,0.381012,0.718811,0.585968,0.6277771,-0.07421875,-0.03125,0.01953125,1,3,0.01587302,1,2,4,3,0.15,-0.1,0,-0.086,0,0,2,0,0,-0.086,0,36
47.384,0.00119,-0.03125,-0.03125,0.01367188,-0.7421875,1.585938,11.48438,-0.01171875,-0.015625,0.005859375,-0.0625,-0.04492188,0.2597656,0.01037598,0.00769043,-0.08618164,0,0,0.0002441406,0.5724487,4.09,0,0,0,0.4799805,nan,4,13.283,1,0,0.3769836,0.7049866,0.5927124,0.6150818,-0.07421875,-0.03125,0.01953125,1,3,0,1,2,4,3,0.15,-0.09,0,-0.086,0,0,2,0,0,-0.086,0,36
47.394,0.001238,0.1015625,-0.009765625,0.0078125,2.289062,-0.2578125,12.01562,0.02929688,0.02148438,0.01757812,-0.0625,-0.046875,0.2597656,0.01049805,0.0078125,-0.08605957,0,0,0.0002441406,0.5657654,4.09,0,0,0,0.4799805,nan,4,13.293,1,0,0.361145,0.6979065,0.6010437,0.6029053,-0.07421875,-0.03125,0.01953125,1,3,0,1,2,4,3,0.15,-0.08,0,-0.086,0,0,2,0,0,-0.086,0,36
47.404,0.00136,-0.01953125,-0.07617188,-0.03125,0.9140625,3.960938,4.625,-0.02539062,-0.02929688,-0.02539062,-0.0625,-0.046875,0.2597656,0.01049805,0.0078125,-0.08605957,0,0,0.0002441406,0.5593262,4.09,0,0,0,0.4799805,nan,4,13.303,1,0,0.3223572,0.7415771,0.5224304,0.6509399,-0.07421875,-0.03125,0.01953125,1,3,0,1,2,4,3,0.15,-0.08,0,-0.086,0,0,2,0,0,-0.086,0,36
47.415,0.001142,0.01367188,-0.02148438,0.01757812,-1.101562,4.328125,15.6875,0.005859375,-0.0078125,0,-0.0625,-0.046875,0.2597656,0.01037598,0.00769043,-0.08630371,0,0,0.0002441406,0.5523071,4.09,0,0,0,0.4799805,nan,4,13.313,1,0,0.3632507,0.6747131,0.5906372,0.580658,-0.07421875,-0.03125,0.01953125,1,3,0,1,2,4,3,0.15,-0.07,0,-0.086,0,0,3,0,0,-0.086,0,36
47.424,0.001214,-0.0234375,-0.01171875,0.03125,2.507812,-3.867188,5.710938,0.001953125,0.001953125,0.02148438,-0.0625,-0.046875,0.2597656,0.01049805,0.0078125,-0.08605957,0,0,0.0002441406,0.5461731,4.09,0,0,0,0.4799805,nan,4,13.323,1,0,0.3656616,0.6591797,0.5871582,0.5726318,-0.07421875,-0.03125,0.01953125,1,3,0,1,2,4,3,0.15,-0.06,0,-0.086,0,0,4,0,0,-0.086,0,36
47.434,0.00177,-0.0625,-0.05273438,-0.005859375,-1.5625,5.5,8.71875,-0.0234375,-0.02734375,0.0078125,-0.0625,-0.04492188,0.2578125,0.01049805,0.00769043,-0.0859375,0,0,0.0002441406,0.5434875,4.09,0,0,0,0.4799805,nan,4,13.333,1,0,0.3368225,0.690094,0.5436401,0.6033936,-0.07421875,-0.03125,0.01953125,1,3,0,1,2,4,3,0.15,-0.05,0,-0.086,0,0,3,0,0,-0.086,0,36
47.444,0.001167,0.001953125,0.04492188,0.005859375,1.578125,-0.734375,9.84375,0.01367188,0.02539062,0,-0.0625,-0.046875,0.2578125,0.01049805,0.00769043,-0.0859375,0,0,0.0002441406,0.5497437,4.09,0,0,0,0.4799805,nan,4,13.342,1,0,0.3267822,0.6934509,0.5666504,0.61203,-0.07421875,-0.03125,0.01953125,1,3,0.6031746,1,2,4,3,0.15,-0.05,0,-0.086,0,0,3,0,0,-0.086,0,36
47.455,0.001181,-0.08984375,-0.01367188,0,0.9921875,1.296875,5.578125,-0.01953125,-0.0078125,0.009765625,-0.06445312,-0.046875,0.2578125,0.01062012,0.00769043,-0.08581543,0,0,0.0002441406,0.5569763,4.09,0,0,0,0.4799805,nan,4,13.353,1,0,0.3576965,0.6935425,0.5640869,0.6126404,-0.07421875,-0.03125,0.01953125,1,3,0,1,2,4,3,0.15,-0.06,0,-0.086,0,0,2,0,0,-0.086,0,36
47.464,0.001016,-0.0234375,0.005859375,0.0078125,-3.804688,3.617188,12.23438,-0.00390625,-0.00390625,0.00390625,-0.0625,-0.04492188,0.2578125,0.01049805,0.007568359,-0.08569336,0,0,0.0002441406,0.5628967,4.09,0,0,0,0.4799805,nan,4,13.363,1,0,0.3496704,0.7032166,0.5771179,0.621582,-0.07421875,-0.03125,0.01953125,1,3,0,1,2,4,3,0.15,-0.06,0,-0.086,0,0,2,0,0,-0.086,0,36
47.474,0.001011,0.005859375,0.009765625,0.005859375,1.109375,0.8203125,12.04688,0.01757812,0.02734375,0.01367188,-0.06445312,-0.046875,0.2578125,0.01062012,0.00769043,-0.08569336,0,0,0.0002441406,0.5696411,4.09,0,0,0,0.4799805,nan,4,13.373,1,0,0.3644714,0.698822,0.600708,0.614563,-0.07421875,-0.03125,0.01953125,1,3,0,1,2,4,3,0.15,-0.06,0,-0.086,0,0,3,0,0,-0.086,0,36
47.485,0.001124,-0.01953125,0.01367188,-0.00390625,-1.914062,6.132812,7.796875,-0.00390625,-0.0078125,0.01171875,-0.06445312,-0.046875,0.2578125,0.01062012,0.00769043,-0.08544922,0,0,0.0002441406,0.5762634,4.09,0,0,0,0.4799805,nan,4,13.383,1,0,0.3623352,0.7247314,0.5831909,0.6348877,-0.07421875,-0.03125,0.01953125,1,3,0.2380952,1,2,4,3,0.15,-0.07,0,-0.085,0,0,4,0,0,-0.085,0,36
47.495,0.000991,0.0234375,0.015625,-0.0234375,-3,4.164062,16.0625,0.015625,0.0234375,-0.015625,-0.06445312,-0.046875,0.2578125,0.01074219,0.00769043,-0.08557129,0,0,0.0002441406,0.5828552,4.09,0,0,0,0.4799805,nan,4,13.393,1,0,0.3437195,0.7447205,0.5837097,0.6593018,-0.07421875,-0.03125,0.01953125,1,3,0,1,2,4,3,0.15,-0.07,0,-0.086,0,0,3,0,0,-0.086,0,36
47.505,0.001132,0.03125,-0.0234375,0.009765625,0.3359375,-4.367188,6.53125,0.0234375,-0.00390625,0.01367188,-0.06445312,-0.046875,0.2578125,0.01074219,0.0078125,-0.08557129,0,0,0.0002441406,0.589386,4.09,0,0,0,0.4799805,nan,4,13.403,1,0,0.4030457,0.7130127,0.6331787,0.6082764,-0.07421875,-0.03125,0.01953125,1,3,0,1,2,4,3,0.15,-0.08,0,-0.086,0,0,1,0,0,-0.086,0,36
47.514,0.001083,-0.07421875,-0.03125,-0.02929688,-3.054688,4.367188,10.22656,-0.01367188,-0.02734375,-0.01757812,-0.06445312,-0.046875,0.2578125,0.01086426,0.00769043,-0.08557129,0,0,0.0002441406,0.5956116,4.09,0,0,0,0.4799805,nan,4,13.413,1,0,0.3667603,0.7655945,0.5724182,0.6776428,-0.07421875,-0.03125,0.01953125,1,3,0,1,2,4,3,0.15,-0.09,0,-0.086,0,0,3,0,0,-0.086,0,36
47.525,0.001013,0.02929688,0.01171875,-0.005859375,-0.2109375,-0.625,9.898438,0.00390625,0.001953125,-0.015625,-0.06445312,-0.04492188,0.2578125,0.01086426,0.00769043,-0.08581543,0,0,0.0002441406,0.6024475,4.09,0,0,0,0.4799805,nan,4,13.423,1,0,0.3912964,0.7420959,0.6218262,0.6545715,-0.07519531,-0.03125,0.01953125,1,3,0.5396826,1,2,4,3,0.15,-0.11,0,-0.086,0,0,2,0,0,-0.086,0,36
47.534,0.001155,-0.04882812,0.02734375,0.04492188,-0.71875,1.21875,5.398438,-0.01171875,-0.00390625,0.02734375,-0.06445312,-0.04492188,0.2578125,0.01086426,0.007568359,-0.08569336,0,0,0.0002441406,0.608551,4.09,0,0,0,0.4799805,nan,4,13.433,1,0,0.4591064,0.6902466,0.6727295,0.6120911,-0.07519531,-0.03125,0.01953125,1,3,0,1,2,4,3,0.15,-0.12,0,-0.086,0,0,2,0,0,-0.086,0,36
47.544,0.000976,-0.02148438,-0.005859375,-0.01367188,3.773438,-2.203125,12.04688,-0.009765625,-0.001953125,-0.01757812,-0.06445312,-0.04492188,0.2578125,0.01074219,0.00769043,-0.08569336,0,0,0.0002441406,0.6150208,4.09,0,0,0,0.4799805,nan,4,13.443,1,0,0.3709412,0.7924805,0.5950623,0.7015991,-0.07519531,-0.03222656,0.01953125,1,3,0,1,2,4,3,0.15,-0.14,0,-0.086,0,0,3,0,0,-0.086,0,36
47.555,0.001041,-0.02539062,-0.0390625,0.009765625,2.796875,-4,5.25,0,-0.005859375,-0.001953125,-0.06445312,-0.04492188,0.2578125,0.01074219,0.007568359,-0.08581543,0,0,0.0002441406,0.6220093,4.09,0,0,0,0.4799805,nan,4,13.453,1,0,0.4236755,0.7574463,0.6436768,0.6632996,-0.07519531,-0.03222656,0.01953125,1,3,0,1,2,4,3,0.15,-0.15,0,-0.086,0,0,2,0,0,-0.086,0,36
47.565,0.001001,-0.0859375,0.03125,0.0234375,-1.101562,2.195312,8.78125,-0.0234375,0.001953125,0.02148438,-0.06445312,-0.046875,0.2578125,0.01062012,0.00769043,-0.08557129,0,0,0.0002441406,0.6217346,4.09,0,0,0,0.4799805,nan,4,13.463,1,0,0.434021,0.7395935,0.6510925,0.662262,-0.07519531,-0.03222656,0.01953125,1,3,0,1,2,4,3,0.15,-0.16,0,-0.086,0,0,1,0,0,-0.086,0,36
47.574,0.000981,0.05273438,0.01757812,-0.03710938,1.382812,-0.5625,3.84375,0.02929688,0.01953125,-0.01367188,-0.06445312,-0.046875,0.2578125,0.01062012,0.00769043,-0.08557129,0,0,0.0002441406,0.6157227,4.09,0,0,0,0.4799805,nan,4,13.473,1,0,0.361969,0.7931519,0.6081238,0.6996765,-0.07519531,-0.03222656,0.01953125,1,3,0,1,2,4,3,0.15,-0.16,0,-0.086,0,0,2,0,0,-0.086,0,36
47.584,0.001131,-0.015625,-0.01171875,0.009765625,-4.351562,4.921875,12.24219,-0.005859375,0.01757812,0.001953125,-0.06445312,-0.046875,0.2578125,0.01086426,0.0078125,-0.08569336,0,0,0.0002441406,0.6092224,4.09,0,0,0,0.4799805,nan,4,13.483,1,0,0.4131165,0.7306519,0.6386414,0.6544495,-0.07519531,-0.03222656,0.01953125,1,3,0,1,2,4,3,0.15,-0.16,0,-0.086,0,0,2,0,0,-0.086,0,36
47.595,0.000967,0.06054688,-0.001953125,-0.02148438,-0.4296875,-6.375,5.414062,0.01953125,0.015625,0.005859375,-0.06640625,-0.046875,0.2578125,0.01098633,0.0078125,-0.08557129,0,0,0.0002441406,0.6023254,4.09,0,0,0,0.4799805,nan,4,13.493,1,0,0.3721619,0.7575684,0.6119385,0.6676636,-0.07519531,-0.03222656,0.01953125,1,3,0,1,2,4,3,0.15,-0.16,0,-0.086,0,0,4,0,0,-0.086,0,36
47.604,0.001397,-0.02734375,-0.04882812,-0.03515625,-2.359375,2.5625,12.125,0.01171875,-0.009765625,-0.03515625,-0.06640625,-0.046875,0.2578125,0.0111084,0.0078125,-0.08581543,0,0,0.0002441406,0.5960999,4.09,0,0,0,0.4799805,nan,4,13.503,1,0,0.3476562,0.7820435,0.567688,0.6869812,-0.07519531,-0.03222656,0.01953125,1,3,0,1,2,4,3,0.15,-0.16,0,-0.086,0,0,0,0,0,-0.086,0,36
47.615,0.001129,0.04492188,-0.0390625,0.01757812,-0.9921875,-1.398438,11.0625,0.009765625,-0.01757812,-0.005859375,-0.06640625,-0.046875,0.2597656,0.01123047,0.0078125,-0.08605957,0,0,0.0002441406,0.5891113,4.09,0,0,0,0.4799805,nan,4,13.513,1,0,0.4013062,0.7137756,0.6245422,0.6167603,-0.07519531,-0.03222656,0.01953125,1,3,0,1,2,4,3,0.15,-0.16,0,-0.086,0,0,3,0,0,-0.086,0,36
47.625,0.001317,0.0390625,-0.03320312,0.04882812,-0.09375,5.765625,7.335938,0.01757812,0.005859375,0.0390625,-0.06640625,-0.046875,0.2578125,0.01123047,0.0078125,-0.08581543,0,0,0.0002441406,0.5826721,4.09,0,0,0,0.4799805,nan,4,13.523,1,0,0.4159851,0.6802368,0.6506653,0.5837402,-0.07519531,-0.03222656,0.01953125,1,3,0.01587302,1,2,4,3,0.15,-0.15,0,-0.086,0,0,3,0,0,-0.086,0,36
47.635,0.001111,0.03710938,-0.01953125,-0.01171875,1.820312,-1.039062,12.52344,0.04296875,-0.0078125,0.005859375,-0.06835938,-0.046875,0.2578125,0.01147461,0.0078125,-0.08544922,0,0,0.0002441406,0.5760498,4.09,0,0,0,0.4799805,nan,4,13.533,1,0,0.3334351,0.7521667,0.571228,0.6473694,-0.07519531,-0.03222656,0.01953125,1,3,0,1,2,4,3,0.15,-0.14,0,-0.085,0,0,2,0,0,-0.085,0,36
47.644,0.001002,0.03515625,-0.01171875,-0.00390625,-3.054688,-0.7734375,5.757812,0.01757812,-0.0078125,-0.009765625,-0.06835938,-0.046875,0.2578125,0.01159668,0.0078125,-0.08557129,0,0,0.0002441406,0.5700684,4.09,0,0,0,0.4799805,nan,4,13.543,1,0,0.3432007,0.7298889,0.5748901,0.6323242,-0.07519531,-0.03222656,0.01953125,1,3,0,1,2,4,3,0.15,-0.13,0,-0.086,0,0,2,0,0,-0.086,0,36
47.655,0.001017,0.01757812,-0.015625,0.001953125,-3.296875,2.335938,13.96875,-0.01757812,-0.005859375,0.001953125,-0.06835938,-0.046875,0.2578125,0.01135254,0.0078125,-0.08557129,0,0,0.0002441406,0.5631104,4.09,0,0,0,0.4799805,nan,4,13.553,1,0,0.3603516,0.7000427,0.5835266,0.6085205,-0.07519531,-0.03222656,0.01953125,1,3,0,1,2,4,3,0.15,-0.12,0,-0.086,0,0,4,0,0,-0.086,0,36
47.664,0.00127,0.0390625,-0.01367188,-0.03320312,-0.5390625,-0.09375,3.179688,0.01367188,0.001953125,-0.01757812,-0.06835938,-0.046875,0.2578125,0.01123047,0.0078125,-0.08557129,0,0,0.0002441406,0.5568848,4.09,0,0,0,0.4799805,nan,4,13.563,1,0,0.3153076,0.7278748,0.555603,0.6288147,-0.07617188,-0.03222656,0.01953125,1,3,0,1,2,4,3,0.15,-0.11,0,-0.086,0,0,2,0,0,-0.086,0,36
47.674,0.0009860001,-0.04296875,-0.02539062,0.02929688,-3.210938,1.21875,13.90625,0.009765625,-0.001953125,0.0078125,-0.06835938,-0.046875,0.2578125,0.01135254,0.0078125,-0.08569336,0,0,0.0002441406,0.5505371,4.09,0,0,0,0.4799805,nan,4,13.573,1,0,0.3667908,0.6655579,0.5951233,0.5747375,-0.07617188,-0.03222656,0.01953125,1,3,0,1,2,4,3,0.15,-0.1,0,-0.086,0,0,2,0,0,-0.086,0,36
47.685,0.001174,0.03515625,0.02734375,0.01757812,0.96875,-9.179688,4.078125,0.01757812,0.005859375,0.01953125,-0.06835938,-0.046875,0.2578125,0.01135254,0.0078125,-0.08544922,0,0,0.0002441406,0.5437317,4.09,0,0,0,0.4799805,nan,4,13.583,1,0,0.3378906,0.6761475,0.5793457,0.5815125,-0.07617188,-0.03222656,0.01953125,1,3,0,1,2,4,3,0.15,-0.09,0,-0.085,0,0,3,0,0,-0.085,0,36
47.695,0.001115,0.04882812,-0.005859375,-0.04296875,-1.9375,0.2109375,7.53125,0.02148438,0.009765625,-0.03515625,-0.06835938,-0.046875,0.2578125,0.01135254,0.00793457,-0.08557129,0,0,0.0002441406,0.5369568,4.09,0,0,0,0.4799805,nan,4,13.593,1,0,0.2679443,0.7343445,0.5097961,0.6357727,-0.07617188,-0.03222656,0.01953125,1,3,0,1,2,4,3,0.15,-0.09,0,-0.086,0,0,2,0,0,-0.086,0,36
47.705,0.001181,-0.001953125,-0.046875,0.009765625,2.820312,-5.773438,9.796875,0,-0.01953125,-0.01367188,-0.06835938,-0.046875,0.2578125,0.01135254,0.0078125,-0.08581543,0,0,0.0002441406,0.5307312,4.09,0,0,0,0.4799805,nan,4,13.603,1,0,0.3301697,0.6671143,0.5556946,0.5699463,-0.07617188,-0.03222656,0.01953125,1,3,0,1,2,4,3,0.15,-0.08,0,-0.086,0,0,3,0,0,-0.086,0,36
47.715,0.001779,0.03320312,0.0078125,0.04101562,1.203125,-4.6875,5.5,0.01171875,0.0078125,0.03320312,-0.06835938,-0.046875,0.2578125,0.01147461,0.0078125,-0.08569336,0,0,0.0002441406,0.5238647,4.09,0,0,0,0.4799805,nan,4,13.613,1,0,0.3512573,0.6213989,0.5906372,0.532196,-0.07617188,-0.03222656,0.01953125,1,3,0,1,2,4,3,0.15,-0.08,0,-0.086,0,0,1,0,0,-0.086,0,36
47.725,0.001521,0.015625,-0.01757812,-0.0078125,-0.7265625,1.828125,13.4375,0,-0.01171875,0.01367188,-0.06835938,-0.046875,0.2578125,0.01147461,0.00769043,-0.08532715,0,0,0.0002441406,0.5174255,4.09,0,0,0,0.4799805,nan,4,13.624,1,0,0.2958374,0.6714478,0.5231323,0.5792847,-0.07617188,-0.03222656,0.01953125,1,3,0,1,2,4,3,0.15,-0.07,0,-0.085,0,0,1,0,0,-0.085,0,36
47.734,0.001434,0.03710938,-0.001953125,0.01953125,3.921875,-4.804688,7.101562,0.00390625,0,0.009765625,-0.06835938,-0.04492188,0.2558594,0.01135254,0.00769043,-0.08532715,0,0,0.0002441406,0.5114746,4.09,0,0,0,0.4799805,nan,4,13.632,1,0,0.2965088,0.6542053,0.5317078,0.5635376,-0.07617188,-0.03222656,0.02050781,1,3,0.0952381,1,2,4,3,0.15,-0.07,0,-0.085,0,0,4,0,0,-0.085,0,36
47.745,0.001195,-0.0078125,0.001953125,0.0078125,0.65625,4.09375,8.351562,0.001953125,0.005859375,0.009765625,-0.06835938,-0.046875,0.2558594,0.01147461,0.00769043,-0.08520508,0,0,0.0002441406,0.5145264,4.09,0,0,0,0.4799805,nan,4,13.642,1,0,0.3044128,0.6526794,0.5355225,0.5654602,-0.07617188,-0.03320312,0.02050781,1,3,0.01587302,1,2,4,3,0.15,-0.08,0,-0.085,0,0,2,0,0,-0.085,0,36
47.755,0.001191,0.02734375,0.03515625,-0.04492188,-3.171875,1.695312,12.91406,-0.015625,-0.001953125,-0.02539062,-0.06835938,-0.046875,0.2578125,0.01123047,0.00769043,-0.08532715,0,0,0.0002441406,0.5213928,4.09,0,0,0,0.4799805,nan,4,13.653,1,0,0.2772217,0.6938477,0.5083618,0.6061707,-0.07617188,-0.03320312,0.02050781,1,3,0,1,2,4,3,0.15,-0.09,0,-0.085,0,0,2,0,0,-0.085,0,36
47.765,0.001133,-0.001953125,0.01757812,0.01953125,2.640625,-3.046875,6.65625,-0.001953125,-0.005859375,0.00390625,-0.06640625,-0.04492188,0.2578125,0.01123047,0.00769043,-0.08544922,0,0,0.0002441406,0.5274048,4.09,0,0,0,0.4799805,nan,4,13.663,1,0,0.339325,0.6446838,0.5723877,0.5531616,-0.07617188,-0.03320312,0.02050781,1,3,0,1,2,4,3,0.15,-0.09,0,-0.085,0,0,2,0,0,-0.085,0,36
47.775,0.001182,-0.02929688,-0.05273438,0.005859375,-0.1484375,4.539062,4.820312,-0.009765625,-0.02148438,0.0234375,-0.06640625,-0.04492188,0.2558594,0.01123047,0.007568359,-0.08520508,0,0,0.0002441406,0.5340271,4.09,0,0,0,0.4799805,nan,4,13.673,1,0,0.3424072,0.662384,0.5628052,0.568512,-0.07617188,-0.03320312,0.02050781,1,3,0,1,2,4,3,0.15,-0.1,0,-0.085,0,0,3,0,0,-0.085,0,36
47.784,0.001582,0.01171875,0.05664062,-0.04296875,-1.75,4.515625,13.53125,0.001953125,0.009765625,-0.01953125,-0.06640625,-0.04492188,0.2558594,0.01123047,0.007568359,-0.08520508,0,0,0.0002441406,0.5400391,4.09,0,0,0,0.4799805,nan,4,13.683,1,0,0.2827148,0.7211304,0.5210266,0.6352844,-0.07617188,-0.03320312,0.02050781,1,3,0,1,2,4,3,0.15,-0.11,0,-0.085,0,0,3,0,0,-0.085,0,36
47.795,0.001141,-0.02734375,-0.001953125,-0.00390625,1.734375,-4.398438,10.64844,-0.005859375,0.00390625,-0.01367188,-0.06640625,-0.046875,0.2578125,0.01123047,0.00769043,-0.08544922,0,0,0.0002441406,0.5470276,4.09,0,0,0,0.4799805,nan,4,13.693,1,0,0.3320007,0.6905212,0.5622253,0.6033936,-0.07617188,-0.03320312,0.02050781,1,3,0,1,2,4,3,0.15,-0.12,0,-0.085,0,0,3,0,0,-0.085,0,36
47.804,0.001003,0.001953125,0,-0.00390625,-1.929688,5.296875,10.61719,-0.01757812,-0.005859375,-0.01757812,-0.06640625,-0.04492188,0.2578125,0.0111084,0.007568359,-0.08557129,0,0,0.0002441406,0.5532532,4.09,0,0,0,0.4799805,nan,4,13.703,1,0,0.3352356,0.6992798,0.5655823,0.6129761,-0.07617188,-0.03320312,0.02050781,1,3,0,1,2,4,3,0.15,-0.13,0,-0.086,0,0,3,0,0,-0.086,0,36
47.815,0.000975,-0.00390625,0.0234375,0.03320312,-1.648438,3.945312,11.14062,0.01367188,0.01953125,0.009765625,-0.06640625,-0.04492188,0.2578125,0.0111084,0.007568359,-0.08557129,0,0,0.0002441406,0.5600281,4.09,0,0,0,0.4799805,nan,4,13.713,1,0,0.3703613,0.6703796,0.6147156,0.5846252,-0.07714844,-0.03320312,0.02050781,1,3,0,1,2,4,3,0.15,-0.13,0,-0.086,0,0,1,0,0,-0.086,0,36
47.825,0.001007,0.005859375,-0.04101562,-0.0078125,1.960938,-6.28125,9.570312,-0.01757812,-0.015625,0.01171875,-0.06640625,-0.04492188,0.2578125,0.0111084,0.007568359,-0.08544922,0,0,0.0002441406,0.5665283,4.09,0,0,0,0.4799805,nan,4,13.723,1,0,0.3552551,0.7145691,0.5749817,0.6213074,-0.07714844,-0.03320312,0.02050781,1,3,0,1,2,4,3,0.15,-0.14,0,-0.085,0,0,2,0,0,-0.085,0,36
47.835,0.001034,0.02734375,0.04296875,0.00390625,0.2578125,-3.765625,6.421875,0.0078125,0.009765625,-0.00390625,-0.06640625,-0.04492188,0.2578125,0.0111084,0.007568359,-0.08544922,0,0,0.0002441406,0.5731812,4.09,0,0,0,0.4799805,nan,4,13.733,1,0,0.3520508,0.7165527,0.59552,0.6286316,-0.07714844,-0.03320312,0.02050781,1,3,0,1,2,4,3,0.15,-0.14,0,-0.085,0,0,1,0,0,-0.085,0,36
47.845,0.001157,-0.03710938,-0.0390625,-0.005859375,-0.859375,-0.1328125,15.27344,-0.005859375,-0.005859375,0.00390625,-0.06640625,-0.046875,0.2578125,0.0111084,0.00769043,-0.08544922,0,0,0.0002441406,0.5797424,4.09,0,0,0,0.4799805,nan,4,13.743,1,0,0.3662109,0.7272339,0.5888672,0.6366577,-0.07714844,-0.03320312,0.02050781,1,3,0,1,2,4,3,0.15,-0.15,0,-0.085,0,0,3,0,0,-0.085,0,36
47.854,0.001115,0.001953125,-0.02734375,-0.02539062,2.367188,-2.734375,5.46875,-0.0078125,-0.005859375,-0.01757812,-0.06640625,-0.04492188,0.2578125,0.01098633,0.007568359,-0.08544922,0,0,0.0002441406,0.5859985,4.09,0,0,0,0.4799805,nan,4,13.753,1,0,0.3425293,0.7597046,0.5743103,0.6673889,-0.07714844,-0.03320312,0.02050781,1,3,0,1,2,4,3,0.15,-0.15,0,-0.085,0,0,1,0,0,-0.085,0,36
47.865,0.001001,-0.015625,0.0390625,0.01757812,-1.898438,2.320312,13.96875,0.01757812,0.01757812,0,-0.06640625,-0.046875,0.2578125,0.0111084,0.00769043,-0.08557129,0,0,0.0002441406,0.5794373,4.09,0,0,0,0.4799805,nan,4,13.763,1,0,0.3783569,0.702179,0.6228333,0.6143799,-0.07714844,-0.03320312,0.02050781,1,3,0,1,2,4,3,0.15,-0.15,0,-0.086,0,0,2,0,0,-0.086,0,36
47.875,0.001041,0.05078125,0.009765625,-0.009765625,0.921875,-7.445312,14.14062,0.005859375,-0.01367188,0.009765625,-0.06640625,-0.04492188,0.2578125,0.0111084,0.007568359,-0.08544922,0,0,0.0002441406,0.5727844,4.09,0,0,0,0.4799805,nan,4,13.773,1,0,0.3578796,0.7193909,0.5912781,0.6225281,-0.07714844,-0.03320312,0.02050781,1,3,0,1,2,4,3,0.15,-0.14,0,-0.085,0,0,4,0,0,-0.085,0,36
47.885,0.001133,0.03515625,0.001953125,-0.01953125,2.34375,-2.875,6.4375,0.009765625,0.001953125,-0.015625,-0.06835938,-0.04492188,0.2578125,0.01135254,0.007568359,-0.08557129,0,0,0.0002441406,0.5662842,4.09,0,0,0,0.4799805,nan,4,13.783,1,0,0.3285828,0.7281189,0.5685425,0.6398621,-0.07714844,-0.03320312,0.02050781,1,3,0,1,2,4,3,0.15,-0.13,0,-0.086,0,0,3,0,0,-0.086,0,36
47.894,0.001154,-0.0234375,-0.02539062,-0.001953125,0.5078125,-2.835938,13.72656,-0.00390625,0.0078125,-0.001953125,-0.06835938,-0.046875,0.2578125,0.01135254,0.00769043,-0.08557129,0,0,0.0002441406,0.5602417,4.09,0,0,0,0.4799805,nan,4,13.793,1,0,0.3554993,0.6929321,0.5871277,0.6054077,-0.07714844,-0.03320312,0.02050781,1,3,0,1,2,4,3,0.15,-0.12,0,-0.086,0,0,3,0,0,-0.086,0,36
47.904,0.001008,0.02734375,-0.03320312,-0.01171875,2.140625,-1.75,4.328125,-0.02734375,-0.01367188,-0.001953125,-0.06640625,-0.04492188,0.2578125,0.0111084,0.007568359,-0.08557129,0,0,0.0002441406,0.5534058,4.09,0,0,0,0.4799805,nan,4,13.803,1,0,0.3367615,0.7027588,0.5633545,0.6107178,-0.07714844,-0.03320312,0.02050781,1,3,0,1,2,4,3,0.15,-0.11,0,-0.086,0,0,2,0,0,-0.086,0,36
47.915,0.001623,-0.01367188,-0.0078125,0.015625,-2.203125,-0.8828125,13.1875,-0.001953125,0,0.001953125,-0.06640625,-0.04492188,0.2578125,0.01098633,0.007568359,-0.08569336,0,0,0.0002441406,0.5467224,4.09,0,0,0,0.4799805,nan,4,13.813,1,0,0.3386536,0.6820374,0.577301,0.5888367,-0.07714844,-0.03320312,0.02050781,1,3,0,1,2,4,3,0.15,-0.1,0,-0.086,0,0,2,0,0,-0.086,0,36
47.925,0.000997,0.0078125,0.02148438,0.0234375,2.78125,-5.671875,10.82031,-0.00390625,0.001953125,0.0234375,-0.06640625,-0.04492188,0.2578125,0.0111084,0.007568359,-0.08544922,0,0,0.0002441406,0.5403748,4.09,0,0,0,0.4799805,nan,4,13.823,1,0,0.348999,0.6595154,0.5822144,0.5708008,-0.07714844,-0.03320312,0.02050781,1,3,0,1,2,4,3,0.15,-0.09,0,-0.085,0,0,2,0,0,-0.085,0,36
47.935,0.001196,-0.04101562,-0.01367188,-0.02734375,3.132812,0.1875,4.210938,-0.02539062,-0.01171875,-0.01757812,-0.06640625,-0.04492188,0.2578125,0.01086426,0.007568359,-0.08557129,0,0,0.0002441406,0.5335388,4.09,0,0,0,0.4799805,nan,4,13.834,1,0,0.2905579,0.7057495,0.516571,0.6213074,-0.07714844,-0.03320312,0.02050781,1,3,0,1,2,4,3,0.15,-0.09,0,-0.086,0,0,2,0,0,-0.086,0,36
47.945,0.001921,0.009765625,0.03125,0.0078125,0.90625,1,13.88281,0.005859375,0.01367188,-0.00390625,-0.06445312,-0.04492188,0.2578125,0.01086426,0.007568359,-0.08569336,0,0,0.0002441406,0.5272522,4.09,0,0,0,0.4799805,nan,4,13.843,1,0,0.3175659,0.6594543,0.5615845,0.5704041,-0.07714844,-0.03320312,0.02050781,1,3,0,1,2,4,3,0.15,-0.08,0,-0.086,0,0,3,0,0,-0.086,0,36
47.955,0.001131,-0.005859375,-0.01953125,0.02539062,3.257812,-5,5.78125,-0.0078125,-0.001953125,0.02539062,-0.06640625,-0.04492188,0.2578125,0.01086426,0.00769043,-0.08544922,0,0,0.0002441406,0.5209961,4.09,0,0,0,0.4799805,nan,4,13.852,1,0,0.3353577,0.6380615,0.5623474,0.5481873,-0.07714844,-0.03417969,0.02050781,1,3,0,1,2,4,3,0.15,-0.08,0,-0.085,0,0,1,0,0,-0.085,0,36
47.965,0.001092,0.0078125,0.001953125,0.01757812,0.2578125,3.445312,12.29688,-0.0078125,-0.005859375,0.01953125,-0.06445312,-0.04492188,0.2558594,0.01086426,0.007568359,-0.08520508,0,0,0.0002441406,0.5142212,4.09,0,0,0,0.4799805,nan,4,13.863,1,0,0.303009,0.653717,0.535614,0.5645752,-0.078125,-0.03417969,0.02050781,1,3,0,1,2,4,3,0.15,-0.07,0,-0.085,0,0,4,0,0,-0.085,0,36
47.975,0.000985,0.0078125,-0.01953125,-0.001953125,-0.6953125,3.5625,11.95312,0.009765625,0.00390625,0.005859375,-0.06640625,-0.046875,0.2558594,0.01098633,0.00769043,-0.08520508,0,0,0.0002441406,0.5074158,4.09,0,0,0,0.4799805,nan,4,13.873,1,0,0.2915955,0.653717,0.5241699,0.5602112,-0.078125,-0.03417969,0.02050781,1,3,0,1,2,4,3,0.15,-0.07,0,-0.085,0,0,4,0,0,-0.085,0,36
47.985,0.000876,-0.015625,-0.0625,-0.01171875,2.164062,-3.1875,7.109375,-0.02148438,-0.01953125,-0.001953125,-0.06640625,-0.046875,0,0.0111084,0.00769043,-0.08508301,0,0,-0.08508301,0.5080261,4.09,0,0,0,0.4799805,nan,4,13.883,1,0,0.5010986,0.5191345,0.4958801,0.5159912,0,0,0,1,6,0,1,2,4,4,nan,-0.08,nan,-0.085,0,0,5,1,0,-0.085,0,36
47.994,0.001043,0.02929688,-0.001953125,0.001953125,-0.859375,2.859375,8.046875,0.0078125,0.005859375,-0.015625,-0.06640625,-0.04492188,0,0.0111084,0.00769043,-0.08532715,0,0,-0.08532715,0.5064697,4.09,0,0,0,0.4799805,nan,4,13.893,1,0,0.4960327,0.5075989,0.5171814,0.5050964,0,0,0,1,6,0,1,2,4,4,nan,-0.08,nan,-0.085,0,0,3,1,0,-0.085,0,36
48.004,0.000922,-0.01171875,-0.02734375,0.005859375,1.945312,0.9453125,14.46875,0.01367188,-0.001953125,-0.00390625,-0.06835938,-0.046875,0,0.01123047,0.00769043,-0.08544922,0,0,-0.08544922,0.5049133,4.09,0,0,0,0.4799805,nan,4,13.903,1,0,0.5085754,0.4984436,0.5195618,0.493103,0,0,0,1,6,0,1,2,4,4,nan,-0.09,nan,-0.085,0,0,3,1,0,-0.085,0,36
48.014,0.001011,-0.04101562,-0.03710938,0.01367188,1.75,-3.84375,5.867188,-0.0234375,-0.03515625,0.015625,-0.06640625,-0.04492188,0,0.0111084,0.007446289,-0.08520508,0,0,-0.08520508,0.5033569,4.09,0,0,0,0.4799805,nan,4,13.913,1,0,0.5168457,0.4927979,0.5166016,0.4871826,0,0,0,1,6,0,1,2,4,4,nan,-0.09,nan,-0.085,0,0,1,1,0,-0.085,0,36
48.025,0.000926,-0.0234375,0.03320312,-0.03125,2.679688,1.101562,6.429688,0.009765625,0.0234375,-0.02734375,-0.06640625,-0.04296875,0,0.0111084,0.007324219,-0.08532715,0,0,-0.08532715,0.5016479,4.09,0,0,0,0.4799805,nan,4,13.923,1,0,0.4507446,0.5330505,0.4815063,0.5412903,0,0,0,1,6,0,1,2,4,4,nan,-0.1,nan,-0.085,0,0,2,1,0,-0.085,0,36
48.034,0.000944,-0.01953125,-0.01953125,0.009765625,-3.210938,7.515625,8.320312,0.001953125,-0.00390625,0.00390625,-0.06640625,-0.04492188,0,0.0111084,0.007324219,-0.08544922,0,0,-0.08544922,0.5000916,4.09,0,0,0,0.4799805,nan,4,13.933,1,0,0.5230713,0.4749451,0.5323792,0.4699707,0,0,0,1,6,0,1,2,4,4,nan,-0.1,nan,-0.085,0,0,3,1,0,-0.085,0,36
48.044,0.000904,0.00390625,0.0078125,-0.001953125,-1.40625,-2.507812,13.65625,0.005859375,0.00390625,-0.005859375,-0.06640625,-0.04296875,0,0.0111084,0.007324219,-0.08544922,0,0,-0.08544922,0.4984741,4.09,0,0,0,0.4799805,nan,4,13.943,1,0,0.4710083,0.5157776,0.4933167,0.5137939,0,0,0,1,6,0,1,2,4,4,nan,-0.1,nan,-0.085,0,0,2,1,0,-0.085,0,36
48.054,0.001075,0.0234375,-0.00390625,0.03125,1.132812,-2.976562,5.414062,0.02148438,0.01953125,0.009765625,-0.06640625,-0.04492188,0,0.01123047,0.007446289,-0.08544922,0,0,-0.08544922,0.4969177,4.09,0,0,0,0.4799805,nan,4,13.953,1,0,0.5025635,0.4816895,0.5275879,0.4758301,-0.0009765625,0,0,1,6,0,1,2,4,4,nan,-0.1,nan,-0.085,0,0,2,1,0,-0.085,0,36
48.064,0.001009,-0.02734375,-0.06445312,0.02929688,0.6484375,3.28125,6.828125,-0.015625,-0.01367188,0.0234375,-0.06640625,-0.04492188,0,0.01123047,0.007446289,-0.08520508,0,0,-0.08520508,0.4953003,4.09,0,0,0,0.4799805,nan,4,13.963,1,0,0.5072937,0.4869995,0.5050354,0.4818726,-0.0009765625,0,0,1,6,0,1,2,4,4,nan,-0.1,nan,-0.085,0,0,1,1,0,-0.085,0,36
48.075,0.000899,0.05078125,0.03515625,-0.01953125,-1.96875,3.179688,11.45312,0.01367188,0.01367188,-0.005859375,-0.06640625,-0.04492188,0,0.0111084,0.007446289,-0.08508301,0,0,-0.08508301,0.4936523,4.09,0,0,0,0.4799805,nan,4,13.973,1,0,0.4429932,0.5284424,0.4768982,0.5262756,-0.0009765625,0,0,1,6,0,1,2,4,4,nan,-0.1,nan,-0.085,0,0,3,1,0,-0.085,0,36
48.085,0.000917,-0.001953125,0.001953125,0.005859375,-0.6640625,0.265625,13.72656,0.00390625,0.009765625,0.00390625,-0.06640625,-0.04492188,0,0.01123047,0.007568359,-0.08508301,0,0,-0.08508301,0.4920349,4.09,0,0,0,0.4799805,nan,4,13.983,1,0,0.4849854,0.4919128,0.4994812,0.4917297,-0.0009765625,0,0,1,6,0,1,2,4,4,nan,-0.1,nan,-0.085,0,0,3,1,0,-0.085,0,36
48.094,0.001479,-0.03515625,-0.05664062,0.01953125,1.125,-3.726562,5.578125,-0.02148438,-0.0234375,0.005859375,-0.06640625,-0.04492188,0,0.0111084,0.007446289,-0.08508301,0,0,-0.08508301,0.4905396,4.09,0,0,0,0.4799805,nan,4,13.993,1,0,0.4970703,0.4875183,0.4956665,0.4818726,-0.0009765625,-0.0009765625,0,1,6,0,1,2,4,4,nan,-0.1,nan,-0.085,0,0,3,1,0,-0.085,0,36
48.105,0.001236,0.0234375,0.001953125,0.03710938,2.773438,-1.171875,5.304688,0.015625,0.01171875,0.015625,-0.06640625,-0.04492188,0,0.0111084,0.007446289,-0.08496094,0,0,-0.08496094,0.4888306,4.09,0,0,0,0.4799805,nan,4,14.003,1,0,0.4949036,0.4709167,0.5235901,0.4659119,-0.0009765625,-0.0009765625,0,1,6,0,1,2,4,4,nan,-0.1,nan,-0.085,0,0,2,1,0,-0.085,0,36
48.115,0.00099,-0.02734375,-0.02734375,0.009765625,-0.828125,3.234375,6.203125,-0.001953125,0.00390625,0.0078125,-0.06640625,-0.04492188,0,0.01123047,0.007568359,-0.08483887,0,0,-0.08483887,0.4872742,4.09,0,0,0,0.4799805,nan,4,14.013,1,0,0.480011,0.4898071,0.4898682,0.4894104,-0.0009765625,-0.0009765625,0,1,6,0,1,2,4,4,nan,-0.1,nan,-0.085,0,0,2,1,0,-0.085,0,36
48.124,0.001258,0.0234375,-0.005859375,-0.02148438,-2.648438,-4.507812,12.92188,-0.00390625,-0.015625,-0.01757812,-0.06640625,-0.04492188,0,0.0111084,0.007446289,-0.08483887,0,0,-0.08483887,0.4857178,4.09,0,0,0,0.4799805,nan,4,14.023,1,0,0.4500427,0.5186157,0.4625854,0.5116577,-0.0009765625,-0.0009765625,0,1,6,0,1,2,4,4,nan,-0.09,nan,-0.085,0,0,2,1,0,-0.085,0,36
48.135,0.00144,0.03515625,0.03125,0.01171875,4.796875,-2.234375,10.89844,0.01367188,0.00390625,0.0078125,-0.06640625,-0.04492188,0,0.0111084,0.007446289,-0.08496094,0,0,-0.08496094,0.4841003,4.09,0,0,0,0.4799805,nan,4,14.033,1,0,0.4958191,0.4627991,0.5203247,0.45755,-0.0009765625,-0.0009765625,0,1,6,0,1,2,4,4,nan,-0.08,nan,-0.085,0,0,3,1,0,-0.085,0,36
48.144,0.000935,-0.02148438,-0.07617188,0.01757812,1.507812,1.578125,4.34375,-0.01757812,-0.02539062,0.015625,-0.06640625,-0.04492188,0,0.01123047,0.007446289,-0.0847168,0,0,-0.0847168,0.4825439,4.09,0,0,0,0.4799805,nan,4,14.043,1,0,0.4894104,0.4836121,0.4820862,0.4750977,-0.0009765625,-0.0009765625,0,1,6,0,1,2,4,4,nan,-0.08,nan,-0.085,0,0,3,1,0,-0.085,0,36
48.155,0.001104,0.04101562,-0.001953125,0.0546875,0.390625,-3.859375,6.429688,0.01367188,0.001953125,0.02929688,-0.06640625,-0.04492188,0,0.0111084,0.007446289,-0.08459473,0,0,-0.08459473,0.4808044,4.09,0,0,0,0.4799805,nan,4,14.054,1,0,0.5039673,0.4495239,0.5300598,0.4396973,-0.0009765625,-0.0009765625,0,1,6,0,1,2,4,4,nan,-0.08,nan,-0.085,0,0,1,1,0,-0.085,0,36
48.164,0.001293,-0.001953125,0.009765625,-0.03515625,0.1796875,4.789062,11.39844,0.005859375,0.01367188,-0.001953125,-0.06835938,-0.04492188,0,0.01135254,0.007446289,-0.08447266,0,0,-0.08447266,0.4793396,4.09,0,0,0,0.4799805,nan,4,14.063,1,0,0.4232788,0.5246277,0.4424133,0.5270996,-0.0009765625,-0.0009765625,0,1,6,0,1,2,4,4,nan,-0.07,nan,-0.084,0,0,1,1,0,-0.084,0,36
48.174,0.001293,0,0.04882812,-0.04882812,-2.804688,3.953125,11.20312,-0.0078125,-0.009765625,-0.02929688,-0.06640625,-0.04492188,0,0.01123047,0.007446289,-0.08459473,0,0,-0.08459473,0.4776917,4.09,0,0,0,0.4799805,nan,4,14.073,1,0,0.4389954,0.5110168,0.4545288,0.5062256,-0.0009765625,-0.0009765625,0,1,6,0,1,2,4,4,nan,-0.07,nan,-0.085,0,0,2,1,0,-0.085,0,36
48.185,0.001296,-0.02539062,-0.01953125,0,-3.390625,1.210938,12.4375,-0.0078125,0.005859375,-0.009765625,-0.06640625,-0.04492188,0,0.01123047,0.007446289,-0.08483887,0,0,-0.08483887,0.4760437,4.09,0,0,0,0.4799805,nan,4,14.083,1,0,0.4772339,0.4648743,0.4940491,0.4680481,-0.0009765625,-0.0009765625,0,1,6,0,1,2,4,4,nan,-0.06,nan,-0.085,0,0,1,1,0,-0.085,0,36
48.194,0.001017,-0.03515625,-0.01953125,0.001953125,3.84375,-3.53125,9.359375,-0.01171875,-0.0078125,0,-0.06835938,-0.04492188,0,0.01123047,0.007446289,-0.08483887,0,0,-0.08483887,0.4745789,4.09,0,0,0,0.4799805,nan,4,14.092,1,0,0.4716797,0.4742126,0.4779968,0.4744263,-0.0009765625,-0.0009765625,0,1,6,0,1,2,4,4,nan,-0.06,nan,-0.085,0,0,3,1,0,-0.085,0,36
48.205,0.001013,-0.00390625,-0.001953125,0.009765625,2.640625,0.6484375,9.84375,0,0.01171875,0.02148438,-0.06835938,-0.04492188,0,0.01135254,0.007324219,-0.08459473,0,0,-0.08459473,0.4729004,4.09,0,0,0,0.4799805,nan,4,14.103,1,0,0.4689026,0.4641418,0.4907532,0.4678345,-0.001953125,-0.0009765625,0,1,6,0.1269841,1,2,4,4,nan,-0.06,nan,-0.085,0,0,1,1,0,-0.085,0,36
48.215,0.001043,-0.04296875,-0.01171875,-0.0234375,-0.4375,-5.40625,4.5625,-0.009765625,-0.005859375,-0.009765625,-0.06835938,-0.04492188,0,0.01135254,0.007446289,-0.08459473,0,0,-0.08459473,0.471283,4.09,0,0,0,0.4799805,nan,4,14.113,1,0,0.4333496,0.5074463,0.4397888,0.5045776,-0.001953125,-0.0009765625,0,1,6,0,1,2,4,4,nan,-0.05,nan,-0.085,0,0,1,1,0,-0.085,0,36
48.224,0.000979,-0.04296875,-0.03515625,-0.05859375,-0.8359375,-0.1015625,9.507812,-0.005859375,-0.01171875,-0.05273438,-0.06835938,-0.04296875,0,0.01135254,0.007324219,-0.08483887,0,0,-0.08483887,0.4697266,4.09,0,0,0,0.4799805,nan,4,14.123,1,0,0.4068909,0.526825,0.419342,0.5258789,-0.001953125,-0.0009765625,0,1,6,0.1904762,1,2,4,4,nan,-0.05,nan,-0.085,0,0,1,1,0,-0.085,0,36
48.234,0.001041,-0.0234375,0.0234375,0.03710938,-0.734375,5.90625,5.679688,-0.001953125,0.01367188,0.009765625,-0.06835938,-0.04492188,0,0.01135254,0.007324219,-0.08508301,0,0,-0.08508301,0.4680786,4.09,0,0,0,0.4799805,nan,4,14.133,1,0,0.5168762,0.4046631,0.5423279,0.4084473,-0.001953125,-0.0009765625,0,1,6,0,1,2,4,4,nan,-0.05,nan,-0.085,0,0,3,1,0,-0.085,0,36
48.245,0.00088,0.015625,-0.0078125,0.0546875,-4.96875,-2.078125,9.148438,0.02148438,0.001953125,0.0546875,-0.06835938,-0.04296875,0,0.01135254,0.007202148,-0.0847168,0,0,-0.0847168,0.4664612,4.09,0,0,0,0.4799805,nan,4,14.143,1,0,0.4871521,0.4326477,0.5215149,0.4245911,-0.001953125,-0.0009765625,0,1,6,0,1,2,4,4,nan,-0.04,nan,-0.085,0,0,2,1,0,-0.085,0,36
48.254,0.000908,-0.009765625,0.03320312,-0.03710938,0.5078125,3.617188,15.49219,0.005859375,0.01171875,-0.00390625,-0.06835938,-0.04296875,0,0.01147461,0.007202148,-0.08435059,0,0,-0.08435059,0.4648743,4.09,0,0,0,0.4799805,nan,4,14.153,1,0,0.3856506,0.5269165,0.4136353,0.5333252,-0.001953125,-0.0009765625,0,1,6,0,1,2,4,4,nan,-0.04,nan,-0.084,0,0,4,1,0,-0.084,0,36
48.265,0.000959,0.03320312,0.01171875,-0.01953125,-0.546875,0.6328125,14.85156,-0.00390625,-0.005859375,-0.01953125,-0.06835938,-0.04296875,0,0.01135254,0.007202148,-0.08459473,0,0,-0.08459473,0.4632263,4.09,0,0,0,0.4799805,nan,4,14.163,1,0,0.436615,0.4822083,0.4596863,0.4743958,-0.001953125,-0.0009765625,0,1,6,0,1,2,4,4,nan,-0.04,nan,-0.085,0,0,4,1,0,-0.085,0,36
48.275,0.000961,0.04296875,0.0390625,0.02929688,0.375,-3.742188,10.86719,0.01367188,0.01953125,0.015625,-0.06835938,-0.04296875,0,0.01147461,0.007324219,-0.08459473,0,0,-0.08459473,0.4616699,4.09,0,0,0,0.4799805,nan,4,14.173,1,0,0.4835205,0.4269409,0.5130615,0.4230957,-0.001953125,-0.0009765625,0,1,6,0,1,2,4,4,nan,-0.03,nan,-0.085,0,0,1,1,0,-0.085,0,36
48.284,0.001044,-0.02929688,0.01367188,0.015625,4.039062,-3.960938,8.429688,-0.009765625,0.01757812,0.02539062,-0.06835938,-0.04492188,0,0.01147461,0.007446289,-0.08422852,0,0,-0.08422852,0.4601135,4.09,0,0,0,0.4799805,nan,4,14.183,1,0,0.4615173,0.4494934,0.4768677,0.4525146,-0.001953125,-0.0009765625,0,1,6,0.1111111,1,2,4,4,nan,-0.03,nan,-0.084,0,0,2,1,0,-0.084,0,36
48.295,0.00106,0.01171875,0.001953125,0.03710938,1.898438,0.6171875,6.671875,0.0078125,0.001953125,0.02539062,-0.06835938,-0.04492188,0,0.01147461,0.007568359,-0.08410645,0,0,-0.08410645,0.4584045,4.09,0,0,0,0.4799805,nan,4,14.194,1,0,0.4650879,0.4465027,0.4873657,0.4346619,-0.001953125,-0.0009765625,0,1,6,0,1,2,4,4,nan,-0.03,nan,-0.084,0,0,3,1,0,-0.084,0,36
48.304,0.000912,-0.0234375,-0.01171875,-0.02148438,-1.820312,-0.140625,4.9375,0,0.00390625,0,-0.0703125,-0.04492188,0,0.01159668,0.007568359,-0.0838623,0,0,-0.0838623,0.4569092,4.09,0,0,0,0.4799805,nan,4,14.203,1,0,0.4208984,0.4844666,0.436676,0.4855957,-0.001953125,-0.0009765625,0,1,6,0,1,2,4,4,nan,-0.02,nan,-0.084,0,0,3,1,0,-0.084,0,36
48.314,0.0009860001,0.00390625,0.05273438,-0.04882812,-0.2421875,2.570312,8.546875,-0.0078125,0.02539062,-0.03125,-0.06835938,-0.046875,0,0.01147461,0.0078125,-0.08398438,0,0,-0.08398438,0.4552917,4.09,0,0,0,0.4799805,nan,4,14.213,1,0,0.3964844,0.49646,0.4259644,0.5022583,-0.001953125,-0.001953125,0,1,6,0,1,2,4,4,nan,-0.02,nan,-0.084,0,0,3,1,0,-0.084,0,36
48.325,0.000914,-0.04101562,-0.04101562,-0.03515625,-1.523438,4.421875,8.382812,-0.01953125,0,-0.0546875,-0.06835938,-0.046875,0,0.01135254,0.00793457,-0.08459473,0,0,-0.08459473,0.4536438,4.09,0,0,0,0.4799805,nan,4,14.223,1,0,0.4246216,0.4807129,0.4352722,0.473999,-0.001953125,-0.001953125,0,1,6,0.4444444,1,2,4,4,nan,-0.02,nan,-0.085,0,0,3,1,0,-0.085,0,36
48.335,0.001006,-0.01367188,-0.07617188,0.06054688,1.6875,0.546875,6.46875,-0.01757812,-0.03125,0.03320312,-0.06835938,-0.046875,0,0.0111084,0.00769043,-0.08459473,0,0,-0.08459473,0,4.09,0,0,0,0.4799805,nan,4,14.234,0,0,0,0,0,0,0,0,0,1,6,0,1,2,4,5,nan,-0.02,nan,-0.085,0,0,3,4,0,-0.085,0,36
48.344,0.001014,0.04492188,0.03710938,-0.0078125,-2.023438,3.53125,4.65625,-0.01171875,0.00390625,0.03320312,-0.06835938,-0.046875,0,0.01086426,0.007568359,-0.08422852,0,0,-0.08459473,0,4.09,0,0,0,0.4799805,nan,4,14.243,0,0,0,0,0,0,0,0,0,1,6,0,1,2,4,5,nan,-0.01,nan,-0.084,0,0,2,4,0,-0.084,0,36
48.354,0.000992,-0.01171875,-0.05273438,0.01367188,2.828125,2.578125,12.36719,-0.015625,-0.01953125,-0.005859375,-0.06835938,-0.046875,0,0.01086426,0.007568359,-0.08422852,0,0,-0.08459473,0,4.09,0,0,0,0.4799805,nan,4,14.253,0,0,0,0,0,0,0,0,0,1,6,0,1,2,4,5,nan,0,nan,-0.084,0,0,4,4,0,-0.084,0,36
48.364,0.001025,-0.05078125,-0.03125,0.03515625,0.8671875,-0.2109375,3.054688,-0.02539062,-0.02929688,0.03320312,-0.06835938,-0.046875,0,0.01074219,0.007324219,-0.08410645,0,0,-0.08459473,0,4.09,0,0,0,0.4799805,nan,4,14.263,0,0,0,0,0,0,0,0,0,1,6,0,1,2,4,5,nan,0,nan,-0.084,0,0,1,4,0,-0.084,0,36
48.374,0.001023,-0.04492188,0.01171875,0.07421875,-3.117188,-0.015625,7.90625,0.005859375,0.03320312,0.06054688,-0.06835938,-0.046875,0,0.01086426,0.007568359,-0.08374023,0,0,-0.08459473,0,4.09,0,0,0,0.4799805,nan,4,14.273,0,0,0,0,0,0,0,0,0,1,6,0,1,2,4,5,nan,0.01,nan,-0.084,0,0,3,4,0,-0.084,0,36
48.385,0.001025,0.001953125,0.02734375,-0.015625,-2.867188,-1.375,6.8125,0,0.009765625,0.001953125,-0.06835938,-0.046875,0,0.01074219,0.00769043,-0.08337402,0,0,-0.08459473,0,4.09,0,0,0,0.4799805,nan,4,14.283,0,0,0,0,0,0,0,0,0,1,6,0,1,2,4,5,nan,0.02,nan,-0.083,0,0,2,4,0,-0.083,0,36
48.395,0.001076,0.01757812,0.04101562,-0.04492188,-2.320312,-2,-2.015625,-0.01757812,0.005859375,-0.03710938,-0.06835938,-0.046875,0,0.01074219,0.00769043,-0.08361816,0,0,-0.08459473,0,4.09,0,0,0,0.4799805,nan,4,14.293,0,0,0,0,0,0,0,0,0,1,6,0,1,2,4,5,nan,0.03,nan,-0.084,0,0,3,4,0,-0.084,0,36
48.405,0.001024,-0.03125,-0.03125,0.01757812,-0.1875,2.390625,16.15625,0.01171875,0.02539062,0,-0.06835938,-0.046875,0,0.01098633,0.008056641,-0.08374023,0,0,-0.08459473,0,4.09,0,0,0,0.4799805,nan,4,14.304,0,0,0,0,0,0,0,0,0,1,6,0,1,2,4,5,nan,0.03,nan,-0.084,0,0,2,4,0,-0.084,0,36
48.415,0.000964,-0.109375,-0.1132812,0.05078125,2.960938,6.34375,15.78906,-0.03515625,-0.04492188,0.04882812,-0.06835938,-0.046875,0,0.0111084,0.008056641,-0.08337402,0,0,-0.08459473,0,4.09,0,0,0,0.4799805,nan,4,14.314,0,0,0,0,0,0,0,0,0,1,6,0,1,2,4,5,nan,0.03,nan,-0.083,0,0,2,4,0,-0.083,0,36
48.425,0.000961,0.1464844,0.1796875,-0.09179688,-0.15625,-3.398438,10.49219,0.07421875,0.08984375,-0.02929688,-0.06835938,-0.046875,0,0.01123047,0.008178711,-0.08312988,0,0,-0.08459473,0,4.09,0,0,0,0.4799805,nan,4,14.324,0,0,0,0,0,0,0,0,0,1,6,0,1,2,4,5,nan,0.03,nan,-0.083,0,0,2,4,0,-0.083,0,36
48.434,0.000941,0.01757812,-0.07617188,-0.04101562,-0.0078125,-7.625,6.867188,0.03710938,0.0078125,-0.0546875,-0.06835938,-0.046875,0,0.01135254,0.008300781,-0.08361816,0,0,-0.08459473,0,4.09,0,0,0,0.4799805,nan,4,14.333,0,0,0,0,0,0,0,0,0,1,6,1,1,2,4,5,nan,0.03,nan,-0.084,0,0,3,4,0,-0.084,0,36
48.444,0.000936,0.078125,0.05273438,0.03125,-5.679688,-1.109375,6.890625,0.01953125,0.02539062,0.02539062,-0.06835938,-0.046875,0,0.01123047,0.008300781,-0.08374023,0,0,-0.08459473,0,4.09,0,0,0,0.4799805,nan,4,14.343,0,0,0,0,0,0,0,0,0,1,6,1,1,2,4,5,nan,0.02,nan,-0.084,0,0,4,4,0,-0.084,0,36
48.454,0.000873,0.02148438,0.04101562,0.04101562,-2.445312,0.8671875,10.97656,0.00390625,-0.01171875,0.01367188,-0.06835938,-0.046875,0,0.0111084,0.008178711,-0.08361816,0,0,-0.08459473,0,4.09,0,0,0,0.4799805,nan,4,14.353,0,0,0,0,0,0,0,0,0,1,6,0,1,2,4,5,nan,0.02,nan,-0.084,0,0,3,4,0,-0.084,0,36
48.464,0.00093,0.03125,0.0625,0.02734375,-1.539062,-1.164062,2.703125,-0.015625,-0.005859375,0.03710938,-0.06835938,-0.046875,0,0.01123047,0.008178711,-0.08337402,0,0,-0.08459473,0,4.09,0,0,0,0.4799805,nan,4,14.363,0,0,0,0,0,0,0,0,0,1,6,0,1,2,4,5,nan,0.02,nan,-0.083,0,0,3,4,0,-0.083,0,36
48.474,0.000926,0.03320312,-0.02734375,-0.005859375,0.8828125,1.078125,5.851562,-0.06445312,-0.04101562,-0.015625,-0.06835938,-0.046875,0,0.0111084,0.008178711,-0.08337402,0,0,-0.08459473,0,4.09,0,0,0,0.4799805,nan,4,14.373,0,0,0,0,0,0,0,0,0,1,6,0,1,2,4,5,nan,0.01,nan,-0.083,0,0,2,4,0,-0.083,0,36
48.485,0.000934,-0.09960938,-0.08789062,0.01757812,-0.3046875,1.523438,9.859375,0.0078125,0.01953125,0.01171875,-0.06835938,-0.046875,0,0.0111084,0.008178711,-0.08337402,0,0,-0.08459473,0,4.09,0,0,0,0.4799805,nan,4,14.383,0,0,0,0,0,0,0,0,0,1,6,1,1,2,4,5,nan,0,nan,-0.083,0,0,4,4,0,-0.083,0,36
48.495,0.00087,0.06640625,0.08007812,0.05078125,-0.1015625,0.5703125,12.21094,0.02539062,0.03320312,0.06054688,-0.06835938,-0.046875,0,0.0111084,0.008178711,-0.08288574,0,0,-0.08459473,0,4.09,0,0,0,0.4799805,nan,4,14.393,0,0,0,0,0,0,0,0,0,1,6,0,1,2,4,5,nan,-0.01,nan,-0.083,0,0,4,4,0,-0.083,0,36
48.505,0.000948,0.005859375,0.05859375,0.02734375,0.0078125,0.1875,8.539062,0.009765625,0.015625,0.04492188,-0.06835938,-0.046875,0,0.01123047,0.008300781,-0.08239746,0,0,-0.08459473,0,4.09,0,0,0,0.4799805,nan,4,14.404,0,0,0,0,0,0,0,0,0,1,6,0,1,2,4,5,nan,-0.02,nan,-0.082,0,0,3,4,0,-0.082,0,36
48.514,0.001311,-0.05664062,-0.08007812,0.0078125,0.21875,-0.7265625,6.820312,-0.009765625,-0.009765625,0.01757812,-0.06835938,-0.046875,0,0.01147461,0.008544922,-0.08203125,0,0,-0.08459473,0,4.09,0,0,0,0.4799805,nan,4,14.413,0,0,0,0,0,0,0,0,0,1,6,0,1,2,4,5,nan,-0.03,nan,-0.082,0,0,2,4,0,-0.082,0,36
48.524,0.001157,-0.02929688,0.03515625,0.005859375,-0.1171875,0.0078125,12.67188,-0.01367188,-0.00390625,0.00390625,-0.06835938,-0.046875,0,0.01147461,0.008422852,-0.08203125,0,0,-0.08459473,0,4.09,0,0,0,0.4799805,nan,4,14.423,0,0,0,0,0,0,0,0,0,1,6,0,1,2,4,5,nan,-0.03,nan,-0.082,0,0,3,4,0,-0.082,0,36
48.534,0.001029,0.02734375,0.08007812,0.01171875,0.03125,0.7734375,12.27344,0.01367188,0.02929688,0.015625,-0.06835938,-0.046875,0,0.01147461,0.008422852,-0.08190918,0,0,-0.08459473,0,4.09,0,0,0,0.4799805,nan,4,14.433,0,0,0,0,0,0,0,0,0,1,6,0,1,2,4,5,nan,-0.03,nan,-0.082,0,0,1,4,0,-0.082,0,36
48.544,0.001019,-0.009765625,-0.03320312,-0.005859375,0.2734375,1.539062,10.41406,0.0078125,0.01171875,0.009765625,-0.06835938,-0.046875,0,0.01159668,0.008666992,-0.08166504,0,0,-0.08459473,0,4.09,0,0,0,0.4799805,nan,4,14.443,0,0,0,0,0,0,0,0,0,1,6,1,1,2,4,5,nan,-0.02,nan,-0.082,0,0,2,4,0,-0.082,0,36
48.555,0.001022,-0.01171875,-0.02539062,-0.001953125,0.40625,-0.21875,10.67188,-0.00390625,0.005859375,0,-0.06835938,-0.046875,0,0.01159668,0.008666992,-0.08166504,0,0,-0.08459473,0,4.09,0,0,0,0.4799805,nan,4,14.453,0,0,0,0,0,0,0,0,0,1,6,1,1,2,4,5,nan,-0.02,nan,-0.082,0,0,3,4,0,-0.082,0,36
48.565,0.001025,0.005859375,0.06835938,-0.005859375,-0.4140625,0.328125,12.69531,-0.001953125,0,-0.009765625,-0.06835938,-0.046875,0,0.01159668,0.008544922,-0.08166504,0,0,-0.08459473,0,4.09,0,0,0,0.4799805,nan,4,14.463,0,0,0,0,0,0,0,0,0,1,6,0,1,2,4,5,nan,-0.02,nan,-0.082,0,0,2,4,0,-0.082,0,36
48.575,0.001018,0.04492188,-0.0234375,0.005859375,-0.5,0.1171875,10.75,0.001953125,-0.01171875,-0.005859375,-0.06835938,-0.046875,0,0.01147461,0.008544922,-0.08178711,0,0,-0.08459473,0,4.09,0,0,0,0.4799805,nan,4,14.473,0,0,0,0,0,0,0,0,0,1,6,1,1,2,4,5,nan,-0.01,nan,-0.082,0,0,2,4,0,-0.082,0,36
48.585,0.001024,0,-0.07421875,-0.02148438,2.171875,1.070312,6.164062,0.005859375,-0.01171875,-0.009765625,-0.06835938,-0.046875,0,0.01159668,0.008422852,-0.08178711,0,0,-0.08459473,0,4.09,0,0,0,0.4799805,nan,4,14.483,0,0,0,0,0,0,0,0,0,1,6,0,1,2,4,5,nan,0,nan,-0.082,0,0,2,4,0,-0.082,0,36
48.595,0.00103,-0.05664062,0.01171875,-0.02734375,-0.0078125,-2.242188,12.24219,-0.009765625,-0.001953125,-0.015625,-0.06835938,-0.046875,0,0.01159668,0.008422852,-0.08190918,0,0,-0.08459473,0,4.09,0,0,0,0.4799805,nan,4,14.493,0,0,0,0,0,0,0,0,0,1,6,0,1,2,4,5,nan,0,nan,-0.082,0,0,2,4,0,-0.082,0,36
48.605,0.001037,-0.03710938,-0.02929688,-0.005859375,-0.109375,0.8828125,7.078125,-0.009765625,-0.01367188,-0.01367188,-0.06835938,-0.046875,0,0.01159668,0.008300781,-0.08215332,0,0,-0.08459473,0,4.09,0,0,0,0.4799805,nan,4,14.504,0,0,0,0,0,0,0,0,0,1,6,0,1,2,4,5,nan,0.01,nan,-0.082,0,0,3,4,0,-0.082,0,36
48.615,0.001032,-0.03710938,0.03125,-0.03320312,-0.1328125,-1.398438,11.94531,-0.01367188,0.0078125,-0.01757812,-0.06835938,-0.046875,0,0.01147461,0.008178711,-0.08215332,0,0,-0.08459473,0,4.09,0,0,0,0.4799805,nan,4,14.514,0,0,0,0,0,0,0,0,0,1,6,0,1,2,4,5,nan,0.02,nan,-0.082,0,0,2,4,0,-0.082,0,36
48.625,0.001015,-0.04492188,0.09375,-0.001953125,-1.335938,-1.078125,12.5625,-0.001953125,0.009765625,-0.01171875,-0.06835938,-0.046875,0,0.01147461,0.008178711,-0.08239746,0,0,-0.08459473,0,4.09,0,0,0,0.4799805,nan,4,14.524,0,0,0,0,0,0,0,0,0,1,6,0,1,2,4,5,nan,0.03,nan,-0.082,0,0,2,4,0,-0.082,0,36
48.634,0.001031,-0.0078125,-0.07226562,-0.02929688,2.289062,1.132812,7.625,-0.001953125,-0.01171875,-0.01171875,-0.06835938,-0.046875,0,0.01147461,0.008178711,-0.08239746,0,0,-0.08459473,0,4.09,0,0,0,0.4799805,nan,4,14.533,0,0,0,0,0,0,0,0,0,1,6,0,1,2,4,5,nan,0.03,nan,-0.082,0,0,3,4,0,-0.082,0,36
48.644,0.00109,0.02539062,-0.05078125,-0.009765625,1.046875,2.171875,7.382812,0.009765625,-0.009765625,-0.001953125,-0.06835938,-0.046875,0,0.01147461,0.008178711,-0.08251953,0,0,-0.08459473,0,4.09,0,0,0,0.4799805,nan,4,14.543,0,0,0,0,0,0,0,0,0,1,6,0,1,2,4,5,nan,0.03,nan,-0.082,0,0,3,4,0,-0.082,0,36
48.655,0.001032,0.0546875,-0.02929688,-0.009765625,1.3125,1.054688,8.484375,0.015625,0.00390625,-0.009765625,-0.06835938,-0.046875,0,0.01147461,0.008178711,-0.08251953,0,0,-0.08459473,0,4.09,0,0,0,0.4799805,nan,4,14.553,0,0,0,0,0,0,0,0,0,1,6,0,1,2,4,5,nan,0.03,nan,-0.083,0,0,6,4,0,-0.083,0,36
48.665,0.001034,0.02539062,-0.009765625,0,-0.0859375,-1.875,10.84375,0.001953125,0,-0.00390625,-0.06835938,-0.046875,0,0.01159668,0.008056641,-0.0826416,0,0,-0.08459473,0,4.09,0,0,0,0,nan,4,0.003,0,0,0,0,0,0,0,0,0,1,6,0,1,2,4,5,nan,0.03,nan,-0.083,0,0,3,4,0,-0.083,0,36
48.675,0.000943,0.08398438,-0.02148438,-0.0234375,2.84375,2.398438,8.710938,0.01953125,0,-0.005859375,-0.06835938,-0.046875,0,0.01159668,0.00793457,-0.08276367,0,0,-0.08459473,0,4.09,0,0,0,0,nan,4,0.013,0,0,0,0,0,0,0,0,0,1,6,1,1,2,4,5,nan,0.02,nan,-0.083,0,0,3,4,0,-0.083,0,36
48.684,0.000935,-0.01953125,0,-0.009765625,-0.5234375,-0.578125,9.5625,-0.0078125,0.01367188,-0.0078125,-0.06835938,-0.046875,0,0.01159668,0.00793457,-0.08276367,0,0,-0.08459473,0,4.09,0,0,0,0,nan,4,0.022,0,0,0,0,0,0,0,0,0,1,6,1,1,2,4,5,nan,0.02,nan,-0.083,0,0,2,4,0,-0.083,0,36
48.695,0.001019,0.05078125,0.03710938,0.0078125,-0.25,0.59375,11.82031,0.01367188,0.001953125,0.0078125,-0.06835938,-0.046875,0,0.01147461,0.00793457,-0.08276367,0,0,-0.08459473,0,4.09,0,0,0,0,nan,4,0.033,0,0,0,0,0,0,0,0,0,1,6,0,1,2,4,5,nan,0.01,nan,-0.083,0,0,4,4,0,-0.083,0,36
48.704,0.001049,-0.03320312,0.00390625,-0.0234375,1.046875,1.015625,9.484375,0,0.0078125,-0.009765625,-0.06835938,-0.046875,0,0.01147461,0.00793457,-0.08276367,0,0,-0.08459473,0,4.09,0,0,0,0,nan,4,0.008,0,0,0,0,0,0,0,0,0,1,6,1,1,2,4,5,nan,0,nan,-0.083,0,0,3,4,0,-0.083,0,36
48.715,0.000958,0.02148438,-0.00390625,-0.001953125,-1.148438,-0.203125,8.421875,-0.009765625,-0.0078125,0.001953125,nan,nan,nan,0.01147461,0.00793457,-0.08276367,0,0,-0.08276367,0,4.09,0,0,0,0,nan,2,0.019,0,0,0,0,0,0,0,0,0,1,2,0,1,2,4,5,nan,-0.01,nan,-0.083,0,0,3,4,0,-0.083,0,36
48.724,0.000918,-0.01367188,-0.0078125,-0.01953125,-0.703125,0.53125,8.71875,0.001953125,-0.00390625,-0.0078125,nan,nan,nan,0.01147461,0.00793457,-0.08276367,0,0,-0.08276367,0,4.09,0,0,0,0,nan,2,0.028,0,0,0,0,0,0,0,0,0,1,2,0,1,2,4,5,nan,-0.02,nan,-0.083,0,0,3,4,0,-0.083,0,36
48.734,0.001018,-0.06640625,-0.0390625,-0.0078125,0.9765625,0.5703125,8.398438,-0.005859375,-0.00390625,0.005859375,nan,nan,nan,0.01147461,0.00793457,-0.08276367,0,0,-0.08276367,0,4.09,0,0,0,0,nan,2,0.038,0,0,0,0,0,0,0,0,0,1,2,0,1,2,4,5,nan,-0.03,nan,-0.083,0,0,2,4,0,-0.083,0,36
48.744,0.001014,-0.07617188,-0.06054688,-0.01367188,1.421875,-0.5625,9.335938,-0.00390625,-0.005859375,-0.001953125,nan,nan,nan,0.01147461,0.00793457,-0.08276367,0,0,-0.08276367,0,4.09,0,0,0,0,nan,2,0.048,0,0,0,0,0,0,0,0,0,1,2,1,1,2,4,5,nan,-0.04,nan,-0.083,0,0,2,4,0,-0.083,0,36
48.755,0.002034,0.01171875,-0.01757812,0.01367188,0.375,-0.953125,10.14062,0.015625,0.0078125,0.00390625,nan,nan,nan,0.01159668,0.00793457,-0.08276367,0,0,-0.08276367,0,4.09,0,0,0,0,nan,2,0.059,0,0,0,0,0,0,0,0,0,1,2,1,1,2,4,5,nan,-0.05,nan,-0.083,0,0,3,4,0,-0.083,0,36
48.764,0.00119,0.0234375,0.03515625,0.00390625,-0.1484375,0.0078125,9.0625,0.005859375,0.009765625,-0.00390625,nan,nan,nan,0.01159668,0.00793457,-0.08276367,0,0,-0.08276367,0,4.09,0,0,0,0,nan,2,0.068,0,0,0,0,0,0,0,0,0,1,2,1,1,2,4,5,nan,-0.05,nan,-0.083,0,0,3,4,0,-0.083,0,36
48.775,0.000778,-0.001953125,-0.0078125,-0.03125,0.1953125,-0.5,10.51562,0.005859375,0,-0.0078125,nan,nan,nan,0.01159668,0.00793457,-0.08276367,0,0,-0.08276367,0,4.09,0,0,0,0,nan,2,0.079,0,0,0,0,0,0,0,0,0,1,2,1,1,2,4,5,nan,-0.04,nan,-0.083,0,0,2,4,0,-0.083,0,36
48.784,0.001344,0.02539062,0.03320312,0.00390625,0.1484375,0.640625,9.734375,0.001953125,0.0078125,0.00390625,nan,nan,nan,0.01171875,0.0078125,-0.0826416,0,0,-0.0826416,0,4.09,0,0,0,0,nan,2,0.088,0,0,0,0,0,0,0,0,0,1,2,1,1,2,4,5,nan,-0.03,nan,-0.083,0,0,2,4,0,-0.083,0,36
48.794,0.001204,0,-0.009765625,0.005859375,0.0390625,-0.0859375,10.59375,0.00390625,-0.001953125,0.001953125,nan,nan,nan,0.01171875,0.0078125,-0.0826416,0,0,-0.0826416,0,4.09,0,0,0,0,nan,2,0.098,0,0,0,0,0,0,0,0,0,1,2,1,1,2,4,5,nan,-0.02,nan,-0.083,0,0,3,4,0,-0.083,0,36
48.804,0.001205,-0.0078125,0.01171875,-0.01171875,0.1484375,0.03125,9.351562,-0.001953125,0.001953125,0.001953125,nan,nan,nan,0.01171875,0.0078125,-0.0826416,0,0,-0.0826416,0,4.09,0,0,0,0,nan,2,0.108,0,0,0,0,0,0,0,0,0,1,2,1,1,2,4,5,nan,-0.02,nan,-0.083,0,0,3,4,0,-0.083,0,36
48.814,0.001191,-0.01367188,0.001953125,-0.02539062,0.3125,0.2421875,9.09375,-0.0078125,0.001953125,-0.01171875,nan,nan,nan,0.01159668,0.0078125,-0.0826416,0,0,-0.0826416,0,4.09,0,0,0,0,nan,2,0.118,0,0,0,0,0,0,0,0,0,1,2,1,1,2,4,5,nan,-0.01,nan,-0.083,0,0,2,4,0,-0.083,0,36
48.824,0.00109,-0.001953125,0,0,0.3828125,0.1640625,10.55469,-0.005859375,-0.00390625,-0.005859375,nan,nan,nan,0.01159668,0.00769043,-0.0826416,0,0,-0.0826416,0,4.09,0,0,0,0,nan,2,0.128,0,0,0,0,0,0,0,0,0,1,2,1,1,2,4,5,nan,0,nan,-0.083,0,0,3,4,0,-0.083,0,36
48.835,0.00109,0.00390625,0.0078125,-0.00390625,0.1328125,0.5859375,9.304688,0.001953125,0.001953125,-0.00390625,nan,nan,nan,0.01159668,0.00769043,-0.08276367,0,0,-0.08276367,0,4.09,0,0,0,0,nan,2,0.139,0,0,0,0,0,0,0,0,0,1,2,1,1,2,4,5,nan,0.01,nan,-0.083,0,0,2,4,0,-0.083,0,36
48.844,0.001015,0,0.001953125,-0.0234375,0.3515625,0.4140625,9.898438,-0.00390625,0.001953125,-0.005859375,nan,nan,nan,0.01159668,0.007568359,-0.0826416,0,0,-0.0826416,0,4.09,0,0,0,0,nan,2,0.002,0,0,0,0,0,0,0,0,0,1,2,1,1,2,4,5,nan,0.02,nan,-0.083,0,0,2,4,0,-0.083,0,36
48.855,0.001143,0.001953125,0.00390625,-0.02148438,0.21875,-0.0390625,9.53125,0.00390625,0.001953125,-0.01171875,nan,nan,nan,0.01159668,0.007446289,-0.0826416,0,0,-0.0826416,0,4.09,0,0,0,0,nan,2,0.013,0,0,0,0,0,0,0,0,0,1,2,1,1,2,4,5,nan,0.03,nan,-0.083,0,0,3,4,0,-0.083,0,36
48.866,0.000885,0.01171875,0.001953125,-0.01171875,-0.0625,-0.21875,9.6875,0.0078125,0,0,nan,nan,nan,0.01159668,0.007446289,-0.0826416,0,0,-0.0826416,0,4.09,0,0,0,0,nan,2,0.023,0,0,0,0,0,0,0,0,0,1,2,1,1,2,4,5,nan,0.04,nan,-0.083,0,0,3,4,0,-0.083,0,36
48.875,0.00096,0.015625,-0.00390625,0.015625,-0.140625,-0.125,9.71875,0.00390625,-0.001953125,0.005859375,nan,nan,nan,0.01159668,0.007324219,-0.08276367,0,0,-0.08276367,0,4.09,0,0,0,0,nan,2,0.033,0,0,0,0,0,0,0,0,0,1,2,1,1,2,4,5,nan,0.04,nan,-0.083,0,0,2,4,0,-0.083,0,36
48.885,0.001002,-0.01171875,-0.005859375,-0.009765625,0.25,0.1640625,9.78125,-0.005859375,0.001953125,-0.01171875,nan,nan,nan,0.01159668,0.007324219,-0.08276367,0,0,-0.08276367,0,4.09,0,0,0,0,nan,2,0.043,0,0,0,0,0,0,0,0,0,1,2,1,1,2,4,5,nan,0.04,nan,-0.083,0,0,1,4,0,-0.083,0,36
48.895,0.001024,0.005859375,0.0078125,0.00390625,0.1171875,-0.1796875,9.773438,0.0078125,0.00390625,0.0078125,nan,nan,nan,0.01159668,0.007324219,-0.0826416,0,0,-0.0826416,0,4.09,0,0,0,0,nan,2,0.053,0,0,0,0,0,0,0,0,0,1,2,1,1,2,4,5,nan,0.03,nan,-0.083,0,0,2,4,0,-0.083,0,36
48.904,0.001042,0.001953125,-0.001953125,-0.01367188,0.0078125,0.2890625,9.742188,-0.00390625,-0.001953125,-0.0078125,nan,nan,nan,0.01147461,0.007202148,-0.0826416,0,0,-0.0826416,0,4.09,0,0,0,0,nan,2,0.063,0,0,0,0,0,0,0,0,0,1,2,1,1,2,4,5,nan,0.03,nan,-0.083,0,0,2,4,0,-0.083,0,36
48.915,0.001027,-0.01367188,-0.005859375,0.009765625,0.0625,-0.1484375,9.773438,-0.001953125,-0.001953125,0.0078125,nan,nan,nan,0.01159668,0.007202148,-0.0826416,0,0,-0.0826416,0,4.09,0,0,0,0,nan,2,0.073,0,0,0,0,0,0,0,0,0,1,2,1,1,2,4,5,nan,0.02,nan,-0.083,0,0,2,4,0,-0.083,0,36
48.925,0.001358,0.015625,0.005859375,-0.005859375,-0.03125,0.109375,9.640625,0.0078125,0.005859375,-0.0078125,nan,nan,nan,0.01147461,0.007080078,-0.08276367,0,0,-0.08276367,0,4.09,0,0,0,0,nan,2,0.083,0,0,0,0,0,0,0,0,0,1,2,1,1,2,4,5,nan,0.02,nan,-0.083,0,0,4,4,0,-0.083,0,36
48.934,0.00104,-0.009765625,0.001953125,0.009765625,0.140625,0.2109375,9.859375,-0.009765625,-0.00390625,0.0078125,nan,nan,nan,0.01147461,0.007080078,-0.0826416,0,0,-0.0826416,0,4.09,0,0,0,0,nan,2,0.093,0,0,0,0,0,0,0,0,0,1,2,1,1,2,4,5,nan,0.01,nan,-0.083,0,0,2,4,0,-0.083,0,36
48.945,0.001032,-0.00390625,-0.005859375,-0.00390625,-0.1171875,-0.015625,9.796875,0.001953125,-0.001953125,-0.005859375,nan,nan,nan,0.01147461,0.006958008,-0.08276367,0,0,-0.08276367,0,4.09,0,0,0,0,nan,2,0.103,0,0,0,0,0,0,0,0,0,1,2,1,1,2,4,5,nan,0.01,nan,-0.083,0,0,2,4,0,-0.083,0,36
48.955,0.000952,0,0.00390625,0.00390625,0.1796875,0.046875,9.84375,-0.001953125,0.001953125,0.005859375,nan,nan,nan,0.01147461,0.006958008,-0.0826416,0,0,-0.0826416,0,4.09,0,0,0,0,nan,2,0.113,0,0,0,0,0,0,0,0,0,1,2,1,1,2,4,5,nan,-0.01,nan,-0.083,0,0,3,4,0,-0.083,0,36
48.964,0.001185,0.00390625,0,-0.001953125,-0.0546875,0.0390625,9.765625,0.00390625,-0.00390625,-0.005859375,nan,nan,nan,0.01147461,0.006835938,-0.0826416,0,0,-0.0826416,0,4.09,0,0,0,0,nan,2,0.122,0,0,0,0,0,0,0,0,0,1,2,1,1,2,4,5,nan,-0.02,nan,-0.083,0,0,1,4,0,-0.083,0,36
48.975,0.001344,-0.001953125,-0.001953125,-0.001953125,0.09375,0.1484375,9.804688,-0.00390625,0,0.001953125,nan,nan,nan,0.01147461,0.006835938,-0.0826416,0,0,-0.0826416,0,4.09,0,0,0,0,nan,2,0.133,0,0,0,0,0,0,0,0,0,1,2,1,1,2,4,5,nan,-0.03,nan,-0.083,0,0,3,4,0,-0.083,0,36
48.984,0.00109,-0.00390625,0.00390625,0.0078125,0.0078125,0.0390625,9.875,0.001953125,0,0,nan,nan,nan,0.01147461,0.006713867,-0.0826416,0,0,-0.0826416,0,4.09,0,0,0,0,nan,2,0.143,0,0,0,0,0,0,0,0,0,1,2,1,1,2,4,5,nan,-0.03,nan,-0.083,0,0,2,4,0,-0.083,0,36
48.995,0.001125,0.0078125,-0.001953125,0,0.0234375,0.03125,9.789062,0.001953125,0.001953125,0.001953125,nan,nan,nan,0.01135254,0.006713867,-0.0826416,0,0,-0.0826416,0,4.09,0,0,0,0,nan,2,0.153,0,0,0,0,0,0,0,0,0,1,2,1,1,2,4,5,nan,-0.03,nan,-0.083,0,0,2,4,0,-0.083,0,36
49.004,0.001507,-0.0078125,0,0.0078125,0.0703125,0.140625,9.8125,-0.001953125,-0.001953125,0.001953125,nan,nan,nan,0.01135254,0.006591797,-0.0826416,0,0,-0.0826416,0,4.09,0,0,0,0,nan,2,0.162,0,0,0,0,0,0,0,0,0,1,2,1,1,2,4,5,nan,-0.03,nan,-0.083,0,0,3,4,0,-0.083,0,36
49.015,0.001505,0.00390625,-0.005859375,-0.005859375,0.0234375,0.0625,9.78125,0,-0.001953125,-0.001953125,nan,nan,nan,0.01135254,0.006591797,-0.0826416,0,0,-0.0826416,0,4.09,0,0,0,0,nan,2,0.172,0,0,0,0,0,0,0,0,0,1,2,1,1,2,4,5,nan,-0.03,nan,-0.083,0,0,2,4,0,-0.083,0,36
49.024,0.00133,-0.001953125,0.005859375,0.0078125,0.09375,0,9.71875,-0.001953125,0.001953125,0.00390625,nan,nan,nan,0.01135254,0.006469727,-0.0826416,0,0,-0.0826416,0,4.09,0,0,0,0,nan,2,0.182,0,0,0,0,0,0,0,0,0,1,2,1,1,2,4,5,nan,-0.02,nan,-0.083,0,0,2,4,0,-0.083,0,36
49.035,0.001408,0.00390625,-0.001953125,-0.0078125,-0.0234375,0.0703125,9.773438,0.001953125,-0.001953125,-0.005859375,nan,nan,nan,0.01135254,0.006469727,-0.0826416,0,0,-0.0826416,0,4.09,0,0,0,0,nan,2,0.193,0,0,0,0,0,0,0,0,0,1,2,1,1,2,4,5,nan,-0.02,nan,-0.083,0,0,2,4,0,-0.083,0,36
49.044,0.001086,0,0.00390625,0.00390625,0.09375,0.109375,9.828125,-0.001953125,0.00390625,0.00390625,nan,nan,nan,0.01123047,0.006469727,-0.0826416,0,0,-0.0826416,0,4.09,0,0,0,0,nan,2,0.202,0,0,0,0,0,0,0,0,0,1,2,1,1,2,4,5,nan,-0.02,nan,-0.083,0,0,3,4,0,-0.083,0,36
49.055,0.001058,0.00390625,0.001953125,-0.001953125,0.015625,0.046875,9.820312,0.00390625,-0.001953125,-0.00390625,nan,nan,nan,0.01123047,0.006347656,-0.0826416,0,0,-0.0826416,0,4.09,0,0,0,0,nan,2,0.213,0,0,0,0,0,0,0,0,0,1,2,1,1,2,4,5,nan,-0.01,nan,-0.083,0,0,2,4,0,-0.083,0,36
49.065,0.001009,0,0.001953125,0,0.0546875,0.109375,9.84375,0,0.001953125,0.001953125,nan,nan,nan,0.01123047,0.006347656,-0.0826416,0,0,-0.0826416,0,4.09,0,0,0,0,nan,2,0.223,0,0,0,0,0,0,0,0,0,1,2,1,1,2,4,5,nan,0,nan,-0.083,0,0,2,4,0,-0.083,0,36
49.075,0.001185,-0.0078125,0.00390625,0.001953125,0.046875,0.0078125,9.773438,0,0,0,nan,nan,nan,0.01123047,0.006225586,-0.0826416,0,0,-0.0826416,0,4.09,0,0,0,0,nan,2,0.233,0,0,0,0,0,0,0,0,0,1,2,1,1,2,4,5,nan,0.01,nan,-0.083,0,0,4,4,0,-0.083,0,36
49.084,0.001001,0.00390625,-0.001953125,0,0.0234375,0.140625,9.804688,0,0,0.00390625,nan,nan,nan,0.01123047,0.006225586,-0.0826416,0,0,-0.0826416,0,4.09,0,0,0,0,nan,2,0.242,0,0,0,0,0,0,0,0,0,1,2,1,1,2,4,5,nan,0.02,nan,-0.083,0,0,3,4,0,-0.083,0,36
49.094,0.001032,-0.005859375,-0.001953125,0.005859375,0.03125,0.015625,9.820312,0,-0.001953125,0,nan,nan,nan,0.01123047,0.006225586,-0.0826416,0,0,-0.0826416,0,4.09,0,0,0,0,nan,2,0.252,0,0,0,0,0,0,0,0,0,1,2,1,1,2,4,5,nan,0.03,nan,-0.083,0,0,3,4,0,-0.083,0,36
49.104,0.001029,0.00390625,-0.001953125,-0.005859375,0.0546875,0.1484375,9.75,0.001953125,0,0,nan,nan,nan,0.01123047,0.006103516,-0.0826416,0,0,-0.0826416,0,4.09,0,0,0,0,nan,2,0.262,0,0,0,0,0,0,0,0,0,1,2,1,1,2,4,5,nan,0.04,nan,-0.083,0,0,2,4,0,-0.083,0,36
49.115,0.001096,-0.001953125,0.00390625,0.00390625,0.0546875,0.0390625,9.765625,0,0,0.001953125,nan,nan,nan,0.01123047,0.006103516,-0.0826416,0,0,-0.0826416,0,4.09,0,0,0,0,nan,2,0.273,0,0,0,0,0,0,0,0,0,1,2,1,1,2,4,5,nan,0.05,nan,-0.083,0,0,2,4,0,-0.083,0,36
49.125,0.001138,0.005859375,0.001953125,-0.00390625,0.046875,0.0625,9.78125,0,0.001953125,0,nan,nan,nan,0.0111084,0.005981445,-0.0826416,0,0,-0.0826416,0,4.09,0,0,0,0,nan,2,0.283,0,0,0,0,0,0,0,0,0,1,2,1,1,2,4,5,nan,0.06,nan,-0.083,0,0,3,4,0,-0.083,0,36
49.135,0.001025,-0.001953125,0.001953125,0.005859375,0.0234375,0.0859375,9.804688,-0.001953125,0.001953125,0.001953125,nan,nan,nan,0.0111084,0.005981445,-0.0826416,0,0,-0.0826416,0,4.09,0,0,0,0,nan,2,0.293,0,0,0,0,0,0,0,0,0,1,2,1,1,2,4,5,nan,0.06,nan,-0.083,0,0,2,4,0,-0.083,0,36
49.144,0.000957,0.001953125,-0.001953125,-0.005859375,0.078125,0.0703125,9.757812,0.001953125,0,-0.001953125,nan,nan,nan,0.0111084,0.005859375,-0.0826416,0,0,-0.0826416,0,4.09,0,0,0,0,nan,2,0.302,0,0,0,0,0,0,0,0,0,1,2,1,1,2,4,5,nan,0.06,nan,-0.083,0,0,2,4,0,-0.083,0,36
49.155,0.001205,0,0.001953125,0.00390625,0.1484375,0.1484375,9.773438,0,0,0.001953125,nan,nan,nan,0.0111084,0.005859375,-0.0826416,0,0,-0.0826416,0,4.09,0,0,0,0,nan,2,0.313,0,0,0,0,0,0,0,0,0,1,2,1,1,2,4,5,nan,0.04,nan,-0.083,0,0,3,4,0,-0.083,0,36
49.165,0.000932,0,-0.00390625,-0.00390625,0,0.0546875,9.765625,0.001953125,-0.001953125,-0.001953125,nan,nan,nan,0.0111084,0.005859375,-0.0826416,0,0,-0.0826416,0,4.09,0,0,0,0,nan,2,0.323,0,0,0,0,0,0,0,0,0,1,2,1,1,2,4,5,nan,0.03,nan,-0.083,0,0,2,4,0,-0.083,0,36
49.175,0.001033,-0.001953125,0,0,0.0703125,0.1015625,9.765625,-0.001953125,0,0.001953125,nan,nan,nan,0.0111084,0.005737305,-0.0826416,0,0,-0.0826416,0,4.09,0,0,0,0,nan,2,0.333,0,0,0,0,0,0,0,0,0,1,2,1,1,2,4,5,nan,0.02,nan,-0.083,0,0,2,4,0,-0.083,0,36
49.184,0.001493,0.00390625,0,-0.001953125,-0.03125,0.03125,9.75,0.001953125,0,-0.00390625,nan,nan,nan,0.0111084,0.005737305,-0.0826416,0,0,-0.0826416,0,4.09,0,0,0,0,nan,2,0.342,0,0,0,0,0,0,0,0,0,1,2,1,1,2,4,5,nan,0.01,nan,-0.083,0,0,3,4,0,-0.083,0,36
49.194,0.001464,0.001953125,-0.001953125,0.001953125,0.09375,0.1484375,9.773438,0,0,0.001953125,nan,nan,nan,0.0111084,0.005615234,-0.0826416,0,0,-0.0826416,0,4.09,0,0,0,0,nan,2,0.353,0,0,0,0,0,0,0,0,0,1,2,1,1,2,4,5,nan,0,nan,-0.083,0,0,3,4,0,-0.083,0,36
49.204,0.001084,0,0.001953125,0.001953125,-0.0078125,0.0625,9.804688,0.001953125,0,0,nan,nan,nan,0.0111084,0.005615234,-0.0826416,0,0,-0.0826416,0,4.09,0,0,0,0,nan,2,0.362,0,0,0,0,0,0,0,0,0,1,2,1,1,2,4,5,nan,-0.02,nan,-0.083,0,0,2,4,0,-0.083,0,36
49.215,0.001016,0.001953125,-0.001953125,0,0.0625,0.1015625,9.859375,0,0,0.001953125,nan,nan,nan,0.0111084,0.005493164,-0.0826416,0,0,-0.0826416,0,4.09,0,0,0,0,nan,2,0.372,0,0,0,0,0,0,0,0,0,1,2,1,1,2,4,5,nan,-0.03,nan,-0.083,0,0,3,4,0,-0.083,0,36
49.225,0.001032,0.00390625,0,0,0.03125,0.078125,9.804688,0.00390625,0,-0.001953125,nan,nan,nan,0.0111084,0.005493164,-0.0826416,0,0,-0.0826416,0,4.09,0,0,0,0,nan,2,0.382,0,0,0,0,0,0,0,0,0,1,2,1,1,2,4,5,nan,-0.04,nan,-0.083,0,0,3,4,0,-0.083,0,36
49.235,0.001009,-0.001953125,-0.001953125,-0.001953125,0.03125,0.109375,9.773438,0,0,0,nan,nan,nan,0.0111084,0.005493164,-0.0826416,0,0,-0.0826416,0,4.09,0,0,0,0,nan,2,0.393,0,0,0,0,0,0,0,0,0,1,2,1,1,2,4,5,nan,-0.05,nan,-0.083,0,0,3,4,0,-0.083,0,36
49.245,0.00089,-0.001953125,0,0.001953125,0.046875,0.1171875,9.828125,0,0.001953125,0.001953125,nan,nan,nan,0.0111084,0.005371094,-0.0826416,0,0,-0.0826416,0,4.09,0,0,0,0,nan,2,0.403,0,0,0,0,0,0,0,0,0,1,2,1,1,2,4,5,nan,-0.04,nan,-0.083,0,0,4,4,0,-0.083,0,36
49.255,0.001003,0,0,-0.00390625,-0.015625,0.046875,9.820312,0,0,-0.001953125,nan,nan,nan,0.0111084,0.005371094,-0.0826416,0,0,-0.0826416,0,4.09,0,0,0,0,nan,2,0.413,0,0,0,0,0,0,0,0,0,1,2,1,1,2,4,5,nan,-0.04,nan,-0.083,0,0,3,4,0,-0.083,0,36
49.265,0.000942,0,0.001953125,0.00390625,0.0390625,0.1171875,9.835938,0,0,0.001953125,nan,nan,nan,0.01098633,0.005371094,-0.0826416,0,0,-0.0826416,0,4.09,0,0,0,0,nan,2,0.423,0,0,0,0,0,0,0,0,0,1,2,1,1,2,4,5,nan,-0.03,nan,-0.083,0,0,2,4,0,-0.083,0,36
49.275,0.001031,0.001953125,0,0,0.0703125,0.0546875,9.804688,0.001953125,0,0,nan,nan,nan,0.01098633,0.005249023,-0.0826416,0,0,-0.0826416,0,4.09,0,0,0,0,nan,2,0.433,0,0,0,0,0,0,0,0,0,1,2,1,1,2,4,5,nan,-0.03,nan,-0.083,0,0,3,4,0,-0.083,0,36
49.285,0.001036,0.001953125,0,-0.001953125,0.0703125,0.1171875,9.796875,0.001953125,0,0,nan,nan,nan,0.01098633,0.005249023,-0.0826416,0,0,-0.0826416,0,4.09,0,0,0,0,nan,2,0.443,0,0,0,0,0,0,0,0,0,1,2,1,1,2,4,5,nan,-0.02,nan,-0.083,0,0,3,4,0,-0.083,0,36
49.294,0.000976,-0.001953125,-0.001953125,-0.001953125,0.0078125,0.0703125,9.789062,0,0,-0.001953125,nan,nan,nan,0.01098633,0.005126953,-0.0826416,0,0,-0.0826416,0,4.09,0,0,0,0,nan,2,0.453,0,0,0,0,0,0,0,0,0,1,2,1,1,2,4,5,nan,0,nan,-0.083,0,0,1,4,0,-0.083,0,36
49.304,0.001045,0,0,0.001953125,0.078125,0.09375,9.84375,0,0,0.001953125,nan,nan,nan,0.01098633,0.005126953,-0.0826416,0,0,-0.0826416,0,4.09,0,0,0,0,nan,2,0.462,0,0,0,0,0,0,0,0,0,1,2,1,1,2,4,5,nan,0.01,nan,-0.083,0,0,2,4,0,-0.083,0,36
49.314,0.001047,0.001953125,0,0,0.0078125,0.09375,9.773438,0.001953125,0,0,nan,nan,nan,0.01098633,0.005126953,-0.0826416,0,0,-0.0826416,0,4.09,0,0,0,0,nan,2,0.472,0,0,0,0,0,0,0,0,0,1,2,1,1,2,4,5,nan,0.02,nan,-0.083,0,0,2,4,0,-0.083,0,36
49.324,0.001016,0,-0.001953125,-0.001953125,0.0859375,0.09375,9.773438,0,0,0,nan,nan,nan,0.01098633,0.005004883,-0.0826416,0,0,-0.0826416,0,4.09,0,0,0,0,nan,2,0.482,0,0,0,0,0,0,0,0,0,1,2,1,1,2,4,5,nan,0.02,nan,-0.083,0,0,1,4,0,-0.083,0,36
