t,dt_s,gyro_x,gyro_y,gyro_z,acc_x,acc_y,acc_z,rates.x,rates.y,rates.z,ratesTarget.x,ratesTarget.y,ratesTarget.z,attitude.x,attitude.y,attitude.z,attitudeTarget.x,attitudeTarget.y,attitudeTarget.z,thrustTarget,battery_v,rc_roll,rc_pitch,rc_yaw,rc_throttle,rc_mode,flight_mode,rc_age_s,armed,fault_mask,motor_rl,motor_rr,motor_fr,motor_fl,rate_i_x,rate_i_y,rate_i_z,mix_scale,control_source,accel_correction_confidence
1557.953,0.001,0.08007812,-0.03710938,0.046875,0.75,-0.75,9.507812,0.046875,-0.015625,0.05078125,-0.01171875,-0.04882812,0,0.002075195,0.008056641,0.2645264,0,0,0.1210938,0.3105164,4.077,0,0,0,0.2999878,nan,2,9.372,1,128,0.2496948,0.359375,0.3667908,0.2662354,-0.04296875,-0.009765625,0,1,3,0.3968254
1557.963,0.001,-0.1054688,0.08203125,0.01757812,0.5546875,1.015625,8.0625,-0.02148438,0.01367188,0.03515625,-0.01171875,-0.04882812,0,0.002075195,0.00793457,0.2650146,0,0,0.1210938,0.3105164,4.077,0,0,0,0.2999878,nan,2,9.382,1,128,0.2489014,0.3383789,0.3575439,0.2973022,-0.04296875,-0.009765625,0,1,3,0
1557.973,0.001006,0.04492188,-0.01953125,-0.06835938,-0.6484375,-1.476562,8.46875,0.03515625,-0.00390625,-0.02734375,-0.01367188,-0.04882812,0,0.002319336,0.008056641,0.2651367,0,0,0.1210938,0.3105164,4.077,0,0,0,0.2999878,nan,2,9.392,1,128,0.1669312,0.431488,0.2852478,0.3584595,-0.04296875,-0.009765625,0,1,3,0
1557.984,0.000871,0.1660156,-0.0859375,-0.04101562,0.65625,2.851562,9.195312,0.04492188,-0.02148438,-0.05078125,-0.015625,-0.046875,0,0.002441406,0.00793457,0.2646484,0,0,0.1210938,0.3105164,4.077,0,0,0,0.2999878,nan,2,9.402,1,128,0.2240601,0.3804626,0.3449707,0.2926025,-0.04296875,-0.009765625,0,1,3,0.2698413
1557.994,0.001032,0.1035156,-0.01367188,-0.109375,0.2109375,-2.914062,7.945312,0.04492188,0.00390625,-0.1191406,-0.015625,-0.04882812,0,0.002563477,0.008178711,0.2635498,0,0,0.1210938,0.3105164,4.077,0,0,0,0.2999878,nan,2,9.412,1,128,0.1821594,0.4180603,0.3098145,0.3320618,-0.04296875,-0.009765625,0,1,3,0
1558.004,0.001007,-0.01171875,-0.005859375,0.001953125,-1.484375,1.914062,13.14062,-0.015625,-0.00390625,-0.04882812,-0.015625,-0.04882812,0,0.002685547,0.008178711,0.2626953,0,0,0.1210938,0.3105164,4.077,0,0,0,0.2999878,nan,2,9.422,1,128,0.3198547,0.2773743,0.4207458,0.2241211,-0.04296875,-0.009765625,0,1,3,0
1558.014,0.001007,0.1035156,-0.0234375,0.1425781,0.8515625,0.015625,8.226562,0.09570312,-0.00390625,0.08398438,-0.01757812,-0.04882812,0,0.003051758,0.008178711,0.2629395,0,0,0.1210938,0.3105164,4.077,0,0,0,0.2999878,nan,2,9.432,1,128,0.3836365,0.2158813,0.5280457,0.1145325,-0.04296875,-0.009765625,0,1,3,0
1558.024,0.001007,0.03125,-0.01953125,0.2207031,0.8125,-1.476562,10.78125,0.005859375,0.00390625,0.1855469,-0.01953125,-0.04882812,0,0.003173828,0.008300781,0.2644043,0,0,0.1210938,0.3105164,4.077,0,0,0,0.2999878,nan,2,9.442,1,128,0.4115601,0.1839294,0.5252991,0.1213074,-0.04296875,-0.009765625,0,1,3,0
1558.034,0.001008,0.001953125,-0.03320312,0.1074219,-1.3125,1.257812,10.42188,-0.04882812,0,0.1425781,-0.015625,-0.04882812,0,0.002685547,0.008300781,0.2661133,0,0,0.1210938,0.3105164,4.077,0,0,0,0.2999878,nan,2,9.453,1,128,0.246521,0.3502197,0.3528137,0.292572,-0.04296875,-0.01074219,0,1,3,0
1558.043,0.00101,0.08398438,0.01953125,0.04296875,0.5703125,1.21875,9.296875,0.01757812,0.009765625,0.05859375,-0.015625,-0.05078125,0,0.002563477,0.008300781,0.2669678,0,0,0.1210938,0.3105164,4.077,0,0,0,0.2999878,nan,2,9.462,1,128,0.1884766,0.4042358,0.3234863,0.3259277,-0.04296875,-0.01074219,0,1,3,0.1428571
1558.053,0.001003,0.009765625,0.04296875,0.0703125,-1.992188,-0.1484375,13.45312,-0.0078125,0.03125,0.05859375,-0.015625,-0.05078125,0,0.002685547,0.008422852,0.2675781,0,0,0.1210938,0.3105164,4.077,0,0,0,0.2999878,nan,2,9.472,1,128,0.2615356,0.3214417,0.3827515,0.2763672,-0.04296875,-0.01074219,0,1,3,0
1558.063,0.0009869999,-0.02929688,-0.0078125,0.08398438,1.09375,-0.7265625,7.664062,-0.00390625,-0.001953125,0.0703125,-0.015625,-0.05078125,0,0.002563477,0.008666992,0.2681885,0,0,0.1210938,0.3105164,4.077,0,0,0,0.2999878,nan,2,9.482,1,128,0.29245,0.307373,0.4031982,0.2390747,-0.04296875,-0.01074219,0,1,3,0
1558.073,0.00101,-0.05273438,-0.00390625,0.03125,-2.296875,-0.2109375,10.28906,-0.0078125,-0.001953125,0.05078125,-0.015625,-0.05078125,0,0.002563477,0.008544922,0.2687988,0,0,0.1210938,0.3105164,4.077,0,0,0,0.2999878,nan,2,9.492,1,128,0.2455444,0.3499146,0.3558655,0.2907715,-0.04296875,-0.01074219,0,1,3,0
1558.084,0.001016,-0.1054688,0.05273438,-0.03125,1.398438,-0.5078125,8.601562,-0.01953125,0.009765625,-0.0078125,-0.01367188,-0.05273438,0,0.002441406,0.008666992,0.269043,0,0,0.1210938,0.3105164,4.077,0,0,0,0.2999878,nan,2,9.502,1,128,0.1967468,0.3914185,0.308197,0.3457642,-0.04296875,-0.01074219,0,1,3,0
1558.093,0.001227,0.0859375,-0.0859375,-0.0390625,-1.835938,0.84375,8.992188,-0.0078125,0.001953125,-0.03125,-0.01367188,-0.05273438,0,0.002075195,0.008789062,0.2687988,0,0,0.1210938,0.3105164,4.077,0,0,0,0.2999878,nan,2,9.511,1,128,0.2142029,0.3823853,0.3326721,0.3128662,-0.04296875,-0.01074219,0,1,3,0
1558.103,0.001148,0.009765625,-0.03710938,-0.03515625,1.453125,-0.890625,8.039062,-0.02148438,-0.046875,-0.04882812,-0.01171875,-0.05078125,0,0.002075195,0.008300781,0.2683105,0,0,0.1210938,0.3105164,4.077,0,0,0,0.2999878,nan,2,9.521,1,128,0.2399902,0.36203,0.3409729,0.2991028,-0.04296875,-0.01074219,0,1,3,0
1558.114,0.001039,0.07617188,-0.05078125,-0.005859375,-0.3515625,-1.734375,8.75,0.04492188,-0.03125,-0.01953125,-0.01367188,-0.046875,0,0.002319336,0.00793457,0.2680664,0,0,0.1210938,0.3105164,4.077,0,0,0,0.2999878,nan,2,9.532,1,128,0.254303,0.3424683,0.3812561,0.2640686,-0.04296875,-0.01074219,0,1,3,0
1558.123,0.00102,-0.009765625,-0.01171875,-0.09960938,1.015625,1.328125,8.929688,0.04882812,-0.05273438,-0.0625,-0.01757812,-0.04492188,0,0.003051758,0.007446289,0.2677002,0,0,0.1210938,0.3105164,4.072,0,0,0,0.2999878,nan,2,9.541,1,128,0.1844177,0.4163208,0.291748,0.3496399,-0.04296875,-0.01074219,0,1,3,0
1558.134,0.001037,-0.1796875,0.1171875,-0.0234375,-0.296875,-2.515625,10.60938,-0.05859375,0.04296875,-0.05078125,-0.01953125,-0.04296875,0,0.003173828,0.007202148,0.2669678,0,0,0.1210938,0.3105164,4.072,0,0,0,0.2999878,nan,2,9.553,1,128,0.2635498,0.3040161,0.3700867,0.3044739,-0.04296875,-0.01074219,0,1,3,0
1558.143,0.001006,-0.005859375,-0.1015625,0.001953125,1.742188,0.4765625,7.046875,0.0078125,-0.0390625,-0.009765625,-0.01757812,-0.04492188,0,0.003051758,0.007324219,0.2667236,0,0,0.1210938,0.3105164,4.072,0,0,0,0.2999878,nan,2,9.562,1,128,0.300354,0.3165283,0.3971558,0.2280579,-0.04296875,-0.01074219,0,1,3,0
1558.153,0.001017,0.0390625,0.01367188,0.00390625,-1.476562,0.6640625,11.36719,0.01757812,-0.00390625,-0.001953125,-0.01757812,-0.04101562,0,0.003051758,0.006835938,0.2666016,0,0,0.1210938,0.3105164,4.072,0,0,0,0.2999878,nan,2,9.572,1,128,0.2622681,0.318512,0.3985291,0.2627869,-0.04296875,-0.01074219,0,1,3,0
1558.164,0.001081,0.1210938,-0.0703125,0.1054688,0.84375,-1.34375,5.421875,-0.00390625,0.01171875,0.06054688,-0.01757812,-0.04101562,0,0.002929688,0.006835938,0.2668457,0,0,0.1210938,0.3105164,4.072,0,0,0,0.2999878,nan,2,9.582,1,128,0.3403625,0.2502441,0.4658203,0.1856689,-0.04296875,-0.01074219,0,1,3,0
1558.173,0.001007,0.01757812,-0.03710938,0.1445312,-0.296875,0.9296875,14.40625,-0.005859375,-0.015625,0.1269531,-0.01757812,-0.04101562,0,0.003051758,0.006713867,0.2678223,0,0,0.1210938,0.3105164,4.072,0,0,0,0.2999878,nan,2,9.592,1,128,0.3625488,0.2382202,0.4682007,0.1731262,-0.04296875,-0.01074219,0,1,3,0
1558.183,0.001007,-0.09375,-0.015625,0.1035156,0.515625,2.703125,8.742188,-0.04492188,0.001953125,0.1210938,-0.01757812,-0.04101562,0,0.002929688,0.006713867,0.269165,0,0,0.1210938,0.3105164,4.072,0,0,0,0.2999878,nan,2,9.602,1,128,0.2836609,0.3097839,0.3804016,0.2682495,-0.04296875,-0.01074219,0,1,3,0
1558.194,0.001007,0.1210938,-0.03515625,0.01367188,0.9296875,-1.648438,8.84375,0.03320312,0.001953125,0.05664062,-0.015625,-0.04101562,0,0.002685547,0.006835938,0.2701416,0,0,0.1210938,0.3105164,4.072,0,0,0,0.2999878,nan,2,9.612,1,128,0.1817322,0.4190063,0.3128967,0.3284912,-0.04296875,-0.01074219,0,1,3,0
1558.204,0.001007,-0.1582031,0.1328125,-0.04492188,-1.21875,0.0078125,11.98438,-0.01757812,0.02148438,-0.0234375,-0.01953125,-0.0390625,0,0.003173828,0.006713867,0.2702637,0,0,0.1210938,0.3105164,4.072,0,0,0,0.2999878,nan,2,9.622,1,128,0.1811218,0.3953552,0.2888184,0.3768311,-0.04296875,-0.01074219,0,1,3,0
1558.214,0.001007,0.07421875,-0.08203125,-0.1210938,0.515625,2.492188,8.460938,0.0234375,-0.05078125,-0.09960938,-0.01953125,-0.0390625,0,0.003173828,0.006469727,0.2696533,0,0,0.1210938,0.3105164,4.072,0,0,0,0.2999878,nan,2,9.632,1,128,0.1525574,0.4601135,0.2601929,0.3692322,-0.04296875,-0.01074219,0,1,3,0
1558.224,0.001007,-0.0859375,-0.01953125,-0.06835938,1.4375,-2.5,8.90625,-0.01757812,-0.02539062,-0.0703125,-0.01953125,-0.03710938,0,0.003173828,0.006225586,0.2686768,0,0,0.1210938,0.3105164,4.072,0,0,0,0.2999878,nan,2,9.642,1,128,0.2610474,0.3377686,0.365387,0.2778625,-0.04296875,-0.01074219,0,1,3,0.06349207
1558.234,0.001007,-0.03515625,0.07226562,-0.08984375,-2.8125,0.09375,10.53125,-0.02148438,0.01953125,-0.0859375,-0.01757812,-0.03710938,0,0.002807617,0.006103516,0.2678223,0,0,0.1210938,0.3105164,4.072,0,0,0,0.2999878,nan,2,9.653,1,128,0.2163696,0.3655701,0.3433228,0.316803,-0.04296875,-0.01074219,0,1,3,0
1558.243,0.00102,0.046875,0.03710938,-0.03125,1.953125,0.078125,9.703125,0.04492188,0.02929688,-0.0625,-0.01757812,-0.03710938,0,0.002929688,0.006347656,0.2670898,0,0,0.1210938,0.3105164,4.072,0,0,0,0.2999878,nan,2,9.662,1,128,0.2580261,0.3286438,0.3983765,0.2570801,-0.04394531,-0.01074219,0,1,3,0.5079365
1558.253,0.00101,-0.1054688,0.1074219,-0.1035156,-1.304688,1.585938,11.82031,-0.0390625,0.0546875,-0.05859375,-0.01953125,-0.0390625,0,0.003173828,0.006469727,0.2667236,0,0,0.1210938,0.3105164,4.072,0,0,0,0.2999878,nan,2,9.672,1,128,0.2108765,0.3612976,0.3231506,0.3467712,-0.04394531,-0.01074219,0,1,3,0
1558.263,0.001003,0.06054688,-0.06835938,-0.125,0.78125,-2.359375,8.75,0.06054688,0.009765625,-0.09960938,-0.01757812,-0.04296875,0,0.002929688,0.007080078,0.2658691,0,0,0.1210938,0.3105164,4.072,0,0,0,0.2999878,nan,2,9.682,1,128,0.1665039,0.442749,0.2912903,0.3415833,-0.04394531,-0.01074219,0,1,3,0
1558.273,0.00101,0.01953125,0.04296875,-0.09765625,-0.4375,3.96875,12.35156,0.046875,0.02148438,-0.09765625,-0.02148438,-0.04101562,0,0.003540039,0.006835938,0.2648926,0,0,0.1210938,0.3105164,4.072,0,0,0,0.2999878,nan,2,9.692,1,128,0.2181702,0.358429,0.355896,0.3095703,-0.04394531,-0.01074219,0,1,3,0
1558.283,0.00101,-0.0234375,-0.001953125,-0.1152344,1.226562,-2.648438,7.953125,0.01171875,-0.02929688,-0.09570312,-0.02148438,-0.04101562,0,0.003540039,0.006713867,0.263916,0,0,0.1210938,0.3105164,4.072,0,0,0,0.2999878,nan,2,9.702,1,128,0.2086487,0.3933716,0.3164978,0.3235779,-0.04394531,-0.01074219,0,1,3,0
1558.293,0.00101,-0.07226562,0.1015625,-0.009765625,-1.234375,2.023438,11.15625,0.015625,0.02734375,-0.04882812,-0.0234375,-0.0390625,0,0.00390625,0.006469727,0.2631836,0,0,0.1210938,0.3105164,4.072,0,0,0,0.2999878,nan,2,9.712,1,128,0.2869873,0.2839355,0.4198914,0.2512817,-0.04394531,-0.01171875,0,1,3,0
1558.304,0.00101,-0.1308594,-0.015625,0.0234375,0.5859375,0.2734375,8.265625,0.005859375,-0.046875,0.02539062,-0.02734375,-0.03710938,0,0.004394531,0.006347656,0.2631836,0,0,0.1210938,0.3105164,4.072,0,0,0,0.2999878,nan,2,9.722,1,128,0.323822,0.2819519,0.4129028,0.2233887,-0.04394531,-0.01171875,0,1,3,0
1558.314,0.001035,-0.0859375,0.0625,-0.00390625,-1.195312,1.21875,13.1875,-0.005859375,-0.005859375,-0.001953125,-0.02734375,-0.03515625,0,0.004516602,0.005981445,0.2633057,0,0,0.1210938,0.3105164,4.072,0,0,0,0.2999878,nan,2,9.732,1,128,0.238739,0.3462524,0.3556519,0.3014526,-0.04394531,-0.01171875,0,1,3,0
1558.323,0.000899,-0.03320312,0.01757812,0.00390625,0.5390625,0.8359375,8.578125,-0.01367188,0.03125,0.005859375,-0.02734375,-0.03710938,0,0.004516602,0.006347656,0.2633057,0,0,0.1210938,0.3105164,4.072,0,0,0,0.2999878,nan,2,9.741,1,128,0.2530823,0.33255,0.3763733,0.2800903,-0.04394531,-0.01171875,0,1,3,0
1558.333,0.00093,-0.05078125,-0.05078125,-0.009765625,0.15625,-1.65625,10.40625,0.02734375,-0.04296875,-0.00390625,-0.02734375,-0.03710938,0,0.004394531,0.006347656,0.2633057,0,0,0.1210938,0.3105164,4.072,0,0,0,0.2999878,nan,2,9.752,1,128,0.2489319,0.3656006,0.3569641,0.2705688,-0.04394531,-0.01171875,0,1,3,0
1558.343,0.001009,-0.1113281,0.06835938,-0.001953125,0.28125,0.921875,7.710938,-0.046875,0.02929688,-0.00390625,-0.02734375,-0.03710938,0,0.004394531,0.006103516,0.2631836,0,0,0.1210938,0.3105164,4.072,0,0,0,0.2999878,nan,2,9.762,1,128,0.257019,0.3166809,0.3700562,0.2983093,-0.04394531,-0.01171875,0,1,3,0
1558.353,0.001005,0.1054688,-0.001953125,0.001953125,0.0703125,-0.8125,10.71875,-0.0078125,0.02929688,-0.01367188,-0.0234375,-0.03710938,0,0.00402832,0.006347656,0.2631836,0,0,0.1210938,0.3105164,4.072,0,0,0,0.2999878,nan,2,9.772,1,128,0.2284546,0.3597412,0.3587341,0.295166,-0.04394531,-0.01171875,0,1,3,0
1558.363,0.001007,0.03320312,-0.09960938,0.03320312,0.6171875,0.578125,7.875,0.03710938,-0.03320312,0.01757812,-0.02539062,-0.03710938,0,0.004272461,0.006225586,0.2631836,0,0,0.1210938,0.3105164,4.072,0,0,0,0.2999878,nan,2,9.782,1,128,0.2876282,0.3236084,0.4033508,0.2275391,-0.04394531,-0.01171875,0,1,3,0
1558.373,0.001008,-0.05078125,0.03125,0.05664062,-0.4296875,-1.15625,11.10938,-0.02148438,0.01953125,0.05273438,-0.02539062,-0.0390625,0,0.004150391,0.006347656,0.2635498,0,0,0.1210938,0.3105164,4.072,0,0,0,0.2999878,nan,2,9.792,1,128,0.2974548,0.2908325,0.4130249,0.2408142,-0.04394531,-0.01171875,0,1,3,0
1558.383,0.001008,0.03320312,-0.001953125,0.09765625,1.007812,-0.15625,8.804688,0.04101562,-0.02148438,0.07617188,-0.02734375,-0.03710938,0,0.004394531,0.006347656,0.2642822,0,0,0.1210938,0.3105164,4.072,0,0,0,0.2999878,nan,2,9.802,1,128,0.300415,0.2981567,0.4267578,0.2167664,-0.04394531,-0.01171875,0,1,3,0
1558.393,0.001008,-0.03125,0.06445312,0.1035156,-1.101562,-1.0625,10.67969,-0.03125,0.03515625,0.09765625,-0.02539062,-0.03710938,0,0.004150391,0.006225586,0.2651367,0,0,0.1210938,0.3105164,4.072,0,0,0,0.2999878,nan,2,9.812,1,128,0.2949524,0.2833252,0.4157715,0.2480774,-0.04394531,-0.01171875,0,1,3,0
1558.404,0.001008,0.001953125,-0.06445312,0.03710938,0.375,-1.375,11.21094,0.009765625,-0.02734375,0.0546875,-0.0234375,-0.0390625,0,0.00402832,0.006347656,0.2658691,0,0,0.1210938,0.3105164,4.072,0,0,0,0.2999878,nan,2,9.822,1,128,0.2361145,0.3718567,0.3493652,0.2847595,-0.04394531,-0.01171875,0,1,3,0
1558.414,0.001008,-0.009765625,0.06054688,-0.005859375,-0.59375,6.078125,15.21875,0.009765625,0.02539062,0.005859375,-0.02539062,-0.03710938,0,0.004150391,0.006225586,0.2662354,0,0,0.1210938,0.3105164,4.072,0,0,0,0.2999878,nan,2,9.832,1,128,0.190155,0.3864136,0.3268738,0.3386536,-0.04394531,-0.01171875,0,1,3,0
1558.424,0.001008,-0.05078125,0.05859375,-0.05859375,1.296875,-3.875,8.25,-0.05078125,0.05273438,-0.0546875,-0.02148438,-0.0390625,0,0.00378418,0.006591797,0.2658691,0,0,0.1210938,0.3105164,4.072,0,0,0,0.2999878,nan,2,9.842,1,128,0.192749,0.3886719,0.3069763,0.3536987,-0.04394531,-0.01171875,0,1,3,0
1558.434,0.001008,0.06054688,-0.08007812,0.04492188,-0.9375,3.101562,11.70312,0.078125,-0.05273438,0.015625,-0.02539062,-0.0390625,0,0.004272461,0.006591797,0.2657471,0,0,0.1210938,0.3105164,4.072,0,0,0,0.2999878,nan,2,9.853,1,128,0.3119812,0.3041687,0.4247742,0.2011719,-0.04394531,-0.01171875,0,1,3,0
1558.443,0.00101,-0.0703125,0.1035156,0.06835938,0.375,-2.265625,9.375,-0.02539062,0.02539062,0.05859375,-0.02929688,-0.03710938,0,0.004760742,0.006225586,0.2661133,0,0,0.1210938,0.3105164,4.072,0,0,0,0.2999878,nan,2,9.862,1,128,0.3076477,0.2616577,0.4212646,0.2514954,-0.04394531,-0.01171875,0,1,3,0.6190476
1558.453,0.001009,0.1035156,-0.1445312,0.07226562,-0.15625,3.960938,10.85938,0.046875,-0.0625,0.08203125,-0.02734375,-0.03710938,0,0.004760742,0.006225586,0.2668457,0,0,0.1210938,0.3105164,4.072,0,0,0,0.2999878,nan,2,9.872,1,128,0.294281,0.3274841,0.4066162,0.2137146,-0.04394531,-0.01171875,0,1,3,0
1558.463,0.001008,-0.08789062,0.1289062,-0.04882812,-0.03125,-4.289062,11.34375,-0.05078125,0.03515625,0,-0.02929688,-0.03515625,0,0.004882812,0.005981445,0.267334,0,0,0.1210938,0.3105164,4.072,0,0,0,0.2999878,nan,2,9.882,1,128,0.158844,0.410675,0.2760925,0.3965149,-0.04394531,-0.01171875,0,1,3,0
1558.473,0.000996,-0.0078125,0.09375,0.04101562,0.578125,1.710938,8.929688,-0.05078125,0.05664062,0.015625,-0.02539062,-0.0390625,0,0.004272461,0.006469727,0.267334,0,0,0.1210938,0.3105164,4.072,0,0,0,0.2999878,nan,2,9.892,1,128,0.2773743,0.3019104,0.4049377,0.257843,-0.04394531,-0.01171875,0,1,3,0
1558.484,0.001052,0.1171875,-0.08398438,0.0859375,-0.1796875,-3.632812,12.01562,0.05273438,-0.04296875,0.0625,-0.02734375,-0.0390625,0,0.004516602,0.006469727,0.2677002,0,0,0.1210938,0.3105164,4.072,0,0,0,0.2999878,nan,2,9.902,1,128,0.3097839,0.3009949,0.4367371,0.1946106,-0.04394531,-0.01171875,0,1,3,0
1558.494,0.000908,-0.06835938,0.05859375,0.009765625,0.53125,0.6328125,9.21875,-0.01171875,0.02734375,0.02539062,-0.02734375,-0.03710938,0,0.004638672,0.006225586,0.2681885,0,0,0.1210938,0.3105164,4.072,0,0,0,0.2999878,nan,2,9.912,1,128,0.2269897,0.3465881,0.3534851,0.3150635,-0.04394531,-0.01171875,0,1,3,0
1558.504,0.001011,0.0703125,-0.0390625,0.03125,-1.265625,-1.1875,8.304688,0.03515625,-0.015625,0.015625,-0.02929688,-0.03710938,0,0.004760742,0.006225586,0.2683105,0,0,0.1210938,0.3105164,4.072,0,0,0,0.2999878,nan,2,9.922,1,128,0.2505493,0.3491211,0.3781433,0.2642822,-0.04394531,-0.01171875,0,1,3,0
1558.514,0.001012,0.02148438,-0.02734375,0.0234375,0.84375,-0.1796875,8.492188,0.015625,0,0.01367188,-0.02929688,-0.03710938,0,0.005004883,0.006103516,0.2684326,0,0,0.1210938,0.3105164,4.072,0,0,0,0.2999878,nan,2,9.932,1,128,0.2510986,0.3386536,0.3768921,0.2754517,-0.04394531,-0.01171875,0,1,3,0
1558.524,0.001012,0.02734375,-0.00390625,0.09960938,-1.640625,-1.085938,8.5625,0.01953125,0.01757812,0.07421875,-0.02929688,-0.03710938,0,0.004760742,0.006347656,0.2687988,0,0,0.1210938,0.3105164,4.072,0,0,0,0.2999878,nan,2,9.942,1,128,0.3363953,0.2541199,0.4725647,0.1789856,-0.04394531,-0.01171875,0,1,3,0
1558.534,0.001012,0.01367188,-0.04101562,0.140625,1.515625,0.0234375,10.67969,0.01757812,-0.03125,0.1347656,-0.02929688,-0.03710938,0,0.004882812,0.006225586,0.2698975,0,0,0.1210938,0.3105164,4.072,0,0,0,0.2999878,nan,2,9.952,1,128,0.3540344,0.250946,0.466156,0.17099,-0.04492188,-0.01171875,0,1,3,0
1558.543,0.00101,-0.07226562,0.001953125,0.1035156,0.671875,3.882812,11.82812,-0.04101562,0.02148438,0.1230469,-0.02929688,-0.03710938,0,0.005004883,0.006103516,0.2711182,0,0,0.1210938,0.3105164,4.072,0,0,0,0.2999878,nan,2,9.962,1,128,0.2724609,0.30896,0.3795471,0.2811584,-0.04492188,-0.01171875,0,1,3,0
1558.553,0.001013,-0.09179688,0.01757812,0.04296875,-0.703125,-2.78125,10.14844,-0.03710938,-0.00390625,0.04882812,-0.02734375,-0.03710938,0,0.004638672,0.005981445,0.2718506,0,0,0.1210938,0.3105164,4.072,0,0,0,0.2999878,nan,2,9.972,1,128,0.2150574,0.3743591,0.3334351,0.3192444,-0.04492188,-0.01171875,0,1,3,0
1558.563,0.001001,0.02929688,0.015625,-0.005859375,0.8984375,0.8515625,8.140625,0.001953125,0.00390625,-0.0078125,-0.02734375,-0.03515625,0,0.004516602,0.005859375,0.2720947,0,0,0.1210938,0.3105164,4.072,0,0,0,0.2999878,nan,2,9.982,1,128,0.1939697,0.3904419,0.3258667,0.3318176,-0.04492188,-0.01171875,0,1,3,0
1558.573,0.001005,0.01953125,0.07226562,0.005859375,-0.78125,-3.140625,8.429688,-0.03320312,0.05078125,-0.01171875,-0.02539062,-0.03710938,0,0.004150391,0.006225586,0.2718506,0,0,0.1210938,0.3105164,4.072,0,0,0,0.2999878,nan,2,9.992,1,128,0.2452698,0.3327637,0.3774414,0.2866211,-0.04492188,-0.01269531,0,1,3,0
1558.583,0.001007,0.09375,-0.02734375,-0.05859375,0.6875,2.023438,9.351562,0.0390625,-0.0234375,-0.03125,-0.02734375,-0.03710938,0,0.004638672,0.006103516,0.2717285,0,0,0.1210938,0.3105164,4.072,0,0,0,0.2999878,nan,2,10.002,1,128,0.2032166,0.3944702,0.3257141,0.3187256,-0.04492188,-0.01269531,0,1,3,0.1904762
1558.593,0.001007,-0.08007812,0.09179688,-0.02539062,-1.09375,-1.585938,11.60938,-0.05078125,0.05273438,-0.03320312,-0.02929688,-0.03515625,0,0.004882812,0.005981445,0.2713623,0,0,0.1210938,0.3105164,4.072,0,0,0,0.2999878,nan,2,10.012,1,128,0.2449036,0.3197632,0.3625488,0.3148499,-0.04492188,-0.01269531,0,1,3,0
1558.604,0.001007,0.1191406,-0.0390625,-0.01171875,0.734375,0.9765625,8.03125,0.00390625,0.015625,-0.02539062,-0.02539062,-0.0390625,0,0.004272461,0.006469727,0.2709961,0,0,0.1210938,0.3105164,4.072,0,0,0,0.2999878,nan,2,10.022,1,128,0.2570801,0.3445129,0.3883057,0.2522278,-0.04492188,-0.01269531,0,1,3,0
1558.614,0.001007,0.06835938,-0.07226562,-0.05859375,-0.3359375,-0.9140625,10.75781,0.05078125,-0.01953125,-0.06054688,-0.02929688,-0.03710938,0,0.004882812,0.006225586,0.2706299,0,0,0.1210938,0.3105164,4.072,0,0,0,0.2999878,nan,2,10.032,1,128,0.1947632,0.4023438,0.323761,0.3212585,-0.04492188,-0.01269531,0,1,3,0
1558.623,0.000997,0.1308594,-0.005859375,-0.1171875,0.6796875,-0.3125,6.71875,0.05664062,0.001953125,-0.09179688,-0.03125,-0.03710938,0,0.005249023,0.006103516,0.2698975,0,0,0.1210938,0.3105164,4.072,0,0,0,0.2999878,nan,2,10.042,1,128,0.1718445,0.4153442,0.3130188,0.3418884,-0.04492188,-0.01269531,0,1,3,0
1558.633,0.001045,0.09570312,-0.0703125,-0.1328125,0.0390625,1.976562,8.234375,0.03710938,-0.06640625,-0.1367188,-0.03320312,-0.03515625,0,0.005615234,0.005859375,0.2686768,0,0,0.1210938,0.3105164,4.072,0,0,0,0.2999878,nan,2,10.052,1,128,0.1898499,0.4247437,0.3001099,0.3273926,-0.04492188,-0.01269531,0,1,3,0
1558.643,0.001088,-0.05273438,0.01953125,-0.009765625,0.2265625,0.546875,12.07031,-0.01367188,-0.0078125,-0.05078125,-0.03515625,-0.03320312,0,0.005737305,0.005615234,0.2677002,0,0,0.1210938,0.3105164,4.072,0,0,0,0.2999878,nan,2,10.062,1,128,0.3185425,0.2684021,0.4353333,0.2198181,-0.04492188,-0.01269531,0,1,3,0
1558.654,0.001023,-0.04492188,-0.02539062,0.03320312,-0.71875,-0.7421875,8.453125,-0.04492188,0.02734375,0.02734375,-0.03320312,-0.03515625,0,0.005615234,0.005981445,0.2677002,0,0,0.1210938,0.3105164,4.072,0,0,0,0.2999878,nan,2,10.072,1,128,0.3344727,0.2549744,0.4436035,0.2091064,-0.04492188,-0.01269531,0,1,3,0
1558.663,0.000837,0.046875,-0.04296875,0.1054688,0.96875,-0.0546875,9.859375,0.015625,-0.02929688,0.08398438,-0.03320312,-0.03515625,0,0.005615234,0.005737305,0.2681885,0,0,0.1210938,0.3105164,4.072,0,0,0,0.2999878,nan,2,10.082,1,128,0.3383484,0.263855,0.4584045,0.181488,-0.04492188,-0.01269531,0,1,3,0.4920635
1558.674,0.00099,-0.046875,0.04492188,0.1679688,-1.765625,0.6953125,10.10156,-0.04296875,0.05273438,0.1464844,-0.03320312,-0.03515625,0,0.005493164,0.005981445,0.2694092,0,0,0.1210938,0.3105164,4.072,0,0,0,0.2999878,nan,2,10.092,1,128,0.3489075,0.2250977,0.4725647,0.1955261,-0.04492188,-0.01269531,0,1,3,0.01587302
1558.684,0.001718,0.0390625,-0.0390625,0.1640625,0.875,-4.523438,11.33594,0.005859375,-0.02929688,0.1816406,-0.03125,-0.03710938,0,0.005371094,0.006103516,0.2713623,0,0,0.1210938,0.3105164,4.072,0,0,0,0.2999878,nan,2,10.103,1,128,0.3250732,0.2835388,0.4394226,0.1940918,-0.04492188,-0.01269531,0,1,3,0
1558.694,0.001039,0.09179688,0.03515625,0.04492188,0.125,2.703125,10.79688,0.04492188,0,0.08789062,-0.03320312,-0.03515625,0,0.005493164,0.005737305,0.272583,0,0,0.1210938,0.3105164,4.072,0,0,0,0.2999878,nan,2,10.112,1,128,0.1615295,0.4189453,0.3104248,0.3511963,-0.04492188,-0.01269531,0,1,3,0
1558.704,0.001007,0.01171875,-0.02148438,0.0390625,-0.640625,1.09375,8.257812,-0.001953125,0.0234375,0.01757812,-0.03320312,-0.03710938,0,0.005737305,0.006103516,0.2729492,0,0,0.1210938,0.3105164,4.072,0,0,0,0.2999878,nan,2,10.122,1,128,0.2225342,0.3677979,0.3419495,0.3097839,-0.04492188,-0.01269531,0,1,3,0
1558.713,0.001209,-0.0625,0.05273438,0.0390625,0.1953125,0.015625,13.00781,-0.001953125,-0.02148438,0.03515625,-0.03515625,-0.03515625,0,0.005859375,0.005859375,0.2731934,0,0,0.1210938,0.3105164,4.072,0,0,0,0.2999878,nan,2,10.131,1,128,0.2741394,0.3210144,0.3847656,0.262207,-0.04492188,-0.01269531,0,1,3,0
1558.724,0.000821,0.02539062,0.015625,0.08984375,0.75,0.7265625,8.507812,-0.08398438,0.06640625,0.05859375,-0.03320312,-0.03710938,0,0.005493164,0.006225586,0.2736816,0,0,0.1210938,0.3105164,4.072,0,0,0,0.2999878,nan,2,10.142,1,128,0.2935181,0.2799072,0.4167786,0.2518921,-0.04492188,-0.01269531,0,1,3,0
1558.734,0.001,0.1015625,-0.1210938,0.02929688,0.1796875,-3.054688,10.16406,0.06445312,-0.06445312,0.04882812,-0.03320312,-0.03710938,0,0.005493164,0.006225586,0.274292,0,0,0.1210938,0.3105164,4.072,0,0,0,0.2999878,nan,2,10.152,1,128,0.2408752,0.3793335,0.3684082,0.253479,-0.04492188,-0.01269531,0,1,3,0
1558.743,0.001009,0.0703125,0.015625,-0.02539062,-0.3515625,3.0625,8.90625,0.05664062,-0.009765625,0.00390625,-0.03515625,-0.03515625,0,0.005859375,0.005737305,0.2745361,0,0,0.1210938,0.3105164,4.072,0,0,0,0.2999878,nan,2,10.162,1,128,0.1954041,0.3866882,0.3413391,0.3186646,-0.04492188,-0.01269531,0,1,3,0.06349207
1558.753,0.001004,0.078125,-0.125,-0.08398438,0.9140625,-2.679688,5.398438,-0.02539062,-0.015625,-0.04101562,-0.03125,-0.0390625,0,0.005249023,0.006469727,0.2741699,0,0,0.1210938,0.3105164,4.072,0,0,0,0.2999878,nan,2,10.172,1,128,0.2091064,0.4107971,0.3128357,0.3093872,-0.04492188,-0.01269531,0,1,3,0
1558.763,0.001005,0.109375,-0.1757812,-0.01953125,-0.8828125,3.09375,9.351562,0.02734375,-0.1035156,-0.06054688,-0.03125,-0.03515625,0,0.005249023,0.005859375,0.2735596,0,0,0.1210938,0.3105164,4.072,0,0,0,0.2999878,nan,2,10.182,1,128,0.2492065,0.3760681,0.3575134,0.2593384,-0.04492188,-0.01269531,0,1,3,0.2539683
1558.773,0.001009,-0.08203125,0.0546875,0.08007812,0.8515625,-3.179688,9.804688,-0.03710938,0.005859375,0.03515625,-0.03125,-0.03320312,0,0.005126953,0.005615234,0.2734375,0,0,0.1210938,0.3105164,4.074,0,0,0,0.2999878,nan,2,10.192,1,128,0.3453064,0.2354736,0.46521,0.196106,-0.04492188,-0.01269531,0,1,3,0
1558.783,0.00101,0.02148438,-0.01757812,0.07226562,-1.382812,3.492188,10.96094,0.0078125,-0.01757812,0.06054688,-0.02929688,-0.03320312,0,0.005004883,0.005615234,0.2739258,0,0,0.1210938,0.3105164,4.074,0,0,0,0.2999878,nan,2,10.202,1,128,0.3017578,0.2973328,0.4240112,0.2190247,-0.04492188,-0.01269531,0,1,3,0
1558.793,0.00101,-0.05859375,0.06835938,0.06640625,-0.125,-3.71875,13.74219,-0.001953125,-0.00390625,0.09375,-0.03125,-0.03125,0,0.005371094,0.005249023,0.2747803,0,0,0.1210938,0.3105164,4.074,0,0,0,0.2999878,nan,2,10.212,1,128,0.2876282,0.2919006,0.4136353,0.2489014,-0.04492188,-0.01269531,0,1,3,0
1558.804,0.00101,-0.01171875,0.03710938,-0.01953125,-0.3046875,2.601562,10.54688,-0.0234375,0.04296875,0.00390625,-0.02929688,-0.03320312,0,0.005004883,0.005493164,0.2752686,0,0,0.1210938,0.3105164,4.074,0,0,0,0.2999878,nan,2,10.222,1,128,0.1668396,0.40979,0.303772,0.3616943,-0.04492188,-0.01269531,0,1,3,0
1558.814,0.001001,0.1054688,-0.1445312,-0.001953125,1.179688,-4.671875,5.734375,0.046875,-0.06640625,-0.02539062,-0.02929688,-0.03320312,0,0.005004883,0.005615234,0.2750244,0,0,0.1210938,0.3105164,4.074,0,0,0,0.2999878,nan,2,10.232,1,128,0.2295227,0.3974915,0.3408203,0.274292,-0.04492188,-0.01269531,0,1,3,0
1558.824,0.00101,-0.01367188,0.0390625,-0.09179688,-1.132812,3.554688,11.22656,0.046875,-0.04296875,-0.0625,-0.03320312,-0.02929688,0,0.005371094,0.005004883,0.2746582,0,0,0.1210938,0.3105164,4.074,0,0,0,0.2999878,nan,2,10.242,1,128,0.1803589,0.4133606,0.3086853,0.3397217,-0.04492188,-0.01269531,0,1,3,0
1558.834,0.00101,-0.03320312,0.09960938,-0.046875,0.515625,-0.953125,9.429688,-0.01757812,0.03710938,-0.0625,-0.03320312,-0.03125,0,0.005371094,0.005126953,0.2739258,0,0,0.1210938,0.3105164,4.074,0,0,0,0.2999878,nan,2,10.252,1,128,0.2328186,0.3393555,0.3680115,0.3019409,-0.04589844,-0.01269531,0,1,3,0.2222222
1558.843,0.001012,-0.0390625,-0.03515625,-0.001953125,-1.742188,1.109375,9.507812,-0.01757812,-0.005859375,-0.01953125,-0.03320312,-0.03125,0,0.005371094,0.005249023,0.2735596,0,0,0.1210938,0.3105164,4.074,0,0,0,0.2999878,nan,2,10.262,1,128,0.2876587,0.3097534,0.3973694,0.247345,-0.04589844,-0.01269531,0,1,3,0.5873016
1558.853,0.001014,-0.1230469,0.04882812,-0.01757812,0.234375,-0.8125,8.632812,-0.02539062,-0.02929688,-0.0078125,-0.03320312,-0.02929688,0,0.005493164,0.004882812,0.2735596,0,0,0.1210938,0.3105164,4.074,0,0,0,0.2999878,nan,2,10.272,1,128,0.2504272,0.3374023,0.361908,0.2923584,-0.04589844,-0.01269531,0,1,3,0
1558.863,0.001001,-0.0859375,0.0625,0.009765625,-1.90625,0.984375,10.77344,-0.0078125,-0.001953125,0.005859375,-0.03125,-0.02929688,0,0.005371094,0.004760742,0.2735596,0,0,0.1210938,0.3105164,4.074,0,0,0,0.2999878,nan,2,10.282,1,128,0.2617798,0.3242493,0.3887329,0.267334,-0.04589844,-0.01269531,0,1,3,0
1558.873,0.000966,0.02148438,0.001953125,0.08398438,1.445312,-1.359375,8.382812,-0.03710938,0.04101562,0.04882812,-0.03125,-0.03125,0,0.005126953,0.005126953,0.2738037,0,0,0.1210938,0.3105164,4.074,0,0,0,0.2999878,nan,2,10.292,1,128,0.313385,0.2668762,0.4389038,0.2229309,-0.04589844,-0.01367188,0,1,3,0
1558.884,0.001008,0.01953125,0.03125,0.0703125,0.1015625,-1.03125,8.273438,0.02148438,-0.001953125,0.07617188,-0.03125,-0.03125,0,0.005126953,0.005126953,0.2745361,0,0,0.1210938,0.3105164,4.074,0,0,0,0.2999878,nan,2,10.302,1,128,0.2816772,0.3112488,0.4147949,0.234375,-0.04589844,-0.01367188,0,1,3,0
1558.893,0.001009,-0.001953125,-0.0234375,-0.09179688,-0.4609375,-0.7734375,9.53125,0.0078125,-0.01757812,-0.046875,-0.03125,-0.02929688,0,0.005249023,0.004882812,0.2746582,0,0,0.1210938,0.3105164,4.074,0,0,0,0.2999878,nan,2,10.312,1,128,0.1305237,0.4631958,0.2509766,0.3973999,-0.04589844,-0.01367188,0,1,3,0.2539683
1558.904,0.001009,0.01367188,0.001953125,-0.1347656,-0.1953125,0.796875,9.242188,0.02734375,-0.03710938,-0.1074219,-0.03320312,-0.02734375,0,0.005493164,0.004638672,0.2738037,0,0,0.1210938,0.3105164,4.074,0,0,0,0.2999878,nan,2,10.322,1,128,0.1553345,0.4438782,0.2776794,0.3652344,-0.04589844,-0.01367188,0,1,3,0
1558.914,0.001009,-0.04101562,0.04296875,-0.04296875,1.367188,-0.265625,6.726562,-0.02734375,0.03125,-0.08007812,-0.03125,-0.02734375,0,0.005371094,0.004638672,0.2727051,0,0,0.1210938,0.3105164,4.074,0,0,0,0.2999878,nan,2,10.332,1,128,0.2573242,0.3178406,0.3900146,0.2769165,-0.04589844,-0.01367188,0,1,3,0
1558.924,0.001009,-0.02734375,-0.04101562,0.04296875,-1.8125,1.046875,12.70312,-0.001953125,-0.02539062,0.01757812,-0.03125,-0.02929688,0,0.005126953,0.004882812,0.2724609,0,0,0.1210938,0.3105164,4.074,0,0,0,0.2999878,nan,2,10.342,1,128,0.3492432,0.2591858,0.4605408,0.1731567,-0.04589844,-0.01367188,0,1,3,0
1558.934,0.001009,-0.03125,0.08203125,0.09570312,0.546875,-1.59375,7.140625,-0.005859375,0.00390625,0.0703125,-0.03125,-0.02734375,0,0.005126953,0.004516602,0.2729492,0,0,0.1210938,0.3105164,4.074,0,0,0,0.2999878,nan,2,10.352,1,128,0.3226929,0.255127,0.4565125,0.2077637,-0.04589844,-0.01367188,0,1,3,0
1558.944,0.001009,-0.05273438,-0.0390625,0.1289062,0.1015625,-0.1640625,12.14844,-0.05859375,-0.001953125,0.1210938,-0.02929688,-0.02734375,0,0.004882812,0.004760742,0.2740479,0,0,0.1210938,0.3105164,4.074,0,0,0,0.2999878,nan,2,10.363,1,128,0.3299561,0.2662964,0.4333801,0.2124939,-0.04589844,-0.01367188,0,1,3,0
1558.953,0.00101,0,0.01171875,0.1230469,-0.2734375,4.734375,10.39062,-0.001953125,-0.009765625,0.1289062,-0.02734375,-0.02734375,0,0.004638672,0.004516602,0.2752686,0,0,0.1210938,0.3105164,4.074,0,0,0,0.2999878,nan,2,10.372,1,128,0.2901001,0.2997742,0.4215698,0.2306519,-0.04589844,-0.01367188,0,1,3,0
1558.963,0.001,0.03515625,-0.046875,-0.02539062,1.5,-3.859375,9.976562,0.0234375,-0.0234375,0.03320312,-0.02734375,-0.02734375,0,0.004760742,0.004516602,0.276001,0,0,0.1210938,0.3105164,4.074,0,0,0,0.2999878,nan,2,10.382,1,128,0.1584778,0.4411621,0.2872925,0.3551636,-0.04589844,-0.01367188,0,1,3,0
1558.973,0.00109,-0.1347656,0.1367188,-0.078125,-1.132812,2.679688,11.39844,-0.0859375,0.06054688,-0.0546875,-0.02734375,-0.02734375,0,0.004516602,0.004516602,0.2757568,0,0,0.1210938,0.3105164,4.074,0,0,0,0.2999878,nan,2,10.392,1,128,0.1621399,0.4007263,0.2801208,0.3991394,-0.04589844,-0.01367188,0,1,3,0
1558.983,0.000943,0.03710938,-0.1191406,-0.1113281,1.007812,-1.976562,8.328125,-0.05078125,-0.01953125,-0.08398438,-0.02148438,-0.02929688,0,0.003540039,0.005004883,0.2751465,0,0,0.1210938,0.3105164,4.074,0,0,0,0.2999878,nan,2,10.402,1,128,0.1911621,0.426178,0.2980652,0.3266907,-0.04589844,-0.01367188,0,1,3,0
1558.993,0.00101,-0.03710938,0.03125,-0.0390625,0.1796875,-1.09375,8.039062,0.0078125,-0.01171875,-0.06445312,-0.02148438,-0.02929688,0,0.003540039,0.004760742,0.2741699,0,0,0.1210938,0.3105164,4.074,0,0,0,0.2999878,nan,2,10.412,1,128,0.2734985,0.3166504,0.4031677,0.2488098,-0.04589844,-0.01367188,0,1,3,0
1559.004,0.00101,0.0390625,0.05078125,-0.04101562,-0.390625,1.46875,9.570312,0.015625,0.00390625,-0.03125,-0.02148438,-0.02929688,0,0.003540039,0.004760742,0.2738037,0,0,0.1210938,0.3105164,4.074,0,0,0,0.2999878,nan,2,10.422,1,128,0.2459717,0.3411255,0.3852844,0.2697449,-0.04589844,-0.01367188,0,1,3,0.5396826
1559.014,0.00101,0.03125,0.0546875,-0.1035156,0.1015625,-2.179688,10.57031,-0.01953125,0.0234375,-0.0859375,-0.01953125,-0.02929688,0,0.003295898,0.004882812,0.2731934,0,0,0.1210938,0.3105164,4.074,0,0,0,0.2999878,nan,2,10.432,1,128,0.170105,0.4122314,0.3033752,0.3563843,-0.04589844,-0.01367188,0,1,3,0
1559.024,0.00101,-0.05078125,0.0625,-0.04101562,-0.328125,3.398438,12.16406,-0.03320312,0.05664062,-0.07617188,-0.01953125,-0.03320312,0,0.003173828,0.005493164,0.2722168,0,0,0.1210938,0.3105164,4.074,0,0,0,0.2999878,nan,2,10.442,1,128,0.2574463,0.3227844,0.3783264,0.2835388,-0.04589844,-0.01367188,0,1,3,0
1559.034,0.00101,0.1621094,-0.08398438,-0.08203125,0.65625,-0.9296875,10.09375,0.05664062,-0.06054688,-0.08789062,-0.01953125,-0.03320312,0,0.003173828,0.005371094,0.2713623,0,0,0.1210938,0.3105164,4.074,0,0,0,0.2999878,nan,2,10.452,1,128,0.2120361,0.4035339,0.3388062,0.2877502,-0.04589844,-0.01367188,0,1,3,0.2380952
1559.043,0.001033,-0.09179688,0.1230469,0.05859375,-0.390625,-0.53125,11.75781,-0.0078125,0.03515625,0.01367188,-0.02148438,-0.03125,0,0.003540039,0.005249023,0.2709961,0,0,0.1210938,0.3105164,4.074,0,0,0,0.2999878,nan,2,10.462,1,128,0.3562317,0.2110901,0.4888,0.1859741,-0.04589844,-0.01367188,0,1,3,0
1559.053,0.001094,0.1015625,-0.0703125,0.1191406,-0.6953125,2.851562,9.265625,-0.01171875,0.001953125,0.09375,-0.01953125,-0.03320312,0,0.003173828,0.005737305,0.2716064,0,0,0.1210938,0.3105164,4.074,0,0,0,0.2999878,nan,2,10.472,1,128,0.3563538,0.2420959,0.4837036,0.1599426,-0.04589844,-0.01367188,0,1,3,0.7460318
1559.063,0.000998,0.03710938,0.005859375,0.1445312,0.7890625,-3.28125,10.29688,0.01171875,-0.00390625,0.1308594,-0.02148438,-0.03320312,0,0.003540039,0.005493164,0.2727051,0,0,0.1210938,0.3105164,4.074,0,0,0,0.2999878,nan,2,10.482,1,128,0.3224182,0.2641907,0.4557495,0.1997375,-0.04589844,-0.01367188,0,1,3,0
1559.073,0.001009,-0.07421875,-0.04882812,0.09960938,0.078125,1.703125,9.539062,-0.07226562,0.0078125,0.1035156,-0.01953125,-0.03515625,0,0.003295898,0.005859375,0.2739258,0,0,0.1210938,0.3105164,4.074,0,0,0,0.2999878,nan,2,10.492,1,128,0.270874,0.3266602,0.3646545,0.2798767,-0.04589844,-0.01367188,0,1,3,0.3650794
1559.083,0.001009,0.03125,-0.06835938,0.0859375,-0.921875,-0.1796875,8.171875,0.04101562,-0.06445312,0.09765625,-0.01953125,-0.03320312,0,0.003295898,0.005371094,0.2750244,0,0,0.1210938,0.3105164,4.074,0,0,0,0.2999878,nan,2,10.502,1,128,0.267334,0.340271,0.3934631,0.2410278,-0.04589844,-0.01367188,0,1,3,0
1559.093,0.001009,-0.09960938,0.0546875,0.08007812,0.140625,-2.398438,9.71875,-0.09375,0.04492188,0.08007812,-0.01953125,-0.03125,0,0.003051758,0.005371094,0.2758789,0,0,0.1210938,0.3105164,4.074,0,0,0,0.2999878,nan,2,10.512,1,128,0.2698364,0.298645,0.3774719,0.2961731,-0.04589844,-0.01367188,0,1,3,0.4603175
1559.104,0.001009,0.015625,-0.01757812,0.04101562,-0.390625,2.671875,10.50781,0.03515625,-0.015625,0.06445312,-0.01757812,-0.03320312,0,0.002929688,0.005493164,0.2766113,0,0,0.1210938,0.3105164,4.074,0,0,0,0.2999878,nan,2,10.522,1,128,0.237915,0.3633118,0.3677368,0.2731323,-0.04589844,-0.01367188,0,1,3,0
1559.114,0.001009,-0.25,0.07421875,-0.02734375,1.101562,-3.75,7.140625,-0.09765625,0.0234375,0.01757812,-0.01757812,-0.03320312,0,0.002929688,0.005493164,0.2770996,0,0,0.1210938,0.3105164,4.074,0,0,0,0.2999878,nan,2,10.532,1,128,0.2145386,0.3616638,0.3049011,0.3609924,-0.04589844,-0.01367188,0,1,3,0
1559.124,0.001009,0.02148438,-0.04492188,-0.0234375,-1.171875,2.390625,12.61719,-0.05859375,0.02148438,-0.01757812,-0.01367188,-0.03320312,0,0.002197266,0.005615234,0.2770996,0,0,0.1210938,0.3105164,4.074,0,0,0,0.2999878,nan,2,10.542,1,128,0.2011719,0.3843384,0.3254089,0.3311768,-0.04589844,-0.01367188,0,1,3,0
1559.134,0.001009,0.04296875,-0.0546875,-0.05664062,0.6171875,-1.953125,8.382812,0.01757812,-0.015625,-0.04882812,-0.01171875,-0.03320312,0,0.001953125,0.005615234,0.2767334,0,0,0.1210938,0.3105164,4.074,0,0,0,0.2999878,nan,2,10.552,1,128,0.1965637,0.4029846,0.3308105,0.3117065,-0.04589844,-0.01367188,0,1,3,0
1559.144,0.001009,-0.01367188,0.09765625,-0.01757812,-1.046875,2.9375,11.98438,-0.02539062,0.04492188,-0.03515625,-0.01171875,-0.03320312,0,0.001831055,0.005737305,0.2763672,0,0,0.1210938,0.3105164,4.074,0,0,0,0.2999878,nan,2,10.563,1,128,0.2449036,0.3238525,0.3815308,0.2918091,-0.04589844,-0.01367188,0,1,3,0
1559.153,0.001013,-0.08007812,-0.009765625,-0.0625,0.765625,-2.164062,10.4375,-0.03320312,0.02148438,-0.06054688,-0.009765625,-0.03710938,0,0.001708984,0.006225586,0.2758789,0,0,0.1210938,0.3105164,4.074,0,0,0,0.2999878,nan,2,10.572,1,128,0.2139893,0.3799133,0.3207703,0.3274231,-0.04589844,-0.01464844,0,1,3,0
1559.163,0.001027,-0.1113281,0.09765625,0.0078125,-1.289062,2.796875,13.51562,-0.1074219,0.08203125,-0.02148438,-0.005859375,-0.0390625,0,0.0008544922,0.006713867,0.2755127,0,0,0.1210938,0.3105164,4.074,0,0,0,0.2999878,nan,2,10.582,1,128,0.2867432,0.2807617,0.4069214,0.2677002,-0.04589844,-0.01464844,0,1,3,0
1559.173,0.001014,-0.06640625,0.02539062,0.07617188,1.21875,-0.09375,9.601562,-0.03320312,0.03125,0.046875,-0.001953125,-0.04492188,0,0.0004882812,0.007446289,0.2756348,0,0,0.1210938,0.3105164,4.074,0,0,0,0.2999878,nan,2,10.592,1,128,0.3312988,0.264679,0.4446106,0.2015076,-0.04589844,-0.01464844,0,1,3,0.4920635
1559.183,0.001011,0.0078125,-0.02148438,0.1660156,0.8125,-1.203125,9.226562,0.001953125,-0.01953125,0.1386719,-0.001953125,-0.04492188,0,0.0003662109,0.007324219,0.2766113,0,0,0.1210938,0.3105164,4.074,0,0,0,0.2999878,nan,2,10.602,1,128,0.3768005,0.2239685,0.4927673,0.1485901,-0.04589844,-0.01464844,0,1,3,0.01587302
1559.193,0.001011,0.109375,-0.009765625,0.1523438,-1.015625,-0.1015625,7.921875,0.04101562,-0.009765625,0.1757812,-0.00390625,-0.04296875,0,0.0004882812,0.007202148,0.2783203,0,0,0.1210938,0.3105164,4.074,0,0,0,0.2999878,nan,2,10.612,1,128,0.3171082,0.2704773,0.4593811,0.1951599,-0.04589844,-0.01464844,0,1,3,0
1559.204,0.001011,0.08984375,-0.02539062,0.06835938,1.226562,1.367188,8.148438,0.06835938,-0.01171875,0.0859375,-0.0078125,-0.04296875,0,0.001220703,0.007202148,0.279541,0,0,0.1210938,0.3105164,4.074,0,0,0,0.2999878,nan,2,10.622,1,128,0.1999817,0.3917236,0.3377686,0.3126221,-0.04589844,-0.01464844,0,1,3,0
1559.214,0.000956,0.02148438,0.0078125,0.08789062,-1.890625,-0.9375,8.867188,0.04101562,-0.00390625,0.09179688,-0.01171875,-0.04101562,0,0.001953125,0.006958008,0.2803955,0,0,0.1210938,0.3105164,4.074,0,0,0,0.2999878,nan,2,10.632,1,128,0.2735291,0.3096619,0.4002686,0.2586365,-0.04589844,-0.01464844,0,1,3,0
1559.224,0.001052,0.00390625,-0.009765625,0.1035156,0.96875,-1.351562,10.40625,-0.01171875,0.01367188,0.1054688,-0.01171875,-0.04296875,0,0.002075195,0.007202148,0.2814941,0,0,0.1210938,0.3105164,4.074,0,0,0,0.2999878,nan,2,10.642,1,128,0.2972717,0.289093,0.4139404,0.2417908,-0.04589844,-0.01464844,0,1,3,0
1559.234,0.00101,-0.1054688,-0.03710938,0.09570312,0.4921875,3.960938,12.96094,-0.01367188,-0.05273438,0.1367188,-0.01171875,-0.04101562,0,0.002075195,0.006835938,0.2828369,0,0,0.1210938,0.3105164,4.074,0,0,0,0.2999878,nan,2,10.652,1,128,0.3057556,0.2960815,0.406189,0.2341003,-0.04589844,-0.01464844,0,1,3,0
1559.243,0.001016,-0.001953125,-0.001953125,-0.05273438,-0.8125,-3.40625,8.898438,-0.01367188,0.001953125,-0.001953125,-0.01171875,-0.04101562,0,0.001831055,0.006835938,0.2833252,0,0,0.1210938,0.3105164,4.074,0,0,0,0.2999878,nan,2,10.662,1,128,0.1137085,0.467041,0.2467957,0.4145508,-0.04589844,-0.01464844,0,1,3,0.3333333
1559.253,0.001002,-0.03320312,0.005859375,-0.07226562,0.421875,0.9765625,9.609375,-0.01367188,-0.01757812,-0.046875,-0.01171875,-0.0390625,0,0.001953125,0.006591797,0.282959,0,0,0.1210938,0.3105164,4.074,0,0,0,0.2999878,nan,2,10.672,1,128,0.1887817,0.3973999,0.3090515,0.3468933,-0.04589844,-0.01464844,0,1,3,0.3015873
1559.263,0.001008,0.0078125,0.09179688,-0.1074219,1.164062,-3.523438,10.59375,0.009765625,0.02734375,-0.0859375,-0.009765625,-0.0390625,0,0.001831055,0.006591797,0.2823486,0,0,0.1210938,0.3105164,4.074,0,0,0,0.2999878,nan,2,10.682,1,128,0.1616211,0.4112854,0.3103333,0.3588867,-0.04589844,-0.01464844,0,1,3,0
1559.273,0.000873,-0.01367188,-0.04882812,-0.07421875,-1.976562,2.8125,11.16406,-0.01757812,-0.001953125,-0.08789062,-0.009765625,-0.04101562,0,0.001708984,0.006958008,0.2813721,0,0,0.1210938,0.3105164,4.074,0,0,0,0.2999878,nan,2,10.692,1,128,0.2318726,0.3656616,0.3406982,0.3038635,-0.04589844,-0.01464844,0,1,3,0
1559.283,0.000928,0.06835938,0.05078125,0.04101562,1.640625,-0.5625,8.203125,0.05859375,-0.015625,0.00390625,-0.01171875,-0.04101562,0,0.001953125,0.006713867,0.2811279,0,0,0.1210938,0.3105164,4.074,0,0,0,0.2999878,nan,2,10.702,1,128,0.3140564,0.2703247,0.4642639,0.1934509,-0.04589844,-0.01464844,0,1,3,0
1559.293,0.00101,-0.01367188,0.01757812,0.08398438,-1.78125,-0.3046875,10.35156,0.01953125,0.02929688,0.06054688,-0.01367188,-0.04296875,0,0.002075195,0.007202148,0.2813721,0,0,0.1210938,0.3105164,4.074,0,0,0,0.2999878,nan,2,10.712,1,128,0.3243103,0.2634888,0.4563293,0.1979675,-0.04589844,-0.01464844,0,1,3,0
1559.304,0.001057,-0.01171875,-0.0625,0.0390625,1.21875,1.851562,8.8125,0.02929688,-0.046875,0.0625,-0.01367188,-0.04296875,0,0.002441406,0.007080078,0.2821045,0,0,0.1210938,0.3105164,4.074,0,0,0,0.2999878,nan,2,10.722,1,128,0.2636719,0.3405457,0.3761902,0.2616882,-0.04589844,-0.01464844,0,1,3,0
1559.314,0.001,-0.03515625,0.08203125,-0.01757812,-0.2734375,-3.640625,11.52344,-0.04101562,0.04101562,0.001953125,-0.015625,-0.04101562,0,0.002441406,0.006835938,0.2824707,0,0,0.1210938,0.3105164,4.074,0,0,0,0.2999878,nan,2,10.732,1,128,0.1846313,0.3783264,0.314209,0.3649597,-0.04589844,-0.01464844,0,1,3,0
1559.324,0.001007,0.1191406,-0.09765625,-0.03320312,-0.34375,3.484375,13.07812,0.046875,-0.01367188,-0.03320312,-0.01367188,-0.04296875,0,0.002319336,0.007202148,0.2822266,0,0,0.1210938,0.3105164,4.074,0,0,0,0.2999878,nan,2,10.742,1,128,0.2115784,0.3918152,0.3534851,0.2852478,-0.04589844,-0.01464844,0,1,3,0
1559.334,0.001007,0.09765625,-0.07226562,-0.0234375,1.320312,-3.429688,13.32812,0.0078125,-0.02539062,-0.00390625,-0.01367188,-0.04296875,0,0.002319336,0.007080078,0.2821045,0,0,0.1210938,0.3105164,4.074,0,0,0,0.2999878,nan,2,10.752,1,128,0.2529907,0.3428955,0.3804932,0.2657166,-0.04589844,-0.01464844,0,1,3,0
1559.344,0.001009,-0.005859375,0.0078125,0.01953125,-1.460938,3.429688,10.60156,-0.02929688,0.005859375,0.00390625,-0.01171875,-0.04101562,0,0.001831055,0.006835938,0.2821045,0,0,0.1210938,0.3105164,4.074,0,0,0,0.2999878,nan,2,10.763,1,128,0.2571716,0.3222656,0.3961182,0.266571,-0.04589844,-0.01464844,0,1,3,0
1559.353,0.001011,0.1503906,-0.07421875,0.07421875,0.09375,-1.226562,9.328125,0.046875,-0.0390625,0.04492188,-0.009765625,-0.0390625,0,0.001708984,0.006713867,0.2822266,0,0,0.1210938,0.3105164,4.074,0,0,0,0.2999878,nan,2,10.772,1,128,0.3049622,0.2937927,0.4507751,0.1925964,-0.04589844,-0.01464844,0,1,3,0.1111111
1559.363,0.001015,0.07226562,-0.0078125,0.02148438,-0.390625,0.484375,7.484375,-0.001953125,0.0234375,0.0390625,-0.009765625,-0.0390625,0,0.001708984,0.006713867,0.2827148,0,0,0.1210938,0.3105164,4.074,0,0,0,0.2999878,nan,2,10.782,1,128,0.2395935,0.3370056,0.3821411,0.2833557,-0.04589844,-0.01464844,0,1,3,0
1559.373,0.001005,-0.03320312,0.03710938,0.01171875,-0.3046875,-1.5,9.851562,-0.03710938,0.04101562,0.00390625,-0.009765625,-0.04296875,0,0.001464844,0.007202148,0.2828369,0,0,0.1210938,0.3105164,4.074,0,0,0,0.2999878,nan,2,10.792,1,128,0.2282715,0.3529053,0.352356,0.3085632,-0.04589844,-0.015625,0,1,3,0.3809524
1559.383,0.00101,-0.0546875,-0.0234375,0.05078125,0.890625,0.75,9.023438,0.03320312,-0.02929688,0.05078125,-0.009765625,-0.04296875,0,0.001708984,0.007080078,0.2832031,0,0,0.1210938,0.3105164,4.074,0,0,0,0.2999878,nan,2,10.802,1,128,0.2977295,0.3007202,0.414978,0.2286987,-0.04589844,-0.015625,0,1,3,0
1559.393,0.00101,-0.06445312,0.005859375,-0.046875,-0.5390625,-0.3125,9.585938,-0.03515625,0.009765625,-0.01757812,-0.0078125,-0.04296875,0,0.001342773,0.007080078,0.2834473,0,0,0.1210938,0.3105164,4.074,0,0,0,0.2999878,nan,2,10.812,1,128,0.1786194,0.4024048,0.3035278,0.3575745,-0.04589844,-0.015625,0,1,3,0.3015873
1559.403,0.00101,0.07226562,-0.001953125,-0.04882812,0.3515625,-0.8828125,6.914062,0.005859375,0,-0.04882812,-0.0078125,-0.04296875,0,0.001342773,0.007080078,0.282959,0,0,0.1210938,0.3105164,4.074,0,0,0,0.2999878,nan,2,10.822,1,128,0.2048645,0.3781433,0.341095,0.3179932,-0.04589844,-0.015625,0,1,3,0
1559.414,0.00101,0.04296875,-0.03125,-0.009765625,-0.3359375,0.671875,8.789062,0.01757812,-0.01171875,-0.01953125,-0.009765625,-0.04101562,0,0.001586914,0.006958008,0.2825928,0,0,0.1210938,0.3105164,4.074,0,0,0,0.2999878,nan,2,10.832,1,128,0.2621765,0.3263855,0.3914795,0.2620544,-0.04589844,-0.015625,0,1,3,0
1559.424,0.00101,0.04101562,0.05859375,0.02929688,0.5234375,-1.773438,9.328125,-0.02929688,0.04492188,-0.001953125,-0.009765625,-0.04101562,0,0.001586914,0.006835938,0.2824707,0,0,0.1210938,0.3105164,4.073,0,0,0,0.2999878,nan,2,10.842,1,128,0.2663879,0.2976074,0.4027405,0.2753906,-0.04589844,-0.015625,0,1,3,0.2698413
1559.434,0.000946,0.046875,0.015625,0.06640625,-0.6640625,3.4375,10.3125,0.01757812,-0.02734375,0.046875,-0.009765625,-0.04101562,0,0.001831055,0.006713867,0.2828369,0,0,0.1210938,0.3105164,4.073,0,0,0,0.2999878,nan,2,10.852,1,128,0.2970581,0.2947998,0.4231873,0.2270508,-0.04589844,-0.015625,0,1,3,0
1559.443,0.000956,-0.01757812,0.05078125,0.01757812,0.640625,-3.476562,11.51562,-0.00390625,0.03515625,0.04492188,-0.01171875,-0.04101562,0,0.001953125,0.006713867,0.2833252,0,0,0.1210938,0.3105164,4.073,0,0,0,0.2999878,nan,2,10.862,1,128,0.2439575,0.324585,0.3854675,0.2880859,-0.04589844,-0.015625,0,1,3,0
1559.453,0.0009860001,-0.02734375,-0.046875,-0.02148438,0.34375,2.96875,11.07812,-0.005859375,0.001953125,-0.001953125,-0.009765625,-0.04101562,0,0.001708984,0.006958008,0.2834473,0,0,0.1210938,0.3105164,4.073,0,0,0,0.2999878,nan,2,10.872,1,128,0.2193909,0.3731079,0.3436584,0.3059387,-0.04589844,-0.015625,0,1,3,0
1559.463,0.001007,-0.02734375,-0.005859375,0.02929688,0.3828125,-3.40625,12.39062,0.00390625,-0.00390625,0.02929688,-0.0078125,-0.04101562,0,0.001464844,0.006958008,0.2835693,0,0,0.1210938,0.3105164,4.073,0,0,0,0.2999878,nan,2,10.882,1,128,0.2799377,0.3054504,0.4174805,0.2392273,-0.04589844,-0.015625,0,1,3,0
1559.473,0.001009,-0.001953125,0.01953125,-0.06640625,-0.1875,2.007812,7.6875,-0.03320312,0.015625,-0.02929688,-0.005859375,-0.04296875,0,0.0009765625,0.007080078,0.2835693,0,0,0.1210938,0.3105164,4.073,0,0,0,0.2999878,nan,2,10.892,1,128,0.17099,0.4100342,0.3039246,0.3571472,-0.04589844,-0.015625,0,1,3,0
1559.483,0.000994,0.0390625,-0.015625,-0.0546875,0.34375,-1.820312,9.34375,0.015625,-0.0078125,-0.06640625,-0.005859375,-0.04101562,0,0.0009765625,0.006958008,0.2830811,0,0,0.1210938,0.3105164,4.073,0,0,0,0.2999878,nan,2,10.902,1,128,0.1947937,0.3898926,0.3335571,0.3238831,-0.04589844,-0.015625,0,1,3,0.4285714
1559.494,0.001007,0.07421875,0.04296875,-0.0078125,-0.6328125,0.640625,9.867188,0.05664062,0,-0.015625,-0.0078125,-0.04101562,0,0.001220703,0.006713867,0.2827148,0,0,0.1210938,0.3105164,4.073,0,0,0,0.2999878,nan,2,10.912,1,128,0.262146,0.3148193,0.4143372,0.2507935,-0.04589844,-0.015625,0,1,3,0.7301587
1559.503,0.001007,-0.08007812,0.01953125,0,0.5625,0.359375,9.148438,0.001953125,-0.015625,0,-0.01171875,-0.04101562,0,0.001831055,0.006713867,0.2825928,0,0,0.1210938,0.3105164,4.073,0,0,0,0.2999878,nan,2,10.922,1,128,0.2760315,0.3126221,0.3869934,0.266449,-0.04589844,-0.015625,0,1,3,0
1559.514,0.001007,0.07226562,-0.03710938,0.04882812,-0.1484375,-1.695312,10.60156,0.015625,-0.01757812,0.0390625,-0.01171875,-0.0390625,0,0.001953125,0.006591797,0.2828369,0,0,0.1210938,0.3105164,4.073,0,0,0,0.2999878,nan,2,10.932,1,128,0.2893066,0.2978516,0.4169617,0.2379761,-0.04589844,-0.015625,0,1,3,0
1559.524,0.001007,-0.03320312,0.0546875,0.09179688,0.953125,-1.273438,9.078125,-0.02734375,0.04296875,0.06640625,-0.01171875,-0.04101562,0,0.002075195,0.006713867,0.2833252,0,0,0.1210938,0.3105164,4.073,0,0,0,0.2999878,nan,2,10.942,1,128,0.3019104,0.2663574,0.4343262,0.2395325,-0.04589844,-0.015625,0,1,3,0
1559.534,0.001007,0.02148438,-0.05078125,0.1308594,0.1875,-0.09375,10.0625,0.015625,-0.02929688,0.1308594,-0.01171875,-0.04101562,0,0.001953125,0.006835938,0.2844238,0,0,0.1210938,0.3105164,4.073,0,0,0,0.2999878,nan,2,10.952,1,128,0.3406677,0.2609253,0.4626465,0.1778564,-0.04589844,-0.015625,0,1,3,0.2380952
1559.544,0.001007,-0.00390625,0.02734375,0.01757812,0.328125,-2.867188,8.960938,-0.01367188,-0.00390625,0.0703125,-0.01171875,-0.0390625,0,0.001953125,0.006591797,0.2855225,0,0,0.1210938,0.3105164,4.073,0,0,0,0.2999878,nan,2,10.962,1,128,0.1948853,0.3861694,0.3250427,0.3360291,-0.04589844,-0.015625,0,1,3,0.1904762
1559.553,0.001014,-0.05859375,0.0546875,-0.02734375,0.515625,2.71875,8.9375,-0.0390625,0.046875,0,-0.009765625,-0.04101562,0,0.001708984,0.006958008,0.2856445,0,0,0.1210938,0.3105164,4.073,0,0,0,0.2999878,nan,2,10.972,1,128,0.1795959,0.3932495,0.3101807,0.3591003,-0.04589844,-0.015625,0,1,3,0
1559.563,0.00101,0.171875,-0.03515625,0.00390625,1.5,-3.945312,10.89062,0.015625,-0.03515625,-0.01367188,-0.0078125,-0.04101562,0,0.001342773,0.006835938,0.2855225,0,0,0.1210938,0.3105164,4.073,0,0,0,0.2999878,nan,2,10.982,1,128,0.2327576,0.364563,0.3718872,0.2728882,-0.04589844,-0.015625,0,1,3,0
1559.573,0.001011,0.005859375,-0.0625,-0.04492188,-0.3828125,1.414062,10.39844,0.01171875,-0.04101562,-0.05078125,-0.0078125,-0.04101562,0,0.001342773,0.006713867,0.2851562,0,0,0.1210938,0.3105164,4.073,0,0,0,0.2999878,nan,2,10.992,1,128,0.2156372,0.3834534,0.3365173,0.306488,-0.04589844,-0.015625,0,1,3,0
1559.583,0.001014,0.08203125,-0.0625,0.001953125,1.539062,-1.125,9.46875,0.0390625,-0.0390625,-0.03320312,-0.009765625,-0.0390625,0,0.001708984,0.006469727,0.284668,0,0,0.1210938,0.3105164,4.073,0,0,0,0.2999878,nan,2,11.002,1,128,0.2671204,0.3273926,0.3990479,0.2485352,-0.04589844,-0.015625,0,1,3,0.5396826
1559.593,0.000988,0.01367188,0.07421875,0.0390625,-1.71875,-0.640625,11.98438,0.02929688,-0.01171875,0.03125,-0.01171875,-0.03515625,0,0.001953125,0.005859375,0.28479,0,0,0.1210938,0.3105164,4.073,0,0,0,0.2999878,nan,2,11.012,1,128,0.2895508,0.2803345,0.4411011,0.2311401,-0.04589844,-0.015625,0,1,3,0
1559.604,0.001028,0.005859375,-0.001953125,0.009765625,0.4765625,1.296875,10.28125,0.02148438,-0.0234375,0.01757812,-0.01171875,-0.03515625,0,0.001953125,0.005859375,0.2850342,0,0,0.1210938,0.3105164,4.073,0,0,0,0.2999878,nan,2,11.022,1,128,0.2445679,0.343689,0.37854,0.2752991,-0.04589844,-0.015625,0,1,3,0
1559.614,0.001007,-0.015625,0.03125,0.005859375,-0.0859375,-2.601562,11.35938,0.0078125,0.005859375,0.0078125,-0.01171875,-0.03320312,0,0.002075195,0.005615234,0.2851562,0,0,0.1210938,0.3105164,4.073,0,0,0,0.2999878,nan,2,11.032,1,128,0.2324219,0.3429565,0.3695374,0.2972107,-0.04589844,-0.015625,0,1,3,0
1559.624,0.001011,0.00390625,0.06054688,0.05859375,-0.8046875,1.539062,9.148438,0.009765625,0.04492188,0.03125,-0.01171875,-0.03515625,0,0.002075195,0.005981445,0.2852783,0,0,0.1210938,0.3105164,4.073,0,0,0,0.2999878,nan,2,11.042,1,128,0.2825317,0.2900085,0.4304199,0.2391357,-0.04589844,-0.015625,0,1,3,0
1559.634,0.001011,-0.009765625,-0.015625,0.1035156,1.15625,-3.15625,9.484375,0.01757812,-0.02148438,0.1015625,-0.01367188,-0.03515625,0,0.002319336,0.005981445,0.2860107,0,0,0.1210938,0.3105164,4.073,0,0,0,0.2999878,nan,2,11.052,1,128,0.3351746,0.2607117,0.4550781,0.1911316,-0.04589844,-0.01660156,0,1,3,0.4126984
1559.644,0.001011,-0.078125,-0.03320312,0.04101562,0.0234375,4.210938,12.64844,-0.1015625,-0.0078125,0.07421875,-0.009765625,-0.03515625,0,0.001831055,0.005737305,0.2869873,0,0,0.1210938,0.3105164,4.073,0,0,0,0.2999878,nan,2,11.062,1,128,0.2431946,0.3411255,0.3428955,0.3148804,-0.04589844,-0.01660156,0,1,3,0
1559.653,0.001007,0.02148438,-0.00390625,-0.09960938,-0.0859375,-3.15625,9.796875,0.00390625,-0.01171875,-0.0546875,-0.009765625,-0.03320312,0,0.001586914,0.005737305,0.2869873,0,0,0.1210938,0.3105164,4.073,0,0,0,0.2999878,nan,2,11.072,1,128,0.09539795,0.4906006,0.2350769,0.4210205,-0.04589844,-0.01660156,0,1,3,0
1559.663,0.001008,-0.1054688,0.078125,-0.08203125,-0.6796875,4.070312,13.25,-0.04492188,0.04492188,-0.0625,-0.0078125,-0.03515625,0,0.001464844,0.005859375,0.286377,0,0,0.1210938,0.3105164,4.073,0,0,0,0.2999878,nan,2,11.082,1,128,0.2168579,0.3510742,0.3482056,0.3259583,-0.04589844,-0.01660156,0,1,3,0
1559.673,0.00101,0.01757812,-0.03320312,-0.09960938,1.015625,-0.9375,10.75,0.0234375,-0.01953125,-0.1074219,-0.0078125,-0.03710938,0,0.001220703,0.006225586,0.2852783,0,0,0.1210938,0.3105164,4.073,0,0,0,0.2999878,nan,2,11.092,1,128,0.2047119,0.3993225,0.3305969,0.3074646,-0.04589844,-0.01660156,0,1,3,0
1559.683,0.001006,-0.001953125,-0.05273438,0.04492188,-2.34375,1.320312,12.21875,-0.001953125,-0.005859375,-0.01171875,-0.0078125,-0.03710938,0,0.001342773,0.006103516,0.284668,0,0,0.1210938,0.3105164,4.073,0,0,0,0.2999878,nan,2,11.102,1,128,0.3391418,0.2470398,0.4618835,0.1940308,-0.04589844,-0.01660156,0,1,3,0
1559.693,0.001007,-0.1308594,-0.02929688,0.1152344,0.9296875,1.148438,8.195312,-0.0234375,-0.03515625,0.0859375,-0.0078125,-0.03515625,0,0.001342773,0.005859375,0.2850342,0,0,0.1210938,0.3105164,4.073,0,0,0,0.2999878,nan,2,11.112,1,128,0.3815918,0.2138062,0.4849548,0.1617432,-0.04589844,-0.01660156,0,1,3,0
1559.703,0.001007,-0.04492188,-0.01171875,0.1367188,0.21875,-0.265625,11.07031,-0.01171875,-0.015625,0.1445312,-0.0078125,-0.03320312,0,0.001342773,0.005737305,0.286377,0,0,0.1210938,0.3105164,4.073,0,0,0,0.2999878,nan,2,11.122,1,128,0.3374939,0.2481995,0.4627686,0.193634,-0.04589844,-0.01660156,0,1,3,0
1559.714,0.001007,0.078125,0.04101562,0.1699219,-0.7578125,3.382812,8.257812,0.015625,0.0234375,0.1796875,-0.0078125,-0.03515625,0,0.001220703,0.005859375,0.2879639,0,0,0.1210938,0.3105164,4.073,0,0,0,0.2999878,nan,2,11.132,1,128,0.3159485,0.2602234,0.4681702,0.1977539,-0.04589844,-0.01660156,0,1,3,0
1559.724,0.001007,0.03515625,-0.1328125,-0.01171875,-0.15625,-0.796875,5.867188,0.04882812,-0.0390625,0.07421875,-0.009765625,-0.03515625,0,0.001708984,0.005859375,0.2894287,0,0,0.1210938,0.3105164,4.073,0,0,0,0.2999878,nan,2,11.142,1,128,0.1515198,0.4524231,0.2697144,0.3684387,-0.04589844,-0.01660156,0,1,3,0
1559.734,0.001007,-0.0859375,0.1074219,-0.1113281,-0.796875,1.59375,14.26562,-0.01953125,0.02539062,-0.06640625,-0.01171875,-0.03320312,0,0.001831055,0.005615234,0.2893066,0,0,0.1210938,0.3105164,4.073,0,0,0,0.2999878,nan,2,11.152,1,128,0.09127808,0.4738159,0.2272339,0.4497681,-0.04589844,-0.01660156,0,1,3,0
1559.743,0.001054,0.07226562,0.02929688,-0.0390625,0.84375,-2.765625,6.351562,-0.0078125,0.0859375,-0.0703125,-0.009765625,-0.03710938,0,0.001708984,0.006225586,0.2886963,0,0,0.1210938,0.3105164,4.073,0,0,0,0.2999878,nan,2,11.162,1,128,0.2070923,0.3563232,0.3595276,0.3191528,-0.04589844,-0.01660156,0,1,3,0
1559.753,0.000978,0.0703125,-0.06445312,-0.109375,-1.296875,4.132812,13.78125,0.06054688,-0.03515625,-0.09960938,-0.01171875,-0.03710938,0,0.001953125,0.006225586,0.2878418,0,0,0.1210938,0.3105164,4.073,0,0,0,0.2999878,nan,2,11.172,1,128,0.1801758,0.4220276,0.3114929,0.3283997,-0.046875,-0.01660156,0,1,3,0
1559.763,0.001009,-0.0390625,0.1035156,-0.046875,1.789062,-1.507812,9.0625,-0.0234375,0.05078125,-0.0859375,-0.01171875,-0.03710938,0,0.002075195,0.006225586,0.2867432,0,0,0.1210938,0.3105164,4.073,0,0,0,0.2999878,nan,2,11.182,1,128,0.2511292,0.3078308,0.3930054,0.2901611,-0.046875,-0.01660156,0,1,3,0.06349207
1559.773,0.001012,0.01367188,0.04492188,0.0078125,-2.101562,1.8125,11.92969,0.01171875,0.001953125,-0.01757812,-0.01171875,-0.0390625,0,0.001953125,0.006469727,0.2862549,0,0,0.1210938,0.3105164,4.073,0,0,0,0.2999878,nan,2,11.192,1,128,0.301239,0.2843933,0.4385986,0.2178955,-0.046875,-0.01660156,0,1,3,0
1559.783,0.0009869999,0.01953125,0.04882812,0.02929688,0.90625,-0.7109375,8.132812,-0.001953125,0.08398438,0.02734375,-0.01171875,-0.04101562,0,0.001953125,0.006958008,0.286377,0,0,0.1210938,0.3105164,4.073,0,0,0,0.2999878,nan,2,11.202,1,128,0.2849731,0.2756042,0.4403381,0.2411804,-0.046875,-0.01660156,0,1,3,0
1559.793,0.000963,-0.00390625,-0.01171875,0.0234375,-0.7421875,0.5703125,10.42969,-0.046875,0.02734375,0.0390625,-0.009765625,-0.04492188,0,0.001586914,0.007568359,0.2867432,0,0,0.1210938,0.3105164,4.073,0,0,0,0.2999878,nan,2,11.212,1,128,0.2748413,0.3135681,0.3933411,0.2603455,-0.046875,-0.01660156,0,1,3,0
1559.804,0.00103,0.046875,-0.03515625,-0.02148438,-0.28125,0.46875,9.40625,0.01367188,-0.03710938,0.009765625,-0.009765625,-0.04296875,0,0.001708984,0.007202148,0.2869873,0,0,0.1210938,0.3105164,4.073,0,0,0,0.2999878,nan,2,11.222,1,128,0.2137756,0.3792419,0.3407593,0.3083191,-0.046875,-0.01660156,0,1,3,0.1428571
1559.814,0.000994,0.03125,0.03320312,-0.0390625,0.9765625,0.234375,10.03125,0,0.0390625,-0.02929688,-0.009765625,-0.04492188,0,0.001586914,0.007446289,0.2867432,0,0,0.1210938,0.3105164,4.073,0,0,0,0.2999878,nan,2,11.232,1,128,0.1999512,0.369751,0.3516541,0.3207397,-0.046875,-0.01660156,0,1,3,0.3333333
1559.824,0.001042,0.09765625,-0.09375,0.009765625,1.34375,-3.070312,8.367188,0.08007812,-0.04101562,-0.0234375,-0.009765625,-0.04492188,0,0.001464844,0.00769043,0.286499,0,0,0.1210938,0.3105164,4.073,0,0,0,0.2999878,nan,2,11.242,1,128,0.2462769,0.3617859,0.3925476,0.2414856,-0.046875,-0.01660156,0,1,3,0
1559.834,0.00101,-0.08789062,0.09765625,-0.078125,-0.390625,3.648438,13.82812,-0.0390625,0.02734375,-0.02734375,-0.01171875,-0.04296875,0,0.001831055,0.007202148,0.286499,0,0,0.1210938,0.3105164,4.073,0,0,0,0.2999878,nan,2,11.252,1,128,0.1766357,0.3786621,0.3099365,0.3768921,-0.046875,-0.01660156,0,1,3,0
1559.843,0.001033,-0.1152344,0.01367188,-0.0703125,0.6015625,-3.453125,10.60938,-0.06835938,-0.01757812,-0.06445312,-0.009765625,-0.04296875,0,0.001586914,0.007202148,0.2860107,0,0,0.1210938,0.3105164,4.073,0,0,0,0.2999878,nan,2,11.261,1,128,0.2122192,0.3736877,0.3128662,0.3433228,-0.046875,-0.01660156,0,1,3,0
1559.853,0.001007,0.07226562,-0.03515625,0.02148438,-0.7109375,2.203125,12.57812,0.02148438,-0.06054688,0.001953125,-0.0078125,-0.04101562,0,0.001220703,0.006713867,0.2857666,0,0,0.1210938,0.3105164,4.073,0,0,0,0.2999878,nan,2,11.272,1,128,0.2918091,0.3019409,0.433075,0.215271,-0.046875,-0.01660156,0,1,3,0
1559.863,0.001022,-0.08398438,0.04492188,0.046875,0.5546875,0.0859375,8.078125,-0.04882812,0.02734375,0.0546875,-0.009765625,-0.0390625,0,0.001464844,0.006591797,0.2860107,0,0,0.1210938,0.3105164,4.073,0,0,0,0.2999878,nan,2,11.282,1,128,0.3075562,0.2549133,0.4307251,0.2489014,-0.046875,-0.01660156,0,1,3,0
1559.873,0.000928,0.02148438,-0.01367188,0.05273438,-0.0859375,-1.125,7.71875,0.03515625,-0.04296875,0.05664062,-0.009765625,-0.03710938,0,0.001708984,0.006347656,0.2866211,0,0,0.1210938,0.3105164,4.073,0,0,0,0.2999878,nan,2,11.292,1,128,0.2646484,0.3287659,0.3977051,0.2510071,-0.046875,-0.01660156,0,1,3,0
1559.883,0.001012,0.06445312,0.06835938,0.02539062,-0.3203125,0.390625,6.914062,0.005859375,0.05273438,0.03320312,-0.009765625,-0.0390625,0,0.001586914,0.006469727,0.2871094,0,0,0.1210938,0.3105164,4.073,0,0,0,0.2999878,nan,2,11.302,1,128,0.2165222,0.3461609,0.3744507,0.3049927,-0.046875,-0.01757812,0,1,3,0
1559.893,0.001012,0.0234375,-0.0390625,-0.02539062,0.7734375,-2.5,8.59375,0.0078125,-0.00390625,-0.0078125,-0.009765625,-0.04101562,0,0.001586914,0.006713867,0.2872314,0,0,0.1210938,0.3101807,4.073,0,0,0,0.2996216,nan,2,11.312,1,128,0.1942444,0.3980103,0.3221741,0.3263245,-0.046875,-0.01757812,0,1,3,0
1559.904,0.001074,0.1972656,-0.109375,0.0546875,-0.90625,2.789062,10.54688,0.07617188,-0.01757812,0.00390625,-0.009765625,-0.04101562,0,0.001708984,0.006713867,0.2871094,0,0,0.1210938,0.3085022,4.073,0,0,0,0.2976074,nan,2,11.322,1,128,0.2682495,0.321228,0.4266052,0.2178955,-0.046875,-0.01757812,0,1,3,0
1559.914,0.001012,-0.0703125,-0.015625,0,0.5546875,-3.304688,11.36719,0.01757812,-0.02734375,-0.005859375,-0.01171875,-0.0390625,0,0.001953125,0.006591797,0.2872314,0,0,0.1210938,0.3068237,4.073,0,0,0,0.2955933,nan,2,11.332,1,128,0.2271118,0.3574829,0.3497314,0.2929688,-0.046875,-0.01757812,0,1,3,0
1559.924,0.00101,0.03320312,0.03320312,-0.009765625,-0.8828125,4.007812,12.88281,0.001953125,0.0078125,-0.0234375,-0.01171875,-0.0390625,0,0.001953125,0.006347656,0.2869873,0,0,0.1210938,0.3051453,4.073,0,0,0,0.2935791,nan,2,11.342,1,128,0.2110596,0.3469849,0.3574524,0.3050537,-0.046875,-0.01757812,0,1,3,0
1559.934,0.00101,-0.01171875,-0.0625,0.03125,0.953125,-3.929688,11.78125,0.03320312,-0.0078125,0.02148438,-0.01367188,-0.0390625,0,0.002197266,0.006469727,0.2871094,0,0,0.1210938,0.3034668,4.073,0,0,0,0.291626,nan,2,11.352,1,128,0.2709656,0.3059082,0.4040527,0.2328796,-0.046875,-0.01757812,0,1,3,0
1559.944,0.00101,-0.04882812,-0.02148438,-0.05273438,-0.5234375,2.992188,11.14844,0.01953125,-0.005859375,-0.03125,-0.01367188,-0.0390625,0,0.002319336,0.006469727,0.2871094,0,0,0.1210938,0.3017578,4.073,0,0,0,0.2896118,nan,2,11.362,1,128,0.1772461,0.3907776,0.3082581,0.3308105,-0.046875,-0.01757812,0,1,3,0
1559.953,0.00101,-0.109375,0.1269531,-0.078125,-0.21875,-1.242188,9.367188,-0.03125,0.03320312,-0.07421875,-0.01367188,-0.0390625,0,0.002319336,0.006469727,0.286499,0,0,0.1210938,0.3002625,4.073,0,0,0,0.2877808,nan,2,11.372,1,128,0.1713562,0.3694763,0.3053894,0.3547668,-0.046875,-0.01757812,0,1,3,0.2698413
1559.963,0.00101,0.09375,-0.04492188,-0.02148438,-0.1015625,-1.4375,7.4375,0.04101562,-0.001953125,-0.04882812,-0.01367188,-0.04101562,0,0.002319336,0.006835938,0.2858887,0,0,0.1210938,0.2984009,4.073,0,0,0,0.2855835,nan,2,11.382,1,128,0.2454834,0.3230591,0.3882751,0.2367859,-0.046875,-0.01757812,0,1,3,0
1559.973,0.001004,0.0703125,-0.04101562,-0.09765625,0.1328125,0.59375,9.070312,0.03710938,-0.001953125,-0.07421875,-0.01757812,-0.04101562,0,0.002807617,0.006713867,0.2854004,0,0,0.1210938,0.2967224,4.073,0,0,0,0.2835693,nan,2,11.392,1,128,0.1620178,0.3935242,0.3006592,0.330658,-0.046875,-0.01757812,0,1,3,0
1559.983,0.00101,-0.03320312,0.06640625,-0.015625,0.0078125,-1.28125,10.8125,-0.03320312,0.0625,-0.04882812,-0.01757812,-0.04101562,0,0.002929688,0.006835938,0.28479,0,0,0.1210938,0.2950439,4.073,0,0,0,0.2816162,nan,2,11.402,1,128,0.2346802,0.289093,0.3783264,0.2780457,-0.046875,-0.01757812,0,1,3,0
1559.993,0.00101,-0.01953125,-0.07617188,0.009765625,-0.5859375,0.5859375,9.140625,-0.001953125,-0.01171875,-0.001953125,-0.01757812,-0.04296875,0,0.002807617,0.007080078,0.284668,0,0,0.1210938,0.293335,4.073,0,0,0,0.2796021,nan,2,11.412,1,128,0.2620239,0.3036499,0.3814392,0.2262573,-0.046875,-0.01757812,0,1,3,0
1560.003,0.00101,-0.1035156,0.005859375,-0.07617188,1.25,-0.3984375,9.703125,0,-0.02539062,-0.03710938,-0.01953125,-0.04101562,0,0.003173828,0.006713867,0.2845459,0,0,0.1210938,0.2916565,4.073,0,0,0,0.2775879,nan,2,11.422,1,128,0.1694641,0.3737793,0.2927551,0.330658,-0.046875,-0.01757812,0,1,3,0.6666667
1560.014,0.000988,0,0.001953125,-0.009765625,-1.171875,1.820312,8.265625,-0.01953125,0.04882812,-0.02734375,-0.01757812,-0.04296875,0,0.003051758,0.007080078,0.2840576,0,0,0.1210938,0.289978,4.073,0,0,0,0.2755737,nan,2,11.432,1,128,0.2301025,0.2981567,0.3727722,0.2588806,-0.046875,-0.01757812,0,1,3,0
1560.023,0.001253,0.04882812,-0.07421875,0.001953125,1.023438,-0.375,7.734375,0.03515625,-0.0546875,-0.001953125,-0.01953125,-0.04296875,0,0.003173828,0.007080078,0.2839355,0,0,0.1210938,0.2882996,4.073,0,0,0,0.2736206,nan,2,11.442,1,128,0.2475891,0.3131714,0.3717041,0.2207336,-0.046875,-0.01757812,0,1,3,0
1560.034,0.001021,-0.0625,0.08984375,-0.046875,-1.296875,1.265625,9.234375,-0.02734375,0.04492188,-0.04296875,-0.01953125,-0.04101562,0,0.003173828,0.006835938,0.2838135,0,0,0.1210938,0.2866211,4.073,0,0,0,0.2716064,nan,2,11.452,1,128,0.1634216,0.3439636,0.3106995,0.3283691,-0.046875,-0.01757812,0,1,3,0.06349207
1560.044,0.001008,0.03125,-0.0234375,0.02734375,1.179688,-0.9609375,9.140625,0.0078125,0.001953125,0.0078125,-0.01757812,-0.04296875,0,0.003051758,0.007202148,0.2835693,0,0,0.1210938,0.2849121,4.073,0,0,0,0.2695923,nan,2,11.462,1,128,0.2611389,0.2779846,0.3972778,0.2033081,-0.046875,-0.01757812,0,1,3,0
1560.054,0.00101,-0.009765625,-0.00390625,0.03710938,-1.304688,1.015625,9.820312,0.0078125,-0.02734375,0.04296875,-0.01953125,-0.04101562,0,0.003173828,0.006958008,0.2839355,0,0,0.1210938,0.2832336,4.073,0,0,0,0.2675781,nan,2,11.473,1,128,0.25177,0.2783508,0.3831787,0.2196655,-0.046875,-0.01757812,0,1,3,0.3174603
1560.063,0.000996,-0.005859375,0.00390625,0.02734375,0.421875,-1.398438,10.5625,-0.01757812,0.015625,0.015625,-0.01757812,-0.04296875,0,0.003051758,0.007080078,0.2841797,0,0,0.1210938,0.2815552,4.073,0,0,0,0.265625,nan,2,11.482,1,128,0.2020569,0.3139343,0.3410339,0.2691956,-0.046875,-0.01757812,0,1,3,0
1560.073,0.001003,-0.001953125,-0.07226562,-0.005859375,0.21875,3.1875,10.9375,-0.015625,-0.03515625,0.01367188,-0.01757812,-0.04101562,0,0.002929688,0.006958008,0.2843018,0,0,0.1210938,0.2798767,4.076,0,0,0,0.2636108,nan,2,11.492,1,128,0.2146606,0.3194885,0.3313599,0.2539673,-0.046875,-0.01757812,0,1,3,0
1560.083,0.001008,0.02148438,0.02734375,-0.07421875,0.6796875,-4.398438,11.14844,0.009765625,0.009765625,-0.03515625,-0.01953125,-0.04101562,0,0.003173828,0.006835938,0.2843018,0,0,0.1210938,0.2781982,4.076,0,0,0,0.2615967,nan,2,11.502,1,128,0.1374512,0.3696289,0.2833862,0.3222961,-0.046875,-0.01757812,0,1,3,0
1560.093,0.001007,0.009765625,-0.01953125,-0.06054688,-0.34375,2.789062,10.36719,-0.00390625,0.009765625,-0.06445312,-0.01953125,-0.04296875,0,0.003173828,0.007080078,0.2836914,0,0,0.1210938,0.2765198,4.076,0,0,0,0.2595825,nan,2,11.512,1,128,0.1730347,0.3415222,0.3070679,0.2843933,-0.046875,-0.01757812,0,1,3,0
1560.103,0.001007,-0.001953125,-0.03320312,-0.05859375,1.132812,-5.171875,10.32812,-0.009765625,-0.02929688,-0.05859375,-0.01953125,-0.04101562,0,0.003295898,0.006835938,0.2830811,0,0,0.1210938,0.2748108,4.076,0,0,0,0.2576294,nan,2,11.522,1,128,0.1934509,0.3219604,0.3146057,0.2692566,-0.046875,-0.01757812,0,1,3,0
1560.114,0.001007,-0.03710938,0.0546875,-0.02734375,-0.9453125,3.554688,10.875,-0.03710938,0.02539062,-0.04492188,-0.01757812,-0.04101562,0,0.003051758,0.006835938,0.2825928,0,0,0.1210938,0.2731323,4.076,0,0,0,0.2556152,nan,2,11.532,1,128,0.2024536,0.2891235,0.3422241,0.2587585,-0.046875,-0.01855469,0,1,3,0
1560.124,0.001007,0.1191406,-0.0390625,0.06445312,0.6796875,-3.085938,8.296875,0.04492188,-0.01171875,0.0234375,-0.01757812,-0.04101562,0,0.002929688,0.006958008,0.2824707,0,0,0.1210938,0.2714539,4.076,0,0,0,0.2536011,nan,2,11.542,1,128,0.2738647,0.2373352,0.4273682,0.1472473,-0.046875,-0.01855469,0,1,3,0
1560.134,0.001007,-0.06640625,0.03125,0.04296875,-1.046875,0.7109375,9.851562,-0.01953125,0.00390625,0.05078125,-0.01953125,-0.04101562,0,0.003417969,0.006835938,0.282959,0,0,0.1210938,0.2697754,4.076,0,0,0,0.2515869,nan,2,11.552,1,128,0.2426453,0.2483521,0.3652344,0.2228394,-0.046875,-0.01855469,0,1,3,0.06349207
1560.144,0.001007,-0.0546875,0.0078125,0.04492188,1.25,1.523438,8.578125,-0.0078125,0.01953125,0.0546875,-0.01953125,-0.04101562,0,0.003173828,0.006958008,0.2834473,0,0,0.1210938,0.2680969,4.076,0,0,0,0.2495728,nan,2,11.562,1,128,0.2155151,0.2731018,0.3574829,0.2262268,-0.046875,-0.01855469,0,1,3,0
1560.153,0.001014,-0.009765625,0.08007812,0.1210938,-1.078125,-0.859375,9.5,0.02734375,-0.00390625,0.09960938,-0.01953125,-0.04101562,0,0.003417969,0.006713867,0.2841797,0,0,0.1210938,0.266571,4.076,0,0,0,0.2478027,nan,2,11.572,1,128,0.2642212,0.2186584,0.4160461,0.1673584,-0.046875,-0.01855469,0,1,3,0.4285714
1560.163,0.001039,0.01367188,0.015625,0.06835938,0.0625,-2.289062,10.89062,-0.0703125,0.08789062,0.07617188,-0.01757812,-0.04492188,0,0.002807617,0.007568359,0.2851562,0,0,0.1210938,0.2647095,4.076,0,0,0,0.2456055,nan,2,11.582,1,128,0.1936646,0.2793274,0.3335876,0.2522888,-0.046875,-0.01855469,0,1,3,0
1560.173,0.001057,0.0234375,-0.07617188,0.06835938,0.421875,-0.515625,12.71875,0.04882812,-0.06054688,0.07421875,-0.01757812,-0.04492188,0,0.002929688,0.007446289,0.2858887,0,0,0.1210938,0.263031,4.076,0,0,0,0.2435913,nan,2,11.592,1,128,0.2131653,0.2987671,0.3458252,0.1943665,-0.046875,-0.01855469,0,1,3,0
1560.183,0.001003,-0.1347656,0.1542969,-0.01367188,-0.3828125,1.507812,9.742188,-0.09570312,0.125,0.009765625,-0.015625,-0.046875,0,0.002563477,0.00793457,0.2862549,0,0,0.1210938,0.2613525,4.076,0,0,0,0.2415771,nan,2,11.602,1,128,0.1343384,0.3026733,0.2844238,0.3239441,-0.046875,-0.01855469,0,1,3,0.7142857
1560.193,0.000983,0.04492188,-0.005859375,-0.009765625,1.515625,3.453125,9.179688,0.01171875,-0.015625,0.0078125,-0.01171875,-0.05078125,0,0.002075195,0.008300781,0.286377,0,0,0.1210938,0.2596741,4.076,0,0,0,0.239624,nan,2,11.612,1,128,0.1830139,0.3089294,0.3252869,0.2214355,-0.046875,-0.01855469,0,1,3,0
1560.203,0.000999,-0.09375,0.06054688,-0.03320312,0.0078125,-5.125,11.07031,0.0078125,0.0078125,-0.00390625,-0.015625,-0.04882812,0,0.002441406,0.008056641,0.286377,0,0,0.1210938,0.2579651,4.076,0,0,0,0.2376099,nan,2,11.622,1,128,0.1628418,0.2981873,0.3050842,0.2658081,-0.046875,-0.01855469,0,1,3,0
1560.214,0.001011,0.04492188,-0.0078125,-0.01367188,-1.023438,0.3125,12.88281,0.01757812,0.00390625,-0.015625,-0.01367188,-0.05078125,0,0.002197266,0.008300781,0.2862549,0,0,0.1210938,0.2562866,4.076,0,0,0,0.2355957,nan,2,11.632,1,128,0.1780701,0.2973022,0.3250122,0.2247925,-0.046875,-0.01855469,0,1,3,0
1560.224,0.001011,-0.06835938,-0.015625,0.02929688,1.757812,0.0234375,7.257812,0.02929688,-0.04492188,0.0234375,-0.015625,-0.04882812,0,0.002807617,0.00793457,0.2862549,0,0,0.1210938,0.2546082,4.076,0,0,0,0.2335815,nan,2,11.642,1,128,0.2328796,0.2433167,0.3582458,0.184021,-0.046875,-0.01855469,0,1,3,0
1560.234,0.001011,0.03125,-0.03320312,0.08007812,-1.632812,4.460938,9.085938,-0.02148438,0.01757812,0.04101562,-0.01367188,-0.04882812,0,0.002441406,0.008178711,0.286499,0,0,0.1210938,0.2529297,4.076,0,0,0,0.2316284,nan,2,11.652,1,128,0.2396545,0.2210083,0.3815002,0.1695557,-0.046875,-0.01855469,0,1,3,0.06349207
1560.244,0.001011,-0.01367188,0.04101562,-0.03515625,1.09375,-5.742188,8.09375,0.01171875,0.005859375,0.0078125,-0.015625,-0.04882812,0,0.002441406,0.008300781,0.2868652,0,0,0.1210938,0.2512512,4.076,0,0,0,0.2296143,nan,2,11.662,1,128,0.1311035,0.3295288,0.2758484,0.2684937,-0.046875,-0.01855469,0,1,3,0.2539683
1560.254,0.001011,-0.1113281,0.1191406,-0.1269531,-1.398438,-0.2734375,12.35156,-0.02734375,0.04296875,-0.09570312,-0.01367188,-0.05273438,0,0.002441406,0.008666992,0.2862549,0,0,0.1210938,0.2495422,4.076,0,0,0,0.2276001,nan,2,11.673,1,128,0.06698608,0.3772583,0.2045593,0.3493958,-0.046875,-0.01855469,0,1,3,0
1560.263,0.001009,0.1367188,-0.0625,-0.08007812,0.5546875,3.3125,8.632812,-0.01757812,0.001953125,-0.08789062,-0.01171875,-0.0546875,0,0.001831055,0.009033203,0.2855225,0,0,0.1210938,0.2478638,4.076,0,0,0,0.2255859,nan,2,11.682,1,128,0.1446838,0.3204956,0.2844849,0.2418213,-0.046875,-0.01855469,0,1,3,0
1560.273,0.001009,0.005859375,0.02148438,-0.09375,0.6796875,-5.023438,10.71875,0.04296875,-0.06054688,-0.09765625,-0.01367188,-0.05078125,0,0.002197266,0.008300781,0.2845459,0,0,0.1210938,0.2461853,4.076,0,0,0,0.2235718,nan,2,11.692,1,128,0.1288452,0.3253479,0.2710571,0.2595215,-0.046875,-0.01855469,0,1,3,0
1560.283,0.001001,-0.0546875,0.08984375,-0.1113281,-1.71875,3.75,8.703125,-0.05664062,0.0625,-0.09960938,-0.01171875,-0.05078125,0,0.001953125,0.008544922,0.2835693,0,0,0.1210938,0.2445068,4.076,0,0,0,0.2216187,nan,2,11.702,1,128,0.1404114,0.278595,0.2886047,0.2704163,-0.046875,-0.01953125,0,1,3,0.2063492
1560.293,0.001009,0.04101562,-0.1113281,-0.1230469,-1.296875,1.125,9.179688,0.001953125,-0.05664062,-0.09960938,-0.009765625,-0.05078125,0,0.001708984,0.008544922,0.2825928,0,0,0.1210938,0.2428284,4.076,0,0,0,0.2196045,nan,2,11.712,1,128,0.1422424,0.3265076,0.264679,0.237854,-0.046875,-0.01953125,0,1,3,0.03174603
1560.303,0.001009,-0.08984375,0.06445312,-0.001953125,0.796875,-2.671875,12.61719,-0.01171875,0.01171875,-0.03320312,-0.01171875,-0.04882812,0,0.001831055,0.008056641,0.2818604,0,0,0.1210938,0.2411499,4.076,0,0,0,0.2175903,nan,2,11.722,1,128,0.2331238,0.1847839,0.3808899,0.165741,-0.046875,-0.01953125,0,1,3,0
1560.314,0.00105,0.01171875,0.05664062,0.04296875,-1.023438,4.375,9.726562,-0.06835938,0.05859375,0.03125,-0.005859375,-0.05078125,0,0.001098633,0.008544922,0.2818604,0,0,0.1210938,0.2394409,4.076,0,0,0,0.2155762,nan,2,11.732,1,128,0.2332153,0.1868896,0.3806458,0.157074,-0.046875,-0.01953125,0,1,3,0
1560.324,0.001041,0.05664062,-0.1152344,0.0234375,0.03125,2.195312,7.515625,0.0390625,-0.0546875,0.0234375,-0.005859375,-0.05273438,0,0.0009765625,0.008666992,0.2821045,0,0,0.1210938,0.2377625,4.076,0,0,0,0.213623,nan,2,11.742,1,128,0.1872253,0.2728577,0.3219299,0.1690674,-0.046875,-0.01953125,0,1,3,0
1560.334,0.00097,-0.140625,0.05859375,-0.02148438,-2.179688,-0.328125,7.859375,-0.0546875,0.02539062,-0.00390625,-0.005859375,-0.05273438,0,0.0008544922,0.008666992,0.2821045,0,0,0.1210938,0.236084,4.076,0,0,0,0.2116089,nan,2,11.752,1,128,0.1585999,0.2577209,0.2858887,0.2420959,-0.046875,-0.01953125,0,1,3,0
1560.343,0.000976,0.09179688,-0.08398438,0.0859375,1.570312,-1.054688,9.070312,-0.01367188,-0.005859375,0.04882812,-0.001953125,-0.0546875,0,0.0002441406,0.009155273,0.2822266,0,0,0.1210938,0.2345581,4.076,0,0,0,0.2097778,nan,2,11.761,1,128,0.2442017,0.2008972,0.3794556,0.1137085,-0.046875,-0.01953125,0,1,3,0
1560.353,0.000999,0.09570312,-0.00390625,-0.04296875,-0.921875,-2.273438,11.10938,0.07226562,-0.02929688,0.005859375,-0.00390625,-0.05273438,0,0.0007324219,0.008666992,0.2827148,0,0,0.1210938,0.2328796,4.076,0,0,0,0.2078247,nan,2,11.772,1,128,0.08502197,0.3354492,0.2489014,0.262146,-0.046875,-0.01953125,0,1,3,0
1560.363,0.001079,-0.06835938,0.08789062,0.01953125,1.757812,-0.765625,9.695312,-0.09960938,0.07421875,-0.01953125,-0.001953125,-0.0546875,0,0.0002441406,0.009033203,0.2824707,0,0,0.1210938,0.2310181,4.076,0,0,0,0.2056274,nan,2,11.782,1,128,0.1618347,0.2276611,0.2949524,0.2396851,-0.046875,-0.01953125,0,1,3,0.3333333
1560.373,0.001,0.1835938,-0.01757812,0.0234375,0.4375,-0.6171875,10.86719,0.09375,-0.04492188,0.02539062,-0.00390625,-0.05273438,0,0.0004882812,0.008911133,0.2827148,0,0,0.1210938,0.2293396,4.076,0,0,0,0.2036133,nan,2,11.792,1,128,0.1704407,0.2589722,0.3340759,0.1538696,-0.046875,-0.01953125,0,1,3,0
1560.383,0.001042,-0.09179688,0.1621094,-0.1230469,-0.1875,1.90625,11.58594,-0.01953125,0.02539062,-0.06640625,-0.0078125,-0.05078125,0,0.001220703,0.008544922,0.2824707,0,0,0.1210938,0.2276611,4.076,0,0,0,0.2015991,nan,2,11.802,1,128,0.0453186,0.3391418,0.1810913,0.3450928,-0.046875,-0.01953125,0,1,3,0
1560.393,0.000992,0.08398438,0.04296875,0.01171875,2.671875,2.890625,8.617188,0.015625,-0.001953125,-0.0234375,-0.005859375,-0.05273438,0,0.0009765625,0.008789062,0.2819824,0,0,0.1210938,0.2259827,4.076,0,0,0,0.199585,nan,2,11.812,1,128,0.1860962,0.2214966,0.3391113,0.1572266,-0.046875,-0.01953125,0,1,3,0.1269841
1560.403,0.000894,0.06054688,0.05859375,0.1015625,-1.828125,6.0625,10.89062,0.03320312,0.01953125,0.06054688,-0.0078125,-0.05273438,0,0.001220703,0.008666992,0.2822266,0,0,0.1210938,0.2243042,4.076,0,0,0,0.1975708,nan,2,11.822,1,128,0.2344971,0.1549988,0.397583,0.1100769,-0.046875,-0.01953125,0,1,3,0
1560.414,0.00101,-0.05859375,-0.0078125,0.1269531,1.25,4.546875,6.492188,-0.06835938,0.08007812,0.09570312,-0.005859375,-0.05664062,0,0.0009765625,0.009277344,0.2830811,0,0,0.1210938,0.2225952,4.076,0,0,0,0.1956177,nan,2,11.832,1,128,0.2223816,0.1615601,0.3580322,0.148468,-0.046875,-0.01953125,0,1,3,0
1560.424,0.001045,0.05859375,-0.1171875,0.05859375,-1.21875,5.601562,11.66406,0.04296875,-0.04882812,0.04882812,-0.00390625,-0.0546875,0,0.0008544922,0.009155273,0.2836914,0,0,0.1210938,0.2209167,4.076,0,0,0,0.1936035,nan,2,11.842,1,128,0.1436462,0.2727356,0.2886353,0.1786804,-0.046875,-0.01953125,0,1,3,0
1560.434,0.001043,-0.0859375,0.0546875,0.04296875,1.820312,6,12.14062,-0.04492188,0.02539062,0.06835938,-0.005859375,-0.0546875,0,0.0009765625,0.009033203,0.2843018,0,0,0.1210938,0.2192383,4.076,0,0,0,0.1915894,nan,2,11.852,1,128,0.1827087,0.1983643,0.3102112,0.1856689,-0.046875,-0.01953125,0,1,3,0
1560.444,0.001011,0.06445312,-0.09179688,0.015625,-1.875,-2.96875,12.47656,0.02148438,-0.03125,0.04101562,-0.005859375,-0.05664062,0,0.0009765625,0.009399414,0.2849121,0,0,0.1210938,0.2175598,4.076,0,0,0,0.1895752,nan,2,11.862,1,128,0.1326904,0.2799072,0.2605591,0.197052,-0.046875,-0.01953125,0,1,3,0
1560.454,0.001011,-0.04882812,0.1464844,0.06445312,1.5625,-3.554688,12.72656,-0.02929688,0.01171875,0.03515625,-0.005859375,-0.05273438,0,0.001098633,0.008911133,0.2851562,0,0,0.1210938,0.2158813,4.076,0,0,0,0.1876221,nan,2,11.873,1,128,0.1622314,0.200531,0.3087463,0.1919861,-0.046875,-0.01953125,0,1,3,0
1560.463,0.001009,-0.0234375,-0.01171875,-0.00390625,0.7578125,-5.460938,12.125,-0.07226562,0.0390625,0.0234375,-0.00390625,-0.05664062,0,0.0004882812,0.009399414,0.2855225,0,0,0.1210938,0.2142029,4.076,0,0,0,0.1856079,nan,2,11.882,1,128,0.1271362,0.2503662,0.2586975,0.2205505,-0.046875,-0.02050781,0,1,3,0
1560.473,0.001012,0.03710938,-0.04882812,0.0078125,-1.351562,2.257812,11.38281,0.06445312,-0.05859375,-0.01171875,-0.005859375,-0.0546875,0,0.0008544922,0.009033203,0.2854004,0,0,0.1210938,0.2124939,4.076,0,0,0,0.1835938,nan,2,11.892,1,128,0.1278076,0.2678528,0.272644,0.1817322,-0.046875,-0.02050781,0,1,3,0
1560.483,0.001008,-0.0703125,-0.0234375,0.01367188,0.2109375,1.007812,3.15625,-0.06640625,0.05273438,0.01171875,-0.00390625,-0.05664062,0,0.0006103516,0.009277344,0.2855225,0,0,0.1210938,0.2108154,4.076,0,0,0,0.1815796,nan,2,11.902,1,128,0.1613464,0.1994934,0.2934265,0.1889954,-0.046875,-0.02050781,0,1,3,0
1560.493,0.001006,0.01367188,-0.04492188,0,-1.4375,2.328125,8.3125,0.001953125,-0.01953125,-0.009765625,-0.001953125,-0.05664062,0,0.0003662109,0.009399414,0.2854004,0,0,0.1210938,0.209137,4.076,0,0,0,0.1796265,nan,2,11.912,1,128,0.13974,0.2462463,0.2753296,0.1752319,-0.046875,-0.02050781,0,1,3,0
1560.503,0.001009,-0.06054688,0.109375,-0.07617188,0.1875,7.5625,15.83594,0.0390625,0.02148438,-0.04101562,-0.00390625,-0.0546875,0,0.0006103516,0.009155273,0.2852783,0,0,0.1210938,0.2074585,4.076,0,0,0,0.1776123,nan,2,11.922,1,128,0.06130981,0.2882996,0.2270508,0.2531738,-0.046875,-0.02050781,0,1,3,0
1560.513,0.001009,-0.08203125,0.07617188,-0.01171875,0.796875,-0.1171875,8.484375,-0.06054688,0.05664062,-0.03125,-0.001953125,-0.05859375,0,0.0003662109,0.009643555,0.28479,0,0,0.1210938,0.20578,4.076,0,0,0,0.1755981,nan,2,11.932,1,128,0.1497803,0.1987305,0.2843628,0.1902161,-0.046875,-0.02050781,0,1,3,0
1560.524,0.001009,0.04882812,-0.04492188,0.04101562,-0.109375,-1.664062,11.01562,0.04882812,-0.02929688,0.02148438,-0.00390625,-0.05664062,0,0.0004882812,0.009643555,0.28479,0,0,0.1210938,0.204071,4.076,0,0,0,0.173584,nan,2,11.942,1,128,0.183197,0.1908264,0.3290405,0.1132812,-0.046875,-0.02050781,0,1,3,0
1560.534,0.001009,-0.0390625,0.03515625,0.04882812,-2.023438,-2.101562,11.75,-0.005859375,0.01757812,0.03710938,-0.00390625,-0.05664062,0,0.0007324219,0.009399414,0.2851562,0,0,0.1210938,0.2023926,4.076,0,0,0,0.1715698,nan,2,11.952,1,128,0.1564331,0.1886292,0.3036499,0.1608887,-0.046875,-0.02050781,0,1,3,0
1560.544,0.001009,0.06640625,0.01367188,0.05664062,-0.5,1.5625,6.273438,0.01367188,0.03515625,0.0625,-0.00390625,-0.05859375,0,0.0004882812,0.009765625,0.2857666,0,0,0.1210938,0.2007141,4.076,0,0,0,0.1696167,nan,2,11.962,1,128,0.1520081,0.1954041,0.3126221,0.1428223,-0.046875,-0.02050781,0,1,3,0
1560.554,0.001009,-0.08203125,0.04882812,0.07226562,-1.132812,5.601562,15.53906,0.02539062,-0.0078125,0.07421875,-0.00390625,-0.05859375,0,0.0008544922,0.009643555,0.286377,0,0,0.1210938,0.1990356,4.076,0,0,0,0.1676025,nan,2,11.972,1,128,0.1669006,0.1819763,0.3121948,0.1350708,-0.046875,-0.02050781,0,1,3,0
1560.563,0.001012,-0.02734375,0.03515625,0.04296875,1.335938,-7.703125,9.179688,-0.03320312,0.0234375,0.03320312,-0.00390625,-0.05859375,0,0.0007324219,0.009765625,0.2867432,0,0,0.1210938,0.1973572,4.076,0,0,0,0.1655884,nan,2,11.982,1,128,0.1169739,0.2198181,0.2555237,0.197052,-0.046875,-0.02050781,0,1,3,0
1560.573,0.00101,0.08398438,-0.02148438,-0.01757812,-2.703125,2.90625,4.398438,-0.0078125,-0.001953125,0.001953125,-0.00390625,-0.05859375,0,0.0006103516,0.009887695,0.2869873,0,0,0.1210938,0.1956482,4.076,0,0,0,0.1635742,nan,2,11.992,1,128,0.08969116,0.2579651,0.2310181,0.2039795,-0.046875,-0.02050781,0,1,3,0
1560.584,0.000976,0.09375,-0.15625,-0.03125,0.9765625,7.210938,14.14844,0.08203125,-0.08203125,-0.015625,-0.005859375,-0.05664062,0,0.001098633,0.009521484,0.2869873,0,0,0.1210938,0.1939697,4.076,0,0,0,0.1616211,nan,2,12.002,1,128,0.09368896,0.2756042,0.2314453,0.1751709,-0.046875,-0.02050781,0,1,3,0
1560.593,0.000895,-0.03320312,-0.009765625,-0.03710938,2.03125,-9.765625,11.72656,-0.02148438,0.0078125,-0.02734375,-0.0078125,-0.0546875,0,0.001220703,0.009277344,0.2866211,0,0,0.1210938,0.1922913,4.076,0,0,0,0.1596069,nan,2,12.012,1,128,0.1110535,0.2156677,0.2479248,0.194519,-0.046875,-0.02050781,0,1,3,0
1560.603,0.001009,-0.1035156,-0.0234375,-0.06445312,0.0390625,0.84375,8.382812,-0.03320312,-0.01171875,-0.06445312,-0.005859375,-0.0546875,0,0.001098633,0.009155273,0.2861328,0,0,0.1210938,0.1906128,4.076,0,0,0,0.1575928,nan,2,12.022,1,128,0.07861328,0.2542419,0.2085266,0.2210388,-0.046875,-0.02050781,0,1,3,0
1560.613,0.000945,-0.03710938,0.0390625,0.02148438,-0.6953125,4.507812,11.42188,-0.00390625,0.00390625,0,-0.005859375,-0.0546875,0,0.0008544922,0.008911133,0.2858887,0,0,0.1210938,0.1889343,4.076,0,0,0,0.1555786,nan,2,12.032,1,128,0.1748352,0.146637,0.3263245,0.1079102,-0.046875,-0.02050781,0,1,3,0
1560.624,0.001009,-0.01171875,-0.04296875,0.01953125,0.1484375,0.265625,14.01562,-0.04101562,-0.0234375,0.0078125,-0.00390625,-0.0546875,0,0.0006103516,0.009155273,0.2858887,0,0,0.1210938,0.1872253,4.076,0,0,0,0.1536255,nan,2,12.042,1,128,0.1337891,0.2086487,0.2528992,0.1536255,-0.046875,-0.02050781,0,1,3,0
1560.634,0.001009,0.04296875,0.02148438,0.06640625,2.125,1.929688,3.78125,0,-0.01171875,0.04101562,-0.001953125,-0.0546875,0,0.0003662109,0.008911133,0.2862549,0,0,0.1210938,0.1855469,4.076,0,0,0,0.1516113,nan,2,12.052,1,128,0.1549377,0.1687317,0.3061829,0.1123962,-0.046875,-0.02148438,0,1,3,0
1560.644,0.001009,0,0.1445312,0.04882812,0.7578125,-4.054688,11.08594,-0.05273438,0.08203125,0.04296875,0.001953125,-0.05664062,0,-0.0002441406,0.009277344,0.2866211,0,0,0.1210938,0.1838684,4.076,0,0,0,0.1495972,nan,2,12.062,1,128,0.1209412,0.1665344,0.2905273,0.1574402,-0.046875,-0.02148438,0,1,3,0
1560.654,0.00101,0.01171875,0.02539062,-0.015625,-2.742188,8.085938,12.63281,0.005859375,-0.001953125,0.009765625,0.001953125,-0.05664062,0,-0.0003662109,0.009399414,0.2868652,0,0,0.1210938,0.1821899,4.076,0,0,0,0.147583,nan,2,12.072,1,128,0.07089233,0.2452393,0.221344,0.1912537,-0.046875,-0.02148438,0,1,3,0
1560.663,0.00101,-0.04882812,0.00390625,-0.04296875,1.882812,-6.28125,11.35156,-0.04101562,0.01953125,-0.009765625,0.00390625,-0.05664062,0,-0.0006103516,0.009399414,0.2869873,0,0,0.1210938,0.1806641,4.076,0,0,0,0.145813,nan,2,12.082,1,128,0.07748413,0.226593,0.2158203,0.2027893,-0.046875,-0.02148438,0,1,3,0
1560.673,0.001009,-0.05078125,-0.05078125,-0.06640625,1.679688,2.226562,7.367188,0.00390625,0.005859375,-0.05273438,0.00390625,-0.05664062,0,-0.0006103516,0.009521484,0.2866211,0,0,0.1210938,0.178833,4.076,0,0,0,0.1436157,nan,2,12.092,1,128,0.0473938,0.2639465,0.1911621,0.2127686,-0.046875,-0.02148438,0,1,3,0
1560.683,0.00101,-0.015625,0,-0.015625,1.890625,-5.359375,8.773438,0.03125,-0.009765625,-0.02734375,0.00390625,-0.05664062,0,-0.0004882812,0.009521484,0.2861328,0,0,0.1210938,0.177124,4.076,0,0,0,0.1416016,nan,2,12.102,1,128,0.1201477,0.1887817,0.2687073,0.1308899,-0.046875,-0.02148438,0,1,3,0
1560.693,0.001015,-0.04492188,-0.04492188,-0.005859375,2.039062,0.8203125,5.390625,-0.01171875,-0.01757812,-0.02148438,0.00390625,-0.05664062,0,-0.0006103516,0.009521484,0.2858887,0,0,0.2858887,0.1761169,4.076,0,0,0,0.1400146,nan,4,12.112,1,128,0.1793213,0.170929,0.1760864,0.1781616,0,0,0,1,6,0
1560.703,0.001009,0.05859375,-0.078125,0.04296875,-0.6171875,-5.867188,10.1875,0.01171875,-0.01367188,0.03710938,0.00390625,-0.05859375,0,-0.0006103516,0.009643555,0.2860107,0,0,0.2860107,0.1777954,4.076,0,0,0,0.1400146,nan,4,12.122,1,128,0.2380371,0.1229858,0.2410889,0.1091003,0,0,0,1,6,0
1560.713,0.001009,-0.02539062,-0.0625,0.015625,-0.5625,-0.984375,5.953125,0.005859375,-0.01953125,0.0390625,0.001953125,-0.05664062,0,-0.0003662109,0.009643555,0.286377,0,0,0.286377,0.1795044,4.076,0,0,0,0.1400146,nan,4,12.132,1,128,0.1851501,0.1761475,0.1773682,0.1793213,0,0,0,1,6,0
1560.724,0.000961,-0.00390625,-0.03320312,0.02539062,-0.9921875,-5.40625,10.46875,-0.03515625,0.009765625,0.06835938,0.00390625,-0.05859375,0,-0.0007324219,0.009887695,0.2871094,0,0,0.2871094,0.1811829,4.077,0,0,0,0.1400146,nan,4,12.142,1,128,0.2057495,0.1540222,0.20401,0.1609192,0,0,0,1,6,0
1560.734,0.001006,-0.07226562,0.0546875,0.07617188,-1.609375,1.039062,9.46875,0.0234375,0,0.04882812,0.001953125,-0.05664062,0,-0.0004882812,0.009521484,0.2874756,0,0,0.2874756,0.1828613,4.077,0,0,0,0.1400146,nan,4,12.152,1,128,0.2060852,0.1413574,0.2247009,0.1592712,0,0,0,1,6,0.3174603
1560.743,0.001046,0.04296875,0.02734375,0.08984375,2.015625,-5.78125,8.273438,0.015625,0.02539062,0.08203125,0.001953125,-0.05859375,0,-0.0003662109,0.009643555,0.2880859,0,0,0.2880859,0.1843872,4.077,0,0,0,0.1400146,nan,4,12.161,1,128,0.2217407,0.1285706,0.2432861,0.1439209,0,0,0,1,6,0
1560.754,0.001004,0.05664062,-0.02148438,0.01171875,1.117188,-4.765625,8.40625,0.01367188,-0.02148438,0.05078125,0.001953125,-0.05859375,0,-0.0003662109,0.009643555,0.2888184,0,0,0.2888184,0.1862183,4.077,0,0,0,0.1400146,nan,4,12.172,1,128,0.1672363,0.2056274,0.1719055,0.2001038,0,0,0,1,6,0.7142857
1560.764,0.001004,0.01953125,-0.015625,-0.08984375,0.9453125,0.3515625,9.398438,0.01757812,0.001953125,-0.05664062,0,-0.05859375,0,-0.0001220703,0.009643555,0.2888184,0,0,0.2888184,0.1878967,4.077,0,0,0,0.1400146,nan,4,12.183,1,128,0.06893921,0.2979126,0.07946777,0.3052979,0,0,0,1,6,0.07936508
1560.773,0.001015,0.001953125,0.046875,-0.08203125,-0.921875,1.421875,15.66406,-0.005859375,0.01757812,-0.0859375,0,-0.05859375,0,-0.0001220703,0.009643555,0.2880859,0,0,0.2880859,0.1894226,4.077,0,0,0,0.1400146,nan,4,12.192,1,128,0.1268311,0.2353516,0.1422729,0.2532349,0,0,0,1,6,0
1560.783,0.001015,0.08007812,0.015625,-0.02929688,0.4765625,-8.273438,7.3125,0.01367188,0.0078125,-0.046875,0.001953125,-0.05859375,0,-0.0002441406,0.009765625,0.2873535,0,0,0.2873535,0.1911011,4.077,0,0,0,0.1400146,nan,4,12.202,1,128,0.1987305,0.1748962,0.2158813,0.1748962,0,-0.0009765625,0,1,6,0
1560.793,0.001014,-0.00390625,-0.02539062,-0.05664062,0.3125,1.046875,9.1875,0.04296875,-0.0390625,-0.0625,0,-0.05859375,0,0,0.009643555,0.2868652,0,0,0.2868652,0.1927795,4.077,0,0,0,0.1400146,nan,4,12.212,1,128,0.1654663,0.2257385,0.1703491,0.2095947,0,-0.0009765625,0,1,6,0
1560.803,0.001014,0.0234375,-0.01953125,0.1425781,-0.3515625,1.773438,6.648438,-0.01171875,0.02734375,0.06445312,0,-0.05859375,0,0,0.009765625,0.2867432,0,0,0.2867432,0.194458,4.077,0,0,0,0.1400146,nan,4,12.222,1,128,0.3462524,0.02536011,0.3582153,0.0480957,0,-0.0009765625,0,1,6,0
1560.813,0.001007,0.01757812,-0.00390625,0.1699219,0.671875,-1.054688,8.585938,-0.01367188,-0.005859375,0.1523438,0,-0.05859375,0,-0.0001220703,0.009765625,0.2879639,0,0,0.2879639,0.196167,4.077,0,0,0,0.1400146,nan,4,12.232,1,128,0.3153687,0.07208252,0.3207397,0.07641602,0,-0.0009765625,0,1,6,0
1560.824,0.001015,0.08398438,0.04101562,0.1113281,3.578125,-6.375,6.203125,0.0625,-0.005859375,0.140625,0,-0.05664062,0,0.0001220703,0.009399414,0.2895508,0,0,0.2895508,0.1978455,4.077,0,0,0,0.1400146,nan,4,12.242,1,128,0.1976318,0.1834106,0.2338562,0.1764526,0,-0.0009765625,0,1,6,0.3968254
1560.834,0.00101,-0.2089844,0.1054688,0.06445312,1.320312,0.1484375,7.460938,-0.09960938,0.03710938,0.0625,-0.001953125,-0.05664062,0,0.0002441406,0.009399414,0.2905273,0,0,0.2905273,0.1995239,4.077,0,0,0,0.1400146,nan,4,12.252,1,128,0.1792603,0.1877136,0.1576538,0.273468,0,-0.0009765625,0,1,6,0
1560.844,0.00101,0.08007812,-0.03125,0.1171875,-0.7109375,4.601562,7.71875,-0.009765625,0,0.1054688,0.00390625,-0.05859375,0,-0.0006103516,0.009643555,0.2913818,0,0,0.2913818,0.2012024,4.077,0,0,0,0.1400146,nan,4,12.262,1,128,0.2559814,0.1467285,0.2744751,0.127594,0,-0.0009765625,0,1,6,0
1560.854,0.00101,-0.08789062,0.05078125,0.03125,-1.765625,-1.335938,14.19531,0.0078125,-0.01367188,0.046875,0.001953125,-0.05664062,0,-0.0002441406,0.009277344,0.2921143,0,0,0.2921143,0.2028809,4.077,0,0,0,0.1400146,nan,4,12.272,1,128,0.15802,0.2341003,0.1625671,0.2568665,0,-0.0009765625,0,1,6,0
1560.864,0.00101,0.046875,0.01367188,0.02734375,-1.09375,5.367188,10.51562,-0.005859375,0.02539062,0.02539062,0.00390625,-0.05664062,0,-0.0004882812,0.009521484,0.2924805,0,0,0.2924805,0.2045593,4.077,0,0,0,0.1400146,nan,4,12.283,1,128,0.1854858,0.20755,0.207428,0.2178345,0,-0.0009765625,0,1,6,0
1560.873,0.001012,-0.04101562,-0.0078125,0.01757812,-2.015625,7.617188,10.80469,-0.01757812,-0.01367188,0.02148438,0.001953125,-0.05664062,0,-0.0003662109,0.009399414,0.2927246,0,0,0.2927246,0.2060852,4.077,0,0,0,0.1400146,nan,4,12.292,1,128,0.2077637,0.2000732,0.2020569,0.214447,0,-0.0009765625,0,1,6,0
1560.883,0.001006,-0.08203125,-0.009765625,-0.04492188,-0.5859375,2.6875,8.351562,-0.01367188,-0.01171875,-0.0078125,0.001953125,-0.05664062,0,-0.0003662109,0.009277344,0.2927246,0,0,0.2927246,0.2077637,4.077,0,0,0,0.1400146,nan,4,12.302,1,128,0.170929,0.2383423,0.1664429,0.2554016,0,-0.0009765625,0,1,6,0
1560.893,0.00101,-0.05664062,0.015625,-0.03710938,1.601562,-0.125,8.515625,-0.02539062,0.0078125,-0.03125,0.001953125,-0.05664062,0,-0.0004882812,0.009277344,0.2926025,0,0,0.2926025,0.2094421,4.077,0,0,0,0.1400146,nan,4,12.312,1,128,0.1723022,0.2342224,0.1743164,0.2569885,0,-0.0009765625,0,1,6,0
1560.903,0.001,-0.001953125,0.07226562,0.01171875,-1.101562,3.195312,15.28906,-0.01953125,0.04101562,0.009765625,0.00390625,-0.05664062,0,-0.0006103516,0.009521484,0.2924805,0,0,0.2924805,0.2111511,4.077,0,0,0,0.1400146,nan,4,12.322,1,128,0.2333069,0.1653748,0.2520752,0.1938171,0,-0.0009765625,0,1,6,0
1560.913,0.00101,-0.0703125,0.0078125,0.03710938,-2.398438,-3.898438,9.335938,-0.001953125,-0.015625,0.0390625,0.00390625,-0.05859375,0,-0.0006103516,0.009643555,0.2927246,0,0,0.2927246,0.2128296,4.077,0,0,0,0.1400146,nan,4,12.332,1,128,0.2486267,0.1767273,0.2437744,0.1821289,0,-0.0009765625,0,1,6,0
1560.924,0.00101,0.001953125,-0.02929688,-0.015625,-0.5078125,-6.242188,3.757812,0.00390625,0.00390625,0.009765625,0.00390625,-0.05859375,0,-0.0007324219,0.009765625,0.2930908,0,0,0.2930908,0.2145081,4.077,0,0,0,0.1400146,nan,4,12.342,1,128,0.1808777,0.2408447,0.1901855,0.2461243,0,-0.0009765625,0,1,6,0
1560.934,0.00101,-0.03710938,0.09570312,-0.04882812,2.1875,-0.8125,4.992188,-0.0546875,0.02148438,-0.046875,0.005859375,-0.05859375,0,-0.0009765625,0.009765625,0.2927246,0,0,0.2927246,0.2161865,4.077,0,0,0,0.1400146,nan,4,12.352,1,128,0.1657104,0.2463074,0.1664734,0.2862549,0,-0.0009765625,0,1,6,0
1560.944,0.00101,0.0390625,0.0703125,-0.01171875,-1.8125,9.296875,14.15625,0.001953125,0.01953125,0,0.0078125,-0.06054688,0,-0.001220703,0.01013184,0.2926025,0,0,0.2926025,0.217865,4.077,0,0,0,0.1400146,nan,4,12.362,1,128,0.2397156,0.1855164,0.2593079,0.1869202,0,-0.001953125,0,1,6,0
1560.954,0.000925,-0.02539062,-0.1445312,0.1171875,-2.351562,4.148438,7.835938,-0.03125,-0.08398438,0.078125,0.0078125,-0.05859375,0,-0.001220703,0.009765625,0.2929688,0,0,0.2928467,0,4.077,0,0,0,0.1400146,nan,4,12.372,0,0,0,0,0,0,0,0,0,1,6,1
1560.964,0.001001,0.0078125,0.0234375,0.08007812,0.2578125,1.90625,3.515625,-0.01171875,0.03710938,0.09179688,0.0078125,-0.05859375,0,-0.001220703,0.009643555,0.2939453,0,0,0.2928467,0,4.077,0,0,0,0.1400146,nan,4,12.383,0,0,0,0,0,0,0,0,0,1,6,0
1560.974,0.001008,0.0234375,-0.04492188,0.08398438,-1.570312,-1.132812,17.28906,-0.009765625,-0.009765625,0.08789062,0.0078125,-0.05859375,0,-0.001586914,0.009765625,0.2949219,0,0,0.2928467,0,4.077,0,0,0,0.1400146,nan,4,12.393,0,0,0,0,0,0,0,0,0,1,6,0
1560.984,0.001003,0.06054688,0.05273438,0.00390625,-2.117188,8.007812,15.5,0.05273438,-0.0234375,0.04296875,0.0078125,-0.05859375,0,-0.001098633,0.009277344,0.2956543,0,0,0.2928467,0,4.077,0,0,0,0.1400146,nan,4,12.403,0,0,0,0,0,0,0,0,0,1,6,0
1560.993,0.001015,-0.1074219,0.08398438,-0.05664062,1.765625,4.875,7.671875,-0.02734375,0.005859375,-0.02539062,0.0078125,-0.05859375,0,-0.0009765625,0.009155273,0.2956543,0,0,0.2928467,0,4.077,0,0,0,0.1400146,nan,4,12.412,0,0,0,0,0,0,0,0,0,1,6,1
1561.003,0.001005,0.1367188,-0.0625,-0.0859375,-0.609375,6.570312,12.19531,0.05273438,-0.02539062,-0.0703125,0.0078125,-0.05859375,0,-0.001098633,0.009155273,0.295166,0,0,0.2928467,0,4.077,0,0,0,0.1400146,nan,4,12.422,0,0,0,0,0,0,0,0,0,1,6,0
1561.013,0.001012,0.009765625,0.009765625,-0.046875,-0.1171875,-1.359375,9.601562,0.02148438,-0.0078125,-0.06445312,0.0078125,-0.05859375,0,-0.0008544922,0.008911133,0.2944336,0,0,0.2928467,0,4.077,0,0,0,0.1400146,nan,4,12.432,0,0,0,0,0,0,0,0,0,1,6,1
1561.023,0.001012,-0.00390625,-0.01367188,0.06445312,1.8125,0.40625,5.210938,-0.001953125,0.001953125,0.02539062,0.0078125,-0.05859375,0,-0.0007324219,0.008911133,0.2943115,0,0,0.2928467,0,4.077,0,0,0,0.1400146,nan,4,12.442,0,0,0,0,0,0,0,0,0,1,6,0
1561.033,0.001008,0.005859375,-0.05859375,0.078125,0.3203125,-1.085938,4.59375,0.01757812,-0.02148438,0.06640625,0.0078125,-0.05859375,0,-0.0004882812,0.008911133,0.2947998,0,0,0.2928467,0,4.077,0,0,0,0.1400146,nan,4,12.452,0,0,0,0,0,0,0,0,0,1,6,0
1561.043,0.001012,0.04492188,-0.02539062,-0.00390625,-0.2109375,5.164062,14.64844,0.02148438,-0.01757812,0.02539062,0.0078125,-0.05859375,0,-0.0003662109,0.008666992,0.2952881,0,0,0.2928467,0,4.077,0,0,0,0.1400146,nan,4,12.462,0,0,0,0,0,0,0,0,0,1,6,0
1561.054,0.001012,-0.01367188,-0.01757812,-0.04101562,0.453125,-5.71875,9.625,-0.005859375,0.0078125,-0.03320312,0.0078125,-0.05859375,0,-0.0003662109,0.008666992,0.295166,0,0,0.2928467,0,4.077,0,0,0,0.1400146,nan,4,12.472,0,0,0,0,0,0,0,0,0,1,6,0
1561.064,0.001012,-0.0078125,-0.01953125,-0.07421875,-0.8046875,5.367188,9.445312,0.01757812,-0.02148438,-0.06835938,0.0078125,-0.05859375,0,-0.0001220703,0.008544922,0.2946777,0,0,0.2928467,0,4.077,0,0,0,0.1400146,nan,4,12.483,0,0,0,0,0,0,0,0,0,1,6,0
1561.074,0.001024,-0.01367188,0.03125,-0.0625,0.90625,-0.6484375,6.828125,-0.02148438,0.0390625,-0.07421875,0.0078125,-0.05859375,0,-0.0002441406,0.008666992,0.2939453,0,0,0.2928467,0,4.077,0,0,0,0.1400146,nan,4,12.493,0,0,0,0,0,0,0,0,0,1,6,0
1561.084,0.001023,0.005859375,0.01757812,-0.09179688,-0.71875,-0.5546875,6.820312,-0.01757812,0.0078125,-0.07617188,0.0078125,-0.05859375,0,-0.0004882812,0.008911133,0.2932129,0,0,0.2928467,0,4.077,0,0,0,0.1400146,nan,4,12.503,0,0,0,0,0,0,0,0,0,1,6,0
1561.093,0.001004,-0.015625,-0.04296875,-0.1074219,0.3984375,-2,9.898438,0.005859375,-0.02539062,-0.1015625,0.0078125,-0.05859375,0,-0.0004882812,0.008789062,0.2923584,0,0,0.2928467,0,4.077,0,0,0,0.1400146,nan,4,12.512,0,0,0,0,0,0,0,0,0,1,6,1
1561.103,0.001008,-0.03320312,0.04296875,-0.0703125,0.5703125,-1.140625,4.257812,-0.01953125,0.01953125,-0.07617188,0.0078125,-0.05859375,0,-0.0004882812,0.008666992,0.2913818,0,0,0.2928467,0,4.077,0,0,0,0.1400146,nan,4,12.522,0,0,0,0,0,0,0,0,0,1,6,0
1561.113,0.001015,0.009765625,-0.02734375,-0.06640625,-0.9609375,1.96875,9.210938,0.009765625,-0.01953125,-0.06835938,0.0078125,-0.05859375,0,-0.0006103516,0.008789062,0.2906494,0,0,0.2928467,0,4.077,0,0,0,0.1400146,nan,4,12.532,0,0,0,0,0,0,0,0,0,1,6,1
1561.123,0.001032,-0.01367188,0.00390625,-0.02734375,0.2109375,-1.367188,10.78125,-0.0078125,-0.00390625,-0.04492188,0.0078125,-0.05859375,0,-0.0006103516,0.008544922,0.2900391,0,0,0.2928467,0,4.077,0,0,0,0.1400146,nan,4,12.542,0,0,0,0,0,0,0,0,0,1,6,0
1561.133,0.001015,-0.02148438,-0.01953125,0.02929688,0.4921875,0.34375,8.507812,-0.02929688,0.01367188,0.01367188,0.0078125,-0.05859375,0,-0.0007324219,0.008666992,0.289917,0,0,0.2928467,0,4.077,0,0,0,0.1400146,nan,4,12.552,0,0,0,0,0,0,0,0,0,1,6,0
1561.143,0.001008,0.01953125,0.005859375,-0.03320312,0.140625,0.5859375,9.46875,0.01367188,-0.01171875,-0.0078125,0.0078125,-0.05859375,0,-0.0007324219,0.008544922,0.2900391,0,0,0.2928467,0,4.077,0,0,0,0.1400146,nan,4,12.562,0,0,0,0,0,0,0,0,0,1,6,1
1561.154,0.001008,-0.03710938,0.04882812,-0.03710938,0.25,-0.4296875,10.34375,-0.02734375,0.01953125,-0.04492188,0.0078125,-0.05859375,0,-0.0007324219,0.008422852,0.2896729,0,0,0.2928467,0,4.077,0,0,0,0.1400146,nan,4,12.572,0,0,0,0,0,0,0,0,0,1,6,1
1561.164,0.001001,0.04101562,-0.01953125,-0.015625,-0.1953125,-0.3125,10.04688,0.01171875,-0.01171875,-0.02734375,0.0078125,-0.05859375,0,-0.0008544922,0.008300781,0.2893066,0,0,0.2928467,0,4.077,0,0,0,0.1400146,nan,4,12.583,0,0,0,0,0,0,0,0,0,1,6,1
1561.174,0.001007,0.02929688,-0.0546875,-0.0390625,-0.03125,0.3125,7.914062,0.02539062,-0.04101562,-0.02929688,0.0078125,-0.05859375,0,-0.0007324219,0.008178711,0.2890625,0,0,0.2928467,0,4.077,0,0,0,0.1400146,nan,4,12.593,0,0,0,0,0,0,0,0,0,1,6,0
1561.184,0.001009,-0.046875,0.06054688,-0.05273438,0.0859375,-0.7109375,9.6875,-0.02539062,0.03320312,-0.0546875,0.0078125,-0.05859375,0,-0.0007324219,0.008178711,0.2885742,0,0,0.2928467,0,4.077,0,0,0,0.1400146,nan,4,12.603,0,0,0,0,0,0,0,0,0,1,6,1
1561.193,0.001012,0.005859375,0.01757812,-0.009765625,-0.1953125,-0.21875,10.1875,-0.00390625,0.01171875,-0.0234375,0.0078125,-0.05859375,0,-0.0008544922,0.008300781,0.2883301,0,0,0.2928467,0,4.077,0,0,0,0.1400146,nan,4,12.612,0,0,0,0,0,0,0,0,0,1,6,1
1561.203,0.001004,0.005859375,0.01171875,-0.015625,0.0546875,0.4140625,10.03125,0.009765625,-0.0078125,-0.005859375,0.0078125,-0.05859375,0,-0.0007324219,0.008300781,0.288208,0,0,0.2928467,0,4.077,0,0,0,0.1400146,nan,4,12.622,0,0,0,0,0,0,0,0,0,1,6,1
1561.213,0.001004,0.01367188,0.0078125,-0.0078125,-0.125,3.625,7.210938,0,0.01367188,-0.005859375,0.0078125,-0.05859375,0,-0.0008544922,0.008422852,0.2880859,0,0,0.2928467,0,4.077,0,0,0,0.1400146,nan,4,12.632,0,0,0,0,0,0,0,0,0,1,6,0
1561.223,0.000999,-0.009765625,-0.02734375,-0.01757812,-0.0546875,2.25,4.25,0.005859375,-0.01171875,-0.0078125,0.0078125,-0.05859375,0,-0.0007324219,0.008422852,0.2880859,0,0,0.2928467,0,4.077,0,0,0,0.1400146,nan,4,12.642,0,0,0,0,0,0,0,0,0,1,6,0
1561.233,0.001009,-0.01757812,-0.001953125,-0.04296875,-0.9765625,1.65625,6.59375,-0.001953125,-0.0078125,-0.02734375,0.0078125,-0.05859375,0,-0.0007324219,0.008178711,0.2879639,0,0,0.2928467,0,4.077,0,0,0,0.1400146,nan,4,12.652,0,0,0,0,0,0,0,0,0,1,6,0
1561.243,0.000992,0.01171875,-0.02539062,-0.03320312,-1.234375,-0.109375,6.945312,0,0.00390625,-0.03125,0.0078125,-0.05859375,0,-0.0007324219,0.008300781,0.2875977,0,0,0.2928467,0,4.077,0,0,0,0.1400146,nan,4,12.662,0,0,0,0,0,0,0,0,0,1,6,0
1561.254,0.001009,0.005859375,-0.046875,-0.02539062,-1.507812,-1.796875,10.36719,0.005859375,-0.01171875,-0.02734375,0.0078125,-0.05859375,0,-0.0007324219,0.008178711,0.2873535,0,0,0.2928467,0,4.077,0,0,0,0.1400146,nan,4,12.672,0,0,0,0,0,0,0,0,0,1,6,1
1561.264,0.001009,0.005859375,0.009765625,-0.009765625,2.960938,0.015625,8.695312,-0.00390625,0.009765625,-0.0234375,0.0078125,-0.05859375,0,-0.0007324219,0.008178711,0.2869873,0,0,0.2928467,0,4.077,0,0,0,0.1400146,nan,4,12.683,0,0,0,0,0,0,0,0,0,1,6,1
1561.274,0.000996,0.005859375,0.0078125,-0.00390625,-3.15625,1.828125,8.46875,0.0078125,-0.005859375,0,0.0078125,-0.05859375,0,-0.0007324219,0.008300781,0.2869873,0,0,0.2928467,0,4.077,0,0,0,0.1400146,nan,4,12.693,0,0,0,0,0,0,0,0,0,1,6,1
1561.284,0.001028,0.015625,-0.001953125,-0.01367188,2.289062,1.210938,10.19531,0.005859375,0,-0.00390625,0.0078125,-0.05859375,0,-0.0004882812,0.008178711,0.2869873,0,0,0.2928467,0,4.077,0,0,0,0,nan,4,0.004,0,0,0,0,0,0,0,0,0,1,6,1
1561.293,0.000991,0.04492188,-0.0390625,-0.005859375,0.7265625,-0.1796875,10.21875,0.009765625,-0.0078125,-0.005859375,0.0078125,-0.05859375,0,-0.0004882812,0.008178711,0.2868652,0,0,0.2928467,0,4.077,0,0,0,0,nan,4,0.013,0,0,0,0,0,0,0,0,0,1,6,1
1561.303,0.001015,0.01757812,-0.02148438,0.001953125,4.460938,2.101562,11.72656,0.009765625,-0.001953125,0,0.0078125,-0.05859375,0,-0.0003662109,0.008178711,0.2868652,0,0,0.2928467,0,4.077,0,0,0,0,nan,4,0.023,0,0,0,0,0,0,0,0,0,1,6,0
1561.313,0.001005,0.03125,-0.02929688,-0.02929688,4.960938,5.015625,10.21875,0.00390625,-0.00390625,-0.0078125,0.0078125,-0.05859375,0,-0.0004882812,0.008178711,0.2868652,0,0,0.2928467,0,4.077,0,0,0,0,nan,4,0.002,0,0,0,0,0,0,0,0,0,1,6,0
1561.323,0.000996,0.03320312,-0.02929688,-0.03320312,3.375,5.1875,9.679688,0.00390625,-0.001953125,-0.009765625,nan,nan,nan,-0.0004882812,0.008178711,0.2867432,0,0,0.2867432,0,4.077,0,0,0,0,nan,2,0.012,0,0,0,0,0,0,0,0,0,1,2,0
1561.333,0.000999,0.03320312,-0.01757812,-0.02734375,1.242188,2.523438,9.726562,-0.00390625,0.005859375,0,nan,nan,nan,-0.0004882812,0.008178711,0.2867432,0,0,0.2867432,0,4.077,0,0,0,0,nan,2,0.022,0,0,0,0,0,0,0,0,0,1,2,1
1561.344,0.001024,0.02929688,-0.02734375,-0.01757812,0.734375,3.132812,9.351562,0.001953125,0.001953125,0,nan,nan,nan,-0.0006103516,0.008178711,0.2867432,0,0,0.2867432,0,4.077,0,0,0,0,nan,2,0.032,0,0,0,0,0,0,0,0,0,1,2,1
1561.354,0.000999,-0.015625,0.03125,-0.00390625,-3.171875,-1.820312,10.88281,-0.001953125,0.005859375,-0.001953125,nan,nan,nan,-0.0006103516,0.008178711,0.2867432,0,0,0.2867432,0,4.077,0,0,0,0,nan,2,0.042,0,0,0,0,0,0,0,0,0,1,2,0
1561.364,0.000999,0.001953125,0.03710938,-0.0078125,1.554688,-0.3671875,10.27344,-0.00390625,-0.001953125,0.00390625,nan,nan,nan,-0.0006103516,0.008056641,0.2867432,0,0,0.2867432,0,4.077,0,0,0,0,nan,2,0.053,0,0,0,0,0,0,0,0,0,1,2,1
1561.374,0.001003,-0.04101562,-0.078125,0.01367188,0.21875,-0.453125,9.0625,0,-0.009765625,0,nan,nan,nan,-0.0006103516,0.008056641,0.2868652,0,0,0.2868652,0,4.077,0,0,0,0,nan,2,0.063,0,0,0,0,0,0,0,0,0,1,2,1
1561.384,0.001003,0.02148438,0.05859375,0.005859375,-1.375,-0.578125,10.46875,-0.0078125,0.001953125,0,nan,nan,nan,-0.0007324219,0.00793457,0.2868652,0,0,0.2868652,0,4.077,0,0,0,0,nan,2,0.073,0,0,0,0,0,0,0,0,0,1,2,1
1561.393,0.000999,0.06835938,0.05273438,0.009765625,-1.609375,0.9375,10.0625,0,0.015625,0.00390625,nan,nan,nan,-0.0006103516,0.00793457,0.2867432,0,0,0.2867432,0,4.077,0,0,0,0,nan,2,0.082,0,0,0,0,0,0,0,0,0,1,2,1
1561.403,0.001027,0.01171875,-0.09960938,-0.01953125,2.382812,1.125,7.984375,0.0078125,-0.01171875,0,nan,nan,nan,-0.0006103516,0.00793457,0.2868652,0,0,0.2868652,0,4.077,0,0,0,0,nan,2,0.092,0,0,0,0,0,0,0,0,0,1,2,0
1561.413,0.001012,-0.02929688,-0.07226562,-0.01953125,2.671875,-0.2734375,8.828125,-0.00390625,-0.01757812,-0.005859375,nan,nan,nan,-0.0006103516,0.0078125,0.2867432,0,0,0.2867432,0,4.077,0,0,0,0,nan,2,0.102,0,0,0,0,0,0,0,0,0,1,2,1
1561.423,0.001018,0.04882812,0.009765625,-0.02148438,0.3671875,0.5703125,9.859375,0.00390625,-0.009765625,-0.00390625,nan,nan,nan,-0.0006103516,0.00769043,0.2867432,0,0,0.2867432,0,4.077,0,0,0,0,nan,2,0.112,0,0,0,0,0,0,0,0,0,1,2,1
1561.433,0.001012,0.07617188,0.04882812,-0.02539062,0.0546875,0.09375,9.898438,0.0078125,0.0078125,-0.00390625,nan,nan,nan,-0.0006103516,0.00769043,0.2867432,0,0,0.2867432,0,4.077,0,0,0,0,nan,2,0.122,0,0,0,0,0,0,0,0,0,1,2,1
1561.444,0.001012,0.04882812,-0.04101562,-0.0234375,0.140625,0.4921875,9.203125,0.0078125,-0.005859375,-0.001953125,nan,nan,nan,-0.0006103516,0.00769043,0.2867432,0,0,0.2867432,0,4.077,0,0,0,0,nan,2,0.132,0,0,0,0,0,0,0,0,0,1,2,1
1561.454,0.000955,0.078125,-0.07617188,-0.01171875,0.5,-0.265625,8.34375,0.01171875,-0.009765625,0.001953125,nan,nan,nan,-0.0006103516,0.00769043,0.2867432,0,0,0.2867432,0,4.077,0,0,0,0,nan,2,0.142,0,0,0,0,0,0,0,0,0,1,2,0
1561.464,0.001051,0.001953125,-0.015625,0.02734375,-0.1484375,0.0703125,9.773438,-0.01171875,0.0078125,0.005859375,nan,nan,nan,-0.0006103516,0.00769043,0.2867432,0,0,0.2867432,0,4.077,0,0,0,0,nan,2,0.153,0,0,0,0,0,0,0,0,0,1,2,1
1561.474,0.001014,-0.04101562,0.05859375,-0.001953125,0.0234375,-0.2578125,11.04688,-0.005859375,0.01367188,-0.001953125,nan,nan,nan,-0.0006103516,0.00769043,0.2867432,0,0,0.2867432,0,4.077,0,0,0,0,nan,2,0.163,0,0,0,0,0,0,0,0,0,1,2,0
1561.485,0.001049,0.005859375,-0.01757812,0.001953125,-0.3046875,0.171875,9.304688,-0.00390625,-0.005859375,0.001953125,nan,nan,nan,-0.0006103516,0.007568359,0.2867432,0,0,0.2867432,0,4.077,0,0,0,0,nan,2,0.172,0,0,0,0,0,0,0,0,0,1,2,1
1561.493,0.001046,0.03125,0.00390625,0.015625,0.4140625,-0.609375,9.5,0.01171875,0.00390625,0,nan,nan,nan,-0.0006103516,0.007568359,0.2867432,0,0,0.2867432,0,4.077,0,0,0,0,nan,2,0.182,0,0,0,0,0,0,0,0,0,1,2,1
1561.503,0.001025,-0.0390625,0.01171875,-0.01953125,0.0078125,0.8515625,10.64062,-0.01367188,-0.001953125,-0.005859375,nan,nan,nan,-0.0006103516,0.007446289,0.2867432,0,0,0.2867432,0,4.077,0,0,0,0,nan,2,0.192,0,0,0,0,0,0,0,0,0,1,2,1
1561.513,0.001007,0.01367188,-0.01953125,0.0078125,-0.3203125,-0.6015625,8.890625,0.001953125,-0.001953125,0.001953125,nan,nan,nan,-0.0006103516,0.007446289,0.2867432,0,0,0.2867432,0,4.077,0,0,0,0,nan,2,0.202,0,0,0,0,0,0,0,0,0,1,2,1
1561.524,0.000978,-0.02539062,0.01171875,-0.001953125,-0.015625,0.203125,10.375,0.00390625,-0.005859375,0.001953125,nan,nan,nan,-0.0006103516,0.007446289,0.2867432,0,0,0.2867432,0,4.077,0,0,0,0,nan,2,0.212,0,0,0,0,0,0,0,0,0,1,2,1
1561.533,0.000997,0.01367188,-0.02148438,0,0.6953125,0.234375,8.679688,0.001953125,-0.001953125,0.00390625,nan,nan,nan,-0.0006103516,0.007446289,0.2867432,0,0,0.2867432,0,4.077,0,0,0,0,nan,2,0.222,0,0,0,0,0,0,0,0,0,1,2,0
1561.544,0.000971,0.0078125,-0.01757812,-0.01953125,0.125,0.3203125,9.609375,0,-0.001953125,-0.00390625,nan,nan,nan,-0.0006103516,0.007324219,0.2867432,0,0,0.2867432,0,4.077,0,0,0,0,nan,2,0.232,0,0,0,0,0,0,0,0,0,1,2,1
1561.554,0.001007,0.0234375,-0.03125,-0.001953125,0.109375,0.59375,9.625,0.001953125,-0.005859375,-0.005859375,nan,nan,nan,-0.0006103516,0.007324219,0.2867432,0,0,0.2867432,0,4.077,0,0,0,0,nan,2,0.242,0,0,0,0,0,0,0,0,0,1,2,1
1561.564,0.001001,0.005859375,-0.001953125,0,0.21875,0.046875,10.78125,-0.001953125,0.001953125,-0.001953125,nan,nan,nan,-0.0006103516,0.007324219,0.2867432,0,0,0.2867432,0,4.077,0,0,0,0,nan,2,0.253,0,0,0,0,0,0,0,0,0,1,2,1
1561.574,0.001012,-0.005859375,0.009765625,-0.015625,0.1796875,0.15625,10.5625,0,-0.001953125,0,nan,nan,nan,-0.0006103516,0.007202148,0.2867432,0,0,0.2867432,0,4.077,0,0,0,0,nan,2,0.263,0,0,0,0,0,0,0,0,0,1,2,1
1561.583,0.001009,-0.001953125,0.00390625,0.001953125,0.1484375,0.1953125,10.125,-0.001953125,-0.001953125,0.005859375,nan,nan,nan,-0.0006103516,0.007202148,0.2867432,0,0,0.2867432,0,4.077,0,0,0,0,nan,2,0.272,0,0,0,0,0,0,0,0,0,1,2,1
1561.593,0.001015,-0.00390625,-0.001953125,0.009765625,-0.0703125,0.25,9.234375,-0.001953125,-0.001953125,0.00390625,nan,nan,nan,-0.0006103516,0.007202148,0.2867432,0,0,0.2867432,0,4.077,0,0,0,0,nan,2,0.282,0,0,0,0,0,0,0,0,0,1,2,1
1561.603,0.001012,-0.015625,-0.005859375,-0.005859375,0,0.296875,9.429688,-0.0078125,0.001953125,-0.009765625,nan,nan,nan,-0.0007324219,0.007202148,0.2867432,0,0,0.2867432,0,4.077,0,0,0,0,nan,2,0.292,0,0,0,0,0,0,0,0,0,1,2,1
1561.613,0.001011,0.001953125,-0.001953125,-0.015625,-0.0859375,0.09375,9.703125,-0.001953125,0,-0.005859375,nan,nan,nan,-0.0007324219,0.007080078,0.2868652,0,0,0.2868652,0,4.077,0,0,0,0,nan,2,0.302,0,0,0,0,0,0,0,0,0,1,2,1
1561.623,0.001012,-0.00390625,-0.00390625,0.01953125,-0.1875,-0.1328125,9.78125,-0.00390625,0,0.0078125,nan,nan,nan,-0.0007324219,0.007080078,0.2867432,0,0,0.2867432,0,4.077,0,0,0,0,nan,2,0.312,0,0,0,0,0,0,0,0,0,1,2,1
1561.633,0.001012,-0.001953125,0.00390625,-0.005859375,0.1484375,-0.125,9.992188,0.001953125,0.001953125,-0.001953125,nan,nan,nan,-0.0007324219,0.007080078,0.2867432,0,0,0.2867432,0,4.077,0,0,0,0,nan,2,0.322,0,0,0,0,0,0,0,0,0,1,2,1
1561.644,0.001012,-0.001953125,0.00390625,0.001953125,-0.265625,0.1875,9.820312,-0.00390625,-0.001953125,0.001953125,nan,nan,nan,-0.0007324219,0.007080078,0.2867432,0,0,0.2867432,0,4.077,0,0,0,0,nan,2,0.332,0,0,0,0,0,0,0,0,0,1,2,1
1561.654,0.001013,-0.005859375,0,-0.015625,0.140625,-0.140625,9.726562,0,0.001953125,-0.00390625,nan,nan,nan,-0.0007324219,0.006958008,0.2867432,0,0,0.2867432,0,4.077,0,0,0,0,nan,2,0.342,0,0,0,0,0,0,0,0,0,1,2,1
1561.664,0.001036,0,0,0.01171875,-0.09375,0.0859375,9.859375,-0.001953125,-0.00390625,-0.001953125,nan,nan,nan,-0.0007324219,0.006958008,0.2867432,0,0,0.2867432,0,4.077,0,0,0,0,nan,2,0.353,0,0,0,0,0,0,0,0,0,1,2,1
1561.674,0.001015,-0.001953125,0.001953125,0.009765625,-0.0078125,-0.2421875,9.757812,0,0.001953125,0.009765625,nan,nan,nan,-0.0007324219,0.006958008,0.2868652,0,0,0.2868652,0,4.077,0,0,0,0,nan,2,0.363,0,0,0,0,0,0,0,0,0,1,2,1
1561.683,0.001037,0.0078125,-0.001953125,-0.009765625,-0.015625,0.0546875,9.796875,0,-0.001953125,-0.0078125,nan,nan,nan,-0.0007324219,0.006835938,0.2867432,0,0,0.2867432,0,4.077,0,0,0,0,nan,2,0.372,0,0,0,0,0,0,0,0,0,1,2,1
1561.693,0.001008,-0.001953125,0.001953125,0.00390625,0.125,-0.0859375,9.84375,0,0.001953125,0.001953125,nan,nan,nan,-0.0007324219,0.006835938,0.2867432,0,0,0.2867432,0,4.077,0,0,0,0,nan,2,0.382,0,0,0,0,0,0,0,0,0,1,2,1
1561.703,0.001002,-0.00390625,-0.00390625,-0.001953125,-0.09375,0.0625,9.726562,-0.001953125,-0.001953125,0.005859375,nan,nan,nan,-0.0007324219,0.006835938,0.2867432,0,0,0.2867432,0,4.077,0,0,0,0,nan,2,0.392,0,0,0,0,0,0,0,0,0,1,2,1
1561.713,0.001003,-0.0078125,0.001953125,-0.0078125,0.0703125,0.109375,9.804688,-0.00390625,0.005859375,-0.005859375,nan,nan,nan,-0.0007324219,0.006835938,0.2867432,0,0,0.2867432,0,4.077,0,0,0,0,nan,2,0.402,0,0,0,0,0,0,0,0,0,1,2,1
1561.723,0.001002,0.001953125,-0.005859375,0.001953125,-0.015625,-0.015625,9.773438,0,-0.00390625,0,nan,nan,nan,-0.0007324219,0.006713867,0.2867432,0,0,0.2867432,0,4.077,0,0,0,0,nan,2,0.412,0,0,0,0,0,0,0,0,0,1,2,1
1561.733,0.001002,0.001953125,0.00390625,0.00390625,0.0234375,-0.0390625,9.8125,-0.001953125,0.001953125,0.00390625,nan,nan,nan,-0.0007324219,0.006713867,0.2867432,0,0,0.2867432,0,4.077,0,0,0,0,nan,2,0.422,0,0,0,0,0,0,0,0,0,1,2,1
1561.744,0.001002,0.001953125,-0.005859375,-0.001953125,0.0390625,-0.0234375,9.859375,0.001953125,-0.001953125,-0.001953125,nan,nan,nan,-0.0007324219,0.006713867,0.2867432,0,0,0.2867432,0,4.077,0,0,0,0,nan,2,0.432,0,0,0,0,0,0,0,0,0,1,2,1
1561.754,0.001014,-0.001953125,0.00390625,-0.001953125,-0.0390625,-0.015625,9.835938,-0.001953125,0.001953125,0,nan,nan,nan,-0.0007324219,0.006713867,0.2867432,0,0,0.2867432,0,4.077,0,0,0,0,nan,2,0.442,0,0,0,0,0,0,0,0,0,1,2,1
1561.764,0.001014,-0.00390625,-0.001953125,-0.001953125,0.03125,0.0703125,9.914062,-0.001953125,0,-0.001953125,nan,nan,nan,-0.0007324219,0.006591797,0.2867432,0,0,0.2867432,0,4.077,0,0,0,0,nan,2,0.453,0,0,0,0,0,0,0,0,0,1,2,1
1561.774,0.001023,0.001953125,-0.00390625,0.00390625,-0.0234375,0.03125,9.75,-0.001953125,-0.001953125,0,nan,nan,nan,-0.0008544922,0.006591797,0.2867432,0,0,0.2867432,0,4.077,0,0,0,0,nan,2,0.463,0,0,0,0,0,0,0,0,0,1,2,1
1561.783,0.0009869999,0,-0.001953125,-0.001953125,0.0078125,-0.03125,9.796875,0.001953125,-0.001953125,-0.001953125,nan,nan,nan,-0.0007324219,0.006591797,0.2867432,0,0,0.2867432,0,4.077,0,0,0,0,nan,2,0.472,0,0,0,0,0,0,0,0,0,1,2,1
1561.793,0.001003,-0.001953125,0,0.00390625,-0.0078125,0.0625,9.804688,-0.001953125,0,0.001953125,nan,nan,nan,-0.0007324219,0.006591797,0.2867432,0,0,0.2867432,0,4.077,0,0,0,0,nan,2,0.482,0,0,0,0,0,0,0,0,0,1,2,1
1561.803,0.000959,-0.001953125,-0.001953125,0,-0.0390625,-0.015625,9.835938,0,0,0,nan,nan,nan,-0.0007324219,0.006469727,0.2867432,0,0,0.2867432,0,4.077,0,0,0,0,nan,2,0.492,0,0,0,0,0,0,0,0,0,1,2,1
1561.813,0.00102,0,0,0,-0.015625,0.03125,9.828125,-0.001953125,0.001953125,0,nan,nan,nan,-0.0008544922,0.006469727,0.2867432,0,0,0.2867432,0,4.077,0,0,0,0,nan,2,0.502,0,0,0,0,0,0,0,0,0,1,2,1
1561.823,0.000998,-0.00390625,0,-0.001953125,-0.0078125,0.0390625,9.828125,0,0,0,nan,nan,nan,-0.0007324219,0.006469727,0.2867432,0,0,0.2867432,0,4.077,0,0,0,0,nan,2,0.512,0,0,0,0,0,0,0,0,0,1,2,1
1561.833,0.001012,0,0.001953125,-0.001953125,0,-0.0234375,9.796875,-0.001953125,0.001953125,0,nan,nan,nan,-0.0008544922,0.006469727,0.2867432,0,0,0.2867432,0,4.077,0,0,0,0,nan,2,0.522,0,0,0,0,0,0,0,0,0,1,2,1
1561.844,0.001012,-0.001953125,0.00390625,0.001953125,0.0078125,-0.0078125,9.828125,-0.001953125,0.001953125,0,nan,nan,nan,-0.0008544922,0.006469727,0.2867432,0,0,0.2867432,0,4.077,0,0,0,0,nan,2,0.532,0,0,0,0,0,0,0,0,0,1,2,1
1561.854,0.001012,-0.001953125,0,0.001953125,0.0078125,-0.0078125,9.835938,-0.001953125,0,0.001953125,nan,nan,nan,-0.0008544922,0.006347656,0.2867432,0,0,0.2867432,0,4.077,0,0,0,0,nan,2,0.542,0,0,0,0,0,0,0,0,0,1,2,1
1561.864,0.001012,-0.001953125,0.00390625,-0.00390625,-0.015625,-0.0078125,9.78125,0,0,-0.001953125,nan,nan,nan,-0.0008544922,0.006347656,0.2867432,0,0,0.2867432,0,4.077,0,0,0,0,nan,2,0.553,0,0,0,0,0,0,0,0,0,1,2,1
1561.874,0.001012,0.001953125,0.001953125,0,0.0078125,0.015625,9.789062,0,0.001953125,0,nan,nan,nan,-0.0008544922,0.006347656,0.2867432,0,0,0.2867432,0,4.077,0,0,0,0,nan,2,0.563,0,0,0,0,0,0,0,0,0,1,2,1
1561.883,0.001004,-0.00390625,-0.001953125,0.001953125,-0.046875,0.0078125,9.8125,-0.001953125,0,0.001953125,nan,nan,nan,-0.0008544922,0.006347656,0.2867432,0,0,0.2867432,0,4.077,0,0,0,0,nan,2,0.572,0,0,0,0,0,0,0,0,0,1,2,1
1561.893,0.000997,0.001953125,0.001953125,0.00390625,0.015625,0,9.820312,0,0,0.00390625,nan,nan,nan,-0.0008544922,0.006347656,0.2867432,0,0,0.2867432,0,4.077,0,0,0,0,nan,2,0.582,0,0,0,0,0,0,0,0,0,1,2,1
1561.903,0.000998,-0.001953125,0.001953125,-0.001953125,0.03125,0.03125,9.820312,0,0,0,nan,nan,nan,-0.0008544922,0.006225586,0.2867432,0,0,0.2867432,0,4.077,0,0,0,0,nan,2,0.592,0,0,0,0,0,0,0,0,0,1,2,1
1561.913,0.000998,0,0.001953125,0.001953125,-0.0234375,0,9.757812,0,0,0,nan,nan,nan,-0.0007324219,0.006225586,0.2867432,0,0,0.2867432,0,4.077,0,0,0,0,nan,2,0.602,0,0,0,0,0,0,0,0,0,1,2,1
1561.923,0.000989,-0.00390625,0,-0.001953125,0,0.046875,9.78125,-0.001953125,0,0,nan,nan,nan,-0.0007324219,0.006225586,0.2867432,0,0,0.2867432,0,4.077,0,0,0,0,nan,2,0.612,0,0,0,0,0,0,0,0,0,1,2,1
1561.934,0.00101,-0.001953125,0.00390625,0,-0.015625,0,9.835938,-0.001953125,0,0,nan,nan,nan,-0.0007324219,0.006225586,0.2867432,0,0,0.2867432,0,4.077,0,0,0,0,nan,2,0.622,0,0,0,0,0,0,0,0,0,1,2,1
1561.944,0.000968,-0.001953125,0.001953125,0.001953125,0.0078125,0.015625,9.75,-0.001953125,0.001953125,0,nan,nan,nan,-0.0008544922,0.006225586,0.2867432,0,0,0.2867432,0,4.077,0,0,0,0,nan,2,0.632,0,0,0,0,0,0,0,0,0,1,2,1
