t,dt_s,gyro_x,gyro_y,gyro_z,acc_x,acc_y,acc_z,rates.x,rates.y,rates.z,ratesTarget.x,ratesTarget.y,ratesTarget.z,attitude.x,attitude.y,attitude.z,attitudeTarget.x,attitudeTarget.y,attitudeTarget.z,thrustTarget,battery_v,rc_roll,rc_pitch,rc_yaw,rc_throttle,rc_mode,flight_mode,rc_age_s,armed,fault_mask,motor_rl,motor_rr,motor_fr,motor_fl,rate_i_x,rate_i_y,rate_i_z,mix_scale,control_source,accel_correction_confidence
172.352,0.00101,0.009765625,0.04296875,-0.04296875,-0.796875,0.1640625,8.914062,-0.03515625,0.0234375,-0.01171875,0.07617188,-0.02929688,0,-0.01281738,0.004882812,0.02355957,0,0,0.001220703,0.3105164,4.073,0,0,0,0.2999878,nan,2,9.397,1,0,0.2851257,0.3008728,0.2323303,0.4237671,0.03320312,-0.01171875,0,1,3,0
172.362,0.00101,0.140625,-0.0625,0.005859375,-1.867188,3.273438,12.58594,0.04101562,-0.02148438,-0.01757812,0.078125,-0.02929688,0,-0.01293945,0.005004883,0.02331543,0,0,0.001220703,0.3105164,4.073,0,0,0,0.2999878,nan,2,9.407,1,0,0.3275757,0.2819824,0.2906799,0.3418579,0.03320312,-0.01171875,0,1,3,0
172.372,0.00101,-0.02734375,-0.05664062,-0.009765625,0.0625,-1.71875,10.17969,-0.0234375,-0.01953125,-0.01953125,0.07617188,-0.02929688,0,-0.01281738,0.004882812,0.02319336,0,0,0.001220703,0.3105164,4.073,0,0,0,0.2999878,nan,2,9.417,1,0,0.3385925,0.2621765,0.2683716,0.3729553,0.03320312,-0.01171875,0,1,3,0
172.382,0.00101,-0.07617188,0,0.0859375,1.671875,-1.867188,7.15625,-0.04492188,0.02148438,0.04492188,0.07617188,-0.02929688,0,-0.01281738,0.004760742,0.02319336,0,0,0.001220703,0.3105164,4.073,0,0,0,0.2999878,nan,2,9.427,1,0,0.4206848,0.1607971,0.3626709,0.2979431,0.03320312,-0.01171875,0,1,3,0
172.392,0.001005,0.08007812,-0.05273438,0.04101562,-0.1796875,-2.1875,8.210938,0.02734375,-0.03125,0.05273438,0.078125,-0.02929688,0,-0.01306152,0.004760742,0.02380371,0,0,0.001220703,0.3105164,4.073,0,0,0,0.2999878,nan,2,9.437,1,0,0.3512573,0.2566528,0.309906,0.3242798,0.03320312,-0.01171875,0,1,3,0
172.402,0.00103,0.1328125,-0.001953125,0.07421875,-1.179688,6.492188,15.11719,0.05859375,0.015625,0.046875,0.07617188,-0.02734375,0,-0.01269531,0.004638672,0.02429199,0,0,0.001220703,0.3105164,4.073,0,0,0,0.2999878,nan,2,9.448,1,0,0.3418884,0.2389526,0.3259888,0.3352966,0.03320312,-0.01269531,0,1,3,0
172.412,0.001002,-0.04296875,-0.03515625,-0.04296875,0.1640625,-1.828125,10.08594,0.00390625,0.00390625,-0.02148438,0.07617188,-0.02734375,0,-0.01269531,0.004760742,0.02441406,0,0,0.001220703,0.3105164,4.073,0,0,0,0.2999878,nan,2,9.458,1,0,0.2610474,0.3339844,0.2105408,0.4365234,0.03320312,-0.01269531,0,1,3,0.07936508
172.421,0.001006,-0.03710938,0.046875,-0.06445312,1.679688,-1.515625,10.07812,0.01953125,-0.0234375,-0.04492188,0.07421875,-0.02734375,0,-0.0123291,0.004394531,0.02416992,0,0,0.001220703,0.3105164,4.073,0,0,0,0.2999878,nan,2,9.467,1,0,0.2878418,0.3050842,0.2382507,0.4109497,0.03320312,-0.01269531,0,1,3,0
172.432,0.001005,0.02539062,-0.0078125,-0.04101562,1.757812,-3.28125,8.015625,-0.01757812,0.04101562,-0.04882812,0.07617188,-0.02929688,0,-0.01269531,0.004882812,0.0234375,0,0,0.001220703,0.3105164,4.073,0,0,0,0.2999878,nan,2,9.478,1,0,0.3282471,0.2612305,0.2854614,0.3671875,0.03320312,-0.01269531,0,1,3,0
172.442,0.001274,0.0234375,-0.06640625,0.01171875,-0.34375,-2.132812,7.21875,0.01757812,-0.0390625,-0.009765625,0.07617188,-0.02929688,0,-0.01269531,0.004760742,0.02319336,0,0,0.001220703,0.3105164,4.073,0,0,0,0.2999878,nan,2,9.487,1,0,0.3775635,0.2310181,0.3234863,0.3100586,0.03320312,-0.01269531,0,1,3,0
172.452,0.000997,-0.04296875,0.04101562,0.08789062,-1.015625,5.867188,13.80469,-0.0078125,-0.0078125,0.06835938,0.07421875,-0.02734375,0,-0.01245117,0.004394531,0.0234375,0,0,0.001220703,0.3105164,4.073,0,0,0,0.2999878,nan,2,9.497,1,0,0.4346619,0.1507263,0.3804932,0.2762451,0.03320312,-0.01269531,0,1,3,0
172.462,0.000996,0.09375,0.06054688,0.0703125,0.6015625,-1.703125,8.023438,0.001953125,0.03125,0.0625,0.07617188,-0.02734375,0,-0.01281738,0.004516602,0.02416992,0,0,0.001220703,0.3105164,4.073,0,0,0,0.2999878,nan,2,9.507,1,0,0.3350525,0.2460327,0.3105164,0.3505249,0.03417969,-0.01269531,0,1,3,0
172.472,0.001203,-0.005859375,-0.03710938,0.02734375,1.546875,2.28125,10.73438,-0.02734375,-0.03125,0.05664062,0.07617188,-0.02734375,0,-0.01269531,0.004516602,0.02490234,0,0,0.001220703,0.3105164,4.073,0,0,0,0.2999878,nan,2,9.517,1,0,0.3377686,0.26828,0.2632141,0.3728638,0.03417969,-0.01269531,0,1,3,0
172.482,0.001022,0.015625,0.04296875,0.046875,-1.78125,0.75,10.83594,0.03125,0.0390625,0.02734375,0.07617188,-0.02734375,0,-0.01269531,0.004516602,0.02539062,0,0,0.001220703,0.3105164,4.074,0,0,0,0.2999878,nan,2,9.527,1,0,0.3018494,0.2746887,0.2825623,0.3829651,0.03417969,-0.01269531,0,1,3,0
172.492,0.001012,0.0859375,-0.04296875,0.001953125,1.15625,1.3125,8.070312,0.0078125,-0.02539062,0.03125,0.078125,-0.02929688,0,-0.01281738,0.004760742,0.02575684,0,0,0.001220703,0.3105164,4.074,0,0,0,0.2999878,nan,2,9.537,1,0,0.3317261,0.280304,0.2717896,0.3582764,0.03417969,-0.01269531,0,1,3,0
172.502,0.001018,-0.04101562,-0.0078125,0.02734375,0.40625,-3.085938,10.03125,0.03710938,-0.01757812,0.05273438,0.07421875,-0.02539062,0,-0.0123291,0.004394531,0.02612305,0,0,0.001220703,0.3105164,4.074,0,0,0,0.2999878,nan,2,9.548,1,0,0.3600769,0.2287292,0.3148499,0.3384094,0.03417969,-0.01269531,0,1,3,0
172.512,0.001015,-0.1269531,0.02539062,-0.03320312,-1.710938,3.851562,9.804688,-0.06640625,0.05078125,0.01367188,0.07421875,-0.02929688,0,-0.01245117,0.004760742,0.02648926,0,0,0.001220703,0.3105164,4.074,0,0,0,0.2999878,nan,2,9.558,1,0,0.3117676,0.2694397,0.2429199,0.4179993,0.03417969,-0.01269531,0,1,3,0
172.522,0.001012,0.0390625,-0.06445312,-0.07226562,-1.8125,2.25,12.19531,0.04101562,-0.04492188,-0.06835938,0.07421875,-0.02734375,0,-0.0123291,0.004638672,0.02600098,0,0,0.001220703,0.3105164,4.074,0,0,0,0.2999878,nan,2,9.568,1,0,0.265625,0.3439331,0.2125244,0.4200439,0.03417969,-0.01269531,0,1,3,0
172.532,0.001012,-0.06054688,0.07617188,-0.01367188,-1.132812,4.421875,14.4375,-0.03125,0.02929688,-0.0234375,0.07421875,-0.02734375,0,-0.01245117,0.004394531,0.02563477,0,0,0.001220703,0.3105164,4.074,0,0,0,0.2999878,nan,2,9.578,1,0,0.3555908,0.2172852,0.3129272,0.3562927,0.03417969,-0.01269531,0,1,3,0
172.542,0.001012,-0.109375,0.00390625,0.04882812,1.070312,1.21875,9.515625,-0.05664062,0.01171875,0.01757812,0.07617188,-0.02734375,0,-0.01269531,0.004516602,0.0255127,0,0,0.001220703,0.3105164,4.074,0,0,0,0.2999878,nan,2,9.588,1,0,0.3927002,0.1967773,0.3261719,0.3264465,0.03417969,-0.01269531,0,1,3,0
172.551,0.001009,0.03515625,0.01757812,0.04492188,1.273438,-3.757812,7.21875,0.0546875,-0.02539062,0.05273438,0.07421875,-0.02734375,0,-0.01245117,0.004394531,0.02600098,0,0,0.001220703,0.3105164,4.074,0,0,0,0.2999878,nan,2,9.597,1,0,0.3646545,0.2348022,0.3293457,0.3132935,0.03417969,-0.01269531,0,1,3,0
172.562,0.001009,-0.07226562,0.08007812,0.05664062,-0.6796875,1.890625,9.5,-0.04101562,0.06054688,0.05664062,0.07617188,-0.02734375,0,-0.01257324,0.004638672,0.02661133,0,0,0.001220703,0.3105164,4.074,0,0,0,0.2999878,nan,2,9.607,1,0,0.3511658,0.217041,0.3093872,0.3645325,0.03417969,-0.01269531,0,1,3,0
172.572,0.001009,0.1738281,-0.02734375,-0.01953125,-0.8828125,-1.992188,9.351562,0.06054688,-0.015625,-0.01171875,0.078125,-0.02929688,0,-0.01306152,0.004760742,0.02685547,0,0,0.001220703,0.3105164,4.074,0,0,0,0.2999878,nan,2,9.617,1,0,0.2524719,0.3500671,0.2367554,0.4028015,0.03417969,-0.01269531,0,1,3,0.4444444
172.582,0.001009,-0.06835938,0.0234375,-0.02539062,2.539062,0.0859375,8.492188,-0.0078125,0.0078125,-0.03125,0.07617188,-0.02734375,0,-0.01257324,0.004516602,0.02648926,0,0,0.001220703,0.3105164,4.074,0,0,0,0.2999878,nan,2,9.627,1,0,0.3128662,0.270752,0.2572632,0.4011841,0.03417969,-0.01269531,0,1,3,0
172.592,0.001009,0.08203125,0.02148438,-0.001953125,1.28125,-4.015625,8.6875,0.009765625,0.06054688,-0.02929688,0.078125,-0.03125,0,-0.01293945,0.005126953,0.02612305,0,0,0.001220703,0.3105164,4.074,0,0,0,0.2999878,nan,2,9.637,1,0,0.3303223,0.2522888,0.3038635,0.3556519,0.03515625,-0.01269531,0,1,3,0.1587302
172.602,0.001015,0.02734375,0.001953125,0.06054688,-0.625,-0.546875,10.36719,0.04492188,-0.03125,0.0390625,0.07617188,-0.03125,0,-0.01269531,0.005126953,0.02624512,0,0,0.001220703,0.3105164,4.074,0,0,0,0.2999878,nan,2,9.648,1,0,0.4080811,0.1987915,0.3563538,0.2788696,0.03515625,-0.01269531,0,1,3,0
172.612,0.001006,0.005859375,0.05078125,0.1152344,-1.71875,2.171875,11.49219,-0.01367188,0.00390625,0.09179688,0.07617188,-0.02929688,0,-0.01257324,0.005004883,0.02685547,0,0,0.001220703,0.3105164,4.074,0,0,0,0.2999878,nan,2,9.658,1,0,0.4185486,0.167511,0.3650513,0.2909851,0.03515625,-0.01269531,0,1,3,0
172.622,0.00099,-0.08984375,-0.09765625,0.04492188,2.273438,1.789062,8.515625,-0.06445312,-0.0546875,0.09375,0.078125,-0.02929688,0,-0.01318359,0.005004883,0.0279541,0,0,0.001220703,0.3105164,4.074,0,0,0,0.2999878,nan,2,9.668,1,0,0.3587952,0.2561951,0.2721252,0.3549805,0.03515625,-0.01269531,0,1,3,0
172.632,0.001003,-0.1210938,0.046875,-0.08984375,0.3125,-1.25,7.492188,-0.1054688,-0.00390625,-0.01171875,0.08398438,-0.02734375,0,-0.01403809,0.004516602,0.02832031,0,0,0.001220703,0.3105164,4.074,0,0,0,0.2999878,nan,2,9.678,1,0,0.2443848,0.3361816,0.1828308,0.4786987,0.03515625,-0.01269531,0,1,3,0
172.642,0.001009,0.09570312,-0.07617188,-0.02148438,-1.265625,4.117188,13.17969,0.009765625,-0.005859375,-0.04492188,0.08789062,-0.02929688,0,-0.01464844,0.004882812,0.02783203,0,0,0.001220703,0.3105164,4.074,0,0,0,0.2999878,nan,2,9.688,1,0,0.3095093,0.2926331,0.2743835,0.3655701,0.03515625,-0.01269531,0,1,3,0
172.651,0.000976,0.08203125,-0.07617188,0.02148438,1.304688,-0.9140625,8.710938,0.1015625,-0.09765625,0.01367188,0.08398438,-0.02539062,0,-0.01403809,0.004150391,0.02770996,0,0,0.001220703,0.3105164,4.074,0,0,0,0.2999878,nan,2,9.697,1,0,0.38797,0.2267761,0.3423157,0.2850647,0.03515625,-0.01269531,0,1,3,0
172.662,0.001012,0.02929688,0.015625,-0.005859375,0.2421875,-3.914062,6.546875,-0.03710938,0.03320312,0.001953125,0.08398438,-0.0234375,0,-0.01391602,0.00390625,0.02783203,0,0,0.001220703,0.3105164,4.074,0,0,0,0.2999878,nan,2,9.707,1,0,0.3320618,0.2381287,0.2861938,0.3857117,0.03515625,-0.01269531,0,1,3,0
172.672,0.001005,-0.0078125,-0.01757812,-0.1347656,-0.328125,1.882812,9.8125,0.005859375,-0.005859375,-0.09375,0.08398438,-0.0234375,0,-0.01403809,0.00402832,0.02734375,0,0,0.001220703,0.3105164,4.074,0,0,0,0.2999878,nan,2,9.717,1,0,0.210968,0.3875122,0.1549072,0.488739,0.03515625,-0.01269531,0,1,3,0.01587302
172.682,0.001025,-0.0703125,0.08007812,-0.1582031,-1.226562,4.546875,10.35156,-0.001953125,0,-0.1308594,0.08203125,-0.0234375,0,-0.01379395,0.00378418,0.02624512,0,0,0.001220703,0.3105164,4.074,0,0,0,0.2999878,nan,2,9.727,1,0,0.2500916,0.3339844,0.1986084,0.4594116,0.03515625,-0.01269531,0,1,3,0
172.692,0.001044,0.03515625,-0.04882812,-0.07421875,-2.226562,3.367188,8.945312,0.03125,-0.04296875,-0.0859375,0.08203125,-0.0234375,0,-0.0135498,0.00390625,0.02502441,0,0,0.001220703,0.3105164,4.074,0,0,0,0.2999878,nan,2,9.737,1,0,0.3614502,0.2535706,0.2934265,0.3336792,0.03515625,-0.01269531,0,1,3,0.9047619
172.702,0.0009860001,-0.06835938,-0.03515625,0.02148438,-2.015625,3.867188,11.39844,0.02929688,-0.06445312,-0.02929688,0.078125,-0.01953125,0,-0.01306152,0.003295898,0.02441406,0,0,0.001220703,0.3105164,4.074,0,0,0,0.2999878,nan,2,9.748,1,0,0.4095154,0.1939697,0.3373718,0.301239,0.03515625,-0.01269531,0,1,3,0
172.712,0.000995,0.015625,-0.01171875,0.04101562,-0.3515625,4.382812,15.41406,0.01171875,0.01953125,0.03125,0.078125,-0.01953125,0,-0.01293945,0.003173828,0.02453613,0,0,0.001220703,0.3105164,4.074,0,0,0,0.2999878,nan,2,9.758,1,0,0.3860168,0.1943359,0.3492737,0.3125,0.03613281,-0.01269531,0,1,3,0
172.722,0.001025,0.02929688,-0.03320312,0.02734375,0.5234375,-1.671875,8.828125,-0.02734375,0.00390625,0.03125,0.08007812,-0.02148438,0,-0.01342773,0.003417969,0.02490234,0,0,0.001220703,0.3105164,4.074,0,0,0,0.2999878,nan,2,9.768,1,0,0.351593,0.2483215,0.291626,0.3505554,0.03613281,-0.01269531,0,1,3,0
172.732,0.001011,0.01757812,0.0234375,0.02734375,1.25,-0.65625,11.5625,0.01171875,-0.00390625,0.005859375,0.078125,-0.01953125,0,-0.01318359,0.003295898,0.02502441,0,0,0.001220703,0.3105164,4.074,0,0,0,0.2999878,nan,2,9.778,1,0,0.3317871,0.2558289,0.2808228,0.3736877,0.03613281,-0.01269531,0,1,3,0
172.741,0.00106,-0.0078125,0.0078125,-0.05078125,-0.84375,-0.578125,7.9375,0,0.015625,-0.00390625,0.078125,-0.01953125,0,-0.01318359,0.003417969,0.02514648,0,0,0.001220703,0.3105164,4.074,0,0,0,0.2999878,nan,2,9.787,1,0,0.2926941,0.2929688,0.2460938,0.4103088,0.03613281,-0.01269531,0,1,3,0
172.751,0.001007,-0.0234375,-0.001953125,-0.04882812,-2.148438,2.210938,12.375,0.04101562,-0.0234375,-0.04492188,0.078125,-0.01953125,0,-0.01281738,0.003417969,0.02478027,0,0,0.001220703,0.3105164,4.074,0,0,0,0.2999878,nan,2,9.797,1,0,0.3063049,0.2985229,0.2465515,0.3907166,0.03613281,-0.01269531,0,1,3,0
172.762,0.001008,0.00390625,0.03710938,0.01367188,-1.9375,5.53125,13.11719,-0.005859375,0.005859375,-0.02148438,0.07617188,-0.02148438,0,-0.01281738,0.003417969,0.02429199,0,0,0.001220703,0.3105164,4.074,0,0,0,0.2999878,nan,2,9.807,1,0,0.3682861,0.2229919,0.3085022,0.3423157,0.03613281,-0.01269531,0,1,3,0
172.772,0.001008,0.02929688,-0.03515625,0.046875,-2.054688,3.71875,13.84375,0.0234375,-0.02539062,0.04101562,0.07617188,-0.01953125,0,-0.01281738,0.003295898,0.02453613,0,0,0.001220703,0.3105164,4.074,0,0,0,0.2999878,nan,2,9.817,1,0,0.3999329,0.1999512,0.3494873,0.2927246,0.03613281,-0.01269531,0,1,3,0
172.782,0.001009,-0.0859375,-0.02734375,0.09179688,0.3828125,0.6015625,11.09375,-0.05273438,0.00390625,0.08007812,0.078125,-0.01953125,0,-0.01281738,0.003295898,0.02502441,0,0,0.001220703,0.3105164,4.074,0,0,0,0.2999878,nan,2,9.827,1,0,0.4188538,0.1716919,0.3453064,0.3062439,0.03613281,-0.01269531,0,1,3,0
172.792,0.001008,-0.015625,-0.001953125,-0.03320312,1.640625,-1.820312,11.53906,-0.04101562,-0.0078125,0.015625,0.08007812,-0.01953125,0,-0.01318359,0.003295898,0.02563477,0,0,0.001220703,0.3105164,4.074,0,0,0,0.2999878,nan,2,9.837,1,0,0.2657776,0.3283691,0.2020569,0.4458923,0.03613281,-0.01269531,0,1,3,0
172.802,0.001007,0.0234375,0.05664062,-0.02734375,1.0625,-1.71875,9.40625,0.03710938,0.001953125,-0.0234375,0.078125,-0.01953125,0,-0.01306152,0.003051758,0.02563477,0,0,0.001220703,0.3105164,4.074,0,0,0,0.2999878,nan,2,9.847,1,0,0.2826538,0.3016052,0.2481384,0.409668,0.03613281,-0.01269531,0,1,3,0.5238096
172.812,0.001018,-0.06835938,-0.00390625,-0.01953125,0.015625,-2.421875,6.921875,-0.02929688,0.02539062,-0.015625,0.078125,-0.01953125,0,-0.01306152,0.003295898,0.02539062,0,0,0.001220703,0.3105164,4.074,0,0,0,0.2999878,nan,2,9.858,1,0,0.3360596,0.250946,0.2717896,0.3833313,0.03613281,-0.01269531,0,1,3,0
172.822,0.001006,-0.05859375,0.02734375,0.0546875,1.585938,-5.375,10.04688,-0.005859375,-0.001953125,0.02734375,0.078125,-0.01953125,0,-0.01306152,0.003173828,0.02539062,0,0,0.001220703,0.3105164,4.074,0,0,0,0.2999878,nan,2,9.868,1,0,0.3952942,0.1929626,0.3425598,0.3112793,0.03613281,-0.01269531,0,1,3,0
172.832,0.001008,-0.00390625,-0.001953125,0.04492188,-0.5,-2.054688,8.617188,0.02734375,-0.001953125,0.06445312,0.078125,-0.01953125,0,-0.01306152,0.003173828,0.02600098,0,0,0.001220703,0.3105164,4.074,0,0,0,0.2999878,nan,2,9.878,1,0,0.3674927,0.2242432,0.3244629,0.3258972,0.03710938,-0.01269531,0,1,3,0
172.842,0.001008,0,-0.04492188,-0.1015625,-1.945312,1.34375,12.03125,0.03125,-0.02734375,-0.04492188,0.078125,-0.01953125,0,-0.01293945,0.003173828,0.02612305,0,0,0.001220703,0.3105164,4.074,0,0,0,0.2999878,nan,2,9.888,1,0,0.2305298,0.375824,0.1700439,0.4657288,0.03710938,-0.01269531,0,1,3,0
172.851,0.00096,-0.1191406,0.06640625,-0.046875,1.3125,2.351562,9.5625,-0.04101562,0.04492188,-0.0703125,0.078125,-0.01953125,0,-0.01293945,0.003173828,0.02539062,0,0,0.001220703,0.3105164,4.074,0,0,0,0.2999878,nan,2,9.897,1,0,0.3106079,0.2632751,0.2557678,0.4124451,0.03710938,-0.01367188,0,1,3,0.1904762
172.862,0.001016,0.03320312,0.04492188,0.015625,1.023438,0.59375,7.945312,-0.04882812,0.0390625,-0.03515625,0.08007812,-0.02148438,0,-0.01342773,0.003417969,0.0246582,0,0,0.001220703,0.3105164,4.074,0,0,0,0.2999878,nan,2,9.907,1,0,0.3854065,0.1944885,0.3363037,0.3258972,0.03710938,-0.01367188,0,1,3,0
172.872,0.000982,-0.046875,-0.08007812,0.04882812,1.492188,-1.601562,7.414062,0.0078125,-0.03125,0.0234375,0.08007812,-0.02148438,0,-0.01318359,0.003540039,0.02478027,0,0,0.001220703,0.3105164,4.074,0,0,0,0.2999878,nan,2,9.917,1,0,0.4066162,0.2012634,0.3314209,0.3027954,0.03710938,-0.01367188,0,1,3,0
172.882,0.001016,0.07226562,0.005859375,0.005859375,1.453125,-3.171875,9.140625,0.0390625,0.01757812,0.02539062,0.078125,-0.02148438,0,-0.01318359,0.003417969,0.02514648,0,0,0.001220703,0.3105164,4.074,0,0,0,0.2999878,nan,2,9.927,1,0,0.3201294,0.2643738,0.2904053,0.367218,0.03710938,-0.01367188,0,1,3,0.8571429
172.892,0.000974,-0.0078125,0.05273438,-0.09570312,-1.375,-3.195312,11.91406,-0.01171875,0.02734375,-0.06054688,0.08007812,-0.02148438,0,-0.01318359,0.003417969,0.02490234,0,0,0.001220703,0.3105164,4.074,0,0,0,0.2999878,nan,2,9.937,1,0,0.2381592,0.3411865,0.1920471,0.4707031,0.03710938,-0.01367188,0,1,3,0
172.902,0.001014,0.046875,0.0234375,-0.08007812,-2.242188,3.789062,13.71875,0.001953125,0.0390625,-0.1015625,0.08007812,-0.0234375,0,-0.01330566,0.00378418,0.02392578,0,0,0.001220703,0.3105164,4.074,0,0,0,0.2999878,nan,2,9.947,1,0,0.271759,0.3143616,0.2283325,0.4276733,0.03710938,-0.01367188,0,1,3,0
172.912,0.001023,-0.1035156,-0.0078125,-0.01367188,-1.835938,2.25,11.53906,-0.09765625,0.04101562,-0.02734375,0.08398438,-0.02539062,0,-0.01391602,0.004272461,0.0234375,0,0,0.001220703,0.3105164,4.074,0,0,0,0.2999878,nan,2,9.958,1,0,0.3903198,0.1980286,0.3130798,0.3406677,0.03710938,-0.01367188,0,1,3,0
172.922,0.001002,0.001953125,-0.01367188,0.01953125,-1.851562,0.796875,11.57031,-0.00390625,-0.0078125,0.015625,0.0859375,-0.02539062,0,-0.0144043,0.004272461,0.0234375,0,0,0.001220703,0.3105164,4.074,0,0,0,0.2999878,nan,2,9.968,1,0,0.3710632,0.2270508,0.3182983,0.3256836,0.03710938,-0.01367188,0,1,3,0
172.932,0.001012,0.08789062,0.046875,-0.015625,-1.65625,3.25,12.44531,0.009765625,0.015625,-0.01171875,0.0859375,-0.02539062,0,-0.0144043,0.004394531,0.0234375,0,0,0.001220703,0.3105164,4.074,0,0,0,0.2999878,nan,2,9.978,1,0,0.308197,0.2756348,0.2705994,0.3876648,0.03710938,-0.01367188,0,1,3,0
172.942,0.001012,-0.04882812,-0.0078125,-0.1074219,0.046875,-1.242188,9.039062,0.02148438,0.009765625,-0.09179688,0.08398438,-0.02734375,0,-0.01403809,0.004516602,0.02282715,0,0,0.001220703,0.3105164,4.074,0,0,0,0.2999878,nan,2,9.988,1,0,0.2423096,0.349762,0.1851807,0.4648743,0.03808594,-0.01367188,0,1,3,0
172.951,0.001009,-0.01757812,-0.06640625,-0.07617188,2.71875,-0.640625,8.328125,-0.04882812,0.03125,-0.078125,0.0859375,-0.02929688,0,-0.01428223,0.004760742,0.02209473,0,0,0.001220703,0.3105164,4.074,0,0,0,0.2999878,nan,2,9.997,1,0,0.3174438,0.2664795,0.2532349,0.4049377,0.03808594,-0.01367188,0,1,3,0
172.962,0.00101,0.07421875,-0.1074219,-0.009765625,1.96875,-2.617188,9.054688,0.05664062,-0.04492188,-0.015625,0.0859375,-0.02734375,0,-0.01428223,0.004516602,0.02172852,0,0,0.001220703,0.3105164,4.074,0,0,0,0.2999878,nan,2,10.007,1,0,0.3666382,0.2430725,0.3178406,0.3145447,0.03808594,-0.01367188,0,1,3,0.3968254
172.972,0.00101,-0.1113281,0.1191406,-0.0390625,1.601562,-6.195312,9.703125,-0.03320312,0.02148438,-0.05273438,0.08398438,-0.02539062,0,-0.01403809,0.004272461,0.0213623,0,0,0.001220703,0.3105164,4.074,0,0,0,0.2999878,nan,2,10.017,1,0,0.3048706,0.2677612,0.2441711,0.425293,0.03808594,-0.01367188,0,1,3,0
172.982,0.001011,0.01171875,-0.04492188,-0.005859375,0.4375,-1.65625,7.585938,0.0078125,-0.005859375,-0.01953125,0.08789062,-0.02929688,0,-0.01452637,0.004760742,0.02111816,0,0,0.001220703,0.3105164,4.074,0,0,0,0.2999878,nan,2,10.027,1,0,0.3574524,0.246521,0.2991028,0.3390503,0.03808594,-0.01367188,0,1,3,0
172.992,0.001011,-0.05664062,0.07226562,0.02539062,-1.875,0.109375,9.054688,-0.03320312,0.01171875,0.01953125,0.0859375,-0.02734375,0,-0.0144043,0.004638672,0.02099609,0,0,0.001220703,0.3105164,4.074,0,0,0,0.2999878,nan,2,10.037,1,0,0.3927917,0.1907654,0.3270264,0.3315125,0.03808594,-0.01367188,0,1,3,0
173.002,0.001012,0.01171875,0.06835938,0.02929688,-1.375,5.875,15.21094,0.01367188,0.02929688,0.05078125,0.0859375,-0.02929688,0,-0.0144043,0.004760742,0.02148438,0,0,0.001220703,0.3105164,4.074,0,0,0,0.2999878,nan,2,10.047,1,0,0.3617249,0.2177429,0.3203735,0.3422546,0.03808594,-0.01367188,0,1,3,0
173.012,0.001007,-0.001953125,-0.06640625,-0.0390625,0.21875,-3.53125,9.46875,-0.01171875,-0.009765625,-0.0234375,0.0859375,-0.02929688,0,-0.01452637,0.004882812,0.02160645,0,0,0.001220703,0.3105164,4.074,0,0,0,0.2999878,nan,2,10.058,1,0,0.2765198,0.3228455,0.2080688,0.4346619,0.03808594,-0.01367188,0,1,3,0.3174603
173.022,0.001057,-0.06445312,0.0078125,-0.02539062,1.851562,-0.8125,7.070312,-0.05664062,0.009765625,-0.04296875,0.08789062,-0.02929688,0,-0.01464844,0.004882812,0.02111816,0,0,0.001220703,0.3105164,4.074,0,0,0,0.2999878,nan,2,10.068,1,0,0.3274841,0.2565002,0.2550659,0.4030762,0.03808594,-0.01367188,0,1,3,0
173.032,0.001005,0.02929688,0.02539062,0.01171875,1.460938,-2.609375,8.210938,0.009765625,0.015625,-0.005859375,0.08984375,-0.03125,0,-0.01501465,0.005126953,0.02087402,0,0,0.001220703,0.3105164,4.074,0,0,0,0.2999878,nan,2,10.078,1,0,0.3707275,0.2191467,0.3302612,0.3219604,0.03808594,-0.01367188,0,1,3,0
173.042,0.001006,-0.04492188,0.01953125,-0.046875,0.9453125,-0.03125,10.17969,-0.0234375,0.005859375,-0.03320312,0.08984375,-0.03125,0,-0.01501465,0.005126953,0.02075195,0,0,0.001220703,0.3105164,4.074,0,0,0,0.2999878,nan,2,10.088,1,0,0.3000183,0.289032,0.2363586,0.416687,0.0390625,-0.01367188,0,1,3,0.07936508
173.052,0.000997,0.0390625,0.02734375,0.01953125,-2.414062,4.742188,14.07031,-0.02734375,0.0078125,-0.00390625,0.09179688,-0.03125,0,-0.01538086,0.005249023,0.02050781,0,0,0.001220703,0.3105164,4.074,0,0,0,0.2999878,nan,2,10.097,1,0,0.3698425,0.2167053,0.3145447,0.3410034,0.0390625,-0.01367188,0,1,3,0
173.062,0.001018,-0.0234375,-0.00390625,0,-0.7109375,1.070312,12.8125,0.015625,-0.03515625,0.001953125,0.08984375,-0.02929688,0,-0.01513672,0.005004883,0.02050781,0,0,0.001220703,0.3105164,4.074,0,0,0,0.2999878,nan,2,10.107,1,0,0.3497009,0.2496033,0.282196,0.3605957,0.0390625,-0.01367188,0,1,3,0
173.072,0.001022,0.01757812,0.04882812,0.02148438,1.546875,-1.507812,8.554688,-0.0234375,0.03515625,0.02539062,0.09179688,-0.03125,0,-0.01550293,0.005126953,0.02062988,0,0,0.001220703,0.3105164,4.074,0,0,0,0.2999878,nan,2,10.117,1,0,0.3550415,0.2199402,0.3121643,0.3549805,0.0390625,-0.01367188,0,1,3,0
173.082,0.001011,0.03515625,-0.01171875,0.06640625,0.84375,-3.789062,9.078125,-0.0078125,0.01171875,0.05078125,0.09375,-0.03320312,0,-0.01574707,0.005493164,0.02099609,0,0,0.001220703,0.3105164,4.074,0,0,0,0.2999878,nan,2,10.127,1,0,0.3864441,0.2065735,0.3286743,0.3204346,0.0390625,-0.01367188,0,1,3,0.7777778
173.092,0.001011,0.005859375,0.08984375,0.01953125,-1.015625,3.46875,9.539062,0.01367188,0.01367188,0.04492188,0.09179688,-0.03320312,0,-0.01550293,0.005371094,0.02160645,0,0,0.001220703,0.3105164,4.074,0,0,0,0.2999878,nan,2,10.137,1,0,0.3242798,0.2529297,0.27771,0.3871765,0.0390625,-0.01367188,0,1,3,0
173.102,0.001007,0.08007812,0.0390625,0.09960938,0.671875,3.046875,10.53906,-0.015625,0.02539062,0.09179688,0.09570312,-0.03320312,0,-0.01586914,0.005493164,0.0222168,0,0,0.001220703,0.3105164,4.074,0,0,0,0.2999878,nan,2,10.147,1,0,0.4043884,0.1769104,0.3583984,0.3023987,0.0390625,-0.01367188,0,1,3,0
173.112,0.001007,-0.1054688,-0.0546875,0.08007812,0.671875,-6.742188,9.507812,-0.00390625,-0.03515625,0.09179688,0.09570312,-0.03320312,0,-0.01574707,0.005493164,0.02319336,0,0,0.001220703,0.3105164,4.074,0,0,0,0.2999878,nan,2,10.158,1,0,0.3807678,0.2217102,0.3056641,0.3339539,0.0390625,-0.01367188,0,1,3,0
173.122,0.001008,0.05664062,-0.06445312,0.04296875,-0.6484375,1.40625,8.390625,0.0078125,-0.005859375,0.03320312,0.09570312,-0.03125,0,-0.01599121,0.005371094,0.02368164,0,0,0.001220703,0.3105164,4.074,0,0,0,0.2999878,nan,2,10.168,1,0,0.324585,0.2655029,0.2754517,0.3765564,0.0390625,-0.01367188,0,1,3,0
173.132,0.001004,-0.0703125,-0.02929688,0.0625,-1.46875,3.367188,13.42188,-0.005859375,-0.001953125,0.04492188,0.09375,-0.03125,0,-0.01574707,0.005371094,0.02392578,0,0,0.001220703,0.3105164,4.072,0,0,0,0.2999878,nan,2,10.178,1,0,0.3800354,0.2098083,0.3078308,0.3444214,0.0390625,-0.01464844,0,1,3,0
173.142,0.00101,0.005859375,0.02539062,0.03515625,0.7109375,0.25,10.32812,-0.005859375,0.005859375,0.03320312,0.09570312,-0.03125,0,-0.01586914,0.005249023,0.02441406,0,0,0.001220703,0.3105164,4.072,0,0,0,0.2999878,nan,2,10.188,1,0,0.3406372,0.2447205,0.2846069,0.3721313,0.04003906,-0.01464844,0,1,3,0
173.152,0.001006,0.01367188,0.03125,0.04296875,1.867188,-1.640625,9.539062,0.00390625,0.009765625,0.0625,0.09570312,-0.03320312,0,-0.01599121,0.005493164,0.02490234,0,0,0.001220703,0.3105164,4.072,0,0,0,0.2999878,nan,2,10.198,1,0,0.3684692,0.2182617,0.3171082,0.3382568,0.04003906,-0.01464844,0,1,3,0.8571429
173.161,0.00101,-0.08789062,0.03710938,0.04101562,-2.070312,3.015625,9.828125,-0.04492188,0.01367188,0.046875,0.09570312,-0.03320312,0,-0.01599121,0.005493164,0.02539062,0,0,0.001220703,0.3105164,4.072,0,0,0,0.2999878,nan,2,10.207,1,0,0.3489685,0.2348633,0.2739258,0.3843384,0.04003906,-0.01464844,0,1,3,0
173.172,0.001006,0.1035156,-0.03710938,0.07421875,0.328125,2.65625,9.84375,0.00390625,-0.009765625,0.08398438,0.09765625,-0.03320312,0,-0.01623535,0.005615234,0.02612305,0,0,0.001220703,0.3105164,4.072,0,0,0,0.2999878,nan,2,10.217,1,0,0.3824768,0.2142334,0.3250122,0.3204041,0.04003906,-0.01464844,0,1,3,0.07936508
173.182,0.001006,-0.1015625,0,0.03710938,1.585938,-7.367188,10.49219,0,-0.01171875,0.05078125,0.09570312,-0.03320312,0,-0.01611328,0.005371094,0.02685547,0,0,0.001220703,0.3105164,4.072,0,0,0,0.2999878,nan,2,10.227,1,0,0.3293762,0.2590637,0.2630005,0.3906555,0.04003906,-0.01464844,0,1,3,0
173.192,0.001006,0.07617188,-0.02734375,0.02734375,-1.882812,0,7.632812,0.00390625,-0.005859375,0.01757812,0.09765625,-0.03320312,0,-0.01635742,0.005615234,0.02697754,0,0,0.001220703,0.3105164,4.072,0,0,0,0.2999878,nan,2,10.237,1,0,0.342926,0.2531433,0.287384,0.3586426,0.04003906,-0.01464844,0,1,3,0
173.202,0.001003,0.009765625,-0.03515625,-0.01953125,-1.234375,3.359375,13.07031,0.01953125,-0.0234375,0.005859375,0.09765625,-0.03125,0,-0.01611328,0.005371094,0.02709961,0,0,0.001220703,0.3105164,4.072,0,0,0,0.2999878,nan,2,10.247,1,0,0.3189392,0.2749023,0.2553711,0.3928833,0.04003906,-0.01464844,0,1,3,0
173.212,0.001009,0.01757812,0.0234375,-0.03515625,0.5859375,0.6875,9.820312,-0.00390625,0.01757812,-0.0390625,0.09765625,-0.03125,0,-0.01623535,0.005371094,0.02685547,0,0,0.001220703,0.3105164,4.072,0,0,0,0.2999878,nan,2,10.258,1,0,0.2950439,0.2857056,0.2461243,0.4152527,0.04003906,-0.01464844,0,1,3,0.2222222
173.222,0.000993,0.06835938,-0.0625,0.05273438,0.5625,-0.453125,9.484375,0.009765625,-0.02539062,0.015625,0.09960938,-0.03125,0,-0.01647949,0.005371094,0.0267334,0,0,0.001220703,0.3105164,4.072,0,0,0,0.2999878,nan,2,10.268,1,0,0.3990479,0.2009583,0.3388062,0.3032837,0.04003906,-0.01464844,0,1,3,0.3809524
173.232,0.001027,-0.09765625,0.0234375,0.02148438,1.34375,-3.335938,10.00781,-0.01171875,0.009765625,0.046875,0.09765625,-0.03125,0,-0.01611328,0.005126953,0.02722168,0,0,0.001220703,0.3105164,4.072,0,0,0,0.2999878,nan,2,10.278,1,0,0.3682861,0.2104187,0.3003235,0.3630371,0.04003906,-0.01464844,0,1,3,0
173.242,0.001003,0.015625,-0.03125,-0.015625,-0.765625,-1.304688,8.945312,-0.01757812,0.01757812,-0.0078125,0.09960938,-0.03320312,0,-0.01672363,0.005493164,0.02722168,0,0,0.001220703,0.3105164,4.072,0,0,0,0.2999878,nan,2,10.288,1,0,0.3040466,0.286377,0.2465515,0.4051208,0.04101562,-0.01464844,0,1,3,0
173.251,0.001027,0.04101562,-0.02734375,0.001953125,-0.9453125,4.820312,13.42188,0.04492188,-0.0390625,0.005859375,0.09960938,-0.03125,0,-0.01647949,0.005249023,0.02734375,0,0,0.001220703,0.3105164,4.072,0,0,0,0.2999878,nan,2,10.297,1,0,0.3399048,0.2601318,0.2836914,0.3583984,0.04101562,-0.01464844,0,1,3,0
173.261,0.000969,0.01171875,0.03320312,0.05078125,1.664062,-1.59375,6.929688,0.005859375,0.009765625,0.02539062,0.09765625,-0.03125,0,-0.01635742,0.005126953,0.02746582,0,0,0.001220703,0.3105164,4.072,0,0,0,0.2999878,nan,2,10.307,1,0,0.3731689,0.2064514,0.3197021,0.342804,0.04101562,-0.01464844,0,1,3,0
173.272,0.00101,0.0390625,0.009765625,-0.01367188,1.390625,-3.195312,7.789062,0.0078125,0.03515625,0.01367188,0.09765625,-0.03320312,0,-0.01635742,0.005493164,0.02770996,0,0,0.001220703,0.3105164,4.072,0,0,0,0.2999878,nan,2,10.317,1,0,0.311554,0.2728577,0.2599182,0.3977966,0.04101562,-0.01464844,0,1,3,0
173.282,0.00101,0.046875,-0.04492188,0.0234375,-1.78125,-0.1328125,11.33594,0.03320312,-0.046875,0.0078125,0.09765625,-0.03125,0,-0.01623535,0.005249023,0.02770996,0,0,0.001220703,0.3105164,4.072,0,0,0,0.2999878,nan,2,10.327,1,0,0.3511963,0.25,0.2865601,0.3543396,0.04101562,-0.01464844,0,1,3,0
173.292,0.001011,-0.06640625,0.1035156,0.02929688,-1.554688,4.445312,14.70312,-0.0703125,0.0625,0.01367188,0.09765625,-0.03125,0,-0.01635742,0.005371094,0.0279541,0,0,0.001220703,0.3105164,4.072,0,0,0,0.2999878,nan,2,10.337,1,0,0.3459778,0.2149048,0.2848511,0.3963928,0.04101562,-0.01464844,0,1,3,0
173.302,0.000998,0.09765625,-0.01953125,0.05273438,0.8515625,-1.148438,8.992188,0.04101562,0.0078125,0.05078125,0.09960938,-0.03515625,0,-0.01647949,0.005737305,0.02832031,0,0,0.001220703,0.3105164,4.072,0,0,0,0.2999878,nan,2,10.347,1,0,0.3801575,0.2148132,0.3361816,0.3109436,0.04101562,-0.01464844,0,1,3,0
173.312,0.001015,-0.0390625,-0.00390625,-0.02929688,1.867188,-0.578125,10.78906,0.02148438,-0.02734375,0,0.09570312,-0.03320312,0,-0.01599121,0.005493164,0.02856445,0,0,0.001220703,0.3105164,4.072,0,0,0,0.2999878,nan,2,10.358,1,0,0.2921143,0.2991638,0.2247314,0.4261169,0.04101562,-0.01464844,0,1,3,0
173.322,0.001018,-0.009765625,0.00390625,0.05273438,2.382812,-3.09375,9.382812,-0.05273438,0.05273438,0.01757812,0.09765625,-0.03320312,0,-0.01635742,0.005737305,0.02856445,0,0,0.001220703,0.3105164,4.072,0,0,0,0.2999878,nan,2,10.368,1,0,0.3806763,0.1906128,0.319519,0.3512573,0.04101562,-0.01464844,0,1,3,0.2222222
173.332,0.000961,-0.02148438,-0.0859375,0.08203125,-0.71875,-2.015625,7.304688,0,-0.046875,0.06445312,0.09765625,-0.03320312,0,-0.01635742,0.005615234,0.02893066,0,0,0.001220703,0.3105164,4.072,0,0,0,0.2999878,nan,2,10.378,1,0,0.4176331,0.1918945,0.3331299,0.299469,0.04101562,-0.01464844,0,1,3,0
173.342,0.001009,-0.0078125,0.09765625,0.02734375,-0.75,6.867188,14.84375,0.01953125,0.04492188,0.03710938,0.09765625,-0.03320312,0,-0.01623535,0.005493164,0.02954102,0,0,0.001220703,0.3105164,4.072,0,0,0,0.2999878,nan,2,10.388,1,0,0.2992554,0.2601013,0.2720642,0.410675,0.04199219,-0.01464844,0,1,3,0
173.352,0.001009,0.03320312,0.01171875,0.0703125,-0.2578125,-2.234375,7.226562,-0.03710938,0.03320312,0.02929688,0.09960938,-0.03515625,0,-0.01672363,0.005859375,0.02966309,0,0,0.001220703,0.3105164,4.072,0,0,0,0.2999878,nan,2,10.398,1,0,0.3746948,0.2084351,0.3169861,0.34198,0.04199219,-0.01464844,0,1,3,0
173.361,0.001012,0.109375,-0.1171875,0.0625,1.070312,-1.710938,8.320312,0.0703125,-0.05859375,0.06640625,0.09960938,-0.03515625,0,-0.01647949,0.005737305,0.03015137,0,0,0.001220703,0.3105164,4.072,0,0,0,0.2999878,nan,2,10.407,1,0,0.3883972,0.2247314,0.3314819,0.2974854,0.04199219,-0.01464844,0,1,3,0
173.372,0.001007,-0.04101562,0.08007812,0.02539062,-1.90625,-3.601562,10.39062,-0.02539062,0.0390625,0.03515625,0.09765625,-0.03320312,0,-0.01623535,0.005493164,0.03063965,0,0,0.001220703,0.3105164,4.072,0,0,0,0.2999878,nan,2,10.417,1,0,0.3236389,0.2394104,0.2668762,0.4121704,0.04199219,-0.01464844,0,1,3,0
173.382,0.001007,0.1171875,-0.03125,0.078125,-1.71875,3.234375,13.86719,0.015625,0.01367188,0.03710938,0.09960938,-0.03515625,0,-0.01647949,0.005981445,0.03088379,0,0,0.001220703,0.3105164,4.072,0,0,0,0.2999878,nan,2,10.427,1,0,0.3711853,0.2238464,0.3170471,0.3300476,0.04199219,-0.01464844,0,1,3,0
173.392,0.00101,0.05664062,0.05664062,0.04882812,1.804688,0.1171875,8.304688,0.08984375,-0.02148438,0.04492188,0.09375,-0.03320312,0,-0.015625,0.005615234,0.03137207,0,0,0.001220703,0.3105164,4.072,0,0,0,0.2999878,nan,2,10.437,1,0,0.3542175,0.2294006,0.3111877,0.34729,0.04199219,-0.01464844,0,1,3,0
173.402,0.000981,0.01171875,0.02539062,-0.02734375,0.84375,-4.40625,7.40625,-0.0625,0.0390625,0.02148438,0.09375,-0.03515625,0,-0.015625,0.005859375,0.03173828,0,0,0.001220703,0.3105164,4.072,0,0,0,0.2999878,nan,2,10.447,1,0,0.3181763,0.2573547,0.2435913,0.4230042,0.04199219,-0.01464844,0,1,3,0
173.412,0.001004,0.0625,-0.07421875,0.001953125,-0.9375,0.46875,8.453125,0.04882812,-0.05273438,-0.01367188,0.09375,-0.03515625,0,-0.01550293,0.005737305,0.03161621,0,0,0.001220703,0.3105164,4.072,0,0,0,0.2999878,nan,2,10.458,1,0,0.3301697,0.2791138,0.2643127,0.3684998,0.04199219,-0.01464844,0,1,3,0
173.422,0.001002,-0.06640625,0.05273438,0.005859375,-1.046875,-2.054688,7.28125,-0.01953125,0.02539062,-0.001953125,0.09179688,-0.03320312,0,-0.01538086,0.005615234,0.03149414,0,0,0.001220703,0.3105164,4.072,0,0,0,0.2999878,nan,2,10.468,1,0,0.3572388,0.2156982,0.2958374,0.3733215,0.04199219,-0.015625,0,1,3,0
173.432,0.001006,0.04882812,-0.02148438,-0.001953125,-1.453125,6.601562,14.05469,-0.005859375,0.015625,0.0078125,0.09375,-0.03515625,0,-0.01574707,0.005981445,0.03161621,0,0,0.001220703,0.3105164,4.072,0,0,0,0.2999878,nan,2,10.478,1,0,0.3361206,0.2523499,0.2807617,0.3728333,0.04199219,-0.015625,0,1,3,0
173.442,0.001007,-0.04882812,0.005859375,-0.009765625,0.25,-0.0859375,10.74219,0.01171875,-0.03125,-0.01367188,0.09179688,-0.03320312,0,-0.01525879,0.005493164,0.03149414,0,0,0.001220703,0.3105164,4.072,0,0,0,0.2999878,nan,2,10.488,1,0,0.336792,0.2524109,0.2640381,0.3888245,0.04199219,-0.015625,0,1,3,0
173.452,0.001007,-0.06445312,0.04492188,0.03125,1.875,1.109375,6.492188,-0.06054688,0.05078125,0.005859375,0.09375,-0.03515625,0,-0.01574707,0.005859375,0.03149414,0,0,0.001220703,0.3105164,4.072,0,0,0,0.2999878,nan,2,10.498,1,0,0.3737183,0.2001648,0.3094788,0.3587341,0.04296875,-0.015625,0,1,3,0
173.461,0.001012,0.04882812,-0.125,0.01367188,1.09375,-5.320312,10.21094,0.01953125,-0.06835938,0.0390625,0.09570312,-0.03515625,0,-0.01586914,0.005859375,0.03186035,0,0,0.001220703,0.3105164,4.072,0,0,0,0.2999878,nan,2,10.507,1,0,0.3696899,0.2494202,0.2913208,0.3316956,0.04296875,-0.015625,0,1,3,0
173.472,0.001008,0.03320312,-0.001953125,0.0234375,-1.8125,4.453125,11.46875,0.03710938,-0.005859375,0.005859375,0.09179688,-0.03320312,0,-0.01550293,0.005615234,0.03186035,0,0,0.001220703,0.3105164,4.072,0,0,0,0.2999878,nan,2,10.517,1,0,0.3378601,0.2440186,0.2841187,0.3760986,0.04296875,-0.015625,0,1,3,0
173.482,0.001008,-0.05273438,0.02929688,0.04492188,-0.53125,0.015625,11.17969,-0.06445312,0.05078125,0.03320312,0.09570312,-0.03515625,0,-0.01586914,0.005981445,0.03210449,0,0,0.001220703,0.3105164,4.072,0,0,0,0.2999878,nan,2,10.527,1,0,0.3703918,0.2056885,0.2990417,0.3669739,0.04296875,-0.015625,0,1,3,0
173.492,0.0009860001,0.03515625,-0.07226562,0.02539062,2.15625,0.7109375,8.273438,0.05273438,-0.07226562,0.04101562,0.09375,-0.03515625,0,-0.015625,0.005737305,0.03259277,0,0,0.001220703,0.3105164,4.072,0,0,0,0.2999878,nan,2,10.537,1,0,0.3574829,0.2541504,0.2896729,0.3407898,0.04296875,-0.015625,0,1,3,0
173.502,0.001009,-0.109375,0.08398438,-0.01367188,-0.21875,-4.828125,10.89062,-0.07617188,0.05859375,-0.009765625,0.09375,-0.03320312,0,-0.01550293,0.005737305,0.03259277,0,0,0.001220703,0.3105164,4.072,0,0,0,0.2999878,nan,2,10.547,1,0,0.3089294,0.2470398,0.2364807,0.449646,0.04296875,-0.015625,0,1,3,0
173.512,0.001011,0.1289062,-0.1074219,0.03515625,-2.929688,3.015625,10.54688,0.0703125,-0.04882812,0.01171875,0.09375,-0.03515625,0,-0.01550293,0.005981445,0.03259277,0,0,0.001220703,0.3105164,4.072,0,0,0,0.2999878,nan,2,10.558,1,0,0.3720703,0.2444153,0.3116455,0.3139648,0.04296875,-0.015625,0,1,3,0
173.522,0.001005,0.04882812,-0.00390625,-0.0625,-0.28125,-1.234375,9.296875,0.0546875,-0.0234375,-0.01953125,0.08789062,-0.03320312,0,-0.01477051,0.005493164,0.03271484,0,0,0.001220703,0.3105164,4.072,0,0,0,0.2999878,nan,2,10.568,1,0,0.2894287,0.2929688,0.2365417,0.4231873,0.04296875,-0.015625,0,1,3,0.1111111
173.531,0.00106,-0.05859375,0.1015625,-0.03320312,1.0625,-1.234375,7.226562,-0.08398438,0.09179688,-0.0546875,0.09179688,-0.03515625,0,-0.01513672,0.005859375,0.03222656,0,0,0.001220703,0.3105164,4.072,0,0,0,0.2999878,nan,2,10.577,1,0,0.3025208,0.2514954,0.2452087,0.4428711,0.04296875,-0.015625,0,1,3,0
173.542,0.001012,0.1347656,-0.07617188,0.06445312,0.921875,-4.835938,9.609375,0.0390625,-0.04492188,0.03710938,0.09179688,-0.03515625,0,-0.01538086,0.005981445,0.03210449,0,0,0.001220703,0.3105164,4.072,0,0,0,0.2999878,nan,2,10.588,1,0,0.4259949,0.1808777,0.3690796,0.2661438,0.04296875,-0.015625,0,1,3,0
173.552,0.001008,-0.03320312,0.09570312,0.0078125,-0.5625,2.796875,9.585938,-0.001953125,0.015625,0.03320312,0.08984375,-0.03320312,0,-0.01501465,0.005493164,0.03271484,0,0,0.001220703,0.3105164,4.072,0,0,0,0.2999878,nan,2,10.598,1,0,0.3199463,0.2459106,0.2636719,0.4125366,0.04296875,-0.015625,0,1,3,0
173.561,0.000985,-0.078125,-0.01953125,-0.05273438,0.421875,-3.125,7.8125,-0.05859375,0.02539062,-0.02734375,0.09179688,-0.03515625,0,-0.01538086,0.005981445,0.03271484,0,0,0.001220703,0.3105164,4.072,0,0,0,0.2999878,nan,2,10.607,1,0,0.283844,0.3020325,0.203125,0.453125,0.04394531,-0.015625,0,1,3,0
173.572,0.001008,0.02734375,-0.01953125,0.02539062,1.492188,-1.6875,8.265625,0.02148438,-0.03710938,0,0.09179688,-0.03515625,0,-0.01538086,0.005737305,0.0324707,0,0,0.001220703,0.3105164,4.072,0,0,0,0.2999878,nan,2,10.617,1,0,0.3731689,0.2221069,0.310791,0.3360596,0.04394531,-0.015625,0,1,3,0
173.582,0.001008,-0.01757812,0.0703125,0.05859375,-1.835938,-1.679688,6.859375,-0.015625,0.015625,0.05078125,0.09179688,-0.03320312,0,-0.01538086,0.005615234,0.03271484,0,0,0.001220703,0.3105164,4.072,0,0,0,0.2999878,nan,2,10.627,1,0,0.4004822,0.1723938,0.3438416,0.3253784,0.04394531,-0.015625,0,1,3,0
173.592,0.001008,-0.02929688,0.01367188,-0.046875,1.523438,5.265625,13.13281,-0.03320312,0.02148438,-0.01953125,0.09375,-0.03515625,0,-0.015625,0.005737305,0.03295898,0,0,0.001220703,0.3105164,4.072,0,0,0,0.2999878,nan,2,10.637,1,0,0.2720642,0.3076477,0.2053528,0.4570618,0.04394531,-0.015625,0,1,3,0
173.602,0.001008,0.02148438,-0.1074219,0.03320312,1.367188,-3.304688,6.085938,0.04492188,-0.06054688,-0.00390625,0.09179688,-0.03320312,0,-0.01538086,0.005615234,0.03271484,0,0,0.001220703,0.3105164,4.072,0,0,0,0.2999878,nan,2,10.647,1,0,0.3799438,0.2313232,0.3033752,0.3274536,0.04394531,-0.015625,0,1,3,0
173.612,0.001007,-0.109375,-0.01757812,-0.0390625,0.859375,-0.8203125,7.601562,-0.01757812,0,-0.02148438,0.08984375,-0.03320312,0,-0.01513672,0.005493164,0.03271484,0,0,0.001220703,0.3105164,4.072,0,0,0,0.2999878,nan,2,10.658,1,0,0.3123169,0.269928,0.2333374,0.4265137,0.04394531,-0.015625,0,1,3,0
173.622,0.001007,0.140625,-0.03710938,-0.0546875,-2.257812,-1.171875,9.484375,0.01367188,-0.005859375,-0.0546875,0.09179688,-0.03320312,0,-0.01538086,0.005493164,0.03222656,0,0,0.001220703,0.3105164,4.072,0,0,0,0.2999878,nan,2,10.668,1,0,0.2958374,0.2941284,0.2406616,0.411499,0.04394531,-0.015625,0,1,3,0.1904762
173.632,0.001115,-0.125,0.03515625,-0.03125,-1.34375,3.445312,13.92188,-0.0546875,0.01953125,-0.0546875,0.09375,-0.03320312,0,-0.015625,0.005493164,0.03161621,0,0,0.001220703,0.3105164,4.072,0,0,0,0.2999878,nan,2,10.677,1,0,0.350769,0.2279053,0.2735291,0.3898926,0.04394531,-0.015625,0,1,3,0
173.641,0.001045,0.04882812,-0.02539062,0.01367188,0.75,0.078125,12.97656,0.005859375,-0.01757812,0.00390625,0.09375,-0.03125,0,-0.015625,0.005371094,0.03149414,0,0,0.001220703,0.3105164,4.072,0,0,0,0.2999878,nan,2,10.687,1,0,0.3795471,0.2080383,0.3171082,0.3373718,0.04394531,-0.015625,0,1,3,0
173.652,0.001124,-0.02148438,0.03320312,0.015625,1.046875,-4.289062,7.789062,-0.0078125,0,0.02734375,0.09375,-0.03125,0,-0.015625,0.005249023,0.03173828,0,0,0.001220703,0.3105164,4.072,0,0,0,0.2999878,nan,2,10.697,1,0,0.3634644,0.2170105,0.2988892,0.3627319,0.04394531,-0.015625,0,1,3,0
173.662,0.001039,0.02539062,-0.0234375,-0.005859375,-1.1875,-1.1875,7.445312,-0.001953125,-0.015625,-0.00390625,0.09375,-0.03125,0,-0.01574707,0.005249023,0.03173828,0,0,0.001220703,0.3105164,4.072,0,0,0,0.2999878,nan,2,10.707,1,0,0.3241577,0.2688904,0.2548523,0.3941956,0.04492188,-0.015625,0,1,3,0
173.672,0.000966,-0.01171875,0.0234375,-0.04882812,-1.234375,2.953125,11.30469,0.005859375,0.01367188,-0.0078125,0.09570312,-0.03125,0,-0.01586914,0.005249023,0.03186035,0,0,0.001220703,0.3105164,4.072,0,0,0,0.2999878,nan,2,10.717,1,0,0.3019409,0.2783508,0.2444153,0.4173889,0.04492188,-0.015625,0,1,3,0
173.682,0.001011,-0.03515625,-0.02929688,-0.015625,1.023438,0.6640625,8.726562,-0.015625,-0.009765625,-0.04296875,0.09570312,-0.03125,0,-0.01599121,0.005371094,0.03149414,0,0,0.001220703,0.3105164,4.072,0,0,0,0.2999878,nan,2,10.727,1,0,0.3283997,0.2647705,0.2517395,0.3971863,0.04492188,-0.015625,0,1,3,0
173.692,0.000926,-0.009765625,0.009765625,-0.0078125,1.828125,-3.25,9.695312,0.02734375,0.01171875,-0.01367188,0.09375,-0.03125,0,-0.01574707,0.005371094,0.03125,0,0,0.001220703,0.3105164,4.072,0,0,0,0.2999878,nan,2,10.737,1,0,0.3460999,0.2324829,0.2931824,0.3703308,0.04492188,-0.015625,0,1,3,0
173.702,0.001018,-0.2324219,0.06835938,0,-0.3515625,-1.890625,7.046875,-0.0625,0.03515625,0,0.09570312,-0.03320312,0,-0.01586914,0.005493164,0.03125,0,0,0.001220703,0.3105164,4.072,0,0,0,0.2999878,nan,2,10.747,1,0,0.3629761,0.2107849,0.2792664,0.3890991,0.04492188,-0.015625,0,1,3,0
173.712,0.001011,-0.01367188,-0.06054688,-0.06445312,-1.476562,1.585938,12.83594,0.0078125,-0.02929688,-0.04492188,0.09765625,-0.03320312,0,-0.01635742,0.005737305,0.03100586,0,0,0.001220703,0.3105164,4.072,0,0,0,0.2999878,nan,2,10.758,1,0,0.295166,0.3099365,0.2213135,0.4156799,0.04492188,-0.01660156,0,1,3,0
173.722,0.001004,-0.04882812,0.04882812,0.02929688,1.09375,0.34375,8.03125,-0.02929688,0.0078125,0.01367188,0.09960938,-0.03320312,0,-0.01647949,0.005615234,0.03076172,0,0,0.001220703,0.3105164,4.072,0,0,0,0.2999878,nan,2,10.768,1,0,0.40802,0.1701965,0.3380432,0.3258362,0.04492188,-0.01660156,0,1,3,0
173.732,0.00101,-0.001953125,0.01171875,0.01367188,1.265625,-4.820312,3.734375,0.01171875,0.001953125,0.01953125,0.09765625,-0.03320312,0,-0.01647949,0.005615234,0.03100586,0,0,0.001220703,0.3105164,4.072,0,0,0,0.2999878,nan,2,10.778,1,0,0.3414307,0.243103,0.2799683,0.377594,0.04492188,-0.01660156,0,1,3,0
173.742,0.001007,0.05273438,-0.0703125,-0.01757812,-0.6875,-0.75,7.328125,0,-0.0078125,-0.0234375,0.09960938,-0.03320312,0,-0.01660156,0.005737305,0.03088379,0,0,0.001220703,0.3105164,4.072,0,0,0,0.2999878,nan,2,10.788,1,0,0.3110962,0.2800903,0.2444458,0.4064941,0.04492188,-0.01660156,0,1,3,0
173.752,0.001008,-0.02148438,-0.0078125,0.015625,-2.015625,2.960938,12.63281,-0.005859375,0.005859375,0.001953125,0.09960938,-0.03320312,0,-0.01647949,0.005615234,0.03076172,0,0,0.001220703,0.3105164,4.072,0,0,0,0.2999878,nan,2,10.798,1,0,0.368927,0.2119751,0.300354,0.3608093,0.04492188,-0.01660156,0,1,3,0
173.761,0.001012,-0.04882812,0.01171875,-0.04882812,1.617188,-0.6796875,10.28906,-0.02929688,0.009765625,-0.03710938,0.09960938,-0.03320312,0,-0.01660156,0.005615234,0.03063965,0,0,0.001220703,0.3105164,4.072,0,0,0,0.2999878,nan,2,10.807,1,0,0.2976685,0.2849426,0.224823,0.4346619,0.04589844,-0.01660156,0,1,3,0
173.772,0.001008,0.1269531,0,-0.09765625,1.046875,-4.414062,10.92969,0.02539062,0.0078125,-0.06445312,0.1015625,-0.03515625,0,-0.0168457,0.005737305,0.03015137,0,0,0.001220703,0.3105164,4.072,0,0,0,0.2999878,nan,2,10.817,1,0,0.269928,0.3136902,0.2241821,0.4343262,0.04589844,-0.01660156,0,1,3,0
173.782,0.001008,0.005859375,0.01171875,0.02929688,-0.5859375,-3.328125,7.453125,0.02539062,-0.009765625,0.01367188,0.09960938,-0.03320312,0,-0.01660156,0.005615234,0.02990723,0,0,0.001220703,0.3105164,4.071,0,0,0,0.2999878,nan,2,10.827,1,0,0.4084778,0.174408,0.3470764,0.3121643,0.04589844,-0.01660156,0,1,3,0
173.792,0.001002,-0.005859375,0.00390625,-0.03515625,-2.90625,-0.796875,9.34375,-0.0234375,-0.0078125,-0.01171875,0.09960938,-0.03320312,0,-0.01660156,0.005493164,0.0300293,0,0,0.001220703,0.3105164,4.071,0,0,0,0.2999878,nan,2,10.837,1,0,0.3202209,0.2639771,0.2438049,0.414093,0.04589844,-0.01660156,0,1,3,0.6825397
173.802,0.000976,0.04492188,0.03515625,-0.01953125,0.0078125,3.359375,10.23438,0.015625,0.01757812,-0.04296875,0.09960938,-0.03320312,0,-0.01660156,0.005615234,0.02966309,0,0,0.001220703,0.3105164,4.071,0,0,0,0.2999878,nan,2,10.847,1,0,0.3056641,0.2697449,0.2514954,0.4151917,0.04589844,-0.01660156,0,1,3,0
173.812,0.000985,-0.03320312,-0.005859375,0.015625,0.28125,-4.09375,5.507812,-0.01367188,-0.03125,0.01171875,0.09960938,-0.03320312,0,-0.01660156,0.005371094,0.02954102,0,0,0.001220703,0.3105164,4.071,0,0,0,0.2999878,nan,2,10.857,1,0,0.3933716,0.1978455,0.3128052,0.3380737,0.04589844,-0.01660156,0,1,3,0
173.822,0.001001,-0.1015625,-0.01757812,-0.04492188,0.890625,-0.9453125,7.734375,0.015625,-0.00390625,-0.03125,0.09765625,-0.03125,0,-0.01635742,0.005371094,0.02954102,0,0,0.001220703,0.3105164,4.071,0,0,0,0.2999878,nan,2,10.868,1,0,0.2974243,0.2862244,0.2270813,0.431366,0.04589844,-0.01660156,0,1,3,0
173.832,0.00099,-0.005859375,-0.0078125,0.001953125,-1.148438,-3.375,8.234375,-0.05078125,0.04101562,-0.015625,0.1015625,-0.03515625,0,-0.0168457,0.005737305,0.0291748,0,0,0.001220703,0.3105164,4.071,0,0,0,0.2999878,nan,2,10.878,1,0,0.3650208,0.2150879,0.2933044,0.3687134,0.04589844,-0.01660156,0,1,3,0
173.842,0.000989,0.1035156,-0.04296875,0.015625,-2.601562,4.296875,12.99219,0.04296875,-0.05273438,0.0234375,0.1015625,-0.03320312,0,-0.01672363,0.005615234,0.02929688,0,0,0.001220703,0.3105164,4.071,0,0,0,0.2999878,nan,2,10.888,1,0,0.3708191,0.23349,0.303894,0.3338928,0.04589844,-0.01660156,0,1,3,0
173.852,0.001006,-0.0546875,-0.001953125,-0.015625,0.9453125,-0.5859375,10.23438,0.005859375,0.0078125,-0.01953125,0.09765625,-0.03320312,0,-0.01623535,0.005371094,0.02929688,0,0,0.001220703,0.3105164,4.071,0,0,0,0.2999878,nan,2,10.898,1,0,0.3200073,0.2563782,0.2451172,0.4206238,0.04589844,-0.01660156,0,1,3,0
173.861,0.001014,-0.03125,0.009765625,0,1.242188,-2.679688,8.460938,-0.04882812,0.04296875,0.001953125,0.09960938,-0.03515625,0,-0.01660156,0.005737305,0.0291748,0,0,0.001220703,0.3105164,4.071,0,0,0,0.2999878,nan,2,10.907,1,0,0.3555908,0.2176208,0.2875977,0.3813171,0.046875,-0.01660156,0,1,3,0
173.872,0.00101,0.06835938,-0.05859375,0.001953125,-1.304688,-1,9.976562,0.03515625,-0.046875,-0.0078125,0.09960938,-0.03320312,0,-0.01660156,0.005493164,0.0291748,0,0,0.001220703,0.3105164,4.071,0,0,0,0.2999878,nan,2,10.917,1,0,0.3453369,0.2561646,0.2765808,0.3640442,0.046875,-0.01660156,0,1,3,0.2539683
173.882,0.00103,-0.04101562,0.08398438,-0.00390625,-3.023438,3.578125,12.98438,-0.005859375,0.04101562,0,0.09960938,-0.03320312,0,-0.01660156,0.005493164,0.02905273,0,0,0.001220703,0.3105164,4.071,0,0,0,0.2999878,nan,2,10.927,1,0,0.3467712,0.2163696,0.2962646,0.3827209,0.046875,-0.01660156,0,1,3,0
173.892,0.001001,-0.0078125,0.02734375,-0.01953125,0.921875,2.539062,10.11719,-0.06835938,0.02539062,0.01171875,0.1035156,-0.03515625,0,-0.01721191,0.005981445,0.0291748,0,0,0.001220703,0.3105164,4.071,0,0,0,0.2999878,nan,2,10.937,1,0,0.354126,0.2295837,0.2713928,0.3869934,0.046875,-0.01660156,0,1,3,0
173.902,0.001043,0.046875,-0.0703125,0.005859375,1.703125,-1.382812,10.01562,0.04296875,-0.06445312,-0.01367188,0.1015625,-0.03320312,0,-0.01708984,0.005737305,0.02905273,0,0,0.001220703,0.3105164,4.071,0,0,0,0.2999878,nan,2,10.947,1,0,0.3455811,0.2617493,0.2714233,0.3633423,0.046875,-0.01660156,0,1,3,0.07936508
173.912,0.001022,-0.01953125,0.09960938,-0.02734375,0.9375,0.421875,8.265625,-0.0078125,0.05078125,-0.0078125,0.1015625,-0.03320312,0,-0.0168457,0.005615234,0.02905273,0,0,0.001220703,0.3105164,4.071,0,0,0,0.2999878,nan,2,10.958,1,0,0.3158569,0.2428284,0.2622986,0.4211121,0.046875,-0.01660156,0,1,3,0
173.922,0.001028,-0.02539062,-0.05664062,0.07617188,-2.71875,-0.9140625,10.24219,-0.0234375,-0.00390625,0.02539062,0.1035156,-0.03710938,0,-0.01721191,0.006103516,0.02905273,0,0,0.001220703,0.3105164,4.071,0,0,0,0.2999878,nan,2,10.968,1,0,0.4145203,0.1837158,0.3296814,0.3141785,0.046875,-0.01660156,0,1,3,0
173.932,0.001055,-0.03515625,0.02539062,0.0546875,-0.9921875,3.78125,14.16406,0.04882812,-0.02929688,0.05859375,0.09960938,-0.03320312,0,-0.01660156,0.005493164,0.02954102,0,0,0.001220703,0.3105164,4.071,0,0,0,0.2999878,nan,2,10.978,1,0,0.3867798,0.1929016,0.3224182,0.3399963,0.046875,-0.01660156,0,1,3,0
173.941,0.001033,-0.1640625,0.09765625,0.03125,1.132812,-4.921875,3.882812,-0.0703125,0.0546875,0.07421875,0.1015625,-0.03515625,0,-0.0168457,0.005737305,0.03027344,0,0,0.001220703,0.3105164,4.071,0,0,0,0.2999878,nan,2,10.987,1,0,0.3681641,0.1926575,0.2868347,0.3944397,0.046875,-0.01660156,0,1,3,0
173.951,0.000995,0.08203125,-0.1835938,0.02734375,-0.4765625,-0.8828125,7.75,0.07226562,-0.07617188,0.02148438,0.1015625,-0.03515625,0,-0.0168457,0.005859375,0.03063965,0,0,0.001220703,0.3105164,4.071,0,0,0,0.2999878,nan,2,10.997,1,0,0.3353271,0.2883301,0.2539978,0.3644409,0.04785156,-0.01660156,0,1,3,0
173.961,0.001007,-0.1269531,-0.00390625,0.0859375,0.75,5.539062,13,-0.0390625,-0.01171875,0.08007812,0.09765625,-0.03125,0,-0.01647949,0.005249023,0.03112793,0,0,0.001220703,0.3105164,4.071,0,0,0,0.2999878,nan,2,11.007,1,0,0.426178,0.1477661,0.3332214,0.3349609,0.04785156,-0.01660156,0,1,3,0
173.972,0.001001,-0.08789062,0.01367188,0.02148438,2.070312,-4.078125,10.34375,-0.08984375,0.04492188,0.0078125,0.1015625,-0.03320312,0,-0.0168457,0.005615234,0.03149414,0,0,0.001220703,0.3105164,4.071,0,0,0,0.2999878,nan,2,11.017,1,0,0.3218689,0.2510986,0.2306824,0.438446,0.04785156,-0.01660156,0,1,3,0
173.982,0.001007,0.09375,-0.00390625,0.0234375,-0.65625,-0.6875,9.570312,0.05664062,-0.05078125,0.03515625,0.1015625,-0.03320312,0,-0.0168457,0.005493164,0.03173828,0,0,0.001220703,0.3105164,4.071,0,0,0,0.2999878,nan,2,11.027,1,0,0.3558044,0.2424011,0.300415,0.3434753,0.04785156,-0.01660156,0,1,3,0.5714286
173.992,0.001007,-0.02148438,-0.005859375,-0.01367188,-1.351562,5.664062,12.375,-0.03320312,0.0078125,-0.00390625,0.1015625,-0.03125,0,-0.0168457,0.005371094,0.03186035,0,0,0.001220703,0.3105164,4.071,0,0,0,0.2999878,nan,2,11.037,1,0,0.3146057,0.2631836,0.2354126,0.428894,0.04785156,-0.01660156,0,1,3,0
174.002,0.001008,0.01367188,-0.06054688,0.0546875,0.5078125,-1.890625,6.257812,0.001953125,-0.01757812,0.03320312,0.1035156,-0.03320312,0,-0.01721191,0.005493164,0.03198242,0,0,0.001220703,0.3105164,4.071,0,0,0,0.2999878,nan,2,11.047,1,0,0.3956299,0.1999512,0.3243713,0.322113,0.04785156,-0.01660156,0,1,3,0
174.012,0.001015,-0.02929688,-0.04101562,0.0390625,1.710938,-0.1015625,7.476562,-0.01953125,-0.04492188,0.03515625,0.1035156,-0.03125,0,-0.01721191,0.005126953,0.03234863,0,0,0.001220703,0.3105164,4.071,0,0,0,0.2999878,nan,2,11.057,1,0,0.367218,0.2246704,0.2828979,0.3673706,0.04785156,-0.01660156,0,1,3,0
174.022,0.00101,-0.08984375,0.07421875,0.04492188,-0.234375,-4.765625,8.617188,-0.03710938,0.04882812,0.04101562,0.1035156,-0.03125,0,-0.01733398,0.005249023,0.03271484,0,0,0.001220703,0.3105164,4.071,0,0,0,0.2999878,nan,2,11.068,1,0,0.3648376,0.1969604,0.2978516,0.3824768,0.04785156,-0.01757812,0,1,3,0.9047619
174.032,0.001009,0.0390625,-0.04101562,0.01953125,-1.226562,-0.359375,9.375,0.04101562,-0.04101562,0.04882812,0.1035156,-0.03125,0,-0.01733398,0.005249023,0.03320312,0,0,0.001220703,0.3105164,4.071,0,0,0,0.2999878,nan,2,11.078,1,0,0.3537903,0.246521,0.286377,0.3554382,0.04785156,-0.01757812,0,1,3,0.1111111
174.042,0.001007,-0.09960938,0.02734375,0.03710938,-1.601562,5.898438,14.34375,-0.02929688,0.00390625,0.01367188,0.1015625,-0.03125,0,-0.01708984,0.005126953,0.0333252,0,0,0.001220703,0.3105164,4.071,0,0,0,0.2999878,nan,2,11.088,1,0,0.3622437,0.2145691,0.2738037,0.39151,0.04882812,-0.01757812,0,1,3,0
174.052,0.001007,0.078125,-0.07617188,-0.04492188,-0.7890625,-3.015625,9.148438,-0.02539062,0.01367188,0.001953125,0.1074219,-0.03320312,0,-0.0177002,0.005371094,0.03356934,0,0,0.001220703,0.3105164,4.071,0,0,0,0.2999878,nan,2,11.098,1,0,0.308075,0.2810364,0.2366943,0.4162903,0.04882812,-0.01757812,0,1,3,0.3809524
174.061,0.001013,-0.03125,-0.009765625,-0.046875,1.734375,-0.5078125,8.375,0.015625,-0.0078125,-0.05078125,0.1054688,-0.03125,0,-0.01757812,0.005249023,0.03320312,0,0,0.001220703,0.3105164,4.071,0,0,0,0.2999878,nan,2,11.107,1,0,0.2935791,0.2888184,0.2269592,0.4327393,0.04882812,-0.01757812,0,1,3,0
174.072,0.001009,0.005859375,-0.001953125,0.01367188,1.625,-3.695312,5.46875,-0.02148438,-0.02148438,-0.00390625,0.1074219,-0.03125,0,-0.01794434,0.005249023,0.03308105,0,0,0.001220703,0.3105164,4.071,0,0,0,0.2999878,nan,2,11.117,1,0,0.3783875,0.2132263,0.2966614,0.3538208,0.04882812,-0.01757812,0,1,3,0
174.082,0.001009,-0.009765625,-0.05078125,-0.0390625,2.125,-1.914062,6.085938,0.01953125,-0.02148438,-0.02148438,0.1054688,-0.03125,0,-0.0177002,0.005249023,0.03295898,0,0,0.001220703,0.3105164,4.071,0,0,0,0.2999878,nan,2,11.127,1,0,0.3146362,0.2794495,0.233429,0.4145813,0.04882812,-0.01757812,0,1,3,0
174.092,0.001013,0.0078125,-0.0703125,0.03515625,0.9140625,-5.507812,6.570312,-0.00390625,-0.01953125,0.00390625,0.1054688,-0.03125,0,-0.0177002,0.005249023,0.03283691,0,0,0.001220703,0.3105164,4.071,0,0,0,0.2999878,nan,2,11.137,1,0,0.3948364,0.199585,0.3091736,0.3385315,0.04882812,-0.01757812,0,1,3,0
174.102,0.000983,0.04296875,-0.02734375,-0.03320312,1.375,-3.703125,8.09375,-0.02929688,0.009765625,0.01757812,0.109375,-0.03125,0,-0.01818848,0.005371094,0.03308105,0,0,0.001220703,0.3105164,4.071,0,0,0,0.2999878,nan,2,11.147,1,0,0.3316345,0.2514954,0.2618713,0.3971252,0.04882812,-0.01757812,0,1,3,0
174.112,0.001011,-0.02148438,0.06640625,-0.0234375,0.296875,-0.671875,10.5625,-0.015625,0.01367188,-0.01757812,0.109375,-0.03125,0,-0.01831055,0.005126953,0.03295898,0,0,0.001220703,0.3105164,4.071,0,0,0,0.2999878,nan,2,11.157,1,0,0.3179321,0.2499084,0.2563171,0.4179382,0.04882812,-0.01757812,0,1,3,0
174.122,0.000995,-0.02148438,-0.078125,0.0390625,-1.71875,-1.75,6.984375,-0.03710938,0.02539062,0.01953125,0.1132812,-0.03320312,0,-0.01879883,0.005615234,0.03295898,0,0,0.001220703,0.3105164,4.071,0,0,0,0.2999878,nan,2,11.168,1,0,0.3941345,0.197113,0.3130798,0.3377991,0.04980469,-0.01757812,0,1,3,0
174.132,0.001,0.08398438,-0.1015625,-0.00390625,-0.484375,-0.3203125,8.53125,0.1132812,-0.0859375,0.0078125,0.109375,-0.03125,0,-0.01831055,0.005249023,0.03308105,0,0,0.001220703,0.3105164,4.071,0,0,0,0.2999878,nan,2,11.178,1,0,0.331604,0.2801208,0.2643127,0.3660583,0.04980469,-0.01757812,0,1,3,0
174.142,0.001007,-0.109375,0.1445312,-0.009765625,-3.023438,-0.796875,8.109375,-0.08789062,0.08007812,-0.02148438,0.1113281,-0.03125,0,-0.01855469,0.005371094,0.03295898,0,0,0.001220703,0.3105164,4.071,0,0,0,0.2999878,nan,2,11.188,1,0,0.3282166,0.2187805,0.2541504,0.4409485,0.04980469,-0.01757812,0,1,3,0
174.152,0.001009,0.1933594,-0.1210938,-0.00390625,-2.976562,4.921875,13.5,0.08007812,-0.0234375,0.0234375,0.1113281,-0.03515625,0,-0.01867676,0.005737305,0.03308105,0,0,0.001220703,0.3105164,4.071,0,0,0,0.2999878,nan,2,11.198,1,0,0.3657227,0.2399597,0.311676,0.3247375,0.04980469,-0.01757812,0,1,3,0
174.162,0.001009,-0.1074219,0.0703125,0.00390625,-0.8046875,4.46875,16.46875,0.01757812,0.01367188,0.01171875,0.1074219,-0.03125,0,-0.01782227,0.005126953,0.03320312,0,0,0.001220703,0.3105164,4.071,0,0,0,0.2999878,nan,2,11.208,1,0,0.343689,0.2172241,0.2702942,0.4108887,0.04980469,-0.01757812,0,1,3,0
174.171,0.00101,-0.01367188,0.01757812,0.0078125,0.3125,2.0625,9.429688,-0.046875,0.06445312,0.00390625,0.109375,-0.03320312,0,-0.01818848,0.005615234,0.0333252,0,0,0.001220703,0.3105164,4.071,0,0,0,0.2999878,nan,2,11.217,1,0,0.3452454,0.2177124,0.2793274,0.3998108,0.04980469,-0.01757812,0,1,3,0
174.182,0.001053,0.1132812,-0.1660156,0.04882812,2.398438,2.148438,9.070312,0.05859375,-0.08398438,0.02929688,0.109375,-0.03320312,0,-0.01831055,0.005493164,0.03344727,0,0,0.001220703,0.3105164,4.071,0,0,0,0.2999878,nan,2,11.227,1,0,0.3819885,0.2377014,0.3019409,0.3204956,0.04980469,-0.01757812,0,1,3,0.1904762
174.192,0.001006,-0.03320312,-0.04296875,0.02734375,0.75,-4.59375,9.703125,-0.01757812,0.04492188,0.04492188,0.1074219,-0.03320312,0,-0.01806641,0.005493164,0.03393555,0,0,0.001220703,0.3105164,4.071,0,0,0,0.2999878,nan,2,11.237,1,0,0.3521423,0.2134094,0.2827454,0.3937988,0.04980469,-0.01757812,0,1,3,0
174.202,0.001006,-0.0546875,-0.009765625,0.0703125,0.75,-2.765625,9.28125,-0.06054688,0.046875,0.05273438,0.1113281,-0.03710938,0,-0.01855469,0.006103516,0.03442383,0,0,0.001220703,0.3105164,4.071,0,0,0,0.2999878,nan,2,11.247,1,0,0.387207,0.1919861,0.2992554,0.363678,0.04980469,-0.01757812,0,1,3,0.7142857
174.212,0.001006,-0.08203125,0.09960938,0.05078125,0.578125,-0.5234375,11.29688,-0.0078125,-0.00390625,0.06054688,0.1113281,-0.03515625,0,-0.01843262,0.005859375,0.03503418,0,0,0.001220703,0.3105164,4.071,0,0,0,0.2999878,nan,2,11.257,1,0,0.3636475,0.207428,0.2904358,0.3806152,0.05078125,-0.01757812,0,1,3,0
174.222,0.001012,0.0546875,0.08007812,0.02148438,-1.835938,-2.476562,8.007812,-0.04492188,0.09179688,0.02734375,0.1152344,-0.0390625,0,-0.01916504,0.006591797,0.03540039,0,0,0.001220703,0.3105164,4.071,0,0,0,0.2999878,nan,2,11.268,1,0,0.3139648,0.24646,0.2637329,0.4179688,0.05078125,-0.01757812,0,1,3,0
174.232,0.001011,0.1289062,-0.04882812,0.02929688,-0.578125,1.367188,7.734375,0.08398438,-0.03320312,0.06640625,0.1132812,-0.0390625,0,-0.0189209,0.006591797,0.03613281,0,0,0.001220703,0.3105164,4.071,0,0,0,0.2999878,nan,2,11.278,1,0,0.3538208,0.242981,0.2986755,0.3466492,0.05078125,-0.01757812,0,1,3,0
174.242,0.001004,-0.04882812,-0.001953125,0.0703125,-1.960938,5.671875,11.96875,0.046875,-0.01367188,0.05078125,0.1074219,-0.0390625,0,-0.01794434,0.006347656,0.03662109,0,0,0.001220703,0.3105164,4.071,0,0,0,0.2999878,nan,2,11.288,1,0,0.3746643,0.2080688,0.2890015,0.3703918,0.05078125,-0.01757812,0,1,3,0
174.252,0.001009,0.08398438,-0.0546875,-0.00390625,-0.734375,1.679688,10.91406,0.015625,-0.01171875,0.01367188,0.1074219,-0.0390625,0,-0.01806641,0.006591797,0.0369873,0,0,0.001220703,0.3100281,4.071,0,0,0,0.2993774,nan,2,11.298,1,0,0.30896,0.2828064,0.2311401,0.4172058,0.05078125,-0.01757812,0,1,3,0
174.262,0.001022,0.08203125,-0.015625,0.01953125,1.515625,-0.2578125,9.757812,0.078125,-0.0390625,0.009765625,0.1035156,-0.03710938,0,-0.01721191,0.006103516,0.0369873,0,0,0.001220703,0.3085022,4.071,0,0,0,0.2976074,nan,2,11.307,1,0,0.3437805,0.2363586,0.2768555,0.3770142,0.05078125,-0.01757812,0,1,3,0.6825397
174.272,0.001052,-0.1289062,0.06445312,0.02929688,1.632812,1.953125,7.578125,-0.06640625,0.0390625,0.02148438,0.1035156,-0.03710938,0,-0.01721191,0.006103516,0.03723145,0,0,0.001220703,0.3068237,4.071,0,0,0,0.2955933,nan,2,11.317,1,0,0.3678894,0.1851196,0.2788391,0.3954468,0.05078125,-0.01757812,0,1,3,0
174.282,0.001008,0.0546875,-0.06445312,-0.0390625,0.984375,-4.375,9.546875,0.06054688,-0.02148438,-0.009765625,0.1035156,-0.03710938,0,-0.01721191,0.006225586,0.03735352,0,0,0.001220703,0.3051453,4.071,0,0,0,0.2935791,nan,2,11.327,1,0,0.2900391,0.2943726,0.2294312,0.4066772,0.05078125,-0.01855469,0,1,3,0
174.292,0.000988,0.02148438,-0.06054688,-0.01757812,1.578125,-3.039062,7.515625,-0.009765625,-0.001953125,-0.00390625,0.1035156,-0.03710938,0,-0.01733398,0.006103516,0.03723145,0,0,0.001220703,0.3034668,4.071,0,0,0,0.291626,nan,2,11.337,1,0,0.3333435,0.2340698,0.2573242,0.3890686,0.05078125,-0.01855469,0,1,3,0
174.302,0.001011,0.005859375,-0.0703125,-0.04492188,1.773438,-4.570312,9.140625,0.001953125,-0.015625,-0.01367188,0.1054688,-0.03710938,0,-0.0177002,0.006103516,0.03723145,0,0,0.001220703,0.3017578,4.071,0,0,0,0.2896118,nan,2,11.347,1,0,0.3212585,0.2536316,0.2454224,0.3867493,0.05078125,-0.01855469,0,1,3,0
174.312,0.001007,-0.05273438,0.0078125,-0.01953125,2.15625,-3.742188,8.765625,-0.01757812,0.00390625,-0.009765625,0.1054688,-0.03710938,0,-0.01757812,0.006103516,0.03710938,0,0,0.001220703,0.3000793,4.071,0,0,0,0.2875977,nan,2,11.357,1,0,0.3375244,0.2192993,0.2524414,0.3910522,0.05078125,-0.01855469,0,1,3,0.7142857
174.322,0.001003,-0.03515625,0.078125,0.015625,1.132812,-2.195312,5.828125,-0.02734375,0.02734375,-0.001953125,0.1074219,-0.03710938,0,-0.01782227,0.006225586,0.03686523,0,0,0.001220703,0.2982178,4.071,0,0,0,0.2854004,nan,2,11.368,1,0,0.3626099,0.1808167,0.2944031,0.355072,0.05175781,-0.01855469,0,1,3,0
174.332,0.000999,0.1152344,-0.03125,-0.00390625,0.9140625,-6.132812,8,0.001953125,0.00390625,0.01367188,0.109375,-0.0390625,0,-0.01831055,0.006469727,0.0369873,0,0,0.001220703,0.2965393,4.071,0,0,0,0.2833862,nan,2,11.378,1,0,0.3303528,0.2293701,0.2669373,0.3594971,0.05175781,-0.01855469,0,1,3,0.3174603
174.342,0.001005,-0.01757812,-0.06054688,-0.005859375,0.3359375,-2.265625,8.3125,0,0.04101562,0.00390625,0.109375,-0.04101562,0,-0.01843262,0.006835938,0.03710938,0,0,0.001220703,0.2948608,4.071,0,0,0,0.2813721,nan,2,11.388,1,0,0.3161316,0.2288818,0.2497253,0.3847046,0.05175781,-0.01855469,0,1,3,0
174.352,0.001007,-0.07226562,-0.02929688,-0.0078125,0.3359375,0.6015625,11.52344,0.009765625,-0.02539062,0,0.1074219,-0.0390625,0,-0.01806641,0.006713867,0.03723145,0,0,0.001220703,0.2931824,4.071,0,0,0,0.2794189,nan,2,11.398,1,0,0.3261108,0.2253723,0.2356262,0.3855896,0.05175781,-0.01855469,0,1,3,0
174.361,0.001013,0.02539062,0.01757812,-0.01171875,-1.53125,-1.171875,9.414062,0.0625,-0.02929688,-0.015625,0.1054688,-0.03710938,0,-0.01757812,0.006225586,0.03710938,0,0,0.001220703,0.2916565,4.071,0,0,0,0.2775879,nan,2,11.407,1,0,0.3105469,0.2295532,0.2478333,0.3786926,0.05175781,-0.01855469,0,1,3,0.4603175
174.371,0.001009,0.05859375,0.0390625,0.03515625,-1.289062,0.2890625,5.882812,0.08984375,-0.0625,0.01757812,0.1035156,-0.03515625,0,-0.01708984,0.005859375,0.03710938,0,0,0.001220703,0.289978,4.071,0,0,0,0.2755737,nan,2,11.417,1,0,0.361908,0.1867981,0.302063,0.3091125,0.05175781,-0.01855469,0,1,3,0
174.382,0.001012,-0.005859375,0.07226562,-0.02734375,-1.171875,3.757812,8.632812,-0.04882812,0.06445312,-0.01367188,0.1035156,-0.03710938,0,-0.01721191,0.006225586,0.03710938,0,0,0.001220703,0.2882996,4.071,0,0,0,0.2736206,nan,2,11.427,1,0,0.2852173,0.2318726,0.2122192,0.4238586,0.05175781,-0.01855469,0,1,3,0.07936508
174.392,0.001009,-0.01953125,0.02734375,0.0546875,-1.992188,-2.164062,10.49219,-0.046875,0.0625,0.0234375,0.1054688,-0.04101562,0,-0.0177002,0.006958008,0.03710938,0,0,0.001220703,0.2866211,4.071,0,0,0,0.2716064,nan,2,11.437,1,0,0.369873,0.1542969,0.2944641,0.3278198,0.05175781,-0.01855469,0,1,3,0
174.402,0.000822,0.01757812,-0.04882812,-0.05664062,-2.007812,1.703125,10.05469,-0.02148438,0.03125,0.001953125,0.109375,-0.04492188,0,-0.01806641,0.007446289,0.03735352,0,0,0.001220703,0.2849121,4.071,0,0,0,0.2695923,nan,2,11.447,1,0,0.2816772,0.2523804,0.2061768,0.3994446,0.05273438,-0.01855469,0,1,3,0
174.412,0.001005,0.0078125,-0.0078125,-0.01367188,-2.046875,4.453125,10.4375,-0.0078125,0,0,0.1074219,-0.04492188,0,-0.01806641,0.007324219,0.03735352,0,0,0.001220703,0.2832336,4.071,0,0,0,0.2675781,nan,2,11.457,1,0,0.3226624,0.1992798,0.2463379,0.3647156,0.05273438,-0.01855469,0,1,3,0
174.422,0.001007,0.07226562,-0.08789062,0.0078125,-1.359375,3.429688,8.570312,-0.0078125,-0.01953125,-0.01171875,0.1074219,-0.04492188,0,-0.01806641,0.007446289,0.03710938,0,0,0.001220703,0.2814026,4.071,0,0,0,0.2653809,nan,2,11.468,1,0,0.3345032,0.1996155,0.248291,0.3431702,0.05273438,-0.01855469,0,1,3,0
174.432,0.000984,0.08007812,-0.0390625,-0.08984375,1.632812,-3.945312,6.132812,0.05273438,-0.0390625,-0.04101562,0.1074219,-0.04296875,0,-0.01806641,0.007324219,0.0369873,0,0,0.001220703,0.2796936,4.074,0,0,0,0.2634277,nan,2,11.478,1,0,0.2549438,0.2754517,0.1901855,0.3982239,0.05273438,-0.01855469,0,1,3,0
174.442,0.000977,0.009765625,-0.01367188,0.001953125,1.671875,-5.40625,5.90625,0.00390625,0.03320312,-0.02148438,0.1074219,-0.04492188,0,-0.01806641,0.007568359,0.03637695,0,0,0.001220703,0.2780151,4.074,0,0,0,0.2614136,nan,2,11.488,1,0,0.348114,0.1611023,0.2803955,0.3224792,0.05273438,-0.01855469,0,1,3,0
174.452,0.001015,0.06054688,-0.005859375,-0.09960938,2.226562,0.125,9.617188,0.04492188,-0.0234375,-0.0703125,0.1054688,-0.046875,0,-0.01757812,0.00769043,0.03601074,0,0,0.001220703,0.2763367,4.074,0,0,0,0.2593994,nan,2,11.498,1,0,0.2363892,0.2893066,0.1553345,0.4242859,0.05273438,-0.01855469,0,1,3,0.7301587
174.462,0.001022,-0.0703125,-0.01953125,-0.005859375,2.367188,3.1875,11.9375,-0.02539062,-0.02148438,-0.02539062,0.1035156,-0.04492188,0,-0.01745605,0.007446289,0.03564453,0,0,0.001220703,0.2748108,4.074,0,0,0,0.2576294,nan,2,11.507,1,0,0.3522339,0.1591492,0.2504272,0.3374634,0.05273438,-0.01855469,0,1,3,0
174.472,0.000994,-0.1640625,-0.009765625,-0.0703125,-1.523438,-1.515625,13.8125,0.0078125,-0.01171875,-0.046875,0.1035156,-0.04492188,0,-0.01721191,0.007446289,0.03540039,0,0,0.001220703,0.2731323,4.074,0,0,0,0.2556152,nan,2,11.517,1,0,0.2736206,0.2350464,0.1819763,0.401886,0.05273438,-0.01855469,0,1,3,0
174.482,0.001004,-0.0390625,-0.06445312,0.00390625,-3.226562,3.132812,11.1875,-0.01367188,-0.02148438,-0.02148438,0.1035156,-0.04492188,0,-0.01733398,0.007446289,0.03491211,0,0,0.001220703,0.2714539,4.074,0,0,0,0.2536011,nan,2,11.527,1,0,0.3518066,0.1602478,0.2562866,0.3174744,0.05273438,-0.01855469,0,1,3,0
174.492,0.001008,0.02929688,-0.09765625,-0.06054688,-1.382812,1.8125,8.070312,0.01757812,-0.009765625,-0.04101562,0.1035156,-0.04492188,0,-0.01733398,0.007568359,0.0345459,0,0,0.001220703,0.2697754,4.074,0,0,0,0.2515869,nan,2,11.537,1,0,0.2841187,0.2215576,0.2061768,0.367218,0.05273438,-0.01953125,0,1,3,0
174.502,0.001009,-0.1074219,-0.00390625,-0.04492188,1.140625,-0.1328125,6.28125,-0.0234375,-0.001953125,-0.06054688,0.1035156,-0.04492188,0,-0.01721191,0.007446289,0.03393555,0,0,0.001220703,0.2680969,4.074,0,0,0,0.2495728,nan,2,11.547,1,0,0.2994385,0.1922913,0.208374,0.3722229,0.05371094,-0.01953125,0,1,3,0
174.512,0.000977,0.1328125,-0.05664062,-0.0625,1.132812,-4.273438,12.09375,0.08203125,-0.00390625,-0.06445312,0.1035156,-0.04492188,0,-0.01721191,0.007446289,0.0333252,0,0,0.001220703,0.2663879,4.074,0,0,0,0.2476196,nan,2,11.557,1,0,0.2610168,0.2339172,0.2198792,0.350769,0.05371094,-0.01953125,0,1,3,0
174.522,0.001018,-0.02929688,-0.02539062,-0.0234375,-3.015625,2.070312,14.99219,-0.009765625,-0.001953125,-0.05859375,0.1015625,-0.04296875,0,-0.0168457,0.007202148,0.03259277,0,0,0.001220703,0.2645569,4.074,0,0,0,0.2454224,nan,2,11.568,1,0,0.319458,0.1635437,0.2320862,0.3431091,0.05371094,-0.01953125,0,1,3,0
174.532,0.001016,0.06054688,0.009765625,-0.09570312,0.3125,-2.648438,6.757812,-0.001953125,0.01757812,-0.08789062,0.1015625,-0.04296875,0,-0.0168457,0.007202148,0.03198242,0,0,0.001220703,0.2628479,4.074,0,0,0,0.2434082,nan,2,11.578,1,0,0.2280273,0.2454529,0.1572571,0.4206848,0.05371094,-0.01953125,0,1,3,0
174.542,0.001037,-0.04492188,-0.06835938,-0.03320312,1.257812,3.023438,8.742188,-0.02148438,-0.01757812,-0.046875,0.1015625,-0.04296875,0,-0.0168457,0.007202148,0.03125,0,0,0.001220703,0.2611694,4.074,0,0,0,0.241394,nan,2,11.588,1,0,0.3314209,0.1569824,0.2364807,0.3198242,0.05371094,-0.01953125,0,1,3,0.01587302
174.552,0.001032,0,-0.02929688,-0.1210938,-2.28125,3.695312,12,0.04101562,-0.03320312,-0.0859375,0.09960938,-0.04296875,0,-0.01672363,0.007202148,0.03063965,0,0,0.001220703,0.259491,4.074,0,0,0,0.2393799,nan,2,11.598,1,0,0.2379761,0.2520142,0.1605835,0.3874207,0.05371094,-0.01953125,0,1,3,0
174.562,0.001008,-0.005859375,0.005859375,-0.05273438,1.09375,-8.796875,4.632812,-0.02929688,-0.0078125,-0.0625,0.09960938,-0.04296875,0,-0.01660156,0.007080078,0.02978516,0,0,0.001220703,0.2578125,4.074,0,0,0,0.2374268,nan,2,11.608,1,0,0.3108215,0.1640625,0.2155457,0.3407898,0.05371094,-0.01953125,0,1,3,0.4603175
174.571,0.001012,-0.009765625,-0.1054688,-0.09570312,1.734375,0,8.351562,-0.02929688,-0.0234375,-0.08203125,0.1015625,-0.04296875,0,-0.0168457,0.007202148,0.0291748,0,0,0.001220703,0.2562866,4.074,0,0,0,0.2355957,nan,2,11.617,1,0,0.2666931,0.2183533,0.1660156,0.374115,0.05371094,-0.01953125,0,1,3,0
174.582,0.001008,-0.0078125,0.078125,-0.06640625,-3.234375,6.5625,12.46875,-0.04296875,0.02929688,-0.06054688,0.1015625,-0.04296875,0,-0.01696777,0.007202148,0.02844238,0,0,0.001220703,0.2546082,4.074,0,0,0,0.2335815,nan,2,11.627,1,0,0.2852783,0.1643372,0.2105408,0.3583069,0.05371094,-0.01953125,0,1,3,0
174.592,0.001058,0.03515625,0.02148438,-0.08203125,0.640625,-2.34375,6.101562,0.01171875,-0.009765625,-0.07226562,0.1015625,-0.04296875,0,-0.01696777,0.007202148,0.02783203,0,0,0.001220703,0.2529297,4.074,0,0,0,0.2316284,nan,2,11.637,1,0,0.2479248,0.2179565,0.1731262,0.3726501,0.05371094,-0.01953125,0,1,3,0
174.602,0.001008,0.03515625,0.09570312,-0.09179688,1.070312,4.1875,10.50781,-0.01367188,0.03320312,-0.05859375,0.1035156,-0.04296875,0,-0.01708984,0.007202148,0.02722168,0,0,0.001220703,0.2512512,4.074,0,0,0,0.2296143,nan,2,11.647,1,0,0.2592773,0.1811829,0.2000122,0.364502,0.0546875,-0.01953125,0,1,3,0
174.612,0.001008,0.04296875,-0.03515625,-0.04296875,-1.070312,3.8125,9.570312,0.02734375,-0.04296875,-0.02929688,0.09960938,-0.04296875,0,-0.01672363,0.007202148,0.0267334,0,0,0.001220703,0.2495422,4.074,0,0,0,0.2276001,nan,2,11.657,1,0,0.3152161,0.1574097,0.2213745,0.3042297,0.0546875,-0.01953125,0,1,3,0
174.622,0.001012,-0.0234375,-0.02734375,0.009765625,2.492188,0.53125,7.34375,-0.04101562,-0.005859375,-0.009765625,0.1015625,-0.04296875,0,-0.0168457,0.007202148,0.02648926,0,0,0.001220703,0.2477112,4.074,0,0,0,0.2254028,nan,2,11.668,1,0,0.3348694,0.1203918,0.2395325,0.296051,0.0546875,-0.01953125,0,1,3,0
174.632,0.001012,-0.02929688,-0.125,-0.01953125,-1.984375,6.859375,16.375,-0.07226562,-0.04492188,-0.00390625,0.1054688,-0.04296875,0,-0.01745605,0.007080078,0.02636719,0,0,0.001220703,0.2460327,4.074,0,0,0,0.2233887,nan,2,11.678,1,0,0.3051758,0.162262,0.1976929,0.3189392,0.0546875,-0.01953125,0,1,3,0
174.642,0.001008,-0.04492188,0.03710938,-0.03710938,-0.59375,0.484375,10.75781,0.01953125,-0.0078125,-0.01953125,0.1035156,-0.0390625,0,-0.01721191,0.006469727,0.02624512,0,0,0.001220703,0.2443237,4.074,0,0,0,0.2213745,nan,2,11.688,1,0,0.2536926,0.1760864,0.1932678,0.3543091,0.0546875,-0.01953125,0,1,3,0
174.652,0.001008,-0.09570312,-0.01367188,-0.01171875,1.3125,-0.8671875,10.05469,-0.0703125,0.005859375,-0.0390625,0.1054688,-0.0390625,0,-0.01745605,0.006469727,0.02575684,0,0,0.001220703,0.2426453,4.074,0,0,0,0.2194214,nan,2,11.698,1,0,0.2959595,0.143158,0.1902466,0.3412476,0.0546875,-0.01953125,0,1,3,0
174.662,0.001008,0.02734375,-0.02539062,0.005859375,-2.929688,2.789062,10.98438,-0.005859375,-0.03125,-0.015625,0.1074219,-0.03710938,0,-0.01782227,0.006225586,0.0255127,0,0,0.001220703,0.2409668,4.074,0,0,0,0.2174072,nan,2,11.708,1,0,0.2988281,0.1465454,0.2221375,0.2963562,0.0546875,-0.01953125,0,1,3,0
174.671,0.001013,-0.01757812,0.1113281,-0.02929688,-1,-3.429688,2.664062,-0.02148438,0.01953125,0.0078125,0.1074219,-0.03515625,0,-0.01806641,0.005981445,0.02563477,0,0,0.001220703,0.2394409,4.074,0,0,0,0.2155762,nan,2,11.717,1,0,0.26828,0.143219,0.2092896,0.3370056,0.0546875,-0.01953125,0,1,3,0
174.682,0.000998,-0.04296875,0.1367188,0.02929688,2.476562,-7.828125,9.554688,0.01171875,0.0546875,0.02929688,0.1074219,-0.03515625,0,-0.01782227,0.005981445,0.02575684,0,0,0.001220703,0.2377625,4.074,0,0,0,0.213623,nan,2,11.727,1,0,0.3005676,0.1019897,0.2499084,0.298584,0.0546875,-0.01953125,0,1,3,0
174.692,0.001009,-0.01757812,0.01953125,0.01367188,0.59375,6.210938,11.80469,-0.015625,0.0078125,0.0078125,0.109375,-0.03710938,0,-0.01818848,0.006103516,0.02587891,0,0,0.001220703,0.236084,4.074,0,0,0,0.2116089,nan,2,11.737,1,0,0.2753906,0.151001,0.1990967,0.3188477,0.05566406,-0.01953125,0,1,3,0
174.702,0.001,-0.03710938,0.01953125,-0.03710938,-2.515625,0.15625,11.01562,0.0234375,0.01367188,-0.02148438,0.109375,-0.03515625,0,-0.01806641,0.005981445,0.02575684,0,0,0.001220703,0.2344055,4.074,0,0,0,0.2095947,nan,2,11.747,1,0,0.2348938,0.178833,0.1720581,0.3518372,0.05566406,-0.01953125,0,1,3,0
174.712,0.00102,0.04882812,0.09375,-0.0546875,1.914062,-3.75,8.164062,0.02539062,0.04882812,-0.03710938,0.109375,-0.03515625,0,-0.01818848,0.005859375,0.02563477,0,0,0.001220703,0.2327271,4.074,0,0,0,0.2075806,nan,2,11.757,1,0,0.2132568,0.182251,0.1718445,0.3634949,0.05566406,-0.01953125,0,1,3,0
174.722,0.000971,0.1171875,-0.01757812,-0.08398438,-2.171875,7.328125,15.01562,0.0390625,0.02148438,-0.078125,0.1113281,-0.03515625,0,-0.01867676,0.005859375,0.02502441,0,0,0.001220703,0.2308655,4.074,0,0,0,0.2053833,nan,2,11.768,1,0,0.1827087,0.2265625,0.1416016,0.3725891,0.05566406,-0.01953125,0,1,3,0
174.732,0.001005,-0.01953125,0.015625,-0.09375,0.96875,-0.03125,10.28125,-0.05859375,-0.01367188,-0.09179688,0.1132812,-0.03320312,0,-0.01904297,0.005493164,0.02416992,0,0,0.001220703,0.229187,4.074,0,0,0,0.2033691,nan,2,11.778,1,0,0.2313538,0.1795044,0.1409912,0.3648682,0.05566406,-0.01953125,0,1,3,0
174.742,0.000985,-0.01171875,0.04492188,-0.08007812,0.3984375,-8.007812,9.078125,-0.001953125,0.015625,-0.06054688,0.1132812,-0.03320312,0,-0.0189209,0.005615234,0.0234375,0,0,0.001220703,0.2275085,4.074,0,0,0,0.201416,nan,2,11.788,1,0,0.2614441,0.1421814,0.1856384,0.3207092,0.05566406,-0.01953125,0,1,3,0
174.752,0.00101,-0.01367188,0.01757812,-0.0390625,-1.445312,5.179688,16.9375,-0.01757812,-0.04296875,-0.05273438,0.1152344,-0.03125,0,-0.01928711,0.005126953,0.02294922,0,0,0.001220703,0.2257996,4.074,0,0,0,0.1994019,nan,2,11.798,1,0,0.259491,0.1519165,0.1773987,0.3144226,0.05566406,-0.01953125,0,1,3,0
174.762,0.001009,-0.1523438,0.0546875,-0.01171875,1.609375,-0.1796875,4.90625,-0.06835938,0.015625,-0.04296875,0.1171875,-0.03125,0,-0.01953125,0.005126953,0.02233887,0,0,0.001220703,0.2241211,4.074,0,0,0,0.1973877,nan,2,11.808,1,0,0.2982788,0.09817505,0.1952209,0.3048401,0.05664062,-0.01953125,0,1,3,0
174.771,0.001011,0.125,-0.0703125,-0.0234375,-2.460938,5.53125,8.609375,0.05273438,-0.015625,-0.02539062,0.1191406,-0.03125,0,-0.01989746,0.005371094,0.02197266,0,0,0.001220703,0.2225952,4.074,0,0,0,0.1956177,nan,2,11.817,1,0,0.2742004,0.1427917,0.2137146,0.2597046,0.05664062,-0.01953125,0,1,3,0
174.782,0.001007,-0.02148438,0.01367188,-0.07421875,2.28125,-2.171875,13.05469,0.00390625,-0.04101562,-0.046875,0.1171875,-0.03125,0,-0.01953125,0.005126953,0.02160645,0,0,0.001220703,0.2209167,4.074,0,0,0,0.1936035,nan,2,11.827,1,0,0.2402954,0.1697693,0.1351624,0.3384705,0.05664062,-0.01953125,0,1,3,0
174.792,0.001007,-0.06835938,0.05664062,-0.07617188,-0.5078125,-0.8515625,5.171875,-0.05664062,0.06835938,-0.0625,0.1171875,-0.03320312,0,-0.01965332,0.005493164,0.02111816,0,0,0.001220703,0.2192383,4.074,0,0,0,0.1915894,nan,2,11.837,1,0,0.2238464,0.1523438,0.1328735,0.3679199,0.05664062,-0.02050781,0,1,3,0
174.802,0.001007,-0.0078125,-0.1171875,0.0078125,-1.71875,1.828125,13.45312,-0.005859375,-0.03125,-0.02148438,0.1191406,-0.03515625,0,-0.02001953,0.005859375,0.02062988,0,0,0.001220703,0.2175598,4.074,0,0,0,0.1895752,nan,2,11.847,1,0,0.2981873,0.1205444,0.1942749,0.2572021,0.05664062,-0.02050781,0,1,3,0
174.812,0.001007,-0.01953125,0.01171875,0.015625,3.367188,-0.46875,6.53125,0.0234375,-0.05078125,0.02148438,0.1171875,-0.03320312,0,-0.01965332,0.005493164,0.02087402,0,0,0.001220703,0.2158813,4.074,0,0,0,0.1876221,nan,2,11.857,1,0,0.2936401,0.110199,0.1934509,0.2662048,0.05664062,-0.02050781,0,1,3,0
174.822,0.000999,0,0.1757812,-0.009765625,0.8359375,-5.1875,6.109375,-0.009765625,0.04296875,0.0078125,0.1191406,-0.03320312,0,-0.01977539,0.005615234,0.02087402,0,0,0.001220703,0.2140198,4.074,0,0,0,0.1854248,nan,2,11.867,1,0,0.2416992,0.1193237,0.1794128,0.3156738,0.05664062,-0.02050781,0,1,3,0
174.832,0.001011,0.08398438,-0.04296875,0.0390625,-3.757812,3,14.00781,0.0546875,-0.02148438,0.015625,0.1171875,-0.03320312,0,-0.01953125,0.005493164,0.02099609,0,0,0.001220703,0.2123413,4.074,0,0,0,0.1834106,nan,2,11.878,1,0,0.2628784,0.1213684,0.1934509,0.271637,0.05664062,-0.02050781,0,1,3,0
174.842,0.001005,-0.03515625,-0.1113281,0.04296875,-0.3671875,1.601562,6.382812,-0.01367188,0.01171875,0.02539062,0.1171875,-0.03320312,0,-0.01940918,0.005371094,0.02124023,0,0,0.001220703,0.2106628,4.074,0,0,0,0.1813965,nan,2,11.888,1,0,0.2713928,0.1010742,0.1820374,0.2880859,0.05664062,-0.02050781,0,1,3,0
174.852,0.001049,-0.05664062,-0.1269531,0.04296875,-0.9375,0.3203125,5.390625,-0.009765625,-0.0390625,0.046875,0.1171875,-0.03320312,0,-0.01953125,0.005493164,0.02160645,0,0,0.001220703,0.2089539,4.074,0,0,0,0.1793823,nan,2,11.898,1,0,0.3015442,0.09829712,0.1858521,0.2501831,0.05761719,-0.02050781,0,1,3,0
174.862,0.000991,0.0703125,-0.0625,-0.01953125,2.09375,4.046875,14.97656,-0.00390625,-0.05664062,0.001953125,0.1171875,-0.03125,0,-0.01940918,0.005371094,0.02185059,0,0,0.001220703,0.2072754,4.074,0,0,0,0.1773682,nan,2,11.908,1,0,0.2226868,0.1687317,0.1168518,0.3208313,0.05761719,-0.02050781,0,1,3,0
174.872,0.001002,-0.125,0.015625,-0.07617188,0.5703125,-6.453125,7.867188,-0.06835938,-0.02929688,-0.05078125,0.1171875,-0.03125,0,-0.01965332,0.005126953,0.02160645,0,0,0.001220703,0.20578,4.074,0,0,0,0.1755981,nan,2,11.917,1,0,0.1891785,0.1841125,0.07104492,0.3787231,0.05761719,-0.02050781,0,1,3,0.2222222
174.882,0.001024,0.03515625,0.00390625,-0.07226562,-2.796875,2.976562,14.00781,-0.0078125,0.009765625,-0.06445312,0.1210938,-0.03125,0,-0.0201416,0.005249023,0.02099609,0,0,0.001220703,0.204071,4.074,0,0,0,0.173584,nan,2,11.927,1,0,0.2068481,0.1547546,0.133667,0.3210754,0.05761719,-0.02050781,0,1,3,0
174.892,0.001043,-0.1582031,0.015625,-0.0390625,-1.835938,4.460938,12.41406,-0.06445312,-0.01367188,-0.0546875,0.1210938,-0.03125,0,-0.02026367,0.005126953,0.02038574,0,0,0.001220703,0.2023926,4.074,0,0,0,0.1715698,nan,2,11.937,1,0,0.2580872,0.1059875,0.1392212,0.3063354,0.05761719,-0.02050781,0,1,3,0
174.902,0.001008,0.1425781,0.03125,-0.06445312,1.3125,7.59375,13.53125,-0.005859375,0.00390625,-0.06640625,0.1230469,-0.03125,0,-0.02062988,0.005126953,0.01977539,0,0,0.001220703,0.2007141,4.074,0,0,0,0.1696167,nan,2,11.947,1,0,0.2023621,0.1503296,0.1349182,0.3152771,0.05761719,-0.02050781,0,1,3,0
174.912,0.001008,-0.1191406,-0.1035156,-0.07617188,1.984375,1.359375,15.07812,-0.01953125,-0.03125,-0.09375,0.1230469,-0.03125,0,-0.02062988,0.005004883,0.0189209,0,0,0.001220703,0.1990356,4.074,0,0,0,0.1676025,nan,2,11.957,1,0,0.2138672,0.1550903,0.1030579,0.3240662,0.05761719,-0.02050781,0,1,3,0
174.922,0.001003,0.1152344,0.05273438,-0.0703125,-0.4375,4.835938,13.88281,-0.00390625,0.02734375,-0.078125,0.125,-0.03125,0,-0.02075195,0.005126953,0.01794434,0,0,0.001220703,0.1971741,4.074,0,0,0,0.1654053,nan,2,11.967,1,0,0.239502,0.09832764,0.1689758,0.2818909,0.05859375,-0.02050781,0,1,3,0
174.932,0.001002,0.03710938,0,-0.03515625,-2.375,5.320312,15.76562,-0.01367188,0.005859375,-0.04101562,0.1230469,-0.03125,0,-0.02062988,0.005126953,0.01733398,0,0,0.001220703,0.1954956,4.074,0,0,0,0.1633911,nan,2,11.978,1,0,0.261261,0.08529663,0.1684875,0.2669373,0.05859375,-0.02050781,0,1,3,0
174.942,0.000997,0.02148438,-0.06054688,-0.05664062,-1.914062,-0.671875,7.046875,-0.0078125,-0.001953125,-0.05273438,0.125,-0.03125,0,-0.02075195,0.005126953,0.01696777,0,0,0.001220703,0.1938171,4.074,0,0,0,0.161377,nan,2,11.988,1,0,0.2112732,0.1362915,0.1212463,0.306427,0.05859375,-0.02050781,0,1,3,0
174.952,0.001006,-0.0234375,0.07226562,-0.08789062,-1.601562,-4.726562,7.648438,-0.02148438,0.04296875,-0.07617188,0.125,-0.03125,0,-0.02087402,0.005249023,0.01623535,0,0,0.001220703,0.1921387,4.074,0,0,0,0.1594238,nan,2,11.998,1,0,0.1879578,0.1339417,0.1104431,0.3361206,0.05859375,-0.02050781,0,1,3,0
174.962,0.001006,0.05273438,-0.04296875,-0.0546875,0.1484375,-3.0625,3.09375,0.01953125,-0.02734375,-0.0546875,0.125,-0.03125,0,-0.02087402,0.005249023,0.015625,0,0,0.001220703,0.1904297,4.074,0,0,0,0.1574097,nan,2,12.008,1,0,0.2348022,0.1123657,0.1453857,0.2692261,0.05859375,-0.02050781,0,1,3,0
174.971,0.001014,-0.078125,0.05859375,-0.06054688,1.640625,-5.265625,4.414062,0.01953125,0.01367188,-0.05664062,0.1230469,-0.03125,0,-0.02062988,0.005126953,0.01513672,0,0,0.001220703,0.1889343,4.074,0,0,0,0.1555786,nan,2,12.017,1,0,0.2088013,0.1139221,0.131897,0.3011169,0.05859375,-0.02050781,0,1,3,0
174.982,0.001026,0.06054688,0.09375,-0.08398438,1.085938,-2.335938,8.882812,0.02148438,0.02539062,-0.06445312,0.1230469,-0.03125,0,-0.02050781,0.005126953,0.01452637,0,0,0.001220703,0.1872253,4.074,0,0,0,0.1536255,nan,2,12.027,1,0,0.1852722,0.1300659,0.1177673,0.3158264,0.05859375,-0.02050781,0,1,3,0
174.992,0.00101,0.1054688,-0.1347656,-0.1171875,3.320312,5.4375,13.9375,0.01953125,-0.0546875,-0.1015625,0.1230469,-0.03125,0,-0.02050781,0.005126953,0.01367188,0,0,0.001220703,0.1855469,4.074,0,0,0,0.1516113,nan,2,12.037,1,0,0.1672363,0.1890869,0.06063843,0.3252563,0.05859375,-0.02050781,0,1,3,0
175.002,0.001226,-0.06640625,-0.02734375,-0.1074219,0.6171875,-5.210938,10.75,-0.01953125,-0.005859375,-0.1289062,0.1230469,-0.02929688,0,-0.02050781,0.005004883,0.01245117,0,0,0.001220703,0.1837158,4.074,0,0,0,0.1494141,nan,2,12.047,1,0,0.1809387,0.142395,0.08087158,0.3305969,0.05957031,-0.02050781,0,1,3,0
175.012,0.001006,0.06054688,-0.05078125,-0.1347656,1.140625,3.609375,11.78125,0.03515625,-0.015625,-0.125,0.1210938,-0.02929688,0,-0.02026367,0.005004883,0.01135254,0,0,0.001220703,0.1821899,4.074,0,0,0,0.147583,nan,2,12.057,1,0,0.1699219,0.1552124,0.08731079,0.3162842,0.05957031,-0.02050781,0,1,3,0
175.022,0.001011,0.01367188,0.03515625,-0.1503906,-0.6328125,-4.445312,9.03125,0.0234375,-0.00390625,-0.15625,0.1210938,-0.02734375,0,-0.0201416,0.004638672,0.009887695,0,0,0.001220703,0.1803284,4.074,0,0,0,0.1453857,nan,2,12.067,1,0,0.1412964,0.1689148,0.06442261,0.3467102,0.05957031,-0.02050781,0,1,3,0.3650794
175.032,0.001008,0.078125,0.03710938,-0.1992188,-2.054688,4.164062,12.34375,0.078125,0.00390625,-0.1894531,0.1191406,-0.02734375,0,-0.01977539,0.004394531,0.008300781,0,0,0.001220703,0.1786499,4.074,0,0,0,0.1433716,nan,2,12.078,1,0,0.09799194,0.2047119,0.04064941,0.3712463,0.05957031,-0.02050781,0,1,3,0
175.041,0.001079,-0.1054688,-0.07226562,-0.1621094,-1.3125,5.90625,9.46875,-0.04492188,-0.02539062,-0.1699219,0.1191406,-0.02539062,0,-0.01977539,0.004150391,0.006713867,0,0,0.001220703,0.177124,4.074,0,0,0,0.1416016,nan,2,12.087,1,0,0.1938782,0.1216736,0.07354736,0.319458,0.05957031,-0.02050781,0,1,3,0
175.052,0.000944,-0.1953125,-0.05273438,-0.1601562,-0.328125,3.117188,13.80469,-0.05664062,-0.05664062,-0.1679688,0.1210938,-0.02148438,0,-0.02026367,0.003662109,0.004882812,0,0,0.004882812,0.1763,4.074,0,0,0,0.1400146,nan,4,12.098,1,0,0.1560974,0.2014465,0.1110535,0.2365723,0,0,0,1,6,0
175.062,0.001006,0.05078125,-0.001953125,-0.1660156,0.625,4.773438,13.67188,-0.05273438,0.009765625,-0.1542969,0.1269531,-0.02148438,0,-0.02099609,0.003417969,0.003295898,0,0,0.003295898,0.1779785,4.074,0,0,0,0.1400146,nan,4,12.108,1,0,0.1320496,0.2098999,0.1285095,0.2414551,0,0,0,1,6,0
175.071,0.001025,0,0.05273438,-0.15625,-0.484375,0.4921875,6.3125,-0.01171875,0.03515625,-0.1542969,0.1269531,-0.02148438,0,-0.02124023,0.003540039,0.001953125,0,0,0.001953125,0.1795044,4.074,0,0,0,0.1400146,nan,4,12.117,1,0,0.122406,0.219696,0.1279297,0.2479553,0,0,0,1,6,0
175.082,0.001008,-0.08203125,0.02148438,-0.09765625,2.09375,-4.46875,7.695312,-0.05664062,0.01367188,-0.1152344,0.1289062,-0.02148438,0,-0.02148438,0.003662109,0.0006103516,0,0,0.0006103516,0.1811829,4.077,0,0,0,0.1400146,nan,4,12.127,1,0,0.1792908,0.1776733,0.1477051,0.2200317,0.0009765625,0,0,1,6,0
175.092,0.001014,-0.08789062,0.1015625,-0.09570312,-0.7734375,-2.398438,7.710938,-0.05273438,0.03515625,-0.08203125,0.1308594,-0.0234375,0,-0.02185059,0.00378418,-0.0002441406,0,0,-0.0002441406,0.1828613,4.077,0,0,0,0.1400146,nan,4,12.137,1,0,0.1772461,0.1717834,0.1636658,0.21875,0.0009765625,0,0,1,6,0
175.102,0.001014,0.06054688,-0.03710938,-0.046875,0.671875,-0.5859375,15.92969,0.04101562,-0.0625,-0.05859375,0.1308594,-0.02148438,0,-0.02185059,0.003540039,-0.001098633,0,0,-0.001098633,0.1845398,4.077,0,0,0,0.1400146,nan,4,12.147,1,0,0.2172852,0.1710815,0.2021179,0.1477051,0.0009765625,0,0,1,6,0
175.112,0.001014,-0.0078125,-0.001953125,-0.08984375,0.5078125,-1.890625,5.382812,0.015625,-0.0078125,-0.07617188,0.1289062,-0.01953125,0,-0.02148438,0.003295898,-0.001708984,0,0,-0.001708984,0.1862183,4.077,0,0,0,0.1400146,nan,4,12.157,1,0,0.1598816,0.2037964,0.1482849,0.2329407,0.0009765625,0,0,1,6,0
175.122,0.001024,-0.0234375,0.04296875,-0.05273438,-1.445312,5.054688,14.96094,-0.04101562,0.02148438,-0.06054688,0.1308594,-0.01953125,0,-0.02172852,0.003417969,-0.002441406,0,0,-0.002441406,0.1879272,4.077,0,0,0,0.1400146,nan,4,12.168,1,0,0.1899109,0.1764832,0.1698303,0.2154541,0.0009765625,0,0,1,6,0
175.132,0.001071,0.05664062,-0.1015625,0,2.257812,-5.226562,6.226562,0.0703125,-0.0234375,-0.03515625,0.1289062,-0.02148438,0,-0.02148438,0.003540039,-0.002929688,0,0,-0.002929688,0.1896057,4.077,0,0,0,0.1400146,nan,4,12.178,1,0,0.211731,0.1833191,0.2027283,0.1606445,0.0009765625,0,0,1,6,0
175.142,0.001011,0.03710938,0.03320312,-0.01367188,-1.320312,7.453125,14.625,0.00390625,-0.005859375,-0.02929688,0.1269531,-0.01953125,0,-0.02099609,0.003417969,-0.003173828,0,0,-0.003173828,0.1912842,4.077,0,0,0,0.1400146,nan,4,12.188,1,0,0.1973267,0.1784668,0.1755981,0.2137451,0.0009765625,0,0,1,6,0
175.152,0.001007,-0.0078125,0.05078125,-0.1035156,-0.640625,-0.328125,8.96875,-0.02539062,0.03515625,-0.08789062,0.1269531,-0.0234375,0,-0.02124023,0.00378418,-0.00378418,0,0,-0.00378418,0.1929626,4.077,0,0,0,0.1400146,nan,4,12.198,1,0,0.1251526,0.2523193,0.1105347,0.2838135,0.0009765625,0,0,1,6,0
175.162,0.001013,0.05664062,-0.06640625,-0.08007812,2.078125,-3.164062,5.945312,0.0546875,-0.06835938,-0.0859375,0.125,-0.01953125,0,-0.02099609,0.003295898,-0.004760742,0,0,-0.004760742,0.1946411,4.077,0,0,0,0.1400146,nan,4,12.208,1,0,0.190979,0.214447,0.1742249,0.1989136,0.001953125,0,0,1,6,0
175.172,0.001013,-0.06640625,0.06835938,-0.08007812,1.710938,6.671875,7.445312,-0.05078125,0.02929688,-0.0625,0.125,-0.01953125,0,-0.02099609,0.003173828,-0.005493164,0,0,-0.005493164,0.1963196,4.077,0,0,0,0.1400146,nan,4,12.218,1,0,0.1877441,0.1833801,0.1650391,0.2491455,0.001953125,0,0,1,6,0.07936508
175.181,0.001007,0.04296875,-0.04882812,-0.1347656,2.148438,-1.554688,4.171875,-0.02148438,-0.0234375,-0.1269531,0.1289062,-0.01953125,0,-0.0213623,0.003295898,-0.006347656,0,0,-0.006347656,0.1978455,4.077,0,0,0,0.1400146,nan,4,12.227,1,0,0.1152039,0.2926941,0.08898926,0.2944641,0.001953125,0,0,1,6,0
175.192,0.001007,-0.09960938,0,-0.2519531,0.1015625,0.9453125,17.6875,0.0078125,-0.02148438,-0.2246094,0.1269531,-0.01953125,0,-0.02124023,0.003051758,-0.008178711,0,0,-0.008178711,0.1995239,4.077,0,0,0,0.1400146,nan,4,12.237,1,0,0.05813599,0.342041,0.03662109,0.3612671,0.001953125,0,0,1,6,0
175.202,0.001007,-0.06445312,0.0859375,-0.1015625,-0.9765625,-5.601562,3.382812,-0.0234375,0.04882812,-0.1621094,0.1269531,-0.01953125,0,-0.02124023,0.003173828,-0.01025391,0,0,-0.01025391,0.2012024,4.077,0,0,0,0.1400146,nan,4,12.247,1,0,0.2208862,0.1569214,0.2141113,0.2129211,0.001953125,0,0,1,6,0
175.212,0.001007,-0.01757812,0.06640625,-0.02148438,0.15625,0.0625,9.15625,0.02734375,-0.009765625,-0.06445312,0.1289062,-0.01953125,0,-0.0213623,0.003173828,-0.01135254,0,0,-0.01135254,0.2028809,4.077,0,0,0,0.1400146,nan,4,12.257,1,0,0.2793884,0.1267395,0.2728882,0.1325378,0.001953125,0,0,1,6,0
175.222,0.001007,-0.1074219,-0.005859375,0.04101562,1.03125,5.59375,15.15625,-0.05664062,-0.0078125,0.0078125,0.1289062,-0.01757812,0,-0.02148438,0.002929688,-0.01147461,0,0,-0.01147461,0.2045593,4.077,0,0,0,0.1400146,nan,4,12.267,1,0,0.2928467,0.1083679,0.2557068,0.1613464,0.001953125,0,0,1,6,0
175.232,0.000999,-0.04492188,-0.1132812,0.1308594,1.742188,3.6875,8.601562,-0.0390625,-0.001953125,0.1074219,0.1328125,-0.01953125,0,-0.02197266,0.003173828,-0.01086426,0,0,-0.01086426,0.2062683,4.077,0,0,0,0.1400146,nan,4,12.278,1,0,0.3363342,0.08374023,0.3051758,0.09979248,0.002929688,0,0,1,6,0.1904762
175.242,0.001006,0.04492188,-0.06054688,0.03515625,-0.0390625,-6.46875,8.828125,0.0234375,-0.03125,0.0859375,0.1328125,-0.01757812,0,-0.02209473,0.003051758,-0.009643555,0,0,-0.009643555,0.2079468,4.077,0,0,0,0.1400146,nan,4,12.288,1,0,0.2004089,0.2250366,0.1850586,0.2212524,0.002929688,0,0,1,6,0
175.252,0.001006,-0.03710938,0.02929688,0.01953125,-0.109375,-1.210938,14.60938,-0.0390625,0.009765625,0.01757812,0.1328125,-0.01757812,0,-0.0222168,0.002929688,-0.009399414,0,0,-0.009399414,0.2096252,4.077,0,0,0,0.1400146,nan,4,12.298,1,0,0.1944275,0.2155151,0.169281,0.2592773,0.002929688,0,0,1,6,0
175.262,0.001007,0.09960938,0.07421875,0.03320312,0.3828125,-11.36719,7.179688,0.03125,0.02929688,0.02148438,0.1328125,-0.01953125,0,-0.0222168,0.003173828,-0.009155273,0,0,-0.009155273,0.2113037,4.077,0,0,0,0.1400146,nan,4,12.308,1,0,0.2163086,0.1932068,0.2251892,0.2105103,0.002929688,0,0,1,6,0
175.272,0.001007,0.07617188,-0.08203125,-0.08398438,-0.1328125,-1.640625,14.60938,0.0234375,-0.046875,-0.046875,0.1328125,-0.01757812,0,-0.02209473,0.003051758,-0.009399414,0,0,-0.009399414,0.2129822,4.077,0,0,0,0.1400146,nan,4,12.318,1,0,0.1541443,0.2880554,0.1265564,0.2832031,0.002929688,0,0,1,6,0
175.281,0.001012,-0.0078125,0.009765625,-0.09375,0.046875,-5.335938,4.0625,-0.00390625,0.01953125,-0.09179688,0.1308594,-0.01757812,0,-0.02197266,0.002929688,-0.01000977,0,0,-0.01000977,0.2145081,4.077,0,0,0,0.1400146,nan,4,12.327,1,0,0.1545715,0.2609558,0.1404114,0.3020935,0.002929688,0,0,1,6,0
175.292,0.001012,0.07226562,0.125,-0.171875,-2.070312,8.984375,15.38281,0.0078125,0.01757812,-0.171875,0.1308594,-0.01757812,0,-0.02185059,0.002807617,-0.01159668,0,0,-0.01159668,0.2161865,4.077,0,0,0,0.1400146,nan,4,12.337,1,0,0.1142273,0.2997437,0.1132202,0.3375244,0.002929688,0,0,1,6,0
175.302,0.001012,0.1054688,0.04101562,-0.09765625,0.3828125,3.765625,16.16406,0.06640625,-0.02539062,-0.1113281,0.1289062,-0.015625,0,-0.02148438,0.002563477,-0.01293945,0,0,-0.01293945,0.217865,4.077,0,0,0,0.1400146,nan,4,12.347,1,0,0.2345276,0.1977234,0.2338867,0.2053223,0.002929688,0,0,1,6,0
175.312,0.001012,-0.07617188,0.001953125,0.03125,2.015625,2.414062,5.90625,-0.04492188,0.0234375,-0.01367188,0.1269531,-0.015625,0,-0.02124023,0.002441406,-0.01367188,0,0,-0.01367188,0.2195435,4.077,0,0,0,0.1400146,nan,4,12.357,1,0,0.3305054,0.09277344,0.2973328,0.1575928,0.00390625,0,0,1,6,0
175.322,0.001012,0.01367188,-0.07617188,0.1152344,-2.679688,-0.0859375,8.578125,-0.08789062,0.015625,0.07226562,0.1347656,-0.01757812,0,-0.02246094,0.002807617,-0.01330566,0,0,-0.01330566,0.2212219,4.077,0,0,0,0.1400146,nan,4,12.367,1,0,0.3461304,0.09735107,0.3179321,0.1235352,0.00390625,0,0,1,6,0
175.332,0.001019,-0.05273438,0.02734375,0.1015625,1.65625,-3.570312,8.609375,-0.02929688,-0.01953125,0.1074219,0.1347656,-0.015625,0,-0.02258301,0.002563477,-0.01220703,0,0,-0.01220703,0.2229309,4.077,0,0,0,0.1400146,nan,4,12.378,1,0,0.2952271,0.1516418,0.2615356,0.1832886,0.00390625,0,0,1,6,0.2857143
175.342,0.001014,-0.015625,0.1582031,0.1152344,-0.4765625,0.4296875,11.17969,-0.0546875,0.08007812,0.1132812,0.1367188,-0.01757812,0,-0.02282715,0.002929688,-0.0111084,0,0,-0.0111084,0.2246094,4.077,0,0,0,0.1400146,nan,4,12.388,1,0,0.2710266,0.1438599,0.2672729,0.2162476,0.00390625,-0.0009765625,0,1,6,0
175.352,0.001014,0.0546875,-0.03125,0.2128906,-2.484375,1.210938,12.94531,0.07226562,0.01757812,0.1875,0.1367188,-0.01953125,0,-0.02233887,0.003417969,-0.009643555,0,0,-0.01074219,0,4.077,0,0,0,0.1400146,nan,4,12.398,0,0,0,0,0,0,0,0,0,1,6,0
175.362,0.001015,-0.03710938,0.078125,0.1796875,-0.1484375,-1.726562,3.671875,-0.02148438,0.04296875,0.1914062,0.1367188,-0.01953125,0,-0.02209473,0.003662109,-0.007568359,0,0,-0.01074219,0,4.077,0,0,0,0.1400146,nan,4,12.408,0,0,0,0,0,0,0,0,0,1,6,0
175.372,0.00101,0.0390625,-0.01757812,0.09765625,-2.148438,1.460938,15.19531,-0.00390625,0.0234375,0.1269531,0.1367188,-0.01953125,0,-0.02246094,0.004272461,-0.005981445,0,0,-0.01074219,0,4.077,0,0,0,0.1400146,nan,4,12.418,0,0,0,0,0,0,0,0,0,1,6,0
175.382,0.00101,-0.03320312,-0.02539062,-0.05859375,-1.84375,5.671875,14.70312,-0.02734375,0.001953125,0.0078125,0.1367188,-0.01953125,0,-0.02258301,0.004394531,-0.005371094,0,0,-0.01074219,0,4.077,0,0,0,0.1400146,nan,4,12.428,0,0,0,0,0,0,0,0,0,1,6,0
175.392,0.001016,-0.03320312,-0.04492188,-0.1328125,-2.460938,3.796875,14.58594,-0.0078125,-0.005859375,-0.1074219,0.1367188,-0.01953125,0,-0.02246094,0.004394531,-0.005981445,0,0,-0.01074219,0,4.077,0,0,0,0.1400146,nan,4,12.438,0,0,0,0,0,0,0,0,0,1,6,0
175.401,0.001018,-0.09179688,-0.03125,-0.1210938,0.265625,0.59375,12.05469,0.001953125,-0.03320312,-0.1289062,0.1367188,-0.01953125,0,-0.02233887,0.004272461,-0.007202148,0,0,-0.01074219,0,4.077,0,0,0,0.1400146,nan,4,12.447,0,0,0,0,0,0,0,0,0,1,6,0
175.412,0.001057,-0.03710938,0.015625,0.02148438,0.34375,1.15625,10.72656,-0.01171875,0.00390625,-0.02734375,0.1367188,-0.01953125,0,-0.02233887,0.004150391,-0.00793457,0,0,-0.01074219,0,4.077,0,0,0,0.1400146,nan,4,12.457,0,0,0,0,0,0,0,0,0,1,6,0
175.422,0.001015,-0.03125,0.03125,0.125,-0.984375,-0.7734375,6.945312,-0.01171875,0.01953125,0.07617188,0.1367188,-0.01953125,0,-0.02233887,0.004150391,-0.00769043,0,0,-0.01074219,0,4.077,0,0,0,0.1400146,nan,4,12.467,0,0,0,0,0,0,0,0,0,1,6,0
175.432,0.001016,-0.03710938,0.0390625,0.1054688,0.5078125,5.25,9.460938,-0.01367188,0.0078125,0.1054688,0.1367188,-0.01953125,0,-0.02246094,0.004150391,-0.006591797,0,0,-0.01074219,0,4.077,0,0,0,0.1400146,nan,4,12.478,0,0,0,0,0,0,0,0,0,1,6,0
175.442,0.001009,-0.01757812,0,0.046875,-2.289062,-7.945312,11.07812,-0.02734375,-0.005859375,0.0703125,0.1367188,-0.01953125,0,-0.02270508,0.004150391,-0.005615234,0,0,-0.01074219,0,4.077,0,0,0,0.1400146,nan,4,12.488,0,0,0,0,0,0,0,0,0,1,6,0
175.452,0.001016,0.01171875,-0.001953125,0.02148438,1.484375,6.085938,16.07031,0.01171875,-0.005859375,0.02929688,0.1367188,-0.01953125,0,-0.02258301,0.00402832,-0.005249023,0,0,-0.01074219,0,4.077,0,0,0,0.1400146,nan,4,12.498,0,0,0,0,0,0,0,0,0,1,6,0
175.462,0.00102,-0.001953125,0.005859375,-0.03320312,-0.859375,-1.65625,1.46875,-0.00390625,-0.005859375,-0.009765625,0.1367188,-0.01953125,0,-0.02270508,0.00402832,-0.005126953,0,0,-0.01074219,0,4.077,0,0,0,0.1400146,nan,4,12.508,0,0,0,0,0,0,0,0,0,1,6,0
175.472,0.001015,0.00390625,0.001953125,-0.03515625,1.882812,-1.859375,5.804688,-0.0234375,0.01953125,-0.03320312,0.1367188,-0.01953125,0,-0.02282715,0.004150391,-0.005371094,0,0,-0.01074219,0,4.077,0,0,0,0.1400146,nan,4,12.518,0,0,0,0,0,0,0,0,0,1,6,0
175.482,0.001015,0.00390625,-0.01757812,-0.02734375,0.296875,-3.382812,9.453125,-0.005859375,0.001953125,-0.03125,0.1367188,-0.01953125,0,-0.02307129,0.004394531,-0.005737305,0,0,-0.01074219,0,4.077,0,0,0,0.1400146,nan,4,12.528,0,0,0,0,0,0,0,0,0,1,6,1
175.492,0.001015,0.01171875,0.05273438,-0.04882812,0.640625,-1.03125,7.445312,0.005859375,0.01757812,-0.03710938,0.1367188,-0.01953125,0,-0.02307129,0.004394531,-0.006103516,0,0,-0.01074219,0,4.077,0,0,0,0.1400146,nan,4,12.538,0,0,0,0,0,0,0,0,0,1,6,0
175.501,0.00101,0.03515625,0.01171875,-0.03125,0.0546875,0.2578125,5.9375,0.01367188,-0.005859375,-0.03125,0.1367188,-0.01953125,0,-0.02307129,0.004394531,-0.006469727,0,0,-0.01074219,0,4.077,0,0,0,0.1400146,nan,4,12.547,0,0,0,0,0,0,0,0,0,1,6,0
175.512,0.00101,-0.01171875,-0.00390625,0.0078125,0.6328125,-0.8125,11.10938,0,-0.005859375,-0.005859375,0.1367188,-0.01953125,0,-0.02294922,0.004394531,-0.006591797,0,0,-0.01074219,0,4.077,0,0,0,0.1400146,nan,4,12.557,0,0,0,0,0,0,0,0,0,1,6,0
175.522,0.00101,0.03710938,0.02539062,0.005859375,-0.8359375,1.835938,11.01562,0.02148438,0.00390625,0.0078125,0.1367188,-0.01953125,0,-0.02282715,0.004272461,-0.006591797,0,0,-0.01074219,0,4.077,0,0,0,0.1400146,nan,4,12.567,0,0,0,0,0,0,0,0,0,1,6,0
175.532,0.001008,0.04101562,-0.01367188,-0.02734375,0.828125,-0.578125,8.28125,0.02734375,-0.01757812,-0.01757812,0.1367188,-0.01953125,0,-0.02258301,0.004150391,-0.006591797,0,0,-0.01074219,0,4.077,0,0,0,0.1400146,nan,4,12.577,0,0,0,0,0,0,0,0,0,1,6,0
175.542,0.001002,-0.02929688,-0.02734375,-0.02929688,0.59375,0.8125,8.960938,-0.009765625,0.001953125,-0.04492188,0.1367188,-0.01953125,0,-0.02233887,0.004150391,-0.006958008,0,0,-0.01074219,0,4.077,0,0,0,0.1400146,nan,4,12.588,0,0,0,0,0,0,0,0,0,1,6,1
175.552,0.001009,-0.01757812,-0.078125,0.03320312,0.1875,0.484375,8.46875,0.005859375,-0.02734375,0.02148438,0.1367188,-0.01953125,0,-0.02209473,0.00402832,-0.007080078,0,0,-0.01074219,0,4.077,0,0,0,0.1400146,nan,4,12.598,0,0,0,0,0,0,0,0,0,1,6,0
175.562,0.001006,-0.02539062,-0.005859375,0.04296875,-0.8359375,-0.8046875,10.51562,-0.02148438,0,0.04296875,0.1367188,-0.01953125,0,-0.02233887,0.00390625,-0.006713867,0,0,-0.01074219,0,4.077,0,0,0,0.1400146,nan,4,12.608,0,0,0,0,0,0,0,0,0,1,6,1
175.572,0.00101,-0.02148438,0.04492188,-0.0078125,0.109375,-0.7890625,8.75,-0.01953125,0.01757812,0.0078125,0.1367188,-0.01953125,0,-0.02233887,0.00402832,-0.006469727,0,0,-0.01074219,0,4.077,0,0,0,0.1400146,nan,4,12.618,0,0,0,0,0,0,0,0,0,1,6,0
175.582,0.001005,0.03710938,0.01757812,-0.02539062,-0.5859375,-0.5859375,13.75,0.02148438,-0.0078125,-0.01757812,0.1367188,-0.01953125,0,-0.0222168,0.00390625,-0.006469727,0,0,-0.01074219,0,4.077,0,0,0,0.1400146,nan,4,12.628,0,0,0,0,0,0,0,0,0,1,6,0
175.592,0.001005,0.00390625,-0.0234375,-0.02539062,0.125,1.59375,4.8125,-0.001953125,-0.0078125,-0.02539062,0.1367188,-0.01953125,0,-0.0222168,0.00378418,-0.006713867,0,0,-0.01074219,0,4.077,0,0,0,0.1400146,nan,4,12.638,0,0,0,0,0,0,0,0,0,1,6,0
175.601,0.001015,-0.01367188,-0.01171875,-0.01171875,-0.203125,-1.179688,10.27344,-0.01367188,0.005859375,-0.02148438,0.1367188,-0.01953125,0,-0.02233887,0.00390625,-0.006958008,0,0,-0.01074219,0,4.077,0,0,0,0.1400146,nan,4,12.647,0,0,0,0,0,0,0,0,0,1,6,1
175.612,0.001015,0.02929688,0,0.01171875,-0.4140625,-1.484375,10.22656,0.01953125,-0.0078125,0.00390625,0.1367188,-0.01953125,0,-0.0222168,0.00390625,-0.007080078,0,0,-0.01074219,0,4.077,0,0,0,0.1400146,nan,4,12.657,0,0,0,0,0,0,0,0,0,1,6,1
175.622,0.001016,-0.04101562,0.05859375,-0.02929688,-0.234375,-3.078125,8.242188,-0.01367188,0.0234375,-0.015625,0.1367188,-0.01953125,0,-0.0222168,0.00390625,-0.007080078,0,0,-0.01074219,0,4.077,0,0,0,0.1400146,nan,4,12.667,0,0,0,0,0,0,0,0,0,1,6,0
175.632,0.001013,0.0234375,-0.015625,-0.03710938,2.039062,-3.789062,10.94531,0.005859375,-0.00390625,-0.03710938,0.1367188,-0.01953125,0,-0.02233887,0.00402832,-0.007324219,0,0,-0.01074219,0,4.077,0,0,0,0.1400146,nan,4,12.677,0,0,0,0,0,0,0,0,0,1,6,0
175.642,0.001,0.0234375,0,-0.02148438,1.492188,-0.96875,16.21094,0.01953125,-0.01367188,-0.03515625,0.1367188,-0.01953125,0,-0.0222168,0.00390625,-0.0078125,0,0,-0.01074219,0,4.077,0,0,0,0.1400146,nan,4,12.688,0,0,0,0,0,0,0,0,0,1,6,0
175.652,0.001009,-0.01953125,0.001953125,-0.005859375,-0.734375,2.609375,5.523438,-0.01953125,0.009765625,-0.00390625,0.1367188,-0.01953125,0,-0.0222168,0.00390625,-0.00793457,0,0,-0.01074219,0,4.077,0,0,0,0.1400146,nan,4,12.698,0,0,0,0,0,0,0,0,0,1,6,0
175.662,0.001005,-0.009765625,-0.001953125,0.01757812,1.703125,-4.039062,10.07031,0.00390625,-0.005859375,0.009765625,0.1367188,-0.01953125,0,-0.0222168,0.00390625,-0.0078125,0,0,-0.01074219,0,4.077,0,0,0,0.1400146,nan,4,12.708,0,0,0,0,0,0,0,0,0,1,6,0
175.672,0.000999,0.01171875,0.02734375,-0.02148438,-2.492188,-0.21875,11.25,0.001953125,0.00390625,-0.01367188,0.1367188,-0.01953125,0,-0.02209473,0.00378418,-0.00793457,0,0,-0.01074219,0,4.077,0,0,0,0.1400146,nan,4,12.718,0,0,0,0,0,0,0,0,0,1,6,0
175.682,0.000992,-0.01367188,-0.02929688,0.02539062,-2.40625,-0.4921875,7.5625,-0.005859375,-0.009765625,0.009765625,0.1367188,-0.01953125,0,-0.0222168,0.00390625,-0.00793457,0,0,-0.01074219,0,4.077,0,0,0,0,nan,4,0.007,0,0,0,0,0,0,0,0,0,1,6,0
175.691,0.001013,-0.046875,0.0078125,0.0390625,-3.992188,-4.101562,9.039062,-0.00390625,0,0.01953125,0.1367188,-0.01953125,0,-0.0222168,0.00390625,-0.0078125,0,0,-0.01074219,0,4.077,0,0,0,0,nan,4,0.016,0,0,0,0,0,0,0,0,0,1,6,1
175.701,0.001018,-0.09179688,0.03125,0.02929688,-3.1875,-3.703125,8.804688,-0.02148438,0.005859375,0.02148438,0.1367188,-0.01953125,0,-0.02233887,0.00390625,-0.00769043,0,0,-0.01074219,0,4.077,0,0,0,0,nan,4,0.026,0,0,0,0,0,0,0,0,0,1,6,1
175.712,0.00101,-0.06640625,0.03320312,0.015625,-2.953125,-4.632812,10.01562,-0.01367188,0.005859375,0.01171875,0.1367188,-0.01953125,0,-0.02233887,0.00390625,-0.007446289,0,0,-0.01074219,0,4.077,0,0,0,0,nan,4,0.036,0,0,0,0,0,0,0,0,0,1,6,0
175.722,0.001007,-0.02929688,0.01171875,-0.001953125,-0.28125,-1.648438,10.67188,-0.005859375,0,-0.00390625,0.1367188,-0.01953125,0,-0.0222168,0.00390625,-0.007446289,0,0,-0.01074219,0,4.077,0,0,0,0,nan,4,0.007,0,0,0,0,0,0,0,0,0,1,6,0
175.732,0.001007,0.0078125,-0.046875,-0.00390625,4.835938,1.328125,10.17969,0.00390625,-0.01367188,0.001953125,0.1367188,-0.01953125,0,-0.0222168,0.00390625,-0.007446289,0,0,-0.01074219,0,4.077,0,0,0,0,nan,4,0.017,0,0,0,0,0,0,0,0,0,1,6,0
175.742,0.001006,-0.02148438,-0.04296875,-0.00390625,3.40625,0.828125,9.25,-0.01171875,-0.00390625,0,nan,nan,nan,-0.0222168,0.00402832,-0.007446289,0,0,-0.007446289,0,4.077,0,0,0,0,nan,2,0.027,0,0,0,0,0,0,0,0,0,1,2,1
175.752,0.001002,-0.0078125,-0.05273438,-0.005859375,1.273438,-0.171875,9.929688,0.01757812,-0.01367188,-0.015625,nan,nan,nan,-0.02209473,0.00402832,-0.007568359,0,0,-0.007568359,0,4.077,0,0,0,0,nan,2,0.037,0,0,0,0,0,0,0,0,0,1,2,1
175.762,0.001007,0.02929688,0.08398438,0.005859375,-2.390625,0.8359375,10.07812,-0.005859375,0.01367188,-0.00390625,nan,nan,nan,-0.02197266,0.00402832,-0.00769043,0,0,-0.00769043,0,4.077,0,0,0,0,nan,2,0.047,0,0,0,0,0,0,0,0,0,1,2,1
175.772,0.001014,-0.02929688,-0.08007812,0,3.117188,-1.125,8.898438,-0.01171875,-0.009765625,0.01171875,nan,nan,nan,-0.02185059,0.00402832,-0.00769043,0,0,-0.00769043,0,4.077,0,0,0,0,nan,2,0.058,0,0,0,0,0,0,0,0,0,1,2,1
175.782,0.00101,0.05078125,0.06054688,-0.0078125,-1.695312,2.132812,10.35938,0.009765625,0.005859375,-0.001953125,nan,nan,nan,-0.02172852,0.00402832,-0.007568359,0,0,-0.007568359,0,4.077,0,0,0,0,nan,2,0.068,0,0,0,0,0,0,0,0,0,1,2,1
175.792,0.00101,-0.0703125,-0.04492188,0,0.390625,-0.703125,9.117188,-0.00390625,0,-0.005859375,nan,nan,nan,-0.02160645,0.00402832,-0.00769043,0,0,-0.00769043,0,4.077,0,0,0,0,nan,2,0.078,0,0,0,0,0,0,0,0,0,1,2,1
175.801,0.001008,-0.06835938,-0.05078125,-0.0078125,0.6171875,-0.0234375,9.125,-0.00390625,-0.0078125,0.001953125,nan,nan,nan,-0.02160645,0.00402832,-0.00769043,0,0,-0.00769043,0,4.077,0,0,0,0,nan,2,0.087,0,0,0,0,0,0,0,0,0,1,2,1
175.812,0.001006,-0.05859375,-0.04296875,-0.01953125,0.7421875,-0.5703125,9.570312,-0.009765625,-0.01757812,-0.001953125,nan,nan,nan,-0.02148438,0.00390625,-0.007568359,0,0,-0.007568359,0,4.077,0,0,0,0,nan,2,0.097,0,0,0,0,0,0,0,0,0,1,2,1
175.822,0.001015,0.01757812,0.00390625,-0.02148438,0.7734375,0.1640625,10.14062,0,-0.01171875,-0.005859375,nan,nan,nan,-0.02148438,0.00390625,-0.007568359,0,0,-0.007568359,0,4.077,0,0,0,0,nan,2,0.107,0,0,0,0,0,0,0,0,0,1,2,1
175.832,0.001001,0.06835938,0,-0.01367188,0.890625,-0.0234375,9,0.0078125,-0.005859375,-0.001953125,nan,nan,nan,-0.02148438,0.00390625,-0.007568359,0,0,-0.007568359,0,4.077,0,0,0,0,nan,2,0.117,0,0,0,0,0,0,0,0,0,1,2,1
175.842,0.000926,0.09179688,-0.0625,0.01171875,0.8125,-0.203125,8.890625,0.02539062,-0.015625,0.00390625,nan,nan,nan,-0.0213623,0.00390625,-0.007568359,0,0,-0.007568359,0,4.077,0,0,0,0,nan,2,0.127,0,0,0,0,0,0,0,0,0,1,2,1
175.852,0.000983,0.01367188,-0.04296875,0.0078125,-0.0078125,-0.0234375,9.976562,-0.01171875,-0.001953125,-0.005859375,nan,nan,nan,-0.02124023,0.00378418,-0.007568359,0,0,-0.007568359,0,4.077,0,0,0,0,nan,2,0.137,0,0,0,0,0,0,0,0,0,1,2,1
175.862,0.001013,-0.03320312,0.009765625,-0.03125,0.0859375,0.90625,9.414062,-0.005859375,0.00390625,-0.005859375,nan,nan,nan,-0.02111816,0.00378418,-0.007568359,0,0,-0.007568359,0,4.077,0,0,0,0,nan,2,0.147,0,0,0,0,0,0,0,0,0,1,2,1
175.872,0.001008,-0.0078125,0.0390625,0.01171875,-1.054688,-0.53125,10.875,-0.001953125,0.01367188,0.00390625,nan,nan,nan,-0.02099609,0.00378418,-0.007568359,0,0,-0.007568359,0,4.077,0,0,0,0,nan,2,0.158,0,0,0,0,0,0,0,0,0,1,2,0
175.882,0.001031,-0.001953125,0,-0.001953125,0.5546875,-0.2578125,9.039062,-0.00390625,-0.0078125,0.001953125,nan,nan,nan,-0.02099609,0.00378418,-0.007568359,0,0,-0.007568359,0,4.077,0,0,0,0,nan,2,0.167,0,0,0,0,0,0,0,0,0,1,2,1
175.891,0.000975,-0.005859375,-0.001953125,0.00390625,0.15625,0.109375,10.19531,0.005859375,0.00390625,-0.005859375,nan,nan,nan,-0.02087402,0.00378418,-0.007568359,0,0,-0.007568359,0,4.077,0,0,0,0,nan,2,0.177,0,0,0,0,0,0,0,0,0,1,2,1
175.901,0.00101,0.03320312,-0.03320312,-0.01171875,0.5234375,0.765625,8.679688,-0.005859375,-0.00390625,-0.001953125,nan,nan,nan,-0.02087402,0.00378418,-0.007568359,0,0,-0.007568359,0,4.077,0,0,0,0,nan,2,0.187,0,0,0,0,0,0,0,0,0,1,2,0
175.912,0.00101,0,-0.01367188,0.0078125,-0.1171875,-0.859375,9.984375,0.001953125,0.00390625,0.00390625,nan,nan,nan,-0.02075195,0.00378418,-0.007568359,0,0,-0.007568359,0,4.077,0,0,0,0,nan,2,0.197,0,0,0,0,0,0,0,0,0,1,2,1
175.922,0.00099,-0.005859375,-0.0078125,-0.001953125,0.015625,0.1640625,9.773438,0.00390625,-0.001953125,0.001953125,nan,nan,nan,-0.02062988,0.00378418,-0.007568359,0,0,-0.007568359,0,4.077,0,0,0,0,nan,2,0.207,0,0,0,0,0,0,0,0,0,1,2,1
175.932,0.001013,0.01171875,0,-0.009765625,0.203125,0.3515625,9.328125,-0.00390625,0.00390625,0,nan,nan,nan,-0.02050781,0.00378418,-0.00769043,0,0,-0.00769043,0,4.077,0,0,0,0,nan,2,0.217,0,0,0,0,0,0,0,0,0,1,2,1
175.942,0.001026,0.02539062,-0.02148438,-0.01757812,0.1953125,-0.109375,9.6875,0.005859375,-0.00390625,-0.00390625,nan,nan,nan,-0.02050781,0.00378418,-0.00769043,0,0,-0.00769043,0,4.077,0,0,0,0,nan,2,0.227,0,0,0,0,0,0,0,0,0,1,2,1
175.952,0.001033,0.01367188,-0.009765625,-0.005859375,-0.0859375,-0.296875,10.21875,0.001953125,0.001953125,0,nan,nan,nan,-0.02038574,0.003662109,-0.00769043,0,0,-0.00769043,0,4.077,0,0,0,0,nan,2,0.237,0,0,0,0,0,0,0,0,0,1,2,1
175.962,0.00101,-0.0078125,0.01757812,-0.005859375,-0.4609375,-0.25,11.0625,0,-0.001953125,0,nan,nan,nan,-0.02026367,0.003662109,-0.00769043,0,0,-0.00769043,0,4.077,0,0,0,0,nan,2,0.247,0,0,0,0,0,0,0,0,0,1,2,0
175.972,0.001013,-0.01367188,0.009765625,-0.009765625,-0.21875,-0.015625,10.15625,0,-0.005859375,-0.001953125,nan,nan,nan,-0.0201416,0.003662109,-0.00769043,0,0,-0.00769043,0,4.077,0,0,0,0,nan,2,0.258,0,0,0,0,0,0,0,0,0,1,2,1
175.981,0.001006,0.001953125,-0.01171875,-0.01367188,0.1796875,0.1328125,9.984375,0.001953125,-0.00390625,0,nan,nan,nan,-0.0201416,0.003662109,-0.00769043,0,0,-0.00769043,0,4.077,0,0,0,0,nan,2,0.267,0,0,0,0,0,0,0,0,0,1,2,1
175.992,0.00101,0.001953125,-0.005859375,-0.01367188,0.1796875,0.0703125,9.570312,0.001953125,-0.001953125,0,nan,nan,nan,-0.02001953,0.003662109,-0.00769043,0,0,-0.00769043,0,4.077,0,0,0,0,nan,2,0.278,0,0,0,0,0,0,0,0,0,1,2,1
176.001,0.00101,0.001953125,0,0.01367188,-0.015625,0.2109375,9.773438,-0.00390625,0.001953125,0.001953125,nan,nan,nan,-0.01989746,0.003540039,-0.00769043,0,0,-0.00769043,0,4.077,0,0,0,0,nan,2,0.287,0,0,0,0,0,0,0,0,0,1,2,1
176.012,0.00101,0.001953125,0.00390625,-0.009765625,0.140625,-0.0390625,9.664062,-0.001953125,0.005859375,-0.009765625,nan,nan,nan,-0.01989746,0.003540039,-0.00769043,0,0,-0.00769043,0,4.077,0,0,0,0,nan,2,0.297,0,0,0,0,0,0,0,0,0,1,2,1
176.022,0.00101,0.001953125,0.00390625,0.005859375,-0.21875,0.2109375,10.40625,0,0,0.005859375,nan,nan,nan,-0.01977539,0.003540039,-0.00769043,0,0,-0.00769043,0,4.077,0,0,0,0,nan,2,0.307,0,0,0,0,0,0,0,0,0,1,2,1
176.032,0.00101,-0.0078125,0,0,0.1484375,-0.140625,10.01562,0,0,0,nan,nan,nan,-0.01965332,0.003540039,-0.00769043,0,0,-0.00769043,0,4.077,0,0,0,0,nan,2,0.317,0,0,0,0,0,0,0,0,0,1,2,1
176.042,0.001019,-0.001953125,0.005859375,0.005859375,0.0078125,0.1640625,10.03125,-0.001953125,-0.001953125,0,nan,nan,nan,-0.01953125,0.003540039,-0.00769043,0,0,-0.00769043,0,4.077,0,0,0,0,nan,2,0.327,0,0,0,0,0,0,0,0,0,1,2,1
176.052,0.001011,-0.005859375,-0.00390625,-0.005859375,0.0625,-0.15625,9.539062,-0.001953125,0.001953125,0,nan,nan,nan,-0.01940918,0.003540039,-0.00769043,0,0,-0.00769043,0,4.077,0,0,0,0,nan,2,0.337,0,0,0,0,0,0,0,0,0,1,2,1
176.062,0.00101,0,0.00390625,0.001953125,-0.1015625,0.09375,9.84375,-0.00390625,-0.001953125,-0.00390625,nan,nan,nan,-0.01940918,0.003417969,-0.00769043,0,0,-0.00769043,0,4.077,0,0,0,0,nan,2,0.347,0,0,0,0,0,0,0,0,0,1,2,1
176.072,0.00101,0,0,0.005859375,0.15625,-0.1015625,9.921875,0,0.00390625,0.005859375,nan,nan,nan,-0.01928711,0.003417969,-0.00769043,0,0,-0.00769043,0,4.077,0,0,0,0,nan,2,0.358,0,0,0,0,0,0,0,0,0,1,2,1
176.082,0.00101,-0.001953125,-0.00390625,-0.009765625,-0.0703125,0,9.875,0,-0.005859375,-0.00390625,nan,nan,nan,-0.01916504,0.003417969,-0.00769043,0,0,-0.00769043,0,4.077,0,0,0,0,nan,2,0.368,0,0,0,0,0,0,0,0,0,1,2,1
176.091,0.00101,-0.005859375,0.005859375,0,0.171875,-0.0390625,9.789062,-0.00390625,0.0078125,-0.001953125,nan,nan,nan,-0.01916504,0.003417969,-0.00769043,0,0,-0.00769043,0,4.077,0,0,0,0,nan,2,0.377,0,0,0,0,0,0,0,0,0,1,2,1
176.102,0.001027,-0.005859375,-0.0078125,0.001953125,-0.0546875,0.140625,9.898438,-0.00390625,-0.005859375,0.001953125,nan,nan,nan,-0.01904297,0.003417969,-0.00769043,0,0,-0.00769043,0,4.077,0,0,0,0,nan,2,0.387,0,0,0,0,0,0,0,0,0,1,2,1
176.112,0.00102,0.001953125,0.005859375,-0.005859375,-0.0078125,-0.0703125,9.757812,-0.001953125,0.00390625,-0.001953125,nan,nan,nan,-0.0189209,0.003417969,-0.00769043,0,0,-0.00769043,0,4.077,0,0,0,0,nan,2,0.397,0,0,0,0,0,0,0,0,0,1,2,1
176.122,0.000978,-0.005859375,-0.001953125,0,0.0546875,0.046875,9.8125,-0.001953125,-0.001953125,-0.00390625,nan,nan,nan,-0.0189209,0.003295898,-0.00769043,0,0,-0.00769043,0,4.077,0,0,0,0,nan,2,0.407,0,0,0,0,0,0,0,0,0,1,2,1
176.132,0.001041,0.001953125,0,0.009765625,-0.0625,0.0234375,9.773438,-0.001953125,0,0.005859375,nan,nan,nan,-0.01879883,0.003295898,-0.00769043,0,0,-0.00769043,0,4.077,0,0,0,0,nan,2,0.417,0,0,0,0,0,0,0,0,0,1,2,1
176.142,0.001016,-0.0078125,0,-0.001953125,0.0078125,0.015625,9.84375,0,-0.001953125,0,nan,nan,nan,-0.01867676,0.003295898,-0.00769043,0,0,-0.00769043,0,4.077,0,0,0,0,nan,2,0.427,0,0,0,0,0,0,0,0,0,1,2,1
176.152,0.001008,0,0,0,-0.0078125,0.078125,9.820312,-0.001953125,0,-0.001953125,nan,nan,nan,-0.01855469,0.003295898,-0.00769043,0,0,-0.00769043,0,4.077,0,0,0,0,nan,2,0.437,0,0,0,0,0,0,0,0,0,1,2,1
176.162,0.001008,-0.001953125,0,0.001953125,0.0625,-0.0546875,9.851562,0,-0.001953125,0.00390625,nan,nan,nan,-0.01843262,0.003295898,-0.00769043,0,0,-0.00769043,0,4.077,0,0,0,0,nan,2,0.447,0,0,0,0,0,0,0,0,0,1,2,1
176.172,0.00101,0.001953125,0.001953125,0.001953125,-0.0234375,0.046875,9.828125,0,0,0,nan,nan,nan,-0.01843262,0.003173828,-0.00769043,0,0,-0.00769043,0,4.077,0,0,0,0,nan,2,0.458,0,0,0,0,0,0,0,0,0,1,2,1
176.182,0.00101,-0.001953125,0,0,0.0390625,-0.0234375,9.820312,0,0,-0.001953125,nan,nan,nan,-0.01831055,0.003173828,-0.00769043,0,0,-0.00769043,0,4.077,0,0,0,0,nan,2,0.468,0,0,0,0,0,0,0,0,0,1,2,1
176.192,0.00101,-0.001953125,-0.00390625,0,-0.0234375,0.0234375,9.828125,-0.001953125,-0.001953125,0.001953125,nan,nan,nan,-0.01818848,0.003173828,-0.00769043,0,0,-0.00769043,0,4.077,0,0,0,0,nan,2,0.478,0,0,0,0,0,0,0,0,0,1,2,1
176.201,0.001007,0,0.0078125,-0.00390625,0.0546875,0,9.84375,0,0.001953125,-0.001953125,nan,nan,nan,-0.01818848,0.003173828,-0.00769043,0,0,-0.00769043,0,4.077,0,0,0,0,nan,2,0.487,0,0,0,0,0,0,0,0,0,1,2,1
176.212,0.001007,-0.001953125,-0.001953125,0,-0.015625,0.0390625,9.757812,-0.001953125,-0.001953125,0,nan,nan,nan,-0.01806641,0.003173828,-0.00769043,0,0,-0.00769043,0,4.077,0,0,0,0,nan,2,0.497,0,0,0,0,0,0,0,0,0,1,2,1
176.222,0.001025,-0.001953125,0,0,0.0078125,0.0078125,9.820312,-0.001953125,0,0,nan,nan,nan,-0.01794434,0.003173828,-0.00769043,0,0,-0.00769043,0,4.077,0,0,0,0,nan,2,0.507,0,0,0,0,0,0,0,0,0,1,2,1
176.232,0.000999,-0.001953125,0,0,0,-0.0234375,9.804688,-0.001953125,0,0,nan,nan,nan,-0.01794434,0.003051758,-0.00769043,0,0,-0.00769043,0,4.077,0,0,0,0,nan,2,0.517,0,0,0,0,0,0,0,0,0,1,2,1
176.242,0.001019,-0.001953125,0.001953125,-0.001953125,0.0390625,-0.0234375,9.882812,-0.001953125,0,-0.001953125,nan,nan,nan,-0.01782227,0.003051758,-0.00769043,0,0,-0.00769043,0,4.077,0,0,0,0,nan,2,0.527,0,0,0,0,0,0,0,0,0,1,2,1
176.252,0.001005,0,-0.001953125,0.001953125,0.0078125,-0.015625,9.84375,0.001953125,0,0,nan,nan,nan,-0.0177002,0.003051758,-0.00769043,0,0,-0.00769043,0,4.077,0,0,0,0,nan,2,0.537,0,0,0,0,0,0,0,0,0,1,2,1
176.262,0.000985,-0.00390625,0.001953125,0,-0.0234375,0.015625,9.796875,-0.00390625,0,0,nan,nan,nan,-0.0177002,0.003051758,-0.00769043,0,0,-0.00769043,0,4.077,0,0,0,0,nan,2,0.547,0,0,0,0,0,0,0,0,0,1,2,1
176.272,0.000968,0.001953125,0,-0.001953125,0.0078125,-0.0078125,9.875,0,0,0,nan,nan,nan,-0.01757812,0.003051758,-0.00769043,0,0,-0.00769043,0,4.077,0,0,0,0,nan,2,0.558,0,0,0,0,0,0,0,0,0,1,2,1
176.282,0.001005,0.001953125,0.00390625,0.00390625,0.015625,-0.0078125,9.796875,0,0.001953125,0,nan,nan,nan,-0.01745605,0.003051758,-0.00769043,0,0,-0.00769043,0,4.077,0,0,0,0,nan,2,0.568,0,0,0,0,0,0,0,0,0,1,2,1
176.292,0.001005,0,0.00390625,0.001953125,0.0078125,-0.0390625,9.84375,0,0.001953125,0.001953125,nan,nan,nan,-0.01745605,0.003051758,-0.00769043,0,0,-0.00769043,0,4.077,0,0,0,0,nan,2,0.578,0,0,0,0,0,0,0,0,0,1,2,1
176.301,0.001015,-0.001953125,0.001953125,0,0.0078125,-0.0234375,9.789062,-0.001953125,0.001953125,0,nan,nan,nan,-0.01733398,0.003051758,-0.00769043,0,0,-0.00769043,0,4.077,0,0,0,0,nan,2,0.587,0,0,0,0,0,0,0,0,0,1,2,1
176.312,0.001015,0,-0.001953125,0,0.0234375,0.0234375,9.789062,0,-0.001953125,0,nan,nan,nan,-0.01721191,0.003051758,-0.00769043,0,0,-0.00769043,0,4.077,0,0,0,0,nan,2,0.597,0,0,0,0,0,0,0,0,0,1,2,1
176.322,0.001015,-0.001953125,0,0.001953125,0.015625,-0.0234375,9.835938,-0.001953125,0,0,nan,nan,nan,-0.01721191,0.003051758,-0.00769043,0,0,-0.00769043,0,4.077,0,0,0,0,nan,2,0.607,0,0,0,0,0,0,0,0,0,1,2,1
176.332,0.001025,-0.001953125,0.001953125,-0.001953125,0.03125,0.015625,9.820312,0,0,-0.001953125,nan,nan,nan,-0.01708984,0.002929688,-0.00769043,0,0,-0.00769043,0,4.077,0,0,0,0,nan,2,0.617,0,0,0,0,0,0,0,0,0,1,2,1
176.342,0.001002,-0.001953125,-0.001953125,0.001953125,-0.0234375,-0.0234375,9.796875,-0.001953125,0,0,nan,nan,nan,-0.01696777,0.002929688,-0.00769043,0,0,-0.00769043,0,4.077,0,0,0,0,nan,2,0.627,0,0,0,0,0,0,0,0,0,1,2,1
