t,dt_s,gyro_x,gyro_y,gyro_z,acc_x,acc_y,acc_z,rates.x,rates.y,rates.z,ratesTarget.x,ratesTarget.y,ratesTarget.z,attitude.x,attitude.y,attitude.z,attitudeTarget.x,attitudeTarget.y,attitudeTarget.z,thrustTarget,battery_v,rc_roll,rc_pitch,rc_yaw,rc_throttle,rc_mode,flight_mode,rc_age_s,armed,fault_mask,motor_rl,motor_rr,motor_fr,motor_fl,rate_i_x,rate_i_y,rate_i_z,mix_scale,control_source,accel_correction_confidence
4914.299,0.001014,-0.0234375,0.015625,0.00390625,2.085938,0.359375,11.03125,0.00390625,0.001953125,0.03515625,0.01367188,0.05859375,0,-0.002441406,-0.009765625,0.1607666,0,0,0.1639404,0.3105164,4.039,0,0,0,0.2999878,nan,2,9.469,1,128,0.3301086,0.3652954,0.2600403,0.2867126,-0.001953125,0.03320312,0,1,3,0
4914.309,0.001013,0.01367188,0.03320312,-0.04101562,1.578125,-4.34375,7.492188,0.02148438,0.005859375,-0.0234375,0.01367188,0.05859375,0,-0.002319336,-0.009765625,0.1607666,0,0,0.1639404,0.3105164,4.039,0,0,0,0.2999878,nan,2,9.479,1,128,0.2781677,0.4122314,0.2167053,0.335022,-0.001953125,0.03417969,0,1,3,0
4914.318,0.001007,0.04882812,-0.04101562,0.001953125,-0.4609375,-1.953125,6.898438,0.02929688,-0.01367188,-0.0234375,0.01367188,0.05859375,0,-0.002197266,-0.009643555,0.1605225,0,0,0.1639404,0.3105164,4.039,0,0,0,0.2999878,nan,2,9.488,1,128,0.3496704,0.354126,0.2791443,0.2591553,-0.001953125,0.03417969,0,1,3,0
4914.328,0.001008,-0.02734375,-0.05664062,-0.02539062,-1.375,-2.023438,12.21094,0.005859375,-0.01757812,-0.015625,0.01171875,0.05859375,0,-0.001831055,-0.009887695,0.1604004,0,0,0.1639404,0.3105164,4.039,0,0,0,0.2999878,nan,2,9.498,1,128,0.3452454,0.3560181,0.2601929,0.2806396,-0.001953125,0.03417969,0,1,3,0
4914.338,0.001015,0.046875,-0.0859375,-0.07421875,-2.28125,3.617188,11.53906,0.04296875,-0.03515625,-0.06445312,0.009765625,0.06054688,0,-0.001586914,-0.01000977,0.1599121,0,0,0.1639404,0.3105164,4.039,0,0,0,0.2999878,nan,2,9.508,1,128,0.2860718,0.4245911,0.2131348,0.3183289,-0.001953125,0.03417969,0,1,3,0
4914.348,0.001007,0.02539062,0.02929688,-0.06640625,-1.679688,2.046875,9.007812,0.00390625,-0.009765625,-0.06835938,0.0078125,0.06054688,0,-0.001464844,-0.01013184,0.1593018,0,0,0.1639404,0.3105164,4.039,0,0,0,0.2999878,nan,2,9.518,1,128,0.3132935,0.3829346,0.2417603,0.3041077,-0.002929688,0.03417969,0,1,3,0.1587302
4914.358,0.001003,0.05273438,0.01171875,0.01171875,-1.960938,5.859375,14.05469,0.015625,-0.0078125,-0.01367188,0.0078125,0.0625,0,-0.001342773,-0.01037598,0.1589355,0,0,0.1639404,0.3105164,4.039,0,0,0,0.2999878,nan,2,9.528,1,128,0.3851929,0.3058167,0.3261108,0.2249756,-0.001953125,0.03417969,0,1,3,0
4914.368,0.001003,0.02539062,-0.03710938,0.03320312,-1.609375,1.65625,13.21094,-0.01757812,0.009765625,0.03320312,0.009765625,0.0625,0,-0.001708984,-0.01037598,0.1590576,0,0,0.1639404,0.3105164,4.039,0,0,0,0.2999878,nan,2,9.538,1,128,0.387207,0.3065796,0.3224792,0.2258301,-0.001953125,0.03417969,0,1,3,0
4914.379,0.001003,-0.05078125,0.03515625,-0.02148438,1.304688,2.78125,9.023438,-0.01953125,0.01757812,0.01367188,0.009765625,0.0625,0,-0.001708984,-0.01025391,0.1593018,0,0,0.1639404,0.3105164,4.039,0,0,0,0.2999878,nan,2,9.548,1,128,0.3228455,0.3668823,0.2515564,0.3008118,-0.001953125,0.03417969,0,1,3,0.03174603
4914.389,0.001003,0.01171875,0.09375,-0.02929688,1.867188,-3.101562,6.539062,0.001953125,0.04101562,-0.01757812,0.01171875,0.06054688,0,-0.001831055,-0.01025391,0.1591797,0,0,0.1639404,0.3105164,4.039,0,0,0,0.2999878,nan,2,9.559,1,128,0.318512,0.3602905,0.2674561,0.2958679,-0.001953125,0.03417969,0,1,3,0
4914.399,0.001003,-0.06445312,0.05078125,0.0078125,2.070312,-3.078125,10.0625,-0.03320312,0.02539062,0.001953125,0.01171875,0.06054688,0,-0.001831055,-0.01000977,0.1590576,0,0,0.1639404,0.3105164,4.039,0,0,0,0.2999878,nan,2,9.569,1,128,0.3804932,0.3094482,0.3008118,0.2513733,-0.001953125,0.03417969,0,1,3,0
4914.409,0.001003,-0.0234375,0,-0.02734375,1.570312,-3.03125,9.898438,-0.03320312,0.009765625,-0.015625,0.01367188,0.05859375,0,-0.002197266,-0.009887695,0.1590576,0,0,0.1639404,0.3105164,4.039,0,0,0,0.2999878,nan,2,9.579,1,128,0.3258972,0.3683167,0.2489624,0.2989502,-0.001953125,0.03417969,0,1,3,0
4914.418,0.000985,-0.07421875,0.08203125,0.03125,-1.84375,-0.1875,8.789062,-0.04492188,0.05078125,-0.0078125,0.01367188,0.05859375,0,-0.002319336,-0.009887695,0.1588135,0,0,0.1639404,0.3105164,4.039,0,0,0,0.2999878,nan,2,9.588,1,128,0.3586426,0.3162842,0.2952881,0.2718811,-0.001953125,0.03417969,0,1,3,0
4914.428,0.001032,-0.046875,0.01171875,0.046875,-1.601562,2.125,11.59375,-0.02929688,0,0.04101562,0.015625,0.05859375,0,-0.002685547,-0.009643555,0.1590576,0,0,0.1639404,0.3105164,4.039,0,0,0,0.2999878,nan,2,9.598,1,128,0.4032288,0.2984314,0.3187256,0.2217407,-0.001953125,0.03417969,0,1,3,0
4914.438,0.000937,-0.08398438,0.02148438,0.015625,-0.9375,1.445312,12.21875,-0.02929688,-0.00390625,0.03320312,0.01757812,0.05859375,0,-0.002807617,-0.009643555,0.1595459,0,0,0.1639404,0.3105164,4.039,0,0,0,0.2999878,nan,2,9.608,1,128,0.3539429,0.3452759,0.2683716,0.2745056,-0.001953125,0.03417969,0,1,3,0
4914.448,0.00098,0.05859375,-0.06835938,-0.0625,1.632812,1.203125,6.984375,0.03710938,-0.05664062,-0.01367188,0.015625,0.05859375,0,-0.002807617,-0.009887695,0.159668,0,0,0.1639404,0.3105164,4.039,0,0,0,0.2999878,nan,2,9.618,1,128,0.2850037,0.4328918,0.2059937,0.3182068,-0.001953125,0.03417969,0,1,3,0
4914.458,0.001013,-0.08203125,0,0,1.921875,-4.367188,10.60938,-0.03515625,0.03320312,-0.005859375,0.015625,0.05859375,0,-0.002807617,-0.009765625,0.1595459,0,0,0.1639404,0.3105164,4.039,0,0,0,0.2999878,nan,2,9.628,1,128,0.3492737,0.3346558,0.272644,0.2855225,-0.001953125,0.03417969,0,1,3,0
4914.469,0.001005,0.078125,-0.005859375,0.015625,0.8671875,-0.21875,8.539062,0.02148438,0.00390625,-0.001953125,0.01757812,0.05664062,0,-0.003051758,-0.009521484,0.1594238,0,0,0.1639404,0.3105164,4.039,0,0,0,0.2999878,nan,2,9.638,1,128,0.3552856,0.3481445,0.2914734,0.2471924,-0.001953125,0.03515625,0,1,3,0
4914.479,0.001013,-0.06054688,0.08203125,-0.001953125,-0.9609375,-3.046875,8.867188,-0.03125,0.01367188,0.001953125,0.01757812,0.05859375,0,-0.002929688,-0.009643555,0.1594238,0,0,0.1639404,0.3105164,4.039,0,0,0,0.2999878,nan,2,9.648,1,128,0.3558655,0.3323669,0.2746582,0.2792053,-0.001953125,0.03515625,0,1,3,0.06349207
4914.488,0.001016,0.08203125,-0.04882812,0.01367188,-1.765625,4.523438,12.53906,0.009765625,-0.01953125,-0.005859375,0.01953125,0.05859375,0,-0.003295898,-0.009643555,0.1593018,0,0,0.1639404,0.3105164,4.039,0,0,0,0.2999878,nan,2,9.658,1,128,0.3661499,0.3419495,0.29599,0.2380066,-0.001953125,0.03515625,0,1,3,0
4914.499,0.000997,-0.05664062,0,0.03320312,-2.25,0.796875,12.97656,-0.04296875,0.005859375,0.03125,0.01953125,0.05859375,0,-0.003417969,-0.009765625,0.1594238,0,0,0.1639404,0.3105164,4.039,0,0,0,0.2999878,nan,2,9.669,1,128,0.3843079,0.3074341,0.2994385,0.250946,-0.001953125,0.03515625,0,1,3,0
4914.509,0.001013,-0.1484375,0.0390625,-0.05078125,-0.1484375,3.828125,11.01562,-0.04101562,0.005859375,-0.005859375,0.02148438,0.05859375,0,-0.003417969,-0.009887695,0.159668,0,0,0.1639404,0.3105164,4.039,0,0,0,0.2999878,nan,2,9.679,1,128,0.2988892,0.3917236,0.2106934,0.3408203,-0.001953125,0.03515625,0,1,3,0
4914.518,0.001003,0.01171875,0.04296875,-0.009765625,1.867188,-4.757812,9.546875,-0.001953125,0.0234375,-0.01367188,0.02148438,0.05859375,0,-0.003540039,-0.009643555,0.1595459,0,0,0.1639404,0.3105164,4.039,0,0,0,0.2999878,nan,2,9.688,1,128,0.3327332,0.3588257,0.2644958,0.2860413,-0.001953125,0.03515625,0,1,3,0
4914.528,0.001004,-0.06640625,0.0234375,0.02929688,1.65625,-1.382812,7.367188,-0.015625,-0.01171875,0.015625,0.01953125,0.05859375,0,-0.003417969,-0.009765625,0.1595459,0,0,0.1639404,0.3105164,4.039,0,0,0,0.2999878,nan,2,9.698,1,128,0.3912354,0.3072205,0.3023071,0.241333,-0.001953125,0.03515625,0,1,3,0
4914.538,0.001,-0.04492188,0.02148438,-0.01953125,-1.015625,-4.414062,7.148438,-0.005859375,0,-0.005859375,0.02148438,0.05859375,0,-0.003540039,-0.009643555,0.1595459,0,0,0.1639404,0.3105164,4.039,0,0,0,0.2999878,nan,2,9.708,1,128,0.3296814,0.3687439,0.2535095,0.2901917,-0.001953125,0.03515625,0,1,3,0
4914.548,0.001002,-0.0546875,0.1328125,0.01953125,-1.84375,3.960938,11.57812,0.0078125,0.005859375,-0.001953125,0.02148438,0.05859375,0,-0.003417969,-0.009765625,0.1594238,0,0,0.1639404,0.3105164,4.04,0,0,0,0.2999878,nan,2,9.718,1,128,0.3612671,0.3273926,0.2921448,0.261322,-0.001953125,0.03515625,0,1,3,0
4914.558,0.001058,0.00390625,-0.07421875,0.04296875,-1.953125,1.984375,10.86719,0.005859375,-0.01367188,0.02734375,0.02148438,0.05664062,0,-0.003662109,-0.009399414,0.159668,0,0,0.1639404,0.3105164,4.04,0,0,0,0.2999878,nan,2,9.728,1,128,0.3897705,0.3275452,0.3010254,0.2237549,-0.001953125,0.03515625,0,1,3,0
4914.568,0.001003,0.00390625,0.02539062,-0.04882812,1.257812,2.648438,10.35938,0.01367188,-0.005859375,-0.0078125,0.02148438,0.05664062,0,-0.003540039,-0.009521484,0.15979,0,0,0.1639404,0.3105164,4.04,0,0,0,0.2999878,nan,2,9.738,1,128,0.2951965,0.4016418,0.2215881,0.3236694,-0.001953125,0.03515625,0,1,3,0
4914.579,0.001003,-0.05664062,0.09570312,-0.046875,1.648438,-2.90625,7.359375,-0.03125,0.01953125,-0.0390625,0.02148438,0.05664062,0,-0.003662109,-0.009399414,0.1595459,0,0,0.1639404,0.3105164,4.04,0,0,0,0.2999878,nan,2,9.748,1,128,0.3074646,0.3824768,0.224884,0.327301,-0.001953125,0.03515625,0,1,3,0
4914.588,0.001092,-0.001953125,0.09179688,-0.015625,0.28125,-1.976562,6.96875,-0.02148438,0.05078125,-0.00390625,0.0234375,0.0546875,0,-0.00390625,-0.009033203,0.1594238,0,0,0.1639404,0.3105164,4.04,0,0,0,0.2999878,nan,2,9.758,1,128,0.3579407,0.3258667,0.296814,0.2614746,-0.001953125,0.03515625,0,1,3,0
4914.599,0.001011,0.02539062,-0.05664062,-0.03125,1.257812,-2.578125,5.507812,0.01367188,-0.01367188,-0.02929688,0.02539062,0.05273438,0,-0.00402832,-0.008666992,0.1591797,0,0,0.1639404,0.3105164,4.04,0,0,0,0.2999878,nan,2,9.769,1,128,0.3266907,0.387207,0.2454834,0.2827148,-0.001953125,0.03515625,0,1,3,0
4914.609,0.001007,0,0.01953125,-0.01171875,0.8203125,-2.75,7.09375,0.0234375,-0.001953125,-0.02148438,0.0234375,0.05273438,0,-0.00390625,-0.008911133,0.1589355,0,0,0.1639404,0.3105164,4.04,0,0,0,0.2999878,nan,2,9.779,1,128,0.3447571,0.3525696,0.2765198,0.2682495,-0.001953125,0.03515625,0,1,3,0
4914.618,0.001013,0.04296875,-0.04296875,0.0078125,-1.695312,0,9.289062,0.02929688,-0.02929688,0.009765625,0.0234375,0.05273438,0,-0.00378418,-0.008911133,0.1589355,0,0,0.1639404,0.3105164,4.04,0,0,0,0.2999878,nan,2,9.788,1,128,0.3777161,0.3312988,0.2973633,0.2357178,-0.001953125,0.03515625,0,1,3,0.04761905
4914.628,0.001044,0.03320312,-0.015625,-0.03320312,-1.46875,6.25,14.67188,0.0078125,-0.009765625,-0.001953125,0.02148438,0.0546875,0,-0.003540039,-0.009277344,0.1590576,0,0,0.1639404,0.3105164,4.04,0,0,0,0.2999878,nan,2,9.798,1,128,0.3258972,0.3690186,0.2507935,0.2963867,-0.001953125,0.03515625,0,1,3,0
4914.638,0.001009,-0.01367188,0.05859375,0.00390625,-0.7265625,-0.125,12.51562,-0.01953125,0.00390625,-0.01757812,0.02148438,0.05664062,0,-0.003540039,-0.009399414,0.1588135,0,0,0.1639404,0.3105164,4.04,0,0,0,0.2999878,nan,2,9.808,1,128,0.3500366,0.3389282,0.2713013,0.2818298,-0.001953125,0.03515625,0,1,3,0
4914.648,0.001005,-0.1113281,0.02929688,0.00390625,1.757812,-0.6171875,8.921875,-0.07421875,0.01757812,0.009765625,0.02539062,0.05664062,0,-0.00402832,-0.009277344,0.1588135,0,0,0.1639404,0.3105164,4.04,0,0,0,0.2999878,nan,2,9.818,1,128,0.3726196,0.3198853,0.2814941,0.2681274,-0.001953125,0.03613281,0,1,3,0
4914.659,0.000999,-0.06835938,0.03125,-0.03515625,1.351562,-2.421875,4.703125,-0.02929688,0.009765625,-0.02539062,0.02734375,0.0546875,0,-0.004394531,-0.009155273,0.1586914,0,0,0.1639404,0.3105164,4.04,0,0,0,0.2999878,nan,2,9.828,1,128,0.3247681,0.37146,0.2456055,0.3002319,-0.001953125,0.03613281,0,1,3,0
4914.669,0.001138,0.04492188,-0.1074219,-0.02148438,1.679688,-2.359375,6.835938,0.015625,-0.001953125,-0.01757812,0.02734375,0.05273438,0,-0.004516602,-0.008911133,0.1584473,0,0,0.1639404,0.3105164,4.04,0,0,0,0.2999878,nan,2,9.839,1,128,0.3477478,0.3628235,0.2699585,0.2615967,-0.001953125,0.03613281,0,1,3,0
4914.679,0.001017,0.046875,-0.015625,0.02539062,0.5625,-3.65625,9.65625,0.03125,-0.0390625,0.01757812,0.02539062,0.05664062,0,-0.004272461,-0.009277344,0.1584473,0,0,0.1639404,0.3105164,4.04,0,0,0,0.2999878,nan,2,9.848,1,128,0.3811646,0.3251343,0.3026733,0.2331238,-0.001953125,0.03613281,0,1,3,0
4914.689,0.001017,0.0625,0.01953125,0.08789062,-1.023438,0.0546875,5.984375,0.0078125,0.009765625,0.06445312,0.02734375,0.0546875,0,-0.004394531,-0.009277344,0.1588135,0,0,0.1639404,0.3105164,4.04,0,0,0,0.2999878,nan,2,9.859,1,128,0.4185181,0.2778015,0.3547974,0.190979,-0.001953125,0.03613281,0,1,3,0
4914.699,0.001017,0.03710938,0.02148438,0.0703125,-1.804688,2.75,10.60156,0.015625,-0.0078125,0.05859375,0.02539062,0.05664062,0,-0.004150391,-0.009521484,0.1594238,0,0,0.1639404,0.3105164,4.04,0,0,0,0.2999878,nan,2,9.869,1,128,0.3807678,0.3132629,0.3072815,0.2407837,-0.001953125,0.03613281,0,1,3,0
4914.709,0.001017,0.0625,-0.01757812,0.03515625,0.2265625,-1.429688,15.65625,0.01367188,0,0.06445312,0.0234375,0.05664062,0,-0.00390625,-0.009521484,0.1601562,0,0,0.1639404,0.3105164,4.04,0,0,0,0.2999878,nan,2,9.879,1,128,0.3447266,0.3535156,0.2694397,0.2744141,-0.001953125,0.03613281,0,1,3,0
4914.718,0.001,0.1191406,-0.04492188,0.0078125,1.789062,0.3125,8.242188,0.02734375,0.00390625,0.009765625,0.0234375,0.05664062,0,-0.00390625,-0.009399414,0.1605225,0,0,0.1639404,0.3105164,4.04,0,0,0,0.2999878,nan,2,9.888,1,128,0.298645,0.4043274,0.2315063,0.3076477,-0.001953125,0.03613281,0,1,3,0
4914.728,0.001005,-0.07617188,0.015625,-0.02148438,1.257812,-5.4375,9.257812,-0.03125,-0.02148438,-0.02148438,0.0234375,0.05664062,0,-0.00378418,-0.009521484,0.1604004,0,0,0.1639404,0.3105164,4.04,0,0,0,0.2999878,nan,2,9.898,1,128,0.3262939,0.3793335,0.2229919,0.3135071,-0.001953125,0.03613281,0,1,3,0
4914.738,0.001004,-0.01757812,0.05273438,-0.04296875,0.6875,1.21875,10.32031,-0.02148438,0.05078125,-0.02734375,0.02539062,0.0546875,0,-0.004272461,-0.009033203,0.1601562,0,0,0.1639404,0.3105164,4.04,0,0,0,0.2999878,nan,2,9.908,1,128,0.3182373,0.3711853,0.2489929,0.3036804,-0.0009765625,0.03613281,0,1,3,0
4914.748,0.001019,0.03125,0.05664062,-0.015625,-1.953125,-1.210938,10.52344,-0.001953125,0.02148438,-0.02539062,0.02539062,0.05273438,0,-0.004394531,-0.008666992,0.15979,0,0,0.1639404,0.3105164,4.04,0,0,0,0.2999878,nan,2,9.918,1,128,0.3558044,0.3428345,0.2810059,0.2624512,-0.0009765625,0.03613281,0,1,3,0
4914.758,0.001007,-0.09375,0.01757812,-0.04101562,-1.570312,4.164062,8.953125,-0.0234375,0.01757812,-0.03515625,0.02539062,0.05078125,0,-0.004272461,-0.008544922,0.1595459,0,0,0.1639404,0.3105164,4.04,0,0,0,0.2999878,nan,2,9.928,1,128,0.3355713,0.3604431,0.2485962,0.2974854,-0.0009765625,0.03613281,0,1,3,0.4603175
4914.768,0.001007,-0.0390625,0,-0.001953125,-2.148438,-0.2421875,14.02344,-0.03515625,-0.02148438,0.01171875,0.02734375,0.05078125,0,-0.004638672,-0.008666992,0.1595459,0,0,0.1639404,0.3105164,4.04,0,0,0,0.2999878,nan,2,9.938,1,128,0.3861084,0.3210449,0.2910461,0.243927,-0.0009765625,0.03613281,0,1,3,0
4914.779,0.001007,0.05859375,-0.0546875,-0.005859375,-2.132812,5.273438,13.40625,0.01757812,-0.01953125,-0.01757812,0.02929688,0.05078125,0,-0.004882812,-0.008544922,0.1594238,0,0,0.1639404,0.3105164,4.04,0,0,0,0.2999878,nan,2,9.948,1,128,0.3328552,0.3789062,0.2596436,0.2706909,-0.0009765625,0.03613281,0,1,3,0
4914.789,0.001007,-0.04296875,0.01757812,0.03515625,-1.492188,1.820312,10.42969,-0.02734375,0.01953125,0.02539062,0.02929688,0.05078125,0,-0.005004883,-0.008422852,0.1594238,0,0,0.1639404,0.3105164,4.04,0,0,0,0.2999878,nan,2,9.959,1,128,0.3930359,0.3048401,0.3080139,0.2362061,-0.0009765625,0.03613281,0,1,3,0
4914.799,0.001055,0.05078125,-0.001953125,-0.01953125,0.7890625,3.335938,9.46875,0.0078125,0.009765625,-0.009765625,0.03125,0.05078125,0,-0.005126953,-0.008422852,0.1595459,0,0,0.1639404,0.3105164,4.04,0,0,0,0.2999878,nan,2,9.969,1,128,0.3147278,0.381958,0.2458191,0.2995911,-0.0009765625,0.03613281,0,1,3,0.2222222
4914.808,0.001015,0.0703125,-0.09570312,-0.03710938,1.328125,-2.945312,10.95312,0.03125,-0.01367188,-0.03515625,0.03125,0.04882812,0,-0.005126953,-0.008178711,0.1593018,0,0,0.1639404,0.3105164,4.04,0,0,0,0.2999878,nan,2,9.978,1,128,0.3152771,0.3988953,0.2380981,0.2898254,-0.0009765625,0.03613281,0,1,3,0
4914.818,0.001063,0.05273438,-0.06054688,0.01953125,2.726562,0.5234375,6.625,0.02929688,-0.03125,0,0.02929688,0.05078125,0,-0.004882812,-0.008544922,0.1591797,0,0,0.1639404,0.3105164,4.04,0,0,0,0.2999878,nan,2,9.988,1,128,0.3828125,0.3258362,0.3021545,0.2313232,-0.0009765625,0.03613281,0,1,3,0
4914.828,0.000979,-0.05859375,-0.078125,0.03710938,1.6875,-4.820312,6,-0.00390625,-0.001953125,0.04492188,0.02734375,0.05078125,0,-0.004760742,-0.008422852,0.1594238,0,0,0.1639404,0.3105164,4.04,0,0,0,0.2999878,nan,2,9.998,1,128,0.4061584,0.2984619,0.3103943,0.2271118,-0.0009765625,0.03613281,0,1,3,0
4914.838,0.001019,-0.01367188,0.04296875,0.06054688,2.09375,-2.203125,7.804688,0.0078125,0.0078125,0.04882812,0.02734375,0.05078125,0,-0.004638672,-0.008544922,0.1599121,0,0,0.1639404,0.3105164,4.04,0,0,0,0.2999878,nan,2,10.008,1,128,0.3753357,0.3206787,0.3023987,0.2436829,-0.0009765625,0.03613281,0,1,3,0
4914.848,0.001028,-0.001953125,-0.02148438,-0.015625,-0.59375,-1.898438,9.5,-0.009765625,-0.009765625,0.03320312,0.02929688,0.05078125,0,-0.004882812,-0.008422852,0.1604004,0,0,0.1639404,0.3105164,4.04,0,0,0,0.2999878,nan,2,10.018,1,128,0.3302307,0.3759766,0.242218,0.2936707,-0.0009765625,0.03710938,0,1,3,0.5873016
4914.859,0.001069,0.001953125,0.01171875,-0.03515625,-2.078125,1.601562,12.28906,0.01367188,0.005859375,-0.01953125,0.02734375,0.05078125,0,-0.004638672,-0.008422852,0.1604004,0,0,0.1639404,0.3105164,4.04,0,0,0,0.2999878,nan,2,10.028,1,128,0.2978516,0.3987427,0.2192688,0.3262634,-0.0009765625,0.03710938,0,1,3,0
4914.869,0.001078,0.03515625,0.04101562,-0.00390625,-1.578125,5.164062,12.21875,0.07617188,-0.02929688,-0.00390625,0.0234375,0.05273438,0,-0.00390625,-0.008789062,0.1602783,0,0,0.1639404,0.3105164,4.04,0,0,0,0.2999878,nan,2,10.038,1,128,0.3495483,0.3525085,0.2791443,0.2608948,-0.0009765625,0.03710938,0,1,3,0
4914.879,0.001014,-0.0390625,0.04296875,-0.01367188,-1.953125,2.71875,15.88281,-0.01953125,0.015625,-0.01367188,0.0234375,0.05273438,0,-0.00390625,-0.008789062,0.1601562,0,0,0.1639404,0.3105164,4.04,0,0,0,0.2999878,nan,2,10.048,1,128,0.3446655,0.3457031,0.2624817,0.2892456,-0.0009765625,0.03710938,0,1,3,0
4914.889,0.001008,-0.09765625,-0.01367188,-0.05859375,-1.164062,5.132812,13.0625,-0.02734375,-0.005859375,-0.04101562,0.02539062,0.05078125,0,-0.004150391,-0.008666992,0.1599121,0,0,0.1639404,0.3105164,4.04,0,0,0,0.2999878,nan,2,10.059,1,128,0.3168335,0.3911133,0.218689,0.3154602,-0.0009765625,0.03710938,0,1,3,0
4914.899,0.001023,-0.1074219,0.02148438,0.05078125,-1.296875,2.09375,12.04688,-0.08789062,0.02734375,0.01953125,0.02734375,0.05273438,0,-0.004638672,-0.008666992,0.15979,0,0,0.1639404,0.3105164,4.04,0,0,0,0.2999878,nan,2,10.069,1,128,0.4239502,0.2654419,0.3286133,0.2241211,-0.0009765625,0.03710938,0,1,3,0
4914.908,0.001062,0.05664062,-0.109375,0.01367188,-0.7890625,3.5,10.15625,-0.02734375,0.005859375,0.009765625,0.03125,0.05078125,0,-0.005126953,-0.008422852,0.1599121,0,0,0.1639404,0.3105164,4.04,0,0,0,0.2999878,nan,2,10.078,1,128,0.3523254,0.3557129,0.2701416,0.263916,-0.0009765625,0.03710938,0,1,3,0
4914.918,0.001019,-0.05078125,0.02929688,0.01757812,0.9765625,-0.359375,12.33594,-0.005859375,0,0.015625,0.03125,0.05078125,0,-0.005126953,-0.008422852,0.1600342,0,0,0.1639404,0.3105164,4.04,0,0,0,0.2999878,nan,2,10.088,1,128,0.3628845,0.3356628,0.2794495,0.2640991,-0.0009765625,0.03710938,0,1,3,0
4914.928,0.001005,-0.06835938,0.05664062,-0.04296875,2.054688,-0.1015625,6.695312,-0.04882812,0.0234375,-0.01953125,0.03125,0.05078125,0,-0.005126953,-0.008544922,0.1601562,0,0,0.1639404,0.3105164,4.04,0,0,0,0.2999878,nan,2,10.098,1,128,0.2974548,0.3890076,0.2079163,0.3477173,-0.0009765625,0.03710938,0,1,3,0
4914.938,0.001007,-0.02929688,-0.01171875,0.02929688,1.757812,-2.914062,8.796875,-0.03320312,0.02148438,0,0.03320312,0.04882812,0,-0.005493164,-0.008178711,0.1600342,0,0,0.1639404,0.3105164,4.04,0,0,0,0.2999878,nan,2,10.108,1,128,0.3766479,0.3261108,0.2876282,0.251709,-0.0009765625,0.03710938,0,1,3,0.2222222
4914.948,0.001005,0.02929688,-0.0390625,-0.04882812,1.820312,-1.109375,4.84375,0.02148438,0.00390625,-0.02148438,0.03515625,0.046875,0,-0.005737305,-0.00769043,0.1600342,0,0,0.1639404,0.3105164,4.04,0,0,0,0.2999878,nan,2,10.118,1,128,0.3032227,0.4110107,0.2272034,0.3006592,-0.0009765625,0.03710938,0,1,3,0
4914.959,0.001006,-0.03515625,-0.0546875,0.001953125,2.203125,-4.3125,9.0625,0.01367188,0.001953125,-0.009765625,0.03320312,0.04492188,0,-0.005615234,-0.007568359,0.15979,0,0,0.1639404,0.3105164,4.04,0,0,0,0.2999878,nan,2,10.128,1,128,0.3764343,0.3302917,0.2904663,0.2449341,-0.0009765625,0.03710938,0,1,3,0.01587302
4914.968,0.000999,-0.02929688,0.02539062,0,2.15625,-0.0703125,7.40625,0.0078125,-0.01757812,0.02539062,0.03320312,0.046875,0,-0.005493164,-0.00793457,0.1599121,0,0,0.1639404,0.3105164,4.04,0,0,0,0.2999878,nan,2,10.138,1,128,0.3845215,0.3150635,0.2973633,0.2451782,-0.0009765625,0.03710938,0,1,3,0
4914.979,0.001006,-0.04101562,0.01953125,-0.01953125,1.34375,-2.929688,8.8125,-0.001953125,-0.009765625,-0.015625,0.03320312,0.046875,0,-0.005493164,-0.00793457,0.15979,0,0,0.1639404,0.3105164,4.04,0,0,0,0.2999878,nan,2,10.148,1,128,0.3345642,0.3710632,0.2441101,0.2923889,-0.0009765625,0.03710938,0,1,3,0.1111111
4914.989,0.001006,-0.01171875,-0.078125,0.009765625,2.304688,0.6796875,7.6875,-0.02929688,-0.04296875,0.009765625,0.03515625,0.046875,0,-0.005737305,-0.00793457,0.15979,0,0,0.1639404,0.3105164,4.04,0,0,0,0.2999878,nan,2,10.159,1,128,0.3768311,0.3456116,0.2684937,0.2511902,-0.0009765625,0.03710938,0,1,3,0
4914.999,0.001006,-0.0859375,0.046875,0.05273438,1.75,-3.984375,8.382812,-0.01367188,0.01367188,0.02734375,0.03515625,0.046875,0,-0.005859375,-0.00793457,0.1600342,0,0,0.1639404,0.3105164,4.04,0,0,0,0.2999878,nan,2,10.169,1,128,0.3864136,0.3078613,0.3054504,0.2424011,0,0.03710938,0,1,3,0.2380952
4915.009,0.001006,-0.02929688,0.001953125,-0.009765625,2,-0.125,6.914062,-0.0234375,-0.0078125,0.001953125,0.03710938,0.046875,0,-0.006103516,-0.0078125,0.1601562,0,0,0.1639404,0.3105164,4.04,0,0,0,0.2999878,nan,2,10.179,1,128,0.3330383,0.3737183,0.2366638,0.2986755,0,0.03710938,0,1,3,0
4915.019,0.001006,0.0625,-0.001953125,-0.05859375,1.5625,-4.007812,7.75,0.01757812,-0.01171875,-0.04882812,0.03710938,0.046875,0,-0.006103516,-0.00793457,0.15979,0,0,0.1639404,0.3105164,4.04,0,0,0,0.2999878,nan,2,10.189,1,128,0.3001404,0.402771,0.2219849,0.3171997,0,0.03710938,0,1,3,0
4915.028,0.001012,-0.01367188,-0.02734375,0.03125,2.835938,-0.1640625,6.367188,-0.02929688,0.01367188,0.0078125,0.03710938,0.046875,0,-0.006103516,-0.0078125,0.159668,0,0,0.1639404,0.3105164,4.04,0,0,0,0.2999878,nan,2,10.198,1,128,0.4129639,0.2888489,0.3157654,0.2245483,0,0.03710938,0,1,3,0
4915.038,0.001013,-0.05078125,0.01171875,0,2.09375,-3.875,7.601562,-0.08203125,0.04492188,0.00390625,0.0390625,0.04492188,0,-0.006469727,-0.007568359,0.15979,0,0,0.1639404,0.3105164,4.04,0,0,0,0.2999878,nan,2,10.208,1,128,0.3566284,0.3322144,0.2579651,0.2953186,0,0.03710938,0,1,3,0
4915.048,0.000795,0.01953125,-0.02539062,0.01953125,2.429688,1.210938,6.460938,0.01757812,-0.03710938,0.01367188,0.04101562,0.046875,0,-0.006713867,-0.00769043,0.15979,0,0,0.1639404,0.3105164,4.04,0,0,0,0.2999878,nan,2,10.218,1,128,0.3661804,0.3495483,0.2842712,0.2421265,0,0.03710938,0,1,3,0
4915.058,0.001013,-0.03515625,0.07617188,0.02929688,1.476562,-5.320312,8.390625,-0.03710938,0.078125,0.02734375,0.04101562,0.04492188,0,-0.006958008,-0.007324219,0.1601562,0,0,0.1639404,0.3105164,4.04,0,0,0,0.2999878,nan,2,10.228,1,128,0.3614197,0.3145447,0.289093,0.2770386,0,0.03710938,0,1,3,0.4603175
4915.069,0.001052,-0.02539062,-0.04101562,-0.015625,2.210938,0.15625,6.0625,-0.01367188,-0.01757812,-0.015625,0.04296875,0.04296875,0,-0.007080078,-0.007080078,0.1601562,0,0,0.1639404,0.3105164,4.04,0,0,0,0.2999878,nan,2,10.239,1,128,0.3308105,0.38797,0.2268982,0.2964172,0,0.03710938,0,1,3,0
4915.079,0.000954,0.07226562,-0.08398438,-0.02539062,1.710938,-4,9.046875,0.06054688,-0.05664062,-0.03710938,0.04296875,0.04492188,0,-0.006958008,-0.007324219,0.15979,0,0,0.1639404,0.3105164,4.04,0,0,0,0.2999878,nan,2,10.248,1,128,0.3329773,0.3867188,0.2514648,0.2709656,0,0.03808594,0,1,3,0.2857143
4915.089,0.001014,-0.03125,-0.009765625,-0.02734375,2.859375,1.703125,8.703125,-0.02148438,0.0078125,-0.0234375,0.04296875,0.04492188,0,-0.006958008,-0.007446289,0.1594238,0,0,0.1639404,0.3105164,4.04,0,0,0,0.2999878,nan,2,10.259,1,128,0.3656006,0.3300476,0.276001,0.2704468,0,0.03808594,0,1,3,0
4915.099,0.001014,-0.01367188,-0.04882812,-0.03515625,1.539062,-1.046875,11.15625,0.03320312,-0.03320312,-0.02539062,0.04101562,0.046875,0,-0.006835938,-0.00769043,0.1591797,0,0,0.1639404,0.3105164,4.04,0,0,0,0.2999878,nan,2,10.269,1,128,0.348114,0.3618774,0.2628479,0.2692566,0,0.03808594,0,1,3,0
4915.109,0.001014,0.01367188,0.07617188,-0.001953125,1.257812,2.320312,10.25,-0.02734375,0.04101562,-0.009765625,0.04296875,0.04492188,0,-0.007080078,-0.007568359,0.1589355,0,0,0.1639404,0.3105164,4.04,0,0,0,0.2999878,nan,2,10.279,1,128,0.3578491,0.3270264,0.2823181,0.2749329,0,0.03808594,0,1,3,0
4915.119,0.001014,-0.04101562,0.04882812,0.02539062,-0.765625,0.53125,13.60156,0.02148438,-0.00390625,0.015625,0.04296875,0.04492188,0,-0.006958008,-0.007446289,0.1590576,0,0,0.1639404,0.3105164,4.04,0,0,0,0.2999878,nan,2,10.289,1,128,0.381134,0.3242493,0.2973633,0.2393799,0,0.03808594,0,1,3,0
4915.128,0.001006,-0.02539062,0.02539062,-0.0234375,0.9296875,2.976562,9.609375,-0.01757812,0.02148438,-0.00390625,0.04296875,0.04296875,0,-0.007202148,-0.007080078,0.1590576,0,0,0.1639404,0.3105164,4.04,0,0,0,0.2999878,nan,2,10.298,1,128,0.3326111,0.3710327,0.2416992,0.2967529,0,0.03808594,0,1,3,0.07936508
4915.138,0.00101,0.109375,-0.125,-0.0234375,0.6015625,0.109375,11.46094,0.0390625,-0.06445312,-0.02734375,0.04296875,0.04296875,0,-0.007202148,-0.007202148,0.1588135,0,0,0.1639404,0.3105164,4.04,0,0,0,0.2999878,nan,2,10.308,1,128,0.341156,0.3911743,0.2435913,0.2661438,0,0.03808594,0,1,3,0
4915.148,0.001009,0.02539062,-0.0390625,-0.04101562,0.703125,3.382812,11.84375,0.009765625,-0.02539062,-0.0234375,0.04101562,0.04492188,0,-0.006835938,-0.00769043,0.1585693,0,0,0.1639404,0.3105164,4.04,0,0,0,0.2999878,nan,2,10.318,1,128,0.3382263,0.3640747,0.2480164,0.2917786,0,0.03808594,0,1,3,0
4915.158,0.000984,0.078125,-0.0859375,-0.001953125,-0.3359375,0.4140625,13.03906,0.03320312,-0.05078125,0.001953125,0.0390625,0.046875,0,-0.006713867,-0.00793457,0.1584473,0,0,0.1639404,0.3105164,4.04,0,0,0,0.2999878,nan,2,10.328,1,128,0.3781128,0.3414917,0.284668,0.237854,0,0.03808594,0,1,3,0
4915.168,0.001006,-0.01171875,-0.04882812,0.015625,1.054688,3.476562,11.29688,0.009765625,-0.0625,-0.0078125,0.03710938,0.05078125,0,-0.006103516,-0.008544922,0.1584473,0,0,0.1639404,0.3105164,4.04,0,0,0,0.2999878,nan,2,10.338,1,128,0.3714294,0.3400574,0.2651672,0.2654724,0,0.03808594,0,1,3,0
4915.178,0.001006,-0.06445312,0.0078125,0.02734375,0.046875,-0.9921875,12.89844,-0.03515625,-0.02734375,0.0234375,0.03710938,0.05273438,0,-0.006103516,-0.008911133,0.1585693,0,0,0.1639404,0.3105164,4.04,0,0,0,0.2999878,nan,2,10.348,1,128,0.3916321,0.3110352,0.2838135,0.2556152,0,0.03808594,0,1,3,0
4915.189,0.001006,0.02734375,0.0234375,-0.01171875,1.21875,2.757812,9.867188,-0.046875,0.01953125,-0.001953125,0.0390625,0.05273438,0,-0.006469727,-0.008911133,0.1586914,0,0,0.1639404,0.3105164,4.04,0,0,0,0.2999878,nan,2,10.359,1,128,0.3340454,0.3602295,0.2449036,0.3029175,0,0.03808594,0,1,3,0
4915.199,0.001006,-0.05859375,-0.015625,-0.01757812,0.5078125,-3.03125,6.804688,0.009765625,-0.01757812,-0.001953125,0.0390625,0.05273438,0,-0.006591797,-0.008911133,0.1586914,0,0,0.1639404,0.3105164,4.042,0,0,0,0.2999878,nan,2,10.369,1,128,0.3470154,0.3658447,0.2568665,0.2723694,0,0.03808594,0,1,3,0
4915.209,0.001037,0.0234375,-0.05273438,-0.03710938,2.671875,1.8125,7.992188,0.015625,-0.01171875,-0.02929688,0.04101562,0.0546875,0,-0.006713867,-0.009033203,0.1584473,0,0,0.1639404,0.3105164,4.042,0,0,0,0.2999878,nan,2,10.379,1,128,0.3168335,0.3902588,0.2358398,0.2991638,0,0.03808594,0,1,3,0
4915.218,0.000966,0.0546875,-0.0078125,-0.06835938,1.3125,-4.34375,11.03906,0.02148438,-0.01953125,-0.046875,0.04101562,0.05664062,0,-0.006713867,-0.009277344,0.1582031,0,0,0.1639404,0.3105164,4.042,0,0,0,0.2999878,nan,2,10.388,1,128,0.309082,0.3955688,0.2322083,0.3052368,0,0.03808594,0,1,3,0
4915.228,0.000964,-0.1074219,0.1054688,0.03125,2.953125,1.882812,7.695312,-0.03320312,0.05664062,0.0078125,0.0390625,0.05664062,0,-0.006469727,-0.009277344,0.157959,0,0,0.1639404,0.3105164,4.042,0,0,0,0.2999878,nan,2,10.398,1,128,0.403717,0.2741394,0.3166809,0.2475891,0,0.03808594,0,1,3,0
4915.238,0.001008,0.0078125,-0.03710938,0.05859375,1.742188,-4.875,8.359375,0.00390625,0.02539062,0.04296875,0.0390625,0.05273438,0,-0.006713867,-0.008666992,0.1582031,0,0,0.1639404,0.3105164,4.042,0,0,0,0.2999878,nan,2,10.408,1,128,0.4064331,0.306366,0.3148804,0.2144165,0.0009765625,0.03808594,0,1,3,0.5555556
4915.248,0.001012,-0.03320312,-0.00390625,0.04882812,2.171875,-0.8359375,5.96875,-0.00390625,-0.005859375,0.04296875,0.0390625,0.05078125,0,-0.006713867,-0.008666992,0.1586914,0,0,0.1639404,0.3105164,4.042,0,0,0,0.2999878,nan,2,10.418,1,128,0.379425,0.33078,0.2821655,0.2497559,0.0009765625,0.0390625,0,1,3,0
4915.258,0.001012,0.09765625,-0.01953125,-0.01367188,0.0078125,-4.125,10.5625,0.01757812,-0.01953125,0.01757812,0.04101562,0.05273438,0,-0.006713867,-0.008666992,0.1590576,0,0,0.1639404,0.3105164,4.042,0,0,0,0.2999878,nan,2,10.428,1,128,0.3218384,0.3892212,0.2365723,0.2944641,0.0009765625,0.0390625,0,1,3,0
4915.269,0.001081,0.0078125,-0.01953125,-0.01953125,-1.164062,1.875,12.82031,0.03710938,-0.015625,-0.02734375,0.0390625,0.05273438,0,-0.006469727,-0.008789062,0.1588135,0,0,0.1639404,0.3105164,4.042,0,0,0,0.2999878,nan,2,10.438,1,128,0.3205261,0.3865356,0.2369995,0.2980652,0.0009765625,0.0390625,0,1,3,0
4915.278,0.001014,0.06640625,-0.1210938,-0.005859375,-1.648438,1.03125,8.75,0.03710938,-0.05859375,-0.015625,0.03710938,0.0546875,0,-0.006225586,-0.009155273,0.1586914,0,0,0.1639404,0.3105164,4.042,0,0,0,0.2999878,nan,2,10.448,1,128,0.3656311,0.3605347,0.2661743,0.2497864,0.0009765625,0.0390625,0,1,3,0
4915.289,0.001014,-0.01367188,-0.03515625,0.02539062,-1.9375,4.664062,8.539062,-0.015625,0.0078125,-0.0078125,0.03710938,0.0546875,0,-0.006225586,-0.009155273,0.1585693,0,0,0.1639404,0.3105164,4.042,0,0,0,0.2999878,nan,2,10.458,1,128,0.3702698,0.3341675,0.2745972,0.263092,0.0009765625,0.0390625,0,1,3,0.1587302
4915.299,0.001014,0.04101562,-0.005859375,0.00390625,-1.859375,1.757812,13.67188,-0.02539062,-0.001953125,0.005859375,0.0390625,0.0546875,0,-0.006469727,-0.009155273,0.1585693,0,0,0.1639404,0.3105164,4.042,0,0,0,0.2999878,nan,2,10.469,1,128,0.365387,0.3412781,0.2711792,0.2642822,0.0009765625,0.0390625,0,1,3,0
4915.309,0.001014,-0.06835938,0.0859375,-0.009765625,-2.203125,4.578125,14.96875,-0.01757812,0.015625,0.005859375,0.0390625,0.0546875,0,-0.006591797,-0.009033203,0.1586914,0,0,0.1639404,0.3105164,4.042,0,0,0,0.2999878,nan,2,10.479,1,128,0.3553772,0.3409424,0.2659607,0.2798157,0.0009765625,0.0390625,0,1,3,0
4915.319,0.001014,0.03320312,0.05664062,0.0703125,-0.53125,1.914062,9.265625,0.0234375,0.01953125,0.03710938,0.0390625,0.05273438,0,-0.006469727,-0.008789062,0.1588135,0,0,0.1639404,0.3105164,4.042,0,0,0,0.2999878,nan,2,10.489,1,128,0.4052124,0.2968445,0.3263855,0.2136536,0.0009765625,0.0390625,0,1,3,0.04761905
4915.328,0.001006,-0.015625,0.05078125,0.03320312,1.210938,0.125,10.4375,0.01171875,-0.001953125,0.03710938,0.03710938,0.05273438,0,-0.006225586,-0.008789062,0.1591797,0,0,0.1639404,0.3105164,4.042,0,0,0,0.2999878,nan,2,10.498,1,128,0.3744812,0.3310242,0.280365,0.2562256,0.0009765625,0.0390625,0,1,3,0
4915.338,0.001007,0.02148438,-0.03320312,-0.02929688,1.867188,0.7734375,5.4375,0.009765625,-0.01953125,-0.02148438,0.0390625,0.05273438,0,-0.006469727,-0.008789062,0.1591797,0,0,0.1639404,0.3105164,4.042,0,0,0,0.2999878,nan,2,10.508,1,128,0.296051,0.4187622,0.2045898,0.3226624,0.0009765625,0.0390625,0,1,3,0
4915.348,0.001007,0.01757812,0.06835938,-0.03320312,1.84375,-1.8125,10.24219,0.03320312,0.02734375,-0.04101562,0.03710938,0.05273438,0,-0.006225586,-0.008789062,0.1588135,0,0,0.1639404,0.3105164,4.042,0,0,0,0.2999878,nan,2,10.518,1,128,0.3251343,0.3659058,0.2600708,0.2909851,0.0009765625,0.0390625,0,1,3,0
4915.358,0.001007,0.1191406,0.01367188,-0.03515625,0.984375,-0.2734375,6.148438,0.01953125,-0.005859375,-0.04296875,0.0390625,0.05078125,0,-0.006713867,-0.008544922,0.1583252,0,0,0.1639404,0.3105164,4.042,0,0,0,0.2999878,nan,2,10.528,1,128,0.3334961,0.3818665,0.2567139,0.2700195,0.0009765625,0.0390625,0,1,3,0
4915.369,0.001068,0.05664062,-0.005859375,0.01757812,3.054688,-1.34375,9.335938,0.005859375,-0.009765625,-0.009765625,0.0390625,0.05078125,0,-0.006591797,-0.008422852,0.1580811,0,0,0.1639404,0.3105164,4.042,0,0,0,0.2999878,nan,2,10.538,1,128,0.3958435,0.3180847,0.3014221,0.2267456,0.0009765625,0.0390625,0,1,3,0.7619048
4915.379,0.000984,0.05859375,0.01953125,0.015625,1,-2.585938,4.273438,0.03710938,0.00390625,0.03125,0.0390625,0.05078125,0,-0.006591797,-0.008544922,0.1582031,0,0,0.1639404,0.3105164,4.042,0,0,0,0.2999878,nan,2,10.548,1,128,0.387146,0.3157043,0.3152161,0.2240601,0.0009765625,0.0390625,0,1,3,0
4915.389,0.001006,0.01757812,0.01171875,0.01171875,2.085938,-2.367188,9.4375,0.005859375,0.0078125,0.015625,0.03710938,0.05078125,0,-0.006347656,-0.008544922,0.1584473,0,0,0.1639404,0.3105164,4.042,0,0,0,0.2999878,nan,2,10.558,1,128,0.35672,0.3473816,0.2622375,0.2757568,0.0009765625,0.0390625,0,1,3,0.4920635
4915.399,0.000981,-0.02929688,-0.00390625,-0.01171875,1.367188,-0.6640625,6.101562,-0.01171875,-0.0078125,0.01171875,0.03710938,0.05078125,0,-0.006225586,-0.008544922,0.1586914,0,0,0.1639404,0.3105164,4.042,0,0,0,0.2999878,nan,2,10.569,1,128,0.3471985,0.3620605,0.2446289,0.288208,0.0009765625,0.0390625,0,1,3,0
4915.408,0.00101,-0.01171875,0.009765625,-0.01953125,0.890625,-4.492188,8.945312,-0.01367188,0.01171875,-0.02148438,0.03710938,0.05078125,0,-0.006225586,-0.008544922,0.1585693,0,0,0.1639404,0.3105164,4.042,0,0,0,0.2999878,nan,2,10.578,1,128,0.3255005,0.3764038,0.2320862,0.3081055,0.0009765625,0.0390625,0,1,3,0.3809524
4915.418,0.001043,-0.005859375,-0.07617188,-0.01171875,0.4296875,-1.867188,7.65625,-0.0078125,-0.02929688,-0.0234375,0.0390625,0.04882812,0,-0.006591797,-0.008178711,0.1583252,0,0,0.1639404,0.3105164,4.042,0,0,0,0.2999878,nan,2,10.588,1,128,0.3597717,0.370636,0.2484436,0.2632446,0.0009765625,0.0390625,0,1,3,0
4915.428,0.001014,0.0078125,-0.04296875,-0.009765625,0.8515625,-5.054688,9.125,-0.03515625,-0.01367188,-0.015625,0.04101562,0.05078125,0,-0.006713867,-0.008422852,0.1580811,0,0,0.1639404,0.3105164,4.042,0,0,0,0.2999878,nan,2,10.598,1,128,0.3624573,0.3471069,0.258606,0.2739258,0.0009765625,0.0390625,0,1,3,0
4915.438,0.001005,0.125,-0.1445312,-0.01953125,1.054688,-2.953125,9.195312,0.015625,-0.06835938,-0.01757812,0.04296875,0.05273438,0,-0.007202148,-0.008666992,0.157959,0,0,0.1639404,0.3105164,4.042,0,0,0,0.2999878,nan,2,10.608,1,128,0.3505859,0.3811646,0.2536011,0.2567444,0.0009765625,0.04003906,0,1,3,0.6190476
4915.448,0.001006,-0.01367188,0.04101562,-0.00390625,0.7578125,-3.90625,9.578125,0.0078125,0.0078125,-0.02148438,0.04101562,0.0546875,0,-0.006713867,-0.009155273,0.1577148,0,0,0.1639404,0.3105164,4.042,0,0,0,0.2999878,nan,2,10.618,1,128,0.3598938,0.3276978,0.2796631,0.2748413,0.0009765625,0.04003906,0,1,3,0
4915.458,0.001014,-0.01953125,0.06054688,0.05078125,0.90625,-0.359375,7.875,-0.05273438,0.03710938,0.046875,0.04101562,0.0546875,0,-0.006958008,-0.008911133,0.1578369,0,0,0.1639404,0.3105164,4.042,0,0,0,0.2999878,nan,2,10.628,1,128,0.4252319,0.2692566,0.3250427,0.2225647,0.0009765625,0.04003906,0,1,3,0
4915.469,0.00101,-0.05859375,0.01171875,-0.001953125,-0.1640625,-3.671875,8.992188,-0.04101562,0.0234375,-0.009765625,0.04296875,0.05273438,0,-0.007080078,-0.008789062,0.157959,0,0,0.1639404,0.3105164,4.042,0,0,0,0.2999878,nan,2,10.638,1,128,0.340271,0.3617249,0.2380066,0.3020935,0.0009765625,0.04003906,0,1,3,0.2539683
4915.479,0.001014,-0.07421875,0.05078125,0.0390625,-1.304688,1.304688,10.49219,-0.05078125,0.02148438,0.009765625,0.04492188,0.05273438,0,-0.007446289,-0.008666992,0.1578369,0,0,0.1639404,0.3105164,4.042,0,0,0,0.2999878,nan,2,10.648,1,128,0.3999634,0.2980652,0.2950134,0.249054,0.001953125,0.04003906,0,1,3,0
4915.489,0.000971,-0.05859375,0.0390625,-0.05859375,-2.390625,0.640625,11.69531,-0.015625,0.009765625,-0.01757812,0.04492188,0.05273438,0,-0.007446289,-0.008666992,0.157959,0,0,0.1639404,0.3105164,4.042,0,0,0,0.2999878,nan,2,10.659,1,128,0.3052368,0.3931885,0.2106018,0.3330994,0.001953125,0.04003906,0,1,3,0
4915.499,0.001014,-0.05078125,0.04296875,-0.0234375,-1.75,3.898438,11.61719,-0.03320312,0.01757812,-0.02539062,0.04492188,0.05273438,0,-0.007446289,-0.008789062,0.1577148,0,0,0.1639404,0.3105164,4.042,0,0,0,0.2999878,nan,2,10.669,1,128,0.349884,0.3462524,0.2511902,0.2947998,0.001953125,0.04003906,0,1,3,0
4915.509,0.001014,0.005859375,0.1035156,-0.02734375,-2.859375,1.984375,12.89844,-0.03125,0.09179688,-0.02734375,0.046875,0.04882812,0,-0.00793457,-0.008056641,0.1574707,0,0,0.1639404,0.3105164,4.042,0,0,0,0.2999878,nan,2,10.679,1,128,0.3342285,0.3502197,0.2609863,0.2966919,0.001953125,0.04003906,0,1,3,0
4915.519,0.001014,0.1503906,-0.1035156,0.04101562,-3.242188,5.078125,12.8125,0.04882812,-0.01367188,-0.001953125,0.046875,0.04492188,0,-0.00793457,-0.007568359,0.1572266,0,0,0.1639404,0.3105164,4.042,0,0,0,0.2999878,nan,2,10.689,1,128,0.3972168,0.3349609,0.3036194,0.2062988,0.001953125,0.04003906,0,1,3,0
4915.528,0.001003,0.078125,0.02148438,0,-2.195312,4.710938,13.875,0.03710938,-0.005859375,0.01757812,0.04492188,0.046875,0,-0.007568359,-0.00793457,0.1573486,0,0,0.1639404,0.3105164,4.042,0,0,0,0.2999878,nan,2,10.698,1,128,0.3636169,0.3374634,0.282074,0.2589722,0.001953125,0.04003906,0,1,3,0
4915.538,0.001005,-0.06054688,0.07226562,0.04296875,-1.992188,5.257812,15.25781,-0.001953125,0.01757812,0.02734375,0.04492188,0.046875,0,-0.007446289,-0.00793457,0.1575928,0,0,0.1639404,0.3105164,4.042,0,0,0,0.2999878,nan,2,10.708,1,128,0.3845215,0.3121338,0.2902832,0.2551575,0.001953125,0.04003906,0,1,3,0
4915.548,0.001002,0.078125,-0.02539062,0.046875,-0.7421875,0.6953125,15.01562,0.01757812,-0.01171875,0.05273438,0.04492188,0.04882812,0,-0.007568359,-0.008056641,0.1580811,0,0,0.1639404,0.3105164,4.042,0,0,0,0.2999878,nan,2,10.718,1,128,0.3657227,0.3432007,0.2793274,0.2538757,0.001953125,0.04003906,0,1,3,0
4915.558,0.001002,-0.01367188,0.01953125,-0.0078125,2.015625,1.945312,7.453125,-0.0234375,0.009765625,0.009765625,0.04492188,0.04882812,0,-0.007568359,-0.008056641,0.1583252,0,0,0.1639404,0.3105164,4.042,0,0,0,0.2999878,nan,2,10.728,1,128,0.3292236,0.3725281,0.231842,0.3085327,0.001953125,0.04003906,0,1,3,0
4915.568,0.001003,0.05664062,-0.0546875,0,1.21875,-4.320312,7.296875,0.015625,-0.02734375,0.00390625,0.04492188,0.04882812,0,-0.007568359,-0.008056641,0.1584473,0,0,0.1639404,0.3105164,4.042,0,0,0,0.2999878,nan,2,10.738,1,128,0.3565674,0.3622437,0.2580261,0.2652893,0.001953125,0.04003906,0,1,3,0
4915.578,0.001003,-0.1171875,0.1210938,-0.01367188,2.476562,0.796875,5.960938,-0.0234375,-0.001953125,-0.0078125,0.04296875,0.05078125,0,-0.007324219,-0.008422852,0.1583252,0,0,0.1639404,0.3105164,4.042,0,0,0,0.2999878,nan,2,10.748,1,128,0.3492432,0.3458557,0.2436829,0.3032837,0.001953125,0.04003906,0,1,3,0
4915.589,0.001003,-0.03320312,0.1074219,-0.07226562,1.304688,-4.617188,11.02344,-0.04101562,0.05273438,-0.0703125,0.046875,0.04882812,0,-0.00769043,-0.008056641,0.157959,0,0,0.1639404,0.3105164,4.042,0,0,0,0.2999878,nan,2,10.758,1,128,0.2861328,0.4030457,0.2009583,0.3519592,0.001953125,0.04003906,0,1,3,0
4915.599,0.001053,-0.0625,-0.03515625,-0.03515625,3.070312,-0.2890625,6.84375,-0.03125,-0.009765625,-0.02539062,0.046875,0.046875,0,-0.00793457,-0.00769043,0.1574707,0,0,0.1639404,0.3105164,4.042,0,0,0,0.2999878,nan,2,10.769,1,128,0.3846436,0.3345642,0.2697449,0.2531433,0.001953125,0.04003906,0,1,3,0
4915.609,0.001003,-0.1269531,0.05078125,-0.02734375,1.859375,-3.492188,9.46875,-0.0703125,0.0625,-0.02148438,0.04882812,0.04492188,0,-0.008056641,-0.007324219,0.1572266,0,0,0.1639404,0.3105164,4.042,0,0,0,0.2999878,nan,2,10.779,1,128,0.3681946,0.3218689,0.2564087,0.2956238,0.001953125,0.04003906,0,1,3,0.06349207
4915.619,0.001003,0.04492188,-0.015625,0.015625,1.8125,0.2890625,6.765625,-0.02539062,0.03710938,0.02148438,0.05078125,0.04101562,0,-0.008666992,-0.006835938,0.1573486,0,0,0.1639404,0.3105164,4.042,0,0,0,0.2999878,nan,2,10.789,1,128,0.3845215,0.3238525,0.2940979,0.2396545,0.001953125,0.04003906,0,1,3,0
4915.628,0.001057,0.0625,-0.005859375,0.0859375,1.296875,-5.101562,12.6875,-0.01757812,0.0078125,0.03515625,0.05273438,0.04101562,0,-0.008911133,-0.006713867,0.1574707,0,0,0.1639404,0.3105164,4.042,0,0,0,0.2999878,nan,2,10.798,1,128,0.4054565,0.304657,0.3113708,0.2206421,0.001953125,0.04003906,0,1,3,0
4915.638,0.001062,-0.01953125,0.05273438,0.07421875,0.71875,-1.125,7.671875,0.0078125,0.01757812,0.05664062,0.05273438,0.04101562,0,-0.008911133,-0.006713867,0.157959,0,0,0.1639404,0.3105164,4.042,0,0,0,0.2999878,nan,2,10.808,1,128,0.3949585,0.3036499,0.3082275,0.23526,0.001953125,0.04003906,0,1,3,0
4915.648,0.001036,-0.04882812,0.01953125,-0.005859375,-1.054688,-4.210938,10.90625,-0.02148438,0.01367188,0.0234375,0.05273438,0.0390625,0,-0.008911133,-0.006591797,0.1584473,0,0,0.1639404,0.3105164,4.042,0,0,0,0.2999878,nan,2,10.818,1,128,0.3296814,0.3736877,0.2281494,0.3106079,0.002929688,0.04003906,0,1,3,0
4915.658,0.001014,0.02929688,0,0.005859375,-1.695312,3.992188,12.63281,0.005859375,0.005859375,0.0078125,0.05273438,0.0390625,0,-0.008911133,-0.006591797,0.1584473,0,0,0.1639404,0.3105164,4.042,0,0,0,0.2999878,nan,2,10.828,1,128,0.3492432,0.353363,0.2573853,0.2821045,0.002929688,0.04003906,0,1,3,0
4915.668,0.001014,-0.02929688,0.05078125,-0.02148438,-1.992188,1.21875,9.296875,-0.02734375,0.03710938,-0.01367188,0.05273438,0.0390625,0,-0.008666992,-0.006591797,0.1584473,0,0,0.1639404,0.3105164,4.042,0,0,0,0.2999878,nan,2,10.838,1,128,0.3372803,0.3525391,0.2398376,0.312439,0.002929688,0.04003906,0,1,3,0.2698413
4915.678,0.001002,0.109375,-0.0703125,-0.05273438,-1.664062,6.820312,15.25781,0.046875,0,-0.02539062,0.05078125,0.0390625,0,-0.008666992,-0.006591797,0.1582031,0,0,0.1639404,0.3105164,4.042,0,0,0,0.2999878,nan,2,10.848,1,128,0.3353271,0.3754578,0.2532959,0.2780151,0.002929688,0.04003906,0,1,3,0
4915.689,0.001014,-0.03710938,-0.01953125,-0.02929688,-2.367188,1.484375,13.71094,0.04101562,-0.05664062,-0.02929688,0.046875,0.04296875,0,-0.0078125,-0.007080078,0.1578369,0,0,0.1639404,0.3105164,4.042,0,0,0,0.2999878,nan,2,10.858,1,128,0.3632812,0.3529663,0.2493896,0.2764587,0.002929688,0.04101562,0,1,3,0
4915.699,0.001014,0.09570312,-0.03515625,-0.05664062,-1.421875,6.289062,12.38281,0.0546875,-0.05273438,-0.046875,0.04296875,0.046875,0,-0.007324219,-0.00769043,0.1574707,0,0,0.1639404,0.3105164,4.042,0,0,0,0.2999878,nan,2,10.869,1,128,0.329895,0.3812256,0.238739,0.2922363,0.002929688,0.04101562,0,1,3,0
4915.709,0.001014,-0.0859375,-0.005859375,0.02734375,-2.273438,1.726562,12.59375,-0.05859375,-0.01367188,0.01953125,0.04296875,0.046875,0,-0.007080078,-0.00793457,0.1573486,0,0,0.1639404,0.3105164,4.042,0,0,0,0.2999878,nan,2,10.879,1,128,0.4307556,0.2747192,0.302002,0.2346497,0.002929688,0.04101562,0,1,3,0
4915.719,0.001021,-0.0234375,-0.02539062,0,-2.007812,6.90625,15.48438,0.0390625,-0.03320312,-0.0078125,0.04296875,0.04882812,0,-0.007202148,-0.008056641,0.1574707,0,0,0.1639404,0.3105164,4.042,0,0,0,0.2999878,nan,2,10.889,1,128,0.332489,0.3867798,0.2409973,0.2818298,0.002929688,0.04101562,0,1,3,0
4915.728,0.001006,-0.07617188,0.08398438,0.001953125,-1.0625,0.9140625,13.22656,-0.01953125,-0.009765625,0.009765625,0.04296875,0.04882812,0,-0.007080078,-0.008300781,0.1575928,0,0,0.1639404,0.3105164,4.042,0,0,0,0.2999878,nan,2,10.898,1,128,0.3677673,0.3361816,0.2563171,0.2818604,0.002929688,0.04101562,0,1,3,0
4915.738,0.001008,-0.06640625,0.1210938,0,-0.046875,4.507812,13.75781,-0.02148438,0.03125,-0.005859375,0.04296875,0.04882812,0,-0.007080078,-0.008300781,0.1575928,0,0,0.1639404,0.3105164,4.042,0,0,0,0.2999878,nan,2,10.908,1,128,0.3488464,0.3414307,0.2581787,0.2936096,0.002929688,0.04101562,0,1,3,0
4915.748,0.00101,-0.04882812,0.07617188,0.005859375,-0.609375,-0.1796875,10.19531,-0.02539062,0.01367188,0.0078125,0.04296875,0.04882812,0,-0.007202148,-0.008178711,0.1574707,0,0,0.1639404,0.3105164,4.042,0,0,0,0.2999878,nan,2,10.918,1,128,0.3782654,0.3218689,0.2773438,0.2646179,0.002929688,0.04101562,0,1,3,0.1269841
4915.758,0.001009,-0.1015625,-0.02148438,-0.04882812,1.96875,2.859375,9.546875,-0.03515625,-0.0078125,-0.02734375,0.04492188,0.04882812,0,-0.007568359,-0.008178711,0.1574707,0,0,0.1639404,0.3105164,4.042,0,0,0,0.2999878,nan,2,10.928,1,128,0.3202209,0.3930664,0.2091675,0.3196716,0.002929688,0.04101562,0,1,3,0
4915.768,0.001006,0.01367188,0,0.05078125,1.492188,-2.84375,7.125,-0.02929688,0.03320312,0,0.046875,0.046875,0,-0.00793457,-0.00793457,0.1572266,0,0,0.1639404,0.3105164,4.042,0,0,0,0.2999878,nan,2,10.938,1,128,0.3960571,0.3061218,0.3010559,0.2388916,0.002929688,0.04101562,0,1,3,0
4915.778,0.001054,-0.09960938,0.04101562,-0.001953125,1.554688,0.8984375,8.234375,-0.001953125,-0.03125,0.005859375,0.046875,0.04882812,0,-0.00793457,-0.008178711,0.1573486,0,0,0.1639404,0.3105164,4.042,0,0,0,0.2999878,nan,2,10.948,1,128,0.3548279,0.3609009,0.248291,0.2780762,0.002929688,0.04101562,0,1,3,0
4915.789,0.0009869999,0.001953125,0.03320312,0.06445312,0.671875,-1.734375,9.171875,0.00390625,0.02734375,0.05273438,0.046875,0.04882812,0,-0.0078125,-0.008300781,0.1575928,0,0,0.1639404,0.3105164,4.042,0,0,0,0.2999878,nan,2,10.958,1,128,0.423645,0.2687988,0.3346863,0.2149963,0.002929688,0.04101562,0,1,3,0.07936508
4915.799,0.000985,0.001953125,0.02148438,0.001953125,2.203125,1.695312,9.507812,-0.01171875,0.01757812,0.03710938,0.04882812,0.04882812,0,-0.00793457,-0.008178711,0.1580811,0,0,0.1639404,0.3105164,4.042,0,0,0,0.2999878,nan,2,10.969,1,128,0.3441772,0.3577576,0.2528076,0.287384,0.002929688,0.04101562,0,1,3,0.1587302
4915.809,0.000974,0.0859375,0.04492188,0.02929688,1.664062,-1.304688,7.351562,0.02929688,0.03710938,0.01171875,0.046875,0.04882812,0,-0.00793457,-0.008178711,0.1582031,0,0,0.1639404,0.3105164,4.042,0,0,0,0.2999878,nan,2,10.979,1,128,0.3439331,0.3500671,0.2749023,0.2732239,0.002929688,0.04101562,0,1,3,0
4915.818,0.000901,-0.1484375,-0.0234375,-0.0078125,2.109375,0.40625,11.28125,-0.0546875,0.00390625,0.005859375,0.04882812,0.046875,0,-0.008056641,-0.00793457,0.1583252,0,0,0.1639404,0.3105164,4.042,0,0,0,0.2999878,nan,2,10.988,1,128,0.3627319,0.3540649,0.2288208,0.2964783,0.002929688,0.04101562,0,1,3,0
4915.828,0.0009,-0.02539062,0.0859375,-0.03125,1.164062,0.4921875,7.359375,-0.015625,0.00390625,-0.03710938,0.05078125,0.046875,0,-0.008422852,-0.00793457,0.1582031,0,0,0.1639404,0.3105164,4.042,0,0,0,0.2999878,nan,2,10.998,1,128,0.3161621,0.3891602,0.2231445,0.3136292,0.002929688,0.04101562,0,1,3,0
4915.838,0.001019,-0.02734375,-0.03710938,-0.04101562,0.6875,2.328125,12.29688,-0.0234375,-0.00390625,-0.04296875,0.05078125,0.046875,0,-0.008544922,-0.00769043,0.1577148,0,0,0.1639404,0.3105164,4.042,0,0,0,0.2999878,nan,2,11.008,1,128,0.3519592,0.3658447,0.2366638,0.2876587,0.002929688,0.04101562,0,1,3,0
4915.848,0.001023,-0.08398438,0.08789062,-0.01367188,-2.117188,2.945312,12.6875,0.01171875,0.015625,-0.02929688,0.04882812,0.046875,0,-0.008300781,-0.0078125,0.1573486,0,0,0.1639404,0.3105164,4.041,0,0,0,0.2999878,nan,2,11.018,1,128,0.3666382,0.3298035,0.2715759,0.2740784,0.002929688,0.04101562,0,1,3,0
4915.858,0.001009,0.1464844,-0.05273438,-0.015625,-2.015625,7.15625,15.64062,0.06054688,-0.02929688,-0.005859375,0.04882812,0.04882812,0,-0.008056641,-0.008178711,0.1573486,0,0,0.1639404,0.3105164,4.041,0,0,0,0.2999878,nan,2,11.028,1,128,0.3484802,0.3655396,0.265564,0.2625427,0.002929688,0.04199219,0,1,3,0
4915.868,0.001014,-0.1347656,0.0234375,0.04101562,-1.992188,1.367188,12.21875,-0.01757812,0.00390625,0.02148438,0.04492188,0.05078125,0,-0.007568359,-0.008422852,0.1573486,0,0,0.1639404,0.3105164,4.041,0,0,0,0.2999878,nan,2,11.038,1,128,0.414978,0.2823486,0.3010559,0.2437134,0.002929688,0.04199219,0,1,3,0
4915.878,0.001014,-0.046875,0.0234375,0.03515625,-2.46875,6.109375,12.99219,0.01367188,0.02539062,0.0390625,0.04492188,0.04882812,0,-0.00769043,-0.008178711,0.1575928,0,0,0.1639404,0.3105164,4.041,0,0,0,0.2999878,nan,2,11.048,1,128,0.3897705,0.3143616,0.2980957,0.2398682,0.002929688,0.04199219,0,1,3,0
4915.889,0.001014,0.03515625,-0.04492188,0.00390625,-2.5,2.804688,11.4375,0.02148438,0.001953125,0.01757812,0.046875,0.046875,0,-0.00769043,-0.00769043,0.157959,0,0,0.1639404,0.3105164,4.041,0,0,0,0.2999878,nan,2,11.058,1,128,0.3403625,0.3848572,0.2341919,0.2827148,0.00390625,0.04199219,0,1,3,0
4915.899,0.001014,-0.09960938,0.01953125,-0.03320312,-1.414062,3.992188,14.46094,-0.02734375,0.02539062,0.00390625,0.04492188,0.046875,0,-0.00769043,-0.00769043,0.1580811,0,0,0.1639404,0.3105164,4.041,0,0,0,0.2999878,nan,2,11.069,1,128,0.3348389,0.3671265,0.2252808,0.3148499,0.00390625,0.04199219,0,1,3,0
4915.909,0.001014,-0.06445312,0.078125,-0.001953125,-2.820312,5.257812,13.16406,-0.04101562,0.05859375,-0.01367188,0.046875,0.04492188,0,-0.0078125,-0.007324219,0.1578369,0,0,0.1639404,0.3105164,4.041,0,0,0,0.2999878,nan,2,11.079,1,128,0.3622742,0.3299255,0.2621155,0.2878113,0.00390625,0.04199219,0,1,3,0
4915.919,0.001014,0.0390625,-0.01953125,-0.02929688,-2.71875,4.226562,10.96875,-0.0078125,0.01953125,-0.03320312,0.046875,0.04296875,0,-0.00793457,-0.007080078,0.1577148,0,0,0.1639404,0.3105164,4.041,0,0,0,0.2999878,nan,2,11.089,1,128,0.3276672,0.3868408,0.2249451,0.3026428,0.00390625,0.04199219,0,1,3,0
4915.929,0.001014,-0.02539062,-0.01953125,0.03320312,-1.90625,0.6640625,9.445312,0.01171875,-0.015625,-0.001953125,0.046875,0.04296875,0,-0.00769043,-0.007080078,0.1574707,0,0,0.1639404,0.3105164,4.041,0,0,0,0.2999878,nan,2,11.099,1,128,0.4039917,0.3122864,0.2938843,0.2319336,0.00390625,0.04199219,0,1,3,0.1269841
4915.938,0.001004,-0.01367188,0.03515625,0.08007812,-2.523438,1.570312,9.828125,0.03710938,0.02929688,0.05664062,0.04492188,0.04101562,0,-0.007568359,-0.006958008,0.1577148,0,0,0.1639404,0.3105164,4.041,0,0,0,0.2999878,nan,2,11.108,1,128,0.430542,0.2698364,0.348053,0.1936951,0.00390625,0.04199219,0,1,3,0
4915.948,0.001003,-0.03320312,0.03320312,0.03710938,-2.679688,2.53125,11.44531,-0.0078125,0.009765625,0.04296875,0.04492188,0.04101562,0,-0.007446289,-0.006835938,0.1583252,0,0,0.1639404,0.3105164,4.041,0,0,0,0.2999878,nan,2,11.118,1,128,0.3629456,0.3425293,0.2553406,0.2812805,0.00390625,0.04199219,0,1,3,0
4915.958,0.001007,-0.01367188,0.06640625,0.001953125,-2.171875,2.390625,15.47656,-0.01171875,0.02734375,0.03125,0.04492188,0.04101562,0,-0.007568359,-0.006713867,0.1586914,0,0,0.1639404,0.3105164,4.041,0,0,0,0.2999878,nan,2,11.128,1,128,0.3404846,0.3581848,0.2457886,0.2976379,0.00390625,0.04199219,0,1,3,0
4915.969,0.000938,-0.0234375,0.04296875,-0.05859375,-1.578125,5.398438,12.23438,-0.001953125,0.00390625,-0.02929688,0.04492188,0.04101562,0,-0.007446289,-0.006713867,0.1586914,0,0,0.1639404,0.3105164,4.041,0,0,0,0.2999878,nan,2,11.138,1,128,0.2922058,0.4147339,0.1899719,0.3451843,0.00390625,0.04199219,0,1,3,0
4915.979,0.000998,0.0703125,-0.06054688,-0.00390625,-1.28125,3.085938,13.08594,0.07421875,-0.07617188,-0.01953125,0.04296875,0.04296875,0,-0.006958008,-0.007202148,0.1583252,0,0,0.1639404,0.3105164,4.041,0,0,0,0.2999878,nan,2,11.148,1,128,0.3740845,0.3561401,0.2733459,0.2385559,0.00390625,0.04199219,0,1,3,0
4915.989,0.001042,0.08203125,0.02929688,-0.01757812,-1.9375,5.359375,12.5625,0.02539062,0.00390625,-0.046875,0.04101562,0.04492188,0,-0.006958008,-0.007446289,0.157959,0,0,0.1639404,0.3105164,4.041,0,0,0,0.2999878,nan,2,11.158,1,128,0.3268738,0.3732605,0.2450256,0.2969666,0.00390625,0.04199219,0,1,3,0
4915.999,0.00098,-0.07421875,0.03320312,-0.05273438,-2.203125,3.085938,16.70312,-0.015625,-0.00390625,-0.03125,0.04101562,0.04492188,0,-0.006835938,-0.007446289,0.1577148,0,0,0.1639404,0.3105164,4.041,0,0,0,0.2999878,nan,2,11.169,1,128,0.3509521,0.3584595,0.2398987,0.2928162,0.00390625,0.04199219,0,1,3,0
4916.008,0.001022,-0.03320312,0.02539062,-0.02148438,-1.703125,2.65625,10.89062,-0.05078125,0.02929688,-0.02734375,0.04296875,0.04492188,0,-0.006958008,-0.007446289,0.1573486,0,0,0.1639404,0.3105164,4.041,0,0,0,0.2999878,nan,2,11.178,1,128,0.3785095,0.3187256,0.2703857,0.2745056,0.00390625,0.04199219,0,1,3,0
4916.018,0.001034,0.07421875,0.0390625,0.03515625,-2.101562,4.226562,13.07031,0.015625,0.02929688,0.015625,0.04296875,0.04296875,0,-0.007202148,-0.007080078,0.1572266,0,0,0.1639404,0.3105164,4.041,0,0,0,0.2999878,nan,2,11.188,1,128,0.3961182,0.3096619,0.3138733,0.2224731,0.00390625,0.04199219,0,1,3,0
4916.028,0.001015,-0.015625,-0.03320312,0.02148438,-2.15625,3.5,11.92969,0.02539062,-0.02148438,0.04101562,0.0390625,0.04296875,0,-0.006469727,-0.007202148,0.1575928,0,0,0.1639404,0.3105164,4.041,0,0,0,0.2999878,nan,2,11.198,1,128,0.3885193,0.3278198,0.2727966,0.2529602,0.00390625,0.04199219,0,1,3,0
4916.038,0.001035,0.005859375,0.005859375,0.02734375,-1.171875,2.515625,13.71875,0.01367188,-0.01367188,0.03320312,0.03710938,0.04492188,0,-0.006225586,-0.007446289,0.157959,0,0,0.1639404,0.3105164,4.041,0,0,0,0.2999878,nan,2,11.208,1,128,0.3712463,0.340271,0.2653198,0.2652588,0.00390625,0.04199219,0,1,3,0
4916.048,0.001053,-0.1210938,0.08203125,0,-0.5625,4.09375,8.585938,-0.03125,0.04492188,-0.009765625,0.03710938,0.04492188,0,-0.006225586,-0.007324219,0.1580811,0,0,0.1639404,0.3105164,4.041,0,0,0,0.2999878,nan,2,11.218,1,128,0.3263855,0.3625488,0.2273254,0.3258362,0.00390625,0.04199219,0,1,3,0
4916.058,0.000998,-0.0390625,0.009765625,-0.005859375,1.234375,-0.9453125,11.11719,-0.00390625,-0.02539062,-0.0078125,0.03710938,0.04492188,0,-0.006347656,-0.007324219,0.157959,0,0,0.1639404,0.3105164,4.041,0,0,0,0.2999878,nan,2,11.228,1,128,0.3649902,0.3558655,0.2514038,0.2698669,0.00390625,0.04199219,0,1,3,0
4916.068,0.001014,-0.02734375,-0.09960938,-0.06835938,0.890625,1.648438,10.09375,-0.01367188,-0.03125,-0.05664062,0.03710938,0.04492188,0,-0.006347656,-0.007446289,0.1577148,0,0,0.1639404,0.3105164,4.041,0,0,0,0.2999878,nan,2,11.238,1,128,0.3053589,0.420105,0.1820984,0.3345337,0.00390625,0.04199219,0,1,3,0.01587302
4916.079,0.001014,-0.02539062,0.06835938,0.01953125,1.125,0.734375,9.484375,-0.02734375,-0.005859375,-0.02929688,0.0390625,0.04492188,0,-0.006591797,-0.007568359,0.1571045,0,0,0.1639404,0.3105164,4.041,0,0,0,0.2999878,nan,2,11.248,1,128,0.3961487,0.3085022,0.2945862,0.2428589,0.00390625,0.04199219,0,1,3,0.3492064
4916.089,0.001014,-0.08203125,0.02929688,0,0.71875,1.179688,6.671875,-0.04296875,0.03710938,0.005859375,0.04101562,0.04492188,0,-0.006835938,-0.007446289,0.1569824,0,0,0.1639404,0.3105164,4.041,0,0,0,0.2999878,nan,2,11.258,1,128,0.400116,0.2999268,0.2927551,0.2493286,0.00390625,0.04296875,0,1,3,0
4916.099,0.001014,0.1230469,-0.0703125,0.04296875,1.039062,0.953125,11.17188,0.0078125,0,0.03710938,0.04296875,0.04492188,0,-0.007202148,-0.007446289,0.1572266,0,0,0.1639404,0.3105164,4.041,0,0,0,0.2999878,nan,2,11.269,1,128,0.4056702,0.3110352,0.3154297,0.2099304,0.00390625,0.04296875,0,1,3,0
4916.109,0.001014,0.02148438,0.02148438,0.046875,0.8046875,-1.257812,4.757812,0.009765625,0.01953125,0.04492188,0.04296875,0.04492188,0,-0.007080078,-0.007446289,0.1575928,0,0,0.1639404,0.3105164,4.041,0,0,0,0.2999878,nan,2,11.279,1,128,0.3788757,0.3240967,0.2867126,0.2524109,0.00390625,0.04296875,0,1,3,0
4916.119,0.001014,-0.01367188,0.01171875,0.01953125,1.976562,-3.820312,9.546875,-0.015625,0.02929688,0.02929688,0.04296875,0.04296875,0,-0.006958008,-0.007202148,0.1580811,0,0,0.1639404,0.3105164,4.041,0,0,0,0.2999878,nan,2,11.289,1,128,0.3509216,0.3561096,0.2453613,0.2897034,0.00390625,0.04296875,0,1,3,0
4916.129,0.001014,0.04101562,0.01367188,0.015625,1.164062,-0.9140625,8.289062,0.015625,-0.01171875,0.03125,0.04296875,0.04296875,0,-0.006958008,-0.007080078,0.1583252,0,0,0.1639404,0.3105164,4.041,0,0,0,0.2999878,nan,2,11.299,1,128,0.3663025,0.3524475,0.2622375,0.2611084,0.004882812,0.04296875,0,1,3,0
4916.138,0.001006,-0.01171875,0.0078125,-0.03515625,-0.2109375,-4.984375,11.20312,-0.0078125,-0.01171875,-0.02539062,0.04101562,0.04296875,0,-0.006958008,-0.007202148,0.1583252,0,0,0.1639404,0.309021,4.041,0,0,0,0.2982178,nan,2,11.308,1,128,0.3174744,0.39328,0.2052612,0.3200378,0.004882812,0.04296875,0,1,3,0
4916.148,0.00101,-0.06640625,0.015625,0.001953125,-0.2734375,0.1796875,6.8125,-0.07226562,0.01953125,-0.01367188,0.04492188,0.04296875,0,-0.007446289,-0.007080078,0.157959,0,0,0.1639404,0.307312,4.041,0,0,0,0.2962036,nan,2,11.318,1,128,0.3829956,0.3169861,0.2642822,0.2650146,0.004882812,0.04296875,0,1,3,0
4916.158,0.001008,0.07421875,-0.05664062,0,0.078125,-4.445312,10.24219,-0.02148438,-0.0078125,-0.01367188,0.04882812,0.04296875,0,-0.008056641,-0.007080078,0.1578369,0,0,0.1639404,0.3056335,4.041,0,0,0,0.2941895,nan,2,11.328,1,128,0.3504028,0.3570862,0.2511902,0.263916,0.004882812,0.04296875,0,1,3,0
4916.168,0.001004,0.04296875,-0.001953125,0.015625,-0.03125,-2.132812,10.44531,0.01757812,-0.05273438,0.009765625,0.04882812,0.046875,0,-0.00793457,-0.00769043,0.1578369,0,0,0.1639404,0.3039551,4.041,0,0,0,0.2921753,nan,2,11.338,1,128,0.3811951,0.3231201,0.278595,0.2329102,0.004882812,0.04296875,0,1,3,0
4916.179,0.001052,0.001953125,0.01171875,-0.0078125,-0.625,-4.070312,10.0625,0.00390625,-0.02929688,-0.005859375,0.04492188,0.04882812,0,-0.007446289,-0.008178711,0.1578369,0,0,0.1639404,0.3022766,4.041,0,0,0,0.2902222,nan,2,11.348,1,128,0.3504639,0.3410034,0.2351074,0.2825317,0.004882812,0.04296875,0,1,3,0
4916.189,0.001041,-0.1328125,0.05078125,0.06445312,0.15625,-0.0625,8.21875,-0.08984375,0.00390625,0.05273438,0.046875,0.04882812,0,-0.0078125,-0.008300781,0.1580811,0,0,0.1639404,0.3005981,4.041,0,0,0,0.288208,nan,2,11.359,1,128,0.4331665,0.2526855,0.2974243,0.2190857,0.004882812,0.04296875,0,1,3,0
4916.199,0.001016,0.0625,0.009765625,0.03320312,-1.054688,-3.398438,10.20312,0.001953125,0.02148438,0.03125,0.04882812,0.04882812,0,-0.008056641,-0.008056641,0.1584473,0,0,0.1639404,0.2989197,4.041,0,0,0,0.2861938,nan,2,11.369,1,128,0.3500366,0.3346558,0.2580261,0.2528992,0.004882812,0.04296875,0,1,3,0
4916.209,0.00101,-0.0703125,-0.0078125,0.03515625,-1.421875,2.921875,8.3125,-0.02539062,0,0.01953125,0.04882812,0.046875,0,-0.008178711,-0.00793457,0.1586914,0,0,0.1639404,0.2972107,4.041,0,0,0,0.2841797,nan,2,11.379,1,128,0.3642273,0.3270874,0.2414246,0.2561646,0.004882812,0.04296875,0,1,3,0
4916.218,0.001022,0.1171875,0.01171875,-0.03710938,-2.476562,0.9765625,11.28125,0.03710938,0.015625,-0.001953125,0.04882812,0.046875,0,-0.008300781,-0.0078125,0.1588135,0,0,0.1639404,0.2957153,4.041,0,0,0,0.2824097,nan,2,11.388,1,128,0.2990723,0.3825378,0.2157593,0.2854614,0.004882812,0.04296875,0,1,3,0
4916.229,0.001006,0.00390625,0.05078125,-0.03320312,-1.773438,2.5625,7.523438,0.04101562,0,-0.04101562,0.046875,0.046875,0,-0.00793457,-0.00793457,0.1585693,0,0,0.1639404,0.2938538,4.041,0,0,0,0.2802124,nan,2,11.399,1,128,0.2992249,0.3768311,0.2048035,0.2945557,0.004882812,0.04296875,0,1,3,0
4916.238,0.001014,0.001953125,0.01953125,-0.06445312,-1.46875,-2.570312,8.578125,-0.001953125,0.01757812,-0.03515625,0.04882812,0.046875,0,-0.00793457,-0.00769043,0.1583252,0,0,0.1639404,0.2921753,4.041,0,0,0,0.2781982,nan,2,11.408,1,128,0.3182983,0.3537598,0.2117615,0.2848511,0.004882812,0.04296875,0,1,3,0
4916.248,0.001011,0.02148438,-0.04492188,-0.04882812,1.34375,-3.734375,7.9375,0.0390625,-0.0390625,-0.05078125,0.046875,0.046875,0,-0.00769043,-0.0078125,0.1578369,0,0,0.1639404,0.2904968,4.041,0,0,0,0.2761841,nan,2,11.418,1,128,0.3310547,0.3581848,0.2155762,0.2570801,0.004882812,0.04296875,0,1,3,0
4916.258,0.001011,0.0078125,0.02148438,-0.05078125,2.273438,-3.320312,6.34375,0.02929688,-0.009765625,-0.05664062,0.04492188,0.04882812,0,-0.007324219,-0.008178711,0.1571045,0,0,0.1639404,0.2887878,4.041,0,0,0,0.2741699,nan,2,11.428,1,128,0.3294067,0.3329773,0.2310181,0.2617798,0.004882812,0.04296875,0,1,3,0
4916.268,0.001012,-0.1054688,0.0234375,-0.01367188,2.570312,0.75,11.46875,-0.0625,0.001953125,-0.01367188,0.04492188,0.04882812,0,-0.007568359,-0.008056641,0.1568604,0,0,0.1639404,0.2871094,4.041,0,0,0,0.2722168,nan,2,11.438,1,128,0.3818359,0.2854309,0.2497253,0.2314453,0.004882812,0.04296875,0,1,3,0
4916.278,0.001014,0.01367188,-0.001953125,-0.005859375,0.2890625,2.875,11.66406,0.01953125,-0.001953125,-0.0078125,0.046875,0.046875,0,-0.0078125,-0.00793457,0.1567383,0,0,0.1639404,0.2854309,4.041,0,0,0,0.2702026,nan,2,11.448,1,128,0.3499146,0.3169556,0.2475281,0.2273254,0.004882812,0.04296875,0,1,3,0
4916.288,0.001014,-0.0234375,-0.09179688,0.01367188,-1.851562,2.195312,12.83594,-0.0078125,-0.02734375,0.02148438,0.046875,0.046875,0,-0.00769043,-0.00793457,0.1567383,0,0,0.1639404,0.2837524,4.041,0,0,0,0.2681885,nan,2,11.458,1,128,0.3833923,0.2913208,0.2540283,0.2062378,0.004882812,0.04394531,0,1,3,0
4916.299,0.001014,0.1015625,-0.04882812,0.0078125,-1.84375,6.164062,9.476562,0.03125,-0.01367188,-0.01367188,0.04492188,0.046875,0,-0.007568359,-0.00793457,0.1567383,0,0,0.1639404,0.282074,4.041,0,0,0,0.2661743,nan,2,11.468,1,128,0.319519,0.34552,0.2156677,0.2475281,0.004882812,0.04394531,0,1,3,0
4916.309,0.001014,-0.03320312,-0.0390625,0.01171875,-1.6875,-3.609375,7.617188,0.001953125,-0.01953125,0.01171875,0.04492188,0.04882812,0,-0.007446289,-0.008056641,0.1567383,0,0,0.1639404,0.280365,4.041,0,0,0,0.2642212,nan,2,11.479,1,128,0.3579407,0.3025513,0.2376099,0.2234192,0.004882812,0.04394531,0,1,3,0
4916.319,0.001014,0.07421875,-0.06445312,0.001953125,1.304688,-4.851562,8.578125,0.02734375,-0.02539062,-0.02734375,0.04296875,0.04882812,0,-0.007324219,-0.008178711,0.1564941,0,0,0.1639404,0.2786865,4.041,0,0,0,0.262207,nan,2,11.489,1,128,0.3157043,0.345459,0.2084656,0.2451172,0.004882812,0.04394531,0,1,3,0.6825397
4916.329,0.001014,0.04492188,0.005859375,0.00390625,2.234375,0.1875,5.1875,0.02734375,0.00390625,-0.0078125,0.04296875,0.04882812,0,-0.007202148,-0.008178711,0.1563721,0,0,0.1639404,0.2770081,4.041,0,0,0,0.2601929,nan,2,11.499,1,128,0.3354187,0.3074646,0.2410889,0.2240906,0.004882812,0.04394531,0,1,3,0
4916.338,0.001006,0,-0.001953125,0.009765625,1.757812,-5.132812,5.265625,-0.009765625,0.02734375,-0.0078125,0.04296875,0.04882812,0,-0.007080078,-0.008056641,0.15625,0,0,0.1639404,0.2753296,4.041,0,0,0,0.2581787,nan,2,11.508,1,128,0.3431702,0.2948608,0.2362061,0.2270813,0.005859375,0.04394531,0,1,3,0
4916.348,0.001028,0.01953125,0.0234375,0.02929688,-1.5625,5.09375,16.67188,0.04296875,0.00390625,0.05078125,0.04101562,0.04882812,0,-0.006835938,-0.008056641,0.1566162,0,0,0.1639404,0.2736511,4.041,0,0,0,0.2562256,nan,2,11.518,1,128,0.3640442,0.2731934,0.2693176,0.1880188,0.005859375,0.04394531,0,1,3,0
4916.359,0.001027,-0.04882812,-0.00390625,0.0390625,-2.75,7.585938,12.34375,0.0078125,0,0.05078125,0.0390625,0.04882812,0,-0.006591797,-0.00793457,0.1571045,0,0,0.1639404,0.2719421,4.041,0,0,0,0.2542114,nan,2,11.528,1,128,0.3474731,0.2932434,0.2288513,0.2182312,0.005859375,0.04394531,0,1,3,0
4916.368,0.000988,0.03710938,-0.015625,0.08984375,-2.195312,4.140625,9.523438,0.02148438,-0.01367188,0.07421875,0.0390625,0.04882812,0,-0.006591797,-0.008056641,0.1577148,0,0,0.1639404,0.2702637,4.041,0,0,0,0.2521973,nan,2,11.538,1,128,0.3743286,0.2659607,0.265625,0.1751709,0.005859375,0.04394531,0,1,3,0
4916.378,0.00101,-0.015625,-0.005859375,0.0234375,-2.367188,-0.390625,10.49219,0.0078125,-0.01171875,0.05273438,0.0390625,0.04882812,0,-0.006469727,-0.008056641,0.1585693,0,0,0.1639404,0.2685852,4.041,0,0,0,0.2501831,nan,2,11.548,1,128,0.2972717,0.3374023,0.1863708,0.2533264,0.005859375,0.04394531,0,1,3,0
4916.388,0.00101,0.005859375,-0.005859375,-0.05859375,0.09375,-6.140625,5.140625,-0.01953125,0,-0.03320312,0.04101562,0.04882812,0,-0.006713867,-0.00793457,0.1584473,0,0,0.1639404,0.2669067,4.041,0,0,0,0.2481689,nan,2,11.558,1,128,0.2438354,0.3851624,0.1316223,0.3070068,0.005859375,0.04394531,0,1,3,0
4916.399,0.001006,0.04882812,-0.01367188,-0.05078125,2.570312,-5.765625,6.4375,0.01171875,0.0234375,-0.0546875,0.04101562,0.046875,0,-0.006835938,-0.0078125,0.157959,0,0,0.1639404,0.2652283,4.041,0,0,0,0.2462158,nan,2,11.568,1,128,0.2892456,0.3305054,0.1925049,0.2485962,0.005859375,0.04394531,0,1,3,0
4916.409,0.001006,-0.04882812,0.08984375,0,0.21875,4.710938,13.89062,-0.005859375,0.04882812,0.009765625,0.04101562,0.046875,0,-0.006713867,-0.00769043,0.1578369,0,0,0.1639404,0.2635498,4.041,0,0,0,0.2442017,nan,2,11.579,1,128,0.3476257,0.2521057,0.2518921,0.2025146,0.005859375,0.04394531,0,1,3,0
4916.419,0.001006,0.02734375,-0.03515625,0.08007812,-3.28125,2.421875,12.59375,0.009765625,-0.0078125,0.04296875,0.04101562,0.046875,0,-0.006713867,-0.00769043,0.157959,0,0,0.1639404,0.2618408,4.041,0,0,0,0.2421875,nan,2,11.589,1,128,0.3822021,0.240448,0.2711792,0.1535645,0.005859375,0.04394531,0,1,3,0
4916.429,0.001006,-0.01171875,0,0.0234375,-0.59375,-8.898438,5.820312,-0.001953125,-0.001953125,0.05664062,0.04101562,0.046875,0,-0.006713867,-0.00769043,0.1586914,0,0,0.1639404,0.2601624,4.041,0,0,0,0.2401733,nan,2,11.599,1,128,0.3234863,0.2900391,0.2137451,0.2133789,0.005859375,0.04394531,0,1,3,0
4916.438,0.001014,0.01757812,-0.0390625,0.06835938,1.671875,-7.078125,12.44531,0.03515625,0.00390625,0.05078125,0.0390625,0.04492188,0,-0.006591797,-0.007568359,0.1590576,0,0,0.1639404,0.258667,4.041,0,0,0,0.2384033,nan,2,11.608,1,128,0.3281555,0.286377,0.2247009,0.195343,0.005859375,0.04394531,0,1,3,0
4916.448,0.001014,-0.04101562,-0.05273438,0.06640625,1.953125,-3.789062,12.23438,-0.00390625,-0.0234375,0.078125,0.0390625,0.04492188,0,-0.006469727,-0.007568359,0.15979,0,0,0.1639404,0.2568054,4.041,0,0,0,0.2362061,nan,2,11.618,1,128,0.3569336,0.2649231,0.2268677,0.1784668,0.005859375,0.04394531,0,1,3,0
4916.458,0.001018,0.0078125,-0.06835938,0.05078125,-0.375,-0.3046875,15.10156,-0.001953125,-0.015625,0.05859375,0.0390625,0.04492188,0,-0.006469727,-0.007446289,0.1604004,0,0,0.1639404,0.255127,4.041,0,0,0,0.2341919,nan,2,11.628,1,128,0.3269958,0.2886963,0.2030334,0.2017212,0.005859375,0.04394531,0,1,3,0
4916.468,0.001006,0.01953125,-0.015625,-0.0390625,-2.304688,3.375,13.14844,0.02148438,0.001953125,-0.03125,0.03710938,0.046875,0,-0.006347656,-0.00769043,0.1605225,0,0,0.1639404,0.253418,4.041,0,0,0,0.2321777,nan,2,11.638,1,128,0.2246704,0.3709412,0.1242981,0.2937927,0.005859375,0.04394531,0,1,3,0
4916.478,0.001014,-0.1074219,0.02929688,-0.00390625,1.03125,-2.101562,7.148438,-0.01757812,0.02734375,-0.0234375,0.03710938,0.046875,0,-0.006225586,-0.00769043,0.1601562,0,0,0.1639404,0.2517395,4.041,0,0,0,0.2302246,nan,2,11.648,1,128,0.3153381,0.2712708,0.2008667,0.2194824,0.005859375,0.04394531,0,1,3,0
4916.489,0.001018,-0.001953125,-0.005859375,-0.015625,0.984375,4.703125,12.89062,0.00390625,0.00390625,-0.005859375,0.0390625,0.04492188,0,-0.006347656,-0.00769043,0.1600342,0,0,0.1639404,0.250061,4.041,0,0,0,0.2282104,nan,2,11.658,1,128,0.3068542,0.2877197,0.2019958,0.2036743,0.005859375,0.04394531,0,1,3,0
4916.499,0.001014,-0.046875,-0.01757812,-0.001953125,-1.085938,1.96875,7.992188,0.005859375,-0.02539062,-0.01953125,0.03710938,0.046875,0,-0.006225586,-0.00769043,0.1599121,0,0,0.1639404,0.2483826,4.051,0,0,0,0.2261963,nan,2,11.668,1,128,0.3094177,0.2895508,0.1877441,0.2067871,0.005859375,0.04492188,0,1,3,0
4916.508,0.001118,-0.02539062,0.01953125,-0.00390625,0.7265625,-5.382812,4.960938,-0.005859375,-0.001953125,-0.01367188,0.03710938,0.046875,0,-0.006103516,-0.00793457,0.15979,0,0,0.1639404,0.2468567,4.051,0,0,0,0.2244263,nan,2,11.678,1,128,0.2990723,0.2836609,0.1854858,0.2192383,0.005859375,0.04492188,0,1,3,0
4916.519,0.000971,-0.005859375,-0.0078125,0.02734375,-2.570312,-0.5859375,10.17188,0.005859375,-0.005859375,0.01171875,0.03515625,0.046875,0,-0.005981445,-0.00769043,0.159668,0,0,0.1639404,0.2449951,4.051,0,0,0,0.222229,nan,2,11.689,1,128,0.3423767,0.2483826,0.223938,0.1653442,0.005859375,0.04492188,0,1,3,0
4916.528,0.000897,0.07617188,0.02929688,0.046875,1.398438,-8.0625,6.515625,-0.015625,0.04882812,0.0234375,0.03710938,0.04492188,0,-0.006103516,-0.007568359,0.1599121,0,0,0.1639404,0.2434998,4.051,0,0,0,0.2203979,nan,2,11.698,1,128,0.319397,0.2458801,0.2263489,0.1823425,0.005859375,0.04492188,0,1,3,0
4916.538,0.001043,0.001953125,0.02148438,0.01953125,-2.054688,1.257812,12.89062,-0.02929688,0.0078125,0.02539062,0.0390625,0.04492188,0,-0.006347656,-0.007446289,0.1601562,0,0,0.1639404,0.2416382,4.051,0,0,0,0.2182007,nan,2,11.708,1,128,0.2967224,0.2800598,0.1820068,0.2077942,0.005859375,0.04492188,0,1,3,0
4916.548,0.000995,0.04101562,-0.01171875,-0.01953125,0.375,-10.17969,4.890625,0.0390625,-0.04296875,0.02539062,0.03710938,0.046875,0,-0.006347656,-0.0078125,0.1605225,0,0,0.1639404,0.2399597,4.051,0,0,0,0.2161865,nan,2,11.718,1,128,0.2720032,0.3100281,0.1718445,0.2059326,0.005859375,0.04492188,0,1,3,0
4916.558,0.001031,0.009765625,-0.08789062,-0.03710938,1.007812,1.945312,11.64062,-0.00390625,-0.04101562,-0.02734375,0.03710938,0.04882812,0,-0.006347656,-0.008056641,0.1604004,0,0,0.1639404,0.2382812,4.051,0,0,0,0.2141724,nan,2,11.728,1,128,0.2642212,0.3205261,0.1369629,0.2313538,0.005859375,0.04492188,0,1,3,0
4916.568,0.001002,-0.0703125,-0.01757812,-0.04492188,0.8046875,-8.195312,5.257812,-0.03710938,-0.03320312,-0.0234375,0.0390625,0.05078125,0,-0.006347656,-0.008300781,0.1602783,0,0,0.1639404,0.2366028,4.051,0,0,0,0.2122192,nan,2,11.738,1,128,0.2844849,0.2911072,0.1452637,0.2254944,0.005859375,0.04492188,0,1,3,0.8253968
4916.579,0.001055,0,-0.03515625,-0.03710938,-2.132812,-0.421875,10.75781,-0.02148438,-0.01171875,-0.046875,0.04101562,0.05078125,0,-0.006835938,-0.008300781,0.15979,0,0,0.1639404,0.2348938,4.051,0,0,0,0.2102051,nan,2,11.748,1,128,0.2679443,0.3025818,0.1526489,0.2164612,0.005859375,0.04492188,0,1,3,0
4916.588,0.00101,-0.05859375,0.0390625,-0.0234375,1.382812,-5.109375,8.1875,-0.02148438,0.0078125,-0.02734375,0.04296875,0.05078125,0,-0.007080078,-0.008422852,0.1595459,0,0,0.1639404,0.2332153,4.051,0,0,0,0.2081909,nan,2,11.758,1,128,0.2905579,0.2642822,0.1775818,0.2004395,0.005859375,0.04492188,0,1,3,0.8253968
4916.598,0.001017,0.0703125,0.001953125,0.02734375,-1.648438,-0.53125,11.80469,0.03710938,0.005859375,0.01171875,0.04101562,0.05078125,0,-0.006958008,-0.008422852,0.1594238,0,0,0.1639404,0.2316895,4.051,0,0,0,0.2064209,nan,2,11.768,1,128,0.3201904,0.2359619,0.2271729,0.1435242,0.006835938,0.04492188,0,1,3,0
4916.609,0.0009860001,0.04882812,-0.125,0.015625,-0.15625,-0.4453125,14.67188,0.03125,-0.04882812,0.00390625,0.0390625,0.05078125,0,-0.006713867,-0.008422852,0.1594238,0,0,0.1639404,0.2298584,4.051,0,0,0,0.2042236,nan,2,11.779,1,128,0.3143005,0.2668762,0.1825562,0.1556702,0.006835938,0.04492188,0,1,3,0
4916.618,0.001013,0.02539062,-0.03125,0.015625,-0.1875,-12.75781,7.304688,0.009765625,-0.01367188,0.01953125,0.0390625,0.05078125,0,-0.006469727,-0.008544922,0.159668,0,0,0.1639404,0.2283325,4.051,0,0,0,0.2023926,nan,2,11.788,1,128,0.2914734,0.264801,0.1735229,0.1835632,0.006835938,0.04492188,0,1,3,0
4916.628,0.000989,0.0078125,-0.005859375,0.03710938,-0.640625,3.476562,12.875,0.001953125,-0.01953125,0.02148438,0.03710938,0.05273438,0,-0.006225586,-0.008789062,0.159668,0,0,0.1639404,0.2266541,4.051,0,0,0,0.2003784,nan,2,11.798,1,128,0.3163757,0.23703,0.1906433,0.1625366,0.006835938,0.04492188,0,1,3,0
4916.638,0.001014,-0.078125,0.05859375,0.01757812,1.460938,1.625,5.757812,-0.01367188,-0.0078125,0.01953125,0.03710938,0.0546875,0,-0.006103516,-0.009033203,0.1599121,0,0,0.1639404,0.2249756,4.051,0,0,0,0.1984253,nan,2,11.808,1,128,0.2883911,0.2514954,0.1712952,0.1886902,0.006835938,0.04492188,0,1,3,0
4916.648,0.001011,-0.05078125,-0.06640625,0.01171875,2.335938,0.9765625,7.492188,-0.02734375,-0.009765625,0.00390625,0.0390625,0.05273438,0,-0.006347656,-0.008789062,0.1600342,0,0,0.1639404,0.223114,4.051,0,0,0,0.196228,nan,2,11.818,1,128,0.2885742,0.266571,0.1549683,0.1823425,0.006835938,0.04492188,0,1,3,0
4916.658,0.001011,-0.0078125,-0.01757812,-0.04492188,-1.695312,-0.7265625,9.703125,0.009765625,-0.001953125,-0.01367188,0.0390625,0.05273438,0,-0.006469727,-0.008911133,0.1600342,0,0,0.1639404,0.2214355,4.051,0,0,0,0.1942139,nan,2,11.828,1,128,0.2349854,0.3059082,0.126709,0.2181091,0.006835938,0.04492188,0,1,3,0.3015873
4916.668,0.001014,-0.08984375,0.06445312,-0.009765625,-0.9921875,-1.101562,15.32812,-0.03710938,0.01953125,-0.02539062,0.04101562,0.05273438,0,-0.006713867,-0.008911133,0.159668,0,0,0.1639404,0.2197571,4.051,0,0,0,0.1921997,nan,2,11.838,1,128,0.2796631,0.2461548,0.1643372,0.1888428,0.006835938,0.04492188,0,1,3,0
4916.678,0.001014,0.04101562,-0.046875,0.001953125,2.539062,-0.2890625,9.617188,0.0078125,-0.009765625,0,0.04101562,0.05273438,0,-0.006958008,-0.008789062,0.1595459,0,0,0.1639404,0.2180481,4.051,0,0,0,0.1901855,nan,2,11.848,1,128,0.2974548,0.2435303,0.1836548,0.1476135,0.006835938,0.04589844,0,1,3,0.5555556
4916.688,0.001014,-0.01757812,0.07617188,0.01171875,0.75,-2.28125,2.015625,0.01953125,0.03710938,0.009765625,0.04101562,0.05273438,0,-0.006958008,-0.008789062,0.159668,0,0,0.1639404,0.2163696,4.051,0,0,0,0.1881714,nan,2,11.858,1,128,0.2806396,0.2310791,0.190094,0.1636963,0.006835938,0.04589844,0,1,3,0
4916.699,0.001014,0.1074219,-0.05664062,-0.005859375,-0.3515625,-0.5,7.265625,0.03320312,-0.01757812,-0.0078125,0.04101562,0.05078125,0,-0.006835938,-0.008544922,0.159668,0,0,0.1639404,0.2146912,4.051,0,0,0,0.1862183,nan,2,11.868,1,128,0.2587585,0.2852478,0.1380615,0.1767273,0.006835938,0.04589844,0,1,3,0
4916.709,0.00101,0,-0.03125,-0.07421875,-1.671875,0.8828125,10.875,0.009765625,-0.03320312,-0.0390625,0.04101562,0.05273438,0,-0.006713867,-0.008666992,0.1595459,0,0,0.1639404,0.2130127,4.051,0,0,0,0.1842041,nan,2,11.879,1,128,0.2105408,0.3278503,0.08526611,0.2283936,0.006835938,0.04589844,0,1,3,0
4916.719,0.001001,-0.0625,-0.05664062,-0.02734375,-1.070312,-2.742188,12.60156,-0.05859375,0.00390625,-0.03320312,0.04101562,0.05273438,0,-0.006958008,-0.008666992,0.1590576,0,0,0.1639404,0.2113342,4.051,0,0,0,0.1821899,nan,2,11.889,1,128,0.2817078,0.2374268,0.1455994,0.1805725,0.006835938,0.04589844,0,1,3,0
4916.729,0.00101,0.0625,0.03515625,-0.015625,-0.84375,5.007812,15.33594,0.03320312,0.01367188,-0.02539062,0.04101562,0.05078125,0,-0.006958008,-0.008544922,0.1588135,0,0,0.1639404,0.2096252,4.051,0,0,0,0.1801758,nan,2,11.899,1,128,0.2634888,0.2514954,0.1681213,0.1554565,0.006835938,0.04589844,0,1,3,0
4916.738,0.00101,-0.02734375,0.04492188,-0.08789062,0.28125,6.546875,9.898438,-0.0625,0.02148438,-0.06835938,0.04296875,0.05078125,0,-0.007202148,-0.008544922,0.1583252,0,0,0.1639404,0.2081299,4.051,0,0,0,0.1784058,nan,2,11.908,1,128,0.2052612,0.2974243,0.07946777,0.2503662,0.006835938,0.04589844,0,1,3,0
4916.748,0.001009,0.06445312,0.015625,-0.0859375,-1.210938,3.382812,10.25,-0.001953125,-0.01367188,-0.07421875,0.04296875,0.05273438,0,-0.007202148,-0.008789062,0.1575928,0,0,0.1639404,0.2062683,4.051,0,0,0,0.1762085,nan,2,11.918,1,128,0.2269287,0.2820435,0.1145325,0.2015991,0.006835938,0.04589844,0,1,3,0
4916.758,0.001009,0.1445312,-0.0703125,-0.1210938,0.1796875,-4.03125,11.07812,0.03515625,-0.07226562,-0.1035156,0.04296875,0.0546875,0,-0.007202148,-0.009033203,0.1567383,0,0,0.1639404,0.2045898,4.051,0,0,0,0.1741943,nan,2,11.928,1,128,0.2117615,0.3178101,0.0897522,0.1990356,0.006835938,0.04589844,0,1,3,0
4916.768,0.001042,-0.001953125,-0.05078125,-0.09570312,1.429688,-8.992188,7.632812,-0.02148438,-0.04492188,-0.09375,0.04296875,0.05664062,0,-0.007080078,-0.009399414,0.1556396,0,0,0.1639404,0.2029114,4.051,0,0,0,0.1721802,nan,2,11.938,1,128,0.2549744,0.2613525,0.1136169,0.1816711,0.006835938,0.04589844,0,1,3,0
4916.778,0.001006,0.1367188,-0.015625,-0.078125,-1.078125,-0.0625,8.203125,0.02148438,-0.01367188,-0.078125,0.04296875,0.05859375,0,-0.007202148,-0.009643555,0.1547852,0,0,0.1639404,0.2012329,4.051,0,0,0,0.1702271,nan,2,11.948,1,128,0.2358704,0.2624512,0.1355591,0.1710205,0.006835938,0.04589844,0,1,3,0
4916.789,0.001028,0.04492188,-0.08398438,-0.03125,-0.625,6.757812,10.71875,0,-0.001953125,-0.05273438,0.04296875,0.05859375,0,-0.007080078,-0.009765625,0.1541748,0,0,0.1639404,0.1995239,4.051,0,0,0,0.1682129,nan,2,11.958,1,128,0.2708435,0.2261963,0.1532898,0.1477966,0.006835938,0.04589844,0,1,3,0
4916.799,0.001006,0.015625,0.001953125,-0.03515625,-1.007812,-2.132812,9.570312,-0.001953125,0.0234375,-0.03710938,0.04296875,0.05859375,0,-0.006958008,-0.009765625,0.1538086,0,0,0.1639404,0.1978455,4.051,0,0,0,0.1661987,nan,2,11.968,1,128,0.2522888,0.2303162,0.1430664,0.165741,0.006835938,0.04589844,0,1,3,0.7460318
4916.809,0.001006,0.01367188,0.0234375,-0.01953125,1.539062,-4.632812,13.19531,-0.00390625,0.03320312,-0.03710938,0.04101562,0.06054688,0,-0.006958008,-0.01000977,0.1533203,0,0,0.1639404,0.196167,4.051,0,0,0,0.1641846,nan,2,11.979,1,128,0.2497559,0.2236938,0.1475525,0.1636353,0.006835938,0.04589844,0,1,3,0
4916.819,0.001006,-0.08398438,-0.078125,-0.01171875,-0.84375,4.757812,7.546875,-0.0625,-0.001953125,-0.0234375,0.04296875,0.05859375,0,-0.007324219,-0.009887695,0.1529541,0,0,0.1639404,0.1944885,4.051,0,0,0,0.1621704,nan,2,11.989,1,128,0.2871704,0.2094727,0.1391296,0.1421814,0.006835938,0.04589844,0,1,3,0
4916.829,0.001006,-0.109375,-0.0078125,-0.0234375,-0.609375,-5.546875,5.992188,0.0078125,0.0078125,-0.01757812,0.04296875,0.05859375,0,-0.007324219,-0.009765625,0.152832,0,0,0.1639404,0.1928101,4.051,0,0,0,0.1602173,nan,2,11.999,1,128,0.2472839,0.2372742,0.1290283,0.1576233,0.0078125,0.04589844,0,1,3,0
4916.838,0.001014,-0.04492188,0.009765625,-0.06835938,-0.1640625,-6.671875,4.789062,0,0.015625,-0.03515625,0.04296875,0.05859375,0,-0.007202148,-0.009765625,0.1525879,0,0,0.1639404,0.1912842,4.051,0,0,0,0.1583862,nan,2,12.008,1,128,0.2073975,0.2711487,0.08868408,0.1979065,0.0078125,0.046875,0,1,3,0
4916.848,0.001019,0.0390625,0.09570312,-0.0234375,-1.234375,4.515625,11.29688,0.015625,-0.00390625,-0.01757812,0.04296875,0.05859375,0,-0.007202148,-0.009765625,0.1523438,0,0,0.1639404,0.1894226,4.051,0,0,0,0.156189,nan,2,12.018,1,128,0.2506104,0.2296753,0.1347046,0.1427612,0.0078125,0.046875,0,1,3,0
4916.858,0.00102,0.06640625,-0.0234375,-0.046875,0.8671875,-7.8125,4.429688,0.01171875,-0.0234375,-0.0390625,0.04296875,0.05859375,0,-0.007202148,-0.009643555,0.1520996,0,0,0.1639404,0.1877441,4.051,0,0,0,0.1541748,nan,2,12.028,1,128,0.2204895,0.2662964,0.09500122,0.16922,0.0078125,0.046875,0,1,3,0
4916.868,0.001008,0.0390625,-0.01953125,-0.06640625,-0.265625,9.0625,12.89844,0.01367188,-0.02734375,-0.05664062,0.04296875,0.05859375,0,-0.007080078,-0.009765625,0.1516113,0,0,0.1639404,0.1860657,4.051,0,0,0,0.1522217,nan,2,12.038,1,128,0.2071533,0.2762146,0.08044434,0.1804504,0.0078125,0.046875,0,1,3,0
4916.878,0.001014,-0.0234375,0.02148438,-0.09960938,1.3125,-7.921875,8.375,-0.015625,0.0078125,-0.0703125,0.04296875,0.05664062,0,-0.007080078,-0.009521484,0.151001,0,0,0.1639404,0.1843872,4.051,0,0,0,0.1502075,nan,2,12.048,1,128,0.2044678,0.2659912,0.0743103,0.192749,0.0078125,0.046875,0,1,3,0
4916.888,0.001014,0.02929688,-0.02148438,-0.1113281,-1.210938,5.828125,9.554688,0,-0.02148438,-0.1035156,0.04296875,0.05664062,0,-0.007202148,-0.009521484,0.1500244,0,0,0.1639404,0.1826782,4.051,0,0,0,0.1481934,nan,2,12.058,1,128,0.1984863,0.2784729,0.0696106,0.1841736,0.0078125,0.046875,0,1,3,0
4916.899,0.001014,-0.09179688,0.0234375,-0.0546875,0.3671875,2.398438,11.28906,-0.0234375,0.0078125,-0.08398438,0.04296875,0.05664062,0,-0.007080078,-0.009399414,0.1489258,0,0,0.1639404,0.1809998,4.051,0,0,0,0.1461792,nan,2,12.068,1,128,0.2598267,0.2003784,0.1273804,0.1364441,0.0078125,0.046875,0,1,3,0
4916.909,0.001047,0.0625,-0.09179688,-0.0625,0.3671875,-8.34375,3.046875,0.01757812,-0.03125,-0.05273438,0.04296875,0.05664062,0,-0.007080078,-0.009277344,0.1483154,0,0,0.1639404,0.1793213,4.051,0,0,0,0.1442261,nan,2,12.079,1,128,0.2469482,0.2303162,0.116272,0.1237793,0.0078125,0.046875,0,1,3,0
4916.919,0.000973,0.04296875,-0.02929688,-0.02734375,-0.5625,3.664062,13.25781,0.03515625,-0.02148438,-0.02539062,0.04101562,0.05664062,0,-0.006958008,-0.009521484,0.1479492,0,0,0.1639404,0.1776428,4.051,0,0,0,0.1422119,nan,2,12.089,1,128,0.2583618,0.2034302,0.1425781,0.1062012,0.0078125,0.046875,0,1,3,0
4916.929,0.001014,0.01367188,0.01367188,-0.05273438,-1.25,-0.3515625,11.96094,0.01367188,-0.009765625,-0.03320312,0.0390625,0.05859375,0,-0.006591797,-0.009643555,0.1477051,0,0,0.1639404,0.1759644,4.051,0,0,0,0.1401978,nan,2,12.099,1,128,0.2079468,0.2449646,0.0864563,0.1644592,0.0078125,0.046875,0,1,3,0
4916.938,0.001038,-0.009765625,-0.015625,-0.03515625,-0.359375,-0.8515625,6.21875,-0.01367188,0.00390625,-0.04882812,0.04101562,0.05664062,0,-0.006713867,-0.009521484,0.1473389,0,0,0.1473389,0.177124,4.051,0,0,0,0.1400146,nan,4,12.108,1,128,0.1540222,0.2084961,0.1377563,0.2082825,0,0,0,1,6,0
4916.948,0.000999,-0.01171875,-0.08789062,-0.03710938,-0.9609375,-0.5390625,8.132812,0.005859375,-0.0234375,-0.05078125,0.0390625,0.05664062,0,-0.006591797,-0.009521484,0.1468506,0,0,0.1468506,0.1788025,4.051,0,0,0,0.1400146,nan,4,12.118,1,128,0.1816406,0.1997986,0.1534729,0.1803284,0,0,0,1,6,0
4916.958,0.001005,0.046875,-0.06054688,-0.05664062,-0.3515625,-3.234375,16.78906,0.015625,-0.02539062,-0.05859375,0.0390625,0.05859375,0,-0.006469727,-0.009643555,0.1462402,0,0,0.1462402,0.1805115,4.051,0,0,0,0.1400146,nan,4,12.128,1,128,0.1774597,0.20047,0.1573486,0.1867065,0,0,0,1,6,0
4916.968,0.000996,0.02734375,0.04492188,-0.078125,-0.21875,5.015625,7.703125,-0.015625,0.02929688,-0.05664062,0.0390625,0.05859375,0,-0.006469727,-0.009643555,0.1456299,0,0,0.1456299,0.1821899,4.051,0,0,0,0.1400146,nan,4,12.138,1,128,0.1694946,0.1907349,0.1654053,0.203064,0,0,0,1,6,0
4916.978,0.001,0.0625,0.09179688,-0.0546875,0.0078125,1.609375,10.67188,0.009765625,0.0234375,-0.05273438,0.0390625,0.05859375,0,-0.006591797,-0.009643555,0.1450195,0,0,0.1450195,0.1838684,4.051,0,0,0,0.1400146,nan,4,12.148,1,128,0.1624451,0.2002869,0.1723022,0.2004089,0,0,0,1,6,0
4916.988,0.001,0.0078125,-0.015625,-0.05664062,0.7265625,-2.554688,5.625,-0.00390625,0.009765625,-0.0546875,0.0390625,0.0546875,0,-0.006591797,-0.009277344,0.1446533,0,0,0.1446533,0.1855469,4.051,0,0,0,0.1400146,nan,4,12.158,1,128,0.1634827,0.2206116,0.1430664,0.2150269,0,0,0,1,6,0
4916.998,0.001,0.04882812,0.05078125,-0.04296875,-1.015625,5.34375,14.44531,0.0078125,0.01953125,-0.046875,0.0390625,0.05664062,0,-0.006469727,-0.009399414,0.144165,0,0,0.144165,0.1872253,4.051,0,0,0,0.1400146,nan,4,12.168,1,128,0.1764526,0.1932678,0.1767883,0.2024536,0,0,0,1,6,0
4917.009,0.00088,0.01953125,0.03515625,-0.04101562,-0.046875,-10.45312,5.335938,-0.00390625,0.01953125,-0.0390625,0.0390625,0.05664062,0,-0.006347656,-0.009277344,0.1436768,0,0,0.1436768,0.1889038,4.051,0,0,0,0.1400146,nan,4,12.179,1,128,0.1871643,0.1891785,0.1811218,0.1982117,0,0,0,1,6,0
4917.019,0.00101,0.005859375,0.0625,-0.03125,0.5625,-3.703125,5.09375,0.009765625,0.01953125,-0.04296875,0.03710938,0.0546875,0,-0.006225586,-0.009033203,0.1431885,0,0,0.1431885,0.1906128,4.051,0,0,0,0.1400146,nan,4,12.189,1,128,0.1974792,0.1860352,0.1885986,0.1902771,0,0,0,1,6,0
4917.029,0.00101,-0.05273438,0.0234375,-0.015625,0.1328125,5.921875,11.69531,-0.04492188,0.0234375,-0.01757812,0.0390625,0.05273438,0,-0.006469727,-0.008789062,0.1428223,0,0,0.1428223,0.1922913,4.051,0,0,0,0.1400146,nan,4,12.199,1,128,0.223114,0.1645508,0.2004089,0.1810608,0,0,0,1,6,0
4917.039,0.00101,-0.001953125,-0.03710938,-0.05273438,-0.203125,4.726562,19.20312,-0.02148438,-0.0078125,-0.05273438,0.04101562,0.05273438,0,-0.006835938,-0.008666992,0.1424561,0,0,0.1424561,0.1939697,4.051,0,0,0,0.1400146,nan,4,12.209,1,128,0.15625,0.2489319,0.1366882,0.2339783,0,0.0009765625,0,1,6,0
4917.048,0.001018,-0.09765625,-0.07226562,-0.015625,2.226562,-1.671875,11.88281,-0.03320312,0.0078125,-0.02929688,0.04101562,0.05273438,0,-0.006713867,-0.008666992,0.1422119,0,0,0.1422119,0.1954956,4.051,0,0,0,0.1400146,nan,4,12.218,1,128,0.2142639,0.1835938,0.1830444,0.2010193,0,0.0009765625,0,1,6,0
4917.058,0.001021,0.01171875,0.02734375,-0.04101562,-0.15625,8.257812,13.05469,-0.01367188,0.005859375,-0.03125,0.04101562,0.05273438,0,-0.006958008,-0.008666992,0.1419678,0,0,0.1419678,0.1971741,4.051,0,0,0,0.1400146,nan,4,12.228,1,128,0.1777039,0.2225342,0.1655579,0.2228394,0.0009765625,0.0009765625,0,1,6,0
4917.068,0.001013,0.0625,-0.0546875,-0.0546875,-1.601562,6.46875,9.820312,-0.02539062,-0.005859375,-0.03710938,0.04296875,0.05078125,0,-0.007324219,-0.008544922,0.1417236,0,0,0.1417236,0.1988525,4.051,0,0,0,0.1400146,nan,4,12.238,1,128,0.1817017,0.2330017,0.1618652,0.2188416,0.0009765625,0.0009765625,0,1,6,0
4917.079,0.001064,0.005859375,0.03710938,-0.015625,-0.140625,4.742188,14.1875,-0.005859375,0.0234375,-0.02929688,0.04296875,0.05078125,0,-0.007324219,-0.008544922,0.1412354,0,0,0.1412354,0.200531,4.051,0,0,0,0.1400146,nan,4,12.248,1,128,0.2159424,0.1827393,0.213562,0.1899109,0.0009765625,0.0009765625,0,1,6,0
4917.088,0.001016,0.001953125,0.078125,0.0078125,0.78125,4.820312,16.74219,0.01953125,0.01367188,-0.01171875,0.04296875,0.05078125,0,-0.007202148,-0.008300781,0.1409912,0,0,0.1409912,0.2022095,4.051,0,0,0,0.1400146,nan,4,12.258,1,128,0.2268677,0.1800842,0.2257385,0.176178,0.0009765625,0.0009765625,0,1,6,0
4917.099,0.001016,0.02734375,0.02734375,-0.03515625,3.523438,0.7578125,7.28125,0.001953125,0.01171875,-0.04296875,0.04492188,0.04882812,0,-0.007446289,-0.008300781,0.1407471,0,0,0.1407471,0.2038879,4.051,0,0,0,0.1400146,nan,4,12.268,1,128,0.1579285,0.2556152,0.1519165,0.2501221,0.0009765625,0.0009765625,0,1,6,0
4917.109,0.001016,0.03515625,-0.02929688,-0.00390625,2.351562,5.492188,3.992188,-0.00390625,-0.015625,-0.0078125,0.04492188,0.05078125,0,-0.007568359,-0.008300781,0.1405029,0,0,0.1405029,0.2055664,4.051,0,0,0,0.1400146,nan,4,12.279,1,128,0.2410889,0.183197,0.2264709,0.1716003,0.0009765625,0.0009765625,0,1,6,0
4917.119,0.001016,0.04492188,0.0546875,0.0078125,2.84375,3.820312,5.53125,0.005859375,-0.00390625,0,0.04492188,0.05078125,0,-0.007568359,-0.008422852,0.1405029,0,0,0.1405029,0.2072754,4.051,0,0,0,0.1400146,nan,4,12.289,1,128,0.2249451,0.1949463,0.2207642,0.1884155,0.0009765625,0.0009765625,0,1,6,0
4917.129,0.001016,0.06054688,0.02148438,-0.02734375,-0.4609375,5.132812,16.47656,0.015625,0.02539062,-0.001953125,0.046875,0.04882812,0,-0.00769043,-0.008178711,0.140625,0,0,0.140625,0.2089539,4.051,0,0,0,0.1400146,nan,4,12.299,1,128,0.1822815,0.2347717,0.1865845,0.2321472,0.0009765625,0.0009765625,0,1,6,0
4917.139,0.001016,0.015625,-0.03125,0.1035156,1.789062,1.523438,19.60938,-0.01953125,0.00390625,0.06640625,0.046875,0.04882812,0,-0.0078125,-0.008178711,0.1408691,0,0,0.1408691,0.2106323,4.051,0,0,0,0.1400146,nan,4,12.309,1,128,0.3159485,0.1146545,0.2967834,0.1151428,0.0009765625,0.0009765625,0,1,6,0
4917.148,0.001004,-0.08203125,0.1640625,-0.0859375,-0.25,-11.15625,9.265625,-0.005859375,0.03320312,-0.02539062,0.046875,0.04882812,0,-0.0078125,-0.008300781,0.1411133,0,0,0.1411133,0.2121582,4.058,0,0,0,0.1400146,nan,4,12.318,1,128,0.1033936,0.305603,0.1074219,0.3321838,0.0009765625,0.0009765625,0,1,6,0
4917.158,0.001012,-0.09960938,0.1171875,-0.05078125,-2.484375,-2.648438,9,-0.1035156,0.06835938,-0.07421875,0.05078125,0.046875,0,-0.008422852,-0.00793457,0.1402588,0,0,0.1402588,0.2138367,4.058,0,0,0,0.1400146,nan,4,12.328,1,128,0.1971741,0.214447,0.1696472,0.2740784,0.0009765625,0.0009765625,0,1,6,0.1746032
4917.168,0.001003,-0.1425781,0.04882812,0.05273438,1.242188,-5.804688,12.72656,-0.03515625,0.005859375,0.03125,0.05078125,0.04492188,0,-0.008544922,-0.007568359,0.1402588,0,0,0.1402588,0.2155151,4.058,0,0,0,0.1400146,nan,4,12.338,1,128,0.3143311,0.1282349,0.281189,0.1383057,0.0009765625,0.0009765625,0,1,6,0
4917.178,0.001002,0.00390625,0.05664062,0.1054688,-0.1953125,-2.53125,8.515625,-0.001953125,0.001953125,0.0859375,0.05273438,0.04492188,0,-0.008789062,-0.007446289,0.1407471,0,0,0.1407471,0.2171936,4.058,0,0,0,0.1400146,nan,4,12.348,1,128,0.3172913,0.1261902,0.3034973,0.1218262,0.0009765625,0.0009765625,0,1,6,0
4917.188,0.001004,-0.03515625,-0.0078125,-0.005859375,1.75,-0.53125,5.429688,0.009765625,0.01367188,0.03125,0.05273438,0.04492188,0,-0.008789062,-0.007446289,0.1414795,0,0,0.1414795,0.2188721,4.058,0,0,0,0.1400146,nan,4,12.358,1,128,0.1642761,0.2759705,0.1557922,0.27948,0.0009765625,0.0009765625,0,1,6,0
4917.198,0.001004,0.07617188,0.0078125,0.0546875,-2.054688,8.117188,13.85156,0.02734375,0.01367188,0.0078125,0.05078125,0.04492188,0,-0.008544922,-0.007446289,0.1414795,0,0,0.1414795,0.2205505,4.058,0,0,0,0.1400146,nan,4,12.368,1,128,0.2362671,0.2086792,0.2309875,0.2062988,0.0009765625,0.0009765625,0,1,6,0
4917.209,0.001004,-0.06640625,-0.04296875,0.1386719,-0.9296875,1.351562,7.984375,-0.06640625,0.02539062,0.09960938,0.05273438,0.04101562,0,-0.008666992,-0.006958008,0.1420898,0,0,0.1420898,0.2222595,4.058,0,0,0,0.1400146,nan,4,12.378,1,128,0.3612061,0.09368896,0.315094,0.118988,0.0009765625,0.0009765625,0,1,6,0
4917.219,0.000998,-0.015625,0.0390625,0.03710938,1.0625,1.375,6.289062,-0.01367188,0.005859375,0.07617188,0.0546875,0.04101562,0,-0.009033203,-0.006958008,0.1430664,0,0,0.1430664,0.223938,4.058,0,0,0,0.1400146,nan,4,12.389,1,128,0.2174377,0.2376099,0.2036743,0.2369995,0.001953125,0.0009765625,0,1,6,0
4917.229,0.001004,-0.03125,-0.03515625,0.04882812,0.828125,1.140625,4.773438,0.00390625,-0.02539062,0.04296875,0.0546875,0.04101562,0,-0.009033203,-0.006835938,0.1435547,0,0,0.1435547,0.2256165,4.058,0,0,0,0.1400146,nan,4,12.399,1,128,0.2365112,0.2338867,0.2096252,0.2223816,0.001953125,0.0009765625,0,1,6,0
4917.239,0.001004,-0.07226562,0.1972656,-0.02734375,-0.9765625,9.429688,14.65625,0.0078125,0.0546875,0.01171875,0.0546875,0.04296875,0,-0.009033203,-0.006958008,0.1439209,0,0,0.1439209,0.2272949,4.058,0,0,0,0.1400146,nan,4,12.409,1,128,0.1684875,0.2606201,0.1860046,0.2940674,0.001953125,0.0009765625,0,1,6,0
4917.248,0.001014,0.03710938,0.01953125,-0.01757812,-2.03125,8.546875,16.46094,0.02148438,0.02929688,-0.015625,0.0546875,0.04101562,0,-0.009155273,-0.006713867,0.1439209,0,0,0.1439209,0.2288208,4.058,0,0,0,0.1400146,nan,4,12.418,1,128,0.1937866,0.2674561,0.1930237,0.2609863,0.001953125,0.0009765625,0,1,6,0
4917.258,0.001014,-0.0546875,0.02539062,0.109375,1.007812,-5.414062,5.476562,-0.01757812,0.0078125,0.05078125,0.0546875,0.0390625,0,-0.009155273,-0.006591797,0.1439209,0,0,0.1439209,0.2304993,4.058,0,0,0,0.1400146,nan,4,12.428,1,128,0.343689,0.1247559,0.3165894,0.1369629,0.001953125,0.0009765625,0,1,6,0
4917.268,0.001015,0.03125,-0.02929688,0.02929688,2.203125,1.273438,7.890625,0.0234375,-0.03125,0.06640625,0.0546875,0.0390625,0,-0.009155273,-0.006591797,0.1447754,0,0,0.1447754,0.2321777,4.058,0,0,0,0.1400146,nan,4,12.438,1,128,0.2544861,0.2321777,0.2331238,0.2089233,0.001953125,0.0009765625,0,1,6,0
4917.278,0.001013,0.03515625,0,-0.06445312,1,2.335938,7.804688,-0.005859375,-0.01367188,-0.0390625,0.0546875,0.0390625,0,-0.009033203,-0.006713867,0.1446533,0,0,0.1446533,0.2338562,4.058,0,0,0,0.1400146,nan,4,12.448,1,128,0.1624451,0.3164673,0.1365967,0.3199463,0.001953125,0.0009765625,0,1,6,0
4917.288,0.001015,-0.04492188,0.04882812,-0.03515625,-1.960938,11,15.8125,0,0.01367188,-0.02148438,0.0546875,0.04101562,0,-0.008911133,-0.006713867,0.1442871,0,0,0.1442871,0.2355347,4.058,0,0,0,0.1400146,nan,4,12.458,1,128,0.2474365,0.2206726,0.2356567,0.2384033,0.001953125,0.001953125,0,1,6,0
4917.298,0.000867,-0.01367188,-0.02148438,0.009765625,-1.007812,-8,4.609375,-0.005859375,0.009765625,0.01171875,0.05273438,0.04101562,0,-0.009033203,-0.006713867,0.1444092,0,0,0.1442871,0,4.058,0,0,0,0.1400146,nan,4,12.468,0,0,0,0,0,0,0,0,0,1,6,1
4917.308,0.001003,0.05859375,0.109375,-0.02929688,2.648438,-2.8125,10.25781,0.01953125,0.0546875,-0.01171875,0.05273438,0.04101562,0,-0.008789062,-0.006591797,0.1442871,0,0,0.1442871,0,4.058,0,0,0,0.1400146,nan,4,12.478,0,0,0,0,0,0,0,0,0,1,6,0
4917.318,0.001012,0.0234375,0,0.09960938,-0.1484375,-3.210938,7.742188,0.015625,-0.0078125,0.05859375,0.05273438,0.04101562,0,-0.008789062,-0.006469727,0.1444092,0,0,0.1442871,0,4.058,0,0,0,0.1400146,nan,4,12.489,0,0,0,0,0,0,0,0,0,1,6,0
4917.328,0.001012,0.005859375,0.02929688,-0.04101562,-0.890625,-8.289062,9.179688,0.009765625,0,0.001953125,0.05273438,0.04101562,0,-0.008789062,-0.006469727,0.1448975,0,0,0.1442871,0,4.058,0,0,0,0.1400146,nan,4,12.499,0,0,0,0,0,0,0,0,0,1,6,0
4917.339,0.001019,-0.01953125,-0.01367188,-0.01171875,-1.921875,0.171875,4.859375,-0.005859375,-0.01171875,-0.015625,0.05273438,0.04101562,0,-0.008911133,-0.006469727,0.1447754,0,0,0.1442871,0,4.058,0,0,0,0.1400146,nan,4,12.509,0,0,0,0,0,0,0,0,0,1,6,0
4917.349,0.001012,-0.01171875,0.02929688,0.08203125,-2.578125,6.5625,8.835938,-0.01171875,0.02148438,0.05664062,0.05273438,0.04101562,0,-0.009033203,-0.006347656,0.1448975,0,0,0.1442871,0,4.058,0,0,0,0.1400146,nan,4,12.519,0,0,0,0,0,0,0,0,0,1,6,0
4917.359,0.00102,0.04101562,-0.02148438,0.0859375,-3.15625,-4.414062,7.921875,-0.00390625,0.00390625,0.07226562,0.05273438,0.04101562,0,-0.009399414,-0.006103516,0.1456299,0,0,0.1442871,0,4.058,0,0,0,0.1400146,nan,4,12.529,0,0,0,0,0,0,0,0,0,1,6,1
4917.369,0.001007,-0.00390625,-0.02148438,0.015625,1.414062,-4.5,2.09375,0,-0.00390625,0.04882812,0.05273438,0.04101562,0,-0.009521484,-0.006225586,0.1463623,0,0,0.1442871,0,4.058,0,0,0,0.1400146,nan,4,12.539,0,0,0,0,0,0,0,0,0,1,6,0
4917.378,0.001002,0.02539062,-0.02539062,-0.015625,-0.109375,-3.546875,12.4375,0.01171875,-0.01953125,-0.001953125,0.05273438,0.04101562,0,-0.009521484,-0.006347656,0.1464844,0,0,0.1442871,0,4.058,0,0,0,0.1400146,nan,4,12.548,0,0,0,0,0,0,0,0,0,1,6,0
4917.388,0.001009,0.04492188,-0.04296875,-0.02539062,1.03125,0.7421875,5.460938,-0.01757812,0.015625,-0.01757812,0.05273438,0.04101562,0,-0.009521484,-0.006225586,0.1463623,0,0,0.1442871,0,4.058,0,0,0,0.1400146,nan,4,12.558,0,0,0,0,0,0,0,0,0,1,6,0
4917.398,0.001001,-0.01171875,-0.001953125,-0.046875,-1.125,5.078125,9.539062,-0.005859375,-0.00390625,-0.05078125,0.05273438,0.04101562,0,-0.009643555,-0.006225586,0.1459961,0,0,0.1442871,0,4.058,0,0,0,0.1400146,nan,4,12.568,0,0,0,0,0,0,0,0,0,1,6,0
4917.408,0.001001,-0.015625,0,-0.015625,-0.2578125,-3.867188,11.03906,-0.01367188,0.01171875,-0.02734375,0.05273438,0.04101562,0,-0.009765625,-0.006225586,0.1455078,0,0,0.1442871,0,4.058,0,0,0,0.1400146,nan,4,12.578,0,0,0,0,0,0,0,0,0,1,6,0
4917.418,0.001001,0.01171875,-0.02539062,-0.06445312,2.796875,-1.664062,14.66406,0.005859375,-0.001953125,-0.03710938,0.05273438,0.04101562,0,-0.009765625,-0.006103516,0.1453857,0,0,0.1442871,0,4.058,0,0,0,0.1400146,nan,4,12.589,0,0,0,0,0,0,0,0,0,1,6,0
4917.428,0.001001,-0.00390625,-0.01367188,-0.08398438,-2.015625,-1.09375,10.27344,0.00390625,-0.00390625,-0.08398438,0.05273438,0.04101562,0,-0.009643555,-0.006103516,0.1446533,0,0,0.1442871,0,4.058,0,0,0,0.1400146,nan,4,12.599,0,0,0,0,0,0,0,0,0,1,6,1
4917.439,0.001001,-0.001953125,-0.0078125,-0.04101562,1.140625,-0.4921875,8.960938,0.009765625,-0.00390625,-0.05664062,0.05273438,0.04101562,0,-0.009521484,-0.006225586,0.1439209,0,0,0.1442871,0,4.058,0,0,0,0.1400146,nan,4,12.609,0,0,0,0,0,0,0,0,0,1,6,1
4917.449,0.001001,-0.001953125,-0.015625,-0.01757812,1.507812,-0.8828125,8.710938,0.00390625,0,-0.03125,0.05273438,0.04101562,0,-0.009521484,-0.006225586,0.1434326,0,0,0.1442871,0,4.058,0,0,0,0.1400146,nan,4,12.619,0,0,0,0,0,0,0,0,0,1,6,1
4917.459,0.001009,-0.03515625,-0.01953125,0.02539062,0.8125,3.617188,11.82812,-0.001953125,-0.01171875,0.0078125,0.05273438,0.04101562,0,-0.009521484,-0.006225586,0.1434326,0,0,0.1442871,0,4.058,0,0,0,0.1400146,nan,4,12.629,0,0,0,0,0,0,0,0,0,1,6,0
4917.469,0.001008,-0.001953125,-0.00390625,-0.001953125,0.59375,0.359375,9.898438,0,0.01171875,0.001953125,0.05273438,0.04101562,0,-0.009521484,-0.006225586,0.1434326,0,0,0.1442871,0,4.058,0,0,0,0.1400146,nan,4,12.639,0,0,0,0,0,0,0,0,0,1,6,1
4917.478,0.00102,0.009765625,0.01953125,0.05664062,0.5546875,-2.195312,9.632812,-0.001953125,-0.00390625,0.03320312,0.05273438,0.04101562,0,-0.009521484,-0.006225586,0.1435547,0,0,0.1442871,0,4.058,0,0,0,0.1400146,nan,4,12.648,0,0,0,0,0,0,0,0,0,1,6,1
4917.488,0.001021,0.01757812,0.00390625,0.04296875,-0.671875,1.023438,12.14844,-0.001953125,0.0078125,0.0546875,0.05273438,0.04101562,0,-0.009521484,-0.006225586,0.144165,0,0,0.1442871,0,4.058,0,0,0,0.1400146,nan,4,12.658,0,0,0,0,0,0,0,0,0,1,6,0
4917.498,0.001028,0.04882812,-0.046875,-0.0078125,0.0703125,-0.4765625,7.890625,0.01367188,-0.01171875,0.015625,0.05273438,0.04101562,0,-0.009521484,-0.006103516,0.1445312,0,0,0.1442871,0,4.058,0,0,0,0.1400146,nan,4,12.668,0,0,0,0,0,0,0,0,0,1,6,0
4917.508,0.001021,-0.00390625,-0.04101562,-0.0703125,-1.171875,1.09375,8.015625,-0.009765625,-0.01757812,-0.05078125,0.05273438,0.04101562,0,-0.009521484,-0.006225586,0.1442871,0,0,0.1442871,0,4.058,0,0,0,0.1400146,nan,4,12.678,0,0,0,0,0,0,0,0,0,1,6,0
4917.519,0.001074,-0.005859375,0,-0.04101562,-0.375,0.65625,11.60156,0.001953125,0.005859375,-0.05273438,0.05273438,0.04101562,0,-0.009399414,-0.006225586,0.1436768,0,0,0.1442871,0,4.058,0,0,0,0.1400146,nan,4,12.689,0,0,0,0,0,0,0,0,0,1,6,0
4917.529,0.001028,0.001953125,-0.01953125,-0.04101562,0.8046875,-1.195312,9.789062,0.01171875,-0.005859375,-0.03710938,0.05273438,0.04101562,0,-0.009399414,-0.006103516,0.1431885,0,0,0.1442871,0,4.058,0,0,0,0.1400146,nan,4,12.699,0,0,0,0,0,0,0,0,0,1,6,1
4917.539,0.001013,0.04882812,-0.04492188,-0.09375,-0.40625,0.921875,11.04688,0.005859375,-0.009765625,-0.06640625,0.05273438,0.04101562,0,-0.009399414,-0.006103516,0.1427002,0,0,0.1442871,0,4.058,0,0,0,0.1400146,nan,4,12.709,0,0,0,0,0,0,0,0,0,1,6,0
4917.549,0.001028,0.01171875,-0.01953125,-0.03125,0.0390625,2.101562,8.125,-0.009765625,0,-0.05078125,0.05273438,0.04101562,0,-0.009277344,-0.006103516,0.1420898,0,0,0.1442871,0,4.058,0,0,0,0.1400146,nan,4,12.719,0,0,0,0,0,0,0,0,0,1,6,0
4917.559,0.001021,-0.009765625,0.02539062,0,-0.3828125,-0.671875,9.125,0.0078125,-0.005859375,-0.00390625,0.05273438,0.04101562,0,-0.009155273,-0.006103516,0.1418457,0,0,0.1442871,0,4.058,0,0,0,0.1400146,nan,4,12.729,0,0,0,0,0,0,0,0,0,1,6,1
4917.569,0.001008,0.01171875,0.04882812,-0.02539062,0.78125,0.4453125,17.50781,0,0.01953125,-0.015625,0.05273438,0.04101562,0,-0.009155273,-0.006103516,0.1417236,0,0,0.1442871,0,4.058,0,0,0,0.1400146,nan,4,12.739,0,0,0,0,0,0,0,0,0,1,6,0
4917.578,0.001011,0.02734375,0.015625,0.00390625,0.625,3.328125,11.625,-0.0078125,0.00390625,0.00390625,0.05273438,0.04101562,0,-0.009277344,-0.006103516,0.1417236,0,0,0.1442871,0,4.058,0,0,0,0.1400146,nan,4,12.748,0,0,0,0,0,0,0,0,0,1,6,0
4917.588,0.001007,-0.001953125,0.00390625,-0.0234375,-0.2421875,2.429688,6.28125,0,-0.00390625,-0.015625,0.05273438,0.04101562,0,-0.009033203,-0.006103516,0.1416016,0,0,0.1442871,0,4.058,0,0,0,0.1400146,nan,4,12.758,0,0,0,0,0,0,0,0,0,1,6,0
4917.598,0.001007,-0.03515625,0.005859375,-0.01367188,-0.265625,-1.953125,6.148438,-0.0078125,-0.001953125,-0.009765625,0.05273438,0.04101562,0,-0.009033203,-0.006103516,0.1416016,0,0,0.1442871,0,4.058,0,0,0,0.1400146,nan,4,12.768,0,0,0,0,0,0,0,0,0,1,6,0
4917.608,0.001,-0.005859375,-0.015625,0,1.640625,-1.21875,3.265625,0.001953125,-0.001953125,-0.0078125,0.05273438,0.04101562,0,-0.009155273,-0.006103516,0.1414795,0,0,0.1442871,0,4.058,0,0,0,0.1400146,nan,4,12.778,0,0,0,0,0,0,0,0,0,1,6,0
4917.618,0.001007,-0.04101562,-0.00390625,0.0078125,-1.992188,-0.65625,1.960938,-0.00390625,0.005859375,0.001953125,0.05273438,0.04101562,0,-0.009033203,-0.006103516,0.1413574,0,0,0.1442871,0,4.058,0,0,0,0.1400146,nan,4,12.789,0,0,0,0,0,0,0,0,0,1,6,0
4917.629,0.001007,-0.00390625,0.01171875,-0.01953125,2.460938,4.945312,6.507812,-0.001953125,0.009765625,-0.005859375,0.05273438,0.04101562,0,-0.009033203,-0.005981445,0.1413574,0,0,0.1442871,0,4.058,0,0,0,0.1400146,nan,4,12.799,0,0,0,0,0,0,0,0,0,1,6,0
4917.639,0.000968,0.005859375,0.00390625,-0.001953125,1.515625,-1.703125,14.90625,0,0.0078125,-0.009765625,0.05273438,0.04101562,0,-0.009155273,-0.005981445,0.1413574,0,0,0.1442871,0,4.058,0,0,0,0,nan,4,0.007,0,0,0,0,0,0,0,0,0,1,6,0
4917.649,0.000992,0.015625,-0.0234375,0.01367188,-0.546875,-3.34375,10.16406,0.00390625,-0.00390625,-0.005859375,0.05273438,0.04101562,0,-0.009033203,-0.005981445,0.1412354,0,0,0.1442871,0,4.058,0,0,0,0,nan,4,0.017,0,0,0,0,0,0,0,0,0,1,6,1
4917.659,0.001005,-0.0546875,0.0234375,0.0078125,-1.09375,-2.828125,9.421875,-0.005859375,0,0.00390625,0.05273438,0.04101562,0,-0.009033203,-0.006103516,0.1412354,0,0,0.1442871,0,4.058,0,0,0,0,nan,4,0.027,0,0,0,0,0,0,0,0,0,1,6,1
4917.668,0.001031,-0.01171875,0.0390625,0.009765625,-4.320312,-1.804688,10.36719,-0.00390625,0.005859375,0.001953125,0.05273438,0.04101562,0,-0.009033203,-0.006225586,0.1412354,0,0,0.1442871,0,4.058,0,0,0,0,nan,4,0.036,0,0,0,0,0,0,0,0,0,1,6,0
4917.678,0.001,-0.03515625,0.00390625,-0.005859375,-1.734375,-6.070312,10.91406,0.001953125,-0.00390625,-0.01171875,nan,nan,nan,-0.008911133,-0.006225586,0.1412354,nan,nan,nan,0,4.058,0,0,0,0,nan,2,0.009,0,0,0,0,0,0,0,0,0,1,6,0
4917.688,0.000967,-0.009765625,-0.01953125,-0.0078125,2.546875,1.179688,9.492188,-0.005859375,-0.005859375,-0.005859375,nan,nan,nan,-0.008911133,-0.006225586,0.1411133,0,0,0.1411133,0,4.058,0,0,0,0,nan,2,0.019,0,0,0,0,0,0,0,0,0,1,2,1
4917.698,0.001013,-0.02148438,0.005859375,0.01953125,0.453125,0.34375,9.539062,-0.0078125,0,0.01953125,nan,nan,nan,-0.008911133,-0.006225586,0.1412354,0,0,0.1412354,0,4.058,0,0,0,0,nan,2,0.029,0,0,0,0,0,0,0,0,0,1,2,1
4917.708,0.001014,0.06054688,0.01367188,-0.02539062,0.953125,5.679688,9.429688,0.0078125,0,-0.015625,nan,nan,nan,-0.008911133,-0.006225586,0.1412354,0,0,0.1412354,0,4.058,0,0,0,0,nan,2,0.039,0,0,0,0,0,0,0,0,0,1,2,0
4917.718,0.001007,-0.02148438,0.01953125,0.005859375,0.3125,-0.3046875,10.58594,-0.009765625,0.00390625,-0.009765625,nan,nan,nan,-0.008911133,-0.006103516,0.1409912,0,0,0.1409912,0,4.058,0,0,0,0,nan,2,0.049,0,0,0,0,0,0,0,0,0,1,2,1
4917.729,0.001021,0.02734375,-0.05078125,0.02148438,3.179688,1.15625,9.078125,0.001953125,-0.01171875,0.01367188,nan,nan,nan,-0.008789062,-0.006225586,0.1409912,0,0,0.1409912,0,4.058,0,0,0,0,nan,2,0.06,0,0,0,0,0,0,0,0,0,1,2,1
4917.739,0.001201,-0.0546875,-0.02734375,-0.01367188,1.085938,-1.773438,10.08594,-0.001953125,0.005859375,-0.015625,nan,nan,nan,-0.008544922,-0.005981445,0.1409912,0,0,0.1409912,0,4.058,0,0,0,0,nan,2,0.069,0,0,0,0,0,0,0,0,0,1,2,1
4917.748,0.001017,-0.01757812,0.04101562,-0.001953125,-1.242188,0.0078125,10.57031,-0.005859375,0.01367188,-0.015625,nan,nan,nan,-0.008544922,-0.005859375,0.1408691,0,0,0.1408691,0,4.058,0,0,0,0,nan,2,0.079,0,0,0,0,0,0,0,0,0,1,2,1
4917.758,0.001019,-0.04492188,0.03710938,0.04492188,-0.390625,-1.632812,10.35156,-0.01367188,0.001953125,0.009765625,nan,nan,nan,-0.008544922,-0.005859375,0.1408691,0,0,0.1408691,0,4.058,0,0,0,0,nan,2,0.089,0,0,0,0,0,0,0,0,0,1,2,1
4917.769,0.001012,-0.04492188,0.04492188,-0.001953125,-1.21875,-0.3984375,10.14844,-0.01367188,0.01757812,0.009765625,nan,nan,nan,-0.008544922,-0.005859375,0.1409912,0,0,0.1409912,0,4.058,0,0,0,0,nan,2,0.1,0,0,0,0,0,0,0,0,0,1,2,1
4917.779,0.001019,-0.05078125,0.03125,0.0078125,-1.203125,-1.460938,11.07812,-0.01367188,0.005859375,-0.009765625,nan,nan,nan,-0.008422852,-0.005859375,0.1408691,0,0,0.1408691,0,4.058,0,0,0,0,nan,2,0.11,0,0,0,0,0,0,0,0,0,1,2,0
4917.788,0.001012,-0.06054688,0.05078125,0.02539062,-0.8125,-0.4140625,10.57031,-0.00390625,-0.00390625,0.001953125,nan,nan,nan,-0.008422852,-0.005859375,0.1408691,0,0,0.1408691,0,4.058,0,0,0,0,nan,2,0.119,0,0,0,0,0,0,0,0,0,1,2,1
4917.798,0.000967,-0.05078125,0.02929688,-0.02734375,0.15625,0.4140625,9.976562,-0.005859375,-0.001953125,0.001953125,nan,nan,nan,-0.008300781,-0.005981445,0.1408691,0,0,0.1408691,0,4.077,0,0,0,0,nan,2,0.129,0,0,0,0,0,0,0,0,0,1,2,1
4917.808,0.001019,0.04882812,-0.0703125,-0.005859375,1.289062,0.3203125,8.617188,0.01171875,-0.02148438,-0.005859375,nan,nan,nan,-0.008300781,-0.005981445,0.1408691,0,0,0.1408691,0,4.077,0,0,0,0,nan,2,0.139,0,0,0,0,0,0,0,0,0,1,2,0
4917.818,0.001004,0.01757812,-0.05664062,0.04101562,-0.1484375,-0.296875,9.328125,-0.001953125,-0.0078125,0.00390625,nan,nan,nan,-0.008178711,-0.006103516,0.1408691,0,0,0.1408691,0,4.077,0,0,0,0,nan,2,0.149,0,0,0,0,0,0,0,0,0,1,2,1
4917.828,0.000951,-0.0625,0.03515625,0.005859375,-0.0390625,-0.5078125,10.92969,-0.0078125,0.00390625,0.001953125,nan,nan,nan,-0.008178711,-0.006103516,0.1408691,0,0,0.1408691,0,4.077,0,0,0,0,nan,2,0.159,0,0,0,0,0,0,0,0,0,1,2,0
4917.838,0.001013,-0.03515625,0.005859375,0.03515625,-0.359375,-0.40625,10.22656,-0.005859375,-0.00390625,0.00390625,nan,nan,nan,-0.008056641,-0.006103516,0.1408691,0,0,0.1408691,0,4.077,0,0,0,0,nan,2,0.169,0,0,0,0,0,0,0,0,0,1,2,1
4917.848,0.001005,-0.01367188,0.01953125,-0.0078125,0.015625,-0.6484375,10.11719,0,0.001953125,-0.001953125,nan,nan,nan,-0.008056641,-0.005981445,0.1408691,0,0,0.1408691,0,4.077,0,0,0,0,nan,2,0.179,0,0,0,0,0,0,0,0,0,1,2,1
4917.859,0.001028,-0.009765625,-0.0078125,0.00390625,-0.078125,0.59375,9.710938,0.001953125,-0.00390625,-0.005859375,nan,nan,nan,-0.00793457,-0.005981445,0.1408691,0,0,0.1408691,0,4.077,0,0,0,0,nan,2,0.189,0,0,0,0,0,0,0,0,0,1,2,1
4917.869,0.001042,0.01367188,-0.0078125,0,-0.078125,0.28125,9.5625,0,0.0078125,0.001953125,nan,nan,nan,-0.00793457,-0.005981445,0.1408691,0,0,0.1408691,0,4.077,0,0,0,0,nan,2,0.2,0,0,0,0,0,0,0,0,0,1,2,1
4917.879,0.00102,0.00390625,0.02734375,0.00390625,-0.2421875,-0.375,9.640625,-0.00390625,0.005859375,0.00390625,nan,nan,nan,-0.0078125,-0.005981445,0.1408691,0,0,0.1408691,0,4.077,0,0,0,0,nan,2,0.21,0,0,0,0,0,0,0,0,0,1,2,1
4917.889,0.000998,-0.01171875,0.01757812,0.005859375,0,0.015625,10.22656,0.001953125,-0.00390625,-0.001953125,nan,nan,nan,-0.0078125,-0.005981445,0.1408691,0,0,0.1408691,0,4.077,0,0,0,0,nan,2,0.22,0,0,0,0,0,0,0,0,0,1,2,1
4917.899,0.001006,0.01953125,-0.02539062,-0.01367188,0.25,-0.1328125,9,0.0078125,-0.0078125,0.00390625,nan,nan,nan,-0.00769043,-0.005859375,0.1409912,0,0,0.1409912,0,4.077,0,0,0,0,nan,2,0.23,0,0,0,0,0,0,0,0,0,1,2,1
4917.908,0.00102,0.009765625,0,0.001953125,-0.3828125,0.2265625,10.17969,0,0,-0.00390625,nan,nan,nan,-0.00769043,-0.005859375,0.1408691,0,0,0.1408691,0,4.077,0,0,0,0,nan,2,0.239,0,0,0,0,0,0,0,0,0,1,2,1
4917.918,0.001015,0.015625,-0.01367188,0.005859375,-0.1953125,0.046875,9.445312,0.00390625,-0.00390625,0.005859375,nan,nan,nan,-0.007568359,-0.005859375,0.1409912,0,0,0.1409912,0,4.077,0,0,0,0,nan,2,0.249,0,0,0,0,0,0,0,0,0,1,2,1
4917.928,0.001075,0.001953125,-0.01367188,-0.005859375,-0.1953125,0.3046875,9.867188,-0.00390625,-0.001953125,-0.005859375,nan,nan,nan,-0.007568359,-0.005859375,0.1409912,0,0,0.1409912,0,4.077,0,0,0,0,nan,2,0.259,0,0,0,0,0,0,0,0,0,1,2,1
4917.938,0.001013,0,0.001953125,0.01171875,0.1171875,-0.1640625,9.882812,0,0,0,nan,nan,nan,-0.007568359,-0.005981445,0.1409912,0,0,0.1409912,0,4.077,0,0,0,0,nan,2,0.269,0,0,0,0,0,0,0,0,0,1,2,1
4917.948,0.001013,-0.001953125,0.009765625,-0.005859375,-0.25,-0.4453125,9.367188,0.001953125,0.00390625,0.005859375,nan,nan,nan,-0.007446289,-0.005859375,0.1409912,0,0,0.1409912,0,4.077,0,0,0,0,nan,2,0.279,0,0,0,0,0,0,0,0,0,1,2,1
4917.958,0.001013,-0.0234375,-0.005859375,-0.00390625,-0.1328125,-0.0546875,9.585938,-0.005859375,-0.001953125,0.001953125,nan,nan,nan,-0.007446289,-0.005859375,0.1409912,0,0,0.1409912,0,4.077,0,0,0,0,nan,2,0.289,0,0,0,0,0,0,0,0,0,1,2,1
4917.969,0.001013,-0.005859375,0.005859375,-0.015625,-0.1953125,0.09375,9.953125,-0.001953125,0,-0.005859375,nan,nan,nan,-0.007324219,-0.005859375,0.1409912,0,0,0.1409912,0,4.077,0,0,0,0,nan,2,0.3,0,0,0,0,0,0,0,0,0,1,2,1
4917.979,0.001013,0.00390625,0,0.005859375,-0.25,0.3203125,9.914062,-0.00390625,-0.001953125,0.00390625,nan,nan,nan,-0.007324219,-0.005859375,0.1409912,0,0,0.1409912,0,4.077,0,0,0,0,nan,2,0.31,0,0,0,0,0,0,0,0,0,1,2,1
4917.989,0.001013,-0.00390625,0,0.001953125,0,-0.0078125,9.585938,0.001953125,0.001953125,-0.001953125,nan,nan,nan,-0.007324219,-0.005859375,0.1409912,0,0,0.1409912,0,4.077,0,0,0,0,nan,2,0.32,0,0,0,0,0,0,0,0,0,1,2,1
4917.999,0.001013,-0.005859375,-0.0078125,0.01171875,-0.2890625,0.1015625,9.796875,0,-0.005859375,0.005859375,nan,nan,nan,-0.007202148,-0.005859375,0.1409912,0,0,0.1409912,0,4.077,0,0,0,0,nan,2,0.33,0,0,0,0,0,0,0,0,0,1,2,1
4918.009,0.00102,-0.00390625,-0.005859375,-0.009765625,0.0859375,-0.28125,9.929688,0.00390625,0,0.001953125,nan,nan,nan,-0.007080078,-0.005859375,0.1409912,0,0,0.1409912,0,4.077,0,0,0,0,nan,2,0.34,0,0,0,0,0,0,0,0,0,1,2,1
4918.018,0.000991,0,-0.00390625,-0.01171875,0.03125,0.0546875,9.898438,-0.001953125,-0.001953125,-0.005859375,nan,nan,nan,-0.007080078,-0.005859375,0.1409912,0,0,0.1409912,0,4.077,0,0,0,0,nan,2,0.349,0,0,0,0,0,0,0,0,0,1,2,1
4918.028,0.001005,0.005859375,0.001953125,0.0078125,0.203125,-0.0546875,9.804688,0.001953125,0.001953125,0.001953125,nan,nan,nan,-0.007080078,-0.005859375,0.1409912,0,0,0.1409912,0,4.077,0,0,0,0,nan,2,0.359,0,0,0,0,0,0,0,0,0,1,2,1
4918.038,0.001,-0.0078125,-0.001953125,0.0078125,-0.09375,0.03125,9.835938,-0.00390625,-0.001953125,-0.001953125,nan,nan,nan,-0.007080078,-0.005859375,0.1409912,0,0,0.1409912,0,4.077,0,0,0,0,nan,2,0.369,0,0,0,0,0,0,0,0,0,1,2,1
4918.048,0.001047,0.005859375,0.005859375,-0.00390625,-0.03125,0,9.6875,0.001953125,0,0,nan,nan,nan,-0.006958008,-0.005737305,0.1409912,0,0,0.1409912,0,4.077,0,0,0,0,nan,2,0.379,0,0,0,0,0,0,0,0,0,1,2,1
4918.058,0.001004,-0.001953125,0.001953125,0.00390625,0,0.1796875,9.914062,-0.001953125,0,0.001953125,nan,nan,nan,-0.006958008,-0.005737305,0.1409912,0,0,0.1409912,0,4.077,0,0,0,0,nan,2,0.389,0,0,0,0,0,0,0,0,0,1,2,1
4918.069,0.001004,-0.00390625,0.001953125,-0.009765625,0.125,0.0234375,9.773438,0,0,-0.001953125,nan,nan,nan,-0.006958008,-0.005737305,0.1409912,0,0,0.1409912,0,4.077,0,0,0,0,nan,2,0.399,0,0,0,0,0,0,0,0,0,1,2,1
4918.079,0.001005,-0.00390625,0.005859375,-0.00390625,0.109375,0.1328125,9.835938,-0.001953125,0.001953125,-0.00390625,nan,nan,nan,-0.006835938,-0.005737305,0.1408691,0,0,0.1408691,0,4.077,0,0,0,0,nan,2,0.41,0,0,0,0,0,0,0,0,0,1,2,1
4918.089,0.001003,-0.001953125,0.005859375,0.001953125,0.09375,0.078125,9.804688,-0.001953125,0.00390625,0.00390625,nan,nan,nan,-0.006835938,-0.005737305,0.1409912,0,0,0.1409912,0,4.077,0,0,0,0,nan,2,0.42,0,0,0,0,0,0,0,0,0,1,2,1
4918.099,0.001005,0,-0.001953125,0.001953125,0.1953125,-0.0390625,9.726562,0,0.001953125,-0.00390625,nan,nan,nan,-0.006713867,-0.005737305,0.1409912,0,0,0.1409912,0,4.077,0,0,0,0,nan,2,0.43,0,0,0,0,0,0,0,0,0,1,2,1
4918.108,0.001067,-0.001953125,0,0.0078125,-0.015625,-0.046875,9.804688,0.001953125,0,0.00390625,nan,nan,nan,-0.006713867,-0.005737305,0.1409912,0,0,0.1409912,0,4.077,0,0,0,0,nan,2,0.439,0,0,0,0,0,0,0,0,0,1,2,1
4918.118,0.001018,0.001953125,-0.00390625,-0.005859375,0.1328125,0.046875,9.75,0,0,0,nan,nan,nan,-0.006713867,-0.005615234,0.1409912,0,0,0.1409912,0,4.077,0,0,0,0,nan,2,0.449,0,0,0,0,0,0,0,0,0,1,2,1
4918.128,0.00101,-0.00390625,0,0,-0.015625,0.0703125,9.820312,0,-0.001953125,0,nan,nan,nan,-0.006591797,-0.005737305,0.1409912,0,0,0.1409912,0,4.077,0,0,0,0,nan,2,0.459,0,0,0,0,0,0,0,0,0,1,2,1
4918.138,0.001017,-0.00390625,0,0.001953125,0.0859375,0.0390625,9.796875,-0.001953125,0,0.001953125,nan,nan,nan,-0.006591797,-0.005615234,0.1409912,0,0,0.1409912,0,4.077,0,0,0,0,nan,2,0.469,0,0,0,0,0,0,0,0,0,1,2,1
4918.148,0.001018,-0.00390625,-0.001953125,-0.001953125,0.0078125,0.0546875,9.8125,-0.001953125,-0.001953125,-0.001953125,nan,nan,nan,-0.006591797,-0.005615234,0.1409912,0,0,0.1409912,0,4.077,0,0,0,0,nan,2,0.479,0,0,0,0,0,0,0,0,0,1,2,1
4918.158,0.001017,-0.001953125,0.00390625,0,0.03125,-0.0390625,9.789062,-0.001953125,0,-0.001953125,nan,nan,nan,-0.006469727,-0.005615234,0.1409912,0,0,0.1409912,0,4.077,0,0,0,0,nan,2,0.489,0,0,0,0,0,0,0,0,0,1,2,1
4918.169,0.001013,-0.001953125,0.001953125,0.001953125,0.0546875,0.046875,9.828125,-0.001953125,0,0.001953125,nan,nan,nan,-0.006469727,-0.005615234,0.1409912,0,0,0.1409912,0,4.077,0,0,0,0,nan,2,0.499,0,0,0,0,0,0,0,0,0,1,2,1
4918.179,0.001045,-0.001953125,0,-0.001953125,0.015625,0,9.804688,-0.001953125,0,0.001953125,nan,nan,nan,-0.006469727,-0.005615234,0.1409912,0,0,0.1409912,0,4.077,0,0,0,0,nan,2,0.51,0,0,0,0,0,0,0,0,0,1,2,1
4918.189,0.001013,-0.00390625,0.001953125,-0.001953125,0.078125,0.0546875,9.851562,-0.001953125,0,0,nan,nan,nan,-0.006347656,-0.005615234,0.1409912,0,0,0.1409912,0,4.077,0,0,0,0,nan,2,0.52,0,0,0,0,0,0,0,0,0,1,2,1
4918.199,0.001013,-0.001953125,0.001953125,0,0.0546875,0.015625,9.867188,-0.001953125,0,-0.001953125,nan,nan,nan,-0.006347656,-0.005615234,0.1409912,0,0,0.1409912,0,4.077,0,0,0,0,nan,2,0.53,0,0,0,0,0,0,0,0,0,1,2,1
4918.209,0.001012,0.00390625,0.001953125,0.001953125,0.03125,0.0546875,9.8125,0,0,0,nan,nan,nan,-0.006347656,-0.005615234,0.1408691,0,0,0.1408691,0,4.077,0,0,0,0,nan,2,0.54,0,0,0,0,0,0,0,0,0,1,2,1
4918.218,0.001001,0,0,0.001953125,0.0546875,-0.0234375,9.796875,0,0,0.001953125,nan,nan,nan,-0.006225586,-0.005615234,0.1409912,0,0,0.1409912,0,4.077,0,0,0,0,nan,2,0.549,0,0,0,0,0,0,0,0,0,1,2,1
4918.228,0.001008,-0.001953125,0.001953125,-0.001953125,0.046875,0.0078125,9.765625,-0.001953125,0,0,nan,nan,nan,-0.006225586,-0.005615234,0.1409912,0,0,0.1409912,0,4.077,0,0,0,0,nan,2,0.559,0,0,0,0,0,0,0,0,0,1,2,1
4918.238,0.001006,0,-0.001953125,-0.00390625,0.0234375,-0.0078125,9.851562,0,0,-0.001953125,nan,nan,nan,-0.006225586,-0.005615234,0.1409912,0,0,0.1409912,0,4.077,0,0,0,0,nan,2,0.569,0,0,0,0,0,0,0,0,0,1,2,1
4918.248,0.001006,-0.001953125,0.00390625,-0.00390625,0.0859375,0,9.78125,0,0.001953125,-0.001953125,nan,nan,nan,-0.006103516,-0.005615234,0.1408691,0,0,0.1408691,0,4.077,0,0,0,0,nan,2,0.579,0,0,0,0,0,0,0,0,0,1,2,1
4918.258,0.001006,0,0,-0.001953125,0,-0.015625,9.84375,-0.001953125,0,-0.00390625,nan,nan,nan,-0.006103516,-0.005493164,0.1408691,0,0,0.1408691,0,4.077,0,0,0,0,nan,2,0.589,0,0,0,0,0,0,0,0,0,1,2,1
4918.268,0.001004,0,0,0.001953125,0.078125,0.0390625,9.820312,-0.001953125,0,0,nan,nan,nan,-0.006103516,-0.005493164,0.1408691,0,0,0.1408691,0,4.077,0,0,0,0,nan,2,0.599,0,0,0,0,0,0,0,0,0,1,2,1
4918.279,0.001006,-0.001953125,0,0.001953125,0.0390625,0.015625,9.789062,-0.001953125,0,0.001953125,nan,nan,nan,-0.006103516,-0.005493164,0.1408691,0,0,0.1408691,0,4.077,0,0,0,0,nan,2,0.61,0,0,0,0,0,0,0,0,0,1,2,1
4918.289,0.001006,-0.001953125,0,0.001953125,0.015625,-0.0078125,9.804688,-0.001953125,0,0,nan,nan,nan,-0.005981445,-0.005493164,0.1408691,0,0,0.1408691,0,4.077,0,0,0,0,nan,2,0.62,0,0,0,0,0,0,0,0,0,1,2,1
