t,dt_s,gyro_x,gyro_y,gyro_z,acc_x,acc_y,acc_z,rates.x,rates.y,rates.z,ratesTarget.x,ratesTarget.y,ratesTarget.z,attitude.x,attitude.y,attitude.z,attitudeTarget.x,attitudeTarget.y,attitudeTarget.z,thrustTarget,battery_v,rc_roll,rc_pitch,rc_yaw,rc_throttle,rc_mode,flight_mode,rc_age_s,armed,fault_mask,motor_rl,motor_rr,motor_fr,motor_fl,rate_i_x,rate_i_y,rate_i_z,mix_scale,control_source,accel_correction_confidence,route_revision,route_schema,route_step,route_state,route_target_z,route_actual_z,route_target_yaw,route_actual_yaw,route_flow_x,route_flow_y,route_quality,route_termination_reason,magnetic_yaw,navigation_yaw,magnetic_innovation,magnetometer_flags
74.916,0.001199,0.005859375,0.005859375,-0.0078125,-0.171875,-0.078125,12.65625,0.00390625,0.001953125,-0.00390625,-0.05273438,-0.2304688,0.06054688,0.008666992,0.03845215,-0.01965332,0,0,0.0002441406,0.6375122,4.09,0,0,0,0.4799805,nan,4,6.489,1,0,0.4176941,0.5608521,0.7944946,0.7770691,-0.03613281,-0.1328125,0.001953125,1,3,0,1,2,3,3,1,-0.18,0,-0.02,0,0,155,0,0,-0.02,0,36
74.926,0.001073,0.01367188,0.01953125,-0.01953125,1.828125,1.578125,6.671875,0.005859375,0.01367188,-0.0078125,-0.05273438,-0.2304688,0.06054688,0.008666992,0.03845215,-0.01965332,0,0,0.0002441406,0.6340332,4.09,0,0,0,0.4799805,nan,4,6.499,1,0,0.413147,0.5574341,0.792572,0.7730103,-0.03613281,-0.1328125,0.001953125,1,3,0,1,2,3,3,1,-0.18,0,-0.02,0,0,151,0,0,-0.02,0,36
74.936,0.000945,0.001953125,-0.06054688,0.01367188,-2.476562,1.40625,12.60156,0.005859375,0.001953125,0.005859375,-0.05273438,-0.2324219,0.06054688,0.008666992,0.03857422,-0.01977539,0,0,0.0002441406,0.6275635,4.09,0,0,0,0.4799805,nan,4,6.509,1,0,0.4425049,0.524231,0.8103638,0.7332153,-0.03613281,-0.1328125,0.001953125,1,3,0,1,2,3,3,1,-0.16,0,-0.02,0,0,153,0,0,-0.02,0,36
74.946,0.000936,-0.001953125,-0.0234375,0.0078125,1.921875,-2.476562,8.007812,-0.001953125,-0.009765625,0.005859375,-0.05273438,-0.2324219,0.06054688,0.008666992,0.03857422,-0.01965332,0,0,0.0002441406,0.6211548,4.09,0,0,0,0.4799805,nan,4,6.519,1,0,0.4234619,0.5295715,0.7912292,0.7403259,-0.03613281,-0.1337891,0.001953125,1,3,0,1,2,3,3,1,-0.16,0,-0.02,0,0,153,0,0,-0.02,0,36
74.956,0.001055,0.005859375,-0.01367188,-0.0078125,-0.7734375,6.132812,12.625,0.00390625,0.001953125,-0.009765625,-0.05273438,-0.2324219,0.06054688,0.008666992,0.03857422,-0.01977539,0,0,0.0002441406,0.6143188,4.09,0,0,0,0.4799805,nan,4,6.529,1,0,0.3964233,0.5371704,0.7713318,0.7523193,-0.03613281,-0.1337891,0.001953125,1,3,0,1,2,3,3,1,-0.14,0,-0.02,0,0,145,0,0,-0.02,0,36
74.966,0.001445,0.01367188,0.01367188,0.0234375,1.273438,-4.140625,9.992188,0.005859375,-0.00390625,0.001953125,-0.05273438,-0.2324219,0.06054688,0.008789062,0.03857422,-0.01977539,0,0,0.0002441406,0.6080627,4.09,0,0,0,0.4799805,nan,4,6.539,1,0,0.4151001,0.5074463,0.7883301,0.721344,-0.03613281,-0.1337891,0.001953125,1,3,0,1,2,3,3,1,-0.13,0,-0.02,0,0,135,0,0,-0.02,0,36
74.976,0.00167,0.01367188,0.009765625,0.015625,-1.164062,8.078125,12.51562,-0.00390625,-0.00390625,0.001953125,-0.05273438,-0.2304688,0.06054688,0.008666992,0.03845215,-0.01977539,0,0,0.0002441406,0.6013489,4.09,0,0,0,0.4799805,nan,4,6.549,1,0,0.399292,0.5074463,0.7722778,0.7264099,-0.03613281,-0.1337891,0.001953125,1,3,0,1,2,3,3,1,-0.12,0,-0.02,0,0,147,0,0,-0.02,0,36
74.986,0.001014,0.015625,-0.03320312,0.0078125,-0.7265625,-8.382812,5.78125,-0.0078125,-0.01171875,0.00390625,-0.05078125,-0.2304688,0.06054688,0.008666992,0.03845215,-0.01977539,0,0,0.0002441406,0.5948792,4.09,0,0,0,0.4799805,nan,4,6.558,1,0,0.3961182,0.4995117,0.7680359,0.7157898,-0.03613281,-0.1347656,0.001953125,1,3,0.07936508,1,2,3,3,1,-0.11,0,-0.02,0,0,148,0,0,-0.02,0,36
74.996,0.001004,-0.009765625,0.0234375,-0.001953125,-0.8671875,4.40625,13.53125,0.00390625,0.001953125,0.001953125,-0.05078125,-0.2304688,0.06054688,0.008544922,0.03833008,-0.01977539,0,0,0.0002441406,0.5883484,4.09,0,0,0,0.4799805,nan,4,6.568,1,0,0.3739624,0.5012817,0.7559814,0.7221375,-0.03613281,-0.1347656,0.001953125,1,3,0,1,2,3,3,1,-0.1,0,-0.02,0,0,148,0,0,-0.02,0,36
75.007,0.000936,-0.04101562,-0.03125,0.005859375,1.421875,-1.632812,14.26562,-0.01953125,-0.005859375,-0.005859375,-0.05078125,-0.2304688,0.06054688,0.008544922,0.03845215,-0.01989746,0,0,0.0002441406,0.5812683,4.09,0,0,0,0.4799805,nan,4,6.579,1,0,0.3798218,0.4894714,0.7416382,0.7141724,-0.03613281,-0.1347656,0.001953125,1,3,0,1,2,3,3,1,-0.09,0,-0.02,0,0,147,0,0,-0.02,0,36
75.017,0.000998,-0.05078125,-0.001953125,-0.015625,-0.078125,2.242188,7.34375,-0.01757812,-0.0078125,-0.005859375,-0.05078125,-0.2304688,0.06054688,0.008544922,0.03833008,-0.01989746,0,0,0.0002441406,0.574646,4.09,0,0,0,0.4799805,nan,4,6.589,1,0,0.3594971,0.4931335,0.725769,0.7202454,-0.03613281,-0.1347656,0.001953125,1,3,0,1,2,3,3,1,-0.08,0,-0.02,0,0,137,0,0,-0.02,0,36
75.026,0.001022,0.05859375,0.03320312,-0.009765625,-1.6875,-3.585938,13.42969,0.0234375,0.01171875,-0.0078125,-0.05078125,-0.2304688,0.06054688,0.008544922,0.03833008,-0.01989746,0,0,0.0002441406,0.5683289,4.09,0,0,0,0.4799805,nan,4,6.599,1,0,0.3500366,0.4842529,0.742218,0.6968079,-0.03613281,-0.1357422,0.001953125,1,3,0,1,2,3,3,1,-0.07,0,-0.02,0,0,149,0,0,-0.02,0,36
75.036,0.001141,-0.03320312,0.02539062,-0.001953125,0.90625,-3.015625,6.976562,0,0.001953125,0.005859375,-0.05273438,-0.2304688,0.06054688,0.008789062,0.03845215,-0.01989746,0,0,0.0002441406,0.5636597,4.09,0,0,0,0.4799805,nan,4,6.609,1,0,0.3683167,0.4603882,0.7425537,0.6833801,-0.03613281,-0.1357422,0.001953125,1,3,0,1,2,3,3,1,-0.06,0,-0.02,0,0,145,0,0,-0.02,0,36
75.046,0.000936,0.01367188,-0.02539062,0.01757812,-1.484375,1.3125,10.88281,0.005859375,0,0.001953125,-0.05078125,-0.2304688,0.06054688,0.008544922,0.03845215,-0.01989746,0,0,0.0002441406,0.5701904,4.09,0,0,0,0.4799805,nan,4,6.619,1,0,0.3691406,0.473175,0.7527771,0.6856689,-0.03613281,-0.1357422,0.001953125,1,3,0,1,2,3,3,1,-0.06,0,-0.02,0,0,143,0,0,-0.02,0,36
75.056,0.001021,-0.001953125,-0.0234375,0,0.734375,-1.71875,8.625,-0.01367188,-0.005859375,-0.001953125,-0.05078125,-0.2304688,0.06054688,0.008544922,0.03845215,-0.02001953,0,0,0.0002441406,0.5768127,4.09,0,0,0,0.4799805,nan,4,6.629,1,0,0.369812,0.4858398,0.7442932,0.7073364,-0.03613281,-0.1357422,0.001953125,1,3,0,1,2,3,3,1,-0.07,0,-0.02,0,0,143,0,0,-0.02,0,36
75.066,0.000999,0.02929688,-0.0078125,0.005859375,-1.25,-6.617188,4.226562,0.0078125,0.00390625,-0.001953125,-0.05078125,-0.2304688,0.06054688,0.008544922,0.03833008,-0.02001953,0,0,0.0002441406,0.5836487,4.09,0,0,0,0.4799805,nan,4,6.639,1,0,0.3781738,0.4864197,0.7651978,0.7048035,-0.03710938,-0.1367188,0.001953125,1,3,0,1,2,3,3,1,-0.08,0,-0.02,0,0,150,0,0,-0.02,0,36
75.076,0.001067,0,0.005859375,0.01171875,0.140625,3.132812,12.91406,0,0,-0.001953125,-0.05078125,-0.2304688,0.06054688,0.008544922,0.03833008,-0.0201416,0,0,0.0002441406,0.5900574,4.09,0,0,0,0.4799805,nan,4,6.649,1,0,0.3857727,0.4943848,0.7640076,0.7160645,-0.03710938,-0.1367188,0.001953125,1,3,0,1,2,3,3,1,-0.08,0,-0.02,0,0,151,0,0,-0.02,0,36
75.087,0.000939,-0.00390625,0.03320312,-0.01953125,1.632812,-6.8125,5.78125,-0.00390625,0.01367188,-0.009765625,-0.05078125,-0.2304688,0.06054688,0.008544922,0.03833008,-0.0201416,0,0,0.0002441406,0.5969849,4.09,0,0,0,0.4799805,nan,4,6.659,1,0,0.3655701,0.5201721,0.7509766,0.7511902,-0.03710938,-0.1367188,0.001953125,1,3,0,1,2,3,3,1,-0.09,0,-0.02,0,0,146,0,0,-0.02,0,36
75.096,0.001079,0.0390625,-0.01757812,-0.009765625,-3.34375,5.085938,10.25,0,-0.005859375,-0.005859375,-0.05078125,-0.2304688,0.06054688,0.008544922,0.03845215,-0.0201416,0,0,0.0002441406,0.6028748,4.09,0,0,0,0.4799805,nan,4,6.669,1,0,0.3895569,0.5180359,0.7703857,0.733551,-0.03710938,-0.1367188,0.001953125,1,3,0,1,2,3,3,1,-0.09,0,-0.02,0,0,145,0,0,-0.02,0,36
75.107,0.001245,0.0546875,0.0390625,-0.03125,-0.3828125,-5.890625,10.95312,0.04882812,0.0078125,-0.01171875,-0.05273438,-0.2304688,0.06054688,0.008911133,0.03845215,-0.02026367,0,0,0.0002441406,0.6099243,4.09,0,0,0,0.4799805,nan,4,6.679,1,0,0.3733215,0.5411682,0.7715759,0.7536316,-0.03710938,-0.1367188,0.001953125,1,3,0,1,2,3,3,1,-0.1,0,-0.02,0,0,148,0,0,-0.02,0,36
75.117,0.001501,0.0546875,-0.01953125,0,-1.257812,4.921875,10.125,0.015625,0.005859375,-0.00390625,-0.05273438,-0.2304688,0.0625,0.008911133,0.03845215,-0.02026367,0,0,0.0002441406,0.6165161,4.09,0,0,0,0.4799805,nan,4,6.689,1,0,0.4029236,0.5259705,0.7914124,0.7457275,-0.03710938,-0.1376953,0.001953125,1,3,0,1,2,3,3,1,-0.12,0,-0.02,0,0,150,0,0,-0.02,0,36
75.126,0.001016,0.009765625,0.00390625,-0.02734375,0.484375,0.6328125,15.02344,0.0078125,-0.005859375,-0.001953125,-0.05273438,-0.2304688,0.0625,0.008911133,0.03845215,-0.02026367,0,0,0.0002441406,0.6224365,4.09,0,0,0,0.4799805,nan,4,6.699,1,0,0.4085388,0.5375977,0.7904358,0.7531128,-0.03710938,-0.1376953,0.001953125,1,3,0,1,2,3,3,1,-0.12,0,-0.02,0,0,150,0,0,-0.02,0,36
75.137,0.000997,-0.01367188,-0.015625,0.03320312,-0.90625,-2.726562,7.734375,-0.00390625,0.00390625,0.001953125,-0.0546875,-0.2324219,0.0625,0.009033203,0.03857422,-0.02038574,0,0,0.0002441406,0.6295166,4.09,0,0,0,0.4799805,nan,4,6.709,1,0,0.426239,0.5293274,0.8078308,0.7546997,-0.03710938,-0.1376953,0.001953125,1,3,0,1,2,3,3,1,-0.14,0,-0.02,0,0,153,0,0,-0.02,0,36
75.146,0.001156,0.03515625,0.0078125,0.04101562,0.09375,-0.9921875,13.65625,0.01171875,0.001953125,0.01367188,-0.0546875,-0.2304688,0.0625,0.009033203,0.03857422,-0.02038574,0,0,0.0002441406,0.6355896,4.09,0,0,0,0.4799805,nan,4,6.719,1,0,0.4447937,0.5204773,0.8364258,0.7406616,-0.03710938,-0.1376953,0.001953125,1,3,0,1,2,3,3,1,-0.15,0,-0.02,0,0,142,0,0,-0.02,0,36
75.156,0.001222,0.001953125,0.05859375,-0.03710938,0.78125,2.757812,5.53125,-0.001953125,0.0234375,-0.01757812,-0.0546875,-0.2304688,0.0625,0.009033203,0.03845215,-0.02026367,0,0,0.0002441406,0.6423035,4.09,0,0,0,0.4799805,nan,4,6.729,1,0,0.384613,0.5841675,0.7791443,0.8213806,-0.03710938,-0.1386719,0.001953125,1,3,0,1,2,3,3,1,-0.16,0,-0.02,0,0,153,0,0,-0.02,0,36
75.166,0.000982,0.01757812,0.0078125,0.03125,-1.148438,-0.375,12.40625,0.009765625,0.02929688,-0.015625,-0.0546875,-0.2324219,0.0625,0.009155273,0.03869629,-0.02050781,0,0,0.0002441406,0.6404724,4.09,0,0,0,0.4799805,nan,4,6.739,1,0,0.4261475,0.5440063,0.8208313,0.7709351,-0.03710938,-0.1386719,0.001953125,1,3,0,1,2,3,3,1,-0.17,0,-0.02,0,0,155,0,0,-0.02,0,36
75.176,0.001026,-0.00390625,0.0234375,-0.005859375,0.5390625,-0.5703125,7.34375,-0.001953125,0.01953125,-0.009765625,-0.0546875,-0.2324219,0.0625,0.009155273,0.03881836,-0.02038574,0,0,0.0002441406,0.6335754,4.09,0,0,0,0.4799805,nan,4,6.749,1,0,0.4009705,0.5559998,0.7928467,0.7845459,-0.03710938,-0.1386719,0.001953125,1,3,0,1,2,3,3,1,-0.16,0,-0.02,0,0,155,0,0,-0.02,0,36
75.187,0.001716,0.009765625,0.005859375,0.015625,0.1796875,3.921875,13.89844,0.001953125,0.0078125,-0.009765625,-0.0546875,-0.2324219,0.0625,0.009155273,0.03881836,-0.02050781,0,0,0.0002441406,0.6268311,4.09,0,0,0,0.4799805,nan,4,6.759,1,0,0.4008789,0.5431824,0.7922668,0.7709961,-0.03710938,-0.1386719,0.001953125,1,3,0,1,2,3,3,1,-0.16,0,-0.021,0,0,150,0,0,-0.021,0,36
75.196,0.001135,0.005859375,0.04492188,-0.0546875,-1.085938,-2.875,8.882812,-0.01953125,-0.04296875,-0.005859375,-0.0546875,-0.2304688,0.0625,0.009155273,0.03845215,-0.02038574,0,0,0.0002441406,0.6208191,4.09,0,0,0,0.4799805,nan,4,6.768,1,0,0.3792419,0.5633545,0.75177,0.7889404,-0.03710938,-0.1396484,0.001953125,1,3,0.1269841,1,2,3,3,1,-0.15,0,-0.02,0,0,154,0,0,-0.02,0,36
75.207,0.00095,-0.00390625,-0.03710938,-0.02148438,0.046875,3.101562,13.07812,0.00390625,-0.01367188,-0.001953125,-0.0546875,-0.2304688,0.0625,0.009155273,0.03845215,-0.02050781,0,0,0.0002441406,0.6138,4.09,0,0,0,0.4799805,nan,4,6.779,1,0,0.4006042,0.5254211,0.7859802,0.7432251,-0.03710938,-0.1396484,0.001953125,1,3,0,1,2,3,3,1,-0.15,0,-0.021,0,0,139,0,0,-0.021,0,36
75.216,0.001013,0,0.1015625,-0.06445312,0.6484375,-4.882812,4.921875,-0.01171875,0.009765625,-0.02539062,-0.0546875,-0.2304688,0.0625,0.009033203,0.03845215,-0.02050781,0,0,0.0002441406,0.6075745,4.09,0,0,0,0.4799805,nan,4,6.789,1,0,0.3389893,0.5608826,0.732605,0.7978516,-0.03710938,-0.1396484,0.001953125,1,3,0,1,2,3,3,1,-0.14,0,-0.021,0,0,139,0,0,-0.021,0,36
75.226,0.000961,0.03125,-0.06054688,0.02734375,-0.5,-0.015625,11.75781,0.009765625,0.01757812,-0.005859375,-0.0546875,-0.2324219,0.0625,0.009155273,0.03857422,-0.02062988,0,0,0.0002441406,0.6009827,4.09,0,0,0,0.4799805,nan,4,6.799,1,0,0.3975525,0.4949036,0.7938232,0.7176208,-0.03710938,-0.1396484,0.001953125,1,3,0,1,2,3,3,1,-0.14,0,-0.021,0,0,151,0,0,-0.021,0,36
75.236,0.001466,-0.0234375,0.04492188,-0.05078125,-0.6484375,-4.078125,7.054688,0.001953125,-0.005859375,-0.001953125,-0.0546875,-0.2324219,0.0625,0.009155273,0.03869629,-0.02062988,0,0,0.0002441406,0.5944824,4.09,0,0,0,0.4799805,nan,4,6.809,1,0,0.3827515,0.5041199,0.7659607,0.7251587,-0.03808594,-0.140625,0.001953125,1,3,0,1,2,3,3,1,-0.12,0,-0.021,0,0,149,0,0,-0.021,0,36
75.247,0.001339,-0.01171875,0.03125,0.009765625,0.15625,4.320312,15.39062,-0.0078125,0.01367188,-0.005859375,-0.0546875,-0.2324219,0.0625,0.009155273,0.03881836,-0.02075195,0,0,0.0002441406,0.5875549,4.09,0,0,0,0.4799805,nan,4,6.819,1,0,0.3715515,0.4913025,0.761322,0.7260437,-0.03808594,-0.140625,0.001953125,1,3,0,1,2,3,3,1,-0.11,0,-0.021,0,0,149,0,0,-0.021,0,36
75.256,0.001095,-0.009765625,0.0859375,-0.04296875,-2.304688,-3.726562,7.601562,-0.00390625,0.01953125,-0.01757812,-0.0546875,-0.2324219,0.0625,0.009033203,0.03881836,-0.02087402,0,0,0.0002441406,0.5815735,4.09,0,0,0,0.4799805,nan,4,6.829,1,0,0.3439026,0.5033875,0.7383728,0.7406311,-0.03808594,-0.140625,0.001953125,1,3,0,1,2,3,3,1,-0.11,0,-0.021,0,0,144,0,0,-0.021,0,36
75.266,0.000953,0.03710938,0.02929688,-0.03125,0.5546875,4.59375,13.82031,0.009765625,0.0078125,-0.009765625,-0.0546875,-0.234375,0.06445312,0.009033203,0.0390625,-0.02099609,0,0,0.0002441406,0.5749512,4.09,0,0,0,0.4799805,nan,4,6.839,1,0,0.3484192,0.4908447,0.7452698,0.7153015,-0.03808594,-0.140625,0.001953125,1,3,0,1,2,3,3,1,-0.09,0,-0.021,0,0,136,0,0,-0.021,0,36
75.276,0.001138,0.02929688,-0.02929688,-0.001953125,0.515625,-2.296875,5.234375,0.01171875,-0.009765625,0.001953125,-0.0546875,-0.234375,0.06445312,0.009033203,0.0390625,-0.02099609,0,0,0.0002441406,0.5683594,4.09,0,0,0,0.4799805,nan,4,6.849,1,0,0.3554993,0.4754639,0.7475281,0.6949768,-0.03808594,-0.1416016,0.001953125,1,3,0,1,2,3,3,1,-0.08,0,-0.021,0,0,149,0,0,-0.021,0,36
75.287,0.001463,-0.05078125,-0.02734375,0,-1.960938,8.8125,11.1875,-0.01757812,-0.005859375,-0.0078125,-0.0546875,-0.234375,0.06445312,0.009033203,0.0390625,-0.02111816,0,0,0.0002441406,0.5726318,4.09,0,0,0,0.4799805,nan,4,6.86,1,0,0.3528137,0.4835815,0.7348328,0.7192993,-0.03808594,-0.1416016,0.001953125,1,3,0,1,2,3,3,1,-0.08,0,-0.021,0,0,148,0,0,-0.021,0,36
75.296,0.000933,0.04882812,0.01171875,0.00390625,-1.195312,-7.1875,5.796875,0.02734375,-0.00390625,-0.0078125,-0.0546875,-0.234375,0.06445312,0.009155273,0.0390625,-0.02111816,0,0,0.0002441406,0.5786743,4.09,0,0,0,0.4799805,nan,4,6.869,1,0,0.35672,0.4894104,0.7623291,0.7062988,-0.03808594,-0.1416016,0.001953125,1,3,0,1,2,3,3,1,-0.09,0,-0.021,0,0,145,0,0,-0.021,0,36
75.307,0.000933,-0.04101562,-0.02539062,0.0234375,-1.710938,2.898438,7.648438,-0.009765625,-0.00390625,0.00390625,-0.0546875,-0.234375,0.06445312,0.009277344,0.03894043,-0.02111816,0,0,0.0002441406,0.5855713,4.09,0,0,0,0.4799805,nan,4,6.879,1,0,0.3793945,0.4805603,0.7657471,0.7166138,-0.03808594,-0.1416016,0.001953125,1,3,0,1,2,3,3,1,-0.09,0,-0.021,0,0,152,0,0,-0.021,0,36
75.317,0.0009860001,-0.05664062,-0.0234375,-0.00390625,-0.046875,-1.929688,7.945312,-0.04296875,-0.01171875,0.001953125,-0.05273438,-0.2324219,0.06445312,0.008911133,0.03881836,-0.02111816,0,0,0.0002441406,0.592041,4.09,0,0,0,0.4799805,nan,4,6.889,1,0,0.3817444,0.4928589,0.762207,0.7313538,-0.03808594,-0.1425781,0.001953125,1,3,0,1,2,3,3,1,-0.1,0,-0.021,0,0,140,0,0,-0.021,0,36
75.326,0.001001,-0.02148438,-0.03710938,0.02148438,-0.9296875,5.21875,7.28125,-0.03320312,-0.0078125,0.00390625,-0.05078125,-0.2324219,0.06445312,0.008544922,0.03881836,-0.02111816,0,0,0.0002441406,0.5982971,4.09,0,0,0,0.4799805,nan,4,6.899,1,0,0.3942871,0.4916077,0.7855835,0.7216492,-0.03808594,-0.1425781,0.001953125,1,3,0,1,2,3,3,1,-0.1,0,-0.021,0,0,149,0,0,-0.021,0,36
75.336,0.001308,-0.04492188,-0.02734375,-0.009765625,-1.234375,-2.570312,12.46094,-0.03710938,0.001953125,-0.001953125,-0.04882812,-0.2324219,0.06445312,0.008178711,0.03881836,-0.02111816,0,0,0.0002441406,0.6045837,4.09,0,0,0,0.4799805,nan,4,6.908,1,0,0.38797,0.507843,0.7788696,0.7437134,-0.03808594,-0.1425781,0.001953125,1,3,0,1,2,3,3,1,-0.11,0,-0.021,0,0,149,0,0,-0.021,0,36
75.347,0.001383,-0.015625,-0.009765625,-0.03125,-0.109375,-2.898438,7.585938,-0.01953125,-0.0078125,0.001953125,-0.046875,-0.2324219,0.06445312,0.0078125,0.03894043,-0.02124023,0,0,0.0002441406,0.6118469,4.09,0,0,0,0.4799805,nan,4,6.92,1,0,0.3960266,0.5184021,0.7878418,0.7450867,-0.03808594,-0.1425781,0.001953125,1,3,0,1,2,3,3,1,-0.11,0,-0.021,0,0,142,0,0,-0.021,0,36
75.357,0.001011,0.07421875,0.03320312,0.015625,-0.0625,3.539062,14.94531,0.02929688,0.0078125,-0.005859375,-0.046875,-0.234375,0.06445312,0.00793457,0.03894043,-0.02124023,0,0,0.0002441406,0.6181641,4.09,0,0,0,0.4799805,nan,4,6.929,1,0,0.3912354,0.5274963,0.8044128,0.7495728,-0.03808594,-0.1425781,0.001953125,1,3,0,1,2,3,3,1,-0.12,0,-0.021,0,0,137,0,0,-0.021,0,36
75.366,0.000969,-0.05078125,0.02148438,-0.02539062,1.484375,-1.546875,9.304688,-0.001953125,-0.01757812,-0.001953125,-0.04882812,-0.2324219,0.06445312,0.008178711,0.03881836,-0.02124023,0,0,0.0002441406,0.6242065,4.09,0,0,0,0.4799805,nan,4,6.938,1,0,0.4040833,0.5314331,0.7901306,0.7711487,-0.03808594,-0.1435547,0.001953125,1,3,0.3492064,1,2,3,3,1,-0.12,0,-0.021,0,0,137,0,0,-0.021,0,36
75.376,0.000985,0.009765625,0.04492188,-0.02929688,-2.117188,-0.3359375,13.66406,0.00390625,-0.0078125,-0.005859375,-0.04882812,-0.2324219,0.06445312,0.008178711,0.03857422,-0.02124023,0,0,0.0002441406,0.6309204,4.09,0,0,0,0.4799805,nan,4,6.949,1,0,0.3893127,0.5553284,0.7877502,0.7912903,-0.03808594,-0.1435547,0.001953125,1,3,0,1,2,3,3,1,-0.13,0,-0.021,0,0,149,0,0,-0.021,0,36
75.386,0.001427,-0.03320312,0.04296875,-0.0234375,2.835938,-1.320312,8.46875,-0.015625,0.015625,-0.01367188,-0.04882812,-0.2324219,0.06445312,0.008178711,0.03869629,-0.02124023,0,0,0.0002441406,0.6373901,4.09,0,0,0,0.4799805,nan,4,6.959,1,0,0.397644,0.5558167,0.7957764,0.800293,-0.03808594,-0.1435547,0.001953125,1,3,0,1,2,3,3,1,-0.14,0,-0.021,0,0,149,0,0,-0.021,0,36
75.397,0.001418,0.01757812,0.03710938,-0.009765625,0.3671875,-3.679688,6.117188,0.001953125,0.01367188,-0.009765625,-0.04882812,-0.2324219,0.06445312,0.008056641,0.03881836,-0.0213623,0,0,0.0002441406,0.6444702,4.09,0,0,0,0.4799805,nan,4,6.97,1,0,0.4096375,0.5603638,0.8128052,0.7950439,-0.03808594,-0.1435547,0.001953125,1,3,0,1,2,3,3,1,-0.15,0,-0.021,0,0,151,0,0,-0.021,0,36
75.406,0.000935,0.009765625,0.0078125,-0.0390625,0.453125,-3.5625,9.585938,0.00390625,-0.001953125,-0.009765625,-0.04882812,-0.2324219,0.06445312,0.008056641,0.03881836,-0.0213623,0,0,0.0002441406,0.6507874,4.09,0,0,0,0.4799805,nan,4,6.979,1,0,0.4148865,0.5739136,0.8125916,0.8017883,-0.03808594,-0.1445312,0.001953125,1,3,0.07936508,1,2,3,3,1,-0.16,0,-0.021,0,0,134,0,0,-0.021,0,36
75.416,0.001045,0.02539062,-0.06445312,0.001953125,-1.796875,3.375,7.851562,0.01171875,-0.01171875,0,-0.04882812,-0.2324219,0.06445312,0.008178711,0.03881836,-0.02148438,0,0,0.0002441406,0.6573486,4.09,0,0,0,0.4799805,nan,4,6.989,1,0,0.4520874,0.5563965,0.8452759,0.7756042,-0.03808594,-0.1445312,0.001953125,1,3,0,1,2,3,3,1,-0.16,0,-0.021,0,0,134,0,0,-0.021,0,36
75.426,0.000937,-0.03710938,0.02734375,0.02539062,-0.8515625,-1.945312,14.59375,-0.009765625,0.02539062,0.00390625,-0.04882812,-0.234375,0.06445312,0.008056641,0.0390625,-0.02148438,0,0,0.0002441406,0.6573486,4.09,0,0,0,0.4799805,nan,4,6.999,1,0,0.4667664,0.5248718,0.8687134,0.7689819,-0.03808594,-0.1445312,0.001953125,1,3,0,1,2,3,3,1,-0.17,0,-0.022,0,0,156,0,0,-0.022,0,36
75.436,0.001044,-0.04296875,-0.05273438,-0.001953125,0.0546875,0.9453125,7.757812,-0.01171875,0.01367188,-0.02734375,-0.04882812,-0.2363281,0.06640625,0.008056641,0.03942871,-0.02172852,0,0,0.0002441406,0.6508789,4.09,0,0,0,0.4799805,nan,4,7.009,1,0,0.4216309,0.5698242,0.8076782,0.8043823,-0.03808594,-0.1445312,0.001953125,1,3,0,1,2,3,3,1,-0.16,0,-0.022,0,0,148,0,0,-0.022,0,36
75.446,0.001488,0.005859375,0.05859375,-0.046875,-0.5390625,2.546875,11.28125,0.01367188,0.02734375,-0.0078125,-0.04882812,-0.2363281,0.06640625,0.008056641,0.03942871,-0.02172852,0,0,0.0002441406,0.644104,4.09,0,0,0,0.4799805,nan,4,7.019,1,0,0.3880615,0.568512,0.8103333,0.8095398,-0.0390625,-0.1455078,0.001953125,1,3,0,1,2,3,3,1,-0.15,0,-0.022,0,0,144,0,0,-0.022,0,36
75.457,0.001201,0.06054688,-0.04492188,0.03710938,0.7890625,-0.3828125,9.828125,0.0078125,-0.03515625,0,-0.04882812,-0.2363281,0.06640625,0.008178711,0.03930664,-0.02197266,0,0,0.0002441406,0.637146,4.09,0,0,0,0.4799805,nan,4,7.03,1,0,0.4560242,0.5127869,0.8450012,0.7348328,-0.0390625,-0.1455078,0.001953125,1,3,0.6507937,1,2,3,3,1,-0.14,0,-0.022,0,0,146,0,0,-0.022,0,36
75.467,0.000934,0.05859375,-0.05664062,0.009765625,-1.640625,3.09375,9.296875,0.03710938,-0.05273438,0.03125,-0.05078125,-0.2324219,0.06640625,0.008422852,0.03881836,-0.02172852,0,0,0.0002441406,0.6305542,4.09,0,0,0,0.4799805,nan,4,7.039,1,0,0.4230652,0.5290833,0.828125,0.7420044,-0.0390625,-0.1455078,0.001953125,1,3,0.2380952,1,2,3,3,1,-0.14,0,-0.022,0,0,149,0,0,-0.022,0,36
75.476,0.001017,0.06640625,0.0234375,0.02539062,0.03125,-7.40625,8.085938,0.05859375,0.02929688,-0.0078125,-0.05273438,-0.2324219,0.06640625,0.008911133,0.03881836,-0.02172852,0,0,0.0002441406,0.6242981,4.09,0,0,0,0.4799805,nan,4,7.049,1,0,0.3885498,0.5265808,0.8198853,0.762146,-0.0390625,-0.1455078,0.001953125,1,3,0,1,2,3,3,1,-0.13,0,-0.022,0,0,151,0,0,-0.022,0,36
75.486,0.000939,-0.02929688,0.0546875,-0.07226562,-1.367188,4.53125,11.02344,-0.01171875,-0.0078125,-0.02148438,-0.0546875,-0.2324219,0.06640625,0.009033203,0.03857422,-0.02172852,0,0,0.0002441406,0.6179504,4.09,0,0,0,0.4799805,nan,4,7.059,1,0,0.3352051,0.5756226,0.73349,0.8274841,-0.0390625,-0.1464844,0.001953125,1,3,0,1,2,3,3,1,-0.12,0,-0.022,0,0,150,0,0,-0.022,0,36
75.496,0.0011,0.005859375,0.02148438,-0.0546875,-0.0703125,-5.898438,6.4375,0.00390625,-0.01367188,-0.009765625,-0.0546875,-0.2304688,0.06640625,0.009033203,0.03857422,-0.02172852,0,0,0.0002441406,0.6115417,4.09,0,0,0,0.4799805,nan,4,7.069,1,0,0.3653564,0.5380249,0.7689819,0.7738037,-0.0390625,-0.1464844,0.001953125,1,3,0,1,2,3,3,1,-0.11,0,-0.022,0,0,146,0,0,-0.022,0,36
75.506,0.001109,0.001953125,-0.01757812,-0.03320312,-2.414062,3.96875,12.28906,-0.001953125,-0.01953125,-0.001953125,-0.0546875,-0.2304688,0.06640625,0.008911133,0.03845215,-0.02185059,0,0,0.0002441406,0.605011,4.09,0,0,0,0.4799805,nan,4,7.079,1,0,0.3788147,0.5178833,0.7755432,0.7478027,-0.0390625,-0.1464844,0.001953125,1,3,0,1,2,3,3,1,-0.1,0,-0.022,0,0,146,0,0,-0.022,0,36
75.516,0.001079,0.0234375,0.04296875,-0.05859375,0.6640625,-2,9.34375,0.00390625,0.00390625,-0.01171875,-0.05273438,-0.2304688,0.06640625,0.008911133,0.03845215,-0.02185059,0,0,0.0002441406,0.5984802,4.09,0,0,0,0.4799805,nan,4,7.089,1,0,0.3359985,0.5346985,0.7489929,0.774292,-0.0390625,-0.1464844,0.001953125,1,3,0.4285714,1,2,3,3,1,-0.1,0,-0.022,0,0,153,0,0,-0.022,0,36
75.526,0.001195,0,-0.04296875,0.06835938,-1.4375,5.992188,10.21875,0.00390625,-0.005859375,0.0234375,-0.0546875,-0.2304688,0.06640625,0.009033203,0.03845215,-0.02185059,0,0,0.0002441406,0.5917969,4.09,0,0,0,0.4799805,nan,4,7.099,1,0,0.4093018,0.456604,0.8119507,0.6893005,-0.0390625,-0.1464844,0.001953125,1,3,0,1,2,3,3,1,-0.09,0,-0.022,0,0,148,0,0,-0.022,0,36
75.537,0.001319,-0.02539062,-0.02148438,-0.0234375,-0.28125,-1.789062,7.515625,-0.01953125,-0.04101562,0.009765625,-0.0546875,-0.2285156,0.06640625,0.009033203,0.03820801,-0.02160645,0,0,0.0002441406,0.5903015,4.09,0,0,0,0.4799805,nan,4,7.109,1,0,0.3681641,0.5009766,0.7587891,0.7333069,-0.0390625,-0.1474609,0.001953125,1,3,0,1,2,3,3,1,-0.08,0,-0.022,0,0,149,0,0,-0.022,0,36
75.547,0.00103,-0.05664062,-0.06835938,-0.005859375,-0.359375,-1.898438,4.648438,-0.01953125,-0.03515625,0.0078125,-0.05273438,-0.2285156,0.06445312,0.008911133,0.03796387,-0.02148438,0,0,0.0002441406,0.5969238,4.09,0,0,0,0.4799805,nan,4,7.119,1,0,0.3719788,0.5089417,0.7626953,0.7441101,-0.0390625,-0.1474609,0.001953125,1,3,0,1,2,3,3,1,-0.08,0,-0.022,0,0,144,0,0,-0.022,0,36
75.556,0.001061,-0.01367188,-0.0078125,0.02929688,0.828125,2.851562,10.60938,-0.01953125,-0.005859375,0.005859375,-0.05273438,-0.2265625,0.06445312,0.008666992,0.0378418,-0.02148438,0,0,0.0002441406,0.5948792,4.09,0,0,0,0.4799805,nan,4,7.129,1,0,0.3746948,0.4900818,0.7817383,0.7330017,-0.0390625,-0.1474609,0.001953125,1,3,0,1,2,3,3,1,-0.08,0,-0.021,0,0,150,0,0,-0.021,0,36
75.566,0.000971,-0.00390625,0.04882812,0.02148438,-2.101562,-0.59375,7.523438,0,0.01171875,0.00390625,-0.05273438,-0.2265625,0.06445312,0.008666992,0.03771973,-0.0213623,0,0,0.0002441406,0.5987549,4.09,0,0,0,0.4799805,nan,4,7.139,1,0,0.3692932,0.4967651,0.7888794,0.7401123,-0.0390625,-0.1474609,0.001953125,1,3,0,1,2,3,3,1,-0.08,0,-0.021,0,0,150,0,0,-0.021,0,36
75.576,0.001608,0.001953125,0.02539062,0.02148438,0.359375,3.125,12.75781,-0.00390625,0.01367188,-0.005859375,-0.05078125,-0.2265625,0.06445312,0.008544922,0.03771973,-0.02148438,0,0,0.0002441406,0.6053772,4.09,0,0,0,0.4799805,nan,4,7.149,1,0,0.3694153,0.5128174,0.7832031,0.7561035,-0.0390625,-0.1484375,0.001953125,1,3,0,1,2,3,3,1,-0.08,0,-0.021,0,0,154,0,0,-0.021,0,36
75.586,0.001417,-0.01367188,0.03320312,0.01367188,-0.2421875,-1.195312,7.0625,-0.005859375,0.01757812,-0.00390625,-0.05078125,-0.2265625,0.06445312,0.008544922,0.03771973,-0.02148438,0,0,0.0002441406,0.6109924,4.09,0,0,0,0.4799805,nan,4,7.159,1,0,0.3791504,0.5112305,0.7944336,0.7591553,-0.0390625,-0.1484375,0.001953125,1,3,0,1,2,3,3,1,-0.08,0,-0.021,0,0,147,0,0,-0.021,0,36
75.596,0.001766,-0.01367188,0.001953125,0.01953125,1.601562,4.5,14.96094,0,0.005859375,-0.001953125,-0.05078125,-0.2265625,0.06445312,0.008544922,0.03771973,-0.02148438,0,0,0.0002441406,0.6113586,4.09,0,0,0,0.4799805,nan,4,7.169,1,0,0.3837891,0.5113831,0.7966919,0.7535095,-0.0390625,-0.1484375,0.001953125,1,3,0,1,2,3,3,1,-0.08,0,-0.022,0,0,147,0,0,-0.022,0,36
75.606,0.00097,-0.015625,-0.046875,0.03320312,-0.9765625,-7.070312,6.453125,0,0.005859375,0.00390625,-0.05078125,-0.2265625,0.06640625,0.008544922,0.0378418,-0.02160645,0,0,0.0002441406,0.6178284,4.09,0,0,0,0.4799805,nan,4,7.178,1,0,0.4113159,0.5001831,0.8191528,0.7406311,-0.0390625,-0.1484375,0.001953125,1,3,0.5079365,1,2,3,3,1,-0.08,0,-0.022,0,0,150,0,0,-0.022,0,36
75.616,0.001029,-0.0078125,-0.03320312,0.01953125,0.0234375,1.703125,14.01562,0.001953125,0.001953125,0.00390625,-0.05078125,-0.2285156,0.06640625,0.008544922,0.03796387,-0.02160645,0,0,0.0002441406,0.6245728,4.09,0,0,0,0.4799805,nan,4,7.189,1,0,0.4173889,0.5106506,0.8232727,0.7469788,-0.04003906,-0.1494141,0.001953125,1,3,0,1,2,3,3,1,-0.09,0,-0.022,0,0,150,0,0,-0.022,0,36
75.626,0.000926,-0.02929688,-0.06445312,-0.01171875,0.5234375,-6.429688,4.609375,-0.0078125,-0.0078125,-0.005859375,-0.05078125,-0.2285156,0.06640625,0.008544922,0.03808594,-0.02172852,0,0,0.0002441406,0.6309509,4.09,0,0,0,0.4799805,nan,4,7.199,1,0,0.4121399,0.5346069,0.8079224,0.769104,-0.04003906,-0.1494141,0.001953125,1,3,0,1,2,3,3,1,-0.09,0,-0.022,0,0,152,0,0,-0.022,0,36
75.636,0.000979,-0.0078125,0.03320312,-0.05273438,-0.0546875,2.773438,11.53906,-0.0078125,0,-0.015625,-0.05078125,-0.2285156,0.06640625,0.008544922,0.03796387,-0.02172852,0,0,0.0002441406,0.6375732,4.09,0,0,0,0.4799805,nan,4,7.209,1,0,0.3778687,0.5670471,0.7914429,0.8139038,-0.04003906,-0.1494141,0.001953125,1,3,0,1,2,3,3,1,-0.09,0,-0.022,0,0,151,0,0,-0.022,0,36
75.647,0.000979,0.02539062,-0.02148438,0.015625,-0.9609375,-8.5,6.085938,0.02148438,0.01367188,-0.0078125,-0.05078125,-0.2285156,0.06640625,0.008544922,0.03808594,-0.02197266,0,0,0.0002441406,0.6445312,4.09,0,0,0,0.4799805,nan,4,7.219,1,0,0.4343262,0.5282593,0.8543091,0.7612305,-0.04003906,-0.1494141,0.001953125,1,3,0,1,2,3,3,1,-0.09,0,-0.022,0,0,149,0,0,-0.022,0,36
75.656,0.001061,0.009765625,0.03320312,0.02929688,-0.1875,4.898438,14.82031,0.00390625,0.03125,-0.01171875,-0.05078125,-0.2285156,0.06640625,0.008666992,0.03820801,-0.02209473,0,0,0.0002441406,0.6437378,4.09,0,0,0,0.4799805,nan,4,7.229,1,0,0.4277649,0.5220947,0.8497009,0.7753601,-0.04003906,-0.1494141,0.002929688,1,3,0,1,2,3,3,1,-0.09,0,-0.022,0,0,140,0,0,-0.022,0,36
75.666,0.000929,0.01953125,0.04101562,-0.03125,-0.0546875,-0.65625,7.601562,-0.0078125,0.009765625,-0.02539062,-0.05078125,-0.2285156,0.06640625,0.008544922,0.03820801,-0.02209473,0,0,0.0002441406,0.637146,4.09,0,0,0,0.4799805,nan,4,7.239,1,0,0.3560486,0.5825195,0.7775574,0.832428,-0.04003906,-0.1503906,0.002929688,1,3,0,1,2,3,3,1,-0.09,0,-0.022,0,0,135,0,0,-0.022,0,36
75.677,0.000934,0.04492188,-0.05078125,0.07617188,-2.195312,6.632812,10.90625,0.009765625,0.00390625,0.01757812,-0.05078125,-0.2285156,0.06640625,0.008544922,0.03820801,-0.0222168,0,0,0.0002441406,0.6300964,4.09,0,0,0,0.4799805,nan,4,7.249,1,0,0.451355,0.4831848,0.8689575,0.7169189,-0.04003906,-0.1503906,0.002929688,1,3,0,1,2,3,3,1,-0.09,0,-0.022,0,0,148,0,0,-0.022,0,36
75.686,0.001005,0.01953125,-0.08007812,0.01367188,-0.3671875,-3.539062,7.34375,0.005859375,-0.0078125,0.001953125,-0.05078125,-0.2285156,0.06640625,0.008544922,0.03820801,-0.0222168,0,0,0.0002441406,0.6237183,4.09,0,0,0,0.4799805,nan,4,7.259,1,0,0.4103394,0.5151978,0.8230286,0.7462769,-0.04003906,-0.1503906,0.002929688,1,3,0,1,2,3,3,1,-0.09,0,-0.022,0,0,149,0,0,-0.022,0,36
75.696,0.001003,0.03320312,0.03125,-0.0390625,-0.3125,1.882812,11.94531,0.005859375,0.01953125,-0.0078125,-0.05078125,-0.2285156,0.06640625,0.008422852,0.03820801,-0.0222168,0,0,0.0002441406,0.6175842,4.09,0,0,0,0.4799805,nan,4,7.268,1,0,0.3669434,0.5323181,0.7938232,0.7771912,-0.04003906,-0.1503906,0.002929688,1,3,0,1,2,3,3,1,-0.08,0,-0.022,0,0,144,0,0,-0.022,0,36
75.706,0.0009869999,-0.07226562,-0.01171875,-0.04296875,0.75,-0.3203125,7.71875,-0.01953125,-0.04882812,0,-0.05078125,-0.2285156,0.06835938,0.008544922,0.03808594,-0.0222168,0,0,0.0002441406,0.6105652,4.09,0,0,0,0.4799805,nan,4,7.279,1,0,0.3841858,0.5231628,0.7717285,0.7631836,-0.04003906,-0.1513672,0.002929688,1,3,0,1,2,3,3,1,-0.08,0,-0.022,0,0,151,0,0,-0.022,0,36
75.717,0.001003,0.01367188,0.07421875,0.001953125,-1.796875,-0.7890625,12.28906,-0.005859375,0.0390625,-0.015625,-0.04882812,-0.2285156,0.06835938,0.008300781,0.03820801,-0.02233887,0,0,0.0002441406,0.6039734,4.09,0,0,0,0.4799805,nan,4,7.289,1,0,0.3483276,0.5111694,0.7868958,0.7695007,-0.04003906,-0.1513672,0.002929688,1,3,0,1,2,3,3,1,-0.08,0,-0.022,0,0,139,0,0,-0.022,0,36
75.726,0.000938,0.0078125,-0.08007812,0.0234375,2.90625,-0.3203125,9.609375,0.001953125,-0.03125,0.01757812,-0.05078125,-0.2285156,0.06835938,0.008300781,0.03820801,-0.02233887,0,0,0.0002441406,0.5974121,4.09,0,0,0,0.4799805,nan,4,7.299,1,0,0.4000549,0.4794006,0.8038025,0.7063293,-0.04003906,-0.1513672,0.002929688,1,3,0.3650794,1,2,3,3,1,-0.07,0,-0.022,0,0,148,0,0,-0.022,0,36
75.736,0.000975,0.009765625,0.05273438,-0.001953125,0.171875,2.90625,14.22656,0.001953125,0.05078125,-0.01757812,-0.04882812,-0.2304688,0.06835938,0.008178711,0.03820801,-0.02233887,0,0,0.0002441406,0.5909424,4.09,0,0,0,0.4799805,nan,4,7.309,1,0,0.3305969,0.5019531,0.7693481,0.7618408,-0.04003906,-0.1513672,0.002929688,1,3,0,1,2,3,3,1,-0.07,0,-0.022,0,0,149,0,0,-0.022,0,36
75.746,0.001205,0.03320312,-0.07421875,0.01953125,-1.140625,-2.4375,5.835938,0.02148438,-0.0078125,0.001953125,-0.04882812,-0.2304688,0.06835938,0.008300781,0.03833008,-0.02246094,0,0,0.0002441406,0.5846252,4.09,0,0,0,0.4799805,nan,4,7.319,1,0,0.3733521,0.4707031,0.7933655,0.7010193,-0.04003906,-0.1523438,0.002929688,1,3,0,1,2,3,3,1,-0.06,0,-0.022,0,0,144,0,0,-0.022,0,36
75.756,0.001499,0.02929688,0.06445312,0.001953125,-0.21875,0.6796875,9.453125,0.005859375,0.02929688,-0.009765625,-0.05078125,-0.2304688,0.06835938,0.008300781,0.03833008,-0.02258301,0,0,0.0002441406,0.5780029,4.09,0,0,0,0.4799805,nan,4,7.329,1,0,0.3363037,0.4751587,0.7680359,0.7324829,-0.04003906,-0.1523438,0.002929688,1,3,0.3015873,1,2,3,3,1,-0.06,0,-0.023,0,0,142,0,0,-0.023,0,36
75.767,0.001635,0.0078125,-0.06445312,0.02929688,2.046875,-2.234375,4.734375,0.001953125,-0.009765625,-0.001953125,-0.04882812,-0.2304688,0.06835938,0.008300781,0.03833008,-0.02270508,0,0,0.0002441406,0.5710754,4.09,0,0,0,0.4799805,nan,4,7.339,1,0,0.3494873,0.4642029,0.7657166,0.704895,-0.04003906,-0.1523438,0.002929688,1,3,0,1,2,3,3,1,-0.06,0,-0.023,0,0,155,0,0,-0.023,0,36
75.777,0.001343,-0.015625,-0.01757812,-0.01757812,-1.4375,-0.7265625,10.9375,-0.005859375,-0.00390625,-0.005859375,-0.04882812,-0.2304688,0.06835938,0.008178711,0.03833008,-0.02270508,0,0,0.0002441406,0.5646057,4.09,0,0,0,0.4799805,nan,4,7.349,1,0,0.3292236,0.4684143,0.744812,0.7159729,-0.04003906,-0.1523438,0.002929688,1,3,0,1,2,3,3,1,-0.06,0,-0.023,0,0,155,0,0,-0.023,0,36
75.787,0.001015,0.01367188,-0.015625,-0.009765625,0.390625,-4.648438,6.953125,0.005859375,-0.015625,-0.001953125,-0.04882812,-0.2285156,0.06835938,0.008178711,0.03820801,-0.02270508,0,0,0.0002441406,0.5625916,4.09,0,0,0,0.4799805,nan,4,7.359,1,0,0.3315735,0.4647217,0.7496948,0.7043152,-0.04003906,-0.1533203,0.002929688,1,3,0,1,2,3,3,1,-0.05,0,-0.023,0,0,148,0,0,-0.023,0,36
75.796,0.001093,-0.01367188,0.009765625,0.01367188,-1.265625,1.34375,14.27344,-0.009765625,0.001953125,0,-0.04882812,-0.2285156,0.06835938,0.008178711,0.03808594,-0.02282715,0,0,0.0002441406,0.5688171,4.09,0,0,0,0.4799805,nan,4,7.369,1,0,0.342926,0.4585876,0.7606201,0.7131653,-0.04003906,-0.1533203,0.002929688,1,3,0,1,2,3,3,1,-0.05,0,-0.023,0,0,155,0,0,-0.023,0,36
75.806,0.000982,0.046875,0.0078125,0.02148438,1.273438,3.34375,8.765625,-0.005859375,0.001953125,0.001953125,-0.04882812,-0.2285156,0.06835938,0.008178711,0.03808594,-0.02282715,0,0,0.0002441406,0.5753479,4.09,0,0,0,0.4799805,nan,4,7.379,1,0,0.3483276,0.4662476,0.771759,0.7150574,-0.04003906,-0.1533203,0.002929688,1,3,0.3015873,1,2,3,3,1,-0.06,0,-0.023,0,0,144,0,0,-0.023,0,36
75.816,0.001068,-0.005859375,0.00390625,-0.01367188,-0.828125,2.546875,14.53125,0.005859375,-0.005859375,-0.005859375,-0.04882812,-0.2285156,0.06835938,0.008178711,0.03808594,-0.02282715,0,0,0.0002441406,0.5817871,4.09,0,0,0,0.4799805,nan,4,7.389,1,0,0.3416138,0.4898682,0.7628479,0.7327576,-0.04101562,-0.1533203,0.002929688,1,3,0,1,2,3,3,1,-0.06,0,-0.023,0,0,135,0,0,-0.023,0,36
75.827,0.000953,-0.02539062,-0.02539062,-0.001953125,-0.734375,-3.5,9.039062,-0.005859375,-0.001953125,-0.005859375,-0.04882812,-0.2285156,0.0703125,0.008178711,0.03808594,-0.02294922,0,0,0.0002441406,0.5888977,4.09,0,0,0,0.4799805,nan,4,7.399,1,0,0.3578796,0.4872437,0.7733154,0.7371826,-0.04101562,-0.1533203,0.002929688,1,3,0.5079365,1,2,3,3,1,-0.06,0,-0.023,0,0,154,0,0,-0.023,0,36
75.837,0.000953,0.04882812,0.00390625,0.0234375,-3.234375,5.125,11.71875,-0.009765625,-0.001953125,0.005859375,-0.04882812,-0.2285156,0.0703125,0.008178711,0.03808594,-0.02282715,0,0,0.0002441406,0.59552,4.09,0,0,0,0.4799805,nan,4,7.41,1,0,0.3762207,0.4790344,0.7987671,0.7280579,-0.04101562,-0.1542969,0.002929688,1,3,0,1,2,3,3,1,-0.06,0,-0.023,0,0,150,0,0,-0.023,0,36
75.846,0.000959,0.03515625,0.0390625,-0.02734375,0.171875,-1.710938,12.875,0.001953125,0,-0.001953125,-0.04882812,-0.2285156,0.0703125,0.008056641,0.03796387,-0.02294922,0,0,0.0002441406,0.6019287,4.09,0,0,0,0.4799805,nan,4,7.419,1,0,0.3594971,0.5059509,0.7877808,0.7545166,-0.04101562,-0.1542969,0.002929688,1,3,0,1,2,3,3,1,-0.06,0,-0.023,0,0,148,0,0,-0.023,0,36
75.856,0.001151,0.01367188,-0.03320312,0.02539062,-0.671875,0.1171875,6.890625,-0.01367188,0,-0.00390625,-0.04882812,-0.2285156,0.0703125,0.008056641,0.03808594,-0.02294922,0,0,0.0002441406,0.608429,4.09,0,0,0,0.4799805,nan,4,7.429,1,0,0.3727112,0.5092773,0.7935486,0.7581787,-0.04101562,-0.1542969,0.002929688,1,3,0,1,2,3,3,1,-0.06,0,-0.023,0,0,151,0,0,-0.023,0,36
75.866,0.001045,-0.02734375,-0.02929688,0.0078125,0.125,1.234375,8.515625,0.00390625,-0.005859375,0,-0.04882812,-0.2285156,0.0703125,0.008056641,0.03796387,-0.02294922,0,0,0.0002441406,0.6147766,4.09,0,0,0,0.4799805,nan,4,7.439,1,0,0.3947144,0.5003052,0.8146667,0.7494507,-0.04101562,-0.1542969,0.002929688,1,3,0,1,2,3,3,1,-0.07,0,-0.023,0,0,138,0,0,-0.023,0,36
75.876,0.000932,0.0546875,0.0078125,-0.02734375,-2.710938,-2.789062,5.421875,0.001953125,0,0.001953125,-0.046875,-0.2285156,0.0703125,0.00793457,0.03808594,-0.02294922,0,0,0.0002441406,0.6214294,4.09,0,0,0,0.4799805,nan,4,7.449,1,0,0.3800354,0.5263367,0.809021,0.7702942,-0.04101562,-0.1552734,0.002929688,1,3,0,1,2,3,3,1,-0.07,0,-0.023,0,0,138,0,0,-0.023,0,36
75.886,0.001696,0.0234375,0.0546875,-0.03710938,0.1953125,5.25,11.74219,-0.001953125,0.01367188,-0.0078125,-0.046875,-0.2285156,0.0703125,0.00793457,0.03796387,-0.02294922,0,0,0.0002441406,0.6278687,4.09,0,0,0,0.4799805,nan,4,7.458,1,0,0.3746643,0.5357056,0.8064575,0.7946472,-0.04101562,-0.1552734,0.002929688,1,3,0,1,2,3,3,1,-0.07,0,-0.023,0,0,148,0,0,-0.023,0,36
75.897,0.001028,-0.0390625,-0.01757812,-0.01367188,1.726562,-4.554688,7.359375,-0.02539062,-0.005859375,-0.001953125,-0.046875,-0.2285156,0.0703125,0.00793457,0.03796387,-0.02294922,0,0,0.0002441406,0.6349487,4.09,0,0,0,0.4799805,nan,4,7.469,1,0,0.4014282,0.5328064,0.8135681,0.7919617,-0.04101562,-0.1552734,0.002929688,1,3,0,1,2,3,3,1,-0.08,0,-0.023,0,0,147,0,0,-0.023,0,36
75.906,0.001519,-0.03320312,0.04882812,-0.046875,-1.789062,7.734375,10.46875,0.005859375,0.01757812,-0.01953125,-0.04882812,-0.2285156,0.0703125,0.00793457,0.03808594,-0.02319336,0,0,0.0002441406,0.6413574,4.09,0,0,0,0.4799805,nan,4,7.479,1,0,0.3837891,0.5552063,0.8155823,0.8108215,-0.04101562,-0.1552734,0.002929688,1,3,0,1,2,3,3,1,-0.08,0,-0.023,0,0,142,0,0,-0.023,0,36
75.916,0.001068,-0.03320312,-0.0390625,0.04296875,0.71875,-7.734375,9.421875,0.0078125,0.0078125,-0.005859375,-0.04882812,-0.2285156,0.0703125,0.008056641,0.03820801,-0.02331543,0,0,0.0002441406,0.6478271,4.09,0,0,0,0.4799805,nan,4,7.488,1,0,0.4359131,0.5214844,0.8602295,0.7736511,-0.04101562,-0.15625,0.002929688,1,3,0,1,2,3,3,1,-0.08,0,-0.023,0,0,153,0,0,-0.023,0,36
75.926,0.000958,-0.0234375,-0.02734375,-0.03710938,-0.1484375,7.265625,14.19531,0.01953125,-0.005859375,-0.01171875,-0.04882812,-0.2304688,0.0703125,0.008300781,0.03833008,-0.0234375,0,0,0.0002441406,0.6529846,4.09,0,0,0,0.4799805,nan,4,7.499,1,0,0.4134216,0.5594482,0.8363953,0.8026428,-0.04101562,-0.15625,0.002929688,1,3,0,1,2,3,3,1,-0.08,0,-0.023,0,0,153,0,0,-0.023,0,36
75.937,0.001002,0.04296875,0.06445312,-0.04492188,1.421875,-0.4140625,13.21875,0.009765625,0.01953125,-0.02148438,-0.05078125,-0.2304688,0.07226562,0.008300781,0.03845215,-0.02368164,0,0,0.0002441406,0.655304,4.09,0,0,0,0.4799805,nan,4,7.509,1,0,0.3910217,0.5734253,0.8266602,0.8301086,-0.04101562,-0.15625,0.002929688,1,3,0,1,2,3,3,1,-0.08,0,-0.024,0,0,148,0,0,-0.024,0,36
75.946,0.000992,-0.02929688,0.06054688,0.001953125,-1.65625,0.65625,7.09375,0,0.03125,-0.0234375,-0.05078125,-0.2324219,0.07226562,0.008422852,0.03869629,-0.02380371,0,0,0.0002441406,0.6504822,4.09,0,0,0,0.4799805,nan,4,7.519,1,0,0.3920593,0.558136,0.8266907,0.8250732,-0.04101562,-0.15625,0.002929688,1,3,0,1,2,3,3,1,-0.09,0,-0.024,0,0,148,0,0,-0.024,0,36
75.956,0.001577,-0.01757812,-0.03515625,0.04492188,-0.2578125,0.0703125,10.0625,-0.001953125,0.00390625,0,-0.05078125,-0.2324219,0.07226562,0.008422852,0.03869629,-0.02392578,0,0,0.0002441406,0.6438293,4.09,0,0,0,0.4799805,nan,4,7.529,1,0,0.4294128,0.5153503,0.861969,0.7685852,-0.04101562,-0.1572266,0.002929688,1,3,0.3015873,1,2,3,3,1,-0.09,0,-0.024,0,0,144,0,0,-0.024,0,36
75.966,0.001028,0.03320312,-0.02539062,-0.0234375,-0.4140625,-0.1171875,7.578125,0.005859375,-0.0078125,0.001953125,-0.05078125,-0.2324219,0.07226562,0.008422852,0.03857422,-0.02392578,0,0,0.0002441406,0.6464539,4.09,0,0,0,0.4799805,nan,4,7.539,1,0,0.4168396,0.5400696,0.8446655,0.7842712,-0.04101562,-0.1572266,0.002929688,1,3,0,1,2,3,3,1,-0.09,0,-0.024,0,0,138,0,0,-0.024,0,36
75.976,0.001016,0.0078125,0.05273438,0.001953125,-2.3125,3.429688,13.02344,-0.00390625,0.0234375,-0.01171875,-0.05078125,-0.2324219,0.07226562,0.008300781,0.03869629,-0.02392578,0,0,0.0002441406,0.6500549,4.09,0,0,0,0.4799805,nan,4,7.549,1,0,0.3837585,0.5637207,0.8262024,0.8265076,-0.04101562,-0.1572266,0.002929688,1,3,0,1,2,3,3,1,-0.09,0,-0.024,0,0,150,0,0,-0.024,0,36
75.986,0.001212,-0.0078125,-0.05859375,0.05078125,-0.125,-3.054688,6.546875,-0.001953125,-0.001953125,0.01367188,-0.05078125,-0.2324219,0.07226562,0.008422852,0.03869629,-0.02392578,0,0,0.0002441406,0.6503601,4.09,0,0,0,0.4799805,nan,4,7.559,1,0,0.4432983,0.5172119,0.8721008,0.7688599,-0.04101562,-0.1572266,0.002929688,1,3,0,1,2,3,3,1,-0.09,0,-0.024,0,0,150,0,0,-0.024,0,36
75.996,0.001597,0.01367188,-0.04492188,-0.01757812,0.046875,4.953125,12.625,0.00390625,-0.01953125,0.00390625,-0.05078125,-0.2324219,0.07226562,0.008422852,0.03881836,-0.02392578,0,0,0.0002441406,0.6499634,4.09,0,0,0,0.4799805,nan,4,7.569,1,0,0.4290771,0.5398254,0.8493958,0.7815857,-0.04101562,-0.1582031,0.002929688,1,3,0,1,2,3,3,1,-0.09,0,-0.024,0,0,155,0,0,-0.024,0,36
76.006,0.001112,0.005859375,-0.03710938,-0.02734375,-1.507812,-4.765625,5.4375,-0.001953125,-0.02148438,0.00390625,-0.05078125,-0.2324219,0.07226562,0.008422852,0.03894043,-0.02404785,0,0,0.0002441406,0.6550598,4.09,0,0,0,0.4799805,nan,4,7.579,1,0,0.4403992,0.5418396,0.8540649,0.7839966,-0.04199219,-0.1582031,0.002929688,1,3,0,1,2,3,3,1,-0.1,0,-0.024,0,0,147,0,0,-0.024,0,36
76.016,0.001068,-0.009765625,-0.0234375,-0.03125,0.859375,4.960938,12.92188,-0.0078125,-0.02539062,0.005859375,-0.05078125,-0.2324219,0.07226562,0.008300781,0.03894043,-0.02404785,0,0,0.0002441406,0.6536865,4.09,0,0,0,0.4799805,nan,4,7.589,1,0,0.4212646,0.5523376,0.8406982,0.800415,-0.04199219,-0.1582031,0.002929688,1,3,0,1,2,3,3,1,-0.1,0,-0.024,0,0,154,0,0,-0.024,0,36
76.027,0.001015,0.01171875,-0.07421875,0.05273438,0.28125,-0.6171875,8.179688,0.0078125,-0.01367188,0.02539062,-0.04882812,-0.234375,0.07226562,0.008300781,0.03894043,-0.02416992,0,0,0.0002441406,0.6551514,4.09,0,0,0,0.4799805,nan,4,7.6,1,0,0.4852905,0.4916077,0.9123535,0.7313232,-0.04199219,-0.1582031,0.002929688,1,3,0,1,2,3,3,1,-0.1,0,-0.024,0,0,153,0,0,-0.024,0,36
76.037,0.00101,0.009765625,-0.01171875,0.03710938,-1.007812,0.9296875,9.359375,0.005859375,0.0078125,0.009765625,-0.05078125,-0.2324219,0.07226562,0.008300781,0.03881836,-0.02404785,0,0,0.0002441406,0.6600037,4.09,0,0,0,0.4799805,nan,4,7.61,1,0,0.4432678,0.529541,0.8814087,0.7857971,-0.04199219,-0.1591797,0.002929688,1,3,0.1587302,1,2,3,3,1,-0.1,0,-0.024,0,0,151,0,0,-0.024,0,36
76.047,0.001003,-0.01367188,-0.03125,0.05859375,1.226562,2.703125,11.42188,0.005859375,0.009765625,0.01953125,-0.05078125,-0.234375,0.07226562,0.008300781,0.03894043,-0.02404785,0,0,0.0002441406,0.6600037,4.09,0,0,0,0.4799805,nan,4,7.619,1,0,0.4655457,0.5094604,0.9006958,0.7642822,-0.04199219,-0.1591797,0.002929688,1,3,0,1,2,3,3,1,-0.1,0,-0.024,0,0,152,0,0,-0.024,0,36
76.056,0.001464,0.01367188,0.1171875,-0.07421875,-3.664062,0.859375,8.953125,-0.001953125,0.0234375,-0.02929688,-0.05078125,-0.2324219,0.07226562,0.008422852,0.03894043,-0.02404785,0,0,0.0002441406,0.6600037,4.09,0,0,0,0.4799805,nan,4,7.629,1,0,0.3459167,0.6156616,0.7927246,0.8857117,-0.04199219,-0.1591797,0.002929688,1,3,0.7619048,1,2,3,3,1,-0.11,0,-0.024,0,0,144,0,0,-0.024,0,36
76.067,0.001436,-0.01367188,-0.01367188,-0.05859375,0.5078125,-3.601562,9.5625,0,-0.01953125,-0.0078125,-0.05078125,-0.2324219,0.07226562,0.008422852,0.03881836,-0.02392578,0,0,0.0002441406,0.6600037,4.09,0,0,0,0.4799805,nan,4,7.639,1,0,0.399231,0.5805359,0.8283691,0.8318787,-0.04199219,-0.1591797,0.002929688,1,3,0.0952381,1,2,3,3,1,-0.11,0,-0.024,0,0,153,0,0,-0.024,0,36
76.077,0.001052,-0.02148438,-0.04296875,-0.0234375,-2.15625,4.53125,9.140625,-0.0078125,-0.03125,0.01171875,-0.05078125,-0.2324219,0.07226562,0.008300781,0.03894043,-0.02392578,0,0,0.0002441406,0.6600037,4.09,0,0,0,0.4799805,nan,4,7.649,1,0,0.4322205,0.5527039,0.8543091,0.8007812,-0.04199219,-0.1591797,0.002929688,1,3,0,1,2,3,3,1,-0.11,0,-0.024,0,0,151,0,0,-0.024,0,36
76.086,0.001372,0.01757812,-0.009765625,0.03320312,-0.6953125,-7.25,8.203125,0.005859375,-0.001953125,0.0078125,-0.05078125,-0.2324219,0.07226562,0.008422852,0.03881836,-0.02404785,0,0,0.0002441406,0.6566772,4.09,0,0,0,0.4799805,nan,4,7.659,1,0,0.4425964,0.5235596,0.8821106,0.7784729,-0.04199219,-0.1601562,0.002929688,1,3,0,1,2,3,3,1,-0.11,0,-0.024,0,0,151,0,0,-0.024,0,36
76.096,0.001489,0.03710938,-0.01367188,0.05273438,-1.304688,6.679688,11.59375,0,0.015625,0.00390625,-0.05078125,-0.2324219,0.07421875,0.008422852,0.03881836,-0.02416992,0,0,0.0002441406,0.6498718,4.09,0,0,0,0.4799805,nan,4,7.669,1,0,0.4271545,0.5168762,0.8726501,0.7827759,-0.04199219,-0.1601562,0.002929688,1,3,0,1,2,3,3,1,-0.11,0,-0.024,0,0,148,0,0,-0.024,0,36
76.106,0.001425,0.03125,0.01953125,0.03125,-0.203125,-3.007812,6.570312,0.0078125,0.0234375,-0.01367188,-0.05078125,-0.2324219,0.07421875,0.008422852,0.03881836,-0.02416992,0,0,0.0002441406,0.6433411,4.09,0,0,0,0.4799805,nan,4,7.679,1,0,0.3665771,0.5543213,0.8274841,0.8249512,-0.04199219,-0.1601562,0.002929688,1,3,0,1,2,3,3,1,-0.11,0,-0.024,0,0,150,0,0,-0.024,0,36
76.116,0.001217,-0.02734375,0.01953125,-0.04492188,-0.625,1.460938,13.02344,-0.0078125,-0.0234375,-0.0078125,-0.05078125,-0.2324219,0.07226562,0.008422852,0.03857422,-0.02416992,0,0,0.0002441406,0.6368103,4.09,0,0,0,0.4799805,nan,4,7.689,1,0,0.3626709,0.5662537,0.7932739,0.8250732,-0.04199219,-0.1601562,0.002929688,1,3,0,1,2,3,3,1,-0.12,0,-0.024,0,0,149,0,0,-0.024,0,36
76.127,0.001355,-0.02539062,-0.0234375,-0.03710938,2.4375,1.632812,8.484375,-0.001953125,-0.02148438,-0.009765625,-0.05078125,-0.2304688,0.07226562,0.008422852,0.03857422,-0.02416992,0,0,0.0002441406,0.6302795,4.09,0,0,0,0.4799805,nan,4,7.699,1,0,0.3664551,0.5520325,0.7977905,0.8048401,-0.04199219,-0.1611328,0.002929688,1,3,0,1,2,3,3,1,-0.12,0,-0.024,0,0,149,0,0,-0.024,0,36
76.137,0.00103,0.00390625,0.06835938,-0.06640625,-1.0625,3.640625,10.6875,-0.009765625,-0.001953125,-0.01757812,-0.05078125,-0.2324219,0.07421875,0.008422852,0.03857422,-0.02416992,0,0,0.0002441406,0.633606,4.09,0,0,0,0.4799805,nan,4,7.709,1,0,0.3416748,0.5731812,0.7809753,0.838562,-0.04199219,-0.1611328,0.002929688,1,3,0,1,2,3,3,1,-0.12,0,-0.024,0,0,149,0,0,-0.024,0,36
76.146,0.001117,0.02539062,0.0546875,-0.009765625,1.390625,-1.40625,12.09375,0.0078125,0.01757812,-0.01367188,-0.05078125,-0.2324219,0.07421875,0.008544922,0.03869629,-0.02429199,0,0,0.0002441406,0.6396484,4.09,0,0,0,0.4799805,nan,4,7.719,1,0,0.3683777,0.5535583,0.8184814,0.8181763,-0.04199219,-0.1611328,0.002929688,1,3,0,1,2,3,3,1,-0.12,0,-0.024,0,0,151,0,0,-0.024,0,36
76.157,0.001039,0.02539062,-0.005859375,0.046875,-1.726562,2.226562,9.9375,0.01171875,0.0234375,-0.0078125,-0.05078125,-0.2324219,0.07421875,0.008544922,0.03869629,-0.02429199,0,0,0.0002441406,0.6462402,4.09,0,0,0,0.4799805,nan,4,7.729,1,0,0.3985291,0.5337219,0.8537903,0.7988586,-0.04199219,-0.1611328,0.002929688,1,3,0,1,2,3,3,1,-0.12,0,-0.024,0,0,148,0,0,-0.024,0,36
76.166,0.00116,-0.00390625,0.07617188,-0.06640625,1.203125,-3.054688,7.90625,0,0.015625,-0.03515625,-0.05078125,-0.2324219,0.07421875,0.008544922,0.03857422,-0.02441406,0,0,0.0002441406,0.6525879,4.09,0,0,0,0.4799805,nan,4,7.739,1,0,0.334137,0.6062927,0.7904663,0.8795166,-0.04199219,-0.1621094,0.002929688,1,3,0,1,2,3,3,1,-0.12,0,-0.024,0,0,155,0,0,-0.024,0,36
76.176,0.001038,0.03320312,0.09375,-0.0625,-3.132812,2.320312,9.53125,0.0078125,0.06445312,-0.04296875,-0.05078125,-0.234375,0.07421875,0.008544922,0.0390625,-0.02478027,0,0,0.0002441406,0.6590576,4.09,0,0,0,0.4799805,nan,4,7.749,1,0,0.3639221,0.5846252,0.828125,0.8595886,-0.04199219,-0.1621094,0.002929688,1,3,0,1,2,3,3,1,-0.12,0,-0.025,0,0,152,0,0,-0.025,0,36
76.186,0.001282,-0.00390625,-0.04296875,-0.02148438,0.390625,-2.757812,7.515625,0,0.001953125,-0.04492188,-0.05078125,-0.2363281,0.07617188,0.008544922,0.03942871,-0.02526855,0,0,0.0002441406,0.6600037,4.09,0,0,0,0.4799805,nan,4,7.759,1,0,0.4238586,0.5566406,0.8509521,0.8085327,-0.04199219,-0.1621094,0.002929688,1,3,0,1,2,3,3,1,-0.13,0,-0.025,0,0,146,0,0,-0.025,0,36
76.197,0.000973,-0.009765625,-0.05273438,0.02539062,-0.0546875,6.492188,7.390625,0.005859375,-0.0546875,0.02539062,-0.05273438,-0.234375,0.07617188,0.008789062,0.0390625,-0.02526855,0,0,0.0002441406,0.6600037,4.09,0,0,0,0.4799805,nan,4,7.769,1,0,0.4751892,0.5072021,0.9032593,0.754364,-0.04296875,-0.1621094,0.002929688,1,3,0.8571429,1,2,3,3,1,-0.13,0,-0.025,0,0,157,0,0,-0.025,0,36
76.207,0.000967,0.02734375,-0.03710938,0.046875,-0.8125,-1.257812,9.351562,0.0078125,0.0078125,0.00390625,-0.05273438,-0.234375,0.07617188,0.008911133,0.03894043,-0.02539062,0,0,0.0002441406,0.6542053,4.09,0,0,0,0.4799805,nan,4,7.779,1,0,0.4264221,0.5228271,0.8809509,0.7866211,-0.04296875,-0.1630859,0.002929688,1,3,0.2222222,1,2,3,3,1,-0.13,0,-0.025,0,0,147,0,0,-0.025,0,36
76.216,0.001039,-0.03515625,0.06640625,-0.02734375,-1.164062,3.523438,11.76562,-0.005859375,0.00390625,-0.01953125,-0.05273438,-0.2324219,0.07617188,0.008911133,0.03881836,-0.02539062,0,0,0.0002441406,0.6482849,4.09,0,0,0,0.4799805,nan,4,7.788,1,0,0.3630066,0.5727539,0.8118286,0.8454895,-0.04296875,-0.1630859,0.002929688,1,3,0,1,2,3,3,1,-0.13,0,-0.025,0,0,141,0,0,-0.025,0,36
76.227,0.001003,0.01171875,0.0703125,-0.03125,1.289062,2.695312,10.98438,0.00390625,0.03320312,-0.03515625,-0.05273438,-0.2324219,0.078125,0.008911133,0.03881836,-0.0255127,0,0,0.0002441406,0.6409912,4.09,0,0,0,0.4799805,nan,4,7.799,1,0,0.34021,0.5696106,0.8065796,0.8475647,-0.04296875,-0.1630859,0.002929688,1,3,0,1,2,3,3,1,-0.13,0,-0.025,0,0,153,0,0,-0.025,0,36
76.236,0.000951,0.01367188,-0.05078125,0.05859375,-1.890625,3.03125,13.64062,0.01171875,0.00390625,0.03515625,-0.05273438,-0.234375,0.07617188,0.008911133,0.03894043,-0.02539062,0,0,0.0002441406,0.6398315,4.09,0,0,0,0.4799805,nan,4,7.809,1,0,0.4555054,0.4736633,0.9026184,0.7276001,-0.04296875,-0.1630859,0.002929688,1,3,0,1,2,3,3,1,-0.13,0,-0.025,0,0,148,0,0,-0.025,0,36
76.247,0.000933,0.001953125,-0.009765625,0.01953125,2.523438,-2.390625,10.01562,0.009765625,0.01757812,-0.01367188,-0.0546875,-0.234375,0.07617188,0.009033203,0.03894043,-0.02526855,0,0,0.0002441406,0.6459351,4.09,0,0,0,0.4799805,nan,4,7.819,1,0,0.3673706,0.5629578,0.8229065,0.8305359,-0.04296875,-0.1640625,0.002929688,1,3,0,1,2,3,3,1,-0.13,0,-0.025,0,0,147,0,0,-0.025,0,36
76.257,0.000985,-0.01171875,-0.02539062,-0.03515625,-2.375,3.671875,8.429688,0,-0.02539062,-0.01367188,-0.0546875,-0.2324219,0.07617188,0.009033203,0.03881836,-0.02526855,0,0,0.0002441406,0.6400757,4.09,0,0,0,0.4799805,nan,4,7.829,1,0,0.3599243,0.5718994,0.7993774,0.8291321,-0.04296875,-0.1640625,0.002929688,1,3,0.1904762,1,2,3,3,1,-0.13,0,-0.025,0,0,147,0,0,-0.025,0,36
76.267,0.001478,0.015625,0.02929688,-0.015625,-0.234375,-8.609375,6.835938,0.009765625,0.01757812,-0.01953125,-0.0546875,-0.2324219,0.07617188,0.009033203,0.03869629,-0.02539062,0,0,0.0002441406,0.633728,4.09,0,0,0,0.4799805,nan,4,7.839,1,0,0.3569946,0.5459595,0.8172302,0.8147888,-0.04296875,-0.1640625,0.002929688,1,3,0,1,2,3,3,1,-0.13,0,-0.025,0,0,140,0,0,-0.025,0,36
76.276,0.001445,-0.001953125,0.04101562,-0.0390625,0.1953125,6.234375,15.23438,-0.0078125,0.005859375,-0.02148438,-0.0546875,-0.2324219,0.07617188,0.009033203,0.03869629,-0.02539062,0,0,0.0002441406,0.6273499,4.09,0,0,0,0.4799805,nan,4,7.849,1,0,0.3464661,0.5474243,0.7970886,0.8184509,-0.04296875,-0.1640625,0.002929688,1,3,0,1,2,3,3,1,-0.13,0,-0.025,0,0,151,0,0,-0.025,0,36
76.286,0.001205,-0.046875,0.05078125,-0.015625,-1.5,-2.484375,5.789062,-0.01953125,0.015625,-0.01757812,-0.05273438,-0.2324219,0.078125,0.008911133,0.03869629,-0.0255127,0,0,0.0002441406,0.6208801,4.09,0,0,0,0.4799805,nan,4,7.858,1,0,0.3525696,0.5254517,0.8006287,0.8049011,-0.04296875,-0.1640625,0.002929688,1,3,0,1,2,3,3,1,-0.13,0,-0.026,0,0,151,0,0,-0.026,0,36
76.297,0.001338,0.01953125,0.04101562,0.015625,-1.828125,4.101562,11.99219,-0.009765625,0.02929688,-0.01367188,-0.05273438,-0.2324219,0.078125,0.008789062,0.03869629,-0.0255127,0,0,0.0002441406,0.6140747,4.09,0,0,0,0.4799805,nan,4,7.869,1,0,0.3407288,0.5179749,0.800354,0.7971802,-0.04296875,-0.1650391,0.002929688,1,3,0,1,2,3,3,1,-0.12,0,-0.026,0,0,149,0,0,-0.026,0,36
76.307,0.000974,0.009765625,-0.08203125,0.0625,0.53125,-4.453125,5.859375,0.0078125,-0.001953125,0.001953125,-0.05273438,-0.2324219,0.078125,0.008789062,0.03869629,-0.02563477,0,0,0.0002441406,0.6074829,4.09,0,0,0,0.4799805,nan,4,7.879,1,0,0.3895264,0.4697266,0.8427734,0.7279053,-0.04296875,-0.1650391,0.002929688,1,3,0,1,2,3,3,1,-0.12,0,-0.026,0,0,149,0,0,-0.026,0,36
76.317,0.001166,0.03125,-0.0546875,0.03125,-0.1171875,4.890625,12.57812,0.015625,0.005859375,0.00390625,-0.05273438,-0.2324219,0.078125,0.008789062,0.03869629,-0.02575684,0,0,0.0002441406,0.6006775,4.09,0,0,0,0.4799805,nan,4,7.889,1,0,0.3746643,0.4699707,0.8313599,0.7267151,-0.04296875,-0.1650391,0.002929688,1,3,0,1,2,3,3,1,-0.11,0,-0.026,0,0,152,0,0,-0.026,0,36
76.326,0.000996,-0.04492188,-0.03125,-0.04882812,0.0546875,-0.5703125,6.820312,-0.001953125,-0.02929688,-0.005859375,-0.05273438,-0.2324219,0.078125,0.008789062,0.03869629,-0.02587891,0,0,0.0002441406,0.603241,4.09,0,0,0,0.4799805,nan,4,7.899,1,0,0.3574524,0.5056763,0.7920227,0.7578125,-0.04296875,-0.1650391,0.002929688,1,3,0,1,2,3,3,1,-0.11,0,-0.026,0,0,147,0,0,-0.026,0,36
76.336,0.000941,-0.01171875,0.01171875,0.03710938,-1.523438,0.0546875,13.32031,-0.00390625,0.0078125,0.005859375,-0.05273438,-0.2324219,0.078125,0.008789062,0.03881836,-0.02587891,0,0,0.0002441406,0.6098633,4.09,0,0,0,0.4799805,nan,4,7.909,1,0,0.3843689,0.4750977,0.8343201,0.745697,-0.04296875,-0.1660156,0.002929688,1,3,0,1,2,3,3,1,-0.11,0,-0.026,0,0,149,0,0,-0.026,0,36
76.346,0.000937,0.02539062,0.0703125,0.015625,0.765625,-0.640625,8.78125,0.0078125,0.04492188,-0.009765625,-0.05273438,-0.234375,0.078125,0.008911133,0.0390625,-0.02600098,0,0,0.0002441406,0.6164856,4.09,0,0,0,0.4799805,nan,4,7.919,1,0,0.3547974,0.5036316,0.822876,0.7845764,-0.04296875,-0.1660156,0.002929688,1,3,0,1,2,3,3,1,-0.11,0,-0.026,0,0,148,0,0,-0.026,0,36
76.356,0.000972,0.01953125,0.04101562,-0.001953125,0.09375,1.078125,15.00781,0.0078125,0.02539062,-0.01367188,-0.05273438,-0.234375,0.078125,0.008911133,0.03918457,-0.02600098,0,0,0.0002441406,0.6231079,4.09,0,0,0,0.4799805,nan,4,7.929,1,0,0.3445129,0.5312805,0.8115845,0.8050842,-0.04296875,-0.1660156,0.002929688,1,3,0,1,2,3,3,1,-0.11,0,-0.026,0,0,144,0,0,-0.026,0,36
76.366,0.001118,0.009765625,0.07421875,-0.02929688,-0.7734375,-0.1875,4.75,-0.0078125,0.0078125,-0.009765625,-0.05273438,-0.234375,0.078125,0.008911133,0.0390625,-0.02600098,0,0,0.0002441406,0.6294556,4.09,0,0,0,0.4799805,nan,4,7.939,1,0,0.3614807,0.5272522,0.8215942,0.8075256,-0.04296875,-0.1660156,0.002929688,1,3,0,1,2,3,3,1,-0.11,0,-0.026,0,0,141,0,0,-0.026,0,36
76.376,0.001038,-0.02148438,0.01367188,-0.01171875,-1.25,-5.78125,9.289062,-0.01171875,-0.01757812,-0.0078125,-0.0546875,-0.234375,0.078125,0.009033203,0.03894043,-0.02600098,0,0,0.0002441406,0.6360168,4.09,0,0,0,0.4799805,nan,4,7.949,1,0,0.3695984,0.5445862,0.8152161,0.8146362,-0.04394531,-0.1669922,0.002929688,1,3,0,1,2,3,3,1,-0.11,0,-0.026,0,0,151,0,0,-0.026,0,36
76.386,0.000992,0.01757812,0.01953125,0.00390625,-0.78125,-2.390625,5.421875,0.01367188,0.0390625,-0.01757812,-0.05273438,-0.234375,0.08007812,0.008911133,0.03918457,-0.02624512,0,0,0.0002441406,0.6401978,4.09,0,0,0,0.4799805,nan,4,7.959,1,0,0.3683472,0.5409546,0.8396301,0.8118286,-0.04394531,-0.1669922,0.002929688,1,3,0,1,2,3,3,1,-0.11,0,-0.026,0,0,146,0,0,-0.026,0,36
76.396,0.001,-0.005859375,0.09179688,-0.05664062,-0.6171875,-0.28125,12.72656,-0.02148438,-0.001953125,-0.0390625,-0.05273438,-0.234375,0.08007812,0.008911133,0.03894043,-0.02624512,0,0,0.0002441406,0.6470642,4.09,0,0,0,0.4799805,nan,4,7.969,1,0,0.3307495,0.5929871,0.7868347,0.877655,-0.04394531,-0.1669922,0.002929688,1,3,0,1,2,3,3,1,-0.12,0,-0.026,0,0,146,0,0,-0.026,0,36
76.406,0.000929,-0.001953125,0.04101562,-0.04101562,-0.90625,3.179688,7.5625,0.01757812,0.03515625,-0.0234375,-0.05273438,-0.2363281,0.08007812,0.008911133,0.03930664,-0.02636719,0,0,0.0002441406,0.6534119,4.09,0,0,0,0.4799805,nan,4,7.979,1,0,0.3632202,0.5718079,0.8334961,0.8451538,-0.04394531,-0.1669922,0.002929688,1,3,0,1,2,3,3,1,-0.12,0,-0.026,0,0,143,0,0,-0.026,0,36
76.416,0.001107,-0.04492188,-0.01367188,-0.05273438,-0.2734375,-1.710938,8.226562,-0.02148438,-0.05273438,0.005859375,-0.05273438,-0.234375,0.08007812,0.008911133,0.03894043,-0.02624512,0,0,0.0002441406,0.6599731,4.09,0,0,0,0.4799805,nan,4,7.989,1,0,0.4046631,0.5682983,0.8362122,0.830658,-0.04394531,-0.1679688,0.002929688,1,3,0,1,2,3,3,1,-0.12,0,-0.026,0,0,132,0,0,-0.026,0,36
76.426,0.000963,0.03710938,0.05664062,0.0234375,-1.828125,1.523438,11.40625,0.009765625,-0.00390625,-0.001953125,-0.05273438,-0.2304688,0.08007812,0.008911133,0.03857422,-0.02624512,0,0,0.0002441406,0.6600037,4.09,0,0,0,0.4799805,nan,4,7.999,1,0,0.3883667,0.5558472,0.8638306,0.8319397,-0.04394531,-0.1679688,0.002929688,1,3,0,1,2,3,3,1,-0.12,0,-0.026,0,0,152,0,0,-0.026,0,36
76.437,0.001149,0.00390625,-0.09179688,0.07226562,0.9296875,0.2578125,7.335938,0.001953125,-0.01367188,0.01171875,-0.05273438,-0.2304688,0.08007812,0.008911133,0.03857422,-0.02624512,0,0,0.0002441406,0.6600037,4.09,0,0,0,0.4799805,nan,4,8.009,1,0,0.4381714,0.5221558,0.8913269,0.7883911,-0.04394531,-0.1679688,0.002929688,1,3,0,1,2,3,3,1,-0.12,0,-0.026,0,0,151,0,0,-0.026,0,36
76.446,0.001377,0.01757812,-0.04101562,0.0546875,-3.265625,-1.140625,12.46094,0,0.01367188,0,-0.05273438,-0.2304688,0.08007812,0.008911133,0.03845215,-0.02624512,0,0,0.0002441406,0.6600037,4.09,0,0,0,0.4799805,nan,4,8.019,1,0,0.4051819,0.5426025,0.8704834,0.8217468,-0.04394531,-0.1679688,0.002929688,1,3,0,1,2,3,3,1,-0.12,0,-0.026,0,0,144,0,0,-0.026,0,36
76.457,0.001417,-0.02929688,0.0390625,-0.009765625,0.625,-2.507812,7.304688,-0.01367188,0.015625,-0.01953125,-0.05273438,-0.2304688,0.08007812,0.008789062,0.03845215,-0.02624512,0,0,0.0002441406,0.6600037,4.09,0,0,0,0.4799805,nan,4,8.03,1,0,0.3685608,0.5785522,0.8320618,0.8608093,-0.04394531,-0.1689453,0.002929688,1,3,0,1,2,3,3,1,-0.13,0,-0.026,0,0,143,0,0,-0.026,0,36
76.466,0.000984,-0.001953125,-0.1015625,0.07226562,1.289062,3.015625,13.50781,0.0078125,-0.03320312,0.03710938,-0.05273438,-0.2304688,0.08007812,0.008911133,0.03845215,-0.02612305,0,0,0.0002441406,0.6600037,4.09,0,0,0,0.4799805,nan,4,8.039,1,0,0.4745483,0.497406,0.9185791,0.7494507,-0.04394531,-0.1689453,0.002929688,1,3,0,1,2,3,3,1,-0.13,0,-0.026,0,0,143,0,0,-0.026,0,36
76.476,0.001018,0.001953125,-0.03125,0.02148438,-2.101562,-2.1875,11.23438,0.009765625,-0.04492188,0.0390625,-0.0546875,-0.2265625,0.078125,0.009033203,0.0378418,-0.02575684,0,0,0.0002441406,0.6600037,4.09,0,0,0,0.4799805,nan,4,8.049,1,0,0.4119263,0.547699,0.8678589,0.8125305,-0.04394531,-0.1689453,0.002929688,1,3,0,1,2,3,3,1,-0.13,0,-0.026,0,0,150,0,0,-0.026,0,36
76.486,0.001107,0.005859375,0.08789062,-0.05273438,1.257812,-0.578125,6.71875,-0.0078125,-0.001953125,-0.0234375,-0.05273438,-0.2246094,0.078125,0.008911133,0.03747559,-0.02563477,0,0,0.0002441406,0.6600037,4.09,0,0,0,0.4799805,nan,4,8.058,1,0,0.317749,0.6199646,0.7931519,0.9091492,-0.04394531,-0.1689453,0.002929688,1,3,0,1,2,3,3,1,-0.13,0,-0.026,0,0,153,0,0,-0.026,0,36
76.497,0.001011,0.01953125,0.04296875,-0.03125,-1.539062,1.9375,12.79688,0,0.04882812,-0.03125,-0.05273438,-0.2265625,0.078125,0.008911133,0.0378418,-0.02600098,0,0,0.0002441406,0.6600037,4.09,0,0,0,0.4799805,nan,4,8.069,1,0,0.3762207,0.5663147,0.8494873,0.8479614,-0.04394531,-0.1689453,0.002929688,1,3,0,1,2,3,3,1,-0.13,0,-0.026,0,0,147,0,0,-0.026,0,36
76.506,0.001074,-0.01171875,-0.1054688,0.015625,-0.8046875,-1.914062,6.367188,-0.001953125,-0.0390625,-0.01953125,-0.0546875,-0.2285156,0.08007812,0.009033203,0.03808594,-0.02636719,0,0,0.0002441406,0.6566772,4.09,0,0,0,0.4799805,nan,4,8.079,1,0,0.4328918,0.5387573,0.8667603,0.7883301,-0.04394531,-0.1699219,0.002929688,1,3,0,1,2,3,3,1,-0.14,0,-0.026,0,0,142,0,0,-0.026,0,36
76.516,0.001008,-0.005859375,-0.04882812,-0.02734375,-0.2109375,3.070312,13.53125,-0.001953125,-0.00390625,-0.001953125,-0.0546875,-0.2265625,0.08007812,0.009033203,0.0378418,-0.02624512,0,0,0.0002441406,0.650116,4.09,0,0,0,0.4799805,nan,4,8.089,1,0,0.3780212,0.555542,0.8363342,0.8305054,-0.04394531,-0.1699219,0.002929688,1,3,0,1,2,3,3,1,-0.14,0,-0.026,0,0,145,0,0,-0.026,0,36
76.526,0.001256,-0.015625,0.03320312,-0.0078125,-1.4375,2.296875,7.304688,0,0.01953125,-0.005859375,-0.0546875,-0.2265625,0.08007812,0.009033203,0.0378418,-0.02624512,0,0,0.0002441406,0.6434631,4.09,0,0,0,0.4799805,nan,4,8.099,1,0,0.3815613,0.5308838,0.8504639,0.8109131,-0.04394531,-0.1699219,0.002929688,1,3,0,1,2,3,3,1,-0.14,0,-0.026,0,0,150,0,0,-0.026,0,36
76.536,0.001248,-0.0078125,-0.05859375,0.01171875,0.7578125,-7.117188,9.117188,-0.01171875,-0.03515625,-0.0078125,-0.05273438,-0.2265625,0.08007812,0.008911133,0.0378418,-0.02636719,0,0,0.0002441406,0.6373291,4.09,0,0,0,0.4799805,nan,4,8.108,1,0,0.3972778,0.5253296,0.8417358,0.7849731,-0.04394531,-0.1699219,0.002929688,1,3,0,1,2,3,3,1,-0.14,0,-0.026,0,0,149,0,0,-0.026,0,36
76.546,0.00131,-0.04296875,0,0.02929688,-2.179688,2.632812,10.30469,-0.03515625,0.001953125,-0.015625,-0.05078125,-0.2265625,0.08007812,0.008666992,0.03771973,-0.02661133,0,0,0.0002441406,0.6394043,4.09,0,0,0,0.4799805,nan,4,8.119,1,0,0.3896484,0.5182495,0.8471069,0.8025818,-0.04394531,-0.1708984,0.002929688,1,3,0,1,2,3,3,1,-0.14,0,-0.027,0,0,150,0,0,-0.027,0,36
76.557,0.001221,0.02734375,0.015625,0.00390625,1.125,-5.078125,7.398438,0.01171875,0,0.01367188,-0.05078125,-0.2285156,0.08007812,0.008544922,0.03796387,-0.02661133,0,0,0.0002441406,0.6455688,4.09,0,0,0,0.4799805,nan,4,8.13,1,0,0.4119263,0.513855,0.8797913,0.7767029,-0.04394531,-0.1708984,0.002929688,1,3,0,1,2,3,3,1,-0.14,0,-0.027,0,0,145,0,0,-0.027,0,36
76.567,0.000937,0.01953125,-0.001953125,0.03515625,-2.007812,6.40625,14.28906,0.0078125,0,0.01757812,-0.05078125,-0.2285156,0.08007812,0.008544922,0.03796387,-0.0267334,0,0,0.0002441406,0.6519775,4.09,0,0,0,0.4799805,nan,4,8.14,1,0,0.4353638,0.5010681,0.9022827,0.7692261,-0.04492188,-0.1708984,0.002929688,1,3,0,1,2,3,3,1,-0.14,0,-0.027,0,0,153,0,0,-0.027,0,36
76.577,0.00138,-0.001953125,0.001953125,-0.03320312,-1.21875,-5.585938,5.867188,-0.0078125,0.02148438,-0.03515625,-0.05078125,-0.2285156,0.08203125,0.008422852,0.03808594,-0.02685547,0,0,0.0002441406,0.6585388,4.09,0,0,0,0.4799805,nan,4,8.149,1,0,0.3504028,0.5904846,0.8212585,0.8720093,-0.04492188,-0.1708984,0.002929688,1,3,0,1,2,3,3,1,-0.14,0,-0.027,0,0,149,0,0,-0.027,0,36
76.587,0.00131,0.02539062,0.09179688,-0.06640625,0.8046875,3.820312,12.27344,0.001953125,0.02734375,-0.01757812,-0.05078125,-0.2285156,0.08203125,0.008300781,0.03796387,-0.02685547,0,0,0.0002441406,0.6600037,4.09,0,0,0,0.4799805,nan,4,8.159,1,0,0.3677063,0.5692444,0.8483887,0.8546753,-0.04492188,-0.1708984,0.002929688,1,3,0,1,2,3,3,1,-0.14,0,-0.027,0,0,145,0,0,-0.027,0,36
76.597,0.001427,0.03125,0.04492188,0.03515625,0.6484375,1.453125,8.3125,0.0078125,-0.001953125,0.03125,-0.04882812,-0.2265625,0.08007812,0.008300781,0.03771973,-0.0267334,0,0,0.0002441406,0.6600037,4.09,0,0,0,0.4799805,nan,4,8.169,1,0,0.4394226,0.5074768,0.9116821,0.7814331,-0.04492188,-0.171875,0.002929688,1,3,0,1,2,3,3,1,-0.15,0,-0.027,0,0,145,0,0,-0.027,0,36
76.607,0.001027,0.0234375,0.07226562,-0.0546875,-1.46875,-3.320312,13.57031,0.009765625,0.06835938,-0.02929688,-0.05078125,-0.2285156,0.08007812,0.008300781,0.03808594,-0.0267334,0,0,0.0002441406,0.6600037,4.09,0,0,0,0.4799805,nan,4,8.179,1,0,0.3279114,0.5993042,0.8207703,0.8919983,-0.04492188,-0.171875,0.002929688,1,3,0,1,2,3,3,1,-0.15,0,-0.027,0,0,145,0,0,-0.027,0,36
76.617,0.001182,-0.03515625,-0.0625,-0.02734375,1.023438,-3.59375,5.742188,-0.009765625,0.015625,-0.04296875,-0.05078125,-0.2324219,0.08203125,0.008300781,0.03857422,-0.02709961,0,0,0.0002441406,0.6600037,4.09,0,0,0,0.4799805,nan,4,8.189,1,0,0.377533,0.5785828,0.8323059,0.8515625,-0.04492188,-0.171875,0.002929688,1,3,0,1,2,3,3,1,-0.15,0,-0.027,0,0,138,0,0,-0.027,0,36
76.626,0.001384,-0.005859375,0.03515625,0.01757812,-0.703125,4.53125,14.69531,-0.01367188,-0.005859375,0.02148438,-0.04882812,-0.2304688,0.08203125,0.008178711,0.03845215,-0.02709961,0,0,0.0002441406,0.6600037,4.09,0,0,0,0.4799805,nan,4,8.199,1,0,0.4442139,0.5031128,0.9089966,0.7836609,-0.04492188,-0.171875,0.002929688,1,3,0,1,2,3,3,1,-0.16,0,-0.027,0,0,150,0,0,-0.027,0,36
76.636,0.00101,-0.0078125,-0.09960938,0.06054688,-0.7890625,-4.898438,7.53125,0.005859375,-0.03320312,0.04296875,-0.04882812,-0.2304688,0.08203125,0.008178711,0.03845215,-0.02685547,0,0,0.0002441406,0.6600037,4.09,0,0,0,0.4799805,nan,4,8.209,1,0,0.4581604,0.506958,0.9098206,0.7650146,-0.04492188,-0.1728516,0.002929688,1,3,0,1,2,3,3,1,-0.16,0,-0.027,0,0,150,0,0,-0.027,0,36
76.647,0.001029,-0.02148438,0.0625,-0.04882812,0.015625,4.789062,13.53906,-0.005859375,0,-0.02734375,-0.04882812,-0.2285156,0.08007812,0.008056641,0.03808594,-0.0267334,0,0,0.0002441406,0.6600037,4.09,0,0,0,0.4799805,nan,4,8.219,1,0,0.3202209,0.6166687,0.7969971,0.9061279,-0.04492188,-0.1728516,0.002929688,1,3,0,1,2,3,3,1,-0.16,0,-0.027,0,0,145,0,0,-0.027,0,36
76.656,0.001055,-0.015625,-0.0234375,0.04492188,-0.4375,-0.8515625,5.085938,0.001953125,0.005859375,0.02734375,-0.04882812,-0.2304688,0.08007812,0.008056641,0.03845215,-0.0267334,0,0,0.0002441406,0.6600037,4.09,0,0,0,0.4799805,nan,4,8.229,1,0,0.4497986,0.5012207,0.9136353,0.7753296,-0.04492188,-0.1728516,0.002929688,1,3,0,1,2,3,3,1,-0.17,0,-0.027,0,0,152,0,0,-0.027,0,36
76.666,0.001162,0,-0.01367188,-0.02539062,0.1171875,1.179688,12.21875,-0.005859375,-0.03125,0.01757812,-0.04882812,-0.2285156,0.08007812,0.008056641,0.03820801,-0.02636719,0,0,0.0002441406,0.6600037,4.09,0,0,0,0.4799805,nan,4,8.239,1,0,0.3866577,0.5690308,0.8451233,0.8391724,-0.04492188,-0.1728516,0.002929688,1,3,0,1,2,3,3,1,-0.17,0,-0.026,0,0,144,0,0,-0.026,0,36
76.677,0.001052,0.005859375,-0.06640625,0.08007812,1.1875,0.3359375,8.070312,0.001953125,-0.009765625,0.03710938,-0.04882812,-0.2304688,0.08007812,0.008056641,0.03833008,-0.02636719,0,0,0.0002441406,0.6600037,4.09,0,0,0,0.4799805,nan,4,8.249,1,0,0.47229,0.4809265,0.9364929,0.7503052,-0.04492188,-0.1738281,0.002929688,1,3,0,1,2,3,3,1,-0.17,0,-0.026,0,0,152,0,0,-0.026,0,36
76.686,0.001206,-0.01171875,-0.03710938,-0.04492188,0.5625,0.8359375,14.57812,0,-0.03125,-0.005859375,-0.04882812,-0.2285156,0.08007812,0.008056641,0.03796387,-0.02624512,0,0,0.0002441406,0.6600037,4.09,0,0,0,0.4799805,nan,4,8.259,1,0,0.3594666,0.5937195,0.8215942,0.8652039,-0.04492188,-0.1738281,0.002929688,1,3,0,1,2,3,3,1,-0.17,0,-0.026,0,0,148,0,0,-0.026,0,36
76.696,0.001488,0.01171875,-0.04882812,0.05273438,-0.859375,-3.84375,4.671875,0.01367188,-0.00390625,0.02148438,-0.04882812,-0.2285156,0.08007812,0.008178711,0.03808594,-0.02636719,0,0,0.0002441406,0.6600037,4.09,0,0,0,0.4799805,nan,4,8.268,1,0,0.4391479,0.5084534,0.9120178,0.780365,-0.04492188,-0.1738281,0.002929688,1,3,0,1,2,3,3,1,-0.18,0,-0.026,0,0,151,0,0,-0.026,0,36
76.706,0.001186,0.015625,-0.01367188,0.0625,-1.515625,2.359375,11.74219,0.0078125,-0.02148438,0.046875,-0.04882812,-0.2285156,0.078125,0.008178711,0.03796387,-0.02600098,0,0,0.0002441406,0.6600037,4.09,0,0,0,0.4799805,nan,4,8.279,1,0,0.4447632,0.5062866,0.9107361,0.7781982,-0.04492188,-0.1738281,0.002929688,1,3,0,1,2,3,3,1,-0.18,0,-0.026,0,0,142,0,0,-0.026,0,36
76.716,0.001068,-0.015625,0.08007812,-0.05273438,0.9921875,-3.640625,7.59375,-0.005859375,0.01367188,-0.02539062,-0.04882812,-0.2265625,0.078125,0.008300781,0.03771973,-0.02575684,0,0,0.0002441406,0.6560974,4.09,0,0,0,0.4799805,nan,4,8.289,1,0,0.3156128,0.6063232,0.7982178,0.9042969,-0.04492188,-0.1748047,0.002929688,1,3,0,1,2,3,3,1,-0.18,0,-0.026,0,0,142,0,0,-0.026,0,36
76.727,0.001005,0.0234375,-0.07421875,0.03125,-3.078125,7.828125,12.72656,0.015625,-0.04296875,0.04101562,-0.05078125,-0.2265625,0.078125,0.008300781,0.03771973,-0.02563477,0,0,0.0002441406,0.6494446,4.09,0,0,0,0.4799805,nan,4,8.299,1,0,0.4384766,0.5018005,0.8985596,0.7589722,-0.04492188,-0.1748047,0.002929688,1,3,0,1,2,3,3,1,-0.18,0,-0.026,0,0,151,0,0,-0.026,0,36
76.737,0.001149,0.01757812,0.05273438,-0.001953125,-0.421875,-6.945312,8.828125,0.00390625,0.02539062,-0.02734375,-0.05078125,-0.2246094,0.078125,0.008422852,0.03747559,-0.02563477,0,0,0.0002441406,0.6428223,4.09,0,0,0,0.4799805,nan,4,8.309,1,0,0.3219604,0.5696716,0.8128967,0.8667603,-0.04492188,-0.1748047,0.002929688,1,3,0,1,2,3,3,1,-0.18,0,-0.026,0,0,150,0,0,-0.026,0,36
76.746,0.001076,-0.01953125,0.0390625,0.009765625,0.5390625,4.539062,11.79688,-0.01757812,0.01171875,0.02539062,-0.05078125,-0.2246094,0.078125,0.008422852,0.03747559,-0.0255127,0,0,0.0002441406,0.6366577,4.09,0,0,0,0.4799805,nan,4,8.319,1,0,0.3936768,0.4967651,0.8669434,0.7892456,-0.04492188,-0.1748047,0.002929688,1,3,0,1,2,3,3,1,-0.18,0,-0.025,0,0,151,0,0,-0.025,0,36
76.756,0.00141,0.01171875,0.005859375,0.02539062,0.046875,-1.03125,6.429688,-0.009765625,0.0078125,0.02539062,-0.04882812,-0.2265625,0.07617188,0.008178711,0.03771973,-0.02526855,0,0,0.0002441406,0.6367188,4.09,0,0,0,0.4799805,nan,4,8.329,1,0,0.394043,0.5045471,0.8654785,0.7828064,-0.04492188,-0.1748047,0.002929688,1,3,0,1,2,3,3,1,-0.18,0,-0.025,0,0,145,0,0,-0.025,0,36
76.767,0.001374,0.046875,0.08203125,-0.06835938,-0.3203125,-0.859375,14.67188,0.01953125,0.015625,-0.02929688,-0.05078125,-0.2246094,0.07617188,0.008300781,0.03759766,-0.02514648,0,0,0.0002441406,0.6402283,4.09,0,0,0,0.4799805,nan,4,8.339,1,0,0.2752686,0.6149902,0.7698975,0.9007568,-0.04589844,-0.1757812,0.002929688,1,3,0,1,2,3,3,1,-0.18,0,-0.025,0,0,138,0,0,-0.025,0,36
76.777,0.001042,-0.01757812,-0.03515625,-0.01953125,2.242188,-0.171875,9.054688,0.005859375,-0.01171875,-0.00390625,-0.05078125,-0.2246094,0.07617188,0.008422852,0.03759766,-0.02514648,0,0,0.0002441406,0.6337891,4.09,0,0,0,0.4799805,nan,4,8.349,1,0,0.3621826,0.5321045,0.8305054,0.8103943,-0.04589844,-0.1757812,0.002929688,1,3,0.01587302,1,2,3,3,1,-0.18,0,-0.025,0,0,138,0,0,-0.025,0,36
76.787,0.001008,-0.0234375,-0.00390625,-0.0234375,-0.0078125,-0.109375,11.91406,-0.01171875,-0.01367188,0.00390625,-0.05078125,-0.2246094,0.07617188,0.008422852,0.03747559,-0.02514648,0,0,0.0002441406,0.6330566,4.09,0,0,0,0.4799805,nan,4,8.359,1,0,0.3739014,0.5167542,0.8424072,0.7991943,-0.04589844,-0.1757812,0.002929688,1,3,0,1,2,3,3,1,-0.18,0,-0.025,0,0,152,0,0,-0.025,0,36
76.797,0.001056,0.0078125,-0.009765625,0.04492188,-0.09375,-4.421875,3.304688,0.02539062,0.03515625,0.009765625,-0.05078125,-0.2265625,0.07617188,0.008544922,0.0378418,-0.02526855,0,0,0.0002441406,0.6396179,4.09,0,0,0,0.4799805,nan,4,8.369,1,0,0.4103699,0.4847717,0.8995361,0.7637634,-0.04589844,-0.1757812,0.002929688,1,3,0,1,2,3,3,1,-0.18,0,-0.025,0,0,147,0,0,-0.025,0,36
76.807,0.001069,-0.01367188,0.02539062,-0.01171875,-1.046875,-0.078125,12.60938,-0.015625,0.009765625,-0.01953125,-0.05078125,-0.2285156,0.07617188,0.008544922,0.03796387,-0.02526855,0,0,0.0002441406,0.6463013,4.09,0,0,0,0.4799805,nan,4,8.379,1,0,0.3521118,0.5596619,0.8253784,0.8480225,-0.04589844,-0.1767578,0.002929688,1,3,0,1,2,3,3,1,-0.18,0,-0.025,0,0,152,0,0,-0.025,0,36
76.817,0.001002,-0.009765625,-0.0390625,0.07617188,-0.9921875,2.140625,10.39062,0.0078125,0.0078125,0.03710938,-0.05078125,-0.2285156,0.07617188,0.008544922,0.03808594,-0.02514648,0,0,0.0002441406,0.6526184,4.09,0,0,0,0.4799805,nan,4,8.389,1,0,0.4477844,0.4794006,0.9253845,0.7579041,-0.04589844,-0.1767578,0.002929688,1,3,0,1,2,3,3,1,-0.19,0,-0.025,0,0,151,0,0,-0.025,0,36
76.826,0.000951,0.03125,-0.00390625,-0.0546875,0.5546875,-0.7734375,7.71875,0.02148438,-0.02539062,-0.005859375,-0.05078125,-0.2265625,0.07421875,0.008666992,0.03771973,-0.02478027,0,0,0.0002441406,0.6589661,4.09,0,0,0,0.4799805,nan,4,8.399,1,0,0.3200378,0.6174927,0.8056946,0.8926392,-0.04589844,-0.1767578,0.002929688,1,3,0,1,2,3,3,1,-0.19,0,-0.025,0,0,137,0,0,-0.025,0,36
76.836,0.000964,0.05078125,0.046875,0.02734375,-2.828125,-0.03125,11.40625,0.02734375,0.02929688,0.01953125,-0.05273438,-0.2265625,0.07617188,0.008789062,0.0378418,-0.02478027,0,0,0.0002441406,0.6600037,4.09,0,0,0,0.4799805,nan,4,8.409,1,0,0.4163818,0.5115356,0.9154053,0.7966614,-0.04589844,-0.1767578,0.002929688,1,3,0,1,2,3,3,1,-0.19,0,-0.025,0,0,149,0,0,-0.025,0,36
76.847,0.000945,0.005859375,0.046875,-0.00390625,1.054688,-1.992188,7.703125,-0.005859375,0.01171875,-0.01171875,-0.05273438,-0.2265625,0.07421875,0.008789062,0.03771973,-0.0246582,0,0,0.0002441406,0.6600037,4.09,0,0,0,0.4799805,nan,4,8.419,1,0,0.3596497,0.5692444,0.8465881,0.864502,-0.04589844,-0.1777344,0.002929688,1,3,0,1,2,3,3,1,-0.19,0,-0.025,0,0,154,0,0,-0.025,0,36
76.856,0.001528,-0.01171875,-0.03320312,-0.0078125,1.34375,-0.1171875,9.257812,0.00390625,-0.0390625,0.0234375,-0.05273438,-0.2265625,0.07421875,0.008789062,0.03759766,-0.02453613,0,0,0.0002441406,0.6600037,4.09,0,0,0,0.4799805,nan,4,8.428,1,0,0.4157715,0.5340881,0.8847351,0.8053894,-0.04589844,-0.1777344,0.002929688,1,3,0.04761905,1,2,3,3,1,-0.2,0,-0.025,0,0,149,0,0,-0.025,0,36
76.867,0.001191,-0.0078125,-0.04882812,0.02929688,-1.578125,-0.7265625,11.3125,-0.00390625,-0.05078125,0.02929688,-0.05273438,-0.2226562,0.07421875,0.008789062,0.03723145,-0.02453613,0,0,0.0002441406,0.6600037,4.09,0,0,0,0.4799805,nan,4,8.439,1,0,0.444458,0.5073853,0.9090576,0.7791138,-0.04589844,-0.1777344,0.002929688,1,3,0,1,2,3,3,1,-0.2,0,-0.024,0,0,152,0,0,-0.024,0,36
76.877,0.001105,-0.001953125,-0.05664062,0.05664062,1.5,-2.625,9.546875,-0.00390625,0.009765625,0.01757812,-0.05273438,-0.2226562,0.07421875,0.008666992,0.03723145,-0.02441406,0,0,0.0002441406,0.6600037,4.09,0,0,0,0.4799805,nan,4,8.449,1,0,0.4256592,0.5096741,0.909729,0.7949219,-0.04589844,-0.1777344,0.002929688,1,3,0.1587302,1,2,3,3,1,-0.2,0,-0.024,0,0,146,0,0,-0.024,0,36
76.886,0.001266,-0.009765625,0.09570312,-0.03320312,-0.8515625,0.5078125,10.69531,-0.0078125,0.0390625,-0.03320312,-0.05078125,-0.2226562,0.07421875,0.008544922,0.03723145,-0.02453613,0,0,0.0002441406,0.6600037,4.09,0,0,0,0.4799805,nan,4,8.459,1,0,0.3462524,0.5739746,0.8436584,0.8761292,-0.04589844,-0.1777344,0.002929688,1,3,0,1,2,3,3,1,-0.21,0,-0.025,0,0,148,0,0,-0.025,0,36
76.897,0.000985,-0.0546875,-0.046875,0.005859375,1.609375,-3.015625,6.9375,-0.01171875,-0.03710938,0.01953125,-0.05273438,-0.2246094,0.07421875,0.008666992,0.03735352,-0.02453613,0,0,0.0002441406,0.656189,4.09,0,0,0,0.4799805,nan,4,8.469,1,0,0.4269714,0.519104,0.8840637,0.7945862,-0.04589844,-0.1787109,0.002929688,1,3,0,1,2,3,3,1,-0.21,0,-0.025,0,0,153,0,0,-0.025,0,36
76.906,0.00104,0.009765625,-0.05273438,0.03515625,-1.460938,-0.1484375,12.9375,-0.001953125,0.005859375,0.01171875,-0.05078125,-0.2246094,0.07421875,0.008544922,0.03735352,-0.02453613,0,0,0.0002441406,0.6499634,4.09,0,0,0,0.4799805,nan,4,8.479,1,0,0.408844,0.5086975,0.8914185,0.7909241,-0.04589844,-0.1787109,0.002929688,1,3,0,1,2,3,3,1,-0.21,0,-0.025,0,0,147,0,0,-0.025,0,36
76.917,0.001143,-0.0234375,-0.0546875,0,-1.007812,-0.46875,9.164062,0,-0.005859375,0.001953125,-0.05078125,-0.2246094,0.07421875,0.008544922,0.03735352,-0.0246582,0,0,0.0002441406,0.6430969,4.09,0,0,0,0.4799805,nan,4,8.49,1,0,0.3903198,0.5170593,0.8668518,0.7981262,-0.04589844,-0.1787109,0.002929688,1,3,0,1,2,3,3,1,-0.2,0,-0.025,0,0,139,0,0,-0.025,0,36
76.927,0.000999,0.001953125,-0.0234375,-0.0546875,0.609375,2.929688,11.26562,-0.001953125,-0.03515625,0.001953125,-0.05078125,-0.2226562,0.07421875,0.008422852,0.03723145,-0.0246582,0,0,0.0002441406,0.6366577,4.09,0,0,0,0.4799805,nan,4,8.499,1,0,0.3746948,0.5246277,0.8475342,0.7998047,-0.04589844,-0.1787109,0.00390625,1,3,0,1,2,3,3,1,-0.2,0,-0.025,0,0,150,0,0,-0.025,0,36
76.937,0.000945,0.009765625,0.0625,0.00390625,-3.023438,1.359375,11.41406,-0.0078125,0.01757812,-0.009765625,-0.05078125,-0.2226562,0.07421875,0.008422852,0.03723145,-0.02478027,0,0,0.0002441406,0.630127,4.09,0,0,0,0.4799805,nan,4,8.509,1,0,0.3497314,0.5157776,0.8410034,0.8140564,-0.04589844,-0.1796875,0.00390625,1,3,0,1,2,3,3,1,-0.2,0,-0.025,0,0,150,0,0,-0.025,0,36
76.946,0.000997,-0.001953125,-0.07421875,0.0390625,-0.0234375,-1.226562,5.265625,-0.00390625,-0.02539062,0.015625,-0.05078125,-0.2246094,0.07421875,0.008422852,0.03735352,-0.02478027,0,0,0.0002441406,0.6236877,4.09,0,0,0,0.4799805,nan,4,8.519,1,0,0.3941956,0.4795532,0.8667603,0.7542725,-0.04589844,-0.1796875,0.00390625,1,3,0,1,2,3,3,1,-0.19,0,-0.025,0,0,147,0,0,-0.025,0,36
76.957,0.001441,0.02148438,-0.05859375,0.02929688,-1.398438,3.507812,12.73438,0.005859375,-0.0234375,0.00390625,-0.05078125,-0.2226562,0.07421875,0.008422852,0.03723145,-0.02478027,0,0,0.0002441406,0.6170349,4.09,0,0,0,0.4799805,nan,4,8.529,1,0,0.3582764,0.4978943,0.8367615,0.775177,-0.046875,-0.1796875,0.00390625,1,3,0,1,2,3,3,1,-0.19,0,-0.025,0,0,152,0,0,-0.025,0,36
76.967,0.001086,-0.01367188,0.01953125,0.01367188,-1.773438,2.625,9.476562,-0.0078125,0.02539062,-0.0078125,-0.05078125,-0.2226562,0.07421875,0.008422852,0.03723145,-0.02478027,0,0,0.0002441406,0.6105347,4.09,0,0,0,0.4799805,nan,4,8.539,1,0,0.32724,0.4964905,0.8199768,0.7984009,-0.046875,-0.1796875,0.00390625,1,3,0.2698413,1,2,3,3,1,-0.19,0,-0.025,0,0,145,0,0,-0.025,0,36
76.977,0.001073,0.03320312,0.03515625,-0.03125,1.429688,-0.890625,9.773438,0.0078125,-0.01171875,-0.01757812,-0.04882812,-0.2226562,0.07617188,0.008300781,0.03710938,-0.02490234,0,0,0.0002441406,0.6038513,4.09,0,0,0,0.4799805,nan,4,8.549,1,0,0.3066101,0.5144348,0.7960815,0.7983093,-0.046875,-0.1796875,0.00390625,1,3,0.5873016,1,2,3,3,1,-0.19,0,-0.025,0,0,151,0,0,-0.025,0,36
76.986,0.001006,-0.02148438,-0.03710938,0.04101562,-2.046875,0.0234375,12.9375,0.001953125,-0.02148438,0,-0.05078125,-0.2207031,0.07617188,0.008422852,0.03686523,-0.02490234,0,0,0.0002441406,0.5976562,4.09,0,0,0,0.4799805,nan,4,8.559,1,0,0.3372498,0.471344,0.8200378,0.7619324,-0.046875,-0.1806641,0.00390625,1,3,0,1,2,3,3,1,-0.18,0,-0.025,0,0,151,0,0,-0.025,0,36
76.996,0.001012,-0.01367188,0.03125,-0.02539062,2.414062,-3.070312,8.820312,-0.015625,0.01171875,0.001953125,-0.04882812,-0.2207031,0.07617188,0.008300781,0.03674316,-0.02490234,0,0,0.0002441406,0.5910034,4.09,0,0,0,0.4799805,nan,4,8.569,1,0,0.3310242,0.4569092,0.8181458,0.7579346,-0.046875,-0.1806641,0.00390625,1,3,0.2857143,1,2,3,3,1,-0.18,0,-0.025,0,0,151,0,0,-0.025,0,36
77.006,0.001546,-0.06640625,0,0.01367188,-1.132812,0.59375,11.10156,-0.0390625,-0.01171875,0.001953125,-0.04882812,-0.2207031,0.07617188,0.008056641,0.03686523,-0.02490234,0,0,0.0002441406,0.5848083,4.09,0,0,0,0.4799805,nan,4,8.579,1,0,0.321167,0.4690247,0.7876587,0.7614441,-0.046875,-0.1806641,0.00390625,1,3,0,1,2,3,3,1,-0.18,0,-0.025,0,0,145,0,0,-0.025,0,36
77.016,0.001044,-0.001953125,-0.09179688,0.0546875,1.578125,-2.304688,6.3125,0.01757812,-0.01171875,0.01757812,-0.046875,-0.2207031,0.07421875,0.00793457,0.03686523,-0.02478027,0,0,0.0002441406,0.5783081,4.09,0,0,0,0.4799805,nan,4,8.589,1,0,0.3383789,0.4362183,0.8304138,0.7081604,-0.046875,-0.1806641,0.00390625,1,3,0,1,2,3,3,1,-0.17,0,-0.025,0,0,145,0,0,-0.025,0,36
77.027,0.000935,0.01367188,0.08203125,-0.02148438,-1.398438,1.4375,9.242188,-0.01367188,0.005859375,-0.009765625,-0.046875,-0.2207031,0.07421875,0.00793457,0.03674316,-0.02478027,0,0,0.0002441406,0.5827332,4.09,0,0,0,0.4799805,nan,4,8.6,1,0,0.283783,0.4886169,0.7702942,0.7882385,-0.046875,-0.1816406,0.00390625,1,3,0.1269841,1,2,3,3,1,-0.18,0,-0.025,0,0,145,0,0,-0.025,0,36
77.036,0.000991,0.01757812,-0.01757812,0.01757812,-0.5,-1.539062,9.671875,-0.00390625,0,0.005859375,-0.046875,-0.2207031,0.07617188,0.00793457,0.03686523,-0.02478027,0,0,0.0002441406,0.5887146,4.09,0,0,0,0.4799805,nan,4,8.609,1,0,0.3433228,0.4463196,0.8296814,0.7355042,-0.046875,-0.1816406,0.00390625,1,3,0.9365079,1,2,3,3,1,-0.18,0,-0.025,0,0,152,0,0,-0.025,0,36
77.047,0.001237,-0.01367188,0.02148438,0.01953125,-2.859375,-1.554688,14.71875,-0.001953125,0.009765625,-0.00390625,-0.046875,-0.2207031,0.07617188,0.00793457,0.03686523,-0.02490234,0,0,0.0002441406,0.595459,4.09,0,0,0,0.4799805,nan,4,8.619,1,0,0.3258362,0.4710693,0.8190308,0.7658386,-0.046875,-0.1816406,0.00390625,1,3,0,1,2,3,3,1,-0.18,0,-0.025,0,0,147,0,0,-0.025,0,36
77.056,0.001128,-0.009765625,0.015625,-0.0546875,0.328125,-0.7890625,8.257812,0.00390625,0.00390625,-0.01757812,-0.046875,-0.2207031,0.07617188,0.00793457,0.03686523,-0.02490234,0,0,0.0002441406,0.6018982,4.09,0,0,0,0.4799805,nan,4,8.629,1,0,0.2981567,0.5142517,0.7898865,0.8052673,-0.046875,-0.1816406,0.00390625,1,3,0,1,2,3,3,1,-0.18,0,-0.025,0,0,147,0,0,-0.025,0,36
77.066,0.001161,0.046875,-0.05664062,0.04492188,-0.9375,0.2421875,13.28906,0.01171875,-0.009765625,0.001953125,-0.046875,-0.2226562,0.07617188,0.00793457,0.0369873,-0.02490234,0,0,0.0002441406,0.6082458,4.09,0,0,0,0.4799805,nan,4,8.639,1,0,0.3574829,0.4737549,0.8473816,0.7543945,-0.046875,-0.1816406,0.00390625,1,3,0,1,2,3,3,1,-0.19,0,-0.025,0,0,143,0,0,-0.025,0,36
77.076,0.001045,0.03320312,0.05859375,-0.01953125,1.835938,1.648438,6.09375,0.01757812,0.0234375,-0.015625,-0.04882812,-0.2207031,0.07617188,0.00793457,0.03686523,-0.02502441,0,0,0.0002441406,0.6147766,4.09,0,0,0,0.4799805,nan,4,8.649,1,0,0.3118286,0.5145874,0.8211975,0.8114319,-0.046875,-0.1826172,0.00390625,1,3,0,1,2,3,3,1,-0.19,0,-0.025,0,0,153,0,0,-0.025,0,36
77.087,0.00095,-0.03320312,0.05273438,-0.03320312,-1.515625,4.578125,10.51562,-0.01171875,0.01367188,-0.0078125,-0.04882812,-0.2226562,0.07617188,0.008056641,0.0369873,-0.02502441,0,0,0.0002441406,0.6220093,4.09,0,0,0,0.4799805,nan,4,8.66,1,0,0.3284912,0.5193481,0.8175354,0.8226318,-0.046875,-0.1826172,0.00390625,1,3,0,1,2,3,3,1,-0.19,0,-0.025,0,0,153,0,0,-0.025,0,36
77.096,0.000929,-0.03710938,-0.0546875,0.01953125,0.5859375,0.8984375,8.078125,-0.01367188,-0.015625,0.009765625,-0.04882812,-0.2226562,0.07617188,0.008056641,0.0369873,-0.02502441,0,0,0.0002441406,0.628418,4.09,0,0,0,0.4799805,nan,4,8.669,1,0,0.3862915,0.4868469,0.8628845,0.7776184,-0.046875,-0.1826172,0.00390625,1,3,0,1,2,3,3,1,-0.19,0,-0.025,0,0,153,0,0,-0.025,0,36
77.107,0.001866,0.03125,0.0078125,-0.04492188,-2.4375,0.1640625,13.83594,-0.001953125,0.00390625,-0.009765625,-0.046875,-0.2226562,0.07617188,0.0078125,0.0369873,-0.02502441,0,0,0.0002441406,0.6347351,4.09,0,0,0,0.4799805,nan,4,8.679,1,0,0.3524475,0.5227966,0.8508301,0.8128967,-0.046875,-0.1826172,0.00390625,1,3,0,1,2,3,3,1,-0.19,0,-0.025,0,0,151,0,0,-0.025,0,36
77.117,0.001448,-0.001953125,-0.02734375,0.03710938,0.5390625,0.8203125,11.03906,0.0078125,0.01367188,-0.00390625,-0.046875,-0.2226562,0.07617188,0.0078125,0.03723145,-0.02514648,0,0,0.0002441406,0.6416931,4.09,0,0,0,0.4799805,nan,4,8.689,1,0,0.3718567,0.5176392,0.8690491,0.8082275,-0.046875,-0.1835938,0.00390625,1,3,0,1,2,3,3,1,-0.2,0,-0.025,0,0,144,0,0,-0.025,0,36
77.126,0.001112,-0.01953125,0.001953125,-0.05273438,-1.070312,1,11.875,-0.001953125,-0.015625,-0.0078125,-0.046875,-0.2226562,0.07617188,0.0078125,0.03710938,-0.02502441,0,0,0.0002441406,0.647644,4.09,0,0,0,0.4799805,nan,4,8.698,1,0,0.3609619,0.5469666,0.8456116,0.8370056,-0.046875,-0.1835938,0.00390625,1,3,0,1,2,3,3,1,-0.2,0,-0.025,0,0,148,0,0,-0.025,0,36
77.137,0.001137,0.001953125,-0.03320312,0.05273438,1.570312,3.710938,13.26562,0.009765625,0.00390625,0,-0.046875,-0.2226562,0.07617188,0.00793457,0.03710938,-0.02526855,0,0,0.0002441406,0.6516724,4.09,0,0,0,0.4799805,nan,4,8.709,1,0,0.4017029,0.506073,0.8979492,0.8009949,-0.046875,-0.1835938,0.00390625,1,3,0,1,2,3,3,1,-0.2,0,-0.025,0,0,155,0,0,-0.025,0,36
77.146,0.000945,0.01171875,0.1054688,-0.04101562,-4,0.59375,7.6875,-0.001953125,0.02929688,-0.03125,-0.046875,-0.2226562,0.07617188,0.00793457,0.0369873,-0.02526855,0,0,0.0002441406,0.6455994,4.09,0,0,0,0.4799805,nan,4,8.719,1,0,0.3108215,0.5658264,0.8269348,0.8788452,-0.046875,-0.1835938,0.00390625,1,3,0,1,2,3,3,1,-0.2,0,-0.025,0,0,148,0,0,-0.025,0,36
77.157,0.000932,-0.02539062,-0.015625,-0.04882812,0.15625,-0.765625,11.67969,-0.00390625,-0.03125,-0.00390625,-0.046875,-0.2226562,0.07617188,0.00793457,0.0369873,-0.02526855,0,0,0.0002441406,0.6385803,4.09,0,0,0,0.4799805,nan,4,8.729,1,0,0.3494568,0.543396,0.8311768,0.8302917,-0.046875,-0.1845703,0.00390625,1,3,0,1,2,3,3,1,-0.19,0,-0.025,0,0,151,0,0,-0.025,0,36
77.166,0.000958,-0.0078125,-0.05664062,0.0390625,-1.320312,5.398438,11.03906,0.00390625,-0.001953125,0.0078125,-0.046875,-0.2226562,0.07617188,0.00793457,0.03710938,-0.02539062,0,0,0.0002441406,0.6321716,4.09,0,0,0,0.4799805,nan,4,8.739,1,0,0.4033508,0.4717407,0.8938293,0.7597351,-0.04785156,-0.1845703,0.00390625,1,3,0,1,2,3,3,1,-0.19,0,-0.025,0,0,148,0,0,-0.025,0,36
77.176,0.001039,0.01953125,0.03515625,0.03710938,0.9609375,-1.132812,10.85156,-0.005859375,0.02148438,0,-0.046875,-0.2226562,0.07617188,0.0078125,0.0369873,-0.0255127,0,0,0.0002441406,0.6256714,4.09,0,0,0,0.4799805,nan,4,8.749,1,0,0.3594971,0.4851379,0.8673706,0.7906189,-0.04785156,-0.1845703,0.00390625,1,3,0,1,2,3,3,1,-0.19,0,-0.025,0,0,147,0,0,-0.025,0,36
77.186,0.001232,0.02148438,0.01171875,0.0546875,-2.609375,5.664062,7.242188,-0.00390625,0.00390625,0.0078125,-0.046875,-0.2226562,0.07617188,0.0078125,0.0369873,-0.0255127,0,0,0.0002441406,0.6192932,4.09,0,0,0,0.4799805,nan,4,8.758,1,0,0.3670959,0.4731445,0.8661499,0.7708435,-0.04785156,-0.1845703,0.00390625,1,3,0.3650794,1,2,3,3,1,-0.19,0,-0.025,0,0,152,0,0,-0.025,0,36
77.196,0.00108,-0.01171875,0.03320312,-0.06054688,-1.523438,-5.289062,8.9375,0.001953125,-0.01367188,-0.0078125,-0.046875,-0.2207031,0.07617188,0.0078125,0.03686523,-0.02539062,0,0,0.0002441406,0.6125793,4.09,0,0,0,0.4799805,nan,4,8.769,1,0,0.3112183,0.5209961,0.803833,0.8143311,-0.04785156,-0.1845703,0.00390625,1,3,0,1,2,3,3,1,-0.19,0,-0.025,0,0,151,0,0,-0.025,0,36
77.206,0.000959,-0.01171875,0.05273438,-0.01757812,-0.921875,4.5,8.71875,0.001953125,0.0234375,-0.02148438,-0.046875,-0.2226562,0.078125,0.0078125,0.0369873,-0.0255127,0,0,0.0002441406,0.6060486,4.09,0,0,0,0.4799805,nan,4,8.779,1,0,0.2982483,0.508667,0.8044128,0.8128662,-0.04785156,-0.1855469,0.00390625,1,3,0.3333333,1,2,3,3,1,-0.18,0,-0.026,0,0,152,0,0,-0.026,0,36
77.216,0.001201,0,-0.07421875,0.046875,0.6796875,1.265625,11.4375,-0.001953125,-0.01367188,0.01953125,-0.046875,-0.2226562,0.078125,0.00793457,0.03710938,-0.0255127,0,0,0.0002441406,0.5996094,4.09,0,0,0,0.4799805,nan,4,8.789,1,0,0.3721619,0.4389038,0.8596802,0.7277222,-0.04785156,-0.1855469,0.00390625,1,3,0,1,2,3,3,1,-0.18,0,-0.025,0,0,145,0,0,-0.025,0,36
77.227,0.001412,-0.02734375,-0.08789062,0.01367188,2.140625,2.976562,7.40625,0,0.001953125,-0.005859375,-0.046875,-0.2226562,0.078125,0.0078125,0.03710938,-0.0255127,0,0,0.0002441406,0.5924988,4.09,0,0,0,0.4799805,nan,4,8.799,1,0,0.3094177,0.4786072,0.806427,0.7755127,-0.04785156,-0.1855469,0.00390625,1,3,0,1,2,3,3,1,-0.18,0,-0.025,0,0,146,0,0,-0.025,0,36
77.236,0.000999,-0.02734375,0.00390625,0.015625,0.6015625,-0.6484375,10.40625,-0.001953125,0.009765625,0.001953125,-0.046875,-0.2226562,0.078125,0.00793457,0.0369873,-0.0255127,0,0,0.0002441406,0.5865479,4.09,0,0,0,0.4799805,nan,4,8.809,1,0,0.3182373,0.4515076,0.8189087,0.7575378,-0.04785156,-0.1855469,0.00390625,1,3,0,1,2,3,3,1,-0.17,0,-0.025,0,0,148,0,0,-0.025,0,36
77.247,0.00097,-0.07226562,0.005859375,-0.01953125,0.6328125,2.234375,6.640625,-0.00390625,-0.01953125,0,-0.04882812,-0.2226562,0.078125,0.008056641,0.0369873,-0.0255127,0,0,0.0002441406,0.5795288,4.09,0,0,0,0.4799805,nan,4,8.819,1,0,0.3169556,0.4511108,0.8006897,0.7493896,-0.04785156,-0.1865234,0.00390625,1,3,0,1,2,3,3,1,-0.17,0,-0.026,0,0,146,0,0,-0.026,0,36
77.258,0.005615,0.015625,-0.01367188,0.02148438,-0.5390625,-4.421875,11.64844,0.01367188,-0.01171875,0.015625,-0.04882812,-0.2207031,0.07617188,0.008178711,0.0369873,-0.02539062,0,0,0.0002441406,0.5720825,4.09,0,0,0,0.4799805,nan,4,8.829,1,128,0.3027649,0.4459839,0.8015442,0.7380676,-0.04785156,-0.1865234,0.00390625,1,3,0,1,2,3,3,1,-0.16,0,-0.025,0,0,141,0,0,-0.025,0,36
77.266,0.001121,-0.01757812,-0.02148438,-0.01171875,-0.5546875,0.21875,7.804688,0.00390625,0,0.00390625,-0.04882812,-0.2226562,0.07617188,0.008178711,0.0369873,-0.02539062,0,0,0.0002441406,0.5724182,4.09,0,0,0,0.4799805,nan,4,8.839,1,128,0.2923584,0.4546204,0.7913818,0.7512817,-0.04785156,-0.1865234,0.00390625,1,3,0,1,2,3,3,1,-0.16,0,-0.025,0,0,141,0,0,-0.025,0,36
77.276,0.001473,-0.0078125,-0.01953125,0.009765625,-0.0546875,-2.226562,9.28125,0.001953125,-0.01171875,0,-0.04882812,-0.2207031,0.07617188,0.008178711,0.03686523,-0.02539062,0,0,0.0002441406,0.5786133,4.09,0,0,0,0.4799805,nan,4,8.849,1,128,0.3021851,0.457428,0.8015747,0.7532654,-0.04785156,-0.1865234,0.00390625,1,3,0.4285714,1,2,3,3,1,-0.17,0,-0.025,0,0,122,0,0,-0.025,0,36
77.286,0.00139,0.015625,0.04101562,0.005859375,1.023438,1.46875,5.367188,0.00390625,0.015625,0,-0.04882812,-0.2207031,0.07617188,0.008300781,0.0369873,-0.02539062,0,0,0.0002441406,0.5852966,4.09,0,0,0,0.4799805,nan,4,8.859,1,128,0.3079834,0.4560852,0.816864,0.7602234,-0.04785156,-0.1865234,0.00390625,1,3,0,1,2,3,3,1,-0.17,0,-0.025,0,0,142,0,0,-0.025,0,36
77.297,0.00147,0.0546875,-0.001953125,-0.005859375,-0.59375,-0.890625,12.61719,0.009765625,0.001953125,-0.001953125,-0.04882812,-0.2226562,0.07617188,0.008300781,0.0369873,-0.02539062,0,0,0.0002441406,0.5922241,4.09,0,0,0,0.4799805,nan,4,8.869,1,128,0.3136902,0.4710999,0.8196106,0.7644958,-0.04785156,-0.1875,0.00390625,1,3,0,1,2,3,3,1,-0.17,0,-0.025,0,0,146,0,0,-0.025,0,36
77.306,0.001098,0.04296875,-0.009765625,-0.01171875,0.984375,0.5859375,5.4375,0.01953125,-0.005859375,-0.001953125,-0.05078125,-0.2226562,0.07617188,0.008300781,0.0369873,-0.02539062,0,0,0.0002441406,0.5983276,4.09,0,0,0,0.4799805,nan,4,8.879,1,128,0.3060913,0.4890137,0.8184509,0.7798157,-0.04785156,-0.1875,0.00390625,1,3,0,1,2,3,3,1,-0.18,0,-0.025,0,0,145,0,0,-0.025,0,36
77.316,0.001276,0.001953125,0.01171875,0.01953125,-1.4375,0.9765625,12.90625,0.01953125,0.01171875,0.00390625,-0.05078125,-0.2226562,0.07617188,0.008544922,0.0369873,-0.02539062,0,0,0.0002441406,0.6045837,4.09,0,0,0,0.4799805,nan,4,8.888,1,128,0.327301,0.4754333,0.8387451,0.776886,-0.04785156,-0.1875,0.00390625,1,3,0,1,2,3,3,1,-0.18,0,-0.025,0,0,140,0,0,-0.025,0,36
77.327,0.00132,0.0078125,0.0078125,0.0078125,0.6328125,0.3984375,9.585938,0,-0.00390625,0.001953125,-0.05078125,-0.2226562,0.07617188,0.008544922,0.0369873,-0.02539062,0,0,0.0002441406,0.6117859,4.09,0,0,0,0.4799805,nan,4,8.899,1,128,0.3340454,0.4887085,0.8359375,0.7884216,-0.04785156,-0.1875,0.00390625,1,3,0.4920635,1,2,3,3,1,-0.18,0,-0.025,0,0,141,0,0,-0.025,0,36
77.336,0.001238,0.03125,0.015625,0.0078125,-3.773438,-1.148438,10.79688,0.005859375,0.01171875,-0.00390625,-0.05078125,-0.2226562,0.07617188,0.008666992,0.0369873,-0.02539062,0,0,0.0002441406,0.6179504,4.09,0,0,0,0.4799805,nan,4,8.909,1,128,0.3317566,0.4969482,0.8430481,0.8000793,-0.04785156,-0.1884766,0.00390625,1,3,0,1,2,3,3,1,-0.19,0,-0.025,0,0,144,0,0,-0.025,0,36
77.346,0.001227,0.01367188,-0.03320312,0.005859375,-0.75,1.890625,15.26562,0,-0.005859375,0,-0.05078125,-0.2226562,0.07617188,0.008544922,0.0369873,-0.02539062,0,0,0.0002441406,0.6225586,4.09,0,0,0,0.4799805,nan,4,8.919,1,128,0.3481445,0.4971008,0.8514099,0.7935791,-0.04785156,-0.1884766,0.00390625,1,3,0,1,2,3,3,1,-0.19,0,-0.025,0,0,141,0,0,-0.025,0,36
77.357,0.000941,-0.05859375,-0.02929688,-0.009765625,-0.5703125,-4.945312,9.710938,-0.0234375,-0.015625,0,-0.05078125,-0.2226562,0.078125,0.008544922,0.0369873,-0.0255127,0,0,0.0002441406,0.615387,4.09,0,0,0,0.4799805,nan,4,8.929,1,128,0.3512878,0.4822998,0.8404236,0.7875977,-0.04882812,-0.1884766,0.00390625,1,3,0,1,2,3,3,1,-0.18,0,-0.025,0,0,140,0,0,-0.025,0,36
77.366,0.000962,0.04882812,-0.009765625,-0.001953125,-0.5859375,6.460938,13.67188,0.03320312,0,0.005859375,-0.05078125,-0.2207031,0.078125,0.008544922,0.03686523,-0.0255127,0,0,0.0002441406,0.6091003,4.09,0,0,0,0.4799805,nan,4,8.939,1,128,0.3323669,0.4808044,0.8538208,0.7694702,-0.04882812,-0.1884766,0.00390625,1,3,0,1,2,3,3,1,-0.18,0,-0.026,0,0,140,0,0,-0.026,0,36
77.376,0.001606,-0.02539062,-0.0078125,-0.0234375,1.4375,-5.15625,5.226562,-0.00390625,-0.005859375,-0.00390625,-0.05273438,-0.2207031,0.078125,0.008789062,0.03686523,-0.0255127,0,0,0.0002441406,0.6023865,4.09,0,0,0,0.4799805,nan,4,8.949,1,128,0.3201904,0.4824829,0.8181152,0.7887878,-0.04882812,-0.1884766,0.00390625,1,3,0,1,2,3,3,1,-0.18,0,-0.025,0,0,140,0,0,-0.025,0,36
77.387,0.001709,0.03125,0,0.01367188,-0.4453125,5.125,8.054688,0.005859375,0,-0.005859375,-0.05273438,-0.2207031,0.078125,0.008789062,0.03686523,-0.0255127,0,0,0.0002441406,0.5953369,4.09,0,0,0,0.4799805,nan,4,8.96,1,128,0.3110046,0.4743347,0.8249207,0.7710571,-0.04882812,-0.1894531,0.00390625,1,3,0.4444444,1,2,3,3,1,-0.17,0,-0.026,0,0,148,0,0,-0.026,0,36
77.396,0.001232,0.03710938,-0.0390625,0,-0.84375,-5.835938,6.34375,0.03710938,-0.015625,0.01367188,-0.0546875,-0.2207031,0.078125,0.009033203,0.03686523,-0.0255127,0,0,0.0002441406,0.5897217,4.09,0,0,0,0.4799805,nan,4,8.968,1,128,0.3302917,0.4512329,0.8419495,0.7353821,-0.04882812,-0.1894531,0.00390625,1,3,0,1,2,3,3,1,-0.16,0,-0.026,0,0,152,0,0,-0.026,0,36
77.406,0.000931,0.04492188,0.0703125,-0.03515625,-1.6875,5.234375,7.984375,0.0078125,0.005859375,-0.009765625,-0.0546875,-0.2207031,0.078125,0.009033203,0.03686523,-0.0255127,0,0,0.0002441406,0.5831299,4.09,0,0,0,0.4799805,nan,4,8.978,1,128,0.265625,0.4890137,0.7858582,0.7920227,-0.04882812,-0.1894531,0.00390625,1,3,0.2063492,1,2,3,3,1,-0.16,0,-0.026,0,0,152,0,0,-0.026,0,36
77.417,0.001197,0.0703125,-0.0234375,0.04492188,-0.359375,-2.710938,14.60938,0.02539062,0.0078125,0.0078125,-0.0546875,-0.2226562,0.078125,0.009155273,0.0369873,-0.02563477,0,0,0.0002441406,0.5760803,4.09,0,0,0,0.4799805,nan,4,8.989,1,128,0.3088989,0.4348145,0.8319702,0.7286377,-0.04882812,-0.1894531,0.00390625,1,3,0,1,2,3,3,1,-0.16,0,-0.026,0,0,139,0,0,-0.026,0,36
77.426,0.000949,-0.08398438,-0.01757812,-0.02929688,-0.4453125,-0.4140625,8.4375,-0.02734375,-0.009765625,-0.001953125,-0.0546875,-0.2226562,0.078125,0.009155273,0.0369873,-0.02563477,0,0,0.0002441406,0.5698242,4.09,0,0,0,0.4799805,nan,4,8.999,1,128,0.3061829,0.4334412,0.7945557,0.7451477,-0.04882812,-0.1904297,0.00390625,1,3,0,1,2,3,3,1,-0.15,0,-0.026,0,0,147,0,0,-0.026,0,36
77.437,0.00095,0.00390625,-0.015625,0.04492188,-1.789062,4.15625,12.52344,-0.01757812,0.01171875,0.001953125,-0.05273438,-0.2226562,0.078125,0.008911133,0.0369873,-0.02563477,0,0,0.0002441406,0.5628357,4.09,0,0,0,0.4799805,nan,4,9.009,1,128,0.2909851,0.4222107,0.8068237,0.7313232,-0.04882812,-0.1904297,0.00390625,1,3,0,1,2,3,3,1,-0.15,0,-0.026,0,0,143,0,0,-0.026,0,36
77.446,0.000978,-0.0390625,0.0234375,-0.0390625,0.046875,-6.296875,6.75,-0.02148438,0,-0.005859375,-0.05273438,-0.2226562,0.078125,0.008789062,0.0369873,-0.02575684,0,0,0.0002441406,0.556488,4.09,0,0,0,0.4799805,nan,4,9.019,1,128,0.2671509,0.4391479,0.7709045,0.7488098,-0.04882812,-0.1904297,0.00390625,1,3,0,1,2,3,3,1,-0.14,0,-0.026,0,0,143,0,0,-0.026,0,36
77.456,0.001046,-0.0625,-0.03710938,-0.02148438,-1.515625,-0.4296875,10.17188,-0.01171875,-0.01367188,0,-0.05273438,-0.2226562,0.078125,0.008789062,0.03710938,-0.02575684,0,0,0.0002441406,0.5584717,4.09,0,0,0,0.4799805,nan,4,9.029,1,128,0.2878723,0.4299011,0.7824402,0.7337036,-0.04882812,-0.1904297,0.00390625,1,3,0.01587302,1,2,3,3,1,-0.14,0,-0.026,0,0,144,0,0,-0.026,0,36
77.466,0.001008,-0.005859375,-0.02148438,-0.0234375,-2.28125,-5.140625,11.75,-0.009765625,-0.009765625,-0.001953125,-0.05273438,-0.2226562,0.078125,0.008789062,0.0369873,-0.02575684,0,0,0.0002441406,0.5654907,4.09,0,0,0,0.4799805,nan,4,9.039,1,128,0.283783,0.4430542,0.7861328,0.7490234,-0.04882812,-0.1914062,0.00390625,1,3,0,1,2,3,3,1,-0.14,0,-0.026,0,0,144,0,0,-0.026,0,36
77.476,0.000996,-0.08203125,-0.01757812,-0.0234375,-0.6015625,0.0234375,8.703125,-0.02148438,-0.00390625,-0.001953125,-0.05273438,-0.2226562,0.078125,0.008911133,0.0369873,-0.02575684,0,0,0.0002441406,0.5718994,4.09,0,0,0,0.4799805,nan,4,9.049,1,128,0.2868347,0.4494019,0.785675,0.7657166,-0.04882812,-0.1914062,0.00390625,1,3,0,1,2,3,3,1,-0.14,0,-0.026,0,0,127,0,0,-0.026,0,36
77.487,0.000937,0.0234375,0.01757812,0.0234375,-3.132812,-2.71875,11.33594,-0.01171875,-0.001953125,0.001953125,-0.05078125,-0.2207031,0.078125,0.008544922,0.0369873,-0.02575684,0,0,0.0002441406,0.5788574,4.09,0,0,0,0.4799805,nan,4,9.059,1,128,0.2998657,0.4472046,0.8184509,0.7499695,-0.04882812,-0.1914062,0.00390625,1,3,0,1,2,3,3,1,-0.14,0,-0.026,0,0,143,0,0,-0.026,0,36
77.496,0.001053,0.01367188,0.04492188,-0.03125,-0.796875,-4.554688,9.515625,0.03125,0.01171875,-0.005859375,-0.05273438,-0.2226562,0.078125,0.008789062,0.0369873,-0.02575684,0,0,0.0002441406,0.5852966,4.09,0,0,0,0.4799805,nan,4,9.069,1,128,0.2825623,0.472229,0.8113708,0.7750549,-0.04882812,-0.1914062,0.00390625,1,3,0,1,2,3,3,1,-0.14,0,-0.026,0,0,144,0,0,-0.026,0,36
77.506,0.001147,-0.0546875,-0.04101562,-0.005859375,-2.507812,0.1796875,9.59375,-0.0078125,-0.015625,-0.001953125,-0.05273438,-0.2226562,0.078125,0.008789062,0.0369873,-0.02587891,0,0,0.0002441406,0.5919495,4.09,0,0,0,0.4799805,nan,4,9.079,1,128,0.3121643,0.4677734,0.8161621,0.771637,-0.04882812,-0.1914062,0.00390625,1,3,0.6190476,1,2,3,3,1,-0.14,0,-0.026,0,0,144,0,0,-0.026,0,36
77.517,0.000979,0.015625,0.0078125,0.009765625,-2.46875,-0.7265625,13.66406,-0.0078125,0.00390625,0,-0.05273438,-0.2207031,0.078125,0.008789062,0.03686523,-0.02587891,0,0,0.0002441406,0.5987244,4.09,0,0,0,0.4799805,nan,4,9.089,1,128,0.3152161,0.4671326,0.8327026,0.7799072,-0.04882812,-0.1923828,0.00390625,1,3,0,1,2,3,3,1,-0.14,0,-0.026,0,0,145,0,0,-0.026,0,36
77.526,0.000948,-0.03125,0.01367188,-0.01367188,-0.6484375,1.703125,7.460938,0.001953125,0.0078125,-0.005859375,-0.05273438,-0.2207031,0.078125,0.008911133,0.03686523,-0.02587891,0,0,0.0002441406,0.6048584,4.09,0,0,0,0.4799805,nan,4,9.099,1,128,0.308136,0.4877625,0.8218384,0.8016357,-0.04882812,-0.1923828,0.00390625,1,3,0,1,2,3,3,1,-0.14,0,-0.026,0,0,122,0,0,-0.026,0,36
77.536,0.000955,0.03320312,0.01757812,-0.0234375,-2.726562,0.9765625,15.73438,0.03320312,-0.009765625,-0.001953125,-0.0546875,-0.2207031,0.078125,0.009033203,0.03686523,-0.02587891,0,0,0.0002441406,0.6115112,4.09,0,0,0,0.4799805,nan,4,9.109,1,128,0.3128357,0.5010681,0.8370361,0.795166,-0.04980469,-0.1923828,0.00390625,1,3,0,1,2,3,3,1,-0.14,0,-0.026,0,0,144,0,0,-0.026,0,36
77.546,0.001007,-0.001953125,0.01171875,0.01757812,2.328125,0.796875,4.664062,0,0.0078125,0,-0.0546875,-0.2207031,0.078125,0.009155273,0.03686523,-0.02587891,0,0,0.0002441406,0.6178589,4.09,0,0,0,0.4799805,nan,4,9.119,1,128,0.3331909,0.4857788,0.853241,0.7992859,-0.04980469,-0.1923828,0.00390625,1,3,0,1,2,3,3,1,-0.14,0,-0.026,0,0,143,0,0,-0.026,0,36
77.556,0.001095,-0.03515625,-0.0703125,0.00390625,-0.3515625,2.984375,12.59375,0.001953125,-0.015625,0.001953125,-0.0546875,-0.2207031,0.078125,0.009155273,0.03686523,-0.02587891,0,0,0.0002441406,0.6244812,4.09,0,0,0,0.4799805,nan,4,9.129,1,128,0.3510437,0.4952698,0.8579712,0.7936096,-0.04980469,-0.1933594,0.00390625,1,3,0,1,2,3,3,1,-0.14,0,-0.026,0,0,143,0,0,-0.026,0,36
77.567,0.001358,0,0.09570312,-0.03515625,2.023438,1.25,7.234375,-0.00390625,0.02148438,-0.009765625,-0.0546875,-0.2207031,0.078125,0.009155273,0.03686523,-0.02587891,0,0,0.0002441406,0.6314392,4.09,0,0,0,0.4799805,nan,4,9.139,1,128,0.3274231,0.5130615,0.8526611,0.8326111,-0.04980469,-0.1933594,0.00390625,1,3,0,1,2,3,3,1,-0.13,0,-0.026,0,0,140,0,0,-0.026,0,36
77.576,0.001586,-0.02734375,-0.02734375,-0.03125,-1.023438,-0.9140625,12.19531,-0.0078125,-0.03320312,0,-0.0546875,-0.2207031,0.078125,0.009155273,0.03686523,-0.02587891,0,0,0.0002441406,0.6371765,4.09,0,0,0,0.4799805,nan,4,9.149,1,128,0.354248,0.5216064,0.8539429,0.8189087,-0.04980469,-0.1933594,0.00390625,1,3,0,1,2,3,3,1,-0.13,0,-0.026,0,0,140,0,0,-0.026,0,36
77.587,0.001611,0.02539062,-0.05078125,-0.0234375,-0.2265625,0.15625,6.4375,0.005859375,-0.05664062,0.005859375,-0.0546875,-0.2167969,0.078125,0.009155273,0.03625488,-0.02563477,0,0,0.0002441406,0.6349182,4.09,0,0,0,0.4799805,nan,4,9.16,1,128,0.3476868,0.5213928,0.855835,0.8147278,-0.04980469,-0.1933594,0.00390625,1,3,0,1,2,3,3,1,-0.13,0,-0.026,0,0,139,0,0,-0.026,0,36
77.596,0.00098,0.001953125,0.005859375,-0.0078125,0.5625,-3.28125,9.3125,0.015625,0.03125,-0.00390625,-0.05664062,-0.21875,0.078125,0.009399414,0.03637695,-0.02563477,0,0,0.0002441406,0.6375122,4.09,0,0,0,0.4799805,nan,4,9.169,1,128,0.3315125,0.5174866,0.8643188,0.8367004,-0.04980469,-0.1933594,0.00390625,1,3,0.4920635,1,2,3,3,1,-0.13,0,-0.026,0,0,141,0,0,-0.026,0,36
77.606,0.0011,-0.001953125,0.04492188,0.04492188,0.3515625,6.632812,12.78125,-0.001953125,0.03710938,0,-0.05664062,-0.21875,0.078125,0.009399414,0.03649902,-0.02575684,0,0,0.0002441406,0.6410828,4.09,0,0,0,0.4799805,nan,4,9.179,1,128,0.3640442,0.4891052,0.8977966,0.8134155,-0.04980469,-0.1943359,0.00390625,1,3,0,1,2,3,3,1,-0.13,0,-0.026,0,0,143,0,0,-0.026,0,36
77.616,0.001008,-0.005859375,0.0390625,-0.015625,0.421875,-1.71875,8.359375,0.005859375,0.009765625,-0.005859375,-0.05664062,-0.21875,0.078125,0.009399414,0.03649902,-0.02575684,0,0,0.0002441406,0.6367493,4.09,0,0,0,0.4799805,nan,4,9.189,1,128,0.3258972,0.5267944,0.8546753,0.8395996,-0.04980469,-0.1943359,0.00390625,1,3,0,1,2,3,3,1,-0.13,0,-0.026,0,0,144,0,0,-0.026,0,36
77.626,0.000962,0.01171875,0.02734375,-0.03320312,-0.15625,-1.0625,12.55469,0.005859375,-0.005859375,-0.0078125,-0.05664062,-0.21875,0.078125,0.009521484,0.03637695,-0.02563477,0,0,0.0002441406,0.6362915,4.09,0,0,0,0.4799805,nan,4,9.199,1,128,0.324646,0.5333862,0.8461914,0.8409729,-0.04980469,-0.1943359,0.00390625,1,3,0,1,2,3,3,1,-0.13,0,-0.026,0,0,120,0,0,-0.026,0,36
77.636,0.001095,-0.02734375,-0.0078125,-0.0390625,-1.820312,-1.390625,5.625,0,0.001953125,-0.009765625,-0.05664062,-0.21875,0.078125,0.009521484,0.03649902,-0.02575684,0,0,0.0002441406,0.630249,4.09,0,0,0,0.4799805,nan,4,9.209,1,128,0.3260498,0.5188293,0.8452759,0.8308105,-0.04980469,-0.1943359,0.00390625,1,3,0,1,2,3,3,1,-0.13,0,-0.026,0,0,144,0,0,-0.026,0,36
77.646,0.000955,0.001953125,-0.0390625,0.05664062,1.023438,-7.382812,9.617188,-0.001953125,-0.001953125,0.009765625,-0.05664062,-0.21875,0.078125,0.009521484,0.03637695,-0.02563477,0,0,0.0002441406,0.6306458,4.09,0,0,0,0.4799805,nan,4,9.219,1,128,0.3594055,0.4865723,0.8789978,0.7976685,-0.04980469,-0.1953125,0.00390625,1,3,0,1,2,3,3,1,-0.13,0,-0.026,0,0,148,0,0,-0.026,0,36
77.657,0.00117,0.01171875,0.1347656,-0.04101562,-0.8828125,1.609375,7.460938,0.01171875,0.04296875,-0.02734375,-0.05664062,-0.21875,0.078125,0.009643555,0.03637695,-0.02575684,0,0,0.0002441406,0.625824,4.09,0,0,0,0.4799805,nan,4,9.229,1,128,0.2766724,0.5375061,0.8247986,0.8643188,-0.04980469,-0.1953125,0.00390625,1,3,0,1,2,3,3,1,-0.13,0,-0.026,0,0,141,0,0,-0.026,0,36
77.667,0.001065,-0.05664062,-0.1171875,0.04882812,1.117188,-5.25,7.625,-0.0078125,0,0.0078125,-0.05859375,-0.2207031,0.078125,0.009643555,0.03674316,-0.02587891,0,0,0.0002441406,0.6193848,4.09,0,0,0,0.4799805,nan,4,9.239,1,128,0.3890381,0.4460754,0.8917847,0.7506409,-0.04980469,-0.1953125,0.00390625,1,3,0,1,2,3,3,1,-0.13,0,-0.026,0,0,141,0,0,-0.026,0,36
77.676,0.001067,0.015625,-0.001953125,-0.03320312,-0.2421875,3.882812,13.95312,-0.009765625,-0.0078125,-0.009765625,-0.05664062,-0.2207031,0.078125,0.009399414,0.03662109,-0.02587891,0,0,0.0002441406,0.6133118,4.09,0,0,0,0.4799805,nan,4,9.248,1,128,0.303833,0.5076599,0.8266296,0.8151855,-0.04980469,-0.1953125,0.00390625,1,3,0,1,2,3,3,1,-0.12,0,-0.026,0,0,123,0,0,-0.026,0,36
77.687,0.000945,-0.0546875,-0.04101562,-0.015625,-1.859375,-5.539062,7.679688,-0.04492188,-0.015625,0.0078125,-0.0546875,-0.2207031,0.078125,0.009155273,0.03662109,-0.02587891,0,0,0.0002441406,0.6062622,4.09,0,0,0,0.4799805,nan,4,9.259,1,128,0.3332214,0.4701233,0.8354797,0.7861938,-0.04980469,-0.1953125,0.00390625,1,3,0.6349207,1,2,3,3,1,-0.12,0,-0.026,0,0,143,0,0,-0.026,0,36
77.696,0.001002,-0.009765625,0.1269531,-0.0546875,-0.8828125,2.601562,15.13281,-0.01757812,0.03125,-0.015625,-0.05273438,-0.21875,0.078125,0.008911133,0.03662109,-0.02575684,0,0,0.0002441406,0.599884,4.09,0,0,0,0.4799805,nan,4,9.269,1,128,0.2560425,0.506134,0.8022156,0.835083,-0.04980469,-0.1962891,0.00390625,1,3,0,1,2,3,3,1,-0.12,0,-0.026,0,0,143,0,0,-0.026,0,36
77.706,0.000964,0.01953125,-0.0078125,0.02929688,-1.59375,5.296875,9.515625,0.005859375,-0.00390625,-0.001953125,-0.05273438,-0.2207031,0.078125,0.008789062,0.03662109,-0.02575684,0,0,0.0002441406,0.5935059,4.09,0,0,0,0.4799805,nan,4,9.279,1,128,0.3034363,0.4689026,0.8338623,0.7677612,-0.04980469,-0.1962891,0.00390625,1,3,0,1,2,3,3,1,-0.11,0,-0.026,0,0,141,0,0,-0.026,0,36
77.716,0.001718,-0.00390625,-0.0078125,0.001953125,2.460938,-1.546875,6.273438,-0.005859375,-0.005859375,-0.001953125,-0.05273438,-0.2207031,0.078125,0.008789062,0.03674316,-0.02575684,0,0,0.0002441406,0.5869141,4.09,0,0,0,0.4799805,nan,4,9.289,1,128,0.290741,0.4685669,0.8103638,0.7780151,-0.05078125,-0.1962891,0.00390625,1,3,0,1,2,3,3,1,-0.11,0,-0.026,0,0,143,0,0,-0.026,0,36
77.726,0.001381,-0.005859375,-0.0703125,0.01757812,-1.890625,3.625,8.984375,-0.001953125,-0.00390625,-0.00390625,-0.05273438,-0.2207031,0.078125,0.008789062,0.03674316,-0.02575684,0,0,0.0002441406,0.5892944,4.09,0,0,0,0.4799805,nan,4,9.299,1,128,0.2940063,0.4684448,0.8149109,0.7797546,-0.05078125,-0.1962891,0.00390625,1,3,0.7619048,1,2,3,3,1,-0.1,0,-0.026,0,0,141,0,0,-0.026,0,36
77.736,0.001384,0.0234375,0.08398438,-0.02929688,2.78125,-0.7109375,7.414062,0.015625,0.02929688,-0.00390625,-0.05273438,-0.2207031,0.078125,0.008789062,0.03662109,-0.02575684,0,0,0.0002441406,0.5957336,4.09,0,0,0,0.4799805,nan,4,9.309,1,128,0.2901001,0.466217,0.8373108,0.7893066,-0.05078125,-0.1972656,0.00390625,1,3,0,1,2,3,3,1,-0.1,0,-0.026,0,0,141,0,0,-0.026,0,36
77.747,0.001395,0.04296875,-0.00390625,0.01367188,-0.9140625,3.679688,11.625,0.01171875,-0.009765625,0.00390625,-0.05273438,-0.2207031,0.078125,0.008789062,0.03674316,-0.02587891,0,0,0.0002441406,0.6027527,4.09,0,0,0,0.4799805,nan,4,9.32,1,128,0.3218689,0.4691162,0.8497925,0.7702332,-0.05078125,-0.1972656,0.00390625,1,3,0,1,2,3,3,1,-0.1,0,-0.026,0,0,141,0,0,-0.026,0,36
77.757,0.000947,-0.001953125,-0.0390625,0.02734375,1.40625,2.109375,7.90625,-0.009765625,-0.0234375,0.0078125,-0.05273438,-0.21875,0.078125,0.008789062,0.03662109,-0.02587891,0,0,0.0002441406,0.6091309,4.09,0,0,0,0.4799805,nan,4,9.329,1,128,0.3453979,0.4598694,0.8628845,0.7684021,-0.05078125,-0.1972656,0.00390625,1,3,0,1,2,3,3,1,-0.1,0,-0.026,0,0,143,0,0,-0.026,0,36
77.767,0.001011,0.005859375,0.03710938,-0.02539062,0.609375,-0.0078125,12.0625,0,0.01171875,0,-0.05273438,-0.21875,0.078125,0.008666992,0.03662109,-0.02587891,0,0,0.0002441406,0.6160889,4.09,0,0,0,0.4799805,nan,4,9.339,1,128,0.3204346,0.4839478,0.8574219,0.8025208,-0.05078125,-0.1972656,0.00390625,1,3,0,1,2,3,3,1,-0.1,0,-0.026,0,0,143,0,0,-0.026,0,36
77.777,0.001125,-0.01757812,-0.001953125,-0.03320312,-1.335938,5.15625,10.07031,-0.005859375,-0.00390625,-0.005859375,-0.05273438,-0.21875,0.078125,0.008666992,0.03662109,-0.02587891,0,0,0.0002441406,0.6222534,4.09,0,0,0,0.4799805,nan,4,9.349,1,128,0.3147583,0.5089111,0.8415833,0.823761,-0.05078125,-0.1982422,0.00390625,1,3,0,1,2,3,3,1,-0.1,0,-0.026,0,0,143,0,0,-0.026,0,36
77.787,0.001038,0.03125,-0.001953125,0.01367188,-0.15625,-7.148438,9.226562,0,-0.009765625,-0.001953125,-0.05273438,-0.21875,0.078125,0.008666992,0.03662109,-0.02587891,0,0,0.0002441406,0.6264038,4.09,0,0,0,0.4799805,nan,4,9.359,1,128,0.3369751,0.4978943,0.8642273,0.8065491,-0.05078125,-0.1982422,0.00390625,1,3,0,1,2,3,3,1,-0.1,0,-0.026,0,0,145,0,0,-0.026,0,36
77.797,0.000941,-0.001953125,0.0390625,0.01953125,-1.0625,2.171875,14.33594,-0.00390625,0.001953125,0,-0.05273438,-0.21875,0.078125,0.008666992,0.03662109,-0.02587891,0,0,0.0002441406,0.6329651,4.09,0,0,0,0.4799805,nan,4,9.369,1,128,0.341095,0.4992371,0.8730469,0.8184814,-0.05078125,-0.1982422,0.00390625,1,3,0,1,2,3,3,1,-0.1,0,-0.026,0,0,144,0,0,-0.026,0,36
77.806,0.000937,-0.001953125,0.05078125,-0.00390625,0.625,-8.054688,6.164062,0,0.0078125,-0.009765625,-0.05273438,-0.21875,0.078125,0.008666992,0.03662109,-0.02587891,0,0,0.0002441406,0.6393127,4.09,0,0,0,0.4799805,nan,4,9.379,1,128,0.3236084,0.5257263,0.8608093,0.847168,-0.05078125,-0.1982422,0.00390625,1,3,0.1746032,1,2,3,3,1,-0.1,0,-0.026,0,0,146,0,0,-0.026,0,36
77.816,0.000962,0.01367188,0.02148438,-0.005859375,1.765625,0.140625,11.02344,-0.001953125,0.00390625,-0.001953125,-0.05273438,-0.21875,0.078125,0.008666992,0.03662109,-0.02587891,0,0,0.0002441406,0.645813,4.09,0,0,0,0.4799805,nan,4,9.389,1,128,0.3562927,0.5100403,0.8873291,0.8295593,-0.05078125,-0.1982422,0.00390625,1,3,0,1,2,3,3,1,-0.1,0,-0.026,0,0,144,0,0,-0.026,0,36
77.826,0.0011,0.02929688,0.05664062,-0.046875,-1.679688,1.53125,7.125,0.009765625,0.0234375,-0.01953125,-0.05273438,-0.2207031,0.078125,0.008666992,0.03674316,-0.02600098,0,0,0.0002441406,0.6524353,4.09,0,0,0,0.4799805,nan,4,9.399,1,128,0.3235779,0.5502014,0.8678284,0.8681946,-0.05078125,-0.1992188,0.00390625,1,3,0,1,2,3,3,1,-0.1,0,-0.026,0,0,126,0,0,-0.026,0,36
77.836,0.001111,-0.00390625,-0.1152344,0.03515625,-0.8046875,-4.585938,9.25,0.01171875,-0.0234375,0.01171875,-0.05273438,-0.2207031,0.078125,0.008789062,0.03674316,-0.02600098,0,0,0.0002441406,0.6509705,4.09,0,0,0,0.4799805,nan,4,9.409,1,128,0.4032593,0.4894409,0.9219055,0.7893372,-0.05078125,-0.1992188,0.00390625,1,3,0,1,2,3,3,1,-0.1,0,-0.026,0,0,146,0,0,-0.026,0,36
77.847,0.001018,0.01757812,0.005859375,0.04492188,-2.78125,3.53125,13.14844,-0.00390625,0.0078125,0.009765625,-0.05273438,-0.2207031,0.078125,0.008789062,0.03674316,-0.02600098,0,0,0.0002441406,0.6554565,4.09,0,0,0,0.4799805,nan,4,9.42,1,128,0.3813477,0.4994202,0.9221802,0.8189087,-0.05078125,-0.1992188,0.00390625,1,3,0,1,2,3,3,1,-0.1,0,-0.026,0,0,142,0,0,-0.026,0,36
77.857,0.000925,0.03710938,0.046875,0.0078125,-0.6796875,-2.953125,10.07031,0.00390625,0,-0.005859375,-0.05273438,-0.2207031,0.078125,0.008789062,0.03662109,-0.02600098,0,0,0.0002441406,0.6600037,4.09,0,0,0,0.4799805,nan,4,9.429,1,128,0.3583984,0.5316467,0.9018555,0.848114,-0.05078125,-0.1992188,0.00390625,1,3,0,1,2,3,3,1,-0.1,0,-0.026,0,0,142,0,0,-0.026,0,36
77.866,0.001639,0,-0.02734375,0.0390625,0.1640625,3.414062,11.99219,0.005859375,0.00390625,0.0078125,-0.05273438,-0.2207031,0.078125,0.008789062,0.03674316,-0.02600098,0,0,0.0002441406,0.6600037,4.09,0,0,0,0.4799805,nan,4,9.439,1,128,0.3841248,0.5096741,0.9206543,0.8255615,-0.05078125,-0.2001953,0.00390625,1,3,0,1,2,3,3,1,-0.1,0,-0.026,0,0,142,0,0,-0.026,0,36
77.876,0.001544,0.01953125,0,0.001953125,-1.992188,3.28125,11.05469,0.001953125,0.0078125,-0.0078125,-0.05273438,-0.2207031,0.078125,0.008789062,0.03674316,-0.02612305,0,0,0.0002441406,0.6600037,4.09,0,0,0,0.4799805,nan,4,9.448,1,128,0.350647,0.5391846,0.8912659,0.8588562,-0.05078125,-0.2001953,0.00390625,1,3,0,1,2,3,3,1,-0.11,0,-0.026,0,0,144,0,0,-0.026,0,36
77.887,0.001071,-0.01171875,-0.02929688,-0.03125,0.9296875,-0.171875,7.609375,-0.001953125,-0.0078125,-0.0078125,-0.05273438,-0.2207031,0.08007812,0.008789062,0.03674316,-0.02612305,0,0,0.0002441406,0.6600037,4.09,0,0,0,0.4799805,nan,4,9.459,1,128,0.3618164,0.5362549,0.8916931,0.8502197,-0.05078125,-0.2001953,0.00390625,1,3,0,1,2,3,3,1,-0.11,0,-0.026,0,0,141,0,0,-0.026,0,36
77.897,0.001241,-0.01953125,-0.04101562,0.01171875,-1.367188,-3.882812,10.67188,-0.005859375,-0.005859375,0.005859375,-0.05273438,-0.2207031,0.08007812,0.008666992,0.03674316,-0.02624512,0,0,0.0002441406,0.6600037,4.09,0,0,0,0.4799805,nan,4,9.469,1,128,0.3844299,0.5121155,0.9150085,0.8284607,-0.05078125,-0.2001953,0.00390625,1,3,0,1,2,3,3,1,-0.12,0,-0.026,0,0,146,0,0,-0.026,0,36
77.907,0.000916,0.01367188,0.02734375,0.02734375,-0.8359375,3.984375,12.34375,0.001953125,0.01171875,-0.005859375,-0.05078125,-0.2207031,0.08007812,0.008666992,0.03686523,-0.02624512,0,0,0.0002441406,0.6600037,4.09,0,0,0,0.4799805,nan,4,9.479,1,128,0.3633728,0.5258484,0.9053955,0.8453369,-0.05175781,-0.2001953,0.00390625,1,3,0,1,2,3,3,1,-0.12,0,-0.026,0,0,146,0,0,-0.026,0,36
77.916,0.001079,0.03320312,0.04492188,-0.04101562,0.328125,3.4375,7.796875,0,-0.0078125,-0.005859375,-0.05078125,-0.2207031,0.08007812,0.008666992,0.03686523,-0.02636719,0,0,0.0002441406,0.6600037,4.09,0,0,0,0.4799805,nan,4,9.489,1,128,0.3594055,0.5333252,0.8969421,0.8503113,-0.05175781,-0.2011719,0.00390625,1,3,0,1,2,3,3,1,-0.12,0,-0.026,0,0,142,0,0,-0.026,0,36
77.926,0.001276,0.01953125,-0.04492188,0.04296875,-0.375,-5.484375,7.867188,0.009765625,-0.001953125,0.01757812,-0.05273438,-0.2207031,0.08007812,0.008666992,0.03686523,-0.02636719,0,0,0.0002441406,0.6600037,4.09,0,0,0,0.4799805,nan,4,9.499,1,128,0.399231,0.494873,0.9356689,0.8102112,-0.05175781,-0.2011719,0.00390625,1,3,0.1746032,1,2,3,3,1,-0.12,0,-0.026,0,0,139,0,0,-0.026,0,36
77.937,0.00108,-0.01171875,-0.08007812,0.01367188,-0.984375,4.039062,14.79688,0.001953125,-0.009765625,0.00390625,-0.05273438,-0.2226562,0.08007812,0.008789062,0.03710938,-0.02636719,0,0,0.0002441406,0.6600037,4.09,0,0,0,0.4799805,nan,4,9.509,1,128,0.3882141,0.5134583,0.9160156,0.8223267,-0.05175781,-0.2011719,0.00390625,1,3,0,1,2,3,3,1,-0.12,0,-0.026,0,0,144,0,0,-0.026,0,36
77.947,0.001045,0.03710938,-0.0390625,0.009765625,0.84375,-1.632812,9.859375,0.02148438,0,0,-0.05273438,-0.2226562,0.08007812,0.008911133,0.03710938,-0.02636719,0,0,0.0002441406,0.6600037,4.09,0,0,0,0.4799805,nan,4,9.519,1,128,0.35849,0.5354919,0.9003906,0.8456116,-0.05175781,-0.2011719,0.00390625,1,3,0.4761905,1,2,3,3,1,-0.12,0,-0.026,0,0,142,0,0,-0.026,0,36
77.956,0.001007,0.01171875,0.09179688,-0.04492188,2.21875,-2.765625,9.726562,0.0078125,0.03320312,-0.01953125,-0.05273438,-0.2226562,0.08007812,0.008911133,0.03710938,-0.02636719,0,0,0.0002441406,0.6600037,4.09,0,0,0,0.4799805,nan,4,9.529,1,128,0.3068848,0.5680542,0.8620911,0.9029541,-0.05175781,-0.2021484,0.00390625,1,3,0,1,2,3,3,1,-0.12,0,-0.026,0,0,142,0,0,-0.026,0,36
77.966,0.00093,0.0078125,0.046875,-0.03710938,-2.53125,4.125,10.30469,0,-0.001953125,-0.01757812,-0.0546875,-0.2226562,0.08007812,0.008911133,0.03710938,-0.02636719,0,0,0.0002441406,0.6600037,4.09,0,0,0,0.4799805,nan,4,9.539,1,128,0.3110046,0.5724487,0.8564758,0.9000549,-0.05175781,-0.2021484,0.00390625,1,3,0,1,2,3,3,1,-0.12,0,-0.026,0,0,142,0,0,-0.026,0,36
77.977,0.001086,-0.01171875,0.001953125,-0.05273438,-1.375,-6.96875,7.03125,0,-0.02734375,-0.005859375,-0.0546875,-0.2226562,0.08007812,0.009033203,0.0369873,-0.02636719,0,0,0.0002441406,0.6600037,4.09,0,0,0,0.4799805,nan,4,9.55,1,128,0.3450623,0.5508423,0.8762817,0.8677979,-0.05175781,-0.2021484,0.00390625,1,3,0.6031746,1,2,3,3,1,-0.13,0,-0.026,0,0,141,0,0,-0.026,0,36
77.987,0.000989,-0.00390625,-0.09375,0.03710938,1.359375,1.1875,14.85938,0.001953125,-0.02929688,0.02539062,-0.0546875,-0.2226562,0.08007812,0.009033203,0.03710938,-0.02636719,0,0,0.0002441406,0.6600037,4.09,0,0,0,0.4799805,nan,4,9.559,1,128,0.427124,0.4795227,0.9507141,0.7826233,-0.05175781,-0.2021484,0.00390625,1,3,0,1,2,3,3,1,-0.13,0,-0.026,0,0,143,0,0,-0.026,0,36
77.996,0.001052,0.01953125,0.01757812,0.01171875,-1.992188,7.78125,11.64062,0.001953125,0.0078125,-0.01757812,-0.0546875,-0.2207031,0.08007812,0.009033203,0.03686523,-0.02648926,0,0,0.0002441406,0.6600037,4.09,0,0,0,0.4799805,nan,4,9.569,1,128,0.3416443,0.5388184,0.8940125,0.8655396,-0.05175781,-0.203125,0.00390625,1,3,0,1,2,3,3,1,-0.13,0,-0.026,0,0,146,0,0,-0.026,0,36
78.006,0.000975,-0.00390625,0.046875,-0.01171875,-0.2578125,-5.148438,6.09375,-0.00390625,0.01757812,-0.01953125,-0.0546875,-0.2207031,0.08007812,0.009033203,0.03686523,-0.02648926,0,0,0.0002441406,0.6600037,4.09,0,0,0,0.4799805,nan,4,9.579,1,128,0.3304749,0.5457458,0.8824463,0.8813477,-0.05175781,-0.203125,0.00390625,1,3,0,1,2,3,3,1,-0.13,0,-0.027,0,0,144,0,0,-0.027,0,36
78.016,0.001135,-0.009765625,0.04882812,0.009765625,-0.5625,1.867188,12.92188,0.001953125,0.02929688,-0.01367188,-0.0546875,-0.2226562,0.08007812,0.009033203,0.0369873,-0.02661133,0,0,0.0002441406,0.6600037,4.09,0,0,0,0.4799805,nan,4,9.589,1,128,0.3477478,0.5298462,0.8994751,0.8628845,-0.05175781,-0.203125,0.00390625,1,3,0,1,2,3,3,1,-0.13,0,-0.027,0,0,139,0,0,-0.027,0,36
78.027,0.001309,0.01757812,0.015625,0.03320312,-2.367188,2.867188,9.601562,0.00390625,0.01367188,0.001953125,-0.0546875,-0.2226562,0.08007812,0.009155273,0.0369873,-0.02661133,0,0,0.0002441406,0.6600037,4.09,0,0,0,0.4799805,nan,4,9.599,1,128,0.3709106,0.5132141,0.9186401,0.8372192,-0.05175781,-0.203125,0.00390625,1,3,0,1,2,3,3,1,-0.13,0,-0.027,0,0,139,0,0,-0.027,0,36
78.037,0.001373,0,0.08398438,-0.046875,3.664062,-0.5625,8.179688,0,0.02148438,-0.02929688,-0.0546875,-0.2207031,0.08007812,0.009155273,0.03686523,-0.02661133,0,0,0.0002441406,0.6600037,4.09,0,0,0,0.4799805,nan,4,9.61,1,128,0.3040466,0.5713196,0.858551,0.9060669,-0.05175781,-0.203125,0.00390625,1,3,0,1,2,3,3,1,-0.13,0,-0.027,0,0,147,0,0,-0.027,0,36
78.046,0.001927,-0.005859375,0.015625,-0.05078125,0.703125,-2,10.25,-0.00390625,-0.00390625,-0.015625,-0.0546875,-0.2207031,0.08007812,0.009155273,0.03686523,-0.02661133,0,0,0.0002441406,0.6600037,4.09,0,0,0,0.4799805,nan,4,9.619,1,128,0.3343201,0.553833,0.874115,0.8777466,-0.05175781,-0.2041016,0.00390625,1,3,0,1,2,3,3,1,-0.14,0,-0.027,0,0,145,0,0,-0.027,0,36
78.057,0.001916,-0.01367188,0.03515625,-0.03515625,-2.320312,-2.367188,10.625,-0.009765625,0.001953125,-0.01953125,-0.0546875,-0.2207031,0.08007812,0.009033203,0.03686523,-0.0267334,0,0,0.0002441406,0.6600037,4.09,0,0,0,0.4799805,nan,4,9.63,1,128,0.3318176,0.5516052,0.8764038,0.880188,-0.05175781,-0.2041016,0.00390625,1,3,0,1,2,3,3,1,-0.14,0,-0.027,0,0,144,0,0,-0.027,0,36
78.066,0.000923,0.02734375,0.08984375,-0.0234375,1.0625,0.1015625,5.03125,-0.001953125,0.02734375,-0.01953125,-0.0546875,-0.2207031,0.08007812,0.009033203,0.03686523,-0.0267334,0,0,0.0002441406,0.6600037,4.09,0,0,0,0.4799805,nan,4,9.638,1,128,0.3158875,0.5529175,0.8806763,0.8905029,-0.05175781,-0.2041016,0.00390625,1,3,0,1,2,3,3,1,-0.14,0,-0.027,0,0,141,0,0,-0.027,0,36
78.077,0.001016,0.01757812,-0.02929688,0.04882812,-0.53125,-0.625,11.40625,0.00390625,0.009765625,0.005859375,-0.0546875,-0.2207031,0.08007812,0.008911133,0.03686523,-0.0267334,0,0,0.0002441406,0.6600037,4.09,0,0,0,0.4799805,nan,4,9.649,1,128,0.3760071,0.5054932,0.9293518,0.8291321,-0.05273438,-0.2041016,0.00390625,1,3,0,1,2,3,3,1,-0.14,0,-0.027,0,0,141,0,0,-0.027,0,36
78.086,0.00101,0.005859375,-0.01953125,-0.02148438,-2.460938,2.671875,9.695312,0.005859375,-0.015625,0,-0.0546875,-0.2207031,0.08203125,0.009033203,0.03686523,-0.0267334,0,0,0.0002441406,0.6573181,4.09,0,0,0,0.4799805,nan,4,9.659,1,128,0.3614502,0.5231018,0.9039612,0.8407593,-0.05273438,-0.2050781,0.00390625,1,3,0,1,2,3,3,1,-0.14,0,-0.027,0,0,124,0,0,-0.027,0,36
78.096,0.000965,-0.009765625,0.06835938,-0.02148438,-0.703125,-1.78125,9.882812,0,0.02539062,-0.02148438,-0.0546875,-0.2226562,0.08203125,0.009033203,0.0369873,-0.02685547,0,0,0.0002441406,0.6508789,4.09,0,0,0,0.4799805,nan,4,9.669,1,128,0.314209,0.5414124,0.8704834,0.8774109,-0.05273438,-0.2050781,0.00390625,1,3,0.4603175,1,2,3,3,1,-0.14,0,-0.027,0,0,142,0,0,-0.027,0,36
78.107,0.001128,0.00390625,-0.078125,0.015625,-0.6171875,-2.273438,15.21094,0.0078125,-0.02148438,0.00390625,-0.0546875,-0.2226562,0.08203125,0.009155273,0.0369873,-0.02697754,0,0,0.0002441406,0.6438599,4.09,0,0,0,0.4799805,nan,4,9.679,1,128,0.3606873,0.501709,0.8990784,0.8139648,-0.05273438,-0.2050781,0.00390625,1,3,0,1,2,3,3,1,-0.13,0,-0.027,0,0,144,0,0,-0.027,0,36
78.116,0.00092,-0.0078125,0.01171875,0.04296875,-0.2890625,6.960938,8.523438,0.00390625,0.015625,0.001953125,-0.0546875,-0.2226562,0.08203125,0.009155273,0.0369873,-0.02697754,0,0,0.0002441406,0.6374512,4.09,0,0,0,0.4799805,nan,4,9.689,1,128,0.3449097,0.4841309,0.9017334,0.8190613,-0.05273438,-0.2050781,0.00390625,1,3,0,1,2,3,3,1,-0.13,0,-0.027,0,0,145,0,0,-0.027,0,36
78.126,0.00095,0.01171875,0.05078125,-0.02148438,-0.171875,-1.820312,4.929688,-0.001953125,0.01367188,-0.015625,-0.0546875,-0.2226562,0.08203125,0.009155273,0.03710938,-0.02697754,0,0,0.0002441406,0.631134,4.09,0,0,0,0.4799805,nan,4,9.699,1,128,0.3052063,0.5154419,0.8580322,0.8458862,-0.05273438,-0.2050781,0.00390625,1,3,0,1,2,3,3,1,-0.13,0,-0.027,0,0,147,0,0,-0.027,0,36
