t,dt_s,gyro_x,gyro_y,gyro_z,acc_x,acc_y,acc_z,rates.x,rates.y,rates.z,ratesTarget.x,ratesTarget.y,ratesTarget.z,attitude.x,attitude.y,attitude.z,attitudeTarget.x,attitudeTarget.y,attitudeTarget.z,thrustTarget,battery_v,rc_roll,rc_pitch,rc_yaw,rc_throttle,rc_mode,flight_mode,rc_age_s,armed,fault_mask,motor_rl,motor_rr,motor_fr,motor_fl,rate_i_x,rate_i_y,rate_i_z,mix_scale,control_source,accel_correction_confidence
474.692,0.001012,-0.04492188,0.02929688,0.005859375,-0.9140625,0.890625,9.234375,-0.04101562,0.01367188,0.02929688,0.0390625,0.03320312,0,-0.006591797,-0.005615234,0.02429199,0,0,-0.009033203,0.3105164,4.024,0,0,0,0.2999878,nan,2,4.145,1,0,0.3135071,0.3214111,0.2659607,0.3411865,0.008789062,0.006835938,0,1,3,0.01587302
474.701,0.001037,-0.04101562,-0.01953125,0.06445312,-1.492188,-0.375,10.46875,0.01171875,-0.01367188,0.0546875,0.04101562,0.03320312,0,-0.006713867,-0.005493164,0.02478027,0,0,-0.009033203,0.3105164,4.024,0,0,0,0.2999878,nan,2,4.154,1,0,0.3627319,0.2849731,0.3237915,0.2705994,0.008789062,0.006835938,0,1,3,0
474.711,0.001013,0.08984375,-0.01757812,0.0390625,2.726562,1.757812,10.86719,0.03515625,-0.009765625,0.05664062,0.04101562,0.03320312,0,-0.006713867,-0.005493164,0.02526855,0,0,-0.009033203,0.3105164,4.024,0,0,0,0.2999878,nan,2,4.164,1,0,0.3375549,0.3024597,0.3139954,0.2880859,0.008789062,0.006835938,0,1,3,0
474.722,0.001013,-0.01171875,-0.01367188,0.04882812,0.6171875,-4.570312,7.078125,0.02148438,-0.01171875,0.04882812,0.0390625,0.03320312,0,-0.006591797,-0.005615234,0.02575684,0,0,-0.009033203,0.3105164,4.024,0,0,0,0.2999878,nan,2,4.174,1,0,0.3392334,0.3051147,0.2988586,0.2989197,0.008789062,0.006835938,0,1,3,0
474.732,0.001012,0.005859375,0.0234375,0.07226562,-0.8984375,3.875,9.148438,0.01367188,0.001953125,0.05664062,0.0390625,0.03320312,0,-0.006347656,-0.005615234,0.02624512,0,0,-0.009033203,0.3105164,4.024,0,0,0,0.2999878,nan,2,4.184,1,0,0.3614807,0.2758789,0.3230896,0.2816772,0.008789062,0.006835938,0,1,3,0.3650794
474.742,0.001012,0.0078125,-0.046875,0.06054688,-0.453125,-2.585938,13.64062,0.00390625,-0.01171875,0.0625,0.03710938,0.03320312,0,-0.006347656,-0.005615234,0.02697754,0,0,-0.009033203,0.3105164,4.024,0,0,0,0.2999878,nan,2,4.195,1,0,0.3483276,0.2967834,0.301239,0.2957764,0.008789062,0.006835938,0,1,3,0
474.752,0.00106,-0.05664062,-0.009765625,0.01367188,2.226562,0.203125,6.273438,-0.01367188,-0.001953125,0.009765625,0.0390625,0.03320312,0,-0.006469727,-0.005615234,0.02734375,0,0,-0.009033203,0.3105164,4.024,0,0,0,0.2999878,nan,2,4.205,1,0,0.2963562,0.3432312,0.250885,0.3516235,0.008789062,0.006835938,0,1,3,0
474.762,0.001012,-0.02148438,0.01367188,0.01757812,0.3515625,-3.679688,7.40625,-0.009765625,0.01953125,-0.005859375,0.0390625,0.03320312,0,-0.006469727,-0.005371094,0.02722168,0,0,-0.009033203,0.3105164,4.024,0,0,0,0.2999878,nan,2,4.215,1,0,0.3288574,0.3058777,0.2875977,0.3197937,0.008789062,0.006835938,0,1,3,0
474.772,0.00101,-0.01757812,-0.009765625,0.03320312,-2.242188,0.25,9.648438,-0.001953125,-0.01171875,0.005859375,0.03710938,0.03320312,0,-0.006347656,-0.005371094,0.02722168,0,0,-0.009033203,0.3105164,4.024,0,0,0,0.2999878,nan,2,4.225,1,0,0.3648376,0.2798767,0.3127136,0.284668,0.008789062,0.006835938,0,1,3,0.5714286
474.782,0.001015,-0.06445312,0.06054688,-0.04101562,-1.375,4.421875,11.09375,-0.01757812,0.01367188,-0.009765625,0.0390625,0.03320312,0,-0.006347656,-0.005493164,0.02722168,0,0,-0.009033203,0.3105164,4.024,0,0,0,0.2999878,nan,2,4.235,1,0,0.3074951,0.3224487,0.2669983,0.3451843,0.008789062,0.006835938,0,1,3,0
474.792,0.001013,0.06054688,0.009765625,-0.03515625,0.0546875,-2.375,9.75,0.009765625,0.00390625,-0.0234375,0.0390625,0.03125,0,-0.006469727,-0.005249023,0.02697754,0,0,-0.009033203,0.3105164,4.024,0,0,0,0.2999878,nan,2,4.245,1,0,0.3063049,0.3374023,0.2698669,0.3285217,0.008789062,0.006835938,0,1,3,0.4126984
474.801,0.001008,-0.005859375,0.02734375,-0.078125,1.585938,-1.6875,5.828125,-0.01367188,0.015625,-0.05078125,0.0390625,0.03125,0,-0.006469727,-0.005249023,0.0267334,0,0,-0.009033203,0.3105164,4.024,0,0,0,0.2999878,nan,2,4.254,1,0,0.2792358,0.3523865,0.2416382,0.368866,0.008789062,0.006835938,0,1,3,0
474.811,0.001005,-0.0859375,-0.01367188,-0.046875,0.84375,-2.007812,9.203125,-0.02734375,0.03710938,-0.03515625,0.0390625,0.03125,0,-0.006469727,-0.005004883,0.02624512,0,0,-0.009033203,0.3105164,4.024,0,0,0,0.2999878,nan,2,4.264,1,0,0.3342285,0.2952271,0.2872314,0.3254089,0.008789062,0.006835938,0,1,3,0.1746032
474.822,0.001063,-0.03125,-0.03320312,-0.05273438,-1.164062,-2.507812,8.164062,-0.03320312,-0.01367188,-0.04492188,0.04101562,0.03125,0,-0.006835938,-0.005126953,0.02587891,0,0,-0.009033203,0.3105164,4.024,0,0,0,0.2999878,nan,2,4.274,1,0,0.3164978,0.3289795,0.2633362,0.3332825,0.008789062,0.006835938,0,1,3,0
474.832,0.001007,0.00390625,-0.00390625,-0.0234375,-1.25,3.734375,11.14062,-0.009765625,0.015625,-0.05859375,0.04296875,0.02929688,0,-0.007080078,-0.005004883,0.02526855,0,0,-0.009033203,0.3105164,4.024,0,0,0,0.2999878,nan,2,4.284,1,0,0.3144836,0.3221436,0.2828369,0.3226624,0.008789062,0.006835938,0,1,3,0
474.842,0.001007,0.1542969,0.009765625,-0.015625,-1.4375,2.976562,12.17969,0.05859375,0.0078125,-0.02148438,0.04296875,0.02929688,0,-0.007080078,-0.004882812,0.02490234,0,0,-0.009033203,0.3105164,4.024,0,0,0,0.2999878,nan,2,4.295,1,0,0.3307495,0.3062134,0.3224792,0.2826538,0.008789062,0.006835938,0,1,3,0
474.852,0.001007,0.005859375,-0.04882812,-0.046875,-0.0546875,-1.164062,9.304688,0.04296875,0.01757812,-0.00390625,0.0390625,0.02734375,0,-0.006591797,-0.004638672,0.02490234,0,0,-0.009033203,0.3105164,4.024,0,0,0,0.2999878,nan,2,4.305,1,0,0.3227234,0.3180542,0.2877502,0.3135681,0.008789062,0.006835938,0,1,3,0.06349207
474.862,0.001007,-0.03515625,-0.01757812,-0.02148438,1.828125,-0.4296875,5.460938,-0.01367188,0.001953125,-0.0390625,0.04101562,0.02734375,0,-0.006713867,-0.004516602,0.02453613,0,0,-0.009033203,0.3105164,4.024,0,0,0,0.2999878,nan,2,4.315,1,0,0.3158875,0.3262024,0.2683105,0.3316956,0.009765625,0.006835938,0,1,3,0
474.872,0.001012,0.07226562,0.0078125,-0.02734375,0.421875,-4.546875,9.257812,0.0078125,0.001953125,-0.03320312,0.04101562,0.02734375,0,-0.006835938,-0.004516602,0.02416992,0,0,-0.009033203,0.3105164,4.024,0,0,0,0.2999878,nan,2,4.325,1,0,0.3159485,0.3238525,0.2815247,0.3208008,0.009765625,0.006835938,0,1,3,0
474.882,0.001006,-0.05078125,0.04882812,-0.02148438,-1.039062,4.054688,12.46094,-0.01953125,-0.005859375,-0.01757812,0.04101562,0.02734375,0,-0.006713867,-0.004516602,0.02404785,0,0,-0.009033203,0.3105164,4.024,0,0,0,0.2999878,nan,2,4.335,1,0,0.3316345,0.3062134,0.2783813,0.3258667,0.009765625,0.006835938,0,1,3,0
474.892,0.001006,-0.08789062,0.02734375,-0.03320312,-1.828125,1.742188,13.52344,-0.01757812,0.01953125,-0.03125,0.04101562,0.02734375,0,-0.006835938,-0.004516602,0.02380371,0,0,-0.009033203,0.3105164,4.024,0,0,0,0.2999878,nan,2,4.345,1,0,0.3154297,0.3165588,0.2709045,0.3392029,0.009765625,0.006835938,0,1,3,0
474.902,0.001007,-0.02148438,0.02929688,0,-0.6796875,5.4375,12.80469,0,0.02148438,-0.01171875,0.04101562,0.02734375,0,-0.006958008,-0.004394531,0.0234375,0,0,-0.009033203,0.3105164,4.024,0,0,0,0.2999878,nan,2,4.355,1,0,0.3504028,0.2796021,0.3198853,0.2922058,0.009765625,0.0078125,0,1,3,0
474.911,0.001011,0.06640625,-0.03710938,0.02929688,1.679688,-2.007812,12.52344,0.01757812,-0.04296875,-0.01953125,0.04101562,0.02734375,0,-0.006835938,-0.004638672,0.02319336,0,0,-0.009033203,0.3105164,4.024,0,0,0,0.2999878,nan,2,4.364,1,0,0.3408508,0.3096924,0.2969666,0.2946167,0.009765625,0.0078125,0,1,3,0
474.921,0.001012,0.04882812,0,-0.015625,1.46875,-2.734375,7.007812,0.02539062,0.00390625,-0.01367188,0.0390625,0.02929688,0,-0.006591797,-0.004882812,0.02307129,0,0,-0.009033203,0.3105164,4.024,0,0,0,0.2999878,nan,2,4.374,1,0,0.3289795,0.3048706,0.2998657,0.3084106,0.009765625,0.0078125,0,1,3,0
474.932,0.001042,-0.0859375,0.02734375,-0.04492188,-1.601562,-2.171875,10.27344,-0.03320312,0.00390625,-0.0234375,0.04101562,0.02929688,0,-0.006713867,-0.004882812,0.02294922,0,0,-0.009033203,0.3105164,4.024,0,0,0,0.2999878,nan,2,4.384,1,0,0.3163452,0.3207703,0.261261,0.3437195,0.009765625,0.0078125,0,1,3,0
474.942,0.001012,-0.04296875,0.01367188,0.00390625,-1.273438,5.125,13.61719,0.001953125,-0.005859375,-0.02539062,0.04101562,0.02929688,0,-0.006713867,-0.004882812,0.02258301,0,0,-0.009033203,0.3105164,4.024,0,0,0,0.2999878,nan,2,4.395,1,0,0.3373108,0.3025513,0.2951965,0.3070374,0.009765625,0.0078125,0,1,3,0
474.952,0.0009860001,-0.01757812,0.01367188,0.01171875,-0.7890625,1.078125,14.35938,-0.009765625,0.00390625,0,0.04101562,0.02929688,0,-0.006958008,-0.004882812,0.02246094,0,0,-0.009033203,0.3105164,4.024,0,0,0,0.2999878,nan,2,4.405,1,0,0.3540039,0.2803955,0.3164978,0.2911987,0.009765625,0.0078125,0,1,3,0
474.962,0.001012,0.005859375,-0.01367188,0,1.289062,2.414062,8.648438,-0.0078125,0.009765625,-0.015625,0.04296875,0.02929688,0,-0.007080078,-0.004882812,0.02233887,0,0,-0.009033203,0.3105164,4.024,0,0,0,0.2999878,nan,2,4.415,1,0,0.3250122,0.3118896,0.2861328,0.3190613,0.009765625,0.0078125,0,1,3,0
474.972,0.001012,0.109375,0.015625,0,1.585938,-4.960938,9.835938,0.01367188,-0.005859375,-0.015625,0.04101562,0.02929688,0,-0.006958008,-0.005004883,0.0222168,0,0,-0.009033203,0.3105164,4.024,0,0,0,0.2999878,nan,2,4.425,1,0,0.323761,0.3139648,0.289856,0.3145142,0.009765625,0.0078125,0,1,3,0
474.982,0.00105,0.01757812,-0.001953125,0,0.6875,-0.8515625,7.148438,0.015625,-0.001953125,-0.001953125,0.04101562,0.03125,0,-0.006835938,-0.005126953,0.02209473,0,0,-0.009033203,0.3105164,4.024,0,0,0,0.2999878,nan,2,4.435,1,0,0.3456726,0.2936401,0.3033447,0.2994385,0.009765625,0.0078125,0,1,3,0
474.992,0.001012,0.03515625,-0.07226562,-0.0078125,-1.859375,-3.164062,10.35156,0.01171875,-0.03125,0.001953125,0.04101562,0.03125,0,-0.006835938,-0.005126953,0.0222168,0,0,-0.009033203,0.3105164,4.024,0,0,0,0.2999878,nan,2,4.445,1,0,0.3336487,0.3192139,0.2819519,0.3072815,0.009765625,0.0078125,0,1,3,0
475.002,0.001018,-0.09765625,-0.04882812,-0.0625,-2.09375,5.109375,14.34375,-0.01757812,-0.02929688,-0.04101562,0.0390625,0.03320312,0,-0.006713867,-0.005493164,0.02209473,0,0,-0.009033203,0.3105164,4.024,0,0,0,0.2999878,nan,2,4.455,1,0,0.2727356,0.3742676,0.2072449,0.3878784,0.009765625,0.0078125,0,1,3,0
475.011,0.001008,0.06445312,0.01367188,-0.0078125,0.1484375,0.828125,9.882812,0.02929688,0,-0.02148438,0.04101562,0.03320312,0,-0.006835938,-0.005615234,0.02172852,0,0,-0.009033203,0.3105164,4.024,0,0,0,0.2999878,nan,2,4.464,1,0,0.3312988,0.3063354,0.3062439,0.2982483,0.009765625,0.0078125,0,1,3,0.6349207
475.021,0.001008,0.02148438,0,-0.03320312,1.992188,0.1875,11.40625,-0.01367188,-0.01367188,-0.0234375,0.04101562,0.03320312,0,-0.006835938,-0.005615234,0.02160645,0,0,-0.009033203,0.3105164,4.024,0,0,0,0.2999878,nan,2,4.474,1,0,0.3235779,0.3201294,0.274292,0.3240967,0.009765625,0.0078125,0,1,3,0
475.032,0.001008,0.04101562,-0.109375,-0.08789062,1.445312,-2.828125,4.992188,0.03515625,-0.05859375,-0.08007812,0.04101562,0.03515625,0,-0.006713867,-0.005859375,0.02111816,0,0,-0.009033203,0.3105164,4.024,0,0,0,0.2999878,nan,2,4.484,1,0,0.2528687,0.4108276,0.1989136,0.3794861,0.009765625,0.0078125,0,1,3,0
475.042,0.001008,0.08203125,-0.015625,-0.03125,1.257812,-2.023438,7.195312,0.01757812,-0.015625,-0.04492188,0.0390625,0.03710938,0,-0.006469727,-0.006225586,0.02050781,0,0,-0.009033203,0.3105164,4.024,0,0,0,0.2999878,nan,2,4.494,1,0,0.3397522,0.2990723,0.3002625,0.3030396,0.009765625,0.0078125,0,1,3,0
475.052,0.001011,-0.0390625,0.05859375,-0.05273438,0.3359375,-3.046875,8.476562,-0.009765625,0.01757812,-0.05078125,0.03710938,0.03710938,0,-0.006347656,-0.006225586,0.02001953,0,0,-0.009033203,0.3105164,4.024,0,0,0,0.2999878,nan,2,4.505,1,0,0.3061218,0.3254395,0.2599792,0.3505554,0.009765625,0.0078125,0,1,3,0
475.062,0.001008,-0.07226562,0.046875,-0.03320312,-0.2421875,-1.617188,10.80469,-0.03515625,0.04296875,-0.0390625,0.0390625,0.03515625,0,-0.006591797,-0.005859375,0.01965332,0,0,-0.009033203,0.3105164,4.024,0,0,0,0.2999878,nan,2,4.515,1,0,0.3208923,0.3108521,0.2744141,0.3359375,0.009765625,0.0078125,0,1,3,0
475.072,0.001007,-0.06640625,0.0078125,0.0390625,-1.070312,0.0234375,11.08594,-0.00390625,0.009765625,0.0234375,0.0390625,0.03515625,0,-0.006469727,-0.005737305,0.01965332,0,0,-0.009033203,0.3105164,4.024,0,0,0,0.2999878,nan,2,4.525,1,0,0.3842468,0.2576294,0.3324585,0.2677612,0.009765625,0.0078125,0,1,3,0
475.082,0.001006,-0.001953125,-0.03515625,-0.01757812,-1.328125,3.84375,12.82812,-0.02539062,-0.015625,0.01367188,0.04101562,0.03320312,0,-0.006713867,-0.005615234,0.01989746,0,0,-0.009033203,0.3105164,4.024,0,0,0,0.2999878,nan,2,4.535,1,0,0.3266602,0.3234253,0.2660828,0.3259583,0.009765625,0.0078125,0,1,3,0
475.092,0.000991,0.01171875,0.0078125,0.005859375,1.945312,1.09375,8.617188,0.0078125,-0.01757812,0.0078125,0.04101562,0.03515625,0,-0.006713867,-0.005981445,0.02001953,0,0,-0.009033203,0.3105164,4.024,0,0,0,0.2999878,nan,2,4.545,1,0,0.3311157,0.3093567,0.2895203,0.3121338,0.009765625,0.0078125,0,1,3,0
475.102,0.001008,-0.01367188,0.05078125,0.03320312,0.96875,-5.28125,10.28125,0.01171875,-0.01171875,0.0234375,0.0390625,0.03710938,0,-0.006469727,-0.006103516,0.02026367,0,0,-0.009033203,0.3105164,4.024,0,0,0,0.2999878,nan,2,4.555,1,0,0.3411255,0.2968445,0.298584,0.305542,0.009765625,0.0078125,0,1,3,0
475.111,0.001015,-0.009765625,0.02148438,0.02539062,-0.265625,0.4140625,8.984375,0.01953125,0,0.01757812,0.03710938,0.03710938,0,-0.006225586,-0.006225586,0.02038574,0,0,-0.009033203,0.3105164,4.024,0,0,0,0.2999878,nan,2,4.564,1,0,0.338501,0.2951965,0.3021545,0.3062134,0.01074219,0.0078125,0,1,3,0
475.121,0.001013,-0.02734375,-0.01367188,0.0078125,-2.117188,1.007812,10.69531,0.001953125,0,0.01171875,0.03710938,0.03710938,0,-0.006225586,-0.006347656,0.02062988,0,0,-0.009033203,0.3105164,4.024,0,0,0,0.2999878,nan,2,4.574,1,0,0.3314819,0.3079224,0.2849426,0.317749,0.01074219,0.0078125,0,1,3,0
475.132,0.001032,0.02148438,-0.00390625,-0.05273438,-0.1015625,3.835938,13.66406,0.005859375,-0.001953125,-0.02929688,0.03710938,0.0390625,0,-0.006225586,-0.006347656,0.02038574,0,0,-0.009033203,0.3105164,4.024,0,0,0,0.2999878,nan,2,4.584,1,0,0.289093,0.3520813,0.2477722,0.3531799,0.01074219,0.0078125,0,1,3,0
475.142,0.001013,0.01171875,0.009765625,-0.06445312,1.867188,-1.351562,9.070312,0.005859375,0.02929688,-0.05078125,0.03710938,0.03710938,0,-0.006225586,-0.006225586,0.02001953,0,0,-0.009033203,0.3105164,4.024,0,0,0,0.2999878,nan,2,4.594,1,0,0.2883606,0.3447876,0.2526855,0.3562622,0.01074219,0.008789062,0,1,3,0.06349207
475.152,0.001013,0.03320312,0.00390625,-0.009765625,2.679688,-1.640625,11.9375,0.02734375,-0.005859375,-0.01367188,0.03710938,0.03710938,0,-0.006103516,-0.006225586,0.01965332,0,0,-0.009033203,0.3105164,4.024,0,0,0,0.2999878,nan,2,4.605,1,0,0.3536377,0.2905273,0.3127747,0.2851562,0.01074219,0.008789062,0,1,3,0
475.162,0.001011,0.009765625,0.01953125,-0.03125,1.054688,-4.71875,5.273438,0.001953125,0.01953125,-0.03515625,0.03710938,0.03710938,0,-0.006103516,-0.006103516,0.01940918,0,0,-0.009033203,0.3105164,4.024,0,0,0,0.2999878,nan,2,4.615,1,0,0.3170471,0.3203735,0.2752686,0.3294373,0.01074219,0.008789062,0,1,3,0
475.172,0.000975,-0.01367188,-0.03125,-0.04101562,-0.1484375,-3.171875,9.515625,-0.005859375,0,-0.04101562,0.03710938,0.03710938,0,-0.006103516,-0.006103516,0.01904297,0,0,-0.009033203,0.3105164,4.024,0,0,0,0.2999878,nan,2,4.625,1,0,0.3102417,0.3334961,0.2586365,0.3397217,0.01074219,0.008789062,0,1,3,0.2380952
475.182,0.001004,0.03515625,-0.04296875,-0.01757812,-1.773438,2.484375,11.32812,0.009765625,-0.009765625,-0.01757812,0.03515625,0.03710938,0,-0.005981445,-0.006103516,0.01879883,0,0,-0.009033203,0.3105164,4.024,0,0,0,0.2999878,nan,2,4.635,1,0,0.3477783,0.2987976,0.2988586,0.2966614,0.01074219,0.008789062,0,1,3,0
475.192,0.001004,-0.1074219,0.06640625,-0.0390625,-2.359375,3.492188,11.88281,-0.02929688,0.015625,-0.03515625,0.03515625,0.03710938,0,-0.005981445,-0.006225586,0.01855469,0,0,-0.009033203,0.3105164,4.024,0,0,0,0.2999878,nan,2,4.645,1,0,0.3074341,0.3235779,0.2559204,0.3551636,0.01074219,0.008789062,0,1,3,0
475.202,0.001013,-0.046875,0.03320312,-0.07617188,-1.539062,4.664062,10.60156,-0.02734375,0.015625,-0.0390625,0.03710938,0.03710938,0,-0.006225586,-0.006103516,0.01818848,0,0,-0.009033203,0.3105164,4.024,0,0,0,0.2999878,nan,2,4.655,1,0,0.3003845,0.3371887,0.25354,0.3509827,0.01074219,0.008789062,0,1,3,0
475.211,0.001007,-0.05078125,-0.0078125,-0.0234375,-0.1484375,1.617188,16.05469,-0.03125,-0.01171875,-0.02539062,0.0390625,0.03710938,0,-0.006469727,-0.005981445,0.01794434,0,0,-0.009033203,0.3105164,4.024,0,0,0,0.2999878,nan,2,4.664,1,0,0.3392944,0.309967,0.2791138,0.3137207,0.01074219,0.008789062,0,1,3,0
475.221,0.001007,-0.005859375,0.04296875,-0.01171875,0.921875,1.242188,8.96875,-0.005859375,0.009765625,-0.01171875,0.0390625,0.03710938,0,-0.006591797,-0.005981445,0.0177002,0,0,-0.009033203,0.3105164,4.024,0,0,0,0.2999878,nan,2,4.674,1,0,0.3455811,0.2926025,0.3038635,0.3000793,0.01074219,0.008789062,0,1,3,0
475.232,0.001007,0.04101562,0.00390625,0.0546875,1.40625,-3.351562,9.28125,-0.0078125,0.0078125,0.03320312,0.04101562,0.03515625,0,-0.006835938,-0.005859375,0.01782227,0,0,-0.009033203,0.3105164,4.024,0,0,0,0.2999878,nan,2,4.684,1,0,0.3971558,0.2478638,0.3521423,0.2449036,0.01074219,0.008789062,0,1,3,0.6666667
475.242,0.001007,-0.02929688,-0.02734375,0.0625,2.492188,-1.070312,5.078125,0.015625,-0.001953125,0.046875,0.0390625,0.03515625,0,-0.006591797,-0.005981445,0.01818848,0,0,-0.009033203,0.3105164,4.024,0,0,0,0.2999878,nan,2,4.694,1,0,0.3642883,0.2781677,0.3167114,0.2829285,0.01074219,0.008789062,0,1,3,0
475.252,0.001013,0.01953125,-0.03710938,0.04882812,-0.4765625,-3.695312,8.8125,0.02148438,-0.01171875,0.046875,0.0390625,0.03515625,0,-0.006591797,-0.005981445,0.01867676,0,0,-0.009033203,0.3105164,4.024,0,0,0,0.2999878,nan,2,4.705,1,0,0.3501282,0.2969971,0.304657,0.2903137,0.01074219,0.008789062,0,1,3,0
475.262,0.001007,-0.01367188,-0.04882812,0.03710938,-2.226562,5.109375,11.64844,-0.0234375,-0.00390625,0.02929688,0.0390625,0.03515625,0,-0.006591797,-0.005859375,0.01904297,0,0,-0.009033203,0.3105164,4.024,0,0,0,0.2999878,nan,2,4.715,1,0,0.3452454,0.3022461,0.2818909,0.3127136,0.01074219,0.008789062,0,1,3,0
475.272,0.001005,0.001953125,-0.001953125,-0.01171875,-0.921875,0.703125,9.53125,0.0078125,0.005859375,0.01171875,0.0390625,0.03710938,0,-0.006469727,-0.006225586,0.01916504,0,0,-0.009033203,0.3105164,4.024,0,0,0,0.2999878,nan,2,4.725,1,0,0.3178406,0.3122864,0.2815857,0.3303833,0.01074219,0.008789062,0,1,3,0.3492064
475.282,0.00098,-0.0078125,0.02148438,0.01757812,1.515625,0.890625,10.9375,-0.015625,-0.005859375,0.01953125,0.0390625,0.03710938,0,-0.006591797,-0.006347656,0.01940918,0,0,-0.009033203,0.3105164,4.024,0,0,0,0.2999878,nan,2,4.735,1,0,0.3453979,0.2952576,0.2945557,0.3069153,0.01074219,0.008789062,0,1,3,0
475.292,0.001007,0.05273438,-0.02734375,-0.0078125,1.421875,-1.976562,7.117188,0.0234375,-0.005859375,0,0.0390625,0.0390625,0,-0.006469727,-0.006347656,0.01940918,0,0,-0.009033203,0.3105164,4.024,0,0,0,0.2999878,nan,2,4.745,1,0,0.3118896,0.3335266,0.2709961,0.3256836,0.01074219,0.008789062,0,1,3,0
475.302,0.001008,0.0234375,0,-0.03320312,1.375,-2.375,5.34375,0.01757812,0.00390625,-0.01953125,0.0390625,0.0390625,0,-0.006347656,-0.006347656,0.01928711,0,0,-0.009033203,0.3105164,4.024,0,0,0,0.2999878,nan,2,4.755,1,0,0.3087463,0.3329163,0.266571,0.3338623,0.01074219,0.008789062,0,1,3,0
475.311,0.001012,-0.05078125,0.08203125,0.02734375,-0.0234375,-2.90625,10.32812,-0.02539062,0.02734375,0,0.0390625,0.03710938,0,-0.006347656,-0.006347656,0.01928711,0,0,-0.009033203,0.3105164,4.024,0,0,0,0.2999878,nan,2,4.764,1,0,0.3591003,0.2713623,0.3092346,0.3023987,0.01074219,0.008789062,0,1,3,0
475.321,0.000999,0.04101562,-0.02148438,0.0390625,-1.21875,2.148438,10.39062,0.015625,-0.02929688,0.01171875,0.03710938,0.03710938,0,-0.006347656,-0.006225586,0.01916504,0,0,-0.009033203,0.3105164,4.024,0,0,0,0.2999878,nan,2,4.774,1,0,0.3749695,0.282074,0.3186951,0.2663574,0.01074219,0.008789062,0,1,3,0
475.332,0.001012,-0.02734375,-0.04101562,0.0625,-1.140625,1.492188,14.27344,-0.02148438,0,0.04492188,0.0390625,0.03710938,0,-0.006347656,-0.006347656,0.01953125,0,0,-0.009033203,0.3105164,4.024,0,0,0,0.2999878,nan,2,4.784,1,0,0.3807678,0.2622986,0.3233948,0.2756653,0.01074219,0.008789062,0,1,3,0
475.342,0.001012,0.02539062,-0.02734375,0.09765625,1.210938,2.382812,8.273438,0.02929688,-0.0078125,0.08007812,0.0390625,0.0390625,0,-0.006469727,-0.006347656,0.0201416,0,0,-0.009033203,0.3105164,4.024,0,0,0,0.2999878,nan,2,4.794,1,0,0.3946228,0.2513428,0.3586731,0.2374878,0.01074219,0.008789062,0,1,3,0
475.352,0.001036,-0.046875,0.0234375,0.05273438,1.578125,-2.523438,8.46875,0.03125,-0.005859375,0.06835938,0.03710938,0.0390625,0,-0.006103516,-0.006591797,0.02087402,0,0,-0.009033203,0.3105164,4.024,0,0,0,0.2999878,nan,2,4.805,1,0,0.3442688,0.295166,0.3017883,0.3009033,0.01074219,0.008789062,0,1,3,0
475.362,0.001012,0.005859375,-0.0625,0.09570312,-1.96875,0.5234375,10.17188,0.02539062,-0.0234375,0.09179688,0.03515625,0.04101562,0,-0.005859375,-0.006713867,0.02172852,0,0,-0.009033203,0.3105164,4.024,0,0,0,0.2999878,nan,2,4.815,1,0,0.3779602,0.2753601,0.3236389,0.2651672,0.01074219,0.008789062,0,1,3,0
475.372,0.001015,0.1035156,0.00390625,0.078125,1.289062,2.453125,13.88281,0.0390625,0.00390625,0.078125,0.03515625,0.0390625,0,-0.005737305,-0.006591797,0.02258301,0,0,-0.009033203,0.3105164,4.024,0,0,0,0.2999878,nan,2,4.825,1,0,0.3445129,0.2981262,0.3120422,0.2874451,0.01074219,0.008789062,0,1,3,0
475.382,0.000995,-0.02929688,0.04296875,0.07226562,0.9453125,-2.992188,5.484375,-0.001953125,0.01757812,0.08007812,0.03320312,0.04101562,0,-0.005493164,-0.006713867,0.0234375,0,0,-0.009033203,0.3105164,4.024,0,0,0,0.2999878,nan,2,4.835,1,0,0.3459473,0.2871399,0.2994385,0.3096008,0.01074219,0.008789062,0,1,3,0
475.392,0.001007,0.03320312,0.00390625,0.04882812,-1.914062,0.5625,11.57812,0.02929688,0.009765625,0.06445312,0.03125,0.04101562,0,-0.005249023,-0.006835938,0.02429199,0,0,-0.009033203,0.3105164,4.024,0,0,0,0.2999878,nan,2,4.845,1,0,0.3153381,0.3221436,0.275177,0.3294678,0.01074219,0.009765625,0,1,3,0
475.402,0.001008,0.02929688,-0.125,0.02539062,0.859375,0.6875,8.671875,-0.0078125,-0.009765625,0.04882812,0.03125,0.0390625,0,-0.005249023,-0.006591797,0.02490234,0,0,-0.009033203,0.3105164,4.024,0,0,0,0.2999878,nan,2,4.855,1,0,0.3262634,0.3313904,0.2593994,0.3250427,0.01171875,0.009765625,0,1,3,0
475.411,0.001009,-0.03515625,-0.00390625,-0.01757812,1.015625,-1.46875,8.078125,-0.02539062,0.005859375,0.015625,0.03125,0.0390625,0,-0.005371094,-0.006591797,0.02514648,0,0,-0.009033203,0.3105164,4.024,0,0,0,0.2999878,nan,2,4.864,1,0,0.2997742,0.3435364,0.2415466,0.3572693,0.01171875,0.009765625,0,1,3,0
475.421,0.001009,-0.005859375,-0.02734375,-0.03125,-1.65625,-0.609375,9.6875,0.0078125,0.00390625,-0.01757812,0.03320312,0.0390625,0,-0.005493164,-0.006591797,0.02514648,0,0,-0.009033203,0.3105164,4.024,0,0,0,0.2999878,nan,2,4.874,1,0,0.2953186,0.3502197,0.2506104,0.3459473,0.01171875,0.009765625,0,1,3,0.6190476
475.432,0.001009,-0.06835938,-0.0234375,-0.005859375,-0.6484375,4.46875,12.97656,-0.06445312,-0.03125,-0.009765625,0.03515625,0.04101562,0,-0.005859375,-0.006713867,0.02502441,0,0,-0.009033203,0.3105164,4.024,0,0,0,0.2999878,nan,2,4.884,1,0,0.3528442,0.3019409,0.2736206,0.3136902,0.01171875,0.009765625,0,1,3,0
475.442,0.00104,-0.01171875,0.01171875,0.01171875,0.984375,-2.242188,10.82812,-0.005859375,0,0.0078125,0.03710938,0.04101562,0,-0.006225586,-0.006713867,0.02490234,0,0,-0.009033203,0.3105164,4.024,0,0,0,0.2999878,nan,2,4.894,1,0,0.3510132,0.2893677,0.3128052,0.2889099,0.01171875,0.009765625,0,1,3,0
475.452,0.001008,0.0078125,0.01171875,-0.009765625,1.210938,-2.679688,4.53125,-0.01171875,0.01367188,-0.005859375,0.0390625,0.0390625,0,-0.006469727,-0.006713867,0.02490234,0,0,-0.009033203,0.3105164,4.024,0,0,0,0.2999878,nan,2,4.905,1,0,0.321106,0.3200684,0.2742004,0.3267212,0.01171875,0.009765625,0,1,3,0
475.462,0.001008,-0.00390625,0.04882812,0.0390625,-0.0234375,-2.351562,10.9375,0.02148438,0.02148438,0.02734375,0.03710938,0.0390625,0,-0.006225586,-0.006469727,0.02514648,0,0,-0.009033203,0.3105164,4.024,0,0,0,0.2999878,nan,2,4.915,1,0,0.3652954,0.276001,0.3208313,0.2799377,0.01171875,0.009765625,0,1,3,0
475.472,0.001008,0.02929688,-0.01367188,0.04882812,-1.515625,3.96875,11.875,-0.001953125,-0.015625,0.05078125,0.03710938,0.0390625,0,-0.006225586,-0.006469727,0.0255127,0,0,-0.009033203,0.3105164,4.024,0,0,0,0.2999878,nan,2,4.925,1,0,0.372406,0.280365,0.3121643,0.2771606,0.01171875,0.009765625,0,1,3,0
475.482,0.00102,0.08203125,-0.046875,0.0234375,0.2109375,-0.734375,11.375,0.03125,-0.01953125,0.03710938,0.03515625,0.0390625,0,-0.005981445,-0.006469727,0.02600098,0,0,-0.009033203,0.3105164,4.024,0,0,0,0.2999878,nan,2,4.935,1,0,0.3258362,0.3262634,0.2771912,0.3128052,0.01171875,0.009765625,0,1,3,0
475.492,0.001012,-0.015625,-0.0078125,0.001953125,0.9921875,-0.7265625,4.210938,0.00390625,-0.01367188,0.00390625,0.03515625,0.0390625,0,-0.005859375,-0.006591797,0.02624512,0,0,-0.009033203,0.3105164,4.024,0,0,0,0.2999878,nan,2,4.945,1,0,0.3165283,0.3309021,0.2592773,0.3354187,0.01171875,0.009765625,0,1,3,0
475.502,0.001014,0.04296875,0.0078125,0.00390625,-1.117188,-3.148438,11.40625,0.02148438,0.005859375,0.0078125,0.03515625,0.0390625,0,-0.005859375,-0.006713867,0.02624512,0,0,-0.009033203,0.3105164,4.024,0,0,0,0.2999878,nan,2,4.955,1,0,0.3306885,0.3104553,0.2926331,0.3083191,0.01171875,0.009765625,0,1,3,0
475.511,0.001013,-0.09570312,-0.009765625,0.04101562,-1.304688,6.03125,13.74219,-0.04296875,0.01367188,0.015625,0.03515625,0.0390625,0,-0.005981445,-0.006469727,0.02636719,0,0,-0.009033203,0.3105164,4.024,0,0,0,0.2999878,nan,2,4.964,1,0,0.3703613,0.2764587,0.300293,0.2949829,0.01171875,0.009765625,0,1,3,0
475.521,0.001014,0.01171875,-0.0078125,0.05078125,0.1171875,-0.703125,8.945312,0.001953125,0.00390625,0.04492188,0.03710938,0.0390625,0,-0.006103516,-0.006347656,0.0267334,0,0,-0.009033203,0.3105164,4.024,0,0,0,0.2999878,nan,2,4.974,1,0,0.3715515,0.276123,0.3226318,0.2718201,0.01171875,0.009765625,0,1,3,0
475.532,0.001004,-0.001953125,0.01171875,0.0703125,1.984375,-1.523438,10.50781,-0.005859375,0.005859375,0.06054688,0.03710938,0.03710938,0,-0.006225586,-0.006225586,0.02722168,0,0,-0.009033203,0.3105164,4.023,0,0,0,0.2999878,nan,2,4.984,1,0,0.3723755,0.2732544,0.3203125,0.2761841,0.01171875,0.009765625,0,1,3,0
475.542,0.0009869999,0.01171875,0.001953125,0.03515625,-0.46875,0.5703125,7.945312,0.015625,-0.001953125,0.03710938,0.03710938,0.03710938,0,-0.006225586,-0.006225586,0.02770996,0,0,-0.009033203,0.3105164,4.023,0,0,0,0.2999878,nan,2,4.994,1,0,0.3218079,0.3254089,0.2764282,0.3184509,0.01171875,0.009765625,0,1,3,0
475.552,0.001013,0.04492188,0.009765625,0.02734375,-1.921875,0.4609375,12.58594,0.02929688,0.001953125,0.02539062,0.03710938,0.03710938,0,-0.006225586,-0.006225586,0.02807617,0,0,-0.009033203,0.3105164,4.023,0,0,0,0.2999878,nan,2,5.005,1,0,0.3258972,0.3189392,0.2850342,0.3122559,0.01171875,0.009765625,0,1,3,0
475.562,0.001013,-0.0234375,-0.04882812,0.00390625,0.6953125,4.6875,11.11719,0,-0.001953125,-0.005859375,0.03710938,0.03710938,0,-0.006103516,-0.006103516,0.02807617,0,0,-0.009033203,0.3105164,4.023,0,0,0,0.2999878,nan,2,5.015,1,0,0.320282,0.3297424,0.2629089,0.3291626,0.01171875,0.009765625,0,1,3,0
475.572,0.000961,0.00390625,-0.005859375,0.02539062,1.671875,-3.914062,7.257812,0.00390625,-0.02539062,-0.02148438,0.03515625,0.0390625,0,-0.005981445,-0.006347656,0.02783203,0,0,-0.009033203,0.3105164,4.023,0,0,0,0.2999878,nan,2,5.025,1,0,0.3453369,0.3048401,0.2850952,0.3068237,0.01171875,0.009765625,0,1,3,0
475.582,0.001002,-0.0703125,0.01367188,0.04296875,2.273438,-2.226562,7.429688,-0.02539062,-0.001953125,0.04882812,0.03515625,0.0390625,0,-0.005981445,-0.006591797,0.02807617,0,0,-0.009033203,0.3105164,4.023,0,0,0,0.2999878,nan,2,5.035,1,0,0.3961792,0.2426758,0.3361816,0.2670593,0.01171875,0.009765625,0,1,3,0
475.592,0.001026,0.04296875,0.0390625,0.01171875,-1.09375,-0.625,10.07031,-0.0078125,0.015625,0.02148438,0.03515625,0.0390625,0,-0.005981445,-0.006591797,0.02844238,0,0,-0.009033203,0.3105164,4.023,0,0,0,0.2999878,nan,2,5.045,1,0,0.3158569,0.322113,0.2672729,0.336853,0.01171875,0.009765625,0,1,3,0.0952381
475.602,0.001011,-0.04101562,0.01757812,0.0234375,-1.984375,0.2578125,13.60938,-0.01757812,0.01367188,0.02734375,0.03710938,0.0390625,0,-0.006103516,-0.006469727,0.02868652,0,0,-0.009033203,0.3105164,4.023,0,0,0,0.2999878,nan,2,5.055,1,0,0.3449097,0.296814,0.290863,0.3095093,0.01171875,0.009765625,0,1,3,0
475.611,0.00101,0.06445312,-0.0625,-0.03320312,0.875,4.5625,11.30469,0.02539062,-0.02148438,0.0078125,0.03515625,0.0390625,0,-0.005981445,-0.006469727,0.02893066,0,0,-0.009033203,0.3105164,4.023,0,0,0,0.2999878,nan,2,5.064,1,0,0.2987671,0.358429,0.2432251,0.3416748,0.01171875,0.009765625,0,1,3,0
475.621,0.001013,-0.01953125,0.01757812,-0.02148438,1.828125,-2.390625,8.523438,0.01757812,0.01171875,0.00390625,0.03515625,0.0390625,0,-0.005737305,-0.006469727,0.02905273,0,0,-0.009033203,0.3105164,4.023,0,0,0,0.2999878,nan,2,5.074,1,0,0.3102722,0.3313904,0.2608337,0.3395996,0.01171875,0.009765625,0,1,3,0
475.632,0.00101,-0.0078125,0.009765625,-0.001953125,0.8125,-1.289062,7.875,-0.02148438,0.00390625,-0.009765625,0.03515625,0.0390625,0,-0.005737305,-0.006347656,0.02893066,0,0,-0.009033203,0.3105164,4.023,0,0,0,0.2999878,nan,2,5.084,1,0,0.3382874,0.3063354,0.2773132,0.3201599,0.01171875,0.009765625,0,1,3,0
475.642,0.000997,-0.01953125,-0.009765625,-0.08984375,-0.8125,-2.195312,10.42969,0.0390625,-0.009765625,-0.04296875,0.03320312,0.0390625,0,-0.005615234,-0.006469727,0.02880859,0,0,-0.009033203,0.3105164,4.023,0,0,0,0.2999878,nan,2,5.094,1,0,0.2694092,0.3790283,0.2242737,0.3693848,0.01171875,0.01074219,0,1,3,0
475.652,0.00101,-0.1015625,-0.05859375,-0.07421875,-2.109375,-0.5234375,11.03906,-0.009765625,-0.01367188,-0.06445312,0.03320312,0.0390625,0,-0.005371094,-0.006591797,0.02819824,0,0,-0.009033203,0.3105164,4.023,0,0,0,0.2999878,nan,2,5.105,1,0,0.3028259,0.3491821,0.2285156,0.3615723,0.01171875,0.01074219,0,1,3,0
475.662,0.00101,-0.09765625,-0.03125,-0.06640625,-1.890625,4.25,12.10938,-0.015625,0.01171875,-0.07421875,0.03320312,0.0390625,0,-0.005493164,-0.006591797,0.02758789,0,0,-0.009033203,0.3105164,4.023,0,0,0,0.2999878,nan,2,5.115,1,0,0.3054199,0.3417969,0.2434387,0.3514404,0.01171875,0.01074219,0,1,3,0
475.672,0.00101,0.1699219,-0.05078125,-0.1113281,-2.382812,2.15625,12.3125,0.0625,-0.02929688,-0.1054688,0.03515625,0.0390625,0,-0.005737305,-0.006591797,0.02661133,0,0,-0.009033203,0.3105164,4.023,0,0,0,0.2999878,nan,2,5.125,1,0,0.2653198,0.3937683,0.2357483,0.3472595,0.01269531,0.01074219,0,1,3,0
475.682,0.001007,0.06835938,0.02734375,-0.05664062,-2.671875,3.046875,13.22656,0.0546875,0.03125,-0.06445312,0.02929688,0.0390625,0,-0.005004883,-0.006591797,0.02575684,0,0,-0.009033203,0.3105164,4.023,0,0,0,0.2999878,nan,2,5.135,1,0,0.3407593,0.2929077,0.3018494,0.3065796,0.01171875,0.01074219,0,1,3,0
475.692,0.001008,0.046875,0.07226562,-0.02929688,-1.945312,7.070312,14.78125,0.04296875,0.0390625,-0.01367188,0.02734375,0.0390625,0,-0.004394531,-0.006469727,0.02539062,0,0,-0.009033203,0.3105164,4.023,0,0,0,0.2999878,nan,2,5.145,1,0,0.3684998,0.2606201,0.3358459,0.2771606,0.01171875,0.01074219,0,1,3,0
475.702,0.001008,0.03515625,0.0078125,-0.04492188,-0.6796875,1.242188,13.82812,0.01757812,0.001953125,-0.04492188,0.02539062,0.0390625,0,-0.004272461,-0.006469727,0.02502441,0,0,-0.009033203,0.3105164,4.023,0,0,0,0.2999878,nan,2,5.155,1,0,0.3116455,0.3345642,0.263916,0.3319702,0.01171875,0.01074219,0,1,3,0
475.712,0.00101,0.02734375,0.00390625,-0.05078125,-0.015625,3.929688,14.33594,-0.005859375,-0.005859375,-0.04882812,0.02734375,0.0390625,0,-0.004394531,-0.006469727,0.02453613,0,0,-0.009033203,0.3105164,4.023,0,0,0,0.2999878,nan,2,5.165,1,0,0.3201294,0.3292236,0.2646484,0.3280945,0.01171875,0.01074219,0,1,3,0
475.721,0.001013,0.03515625,0.0703125,-0.03515625,1.234375,-1.703125,8.273438,0.0234375,-0.0078125,-0.0546875,0.02734375,0.0390625,0,-0.004394531,-0.006591797,0.02404785,0,0,-0.009033203,0.3105164,4.023,0,0,0,0.2999878,nan,2,5.174,1,0,0.3219604,0.3217163,0.2848511,0.3135376,0.01269531,0.01074219,0,1,3,0
475.731,0.00101,0.02148438,0.00390625,-0.04882812,1.90625,0.5859375,6.851562,-0.005859375,0.005859375,-0.0390625,0.02734375,0.0390625,0,-0.004516602,-0.006591797,0.02355957,0,0,-0.009033203,0.3105164,4.023,0,0,0,0.2999878,nan,2,5.184,1,0,0.3357849,0.3088379,0.2826843,0.3147888,0.01269531,0.01074219,0,1,3,0
475.742,0.000994,-0.02539062,-0.06835938,-0.009765625,0.9921875,-5.375,9.328125,-0.0078125,-0.009765625,-0.009765625,0.02734375,0.0390625,0,-0.004516602,-0.006469727,0.02331543,0,0,-0.009033203,0.3105164,4.023,0,0,0,0.2999878,nan,2,5.194,1,0,0.3657532,0.2886353,0.3023376,0.2854004,0.01269531,0.01074219,0,1,3,0
475.752,0.001017,0.005859375,-0.01367188,-0.01757812,1.421875,-0.21875,7.3125,0.009765625,-0.01171875,-0.01171875,0.02734375,0.0390625,0,-0.004516602,-0.006591797,0.02331543,0,0,-0.009033203,0.3105164,4.023,0,0,0,0.2999878,nan,2,5.205,1,0,0.3259277,0.3244629,0.2716675,0.3200378,0.01269531,0.01074219,0,1,3,0
475.762,0.00101,-0.03710938,0,-0.001953125,-0.8046875,-2.671875,9.570312,-0.005859375,0.005859375,-0.0078125,0.02734375,0.0390625,0,-0.004394531,-0.006469727,0.02319336,0,0,-0.009033203,0.3105164,4.023,0,0,0,0.2999878,nan,2,5.215,1,0,0.3435974,0.3023682,0.2843323,0.3118286,0.01269531,0.01074219,0,1,3,0
475.772,0.00101,0.06445312,-0.0390625,0.0390625,-1.007812,3.4375,9.304688,-0.0078125,-0.005859375,-0.005859375,0.02734375,0.0390625,0,-0.004638672,-0.006347656,0.02307129,0,0,-0.009033203,0.3105164,4.023,0,0,0,0.2999878,nan,2,5.225,1,0,0.3571472,0.2987061,0.300354,0.2858887,0.01269531,0.01074219,0,1,3,0.4444444
475.782,0.001033,-0.015625,0,-0.009765625,-1.578125,-0.25,12.38281,-0.02929688,0.0078125,0,0.02929688,0.0390625,0,-0.004882812,-0.006347656,0.02319336,0,0,-0.009033203,0.3105164,4.023,0,0,0,0.2999878,nan,2,5.235,1,0,0.3268433,0.3184509,0.2690125,0.3278198,0.01269531,0.01074219,0,1,3,0
475.792,0.001014,0.07421875,0.00390625,-0.01367188,0.3046875,2.851562,11.21094,0.01367188,-0.00390625,-0.01953125,0.02929688,0.03710938,0,-0.005004883,-0.006347656,0.02294922,0,0,-0.009033203,0.3105164,4.023,0,0,0,0.2999878,nan,2,5.245,1,0,0.3161926,0.3326721,0.2754211,0.3178101,0.01269531,0.01074219,0,1,3,0
475.801,0.001033,-0.05664062,0.005859375,-0.02929688,1.609375,-5.21875,4.992188,-0.05859375,0.01953125,-0.03125,0.03125,0.0390625,0,-0.005126953,-0.006347656,0.02270508,0,0,-0.009033203,0.3105164,4.023,0,0,0,0.2999878,nan,2,5.254,1,0,0.3286743,0.3098145,0.2604675,0.3431396,0.01269531,0.01074219,0,1,3,0
475.811,0.001061,0.03125,0.00390625,-0.06054688,2.140625,0.4140625,6.429688,0.009765625,-0.005859375,-0.03710938,0.03125,0.03710938,0,-0.005249023,-0.006347656,0.02246094,0,0,-0.009033203,0.3105164,4.023,0,0,0,0.2999878,nan,2,5.264,1,0,0.3055725,0.3450012,0.256073,0.3354492,0.01269531,0.01074219,0,1,3,0
475.821,0.001014,0.01171875,-0.05859375,-0.0625,1.445312,-4.734375,8.976562,0.05273438,-0.0390625,-0.07226562,0.02929688,0.0390625,0,-0.004760742,-0.006469727,0.02172852,0,0,-0.009033203,0.3105164,4.023,0,0,0,0.2999878,nan,2,5.274,1,0,0.3067017,0.3538208,0.2457886,0.3357849,0.01269531,0.01074219,0,1,3,0.06349207
475.832,0.001031,0.0546875,-0.02539062,-0.06640625,0.375,-3.304688,6.59375,0.01367188,-0.00390625,-0.0625,0.02929688,0.0390625,0,-0.004760742,-0.006591797,0.02111816,0,0,-0.009033203,0.3105164,4.023,0,0,0,0.2999878,nan,2,5.284,1,0,0.317688,0.329895,0.2703552,0.3241577,0.01269531,0.01074219,0,1,3,0
475.842,0.001066,0.1347656,-0.0390625,-0.05273438,0.0625,-2.273438,7.921875,0.109375,-0.02539062,-0.0546875,0.02539062,0.0390625,0,-0.004272461,-0.006591797,0.02050781,0,0,-0.009033203,0.3105164,4.023,0,0,0,0.2999878,nan,2,5.294,1,0,0.3153076,0.3457336,0.2842102,0.2968445,0.01269531,0.01074219,0,1,3,0
475.852,0.001011,-0.01171875,0.05664062,-0.0703125,-1.875,-0.359375,10.625,0.03710938,0.02148438,-0.06835938,0.02148438,0.0390625,0,-0.003662109,-0.006591797,0.01989746,0,0,-0.009033203,0.3105164,4.023,0,0,0,0.2999878,nan,2,5.305,1,0,0.3040771,0.3339233,0.2546387,0.3494568,0.01269531,0.01074219,0,1,3,0
475.862,0.001011,0.0546875,0.01171875,-0.01757812,-1.601562,4.226562,11.35156,0.1171875,-0.00390625,-0.04492188,0.015625,0.0390625,0,-0.002685547,-0.006469727,0.01928711,0,0,-0.009033203,0.3105164,4.023,0,0,0,0.2999878,nan,2,5.315,1,0,0.3431396,0.3080444,0.3078918,0.28302,0.01269531,0.01074219,0,1,3,0
475.872,0.001033,-0.0078125,0.01757812,0.00390625,-1.75,1.546875,11.57812,0.015625,0.01171875,0,0.01367188,0.0390625,0,-0.002319336,-0.006469727,0.01916504,0,0,-0.009033203,0.3105164,4.023,0,0,0,0.2999878,nan,2,5.325,1,0,0.3656006,0.2767639,0.3093262,0.2904358,0.01269531,0.01074219,0,1,3,0
475.882,0.00101,-0.02148438,-0.0078125,0.02148438,0.0703125,1.890625,8.015625,0.00390625,0.005859375,0.009765625,0.01367188,0.03710938,0,-0.002319336,-0.006347656,0.01916504,0,0,-0.009033203,0.3105164,4.023,0,0,0,0.2999878,nan,2,5.335,1,0,0.3602905,0.2908936,0.3004761,0.2904358,0.01269531,0.01074219,0,1,3,0
475.892,0.001005,-0.04492188,0.009765625,0.001953125,2.140625,-0.7734375,10.72656,-0.0078125,-0.0078125,0.005859375,0.01367188,0.0390625,0,-0.002197266,-0.006347656,0.01928711,0,0,-0.009033203,0.3105164,4.023,0,0,0,0.2999878,nan,2,5.345,1,0,0.3452759,0.3020935,0.2867126,0.3080139,0.01269531,0.01171875,0,1,3,0
475.901,0.001048,0.03125,-0.0078125,-0.01171875,-0.9375,-2.210938,6.703125,0.001953125,-0.00390625,-0.00390625,0.01367188,0.0390625,0,-0.002319336,-0.006469727,0.01928711,0,0,-0.009033203,0.3105164,4.023,0,0,0,0.2999878,nan,2,5.354,1,0,0.3269958,0.3227234,0.2771912,0.3151855,0.01269531,0.01171875,0,1,3,0
475.912,0.00101,-0.046875,0.0390625,-0.02539062,-0.4609375,-2.945312,11.24219,-0.02734375,0.009765625,-0.05078125,0.015625,0.0390625,0,-0.002563477,-0.006347656,0.0189209,0,0,-0.009033203,0.3105164,4.023,0,0,0,0.2999878,nan,2,5.365,1,0,0.2990112,0.3458862,0.2427979,0.3544006,0.01269531,0.01171875,0,1,3,0
475.921,0.00101,-0.01953125,-0.0078125,-0.015625,-1.640625,3.28125,11.4375,-0.009765625,0.0546875,-0.02148438,0.015625,0.03515625,0,-0.002685547,-0.005981445,0.01855469,0,0,-0.009033203,0.3105164,4.023,0,0,0,0.2999878,nan,2,5.374,1,0,0.3529663,0.2849426,0.307373,0.2968445,0.01269531,0.01171875,0,1,3,0
475.931,0.00101,-0.01367188,0.03320312,0.02929688,-0.7578125,1.132812,14.90625,-0.005859375,0.0078125,0.02148438,0.015625,0.03515625,0,-0.002685547,-0.005859375,0.01855469,0,0,-0.009033203,0.3105164,4.023,0,0,0,0.2999878,nan,2,5.384,1,0,0.3830261,0.2651978,0.3275757,0.2662964,0.01269531,0.01171875,0,1,3,0
475.942,0.00101,0.1210938,-0.08007812,0.03320312,1.359375,-0.0390625,4.265625,0.03320312,-0.03125,0.03515625,0.015625,0.03515625,0,-0.002563477,-0.005859375,0.0189209,0,0,-0.009033203,0.3105164,4.023,0,0,0,0.2999878,nan,2,5.394,1,0,0.350708,0.3126526,0.2962341,0.2825012,0.01269531,0.01171875,0,1,3,0
475.952,0.00101,0.015625,0.015625,0.07226562,1.078125,-4.359375,8.90625,0.001953125,0.005859375,0.04101562,0.015625,0.03710938,0,-0.002441406,-0.005981445,0.01928711,0,0,-0.009033203,0.3105164,4.023,0,0,0,0.2999878,nan,2,5.405,1,0,0.3607483,0.2803955,0.311615,0.2893372,0.01269531,0.01171875,0,1,3,0.01587302
475.962,0.00101,0.05078125,0.005859375,0.05664062,-1.46875,3.046875,9.859375,0.01757812,-0.009765625,0.05273438,0.015625,0.03710938,0,-0.002441406,-0.006103516,0.01977539,0,0,-0.009033203,0.3105164,4.023,0,0,0,0.2999878,nan,2,5.415,1,0,0.363678,0.2839966,0.3180542,0.2763672,0.01269531,0.01171875,0,1,3,0
475.972,0.00101,0.05664062,-0.01171875,0.0234375,-1.15625,1.492188,12.92188,0.00390625,-0.00390625,0.03125,0.015625,0.03710938,0,-0.002441406,-0.006347656,0.0201416,0,0,-0.009033203,0.3105164,4.023,0,0,0,0.2999878,nan,2,5.425,1,0,0.3265991,0.3189392,0.2772217,0.3193359,0.01269531,0.01171875,0,1,3,0
475.982,0.001014,0.0078125,0.009765625,0.01171875,0.9921875,-1.640625,8.960938,0.01367188,0.005859375,0.01953125,0.01367188,0.0390625,0,-0.002319336,-0.006347656,0.02038574,0,0,-0.009033203,0.3105164,4.023,0,0,0,0.2999878,nan,2,5.435,1,0,0.3299561,0.3143311,0.2825012,0.3153076,0.01269531,0.01171875,0,1,3,0
475.992,0.001009,-0.05078125,0.001953125,-0.08984375,1.367188,-0.734375,5.15625,-0.0078125,-0.009765625,-0.04101562,0.01367188,0.0390625,0,-0.002441406,-0.006469727,0.02038574,0,0,-0.009033203,0.3105164,4.023,0,0,0,0.2999878,nan,2,5.445,1,0,0.2665405,0.3834534,0.2065125,0.3856201,0.01269531,0.01171875,0,1,3,0
476.002,0.001019,0.0078125,0.04882812,-0.08007812,-0.4296875,-3.375,10.25,0.0078125,-0.001953125,-0.06054688,0.015625,0.0390625,0,-0.002563477,-0.006469727,0.01977539,0,0,-0.009033203,0.3105164,4.023,0,0,0,0.2999878,nan,2,5.455,1,0,0.3002014,0.3487244,0.2536316,0.3395386,0.01269531,0.01171875,0,1,3,0
476.012,0.00101,0.06445312,-0.07421875,-0.0546875,-0.6953125,0.25,6.585938,0.04296875,-0.005859375,-0.05664062,0.01367188,0.0390625,0,-0.002319336,-0.006469727,0.01916504,0,0,-0.009033203,0.3105164,4.023,0,0,0,0.2999878,nan,2,5.465,1,0,0.3176575,0.3336792,0.2720337,0.3187256,0.01269531,0.01171875,0,1,3,0
476.021,0.001008,-0.01367188,0.01171875,-0.1015625,-2.273438,1.335938,11.21875,-0.01171875,-0.0234375,-0.09570312,0.01367188,0.0390625,0,-0.002319336,-0.006591797,0.01843262,0,0,-0.009033203,0.3105164,4.023,0,0,0,0.2999878,nan,2,5.474,1,0,0.2710571,0.3849792,0.2035522,0.3825073,0.01269531,0.01171875,0,1,3,0
476.031,0.001008,-0.0234375,0.0078125,0.0078125,-3.140625,4.015625,12.13281,0.02929688,-0.0234375,-0.04101562,0.01367188,0.04101562,0,-0.002197266,-0.006835938,0.0177002,0,0,-0.009033203,0.3105164,4.023,0,0,0,0.2999878,nan,2,5.484,1,0,0.3946533,0.2577209,0.344574,0.2451782,0.01269531,0.01171875,0,1,3,0
476.042,0.001016,-0.01171875,0.04882812,0.00390625,-2.140625,3.859375,11.57031,0.015625,0.0078125,-0.01171875,0.01171875,0.04101562,0,-0.002075195,-0.006713867,0.01745605,0,0,-0.009033203,0.3105164,4.023,0,0,0,0.2999878,nan,2,5.494,1,0,0.3674316,0.2806091,0.3158875,0.2781677,0.01269531,0.01171875,0,1,3,0
476.052,0.001032,-0.015625,-0.005859375,0.0078125,-0.6875,2.164062,9.710938,-0.00390625,0.01757812,0.005859375,0.01171875,0.0390625,0,-0.002075195,-0.006591797,0.01733398,0,0,-0.009033203,0.3105164,4.023,0,0,0,0.2999878,nan,2,5.505,1,0,0.3625488,0.2790527,0.3119812,0.2885132,0.01269531,0.01171875,0,1,3,0.2857143
476.062,0.000966,-0.04101562,0.01171875,0.00390625,1.765625,-1.296875,8.023438,-0.0234375,0.02148438,-0.001953125,0.01367188,0.0390625,0,-0.002197266,-0.006591797,0.01733398,0,0,-0.009033203,0.3105164,4.023,0,0,0,0.2999878,nan,2,5.515,1,0,0.3373718,0.3052063,0.2808838,0.3186646,0.01269531,0.01171875,0,1,3,0
476.072,0.001037,0.03710938,0.00390625,-0.04492188,1.921875,-1.976562,6.523438,0.001953125,-0.01171875,-0.02734375,0.01367188,0.0390625,0,-0.002319336,-0.006591797,0.01733398,0,0,-0.009033203,0.3105164,4.023,0,0,0,0.2999878,nan,2,5.525,1,0,0.2927551,0.3588257,0.2392578,0.3512573,0.01269531,0.01171875,0,1,3,0
476.082,0.001003,0.03710938,0.00390625,-0.01953125,0.0078125,-3.921875,10.83594,0.01757812,0.01953125,-0.02734375,0.01367188,0.0390625,0,-0.002197266,-0.006469727,0.01696777,0,0,-0.009033203,0.3105164,4.023,0,0,0,0.2999878,nan,2,5.535,1,0,0.3336792,0.3083801,0.291748,0.3083191,0.01269531,0.01171875,0,1,3,0
476.092,0.000968,0.009765625,0.015625,0.01757812,-1.359375,3.171875,10.96875,-0.001953125,-0.005859375,0.009765625,0.01367188,0.0390625,0,-0.002197266,-0.006469727,0.0168457,0,0,-0.009033203,0.3105164,4.023,0,0,0,0.2999878,nan,2,5.545,1,0,0.3831177,0.2676392,0.3273315,0.2640076,0.01269531,0.01171875,0,1,3,0
476.102,0.000975,0.0625,0.015625,0.01953125,-2.148438,1.085938,9.523438,0.005859375,0.02539062,0.005859375,0.01367188,0.0390625,0,-0.002197266,-0.006347656,0.0168457,0,0,-0.009033203,0.3105164,4.023,0,0,0,0.2999878,nan,2,5.555,1,0,0.3405151,0.3005676,0.296936,0.3040771,0.01269531,0.01171875,0,1,3,0.4126984
476.112,0.001006,0.06835938,0.02734375,0.03125,0.1953125,5,12.0625,0.015625,0.01367188,0.01367188,0.01171875,0.03710938,0,-0.002075195,-0.006225586,0.01696777,0,0,-0.009033203,0.3105164,4.023,0,0,0,0.2999878,nan,2,5.565,1,0,0.3486633,0.2992859,0.3019409,0.2922058,0.01269531,0.01171875,0,1,3,0
476.121,0.00101,-0.04882812,0.03710938,0.0390625,0.7578125,-5.960938,9.523438,-0.005859375,0.015625,0.0234375,0.01171875,0.03710938,0,-0.001953125,-0.006225586,0.01721191,0,0,-0.009033203,0.3105164,4.023,0,0,0,0.2999878,nan,2,5.574,1,0,0.3580322,0.2836609,0.3008728,0.2995605,0.01269531,0.01171875,0,1,3,0
476.131,0.00101,0.0390625,-0.03710938,0.03710938,1.914062,-2.3125,6.015625,0.00390625,-0.001953125,0.015625,0.01171875,0.03710938,0,-0.002075195,-0.006347656,0.01733398,0,0,-0.009033203,0.3105164,4.023,0,0,0,0.2999878,nan,2,5.584,1,0,0.3456421,0.302063,0.2961121,0.2982788,0.01269531,0.01171875,0,1,3,0
476.142,0.00101,-0.04101562,0,-0.005859375,0.4296875,-3.09375,6.179688,-0.005859375,-0.0078125,0.01171875,0.01171875,0.0390625,0,-0.002075195,-0.006469727,0.01745605,0,0,-0.009033203,0.3105164,4.023,0,0,0,0.2999878,nan,2,5.594,1,0,0.327301,0.3219604,0.269989,0.3228455,0.01269531,0.01171875,0,1,3,0
476.152,0.00101,-0.02148438,0.001953125,-0.01953125,-0.7109375,-1.179688,7.960938,0.00390625,-0.01171875,-0.02539062,0.01171875,0.0390625,0,-0.001953125,-0.006591797,0.01733398,0,0,-0.009033203,0.3105164,4.023,0,0,0,0.2999878,nan,2,5.604,1,0,0.30896,0.3421326,0.2501831,0.3408508,0.01269531,0.01269531,0,1,3,0
476.162,0.00101,-0.01953125,0,-0.03515625,-1.992188,0.328125,9.664062,-0.005859375,0.005859375,-0.02929688,0.01171875,0.0390625,0,-0.002075195,-0.006469727,0.01708984,0,0,-0.009033203,0.3105164,4.023,0,0,0,0.2999878,nan,2,5.615,1,0,0.3144531,0.3354492,0.2590027,0.3331909,0.01269531,0.01269531,0,1,3,0.4920635
476.172,0.00101,-0.0703125,0.0078125,-0.04492188,-2.390625,5.796875,12.76562,-0.02929688,0.009765625,-0.046875,0.01367188,0.0390625,0,-0.002197266,-0.006469727,0.0168457,0,0,-0.009033203,0.3105164,4.023,0,0,0,0.2999878,nan,2,5.625,1,0,0.3063049,0.3390808,0.2416382,0.355072,0.01269531,0.01269531,0,1,3,0
476.182,0.001038,-0.03320312,-0.015625,-0.0078125,-2.257812,1.359375,11.84375,-0.0078125,0.01367188,-0.015625,0.01367188,0.0390625,0,-0.002197266,-0.006347656,0.01647949,0,0,-0.009033203,0.3105164,4.023,0,0,0,0.2999878,nan,2,5.635,1,0,0.3608093,0.2878113,0.3031616,0.2903137,0.01269531,0.01269531,0,1,3,0
476.192,0.001035,-0.02929688,-0.02734375,0.03320312,-1.101562,3.421875,11.42969,0,0,0.01171875,0.01367188,0.03710938,0,-0.002197266,-0.006225586,0.01647949,0,0,-0.009033203,0.3105164,4.023,0,0,0,0.2999878,nan,2,5.645,1,0,0.3694153,0.2857056,0.3054199,0.2815857,0.01269531,0.01269531,0,1,3,0
476.201,0.000992,-0.001953125,-0.015625,0.09570312,2.375,-1.890625,10.19531,-0.005859375,0.0078125,0.06445312,0.01367188,0.03710938,0,-0.002319336,-0.006103516,0.0168457,0,0,-0.009033203,0.3105164,4.023,0,0,0,0.2999878,nan,2,5.654,1,0,0.4214783,0.2301331,0.3639832,0.2265015,0.01269531,0.01269531,0,1,3,0
476.211,0.000952,-0.1191406,0.06054688,0.046875,1.765625,-1.070312,6.148438,-0.0625,0.02929688,0.06054688,0.015625,0.03710938,0,-0.002563477,-0.006103516,0.01757812,0,0,-0.009033203,0.3105164,4.023,0,0,0,0.2999878,nan,2,5.664,1,0,0.3508911,0.2861023,0.2825623,0.3225708,0.01269531,0.01269531,0,1,3,0
476.221,0.001013,0.01367188,-0.04101562,0.06835938,-0.4140625,-1.335938,9.8125,-0.02148438,-0.009765625,0.06054688,0.015625,0.03710938,0,-0.002563477,-0.006103516,0.01806641,0,0,-0.009033203,0.3105164,4.023,0,0,0,0.2999878,nan,2,5.674,1,0,0.3663635,0.2865906,0.3066406,0.2824707,0.01269531,0.01269531,0,1,3,0.7619048
476.231,0.001009,0.04296875,-0.0234375,0.04101562,-1.828125,2.1875,9.414062,0.01171875,0.00390625,0.04101562,0.015625,0.03710938,0,-0.002563477,-0.006103516,0.01867676,0,0,-0.009033203,0.3105164,4.023,0,0,0,0.2999878,nan,2,5.684,1,0,0.3221741,0.3295288,0.2704773,0.3199158,0.01269531,0.01269531,0,1,3,0.9047619
476.242,0.00101,-0.05078125,-0.009765625,0.03710938,0.6484375,1.632812,12.65625,-0.01367188,-0.015625,0.03320312,0.015625,0.03710938,0,-0.002685547,-0.006103516,0.01904297,0,0,-0.009033203,0.3105164,4.023,0,0,0,0.2999878,nan,2,5.694,1,0,0.348053,0.3089294,0.2806091,0.3045349,0.01269531,0.01269531,0,1,3,0
476.252,0.001016,-0.02539062,0.02734375,0.005859375,1.460938,-1.039062,6.679688,-0.0078125,-0.001953125,0.001953125,0.015625,0.03710938,0,-0.002807617,-0.006103516,0.01916504,0,0,-0.009033203,0.3105164,4.023,0,0,0,0.2999878,nan,2,5.704,1,0,0.3189697,0.3320923,0.2586365,0.332428,0.01269531,0.01269531,0,1,3,0
476.262,0.00101,0.03710938,-0.02148438,-0.01171875,1.492188,-1.570312,6.023438,0.04492188,-0.01757812,-0.005859375,0.015625,0.03710938,0,-0.002563477,-0.006103516,0.01928711,0,0,-0.009033203,0.3105164,4.023,0,0,0,0.2999878,nan,2,5.715,1,0,0.3064575,0.3513184,0.258728,0.3256226,0.01269531,0.01269531,0,1,3,0
476.272,0.00101,0.1054688,-0.01953125,0.0078125,-0.359375,-3.703125,8.742188,0.03125,-0.0234375,0,0.01367188,0.03710938,0,-0.002441406,-0.006225586,0.01916504,0,0,-0.009033203,0.3105164,4.023,0,0,0,0.2999878,nan,2,5.725,1,0,0.3432312,0.3152161,0.2889404,0.2947083,0.01269531,0.01269531,0,1,3,0.2063492
476.282,0.000993,0.05273438,-0.009765625,0.05664062,-0.8984375,2.890625,10.64844,0.0234375,0,0.03710938,0.01367188,0.03710938,0,-0.002197266,-0.006225586,0.01940918,0,0,-0.009033203,0.3105164,4.023,0,0,0,0.2999878,nan,2,5.735,1,0,0.3896179,0.2602844,0.3369446,0.2552795,0.01269531,0.01269531,0,1,3,0
476.292,0.001003,0.01953125,-0.01953125,0.06835938,-1.59375,0.6796875,15.29688,0.001953125,-0.005859375,0.0703125,0.01367188,0.03710938,0,-0.002319336,-0.006225586,0.02001953,0,0,-0.009033203,0.3105164,4.023,0,0,0,0.2999878,nan,2,5.745,1,0,0.3825378,0.2706604,0.3267517,0.262146,0.01269531,0.01269531,0,1,3,0
476.302,0.001008,-0.0078125,-0.02734375,0.07226562,1.265625,2.523438,8.765625,0.01367188,-0.02148438,0.0703125,0.01171875,0.03710938,0,-0.002075195,-0.006225586,0.02075195,0,0,-0.009033203,0.3105164,4.023,0,0,0,0.2999878,nan,2,5.755,1,0,0.36203,0.3007507,0.2921448,0.2871399,0.01269531,0.01269531,0,1,3,0
476.311,0.00101,-0.01367188,0.07226562,0.08007812,1.570312,-3.164062,8.75,-0.001953125,0.005859375,0.09179688,0.01367188,0.03710938,0,-0.002197266,-0.006347656,0.02148438,0,0,-0.009033203,0.3105164,4.023,0,0,0,0.2999878,nan,2,5.764,1,0,0.3693848,0.2750854,0.321106,0.2765198,0.01269531,0.01269531,0,1,3,0.2222222
476.321,0.00101,0.009765625,0.00390625,0.06835938,-2.289062,2.75,11.57812,-0.01757812,-0.0078125,0.0625,0.01367188,0.03710938,0,-0.002441406,-0.006225586,0.0222168,0,0,-0.009033203,0.3105164,4.023,0,0,0,0.2999878,nan,2,5.774,1,0,0.3519287,0.3057861,0.2859802,0.2984314,0.01269531,0.01269531,0,1,3,0
476.331,0.00101,-0.0625,-0.01757812,0.04882812,-0.2890625,1.0625,13.03125,-0.02148438,0,0.05859375,0.015625,0.03710938,0,-0.002563477,-0.006225586,0.02282715,0,0,-0.009033203,0.3105164,4.023,0,0,0,0.2999878,nan,2,5.784,1,0,0.3478088,0.3039246,0.2813721,0.3089905,0.01269531,0.01269531,0,1,3,0
476.342,0.00101,-0.05078125,0.0390625,0.001953125,1.515625,-1.65625,5.21875,-0.01171875,0.009765625,0.01953125,0.015625,0.03710938,0,-0.002563477,-0.006225586,0.02319336,0,0,-0.009033203,0.3105164,4.023,0,0,0,0.2999878,nan,2,5.794,1,0,0.3103027,0.3350525,0.2516479,0.3450928,0.01269531,0.01269531,0,1,3,0
476.352,0.00101,-0.01757812,0.02148438,0.001953125,1.609375,-2.921875,6.796875,-0.0234375,0.009765625,0.015625,0.01757812,0.03710938,0,-0.002807617,-0.006103516,0.02331543,0,0,-0.009033203,0.3105164,4.023,0,0,0,0.2999878,nan,2,5.804,1,0,0.3433533,0.3037415,0.2853394,0.3096619,0.01269531,0.01269531,0,1,3,0
476.362,0.001,-0.09570312,0.03320312,0.02929688,-1.03125,-1.492188,11.38281,-0.05078125,0.01757812,0.01367188,0.01757812,0.03515625,0,-0.003051758,-0.005981445,0.0234375,0,0,-0.009033203,0.3105164,4.023,0,0,0,0.2999878,nan,2,5.815,1,0,0.3563538,0.2919006,0.2835388,0.3103027,0.01269531,0.01269531,0,1,3,0
476.372,0.00101,0.06445312,-0.0234375,0.04492188,-2.0625,4.734375,12.17969,0.02539062,0,0.03710938,0.01757812,0.03710938,0,-0.002807617,-0.006103516,0.02368164,0,0,-0.009033203,0.3105164,4.023,0,0,0,0.2999878,nan,2,5.825,1,0,0.3712158,0.2797546,0.3206482,0.2704773,0.01269531,0.01269531,0,1,3,0
476.382,0.001008,-0.04492188,-0.01171875,0.08398438,0.0078125,-0.921875,11.11719,-0.0078125,0.00390625,0.07421875,0.01757812,0.03515625,0,-0.002807617,-0.005981445,0.02429199,0,0,-0.009033203,0.3105164,4.023,0,0,0,0.2999878,nan,2,5.835,1,0,0.4015808,0.2513123,0.335968,0.2532654,0.01269531,0.01269531,0,1,3,0
476.392,0.001011,-0.015625,0.015625,0.02148438,2.21875,0.1015625,6.726562,-0.01367188,0.01171875,0.046875,0.01757812,0.03515625,0,-0.002807617,-0.005859375,0.02490234,0,0,-0.009033203,0.3105164,4.023,0,0,0,0.2999878,nan,2,5.845,1,0,0.3244019,0.3231812,0.263916,0.3306274,0.01367188,0.01269531,0,1,3,0
476.402,0.001009,0.09375,-0.06445312,-0.03710938,-0.5546875,-1.390625,11.67188,0.001953125,0,0.0234375,0.01757812,0.03515625,0,-0.003051758,-0.005737305,0.02539062,0,0,-0.009033203,0.3105164,4.023,0,0,0,0.2999878,nan,2,5.855,1,0,0.3050842,0.3513489,0.2486267,0.3370667,0.01367188,0.01269531,0,1,3,0
476.412,0.001011,-0.08203125,0.02148438,0.015625,-1.679688,2.335938,10.28125,-0.02929688,0.03515625,0.02148438,0.01757812,0.03320312,0,-0.002929688,-0.005615234,0.0255127,0,0,-0.009033203,0.3105164,4.023,0,0,0,0.2999878,nan,2,5.865,1,0,0.3494263,0.291626,0.2837219,0.3173218,0.01367188,0.01269531,0,1,3,0
476.421,0.001012,0.015625,-0.03515625,0.02929688,0.3828125,1.789062,12.21094,0.001953125,-0.0078125,0.02148438,0.01757812,0.03320312,0,-0.002929688,-0.005493164,0.02563477,0,0,-0.009033203,0.3105164,4.023,0,0,0,0.2999878,nan,2,5.874,1,0,0.3557434,0.3034668,0.2938843,0.2890015,0.01367188,0.01269531,0,1,3,0
476.431,0.001006,-0.0859375,0.05664062,-0.01757812,1.789062,-3.070312,6.007812,-0.01953125,0.01367188,-0.00390625,0.01757812,0.03320312,0,-0.002929688,-0.005493164,0.02575684,0,0,-0.009033203,0.3105164,4.023,0,0,0,0.2999878,nan,2,5.884,1,0,0.3094788,0.3340759,0.2478027,0.3507385,0.01367188,0.01367188,0,1,3,0
476.442,0.001009,0.02539062,0.0234375,0.01171875,1.5,-1.71875,4.695312,0.02929688,-0.001953125,0.009765625,0.01757812,0.03320312,0,-0.002807617,-0.005493164,0.02575684,0,0,-0.009033203,0.3105164,4.023,0,0,0,0.2999878,nan,2,5.894,1,0,0.3562927,0.2937622,0.3048401,0.2872314,0.01367188,0.01367188,0,1,3,0
476.452,0.001013,0.02929688,-0.0859375,-0.02539062,-0.8984375,-1.515625,11.45312,0.01953125,-0.01953125,-0.0078125,0.015625,0.03320312,0,-0.002685547,-0.005493164,0.02587891,0,0,-0.009033203,0.3105164,4.023,0,0,0,0.2999878,nan,2,5.904,1,0,0.3217163,0.3419189,0.2568665,0.3216553,0.01367188,0.01367188,0,1,3,0
476.462,0.001008,-0.09375,0.01953125,0.02539062,-2.09375,2.921875,11.75781,-0.01171875,-0.00390625,0.01757812,0.015625,0.03320312,0,-0.002563477,-0.005493164,0.02587891,0,0,-0.009033203,0.3105164,4.023,0,0,0,0.2999878,nan,2,5.915,1,0,0.3742676,0.2767029,0.3040771,0.2870178,0.01367188,0.01367188,0,1,3,0
476.472,0.001008,-0.0390625,0.01953125,0.02929688,0.1875,1.476562,12.96094,-0.01367188,0.001953125,0.03125,0.015625,0.03320312,0,-0.002563477,-0.005493164,0.02612305,0,0,-0.009033203,0.3105164,4.023,0,0,0,0.2999878,nan,2,5.925,1,0,0.3580627,0.2906189,0.2968445,0.2965698,0.01367188,0.01367188,0,1,3,0
476.482,0.001006,-0.001953125,-0.02148438,0.02734375,1.1875,-2.71875,4.898438,-0.01171875,0,0.03125,0.015625,0.03320312,0,-0.002685547,-0.005371094,0.02648926,0,0,-0.009033203,0.3105164,4.023,0,0,0,0.2999878,nan,2,5.935,1,0,0.3554688,0.3001099,0.2878113,0.2987366,0.01367188,0.01367188,0,1,3,0
476.492,0.001016,0.02539062,0.01953125,0.02539062,1.132812,-0.5390625,6.085938,0.005859375,0.01171875,0.0234375,0.01757812,0.03125,0,-0.002807617,-0.005249023,0.0267334,0,0,-0.009033203,0.3105164,4.023,0,0,0,0.2999878,nan,2,5.945,1,0,0.3328552,0.3205872,0.2795105,0.3091736,0.01367188,0.01367188,0,1,3,0
476.502,0.00103,-0.01953125,-0.009765625,-0.015625,-1.078125,-2.65625,9.703125,-0.009765625,0,0.01171875,0.01757812,0.03125,0,-0.002807617,-0.005126953,0.02697754,0,0,-0.009033203,0.3105164,4.023,0,0,0,0.2999878,nan,2,5.955,1,0,0.3229675,0.3316956,0.256897,0.3305359,0.01367188,0.01367188,0,1,3,0.07936508
476.512,0.001017,-0.02539062,0.01953125,-0.02148438,-1.46875,5.273438,13.17188,-0.009765625,0.001953125,-0.005859375,0.01757812,0.03125,0,-0.002929688,-0.005004883,0.02697754,0,0,-0.009033203,0.3105164,4.023,0,0,0,0.2999878,nan,2,5.965,1,0,0.3224487,0.3287048,0.2623291,0.3286133,0.01367188,0.01367188,0,1,3,0
476.521,0.00101,-0.04101562,-0.01367188,-0.005859375,-0.40625,-0.2421875,10.61719,-0.015625,-0.01171875,0.009765625,0.01757812,0.03125,0,-0.002929688,-0.005126953,0.02709961,0,0,-0.009033203,0.3105164,4.023,0,0,0,0.2999878,nan,2,5.974,1,0,0.3504333,0.3066711,0.2750549,0.309967,0.01367188,0.01367188,0,1,3,0
476.531,0.001011,0.046875,-0.01953125,-0.04296875,1.679688,-0.421875,6.757812,0.0234375,0.009765625,-0.0234375,0.01757812,0.02929688,0,-0.003051758,-0.005004883,0.02697754,0,0,-0.009033203,0.3105164,4.023,0,0,0,0.2999878,nan,2,5.984,1,0,0.2953796,0.3540649,0.2498779,0.3427734,0.01367188,0.01367188,0,1,3,0
476.542,0.000984,-0.05273438,-0.01953125,0.02929688,1.476562,-1.421875,6.601562,0.001953125,-0.01367188,0.01367188,0.01757812,0.03125,0,-0.002807617,-0.005126953,0.02697754,0,0,-0.009033203,0.3105164,4.023,0,0,0,0.2999878,nan,2,5.994,1,0,0.3832397,0.2713623,0.3132935,0.2742004,0.01367188,0.01367188,0,1,3,0
476.552,0.00101,-0.001953125,0.0234375,0.0390625,-0.46875,-4.453125,8.234375,-0.00390625,0,0.04492188,0.01757812,0.03125,0,-0.002807617,-0.005371094,0.02734375,0,0,-0.009033203,0.3105164,4.023,0,0,0,0.2999878,nan,2,6.004,1,0,0.3755188,0.2712708,0.3171082,0.2782288,0.01367188,0.01367188,0,1,3,0.07936508
476.562,0.00101,0.009765625,0.001953125,0.1074219,-1.734375,3.984375,10.875,-0.046875,0.0234375,0.05273438,0.01953125,0.03125,0,-0.003173828,-0.005126953,0.02770996,0,0,-0.009033203,0.3105164,4.023,0,0,0,0.2999878,nan,2,6.015,1,0,0.3939819,0.2540588,0.3300476,0.2640076,0.01367188,0.01367188,0,1,3,0
476.572,0.00101,0.005859375,-0.02734375,0.0546875,-0.21875,-2.40625,10.44531,0.009765625,-0.01367188,0.0703125,0.01757812,0.03125,0,-0.003051758,-0.005126953,0.02844238,0,0,-0.009033203,0.3105164,4.023,0,0,0,0.2999878,nan,2,6.025,1,0,0.3688965,0.2904968,0.3029785,0.2797546,0.01367188,0.01367188,0,1,3,0
476.582,0.001007,0.0234375,0.00390625,0.001953125,2.242188,1.601562,9.101562,-0.01367188,-0.009765625,0.0234375,0.01953125,0.03125,0,-0.003295898,-0.005126953,0.02880859,0,0,-0.009033203,0.3105164,4.023,0,0,0,0.2999878,nan,2,6.035,1,0,0.3127747,0.3416138,0.2478943,0.3398132,0.01367188,0.01367188,0,1,3,0.2698413
476.592,0.001008,-0.01367188,-0.02148438,0.02539062,-0.640625,-3.445312,7.929688,-0.005859375,0.0078125,-0.00390625,0.01953125,0.03125,0,-0.003295898,-0.005004883,0.02880859,0,0,-0.009033203,0.3105164,4.023,0,0,0,0.2999878,nan,2,6.045,1,0,0.3275757,0.3235474,0.2666321,0.3243713,0.01367188,0.01367188,0,1,3,0
476.601,0.00101,0.01171875,-0.015625,0.05273438,-1.976562,1.796875,10.41406,-0.00390625,-0.0078125,0.03125,0.01953125,0.03125,0,-0.003417969,-0.005126953,0.02905273,0,0,-0.009033203,0.3105164,4.023,0,0,0,0.2999878,nan,2,6.054,1,0,0.379425,0.2757568,0.3123779,0.2745361,0.01367188,0.01367188,0,1,3,0
476.612,0.001011,-0.06054688,-0.02734375,0.03320312,-0.703125,2.507812,13.01562,-0.01367188,-0.009765625,0.02929688,0.01953125,0.03125,0,-0.003295898,-0.005126953,0.02941895,0,0,-0.009033203,0.3105164,4.023,0,0,0,0.2999878,nan,2,6.065,1,0,0.3509216,0.3050232,0.276123,0.3100281,0.01367188,0.01367188,0,1,3,0
476.622,0.00101,0.03515625,-0.0078125,0.04101562,0.484375,-0.5234375,8.460938,0.02929688,0.0078125,0.01953125,0.01953125,0.03125,0,-0.003173828,-0.005126953,0.02954102,0,0,-0.009033203,0.3105164,4.023,0,0,0,0.2999878,nan,2,6.075,1,0,0.3476562,0.3009644,0.300415,0.2930603,0.01367188,0.01367188,0,1,3,0
476.631,0.001009,0.03125,0.009765625,0.05273438,1.960938,-0.375,8.078125,0.001953125,-0.00390625,0.04882812,0.01757812,0.03125,0,-0.003051758,-0.005126953,0.02990723,0,0,-0.009033203,0.3105164,4.023,0,0,0,0.2999878,nan,2,6.084,1,0,0.3866577,0.2677917,0.3214111,0.2662659,0.01367188,0.01367188,0,1,3,0
476.642,0.000984,0,0.009765625,0.03515625,-0.484375,-3.007812,8.492188,-0.005859375,0.0078125,0.0390625,0.01953125,0.03125,0,-0.003051758,-0.005126953,0.03039551,0,0,-0.009033203,0.3105164,4.023,0,0,0,0.2999878,nan,2,6.094,1,0,0.3427429,0.3068848,0.2823486,0.3101196,0.01367188,0.01367188,0,1,3,0
476.652,0.001008,0.06445312,-0.01171875,0.0546875,-0.9296875,4.890625,11.86719,0.009765625,0.01171875,0.04101562,0.01953125,0.02929688,0,-0.003173828,-0.004882812,0.03076172,0,0,-0.009033203,0.3105164,4.023,0,0,0,0.2999878,nan,2,6.104,1,0,0.3504333,0.3009949,0.2992554,0.2914429,0.01367188,0.01367188,0,1,3,0
476.662,0.001008,0.02148438,-0.03320312,0.02929688,1.25,-2.367188,11.91406,-0.001953125,-0.009765625,0.04492188,0.01953125,0.02929688,0,-0.003173828,-0.004882812,0.03125,0,0,-0.009033203,0.3105164,4.023,0,0,0,0.2999878,nan,2,6.115,1,0,0.3440857,0.3144836,0.2759705,0.3075867,0.01367188,0.01367188,0,1,3,0
476.672,0.001008,0.0546875,-0.0234375,0.0078125,1.1875,-2.476562,4.015625,0.03125,-0.01953125,0.009765625,0.01953125,0.02929688,0,-0.003295898,-0.005004883,0.03149414,0,0,-0.009033203,0.3105164,4.023,0,0,0,0.2999878,nan,2,6.125,1,0,0.3153381,0.3441772,0.2649231,0.3176575,0.01367188,0.01367188,0,1,3,0
476.682,0.001008,0.08789062,-0.01953125,-0.01367188,0.5546875,-2.742188,9.703125,0.01757812,-0.03320312,-0.01953125,0.01953125,0.03125,0,-0.003173828,-0.005126953,0.03137207,0,0,-0.009033203,0.3105164,4.023,0,0,0,0.2999878,nan,2,6.135,1,0,0.321106,0.3441467,0.255249,0.3216248,0.01367188,0.01367188,0,1,3,0.07936508
476.692,0.001027,0.005859375,-0.01367188,0.03125,-1.328125,-1.25,8.046875,0.00390625,-0.03320312,0.01367188,0.01757812,0.03320312,0,-0.003051758,-0.005371094,0.03137207,0,0,-0.009033203,0.3105164,4.023,0,0,0,0.2999878,nan,2,6.145,1,0,0.3865967,0.2720337,0.3181763,0.2653198,0.01367188,0.01367188,0,1,3,0
476.702,0.001006,0.04882812,-0.04882812,0.0234375,-1.5,4.476562,10.96094,0.015625,-0.02734375,0.01757812,0.01757812,0.03320312,0,-0.002929688,-0.005493164,0.03149414,0,0,-0.009033203,0.3105164,4.023,0,0,0,0.2999878,nan,2,6.155,1,0,0.3601685,0.3025818,0.2939453,0.2854004,0.01367188,0.01367188,0,1,3,0
476.712,0.001006,-0.03320312,-0.02539062,0.01757812,-1.015625,0.625,15.0625,-0.01953125,-0.001953125,0.01757812,0.01757812,0.03320312,0,-0.003051758,-0.005493164,0.03161621,0,0,-0.009033203,0.3105164,4.023,0,0,0,0.2999878,nan,2,6.165,1,0,0.3497314,0.3043213,0.2806091,0.3074341,0.01367188,0.01367188,0,1,3,0
476.722,0.001009,0.05859375,-0.09765625,0.01171875,-0.5390625,3.507812,10.6875,0.005859375,-0.01953125,0,0.01953125,0.03320312,0,-0.003051758,-0.005493164,0.03161621,0,0,-0.009033203,0.3105164,4.023,0,0,0,0.2999878,nan,2,6.175,1,0,0.3414917,0.3242493,0.2733459,0.303009,0.01367188,0.01367188,0,1,3,0
476.732,0.000978,0.04296875,-0.01367188,-0.00390625,1.484375,-0.765625,11.03906,0.03125,-0.01171875,0.005859375,0.01757812,0.03320312,0,-0.002929688,-0.005615234,0.03173828,0,0,-0.009033203,0.3105164,4.023,0,0,0,0.2999878,nan,2,6.184,1,0,0.3431702,0.3116455,0.2913513,0.295929,0.01367188,0.01464844,0,1,3,0
476.741,0.001012,0.1230469,-0.01757812,0.02539062,2.164062,-1.375,8.679688,0.015625,-0.00390625,0.009765625,0.01953125,0.03515625,0,-0.003173828,-0.005737305,0.03173828,0,0,-0.009033203,0.3105164,4.023,0,0,0,0.2999878,nan,2,6.194,1,0,0.3507385,0.3023682,0.3045044,0.2845154,0.01367188,0.01464844,0,1,3,0
476.752,0.001018,-0.009765625,0.005859375,0.015625,1.601562,-3.09375,2.671875,0.02148438,-0.0078125,0.0234375,0.015625,0.03515625,0,-0.002685547,-0.005981445,0.03198242,0,0,-0.009033203,0.3105164,4.023,0,0,0,0.2999878,nan,2,6.204,1,0,0.3475342,0.3040466,0.2853699,0.3051453,0.01367188,0.01464844,0,1,3,0
476.762,0.001012,0.03125,-0.04492188,-0.009765625,-1.023438,-2.882812,10.71094,0.02539062,-0.0078125,0.001953125,0.015625,0.03710938,0,-0.002563477,-0.006103516,0.03210449,0,0,-0.009033203,0.3105164,4.023,0,0,0,0.2999878,nan,2,6.215,1,0,0.315033,0.3399963,0.2575073,0.3295593,0.01367188,0.01464844,0,1,3,0
476.772,0.001012,-0.005859375,0.03125,0.009765625,-1.703125,3.757812,13.61719,0.005859375,0.009765625,0,0.01367188,0.03710938,0,-0.002319336,-0.006103516,0.03210449,0,0,-0.009033203,0.3105164,4.023,0,0,0,0.2999878,nan,2,6.225,1,0,0.3494873,0.298584,0.2887878,0.3052368,0.01367188,0.01464844,0,1,3,0
476.782,0.001012,0.0078125,-0.001953125,0.03710938,-1.804688,0.953125,11.28125,0.005859375,0,0.02539062,0.01367188,0.03710938,0,-0.002319336,-0.006103516,0.03222656,0,0,-0.009033203,0.3105164,4.023,0,0,0,0.2999878,nan,2,6.235,1,0,0.3732605,0.2824402,0.3097839,0.2766418,0.01367188,0.01464844,0,1,3,0
476.792,0.00101,-0.05859375,0.0390625,-0.02148438,0.6640625,4.0625,13.5,-0.02148438,0,-0.01171875,0.01367188,0.03710938,0,-0.002319336,-0.005981445,0.03234863,0,0,-0.009033203,0.3105164,4.023,0,0,0,0.2999878,nan,2,6.245,1,0,0.302948,0.3507996,0.2293701,0.3590088,0.01367188,0.01464844,0,1,3,0
476.802,0.00101,-0.03515625,-0.05273438,0.0078125,1.796875,0.0859375,11.73438,-0.009765625,-0.01171875,0.01367188,0.015625,0.03515625,0,-0.002563477,-0.005981445,0.03234863,0,0,-0.009033203,0.3105164,4.023,0,0,0,0.2999878,nan,2,6.255,1,0,0.3533325,0.3080139,0.2849121,0.2958374,0.01367188,0.01464844,0,1,3,0
476.811,0.001011,0.03515625,0.0234375,-0.015625,1.164062,-3.945312,6.34375,-0.001953125,0,0,0.015625,0.03710938,0,-0.002563477,-0.006103516,0.0324707,0,0,-0.009033203,0.3105164,4.023,0,0,0,0.2999878,nan,2,6.264,1,0,0.3259888,0.325592,0.2689209,0.3216248,0.01367188,0.01464844,0,1,3,0
476.822,0.00101,-0.01367188,0.01757812,0.02148438,0.828125,-2.648438,7.585938,0.001953125,0.00390625,0.01953125,0.015625,0.03710938,0,-0.002441406,-0.006103516,0.03259277,0,0,-0.009033203,0.3105164,4.023,0,0,0,0.2999878,nan,2,6.275,1,0,0.3610229,0.2910461,0.2969055,0.2931519,0.01367188,0.01464844,0,1,3,0
476.831,0.00101,-0.001953125,-0.03320312,0.005859375,-1.820312,-1.617188,10.77344,-0.009765625,-0.005859375,0.015625,0.015625,0.03710938,0,-0.002563477,-0.006103516,0.03271484,0,0,-0.009033203,0.3105164,4.018,0,0,0,0.2999878,nan,2,6.284,1,0,0.341217,0.3182373,0.2719727,0.3106689,0.01367188,0.01464844,0,1,3,0
476.841,0.00101,-0.01953125,-0.00390625,-0.03515625,-1.476562,6.289062,15.10938,0.02929688,-0.02539062,-0.02734375,0.01367188,0.03710938,0,-0.002319336,-0.006225586,0.03271484,0,0,-0.009033203,0.3105164,4.018,0,0,0,0.2999878,nan,2,6.294,1,0,0.290802,0.3703613,0.2250061,0.355957,0.01367188,0.01464844,0,1,3,0
476.852,0.00101,0.07617188,0.01757812,0.02148438,0.140625,1.757812,12.35938,0.02539062,-0.02148438,0.01367188,0.01171875,0.0390625,0,-0.001953125,-0.006469727,0.03259277,0,0,-0.009033203,0.3105164,4.018,0,0,0,0.2999878,nan,2,6.304,1,0,0.3793945,0.2757568,0.3206787,0.2662659,0.01367188,0.01464844,0,1,3,0
476.862,0.00101,0.0390625,-0.00390625,0.02929688,1.703125,-1.65625,7.398438,-0.001953125,-0.01171875,0.01757812,0.01171875,0.0390625,0,-0.001953125,-0.006591797,0.03271484,0,0,-0.009033203,0.3105164,4.018,0,0,0,0.2999878,nan,2,6.315,1,0,0.3590088,0.2972412,0.29245,0.2934265,0.01367188,0.01464844,0,1,3,0
476.872,0.00101,-0.05273438,0.0546875,0.03710938,1.929688,-2.65625,10.74219,0.015625,0.02929688,0.03710938,0.009765625,0.0390625,0,-0.001708984,-0.006591797,0.03308105,0,0,-0.009033203,0.3105164,4.018,0,0,0,0.2999878,nan,2,6.325,1,0,0.3662415,0.2717285,0.3183289,0.2857971,0.01367188,0.01464844,0,1,3,0
476.882,0.001008,0.005859375,0.02148438,-0.005859375,-1.804688,-0.703125,9.179688,-0.02148438,0.001953125,0.00390625,0.01171875,0.0390625,0,-0.001953125,-0.006591797,0.03320312,0,0,-0.009033203,0.3105164,4.018,0,0,0,0.2999878,nan,2,6.335,1,0,0.3214722,0.333252,0.2556152,0.3317566,0.01367188,0.01464844,0,1,3,0.06349207
476.892,0.001012,0.05859375,-0.0234375,0.00390625,-1.5,3.929688,13.19531,0.02539062,0.001953125,0.00390625,0.01171875,0.0390625,0,-0.002075195,-0.006591797,0.0333252,0,0,-0.009033203,0.3105164,4.018,0,0,0,0.2999878,nan,2,6.345,1,0,0.3297119,0.3269958,0.2799072,0.305481,0.01367188,0.01464844,0,1,3,0
476.902,0.00106,0.0234375,-0.04882812,0.03515625,-0.1171875,0.2109375,10.34375,0.00390625,-0.0078125,0.01953125,0.01367188,0.0390625,0,-0.002075195,-0.006591797,0.0333252,0,0,-0.009033203,0.3105164,4.018,0,0,0,0.2999878,nan,2,6.355,1,0,0.3739929,0.286438,0.3077393,0.2739258,0.01367188,0.01464844,0,1,3,0
476.912,0.00101,0.00390625,-0.04101562,-0.04882812,2.351562,0.171875,5.882812,0.001953125,-0.005859375,-0.015625,0.01171875,0.0390625,0,-0.002075195,-0.006469727,0.03344727,0,0,-0.009033203,0.3105164,4.018,0,0,0,0.2999878,nan,2,6.365,1,0,0.2893372,0.3712463,0.2218323,0.3596497,0.01367188,0.01464844,0,1,3,0
476.922,0.001056,-0.03320312,0.03125,-0.03515625,1.398438,-2.757812,9.21875,0,0.04296875,-0.02734375,0.01367188,0.03710938,0,-0.002197266,-0.006347656,0.03320312,0,0,-0.009033203,0.3105164,4.018,0,0,0,0.2999878,nan,2,6.375,1,0,0.3173218,0.32547,0.2679138,0.3313904,0.01367188,0.01464844,0,1,3,0.6825397
476.931,0.001008,0.01367188,0.015625,0.02929688,0.2109375,-1.148438,8.601562,-0.02148438,0.01367188,0.01171875,0.01367188,0.03710938,0,-0.002441406,-0.006103516,0.03308105,0,0,-0.009033203,0.3105164,4.018,0,0,0,0.2999878,nan,2,6.384,1,0,0.3889465,0.2679443,0.3225708,0.2626343,0.01367188,0.01464844,0,1,3,0
476.941,0.001008,0.09570312,0.0390625,0.08203125,-2.078125,2.976562,10.89062,0.04296875,0.01953125,0.04492188,0.01367188,0.03710938,0,-0.002319336,-0.006103516,0.0333252,0,0,-0.009033203,0.3105164,4.018,0,0,0,0.2999878,nan,2,6.394,1,0,0.385437,0.2622375,0.3464661,0.2479553,0.01367188,0.01464844,0,1,3,0
476.952,0.001006,-0.0234375,-0.03320312,0.05273438,-1.445312,-0.46875,9.257812,-0.0078125,0.00390625,0.0703125,0.01367188,0.03515625,0,-0.002319336,-0.005981445,0.03405762,0,0,-0.009033203,0.3105164,4.018,0,0,0,0.2999878,nan,2,6.404,1,0,0.3766785,0.2811279,0.3036499,0.2806396,0.01367188,0.01464844,0,1,3,0.0952381
476.962,0.001008,-0.03320312,0.01367188,-0.01953125,2.289062,1.1875,6.640625,-0.01953125,0.01757812,0.001953125,0.01367188,0.03515625,0,-0.002197266,-0.005981445,0.03442383,0,0,-0.009033203,0.3105164,4.018,0,0,0,0.2999878,nan,2,6.415,1,0,0.2834167,0.3658752,0.213562,0.3792725,0.01367188,0.01464844,0,1,3,0
476.972,0.001012,0.03515625,-0.078125,-0.03710938,0.2109375,-4.640625,9.078125,0.001953125,-0.01367188,-0.03515625,0.01367188,0.03515625,0,-0.002319336,-0.005981445,0.03430176,0,0,-0.009033203,0.3105164,4.018,0,0,0,0.2999878,nan,2,6.425,1,0,0.2921753,0.3721008,0.2237244,0.3540955,0.01367188,0.01464844,0,1,3,0.07936508
476.982,0.001008,-0.04492188,-0.0234375,-0.02929688,-1.484375,1.90625,11.44531,0.02539062,0.001953125,-0.0390625,0.01171875,0.03515625,0,-0.002075195,-0.005859375,0.03393555,0,0,-0.009033203,0.3105164,4.018,0,0,0,0.2999878,nan,2,6.435,1,0,0.3275757,0.3300781,0.2653503,0.3190918,0.01367188,0.01464844,0,1,3,0
476.992,0.00101,0.1367188,0.0390625,0.009765625,-2.273438,2.640625,12.13281,0.01367188,-0.001953125,-0.0234375,0.01367188,0.03515625,0,-0.002075195,-0.005981445,0.03356934,0,0,-0.009033203,0.3105164,4.018,0,0,0,0.2999878,nan,2,6.445,1,0,0.3517456,0.3016968,0.2982483,0.2904053,0.01367188,0.015625,0,1,3,0
477.002,0.001016,-0.08398438,0.01757812,-0.03320312,-1.320312,2.867188,11.83594,-0.05078125,0.03710938,-0.02929688,0.01171875,0.03515625,0,-0.002075195,-0.005859375,0.03320312,0,0,-0.009033203,0.3105164,4.018,0,0,0,0.2999878,nan,2,6.455,1,0,0.3509521,0.2921753,0.2739563,0.3250122,0.01367188,0.015625,0,1,3,0
477.011,0.001079,-0.01171875,-0.0078125,-0.00390625,1.773438,-0.3671875,8.148438,-0.01367188,0.01757812,-0.01367188,0.01367188,0.03320312,0,-0.002197266,-0.005615234,0.03295898,0,0,-0.009033203,0.3105164,4.018,0,0,0,0.2999878,nan,2,6.464,1,0,0.3630981,0.2927246,0.297699,0.2885742,0.01367188,0.015625,0,1,3,0
477.021,0.00101,0.03710938,-0.03320312,-0.03710938,2.0625,-2.3125,4.945312,0.00390625,0.001953125,-0.0234375,0.01367188,0.03320312,0,-0.002319336,-0.005493164,0.03283691,0,0,-0.009033203,0.3105164,4.018,0,0,0,0.2999878,nan,2,6.474,1,0,0.335022,0.3252869,0.2713013,0.3104858,0.01367188,0.015625,0,1,3,0
477.031,0.001007,-0.015625,-0.02148438,-0.05859375,2.34375,-2.515625,8.757812,0.01757812,-0.04101562,-0.0390625,0.01367188,0.03320312,0,-0.002197266,-0.005615234,0.0324707,0,0,-0.009033203,0.3105164,4.018,0,0,0,0.2999878,nan,2,6.484,1,0,0.3120728,0.3583679,0.2372742,0.3343811,0.01367188,0.015625,0,1,3,0.1746032
477.041,0.00101,-0.01171875,-0.02539062,-0.07617188,0.5859375,-2.78125,6.085938,0.005859375,-0.01171875,-0.07617188,0.01367188,0.03515625,0,-0.002075195,-0.005737305,0.03186035,0,0,-0.009033203,0.3105164,4.018,0,0,0,0.2999878,nan,2,6.494,1,0,0.2988586,0.3598938,0.2334595,0.349884,0.01367188,0.015625,0,1,3,0
477.052,0.00101,0.05273438,-0.1132812,-0.1152344,0.359375,-4.226562,7.179688,-0.009765625,0.005859375,-0.1308594,0.01367188,0.03320312,0,-0.002319336,-0.005615234,0.03076172,0,0,-0.009033203,0.3105164,4.018,0,0,0,0.2999878,nan,2,6.504,1,0,0.2669373,0.3936157,0.2037354,0.3778076,0.01367188,0.015625,0,1,3,0
477.062,0.00101,0.00390625,0.02734375,-0.0546875,-0.6640625,-2.859375,9.054688,0.04492188,0.009765625,-0.078125,0.01171875,0.03320312,0,-0.001953125,-0.005615234,0.02978516,0,0,-0.009033203,0.3105164,4.018,0,0,0,0.2999878,nan,2,6.514,1,0,0.3519897,0.2968445,0.3015137,0.2917786,0.01367188,0.015625,0,1,3,0
477.072,0.001013,0.078125,-0.001953125,-0.00390625,-0.0234375,0.03125,6.367188,0.009765625,0.015625,-0.046875,0.009765625,0.03320312,0,-0.001464844,-0.005615234,0.02905273,0,0,-0.009033203,0.3105164,4.018,0,0,0,0.2999878,nan,2,6.525,1,0,0.3789062,0.26828,0.3182678,0.2766418,0.01367188,0.015625,0,1,3,0
477.082,0.00101,-0.08007812,0.001953125,-0.0625,-1.90625,-2.632812,8.226562,-0.01757812,0.01367188,-0.0625,0.009765625,0.03320312,0,-0.001586914,-0.005615234,0.02856445,0,0,-0.009033203,0.3105164,4.018,0,0,0,0.2999878,nan,2,6.535,1,0,0.3093567,0.340332,0.2417908,0.350647,0.01367188,0.015625,0,1,3,0
477.092,0.001006,0.06054688,-0.02929688,-0.06445312,-1.875,4.335938,13.14844,0.0078125,-0.01757812,-0.0625,0.009765625,0.03515625,0,-0.001708984,-0.005737305,0.02783203,0,0,-0.009033203,0.3105164,4.018,0,0,0,0.2999878,nan,2,6.545,1,0,0.3258972,0.3360901,0.2628784,0.3172607,0.01367188,0.015625,0,1,3,0
477.102,0.000992,0.0234375,0.015625,-0.08007812,-2.40625,1.054688,12.52344,-0.02148438,0.009765625,-0.07421875,0.009765625,0.03515625,0,-0.001831055,-0.005737305,0.02722168,0,0,-0.009033203,0.3105164,4.018,0,0,0,0.2999878,nan,2,6.555,1,0,0.3087769,0.3424988,0.2426147,0.3482056,0.01367188,0.015625,0,1,3,0
477.112,0.001013,0.04296875,0,-0.046875,-1.382812,4.820312,12.55469,0,0.02148438,-0.06445312,0.01171875,0.03320312,0,-0.001953125,-0.005615234,0.02648926,0,0,-0.009033203,0.3105164,4.018,0,0,0,0.2999878,nan,2,6.565,1,0,0.3318787,0.3181763,0.2774353,0.3146362,0.01367188,0.015625,0,1,3,0
477.122,0.00101,-0.04492188,-0.001953125,-0.01367188,-1.28125,-0.21875,12.875,-0.0078125,-0.02148438,-0.0234375,0.01171875,0.03320312,0,-0.001831055,-0.005615234,0.02600098,0,0,-0.009033203,0.3105164,4.018,0,0,0,0.2999878,nan,2,6.575,1,0,0.3807678,0.2841797,0.3037109,0.2734375,0.01367188,0.015625,0,1,3,0
477.131,0.00101,-0.015625,-0.03515625,-0.0625,1.476562,1.984375,7.65625,0.01953125,-0.015625,-0.05078125,0.009765625,0.03515625,0,-0.001708984,-0.005737305,0.02575684,0,0,-0.009033203,0.3105164,4.018,0,0,0,0.2999878,nan,2,6.584,1,0,0.2984924,0.3635254,0.2336426,0.3464661,0.01367188,0.015625,0,1,3,0
477.142,0.001006,0.04882812,-0.03710938,0.00390625,2.28125,-2.835938,9.539062,0.03710938,-0.0078125,-0.02148438,0.009765625,0.03515625,0,-0.001586914,-0.005859375,0.02539062,0,0,-0.009033203,0.3105164,4.018,0,0,0,0.2999878,nan,2,6.594,1,0,0.3566589,0.3029785,0.3006287,0.2818298,0.01367188,0.015625,0,1,3,0.1269841
477.152,0.00101,-0.015625,-0.00390625,-0.046875,2.226562,0.53125,8.328125,0.005859375,-0.009765625,-0.03125,0.0078125,0.03515625,0,-0.001342773,-0.005981445,0.02514648,0,0,-0.009033203,0.3105164,4.018,0,0,0,0.2999878,nan,2,6.604,1,0,0.3173523,0.3415527,0.2476196,0.3356018,0.01367188,0.015625,0,1,3,0
477.162,0.00101,0.02539062,-0.05273438,-0.08398438,0.4609375,-6.15625,9.078125,0.001953125,-0.00390625,-0.06054688,0.009765625,0.03515625,0,-0.001464844,-0.005981445,0.0246582,0,0,-0.009033203,0.3105164,4.018,0,0,0,0.2999878,nan,2,6.614,1,0,0.2986755,0.3623962,0.2360229,0.3450317,0.01367188,0.015625,0,1,3,0
477.172,0.001013,-0.00390625,0.046875,-0.03710938,-0.5625,0.1015625,5.78125,-0.001953125,-0.001953125,-0.06835938,0.009765625,0.03710938,0,-0.001708984,-0.006103516,0.02392578,0,0,-0.009033203,0.3105164,4.018,0,0,0,0.2999878,nan,2,6.625,1,0,0.3294373,0.3246155,0.2693481,0.3186951,0.01464844,0.015625,0,1,3,0
477.182,0.00101,0.02929688,0.0859375,-0.1328125,-1.84375,-1.664062,13.19531,-0.0078125,0.02539062,-0.09375,0.009765625,0.03710938,0,-0.001708984,-0.006103516,0.02319336,0,0,-0.009033203,0.3105164,4.018,0,0,0,0.2999878,nan,2,6.635,1,0,0.2659912,0.3740845,0.2145386,0.3874817,0.01464844,0.015625,0,1,3,0
477.192,0.001016,0.0625,-0.02539062,-0.1152344,-0.8046875,1.695312,9.945312,-0.001953125,-0.01171875,-0.1074219,0.01171875,0.03710938,0,-0.001831055,-0.006103516,0.02209473,0,0,-0.009033203,0.3105164,4.018,0,0,0,0.2999878,nan,2,6.645,1,0,0.3034973,0.3575745,0.2403564,0.3406677,0.01464844,0.015625,0,1,3,0.3492064
477.202,0.001002,-0.03125,-0.06640625,-0.07421875,-1.28125,-1.90625,7.460938,-0.015625,-0.005859375,-0.08007812,0.009765625,0.03710938,0,-0.001708984,-0.006347656,0.02124023,0,0,-0.009033203,0.3105164,4.018,0,0,0,0.2999878,nan,2,6.655,1,0,0.3378601,0.3192749,0.2620544,0.322937,0.01464844,0.015625,0,1,3,0
477.212,0.001009,-0.05273438,-0.01757812,-0.08007812,-0.3203125,-0.828125,8.53125,-0.001953125,-0.04492188,-0.078125,0.009765625,0.04101562,0,-0.001586914,-0.006713867,0.02050781,0,0,-0.009033203,0.3105164,4.018,0,0,0,0.2999878,nan,2,6.665,1,0,0.3288574,0.337616,0.2485657,0.3270569,0.01464844,0.015625,0,1,3,0
477.221,0.00101,-0.08007812,0.02734375,-0.02148438,-2.59375,2.734375,13.09375,-0.04492188,0.01171875,-0.04492188,0.01171875,0.04101562,0,-0.001831055,-0.006835938,0.01989746,0,0,-0.009033203,0.3105164,4.018,0,0,0,0.2999878,nan,2,6.674,1,0,0.3695984,0.2792053,0.2979431,0.2953491,0.01464844,0.015625,0,1,3,0
477.231,0.001005,0.08203125,-0.02539062,-0.0625,-2.1875,2.367188,10.48438,0.009765625,-0.00390625,-0.0546875,0.01171875,0.04101562,0,-0.002075195,-0.006713867,0.01928711,0,0,-0.009033203,0.3105164,4.018,0,0,0,0.2999878,nan,2,6.684,1,0,0.3291321,0.3340454,0.2721558,0.3067627,0.01464844,0.015625,0,1,3,0
477.241,0.001008,-0.0078125,0.1015625,-0.078125,-2.109375,2.90625,10.46875,-0.01953125,0.04492188,-0.07226562,0.01367188,0.04101562,0,-0.002197266,-0.006713867,0.01867676,0,0,-0.009033203,0.3105164,4.018,0,0,0,0.2999878,nan,2,6.694,1,0,0.3054199,0.3302002,0.2568665,0.3495789,0.01464844,0.01660156,0,1,3,0
477.252,0.001014,-0.0078125,-0.0390625,-0.03515625,-2.015625,3.226562,14.75781,0.0078125,-0.01367188,-0.04492188,0.01171875,0.0390625,0,-0.001953125,-0.006713867,0.01806641,0,0,-0.009033203,0.3105164,4.018,0,0,0,0.2999878,nan,2,6.704,1,0,0.359436,0.3045654,0.2863159,0.2918091,0.01464844,0.01660156,0,1,3,0
477.262,0.001008,0.01171875,-0.08789062,-0.03515625,-1.351562,4.867188,17.41406,-0.001953125,-0.03125,-0.02734375,0.01171875,0.04101562,0,-0.002075195,-0.006835938,0.0177002,0,0,-0.009033203,0.3105164,4.018,0,0,0,0.2999878,nan,2,6.714,1,0,0.3485413,0.3204346,0.2701111,0.3030396,0.01464844,0.01660156,0,1,3,0
477.272,0.001008,0.04882812,-0.01171875,0.07421875,-0.0546875,2.992188,10.07031,0.01367188,-0.001953125,0.01757812,0.01171875,0.04296875,0,-0.001953125,-0.006958008,0.01745605,0,0,-0.009033203,0.3105164,4.018,0,0,0,0.2999878,nan,2,6.725,1,0,0.4181519,0.236908,0.3599243,0.2271118,0.01464844,0.01660156,0,1,3,0
477.282,0.001005,0.02929688,0.03320312,0.001953125,1.703125,-1.15625,10.30469,0.02734375,-0.0234375,0.0234375,0.01171875,0.04296875,0,-0.001831055,-0.007202148,0.0177002,0,0,-0.009033203,0.3105164,4.018,0,0,0,0.2999878,nan,2,6.735,1,0,0.3573608,0.3023682,0.2937012,0.2886658,0.01464844,0.01660156,0,1,3,0
477.292,0.001011,-0.06054688,0.01953125,0.01171875,1.453125,-0.515625,8.976562,-0.04101562,0.009765625,0.009765625,0.01171875,0.04296875,0,-0.001953125,-0.007202148,0.01782227,0,0,-0.009033203,0.3105164,4.018,0,0,0,0.2999878,nan,2,6.745,1,0,0.3435974,0.3108826,0.2632751,0.3243408,0.01464844,0.01660156,0,1,3,0
477.302,0.00101,-0.02929688,0.04296875,-0.02539062,-1.226562,-4.71875,10.50781,-0.01171875,0.01367188,-0.015625,0.01171875,0.04296875,0,-0.002075195,-0.007080078,0.01782227,0,0,-0.009033203,0.3105164,4.018,0,0,0,0.2999878,nan,2,6.755,1,0,0.3132324,0.3404541,0.2483826,0.3400269,0.01464844,0.01660156,0,1,3,0
477.312,0.001013,0.009765625,-0.04296875,0.01757812,-1.953125,5.898438,12.14062,-0.0078125,-0.005859375,-0.005859375,0.01171875,0.04296875,0,-0.002075195,-0.007080078,0.0177002,0,0,-0.009033203,0.3105164,4.018,0,0,0,0.2999878,nan,2,6.765,1,0,0.3639526,0.3013611,0.2857361,0.2910767,0.01464844,0.01660156,0,1,3,0
477.322,0.001009,-0.00390625,-0.01367188,-0.0078125,-0.734375,1.414062,11.98438,0.01367188,-0.0078125,-0.0078125,0.01171875,0.04296875,0,-0.001953125,-0.007080078,0.0177002,0,0,-0.009033203,0.3105164,4.018,0,0,0,0.2999878,nan,2,6.775,1,0,0.3425293,0.3182678,0.2735291,0.3078003,0.01464844,0.01660156,0,1,3,0
477.331,0.001012,0.02539062,-0.046875,-0.04296875,1.375,2.03125,11.6875,0.01757812,-0.02539062,-0.02539062,0.01171875,0.04296875,0,-0.001831055,-0.007324219,0.01757812,0,0,-0.009033203,0.3105164,4.018,0,0,0,0.2999878,nan,2,6.784,1,0,0.3205566,0.346283,0.250061,0.3251953,0.01464844,0.01660156,0,1,3,0
477.341,0.001012,0.0234375,-0.05859375,-0.05859375,1.71875,-2.570312,11.78906,0.01953125,-0.01953125,-0.03710938,0.01171875,0.04492188,0,-0.001831055,-0.007324219,0.01708984,0,0,-0.009033203,0.3105164,4.018,0,0,0,0.2999878,nan,2,6.794,1,0,0.3231506,0.3423157,0.2563171,0.320282,0.01464844,0.01660156,0,1,3,0
477.352,0.001012,-0.07617188,-0.009765625,-0.0703125,2.015625,-3.453125,6.554688,-0.001953125,-0.00390625,-0.06640625,0.009765625,0.04492188,0,-0.001708984,-0.007446289,0.01660156,0,0,-0.009033203,0.3105164,4.018,0,0,0,0.2999878,nan,2,6.804,1,0,0.3036194,0.355835,0.2294006,0.353241,0.01464844,0.01660156,0,1,3,0
477.362,0.001012,-0.046875,-0.015625,-0.03710938,1.328125,-2.9375,5.5625,-0.046875,-0.01953125,-0.0390625,0.01171875,0.04492188,0,-0.002075195,-0.00769043,0.01599121,0,0,-0.009033203,0.3105164,4.018,0,0,0,0.2999878,nan,2,6.814,1,0,0.371521,0.2928162,0.2861938,0.2915955,0.01464844,0.01660156,0,1,3,0
477.372,0.001012,0.02734375,-0.03515625,-0.03320312,-0.59375,-3.914062,13.28906,0.001953125,-0.0078125,-0.02734375,0.01367188,0.04492188,0,-0.002319336,-0.007568359,0.015625,0,0,-0.009033203,0.3105164,4.018,0,0,0,0.2999878,nan,2,6.825,1,0,0.3516846,0.3120422,0.2901001,0.2882996,0.01464844,0.01660156,0,1,3,0
477.382,0.001012,0.1191406,0.001953125,-0.03515625,-1.5,3.75,12.16406,0.03515625,-0.001953125,-0.02539062,0.01367188,0.04492188,0,-0.002197266,-0.007568359,0.01538086,0,0,-0.009033203,0.3105164,4.018,0,0,0,0.2999878,nan,2,6.835,1,0,0.323822,0.3395386,0.2664185,0.3123169,0.01464844,0.01660156,0,1,3,0
477.392,0.001017,0.015625,0.0234375,-0.0390625,-2.328125,2.046875,10.65625,0.01757812,0.01367188,-0.03515625,0.01171875,0.04492188,0,-0.001953125,-0.007568359,0.01513672,0,0,-0.009033203,0.3105164,4.018,0,0,0,0.2999878,nan,2,6.845,1,0,0.3272095,0.326355,0.2677307,0.3208313,0.01464844,0.01660156,0,1,3,0
477.402,0.00102,0.09960938,-0.005859375,-0.001953125,-0.609375,5.617188,13.78906,0.046875,-0.01171875,-0.02148438,0.01171875,0.04492188,0,-0.002075195,-0.007568359,0.01477051,0,0,-0.009033203,0.3105164,4.018,0,0,0,0.2999878,nan,2,6.855,1,0,0.3495789,0.3150024,0.3002014,0.2773438,0.01464844,0.01660156,0,1,3,0
477.412,0.001005,0.001953125,-0.046875,-0.00390625,-0.171875,-0.5625,12.5625,-0.0078125,-0.00390625,-0.01757812,0.01171875,0.04492188,0,-0.001831055,-0.007568359,0.01452637,0,0,-0.009033203,0.3105164,4.018,0,0,0,0.2999878,nan,2,6.865,1,0,0.3605957,0.3048096,0.2771912,0.2994995,0.01464844,0.01660156,0,1,3,0
477.421,0.001073,-0.005859375,0.005859375,0.0078125,1.59375,0.4609375,4.734375,0.0078125,0.0078125,0.01171875,0.009765625,0.04492188,0,-0.001708984,-0.007568359,0.01452637,0,0,-0.009033203,0.3105164,4.018,0,0,0,0.2999878,nan,2,6.874,1,0,0.3662109,0.2902222,0.2989502,0.2867126,0.01464844,0.01660156,0,1,3,0
477.431,0.00101,0.04101562,0.01953125,0.005859375,1.5,-6.703125,9.226562,0.001953125,0.005859375,0.015625,0.009765625,0.04492188,0,-0.001708984,-0.007446289,0.01464844,0,0,-0.009033203,0.3105164,4.018,0,0,0,0.2999878,nan,2,6.884,1,0,0.3588867,0.3024597,0.2901611,0.2905884,0.01464844,0.01660156,0,1,3,0
477.441,0.00101,-0.06054688,0.02929688,0.0546875,0.15625,1.578125,12.14062,0.009765625,0.03710938,0.05078125,0.0078125,0.04296875,0,-0.001342773,-0.007202148,0.01501465,0,0,-0.009033203,0.3105164,4.018,0,0,0,0.2999878,nan,2,6.894,1,0,0.3894348,0.2615356,0.3222046,0.2689209,0.01464844,0.01660156,0,1,3,0
477.452,0.00101,0.04882812,-0.001953125,0.09960938,-1.046875,3.695312,13.1875,0.01757812,-0.00390625,0.06640625,0.0078125,0.04296875,0,-0.001342773,-0.007080078,0.015625,0,0,-0.009033203,0.3105164,4.018,0,0,0,0.2999878,nan,2,6.904,1,0,0.3882446,0.2778015,0.3226318,0.2533875,0.01464844,0.01660156,0,1,3,0
477.462,0.00101,-0.08007812,-0.01953125,0.06835938,1.414062,-2.539062,10.6875,0.005859375,0,0.06640625,0.0078125,0.04296875,0,-0.001220703,-0.007080078,0.01623535,0,0,-0.009033203,0.3105164,4.018,0,0,0,0.2999878,nan,2,6.914,1,0,0.3864441,0.2756653,0.3110657,0.2689514,0.01464844,0.01757812,0,1,3,0
477.472,0.00101,0.005859375,0.05273438,0.015625,1.023438,-0.859375,5.820312,-0.02539062,0.01953125,0.03515625,0.0078125,0.04296875,0,-0.001342773,-0.007080078,0.01660156,0,0,-0.009033203,0.3105164,4.018,0,0,0,0.2999878,nan,2,6.925,1,0,0.3312378,0.318512,0.2613831,0.3309937,0.01464844,0.01757812,0,1,3,0
477.482,0.00101,0.001953125,-0.009765625,0.04101562,-1.523438,-1.25,10.89062,-0.001953125,-0.00390625,0.04296875,0.0078125,0.04296875,0,-0.001342773,-0.007080078,0.01708984,0,0,-0.009033203,0.3105164,4.02,0,0,0,0.2999878,nan,2,6.935,1,0,0.3606873,0.3024597,0.2871399,0.2918396,0.01464844,0.01757812,0,1,3,0
477.492,0.00101,0.00390625,-0.001953125,0.009765625,-0.5234375,5.4375,15.96875,-0.0078125,-0.0078125,0.02539062,0.0078125,0.04296875,0,-0.001342773,-0.007202148,0.01745605,0,0,-0.009033203,0.3105164,4.02,0,0,0,0.2999878,nan,2,6.945,1,0,0.3330078,0.3296204,0.2570801,0.3223877,0.01464844,0.01757812,0,1,3,0
477.502,0.001017,-0.07617188,0.04296875,0.03515625,1.742188,-2.109375,5.523438,-0.03125,0.0234375,0.03515625,0.009765625,0.04296875,0,-0.001464844,-0.007080078,0.0177002,0,0,-0.009033203,0.3105164,4.02,0,0,0,0.2999878,nan,2,6.955,1,0,0.364563,0.2855835,0.2945557,0.2974243,0.01464844,0.01757812,0,1,3,0
477.512,0.001005,-0.04296875,0.04101562,0.08398438,2.5,-2.632812,9.757812,-0.02148438,0,0.07617188,0.0078125,0.04296875,0,-0.001464844,-0.007080078,0.01831055,0,0,-0.009033203,0.3105164,4.02,0,0,0,0.2999878,nan,2,6.965,1,0,0.406311,0.2532043,0.3283997,0.2541504,0.01464844,0.01757812,0,1,3,0
477.522,0.001009,0.03320312,-0.04296875,0.04492188,-1.328125,-2.054688,10.13281,0.005859375,-0.01953125,0.05078125,0.009765625,0.04296875,0,-0.001464844,-0.007202148,0.0189209,0,0,-0.009033203,0.3105164,4.02,0,0,0,0.2999878,nan,2,6.975,1,0,0.3435974,0.3251343,0.2692566,0.3041382,0.01464844,0.01757812,0,1,3,0
477.531,0.000997,-0.015625,0.02929688,0.001953125,-1.765625,3.695312,13.96094,-0.001953125,0.01171875,0.01953125,0.0078125,0.04296875,0,-0.001464844,-0.007324219,0.01928711,0,0,-0.009033203,0.3105164,4.02,0,0,0,0.2999878,nan,2,6.984,1,0,0.3194275,0.3319397,0.2554626,0.3352661,0.01464844,0.01757812,0,1,3,0
477.542,0.00101,0.03710938,-0.005859375,0.06054688,-1.3125,2.804688,11.13281,0.005859375,0,0.0234375,0.009765625,0.04296875,0,-0.001464844,-0.007202148,0.01940918,0,0,-0.009033203,0.3105164,4.02,0,0,0,0.2999878,nan,2,6.994,1,0,0.3713989,0.2923584,0.3034973,0.2748413,0.01464844,0.01757812,0,1,3,0
477.552,0.00101,0.02539062,0.015625,-0.02929688,1.25,1.835938,10.05469,0.0078125,0.001953125,0.00390625,0.0078125,0.04296875,0,-0.001464844,-0.007202148,0.01965332,0,0,-0.009033203,0.3105164,4.02,0,0,0,0.2999878,nan,2,7.004,1,0,0.3088074,0.3503113,0.2424622,0.3405151,0.01464844,0.01757812,0,1,3,0
477.562,0.000967,-0.01757812,0.00390625,0.001953125,1.414062,-4.546875,8.984375,0.02539062,-0.005859375,-0.00390625,0.0078125,0.04296875,0,-0.001220703,-0.007324219,0.01953125,0,0,-0.009033203,0.3105164,4.02,0,0,0,0.2999878,nan,2,7.014,1,0,0.3391418,0.3218079,0.2736206,0.3075256,0.01464844,0.01757812,0,1,3,0.0952381
477.572,0.00101,0.046875,-0.06445312,0.03710938,1.664062,-2.195312,6.179688,0.001953125,-0.01367188,0.015625,0.0078125,0.04296875,0,-0.001342773,-0.007324219,0.01953125,0,0,-0.009033203,0.3105164,4.02,0,0,0,0.2999878,nan,2,7.025,1,0,0.3789368,0.2900696,0.3032837,0.2698059,0.01464844,0.01757812,0,1,3,0
477.582,0.00101,-0.02148438,0.01171875,0.03125,-0.2578125,-5.25,8.945312,0.01367188,-0.001953125,0.0234375,0.0078125,0.04492188,0,-0.001220703,-0.007446289,0.01989746,0,0,-0.009033203,0.3105164,4.02,0,0,0,0.2999878,nan,2,7.035,1,0,0.3523254,0.3066711,0.286438,0.2966614,0.01464844,0.01757812,0,1,3,0
477.592,0.00101,-0.00390625,-0.05078125,0.06835938,-1.632812,4.84375,13.10938,-0.01367188,-0.009765625,0.0546875,0.005859375,0.04492188,0,-0.001098633,-0.007446289,0.02026367,0,0,-0.009033203,0.3105164,4.02,0,0,0,0.2999878,nan,2,7.045,1,0,0.3950195,0.2722473,0.30896,0.2658691,0.01464844,0.01757812,0,1,3,0
477.602,0.001008,-0.03515625,0.009765625,0.01953125,-1.804688,2.320312,12.71875,0.00390625,0.009765625,0.0234375,0.005859375,0.04492188,0,-0.0009765625,-0.007446289,0.02075195,0,0,-0.009033203,0.3105164,4.02,0,0,0,0.2999878,nan,2,7.055,1,0,0.3247375,0.3311462,0.255127,0.3310852,0.01464844,0.01757812,0,1,3,0
477.612,0.001007,-0.02929688,0.01367188,0.001953125,0.6484375,0.609375,8.390625,-0.01171875,-0.01171875,0.01367188,0.005859375,0.04492188,0,-0.001098633,-0.00769043,0.02087402,0,0,-0.009033203,0.3105164,4.02,0,0,0,0.2999878,nan,2,7.065,1,0,0.3374023,0.3243713,0.2633057,0.3170166,0.01464844,0.01757812,0,1,3,0
477.622,0.001004,-0.01953125,-0.03710938,0.05664062,2.4375,-1.734375,9.523438,-0.005859375,-0.001953125,0.04296875,0.005859375,0.04492188,0,-0.001098633,-0.007568359,0.02124023,0,0,-0.009033203,0.3105164,4.02,0,0,0,0.2999878,nan,2,7.075,1,0,0.3876038,0.2781982,0.3091125,0.2672119,0.01464844,0.01757812,0,1,3,0.3492064
477.632,0.00101,0.0703125,-0.0234375,-0.005859375,1.765625,-2.835938,5.640625,0.0078125,-0.0078125,0,0.0078125,0.04492188,0,-0.001220703,-0.007568359,0.0213623,0,0,-0.009033203,0.3105164,4.02,0,0,0,0.2999878,nan,2,7.085,1,0,0.3109131,0.3554688,0.2422485,0.3334656,0.01464844,0.01757812,0,1,3,0
477.641,0.00101,0.00390625,-0.009765625,-0.0390625,-0.0546875,-0.7890625,9.875,0.015625,-0.009765625,-0.015625,0.005859375,0.04492188,0,-0.001098633,-0.007568359,0.0213623,0,0,-0.009033203,0.3105164,4.02,0,0,0,0.2999878,nan,2,7.094,1,0,0.317749,0.3504028,0.2434387,0.3304749,0.01464844,0.01757812,0,1,3,0.04761905
477.651,0.00101,0.06640625,-0.005859375,0.02929688,-2.148438,-0.15625,10.38281,0.01757812,-0.005859375,0.01757812,0.005859375,0.046875,0,-0.0009765625,-0.00769043,0.0213623,0,0,-0.009033203,0.3105164,4.02,0,0,0,0.2999878,nan,2,7.104,1,0,0.3778381,0.2854309,0.3129883,0.2658386,0.01464844,0.01757812,0,1,3,0
477.662,0.00101,0.005859375,-0.00390625,0.02929688,-1.234375,5.375,12.16406,0.0234375,-0.01171875,0.02929688,0.005859375,0.046875,0,-0.0008544922,-0.00769043,0.02160645,0,0,-0.009033203,0.3105164,4.02,0,0,0,0.2999878,nan,2,7.114,1,0,0.3649597,0.3009033,0.2980652,0.2781982,0.01464844,0.01757812,0,1,3,0
477.672,0.00101,0,-0.001953125,0.03515625,0.421875,-1.335938,12.35156,0.01757812,-0.015625,0.03710938,0.00390625,0.046875,0,-0.0007324219,-0.0078125,0.02197266,0,0,-0.009033203,0.3105164,4.02,0,0,0,0.2999878,nan,2,7.125,1,0,0.3609009,0.303772,0.2928162,0.2846375,0.01464844,0.01855469,0,1,3,0
477.682,0.00101,-0.03515625,-0.01367188,0.01367188,1.671875,-0.78125,7.132812,-0.0078125,-0.0078125,0.02929688,0.00390625,0.046875,0,-0.0006103516,-0.0078125,0.02233887,0,0,-0.009033203,0.3105164,4.02,0,0,0,0.2999878,nan,2,7.135,1,0,0.3498535,0.3151855,0.2657776,0.3112793,0.01464844,0.01855469,0,1,3,0
477.692,0.00101,-0.04882812,0.00390625,0.04296875,0.6796875,-3.484375,8.992188,-0.01757812,0.001953125,0.04296875,0.00390625,0.046875,0,-0.0007324219,-0.0078125,0.02258301,0,0,-0.009033203,0.3105164,4.02,0,0,0,0.2999878,nan,2,7.145,1,0,0.3768005,0.2865295,0.2987366,0.2800293,0.01464844,0.01855469,0,1,3,0.3968254
477.702,0.001008,0.00390625,0.01171875,0.0390625,-1.289062,1.90625,8.757812,-0.005859375,0.00390625,0.046875,0.005859375,0.046875,0,-0.0008544922,-0.0078125,0.02307129,0,0,-0.009033203,0.3105164,4.02,0,0,0,0.2999878,nan,2,7.155,1,0,0.3574524,0.3025208,0.2877197,0.2944031,0.01464844,0.01855469,0,1,3,0
477.712,0.001029,0.07617188,-0.01953125,0.0390625,-1.78125,2.515625,12.76562,0.01171875,-0.009765625,0.02539062,0.005859375,0.046875,0,-0.0008544922,-0.00793457,0.0234375,0,0,-0.009033203,0.3105164,4.02,0,0,0,0.2999878,nan,2,7.165,1,0,0.3373108,0.3285522,0.2719727,0.3042603,0.01464844,0.01855469,0,1,3,0
477.722,0.000983,0.00390625,0.015625,0.046875,0.296875,0.2265625,8.46875,0.0078125,0.03125,0.04296875,0.00390625,0.046875,0,-0.0007324219,-0.0078125,0.02380371,0,0,-0.009033203,0.3105164,4.02,0,0,0,0.2999878,nan,2,7.175,1,0,0.36203,0.2913818,0.3005981,0.2881165,0.01464844,0.01855469,0,1,3,0
477.732,0.001011,-0.01757812,0.07226562,0.07226562,1.765625,-1.078125,9.984375,0,0.01757812,0.06640625,0.00390625,0.046875,0,-0.0008544922,-0.0078125,0.02441406,0,0,0.02441406,0.3105164,4.02,0,0,0,0.2999878,nan,2,7.185,0,0,0,0,0,0,0,0,0,1,2,1
477.742,0.00101,-0.01367188,-0.01953125,0.03515625,1.1875,2.023438,10.85938,-0.001953125,0,0.0625,0.00390625,0.046875,0,-0.0008544922,-0.007568359,0.02514648,0,0,0.02514648,0.3105164,4.02,0,0,0,0.2999878,nan,2,7.195,0,0,0,0,0,0,0,0,0,1,2,0
477.751,0.00101,-0.009765625,-0.02539062,0.00390625,-1.390625,17.40625,18.67969,-0.02929688,-0.005859375,0.02929688,0.00390625,0.046875,0,-0.0009765625,-0.007568359,0.0255127,0,0,0.0255127,0.3105164,4.02,0,0,0,0.2999878,nan,2,7.204,0,0,0,0,0,0,0,0,0,1,2,0
477.761,0.00101,-0.009765625,0.01953125,0.04492188,1.59375,8.273438,13.27344,0.00390625,-0.0078125,0.03320312,0.00390625,0.046875,0,-0.0009765625,-0.00793457,0.02575684,0,0,0.02575684,0.3105164,4.02,0,0,0,0.2999878,nan,2,7.214,0,0,0,0,0,0,0,0,0,1,2,0
477.772,0.001018,-0.01171875,0.001953125,0.05859375,-0.640625,-3.078125,-0.578125,0.0078125,0.015625,0.05078125,0.00390625,0.046875,0,-0.0008544922,-0.0078125,0.02624512,0,0,0.02624512,0.3105164,4.02,0,0,0,0.2999878,nan,2,7.225,0,0,0,0,0,0,0,0,0,1,2,0
477.782,0.00101,-0.03125,0,0.08398438,3.867188,-2.398438,12.82031,-0.0234375,0.04101562,0.0625,0.00390625,0.046875,0,-0.001098633,-0.007568359,0.02685547,0,0,0.02685547,0.3105164,4.02,0,0,0,0.2999878,nan,2,7.235,0,0,0,0,0,0,0,0,0,1,2,0
477.792,0.00101,0.00390625,0.015625,0.1191406,1.53125,-1.5625,11.77344,-0.009765625,0.001953125,0.09960938,0.00390625,0.046875,0,-0.001220703,-0.007446289,0.02770996,0,0,0.02770996,0.3105164,4.02,0,0,0,0.2999878,nan,2,7.245,0,0,0,0,0,0,0,0,0,1,2,0
477.802,0.00101,-0.05078125,0.015625,0.06640625,-0.0234375,4.046875,6.507812,-0.04101562,0.00390625,0.08398438,0.00390625,0.046875,0,-0.001464844,-0.007446289,0.02868652,0,0,0.02868652,0.3105164,4.02,0,0,0,0.2999878,nan,2,7.255,0,0,0,0,0,0,0,0,0,1,2,0
477.812,0.001011,-0.0234375,0.06054688,0.03125,1.851562,-6.570312,9.140625,-0.0390625,0.03320312,0.04296875,0.00390625,0.046875,0,-0.001708984,-0.007202148,0.0291748,0,0,0.0291748,0.3105164,4.02,0,0,0,0.2999878,nan,2,7.265,0,0,0,0,0,0,0,0,0,1,2,0
477.822,0.00101,-0.0234375,0.001953125,-0.0859375,-1.953125,-0.53125,3.585938,-0.01757812,0.009765625,-0.04492188,0.00390625,0.046875,0,-0.002075195,-0.006958008,0.0291748,0,0,0.0291748,0.3105164,4.02,0,0,0,0.2999878,nan,2,7.275,0,0,0,0,0,0,0,0,0,1,2,0
477.832,0.001033,-0.04296875,0.05078125,-0.1503906,1.757812,4.859375,8.539062,-0.009765625,0.01171875,-0.1171875,0.00390625,0.046875,0,-0.002075195,-0.006958008,0.02832031,0,0,0.02832031,0.3105164,4.02,0,0,0,0.2999878,nan,2,7.285,0,0,0,0,0,0,0,0,0,1,2,1
477.842,0.00101,0.005859375,0.0234375,-0.1464844,1.476562,-4.65625,10.34375,0,0.0078125,-0.1542969,0.00390625,0.046875,0,-0.002075195,-0.006958008,0.02685547,0,0,0.02685547,0.3105164,4.02,0,0,0,0.2999878,nan,2,7.295,0,0,0,0,0,0,0,0,0,1,2,0
477.851,0.00101,-0.04101562,0.04882812,-0.1503906,-0.296875,-3.203125,10.05469,-0.015625,0.01953125,-0.1542969,0.00390625,0.046875,0,-0.002075195,-0.006835938,0.0255127,0,0,0.0255127,0.3105164,4.02,0,0,0,0.2999878,nan,2,7.304,0,0,0,0,0,0,0,0,0,1,2,1
477.861,0.00101,-0.01953125,-0.03125,-0.1445312,2.140625,-0.0546875,5.609375,-0.01171875,-0.00390625,-0.1503906,0.00390625,0.046875,0,-0.002197266,-0.006713867,0.02392578,0,0,0.02392578,0.3105164,4.02,0,0,0,0.2999878,nan,2,7.314,0,0,0,0,0,0,0,0,0,1,2,0
477.872,0.00101,-0.01171875,-0.03320312,-0.1191406,-0.9140625,-3.328125,12.73438,0.001953125,-0.01367188,-0.1328125,0.00390625,0.046875,0,-0.002197266,-0.006835938,0.02246094,0,0,0.02246094,0.3105164,4.02,0,0,0,0.2999878,nan,2,7.325,0,0,0,0,0,0,0,0,0,1,2,0
477.882,0.001002,0.01171875,-0.02734375,-0.09570312,0.1640625,-1.976562,14.24219,0.015625,-0.015625,-0.1113281,0.00390625,0.046875,0,-0.002197266,-0.006958008,0.02124023,0,0,0.02124023,0.3105164,4.02,0,0,0,0.2999878,nan,2,7.335,0,0,0,0,0,0,0,0,0,1,2,0
477.892,0.001002,-0.03320312,0.02148438,-0.078125,-0.8515625,-5.296875,6.710938,-0.01171875,-0.0078125,-0.08398438,0.00390625,0.046875,0,-0.002197266,-0.006958008,0.02026367,0,0,0.02026367,0.3105164,4.02,0,0,0,0.2999878,nan,2,7.345,0,0,0,0,0,0,0,0,0,1,2,0
477.902,0.001016,-0.02148438,0.03710938,-0.0859375,-0.4921875,-0.625,8.46875,-0.005859375,0.02734375,-0.0859375,0.00390625,0.046875,0,-0.002197266,-0.006835938,0.01940918,0,0,0.01940918,0.3105164,4.02,0,0,0,0.2999878,nan,2,7.355,0,0,0,0,0,0,0,0,0,1,2,0
477.912,0.001024,-0.0078125,-0.02734375,-0.0625,0.34375,0.171875,12.35938,-0.009765625,-0.005859375,-0.07617188,0.00390625,0.046875,0,-0.002319336,-0.006713867,0.01855469,0,0,0.01855469,0.3105164,4.02,0,0,0,0.2999878,nan,2,7.365,0,0,0,0,0,0,0,0,0,1,2,0
477.922,0.001011,0.04296875,-0.01367188,-0.06445312,-0.625,1.40625,8.789062,0.015625,-0.001953125,-0.06445312,0.00390625,0.046875,0,-0.002197266,-0.006835938,0.01794434,0,0,0.01794434,0.3105164,4.02,0,0,0,0.2999878,nan,2,7.375,0,0,0,0,0,0,0,0,0,1,2,1
477.932,0.001002,0.015625,0.03125,-0.09960938,-0.2578125,1.203125,10.02344,0.005859375,0.00390625,-0.08203125,0.00390625,0.046875,0,-0.001953125,-0.006835938,0.01721191,0,0,0.01721191,0.3105164,4.02,0,0,0,0.2999878,nan,2,7.385,0,0,0,0,0,0,0,0,0,1,2,1
477.942,0.00101,0.015625,-0.04492188,-0.09765625,0.265625,0.953125,9.65625,0.009765625,0.001953125,-0.09765625,0.00390625,0.046875,0,-0.001831055,-0.006835938,0.01623535,0,0,0.01623535,0.3105164,4.02,0,0,0,0.2999878,nan,2,7.395,0,0,0,0,0,0,0,0,0,1,2,1
477.951,0.001018,0.00390625,0.06640625,-0.0625,-0.125,0.15625,11.30469,-0.009765625,0.02148438,-0.07421875,0.00390625,0.046875,0,-0.001831055,-0.006835938,0.01550293,0,0,0.01550293,0.3105164,4.02,0,0,0,0.2999878,nan,2,7.404,0,0,0,0,0,0,0,0,0,1,2,0
477.961,0.00101,0.015625,0.015625,-0.08203125,0.375,-0.34375,9.460938,-0.00390625,0,-0.08398438,0.00390625,0.046875,0,-0.001831055,-0.006713867,0.01464844,0,0,0.01464844,0.3105164,4.02,0,0,0,0.2999878,nan,2,7.414,0,0,0,0,0,0,0,0,0,1,2,1
477.971,0.00101,-0.02539062,0.01757812,-0.07421875,0.2109375,0.9140625,8.007812,-0.0078125,0.00390625,-0.08398438,0.00390625,0.046875,0,-0.001953125,-0.006591797,0.01379395,0,0,0.01379395,0.3105164,4.02,0,0,0,0.2999878,nan,2,7.424,0,0,0,0,0,0,0,0,0,1,2,0
477.982,0.00101,-0.001953125,0.01367188,-0.02148438,-0.0234375,-0.15625,11.4375,0.001953125,0.009765625,-0.0390625,0.00390625,0.046875,0,-0.001831055,-0.006469727,0.01318359,0,0,0.01318359,0.3105164,4.02,0,0,0,0.2999878,nan,2,7.435,0,0,0,0,0,0,0,0,0,1,2,0
477.992,0.00101,0.02539062,-0.0546875,-0.03125,-0.328125,1.8125,8.757812,0.001953125,-0.01757812,-0.0234375,0.00390625,0.046875,0,-0.001953125,-0.006591797,0.01293945,0,0,0.01293945,0.3105164,4.02,0,0,0,0.2999878,nan,2,7.445,0,0,0,0,0,0,0,0,0,1,2,1
478.002,0.001007,0,-0.01757812,-0.01953125,0.0625,1.695312,7.421875,-0.001953125,0.0078125,-0.02929688,0.00390625,0.046875,0,-0.001831055,-0.006469727,0.01269531,0,0,0.01269531,0.3105164,4.02,0,0,0,0.2999878,nan,2,7.455,0,0,0,0,0,0,0,0,0,1,2,0
478.012,0.001023,0.015625,-0.015625,-0.02148438,0.234375,-1.859375,8.289062,0.01171875,-0.01757812,-0.02929688,0.00390625,0.046875,0,-0.001831055,-0.006591797,0.01245117,0,0,0.01245117,0.3105164,4.02,0,0,0,0.2999878,nan,2,7.465,0,0,0,0,0,0,0,0,0,1,2,0
478.022,0.00101,0,0.001953125,-0.009765625,0.2578125,-2,12.875,-0.00390625,-0.005859375,-0.0234375,0.00390625,0.046875,0,-0.001708984,-0.006591797,0.01208496,0,0,0.01208496,0.3105164,4.02,0,0,0,0.2999878,nan,2,7.475,0,0,0,0,0,0,0,0,0,1,2,0
478.032,0.00101,0.01367188,0.03125,-0.0546875,0.828125,-0.546875,9.414062,0.01367188,0,-0.04296875,0.00390625,0.046875,0,-0.001708984,-0.006713867,0.01184082,0,0,0.01184082,0.3105164,4.02,0,0,0,0.2999878,nan,2,7.485,0,0,0,0,0,0,0,0,0,1,2,1
478.042,0.00101,0.02148438,0.015625,-0.046875,0.765625,0.3671875,16.64062,0.001953125,0.001953125,-0.05664062,0.00390625,0.046875,0,-0.001708984,-0.006591797,0.01123047,0,0,0.01123047,0.3105164,4.02,0,0,0,0.2999878,nan,2,7.495,0,0,0,0,0,0,0,0,0,1,2,0
478.052,0.00101,0.009765625,0.01953125,-0.02929688,0.4140625,5.070312,13.17969,0.001953125,0.005859375,-0.02929688,0.00390625,0.046875,0,-0.001708984,-0.006591797,0.01086426,0,0,0.01086426,0.3105164,4.02,0,0,0,0.2999878,nan,2,7.505,0,0,0,0,0,0,0,0,0,1,2,0
478.061,0.00101,0.01171875,-0.0234375,-0.03710938,2.15625,-0.9453125,11.79688,-0.00390625,0.0078125,-0.03515625,0.00390625,0.046875,0,-0.001586914,-0.006591797,0.01062012,0,0,0.01062012,0.3105164,4.02,0,0,0,0.2999878,nan,2,7.514,0,0,0,0,0,0,0,0,0,1,2,0
478.072,0.00101,0.01171875,-0.01171875,-0.04492188,-2.8125,1.148438,10.0625,0.00390625,-0.001953125,-0.0390625,0.00390625,0.046875,0,-0.001708984,-0.006469727,0.01025391,0,0,0.01025391,0.3105164,4.02,0,0,0,0.2999878,nan,2,7.524,0,0,0,0,0,0,0,0,0,1,2,1
478.082,0.00101,-0.009765625,0.00390625,-0.03515625,2.085938,1.5,7.632812,-0.0078125,0.0078125,-0.03320312,0.00390625,0.046875,0,-0.001708984,-0.006469727,0.009887695,0,0,0.009887695,0.3105164,4.02,0,0,0,0.2999878,nan,2,7.535,0,0,0,0,0,0,0,0,0,1,2,0
478.092,0.001003,-0.001953125,0.0078125,-0.0078125,2.632812,1.710938,7.09375,-0.005859375,0.00390625,-0.015625,0.00390625,0.046875,0,-0.001708984,-0.006469727,0.009643555,0,0,0.009643555,0.3105164,4.02,0,0,0,0.2999878,nan,2,7.545,0,0,0,0,0,0,0,0,0,1,2,0
478.102,0.00101,-0.0078125,-0.00390625,0,-1.492188,-7.1875,11.96094,0.00390625,0,-0.01171875,0.00390625,0.046875,0,-0.001708984,-0.006469727,0.009521484,0,0,0.009521484,0.3105164,4.02,0,0,0,0.2999878,nan,2,7.555,0,0,0,0,0,0,0,0,0,1,2,0
478.112,0.001011,-0.03125,0.03515625,-0.01953125,-1.828125,-2.070312,10.94531,-0.01171875,0.009765625,-0.02539062,0.00390625,0.046875,0,-0.001831055,-0.006347656,0.009277344,0,0,0.009277344,0.3105164,4.02,0,0,0,0.2999878,nan,2,7.565,0,0,0,0,0,0,0,0,0,1,2,0
478.122,0.001005,-0.005859375,0.03320312,-0.01367188,-1.914062,-1.101562,10.8125,0.005859375,-0.001953125,-0.01367188,0.00390625,0.046875,0,-0.001831055,-0.006469727,0.009155273,0,0,0.009155273,0.3105164,4.02,0,0,0,0.2999878,nan,2,7.575,0,0,0,0,0,0,0,0,0,1,2,0
478.132,0.00101,0.0234375,0.02734375,-0.01757812,-0.2890625,3.945312,9.164062,0.001953125,0.001953125,-0.00390625,0.00390625,0.046875,0,-0.001708984,-0.006347656,0.009033203,0,0,0.009033203,0.3105164,4.077,0,0,0,0.2999878,nan,2,7.585,0,0,0,0,0,0,0,0,0,1,2,1
478.142,0.00101,-0.0234375,0.005859375,-0.0078125,-0.5859375,-3.640625,10.77344,-0.009765625,0.009765625,-0.00390625,0.00390625,0.046875,0,-0.001953125,-0.006225586,0.009033203,0,0,0.009033203,0.3105164,4.077,0,0,0,0.2999878,nan,2,7.595,0,0,0,0,0,0,0,0,0,1,2,0
478.152,0.001002,0.0078125,-0.005859375,0.01171875,0.7890625,1.695312,8.15625,-0.001953125,0.005859375,0.005859375,0.00390625,0.046875,0,-0.002075195,-0.006225586,0.009033203,0,0,0.009033203,0.3105164,4.077,0,0,0,0.2999878,nan,2,7.605,0,0,0,0,0,0,0,0,0,1,2,0
478.161,0.001018,0.01171875,-0.009765625,-0.03710938,1.320312,0.2890625,10.69531,0.001953125,-0.001953125,-0.005859375,0.00390625,0.046875,0,-0.002075195,-0.006103516,0.009033203,0,0,0.009033203,0.3105164,4.077,0,0,0,0.2999878,nan,2,7.614,0,0,0,0,0,0,0,0,0,1,2,1
478.172,0.001018,-0.06445312,-0.04492188,0.02148438,1.265625,-4.140625,9.3125,-0.015625,0,-0.005859375,0.00390625,0.046875,0,-0.002197266,-0.006103516,0.009033203,0,0,0.009033203,0.3105164,4.077,0,0,0,0.2999878,nan,2,7.624,0,0,0,0,0,0,0,0,0,1,2,1
478.182,0.00101,0.04492188,-0.0078125,-0.001953125,0.6953125,1.601562,9.070312,0.009765625,0.00390625,0.005859375,0.00390625,0.046875,0,-0.002075195,-0.006103516,0.009033203,0,0,0.009033203,0.3105164,4.077,0,0,0,0.2999878,nan,2,7.635,0,0,0,0,0,0,0,0,0,1,2,1
478.192,0.00101,0.001953125,0.0078125,-0.01367188,-0.0625,-0.9609375,9.914062,0.001953125,-0.00390625,0.001953125,0.00390625,0.046875,0,-0.002075195,-0.006103516,0.009033203,0,0,0.009033203,0.3105164,4.077,0,0,0,0.2999878,nan,2,7.645,0,0,0,0,0,0,0,0,0,1,2,1
478.202,0.00101,0,0.015625,-0.01367188,-1.335938,1.921875,10.63281,0.001953125,0.0078125,-0.01171875,0.00390625,0.046875,0,-0.002075195,-0.005981445,0.009033203,0,0,0.009033203,0.3105164,4.077,0,0,0,0.2999878,nan,2,7.655,0,0,0,0,0,0,0,0,0,1,2,0
478.212,0.001004,-0.07226562,-0.0078125,0.01953125,0.3515625,-2.414062,10.5,-0.01171875,0,0,0.00390625,0.046875,0,-0.002075195,-0.006103516,0.008911133,0,0,0.008911133,0.3105164,4.077,0,0,0,0.2999878,nan,2,7.665,0,0,0,0,0,0,0,0,0,1,2,1
478.222,0.001004,-0.001953125,0.078125,0.005859375,-2.40625,-0.5625,11.01562,-0.005859375,0.00390625,0.00390625,0.00390625,0.046875,0,-0.002075195,-0.006103516,0.009033203,0,0,0.009033203,0.3105164,4.077,0,0,0,0.2999878,nan,2,7.675,0,0,0,0,0,0,0,0,0,1,2,0
478.232,0.00101,-0.01757812,0.01367188,-0.0234375,-0.9921875,0.8828125,10.6875,-0.001953125,0.001953125,-0.009765625,0.00390625,0.046875,0,-0.002075195,-0.006103516,0.008911133,0,0,0.008911133,0.3105164,4.077,0,0,0,0.2999878,nan,2,7.685,0,0,0,0,0,0,0,0,0,1,2,1
478.242,0.00101,-0.1152344,-0.01953125,0.0078125,0.5234375,-1.164062,10.23438,-0.02539062,-0.00390625,-0.001953125,0.00390625,0.046875,0,-0.002075195,-0.006103516,0.008911133,0,0,0.008911133,0.3105164,4.077,0,0,0,0.2999878,nan,2,7.695,0,0,0,0,0,0,0,0,0,1,2,1
478.252,0.00101,-0.01953125,0.01953125,-0.0078125,0.75,-0.0546875,9.757812,-0.00390625,-0.015625,0,0.00390625,0.046875,0,-0.002075195,-0.006103516,0.008911133,0,0,0.008911133,0.3105164,4.077,0,0,0,0.2999878,nan,2,7.705,0,0,0,0,0,0,0,0,0,1,2,1
478.261,0.00101,0.02734375,-0.009765625,0.001953125,-0.6875,0.2890625,9.9375,-0.01171875,0,-0.005859375,0.00390625,0.046875,0,-0.002075195,-0.006103516,0.008911133,0,0,0.008911133,0.3105164,4.077,0,0,0,0.2999878,nan,2,7.714,0,0,0,0,0,0,0,0,0,1,2,1
478.272,0.00101,-0.03710938,0.05078125,0.005859375,-0.625,0.734375,10.65625,0,0.01367188,-0.00390625,0.00390625,0.046875,0,-0.002075195,-0.006103516,0.008911133,0,0,0.008911133,0.3105164,4.077,0,0,0,0.2999878,nan,2,7.724,0,0,0,0,0,0,0,0,0,1,2,1
478.282,0.00101,-0.01953125,-0.05078125,-0.01367188,-0.5,-0.4453125,8.835938,0,-0.001953125,0.001953125,0.00390625,0.046875,0,-0.002075195,-0.005981445,0.008911133,0,0,0.008911133,0.3105164,4.077,0,0,0,0.2999878,nan,2,7.735,0,0,0,0,0,0,0,0,0,1,2,1
478.292,0.00101,-0.05273438,0.005859375,0.009765625,0.46875,-0.421875,10.11719,-0.005859375,-0.001953125,0,0.00390625,0.046875,0,-0.002075195,-0.006103516,0.008911133,0,0,0.008911133,0.3105164,4.077,0,0,0,0.2999878,nan,2,7.745,0,0,0,0,0,0,0,0,0,1,2,1
478.302,0.00101,-0.0078125,-0.001953125,0.0390625,-0.1015625,-0.21875,10.14844,-0.005859375,-0.009765625,0.005859375,0.00390625,0.046875,0,-0.002075195,-0.006103516,0.008911133,0,0,0.008911133,0.3105164,4.077,0,0,0,0.2999878,nan,2,7.755,0,0,0,0,0,0,0,0,0,1,2,1
478.312,0.001009,-0.01171875,-0.0234375,-0.01171875,-0.328125,0.1875,9.3125,0.00390625,-0.009765625,0,0.00390625,0.046875,0,-0.002075195,-0.006103516,0.008911133,0,0,0.008911133,0.3105164,4.077,0,0,0,0.2999878,nan,2,7.765,0,0,0,0,0,0,0,0,0,1,2,1
478.322,0.001011,0.01953125,-0.02539062,-0.009765625,0.234375,-0.2578125,9.289062,0.005859375,-0.00390625,-0.00390625,0.00390625,0.046875,0,-0.002075195,-0.006103516,0.008911133,0,0,0.008911133,0.3105164,4.077,0,0,0,0.2999878,nan,2,7.775,0,0,0,0,0,0,0,0,0,1,2,1
478.332,0.00101,-0.00390625,-0.0078125,-0.01171875,0.21875,0.4921875,9.9375,-0.005859375,0,-0.005859375,0.00390625,0.046875,0,-0.002075195,-0.006103516,0.008911133,0,0,0.008911133,0.3105164,4.077,0,0,0,0.2999878,nan,2,7.785,0,0,0,0,0,0,0,0,0,1,2,1
478.342,0.00106,0.01367188,-0.015625,0.0078125,0.453125,-0.25,9.023438,0.001953125,-0.00390625,0.001953125,0.00390625,0.046875,0,-0.001953125,-0.006103516,0.008911133,0,0,0.008911133,0.3105164,4.077,0,0,0,0.2999878,nan,2,7.795,0,0,0,0,0,0,0,0,0,1,2,1
478.351,0.00101,-0.01171875,0.01171875,-0.009765625,-0.3984375,-0.046875,10.22656,0.001953125,0.00390625,-0.005859375,0.00390625,0.046875,0,-0.001953125,-0.006103516,0.008911133,0,0,0.008911133,0.3105164,4.077,0,0,0,0.2999878,nan,2,7.804,0,0,0,0,0,0,0,0,0,1,2,1
478.361,0.00101,0.001953125,0.00390625,-0.02539062,0.4375,0.4453125,9.46875,-0.001953125,-0.001953125,-0.0078125,0.00390625,0.046875,0,-0.001953125,-0.006103516,0.008911133,0,0,0.008911133,0.3105164,4.077,0,0,0,0.2999878,nan,2,7.814,0,0,0,0,0,0,0,0,0,1,2,1
478.372,0.00101,-0.005859375,0.0078125,0.009765625,0.1875,-0.0859375,10.15625,-0.001953125,0.001953125,0.001953125,0.00390625,0.046875,0,-0.001953125,-0.006103516,0.008911133,0,0,0.008911133,0.3105164,4.077,0,0,0,0.2999878,nan,2,7.824,0,0,0,0,0,0,0,0,0,1,2,1
478.382,0.00101,0.0078125,0.01367188,-0.0078125,0.4296875,0.109375,9.5,0.001953125,0.001953125,0.00390625,0.00390625,0.046875,0,-0.001953125,-0.006103516,0.008911133,0,0,0.008911133,0.3105164,4.077,0,0,0,0.2999878,nan,2,7.835,0,0,0,0,0,0,0,0,0,1,2,1
478.392,0.00101,0.01367188,-0.0078125,0,-0.125,-0.15625,10.10938,0.00390625,-0.00390625,-0.001953125,0.00390625,0.046875,0,-0.001831055,-0.006103516,0.008911133,0,0,0.008911133,0.3105164,4.077,0,0,0,0.2999878,nan,2,7.845,0,0,0,0,0,0,0,0,0,1,2,1
478.402,0.001011,0.001953125,-0.01367188,0.005859375,-0.0859375,-0.1875,10.02344,0,-0.001953125,0.001953125,0.00390625,0.046875,0,-0.001831055,-0.006103516,0.008911133,0,0,0.008911133,0.3105164,4.077,0,0,0,0.2999878,nan,2,7.855,0,0,0,0,0,0,0,0,0,1,2,1
478.412,0.001014,0.001953125,0.0078125,0.001953125,0.09375,-0.1484375,9.59375,0.00390625,0.00390625,0.005859375,0.00390625,0.046875,0,-0.001831055,-0.005981445,0.008911133,0,0,0.008911133,0.3105164,4.077,0,0,0,0.2999878,nan,2,7.865,0,0,0,0,0,0,0,0,0,1,2,1
478.422,0.001011,0.005859375,-0.009765625,0.00390625,-0.09375,0.328125,9.554688,-0.001953125,-0.001953125,0.00390625,0.00390625,0.046875,0,-0.001831055,-0.005981445,0.008911133,0,0,0.008911133,0.3105164,4.077,0,0,0,0.2999878,nan,2,7.875,0,0,0,0,0,0,0,0,0,1,2,1
478.432,0.001007,0.005859375,0.01367188,-0.00390625,0.328125,0.015625,9.789062,0,0.0078125,0,0.00390625,0.046875,0,-0.001831055,-0.005981445,0.008911133,0,0,0.008911133,0.3105164,4.077,0,0,0,0.2999878,nan,2,7.885,0,0,0,0,0,0,0,0,0,1,2,1
478.442,0.00101,0.005859375,0.00390625,0.009765625,0.1484375,0.3671875,9.914062,-0.005859375,0,0,0.00390625,0.046875,0,-0.001831055,-0.005981445,0.008911133,0,0,0.008911133,0.3105164,4.077,0,0,0,0.2999878,nan,2,7.895,0,0,0,0,0,0,0,0,0,1,2,1
478.452,0.00101,0.001953125,0.009765625,-0.009765625,0.09375,-0.0390625,9.757812,0.001953125,0.00390625,0,0.00390625,0.046875,0,-0.001831055,-0.005981445,0.008911133,0,0,0.008911133,0.3105164,4.077,0,0,0,0.2999878,nan,2,7.905,0,0,0,0,0,0,0,0,0,1,2,1
478.461,0.00101,-0.001953125,-0.0078125,0.001953125,0.0078125,-0.03125,9.648438,0,-0.00390625,0.001953125,0.00390625,0.046875,0,-0.001831055,-0.005981445,0.008911133,0,0,0.008911133,0.3105164,4.077,0,0,0,0.2999878,nan,2,7.914,0,0,0,0,0,0,0,0,0,1,2,1
478.472,0.00101,0.001953125,0.009765625,0.01171875,-0.0859375,0.0859375,9.8125,0.001953125,0.00390625,0.00390625,0.00390625,0.046875,0,-0.001708984,-0.005981445,0.008911133,0,0,0.008911133,0.3105164,4.077,0,0,0,0.2999878,nan,2,7.924,0,0,0,0,0,0,0,0,0,1,2,1
478.482,0.00101,-0.005859375,-0.00390625,-0.0078125,0.0546875,0.09375,9.757812,0,0,-0.001953125,0.00390625,0.046875,0,-0.001708984,-0.005981445,0.008911133,0,0,0.008911133,0.3105164,4.077,0,0,0,0.2999878,nan,2,7.935,0,0,0,0,0,0,0,0,0,1,2,1
478.492,0.00112,0.005859375,0.0078125,-0.001953125,0.078125,0.140625,9.84375,-0.001953125,0.00390625,-0.001953125,0.00390625,0.046875,0,-0.001708984,-0.005981445,0.008911133,0,0,0.008911133,0.3105164,4.077,0,0,0,0.2999878,nan,2,7.944,0,0,0,0,0,0,0,0,0,1,2,1
478.501,0.001141,-0.00390625,0,0.0078125,-0.0234375,-0.2890625,9.820312,0.001953125,0,0.005859375,0.00390625,0.046875,0,-0.001708984,-0.005981445,0.008911133,0,0,0.008911133,0.3105164,4.077,0,0,0,0.2999878,nan,2,7.954,0,0,0,0,0,0,0,0,0,1,2,1
478.513,0.001708,0.00390625,0.00390625,-0.001953125,0.03125,0.2265625,9.757812,0,0.001953125,-0.005859375,0.00390625,0.046875,0,-0.001708984,-0.005859375,0.008911133,0,0,0.008911133,0.3105164,4.077,0,0,0,0.2999878,nan,2,7.965,0,0,0,0,0,0,0,0,0,1,2,1
478.522,0.001149,0.001953125,0.00390625,0.005859375,-0.078125,-0.0390625,9.664062,0.001953125,0.001953125,0.0078125,0.00390625,0.046875,0,-0.001586914,-0.005859375,0.008911133,0,0,0.008911133,0.3105164,4.077,0,0,0,0.2999878,nan,2,7.975,0,0,0,0,0,0,0,0,0,1,2,1
478.532,0.001171,-0.00390625,-0.001953125,-0.009765625,0.078125,0.125,9.835938,-0.001953125,0,-0.005859375,0.00390625,0.046875,0,-0.001586914,-0.005859375,0.008911133,0,0,0.008911133,0.3105164,4.077,0,0,0,0.2999878,nan,2,7.985,0,0,0,0,0,0,0,0,0,1,2,1
478.589,0.001102,0,0.00390625,0,0.0234375,-0.0390625,9.804688,-0.001953125,0.001953125,-0.00390625,0.00390625,0.046875,0,-0.001586914,-0.005859375,0.008911133,0,0,0.008911133,0.3105164,4.077,0,0,0,0.2999878,nan,2,7.99,0,0,0,0,0,0,0,0,0,1,2,1
478.592,0.001407,-0.001953125,-0.001953125,-0.001953125,0.0234375,0.09375,9.851562,-0.001953125,-0.001953125,-0.00390625,0.00390625,0.046875,0,-0.001708984,-0.005981445,0.008666992,0,0,0.008666992,0.3105164,4.077,0,0,0,0.2999878,nan,2,8.045,0,0,0,0,0,0,0,0,0,1,2,1
478.602,0.00101,0,0.001953125,0.00390625,0.0234375,0.015625,9.796875,0,0,0.001953125,0.00390625,0.046875,0,-0.001586914,-0.005981445,0.008666992,0,0,0.008666992,0.3105164,4.077,0,0,0,0.2999878,nan,2,8.055,0,0,0,0,0,0,0,0,0,1,2,1
478.612,0.001008,-0.001953125,0,0,0.03125,0.0234375,9.789062,0,0,0,0.00390625,0.046875,0,-0.001586914,-0.005981445,0.008666992,0,0,0.008666992,0.3105164,4.077,0,0,0,0.2999878,nan,2,8.065,0,0,0,0,0,0,0,0,0,1,2,1
478.622,0.001009,0,0.0078125,0.001953125,0.046875,0.015625,9.789062,-0.001953125,0.00390625,0,0.00390625,0.046875,0,-0.001586914,-0.005859375,0.008666992,0,0,0.008666992,0.3105164,4.077,0,0,0,0.2999878,nan,2,8.075,0,0,0,0,0,0,0,0,0,1,2,1
478.632,0.000984,0,0.00390625,-0.001953125,0.0625,0,9.765625,0,0.001953125,0,0.00390625,0.046875,0,-0.001586914,-0.005859375,0.008666992,0,0,0.008666992,0.3105164,4.077,0,0,0,0.2999878,nan,2,8.085,0,0,0,0,0,0,0,0,0,1,2,1
478.642,0.00101,0,0.00390625,-0.001953125,0.0546875,0.0078125,9.835938,-0.001953125,0.001953125,-0.001953125,0.00390625,0.046875,0,-0.001586914,-0.005859375,0.008666992,0,0,0.008666992,0.3105164,4.077,0,0,0,0.2999878,nan,2,8.095,0,0,0,0,0,0,0,0,0,1,2,1
478.652,0.00101,0.001953125,0,0,0.0546875,0.0234375,9.898438,-0.001953125,0,0,0.00390625,0.046875,0,-0.001586914,-0.005859375,0.008666992,0,0,0.008666992,0.3105164,4.077,0,0,0,0.2999878,nan,2,8.105,0,0,0,0,0,0,0,0,0,1,2,1
478.661,0.00101,0,-0.001953125,-0.001953125,0.0546875,0.0390625,9.835938,0,0,0,0.00390625,0.046875,0,-0.001586914,-0.005859375,0.008666992,0,0,0.008666992,0.3105164,4.077,0,0,0,0.2999878,nan,2,8.114,0,0,0,0,0,0,0,0,0,1,2,1
478.671,0.00101,-0.001953125,0,0.005859375,0.0390625,0.03125,9.8125,-0.001953125,0.001953125,0.001953125,0.00390625,0.046875,0,-0.001586914,-0.005859375,0.008666992,0,0,0.008666992,0.3105164,4.077,0,0,0,0.2999878,nan,2,8.124,0,0,0,0,0,0,0,0,0,1,2,1
478.682,0.00101,0,0,0.001953125,0.03125,0.0390625,9.78125,0,0.001953125,0.001953125,0.00390625,0.046875,0,-0.001586914,-0.005859375,0.008666992,0,0,0.008666992,0.3105164,4.077,0,0,0,0.2999878,nan,2,8.135,0,0,0,0,0,0,0,0,0,1,2,1
478.692,0.00101,0,-0.001953125,0.001953125,0.0234375,0.0703125,9.820312,-0.001953125,0,0,0.00390625,0.046875,0,-0.001586914,-0.005859375,0.008666992,0,0,0.008666992,0.3105164,4.077,0,0,0,0.2999878,nan,2,8.145,0,0,0,0,0,0,0,0,0,1,2,1
478.702,0.00101,-0.005859375,-0.001953125,-0.001953125,0.0546875,0.03125,9.804688,-0.00390625,0,-0.001953125,0.00390625,0.046875,0,-0.001586914,-0.005859375,0.008666992,0,0,0.008666992,0.3105164,4.077,0,0,0,0.2999878,nan,2,8.155,0,0,0,0,0,0,0,0,0,1,2,1
478.712,0.001005,0,0,0,0.0390625,-0.0390625,9.789062,-0.001953125,-0.001953125,0,0.00390625,0.046875,0,-0.001586914,-0.005859375,0.008666992,0,0,0.008666992,0.3105164,4.077,0,0,0,0.2999878,nan,2,8.165,0,0,0,0,0,0,0,0,0,1,2,1
478.722,0.001014,-0.001953125,0,-0.001953125,0.0390625,0.046875,9.757812,-0.001953125,0,0,0.00390625,0.046875,0,-0.001586914,-0.005859375,0.008666992,0,0,0.008666992,0.3105164,4.077,0,0,0,0.2999878,nan,2,8.175,0,0,0,0,0,0,0,0,0,1,2,1
