t,dt_s,gyro_x,gyro_y,gyro_z,acc_x,acc_y,acc_z,rates.x,rates.y,rates.z,ratesTarget.x,ratesTarget.y,ratesTarget.z,attitude.x,attitude.y,attitude.z,attitudeTarget.x,attitudeTarget.y,attitudeTarget.z,thrustTarget,battery_v,rc_roll,rc_pitch,rc_yaw,rc_throttle,rc_mode,flight_mode,rc_age_s,armed,fault_mask,motor_rl,motor_rr,motor_fr,motor_fl,rate_i_x,rate_i_y,rate_i_z,mix_scale,control_source,accel_correction_confidence
4619.519,0.001009,0.001953125,-0.0546875,0.04492188,0.875,-4.742188,7.96875,-0.02929688,-0.001953125,0.046875,0.04101562,0,0,-0.006835938,0.0001220703,0.1708984,0,0,0.199585,0.3105164,4.051,0,0,0,0.2999878,nan,2,9.381,1,128,0.3409424,0.2927551,0.294281,0.3141479,0.01171875,0.00390625,0,1,3,0
4619.529,0.001054,-0.0078125,-0.00390625,0.00390625,-1.023438,5.414062,12.625,0.01953125,0.001953125,0.02929688,0.04101562,0,0,-0.006958008,0,0.1712646,0,0,0.199585,0.3105164,4.051,0,0,0,0.2999878,nan,2,9.391,1,128,0.3106689,0.3156433,0.2875366,0.3282776,0.01269531,0.00390625,0,1,3,0
4619.539,0.001005,0.015625,0.01953125,0.046875,0.53125,-1.351562,11.05469,0,0.009765625,0.0390625,0.04101562,0,0,-0.006958008,0.0001220703,0.1715088,0,0,0.199585,0.3105164,4.051,0,0,0,0.2999878,nan,2,9.401,1,128,0.350769,0.2762756,0.3167725,0.2982788,0.01269531,0.00390625,0,1,3,0
4619.548,0.001043,0.04492188,0.02148438,0.05078125,0.609375,-0.5625,6.820312,0.01953125,-0.01171875,0.0546875,0.04101562,0,0,-0.006835938,0.0001220703,0.1719971,0,0,0.199585,0.3105164,4.051,0,0,0,0.2999878,nan,2,9.41,1,128,0.3534241,0.2781372,0.3209229,0.2896118,0.01269531,0.00390625,0,1,3,0
4619.558,0.000996,-0.06054688,-0.005859375,-0.0078125,-1.664062,0.4140625,11.60938,-0.02148438,-0.005859375,0.01367188,0.04101562,0,0,-0.006835938,-0.0001220703,0.1723633,0,0,0.199585,0.3105164,4.051,0,0,0,0.2999878,nan,2,9.42,1,128,0.2964478,0.3302917,0.2485657,0.3668213,0.01269531,0.00390625,0,1,3,0
4619.568,0.00101,-0.02929688,0.01757812,0.005859375,-1.414062,4.289062,12.38281,-0.001953125,0.0078125,-0.00390625,0.04101562,0,0,-0.006835938,0,0.1723633,0,0,0.199585,0.3105164,4.051,0,0,0,0.2999878,nan,2,9.43,1,128,0.3276062,0.2978516,0.2907104,0.3259277,0.01269531,0.00390625,0,1,3,0
4619.578,0.001006,-0.009765625,0.009765625,0.03710938,1.171875,1.328125,9.203125,-0.0078125,0.01367188,0.02148438,0.04101562,0,0,-0.006958008,0.0001220703,0.1724854,0,0,0.199585,0.3105164,4.051,0,0,0,0.2999878,nan,2,9.44,1,128,0.3622131,0.2644653,0.3286743,0.2867432,0.01269531,0.00390625,0,1,3,0
4619.588,0.001011,0.01367188,0.0546875,-0.02734375,1.710938,-3.351562,12.51562,0,0.02734375,-0.01171875,0.04296875,-0.001953125,0,-0.007202148,0.0001220703,0.1724854,0,0,0.199585,0.3105164,4.051,0,0,0,0.2999878,nan,2,9.451,1,128,0.2914734,0.3282166,0.2696838,0.3527222,0.01269531,0.00390625,0,1,3,0
4619.599,0.001011,-0.0546875,0.009765625,0.08203125,-1.257812,-0.5,9.953125,-0.02734375,0.02148438,0.0546875,0.04296875,-0.001953125,0,-0.007324219,0.0004882812,0.1727295,0,0,0.199585,0.3105164,4.051,0,0,0,0.2999878,nan,2,9.461,1,128,0.4126587,0.2124939,0.3669128,0.250061,0.01269531,0.00390625,0,1,3,0.3492064
4619.609,0.001011,0.07421875,0.03515625,0.009765625,-0.5078125,5.671875,13.66406,0.001953125,0.01757812,0.02734375,0.046875,-0.001953125,0,-0.00769043,0.0003662109,0.1730957,0,0,0.199585,0.3105164,4.051,0,0,0,0.2999878,nan,2,9.471,1,128,0.2997131,0.3204346,0.2844543,0.3374939,0.01269531,0.00390625,0,1,3,0
4619.619,0.001011,-0.00390625,0.015625,0.08203125,0.9140625,-2.1875,8.03125,-0.01367188,-0.001953125,0.05859375,0.04492188,-0.001953125,0,-0.007568359,0.0002441406,0.1734619,0,0,0.199585,0.3105164,4.051,0,0,0,0.2999878,nan,2,9.481,1,128,0.3895264,0.235321,0.3475952,0.2696533,0.01269531,0.00390625,0,1,3,0
4619.629,0.001011,-0.02539062,-0.02148438,0.1347656,0.1953125,-2.0625,10.85156,0.01757812,-0.00390625,0.109375,0.04492188,-0.001953125,0,-0.007446289,0.0003662109,0.1744385,0,0,0.199585,0.3105164,4.051,0,0,0,0.2999878,nan,2,9.491,1,128,0.4071045,0.2262268,0.3651428,0.2435913,0.01269531,0.00390625,0,1,3,0
4619.638,0.001072,-0.03710938,-0.01757812,0.06835938,-0.5078125,1.085938,12.32031,-0.00390625,-0.02148438,0.08984375,0.04492188,-0.001953125,0,-0.007324219,0.0002441406,0.175415,0,0,0.199585,0.3105164,4.051,0,0,0,0.2999878,nan,2,9.5,1,128,0.3401184,0.2955322,0.2887268,0.3177185,0.01269531,0.00390625,0,1,3,0
4619.648,0.001002,0.1503906,-0.0546875,0.1132812,1.507812,-2.890625,6.640625,0.01953125,-0.001953125,0.07226562,0.04492188,-0.001953125,0,-0.007446289,0.0003662109,0.1760254,0,0,0.199585,0.3105164,4.051,0,0,0,0.2999878,nan,2,9.51,1,128,0.362793,0.2704468,0.3353271,0.2734985,0.01269531,0.00390625,0,1,3,0
4619.658,0.001011,0.04296875,-0.08984375,0.1660156,-1.257812,1.1875,6.78125,0.02734375,-0.02929688,0.1445312,0.04296875,-0.001953125,0,-0.007080078,0.0001220703,0.177124,0,0,0.199585,0.3105164,4.051,0,0,0,0.2999878,nan,2,9.52,1,128,0.4490967,0.1911316,0.4049377,0.1969299,0.01269531,0.00390625,0,1,3,0
4619.668,0.001005,-0.04492188,-0.00390625,0.09960938,0.4296875,-3.40625,9.304688,-0.02148438,-0.02148438,0.1386719,0.04296875,0.001953125,0,-0.007324219,-0.0002441406,0.1787109,0,0,0.199585,0.3105164,4.051,0,0,0,0.2999878,nan,2,9.53,1,128,0.3488464,0.2789917,0.2998352,0.3144226,0.01269531,0.00390625,0,1,3,0.7142857
4619.678,0.000996,-0.015625,0.03125,0.02929688,0.6640625,0.1171875,6.414062,-0.005859375,-0.00390625,0.04882812,0.04296875,0.001953125,0,-0.007324219,-0.0002441406,0.1795654,0,0,0.199585,0.3105164,4.051,0,0,0,0.2999878,nan,2,9.54,1,128,0.2731018,0.3557434,0.2322998,0.3809814,0.01269531,0.00390625,0,1,3,0
4619.688,0.001009,-0.01367188,-0.009765625,-0.0859375,-0.7265625,1.0625,14.26562,-0.05078125,-0.02148438,-0.02734375,0.046875,0.001953125,0,-0.00769043,-0.0003662109,0.1796875,0,0,0.199585,0.3105164,4.051,0,0,0,0.2999878,nan,2,9.551,1,128,0.238739,0.395874,0.1835022,0.4240112,0.01269531,0.00390625,0,1,3,0
4619.698,0.001009,0.005859375,0.02734375,-0.07617188,-0.3125,-1.3125,7.984375,0.02929688,-0.01171875,-0.06445312,0.04492188,0.00390625,0,-0.007568359,-0.0004882812,0.1790771,0,0,0.199585,0.3105164,4.051,0,0,0,0.2999878,nan,2,9.561,1,128,0.2702637,0.3587036,0.2414551,0.3717041,0.01269531,0.00390625,0,1,3,0
4619.709,0.001009,-0.03125,0.06445312,-0.046875,0.9765625,-2.25,7.039062,0.005859375,0.005859375,-0.0546875,0.04492188,0.00390625,0,-0.007568359,-0.0006103516,0.1784668,0,0,0.199585,0.3105164,4.051,0,0,0,0.2999878,nan,2,9.571,1,128,0.327301,0.2948608,0.2928467,0.3271179,0.01269531,0.00390625,0,1,3,0
4619.718,0.001021,-0.01757812,-0.009765625,-0.01757812,-1.101562,-0.4375,10.11719,-0.01367188,0.001953125,-0.02539062,0.04492188,0.00390625,0,-0.007568359,-0.0006103516,0.1781006,0,0,0.199585,0.3105164,4.051,0,0,0,0.2999878,nan,2,9.58,1,128,0.3543701,0.2748108,0.3074036,0.3055115,0.01269531,0.00390625,0,1,3,0.03174603
4619.729,0.001056,-0.08398438,-0.03515625,0.04101562,-1.828125,1.226562,11.28906,-0.04101562,-0.02734375,0.03710938,0.046875,0.00390625,0,-0.0078125,-0.0007324219,0.1782227,0,0,0.199585,0.3105164,4.051,0,0,0,0.2999878,nan,2,9.591,1,128,0.4060669,0.2325745,0.3414307,0.2620239,0.01367188,0.00390625,0,1,3,0
4619.738,0.001045,0.03515625,-0.0703125,0.109375,1.539062,-0.1796875,8.359375,0.005859375,-0.03125,0.07617188,0.04882812,0.005859375,0,-0.008178711,-0.0008544922,0.1787109,0,0,0.199585,0.3105164,4.051,0,0,0,0.2999878,nan,2,9.6,1,128,0.4034424,0.2368469,0.3683777,0.2334595,0.01367188,0.00390625,0,1,3,0
4619.748,0.000966,0.0078125,-0.009765625,0.0703125,1.609375,-1.304688,9.015625,-0.001953125,-0.00390625,0.0859375,0.04882812,0.005859375,0,-0.008178711,-0.0009765625,0.1795654,0,0,0.199585,0.3105164,4.051,0,0,0,0.2999878,nan,2,9.61,1,128,0.3519592,0.2762756,0.3146057,0.2992554,0.01367188,0.00390625,0,1,3,0
4619.758,0.001054,-0.00390625,-0.01367188,-0.04296875,-1.632812,0.1796875,9.320312,-0.01367188,0.01757812,-0.01171875,0.05078125,0.005859375,0,-0.008544922,-0.0009765625,0.1799316,0,0,0.199585,0.3105164,4.051,0,0,0,0.2999878,nan,2,9.62,1,128,0.2377319,0.3877869,0.1981506,0.4184265,0.01367188,0.00390625,0,1,3,0.2539683
4619.768,0.001056,0.06054688,0.046875,-0.1113281,1.34375,1.671875,10.66406,0.03320312,0.01171875,-0.07617188,0.05078125,0.005859375,0,-0.008422852,-0.0008544922,0.1794434,0,0,0.199585,0.3105164,4.051,0,0,0,0.2999878,nan,2,9.63,1,128,0.2272949,0.3958435,0.2058105,0.413147,0.01367188,0.00390625,0,1,3,0
4619.778,0.001013,0.02148438,-0.005859375,-0.02539062,1.578125,-2.710938,9.351562,0.0625,0.01367188,-0.08007812,0.046875,0.00390625,0,-0.00793457,-0.0007324219,0.1784668,0,0,0.199585,0.3105164,4.051,0,0,0,0.2999878,nan,2,9.64,1,128,0.3288269,0.300293,0.3009033,0.3120728,0.01367188,0.00390625,0,1,3,0.8730159
4619.788,0.000969,0.00390625,0.046875,-0.01367188,1.804688,-0.265625,7.828125,0.04101562,0.02734375,-0.0234375,0.046875,0.001953125,0,-0.0078125,-0.0004882812,0.1781006,0,0,0.199585,0.3105164,4.051,0,0,0,0.2999878,nan,2,9.651,1,128,0.3608093,0.2670898,0.3335266,0.2807007,0.01367188,0.00390625,0,1,3,0
4619.799,0.001011,-0.005859375,0.01367188,-0.02148438,-1.039062,2.28125,8.484375,0.03320312,-0.015625,-0.01953125,0.04296875,0.001953125,0,-0.007202148,-0.0002441406,0.1778564,0,0,0.199585,0.3105164,4.051,0,0,0,0.2999878,nan,2,9.661,1,128,0.3400879,0.3014526,0.2807312,0.3198547,0.01367188,0.00390625,0,1,3,0
4619.809,0.00098,0.05664062,0.0078125,0.01757812,-1.070312,1.148438,12.63281,0.00390625,0.005859375,-0.001953125,0.04296875,0.001953125,0,-0.007324219,-0.0002441406,0.1777344,0,0,0.199585,0.3105164,4.051,0,0,0,0.2999878,nan,2,9.671,1,128,0.3597107,0.2707214,0.320282,0.2913818,0.01367188,0.00390625,0,1,3,0
4619.819,0.000998,0.05664062,-0.01171875,0.015625,1.898438,1.023438,6.507812,0.00390625,-0.005859375,0.02539062,0.04492188,0.001953125,0,-0.007324219,-0.0002441406,0.1778564,0,0,0.199585,0.3105164,4.051,0,0,0,0.2999878,nan,2,9.681,1,128,0.361908,0.2707214,0.3242798,0.2852173,0.01367188,0.00390625,0,1,3,0
4619.829,0.001011,-0.00390625,0.0078125,-0.01171875,0.5625,-6.617188,10.28125,0.02929688,-0.01953125,0.02539062,0.04296875,0.001953125,0,-0.007202148,-0.0003662109,0.1779785,0,0,0.199585,0.3105164,4.051,0,0,0,0.2999878,nan,2,9.691,1,128,0.3461914,0.2897949,0.3086548,0.2974854,0.01367188,0.00390625,0,1,3,0
4619.839,0.001011,-0.00390625,-0.03320312,-0.03710938,-1.210938,5.710938,14.41406,-0.0234375,-0.00390625,-0.01953125,0.04492188,0.001953125,0,-0.007324219,-0.0002441406,0.1779785,0,0,0.199585,0.3105164,4.051,0,0,0,0.2999878,nan,2,9.701,1,128,0.298645,0.3345642,0.2453308,0.3635864,0.01367188,0.00390625,0,1,3,0
4619.848,0.001009,-0.04101562,-0.02148438,-0.06445312,1.179688,-0.1015625,12.25,-0.001953125,-0.001953125,-0.04492188,0.04492188,0.001953125,0,-0.007446289,-0.0003662109,0.1776123,0,0,0.199585,0.3105164,4.051,0,0,0,0.2999878,nan,2,9.71,1,128,0.2834167,0.3468933,0.2432251,0.3685608,0.01367188,0.00390625,0,1,3,0
4619.858,0.001012,0,-0.01953125,-0.06054688,1.75,-1.796875,6.820312,0.01953125,-0.0078125,-0.04296875,0.04492188,0.001953125,0,-0.007446289,-0.0003662109,0.1772461,0,0,0.199585,0.3105164,4.051,0,0,0,0.2999878,nan,2,9.72,1,128,0.3115845,0.3217468,0.2747803,0.3340149,0.01367188,0.00390625,0,1,3,0
4619.868,0.001017,0.02148438,-0.02539062,-0.03710938,1.9375,-3.65625,11.14844,-0.04296875,0.015625,-0.05273438,0.046875,0.001953125,0,-0.0078125,-0.0002441406,0.1767578,0,0,0.199585,0.3105164,4.051,0,0,0,0.2999878,nan,2,9.73,1,128,0.3147888,0.3123169,0.2692566,0.3457642,0.01367188,0.00390625,0,1,3,0
4619.878,0.001019,-0.0390625,0.02734375,-0.09375,-0.5625,-2.007812,10.95312,-0.015625,-0.009765625,-0.05859375,0.04882812,0.001953125,0,-0.008056641,-0.0003662109,0.1763916,0,0,0.199585,0.3105164,4.051,0,0,0,0.2999878,nan,2,9.74,1,128,0.271637,0.35849,0.2287598,0.3832397,0.01367188,0.00390625,0,1,3,0
4619.888,0.001009,0.0390625,-0.01171875,-0.0859375,-1.671875,4.179688,13.00781,-0.01757812,-0.01757812,-0.08398438,0.04882812,0.001953125,0,-0.008178711,-0.0003662109,0.1755371,0,0,0.199585,0.3105164,4.051,0,0,0,0.2999878,nan,2,9.751,1,128,0.2926331,0.3464661,0.2392273,0.3638,0.01367188,0.00390625,0,1,3,0
4619.898,0.001009,-0.02539062,-0.046875,-0.001953125,-1.257812,1.070312,11.01562,-0.01757812,-0.04101562,-0.02929688,0.04882812,0.001953125,0,-0.008056641,-0.0003662109,0.1749268,0,0,0.199585,0.3105164,4.051,0,0,0,0.2999878,nan,2,9.761,1,128,0.395752,0.2507324,0.3262634,0.2693787,0.01367188,0.00390625,0,1,3,0
4619.909,0.001009,-0.009765625,-0.03515625,-0.03515625,1.09375,3.867188,9.125,0.015625,-0.0234375,-0.01171875,0.04882812,0.00390625,0,-0.008056641,-0.0006103516,0.1748047,0,0,0.199585,0.3105164,4.051,0,0,0,0.2999878,nan,2,9.771,1,128,0.3342285,0.3018188,0.2888184,0.3172302,0.01367188,0.00390625,0,1,3,0.1111111
4619.919,0.001009,-0.03710938,0.01171875,-0.01367188,1.367188,-3.28125,9.359375,0.0390625,0.005859375,0.00390625,0.04492188,0.00390625,0,-0.007568359,-0.0006103516,0.1749268,0,0,0.199585,0.3105164,4.051,0,0,0,0.2999878,nan,2,9.781,1,128,0.3282166,0.2967834,0.2922363,0.3248596,0.01367188,0.00390625,0,1,3,0.5079365
4619.929,0.001009,-0.001953125,-0.01953125,0.04492188,-1.210938,0.5625,10.8125,-0.02148438,0,0.02929688,0.046875,0.00390625,0,-0.0078125,-0.0006103516,0.1750488,0,0,0.199585,0.3105164,4.051,0,0,0,0.2999878,nan,2,9.791,1,128,0.3768311,0.255188,0.3256836,0.2843933,0.01367188,0.00390625,0,1,3,0
4619.939,0.001024,-0.04296875,0.00390625,0.04101562,-0.6953125,-0.2890625,12.39062,-0.005859375,-0.005859375,0.046875,0.046875,0.00390625,0,-0.0078125,-0.0007324219,0.1755371,0,0,0.199585,0.3105164,4.051,0,0,0,0.2999878,nan,2,9.801,1,128,0.3482361,0.2816467,0.3027649,0.3094482,0.01367188,0.00390625,0,1,3,0
4619.948,0.000974,0.02539062,-0.03710938,-0.078125,0.96875,-0.9765625,6.507812,0.00390625,-0.01953125,-0.04882812,0.046875,0.00390625,0,-0.00793457,-0.0007324219,0.175415,0,0,0.199585,0.3105164,4.051,0,0,0,0.2999878,nan,2,9.81,1,128,0.2288513,0.4095154,0.1828003,0.4209595,0.01464844,0.00390625,0,1,3,0
4619.958,0.001014,0.03125,0.04882812,-0.05664062,-0.125,-3.351562,10.83594,-0.02539062,0.015625,-0.0703125,0.04882812,0.00390625,0,-0.008056641,-0.0007324219,0.1746826,0,0,0.199585,0.3105164,4.051,0,0,0,0.2999878,nan,2,9.82,1,128,0.3082275,0.3111877,0.2696533,0.3530273,0.01464844,0.00390625,0,1,3,0
4619.968,0.001053,-0.0234375,-0.05273438,-0.001953125,-2.421875,0.515625,8.671875,0.01953125,-0.0234375,-0.02929688,0.04492188,0.00390625,0,-0.00769043,-0.0007324219,0.1741943,0,0,0.199585,0.3105164,4.051,0,0,0,0.2999878,nan,2,9.83,1,128,0.3803711,0.2638855,0.317688,0.2801819,0.01464844,0.00390625,0,1,3,0
4619.978,0.000897,-0.07226562,0.00390625,-0.05273438,-1.78125,5.492188,11.375,-0.03320312,0.009765625,-0.04296875,0.04492188,0.005859375,0,-0.007568359,-0.0008544922,0.1738281,0,0,0.199585,0.3105164,4.051,0,0,0,0.2999878,nan,2,9.84,1,128,0.3076477,0.3168335,0.2477417,0.369873,0.01464844,0.00390625,0,1,3,0
4619.989,0.001035,0,0.06445312,-0.02929688,0.578125,-2.65625,10.19531,-0.0390625,0.04101562,-0.02148438,0.046875,0.00390625,0,-0.00793457,-0.0006103516,0.1734619,0,0,0.199585,0.3105164,4.051,0,0,0,0.2999878,nan,2,9.851,1,128,0.3444519,0.2728882,0.3071289,0.3176575,0.01464844,0.00390625,0,1,3,0
4619.998,0.001011,0.02539062,0.001953125,-0.07226562,1.375,-1.046875,4.5,-0.009765625,0.015625,-0.05273438,0.04882812,0.001953125,0,-0.008056641,-0.0004882812,0.1730957,0,0,0.199585,0.3105164,4.048,0,0,0,0.2999878,nan,2,9.861,1,128,0.2927246,0.3361206,0.2511597,0.3620911,0.01464844,0.00390625,0,1,3,0
4620.009,0.001011,-0.06445312,-0.078125,-0.02539062,0.078125,-3.625,10.70312,-0.009765625,-0.01953125,-0.06054688,0.04882812,0.001953125,0,-0.008056641,-0.0003662109,0.1724854,0,0,0.199585,0.3105164,4.048,0,0,0,0.2999878,nan,2,9.871,1,128,0.3308105,0.3110046,0.2696228,0.3306885,0.01464844,0.00390625,0,1,3,0
4620.019,0.001011,0.0234375,-0.0078125,-0.01953125,-1.65625,3.796875,11.42969,0.0078125,-0.02539062,-0.03125,0.046875,0.00390625,0,-0.00793457,-0.0006103516,0.1719971,0,0,0.199585,0.3105164,4.048,0,0,0,0.2999878,nan,2,9.881,1,128,0.3531189,0.2835388,0.3006287,0.3048096,0.01464844,0.00390625,0,1,3,0
4620.029,0.001011,-0.03515625,0.0390625,-0.009765625,-1.234375,4.257812,13.07031,-0.0234375,0.005859375,-0.01953125,0.046875,0.00390625,0,-0.0078125,-0.0006103516,0.1717529,0,0,0.199585,0.3105164,4.048,0,0,0,0.2999878,nan,2,9.891,1,128,0.3477478,0.2774353,0.295929,0.3210144,0.01464844,0.00390625,0,1,3,0
4620.039,0.001011,-0.02929688,0.005859375,0.01953125,1.234375,-1.679688,8.429688,-0.001953125,0.015625,0.00390625,0.046875,0.00390625,0,-0.0078125,-0.0006103516,0.1716309,0,0,0.199585,0.3105164,4.048,0,0,0,0.2999878,nan,2,9.901,1,128,0.3564758,0.2652588,0.3195801,0.3007812,0.01464844,0.00390625,0,1,3,0
4620.048,0.001075,-0.01171875,-0.02148438,0.1035156,0.1953125,-1.515625,6.257812,-0.0078125,-0.00390625,0.07617188,0.046875,0.00390625,0,-0.0078125,-0.0004882812,0.1719971,0,0,0.199585,0.3105164,4.048,0,0,0,0.2999878,nan,2,9.91,1,128,0.4271851,0.2069397,0.3753662,0.232605,0.01464844,0.00390625,0,1,3,0
4620.058,0.001013,-0.009765625,0.01171875,0.01171875,-0.7578125,2.4375,13.03906,0.01171875,0.02734375,0.05664062,0.046875,0.001953125,0,-0.00793457,-0.0004882812,0.1728516,0,0,0.199585,0.3105164,4.048,0,0,0,0.2999878,nan,2,9.92,1,128,0.2999268,0.3210754,0.272583,0.3485413,0.01464844,0.00390625,0,1,3,0
4620.068,0.001007,0.0078125,-0.001953125,-0.09960938,1.75,-1.1875,8.546875,-0.00390625,0.005859375,-0.06640625,0.046875,0.001953125,0,-0.00793457,-0.0002441406,0.1727295,0,0,0.199585,0.3105164,4.048,0,0,0,0.2999878,nan,2,9.93,1,128,0.209198,0.4242554,0.1603088,0.4483337,0.01464844,0.00390625,0,1,3,0
4620.078,0.001005,0.02539062,0.01757812,-0.0859375,1.398438,-3.726562,9.664062,0.03125,0.0234375,-0.1015625,0.04492188,0,0,-0.007568359,-0.0001220703,0.1717529,0,0,0.199585,0.3105164,4.048,0,0,0,0.2999878,nan,2,9.94,1,128,0.2821045,0.3414001,0.2496643,0.368927,0.01464844,0.00390625,0,1,3,0
4620.088,0.001009,0.001953125,0,0.03125,0.2578125,-1.578125,8.890625,0.005859375,0.0078125,0.009765625,0.04492188,0,0,-0.007446289,0.0001220703,0.1713867,0,0,0.199585,0.3105164,4.048,0,0,0,0.2999878,nan,2,9.951,1,128,0.4227295,0.2091064,0.3776245,0.2326355,0.01464844,0.00390625,0,1,3,0
4620.098,0.001009,-0.04296875,0.001953125,0.1113281,-1.414062,2.726562,8.59375,-0.07226562,0.005859375,0.0703125,0.046875,0,0,-0.0078125,0.0001220703,0.1717529,0,0,0.199585,0.3105164,4.048,0,0,0,0.2999878,nan,2,9.961,1,128,0.42453,0.2032776,0.361084,0.2532043,0.01464844,0.00390625,0,1,3,0
4620.109,0.001009,0.08203125,0.04492188,0.1835938,1.023438,-1.460938,10.76562,0.0390625,-0.001953125,0.15625,0.046875,0,0,-0.00769043,0,0.1729736,0,0,0.199585,0.3105164,4.048,0,0,0,0.2999878,nan,2,9.971,1,128,0.4429321,0.1820984,0.420166,0.1968994,0.01464844,0.00390625,0,1,3,0
4620.119,0.001009,0.09375,-0.06054688,0.1289062,0.21875,0.2109375,7.882812,0.03320312,-0.0078125,0.1308594,0.04492188,0,0,-0.007446289,0,0.1744385,0,0,0.199585,0.3105164,4.048,0,0,0,0.2999878,nan,2,9.981,1,128,0.3547974,0.2794189,0.3189392,0.2889709,0.01464844,0.00390625,0,1,3,0
4620.129,0.001009,-0.05664062,0.07421875,0.02929688,-0.8125,-1.859375,4.546875,-0.03710938,0.01953125,0.05664062,0.04296875,0,0,-0.007324219,0.0001220703,0.175415,0,0,0.199585,0.3105164,4.048,0,0,0,0.2999878,nan,2,9.991,1,128,0.2880249,0.3309631,0.2332458,0.3898621,0.01464844,0.00390625,0,1,3,0
4620.139,0.001009,-0.04492188,0.02734375,-0.01953125,1.1875,-0.828125,9.53125,-0.00390625,0.01171875,-0.00390625,0.04492188,-0.001953125,0,-0.007446289,0.0003662109,0.1755371,0,0,0.199585,0.3105164,4.048,0,0,0,0.2999878,nan,2,10.001,1,128,0.2801208,0.3506165,0.2346191,0.37677,0.01464844,0.00390625,0,1,3,0.4920635
4620.149,0.001009,0.04492188,0.05078125,-0.02148438,-2.164062,1.164062,10.78906,-0.001953125,0.009765625,-0.01171875,0.04492188,-0.001953125,0,-0.007446289,0.0003662109,0.175415,0,0,0.199585,0.3105164,4.048,0,0,0,0.2999878,nan,2,10.011,1,128,0.3153076,0.309082,0.2803345,0.3374023,0.01464844,0.00390625,0,1,3,0
4620.158,0.001008,0.0390625,0.0390625,-0.06640625,0.625,2.453125,10.07031,0.02929688,0.015625,-0.03515625,0.04492188,-0.001953125,0,-0.007446289,0.0003662109,0.175293,0,0,0.199585,0.3105164,4.048,0,0,0,0.2999878,nan,2,10.02,1,128,0.27948,0.3418579,0.2556458,0.3651428,0.01464844,0.00390625,0,1,3,0
4620.168,0.001018,0.00390625,-0.01953125,-0.02734375,0.859375,-2.578125,10.64844,0.01757812,0.005859375,-0.04101562,0.04296875,-0.001953125,0,-0.007202148,0.0004882812,0.1749268,0,0,0.199585,0.3105164,4.048,0,0,0,0.2999878,nan,2,10.03,1,128,0.312561,0.3151245,0.2716064,0.3427734,0.015625,0.00390625,0,1,3,0
4620.178,0.001049,-0.1542969,-0.03125,-0.08203125,0.5625,-4.65625,5.953125,-0.04101562,0,-0.06835938,0.04296875,-0.00390625,0,-0.007080078,0.0004882812,0.1744385,0,0,0.199585,0.3105164,4.048,0,0,0,0.2999878,nan,2,10.04,1,128,0.2731934,0.3585205,0.2023926,0.4079895,0.015625,0.00390625,0,1,3,0
4620.188,0.001012,0.0078125,-0.00390625,-0.03320312,-1.117188,1.234375,12.11719,-0.01171875,-0.01171875,-0.03710938,0.046875,-0.001953125,0,-0.0078125,0.0004882812,0.1739502,0,0,0.199585,0.3105164,4.048,0,0,0,0.2999878,nan,2,10.051,1,128,0.3405151,0.2929688,0.3052673,0.3033447,0.015625,0.00390625,0,1,3,0
4620.199,0.000983,-0.06640625,-0.04101562,0.00390625,-2.335938,2.578125,11.53906,-0.0078125,0.0078125,-0.01171875,0.046875,-0.001953125,0,-0.00793457,0.0004882812,0.1737061,0,0,0.199585,0.3105164,4.048,0,0,0,0.2999878,nan,2,10.061,1,128,0.3526611,0.2757874,0.3093872,0.3042603,0.015625,0.00390625,0,1,3,0
4620.209,0.001015,-0.0234375,0.09375,-0.06835938,0.8828125,2.820312,9.523438,-0.03710938,0.04101562,-0.03125,0.04882812,-0.00390625,0,-0.008300781,0.0006103516,0.173584,0,0,0.199585,0.3105164,4.048,0,0,0,0.2999878,nan,2,10.071,1,128,0.2776184,0.3364258,0.2398376,0.3882141,0.015625,0.00390625,0,1,3,0.4285714
4620.219,0.001007,-0.01757812,0.009765625,-0.01367188,2.5,-4.015625,13.8125,0.015625,-0.0078125,-0.005859375,0.04882812,-0.00390625,0,-0.008300781,0.0006103516,0.173584,0,0,0.199585,0.3105164,4.048,0,0,0,0.2999878,nan,2,10.081,1,128,0.3253784,0.3076477,0.2848816,0.3241882,0.015625,0.00390625,0,1,3,0
4620.229,0.001015,-0.01171875,0.02148438,-0.04296875,-1.023438,-0.6640625,10.08594,-0.01367188,0.001953125,-0.02539062,0.05078125,-0.00390625,0,-0.008300781,0.0006103516,0.1734619,0,0,0.199585,0.3105164,4.048,0,0,0,0.2999878,nan,2,10.091,1,128,0.3051758,0.3222046,0.2566223,0.3580933,0.015625,0.00390625,0,1,3,0.1269841
4620.239,0.001015,-0.02734375,0.015625,-0.04101562,-2.289062,3.851562,13.61719,-0.02734375,0.01367188,-0.03125,0.05078125,-0.00390625,0,-0.008544922,0.0007324219,0.1730957,0,0,0.199585,0.3105164,4.048,0,0,0,0.2999878,nan,2,10.101,1,128,0.3172302,0.3051758,0.273468,0.3462524,0.015625,0.00390625,0,1,3,0
4620.248,0.001009,0.0390625,0.001953125,0.0078125,0.984375,-0.796875,8.0625,-0.009765625,0.01367188,-0.02539062,0.05273438,-0.00390625,0,-0.008789062,0.0007324219,0.1728516,0,0,0.199585,0.3105164,4.048,0,0,0,0.2999878,nan,2,10.11,1,128,0.3383179,0.2868042,0.3018188,0.315155,0.015625,0.00390625,0,1,3,0
4620.258,0.001011,0.02929688,-0.03125,-0.0234375,1.859375,0.953125,6.109375,-0.00390625,-0.01757812,-0.005859375,0.05273438,-0.00390625,0,-0.008911133,0.0007324219,0.1728516,0,0,0.199585,0.3105164,4.048,0,0,0,0.2999878,nan,2,10.12,1,128,0.3346863,0.3024902,0.2814026,0.3235474,0.015625,0.00390625,0,1,3,0
4620.268,0.00101,0.04101562,-0.02148438,-0.04882812,0.34375,-4.023438,8.734375,0.02734375,-0.0078125,-0.03515625,0.05273438,-0.00390625,0,-0.008789062,0.0007324219,0.1726074,0,0,0.199585,0.3105164,4.048,0,0,0,0.2999878,nan,2,10.13,1,128,0.2914429,0.3400269,0.2532043,0.3574219,0.015625,0.00390625,0,1,3,0.4920635
4620.278,0.001008,-0.02148438,0.01367188,0.01171875,-1.328125,3.601562,11.85156,-0.005859375,-0.01757812,-0.0078125,0.05273438,-0.00390625,0,-0.008789062,0.0004882812,0.1723633,0,0,0.199585,0.3105164,4.048,0,0,0,0.2999878,nan,2,10.14,1,128,0.3602905,0.269104,0.3089294,0.303772,0.015625,0.00390625,0,1,3,0
4620.288,0.001009,-0.0390625,0.0390625,0.0078125,-0.5546875,-0.7109375,12.47656,-0.0234375,0.01171875,0.001953125,0.05273438,-0.001953125,0,-0.008666992,0.0004882812,0.1723633,0,0,0.199585,0.3105164,4.048,0,0,0,0.2999878,nan,2,10.151,1,128,0.3385925,0.2820435,0.2892151,0.3322449,0.015625,0.00390625,0,1,3,0
4620.298,0.001009,0.05273438,-0.04296875,-0.05078125,2.679688,1.890625,8.195312,0.01953125,-0.01171875,-0.03320312,0.05273438,-0.001953125,0,-0.008911133,0.0004882812,0.1723633,0,0,0.199585,0.3105164,4.048,0,0,0,0.2999878,nan,2,10.161,1,128,0.2740784,0.3608398,0.2340088,0.3731995,0.015625,0.00390625,0,1,3,0
4620.308,0.001009,0.06640625,-0.06640625,-0.01953125,0.953125,-5.96875,9.578125,0.001953125,-0.009765625,-0.06640625,0.05273438,-0.00390625,0,-0.008911133,0.0006103516,0.1716309,0,0,0.199585,0.3105164,4.048,0,0,0,0.2999878,nan,2,10.171,1,128,0.3236084,0.3144226,0.2744751,0.3295898,0.015625,0.00390625,0,1,3,0
4620.319,0.001009,0.01367188,-0.0234375,0.0546875,-0.8125,-2.359375,6.203125,-0.015625,0.005859375,0.0390625,0.0546875,-0.001953125,0,-0.009155273,0.0004882812,0.1715088,0,0,0.199585,0.3105164,4.048,0,0,0,0.2999878,nan,2,10.181,1,128,0.4273682,0.1968994,0.3872681,0.2305603,0.015625,0.00390625,0,1,3,0
4620.329,0.001009,0.04296875,0.00390625,0.07617188,-0.7734375,2.96875,12.60938,0.01757812,0.0078125,0.06640625,0.0546875,-0.001953125,0,-0.009033203,0.0004882812,0.1721191,0,0,0.199585,0.3105164,4.048,0,0,0,0.2999878,nan,2,10.191,1,128,0.3694763,0.2545471,0.3329773,0.2850952,0.01660156,0.00390625,0,1,3,0
4620.339,0.001009,-0.02148438,0.046875,0.03320312,0.359375,-5.007812,3.914062,-0.02148438,0,0.0390625,0.0546875,-0.00390625,0,-0.009033203,0.0004882812,0.1727295,0,0,0.199585,0.3105164,4.048,0,0,0,0.2999878,nan,2,10.201,1,128,0.3211365,0.3082581,0.2629089,0.3497925,0.01660156,0.00390625,0,1,3,0
4620.348,0.001025,0.05273438,-0.08398438,0.06640625,-1.21875,3.898438,12.82812,0.005859375,-0.02734375,0.05859375,0.0546875,-0.00390625,0,-0.009155273,0.0004882812,0.1730957,0,0,0.199585,0.3105164,4.048,0,0,0,0.2999878,nan,2,10.21,1,128,0.3791199,0.2652893,0.3253784,0.2723083,0.01660156,0.00390625,0,1,3,0
4620.358,0.001007,0.03320312,0.005859375,0.07226562,0.6015625,-0.8515625,6.632812,0.001953125,0,0.06054688,0.0546875,-0.001953125,0,-0.009155273,0.0004882812,0.1737061,0,0,0.199585,0.3105164,4.048,0,0,0,0.2999878,nan,2,10.22,1,128,0.3638916,0.2633667,0.3227844,0.2920532,0.01660156,0.00390625,0,1,3,0
4620.368,0.001032,0.001953125,0.00390625,0.078125,0.890625,-3.898438,10.64062,-0.001953125,0.01367188,0.08203125,0.0546875,-0.00390625,0,-0.009033203,0.0006103516,0.1744385,0,0,0.199585,0.3105164,4.048,0,0,0,0.2999878,nan,2,10.23,1,128,0.3787231,0.2462769,0.3343201,0.2828064,0.01660156,0.00390625,0,1,3,0
4620.378,0.001013,-0.04882812,0.07226562,0.05273438,-1.257812,5.296875,14.25781,0.005859375,0.046875,0.06835938,0.0546875,-0.00390625,0,-0.009033203,0.0007324219,0.175293,0,0,0.199585,0.3105164,4.048,0,0,0,0.2999878,nan,2,10.24,1,128,0.3166504,0.2934265,0.2890625,0.3429565,0.01660156,0.00390625,0,1,3,0
4620.389,0.001019,0.02148438,-0.0234375,-0.02148438,1.335938,-1.664062,10.84375,-0.001953125,-0.001953125,-0.00390625,0.0546875,-0.005859375,0,-0.009033203,0.001098633,0.1755371,0,0,0.199585,0.3105164,4.048,0,0,0,0.2999878,nan,2,10.251,1,128,0.27771,0.3625183,0.2219543,0.3799133,0.01660156,0.00390625,0,1,3,0
4620.398,0.001011,-0.1113281,-0.02148438,0.009765625,0.6640625,-1.546875,7.742188,-0.015625,-0.0078125,-0.00390625,0.0546875,-0.0078125,0,-0.009033203,0.001220703,0.175415,0,0,0.199585,0.3105164,4.048,0,0,0,0.2999878,nan,2,10.261,1,128,0.3475647,0.2885742,0.2799988,0.3259583,0.01660156,0.00390625,0,1,3,0
4620.409,0.001036,0.009765625,0.0078125,-0.05273438,-2.070312,2.429688,11.54688,0.03515625,0.001953125,-0.03320312,0.05273438,-0.0078125,0,-0.008911133,0.001220703,0.1751709,0,0,0.199585,0.3105164,4.048,0,0,0,0.2999878,nan,2,10.271,1,128,0.2923584,0.3370361,0.2599487,0.3527527,0.01660156,0.00390625,0,1,3,0
4620.419,0.001011,0.009765625,0.0078125,-0.001953125,-1.28125,2,11.46094,0.009765625,0.001953125,-0.00390625,0.05273438,-0.0078125,0,-0.008789062,0.001342773,0.1750488,0,0,0.199585,0.3105164,4.048,0,0,0,0.2999878,nan,2,10.281,1,128,0.3575439,0.2746277,0.3061218,0.3038025,0.01660156,0.00390625,0,1,3,0
4620.429,0.001011,-0.06445312,-0.009765625,0.00390625,2.085938,0.7734375,6.84375,-0.01953125,-0.005859375,-0.01757812,0.05273438,-0.0078125,0,-0.008911133,0.001342773,0.1748047,0,0,0.199585,0.3105164,4.048,0,0,0,0.2999878,nan,2,10.291,1,128,0.3382874,0.2924805,0.278717,0.3326111,0.01660156,0.00390625,0,1,3,0
4620.439,0.001011,-0.03125,0.03320312,-0.015625,0.8984375,-4.265625,11.55469,0.00390625,0.02734375,-0.01367188,0.05273438,-0.009765625,0,-0.008911133,0.001586914,0.1746826,0,0,0.199585,0.3105164,4.048,0,0,0,0.2999878,nan,2,10.301,1,128,0.3291016,0.290863,0.2951355,0.3269958,0.01660156,0.00390625,0,1,3,0
4620.448,0.001066,-0.04882812,-0.00390625,0.078125,-1.429688,3.046875,10.875,-0.009765625,0.0078125,0.04296875,0.05273438,-0.009765625,0,-0.008911133,0.001708984,0.1748047,0,0,0.199585,0.3105164,4.048,0,0,0,0.2999878,nan,2,10.31,1,128,0.4110413,0.2175293,0.3559265,0.2575989,0.01660156,0.00390625,0,1,3,0
4620.458,0.001049,0.00390625,-0.01171875,0.0390625,0.6875,-1.921875,11.22656,-0.00390625,-0.02148438,0.06640625,0.0546875,-0.009765625,0,-0.009033203,0.001586914,0.175415,0,0,0.199585,0.3105164,4.048,0,0,0,0.2999878,nan,2,10.32,1,128,0.368927,0.2695923,0.3134155,0.2901611,0.01660156,0.00390625,0,1,3,0
4620.468,0.001036,-0.02539062,0.0234375,-0.1113281,1.460938,1.585938,9.1875,0,0,-0.05859375,0.0546875,-0.009765625,0,-0.009155273,0.001586914,0.175415,0,0,0.199585,0.3105164,4.048,0,0,0,0.2999878,nan,2,10.33,1,128,0.1998596,0.4238892,0.1561279,0.4622192,0.01660156,0.00390625,0,1,3,0.2063492
4620.478,0.001009,-0.09765625,-0.03320312,-0.1328125,-1.195312,-2.296875,7.773438,-0.04882812,-0.01367188,-0.1503906,0.0546875,-0.009765625,0,-0.009155273,0.001586914,0.1741943,0,0,0.199585,0.3105164,4.048,0,0,0,0.2999878,nan,2,10.34,1,128,0.2348938,0.3986206,0.1622009,0.4463806,0.01660156,0.00390625,0,1,3,0
4620.488,0.001007,-0.08007812,0.01171875,-0.00390625,-2.070312,0.671875,10.60938,-0.03710938,0.06054688,-0.03515625,0.05664062,-0.01171875,0,-0.009521484,0.001953125,0.1733398,0,0,0.199585,0.3105164,4.048,0,0,0,0.2999878,nan,2,10.35,1,128,0.411499,0.2032471,0.3657532,0.2616272,0.01660156,0.00390625,0,1,3,0
4620.498,0.001026,0.1230469,0.05664062,0.1015625,-1.703125,5.335938,12.74219,0.0703125,0.0234375,0.08398438,0.05664062,-0.01367188,0,-0.009399414,0.002319336,0.1737061,0,0,0.199585,0.3105164,4.048,0,0,0,0.2999878,nan,2,10.361,1,128,0.4584656,0.1669617,0.4441223,0.1725769,0.01757812,0.00390625,0,1,3,0
4620.509,0.001009,-0.04101562,0.02734375,0.1210938,-0.328125,-2.710938,11.25,0.06054688,-0.01367188,0.1132812,0.05078125,-0.01367188,0,-0.008422852,0.002197266,0.1746826,0,0,0.199585,0.3105164,4.048,0,0,0,0.2999878,nan,2,10.371,1,128,0.4034729,0.2263489,0.3531799,0.2590942,0.01660156,0.00390625,0,1,3,0
4620.519,0.001009,0,-0.02148438,0.05859375,-1.007812,3.9375,11.35938,0.015625,-0.001953125,0.08203125,0.05078125,-0.01367188,0,-0.008300781,0.002319336,0.1757812,0,0,0.199585,0.3105164,4.048,0,0,0,0.2999878,nan,2,10.381,1,128,0.3240051,0.3062439,0.2727661,0.3391113,0.01757812,0.00390625,0,1,3,0
4620.529,0.001009,0.0546875,-0.03125,0.03710938,0.9453125,-2.648438,8.984375,0.01757812,-0.01953125,0.04296875,0.04882812,-0.01367188,0,-0.008178711,0.002319336,0.1762695,0,0,0.199585,0.3105164,4.048,0,0,0,0.2999878,nan,2,10.391,1,128,0.3164978,0.3195801,0.2692871,0.3367615,0.01757812,0.00390625,0,1,3,0.1111111
4620.539,0.001009,-0.005859375,-0.03710938,0.005859375,0.296875,-0.34375,7.789062,-0.01367188,-0.00390625,0.0078125,0.04882812,-0.01367188,0,-0.008178711,0.002319336,0.1765137,0,0,0.199585,0.3105164,4.048,0,0,0,0.2999878,nan,2,10.401,1,128,0.3117065,0.3176575,0.2575684,0.3551941,0.01757812,0.00390625,0,1,3,0
4620.549,0.001009,-0.0078125,0.01171875,-0.03125,-1.523438,0.921875,11.99219,-0.01367188,-0.00390625,-0.00390625,0.04882812,-0.01367188,0,-0.008178711,0.002319336,0.1765137,0,0,0.199585,0.3105164,4.048,0,0,0,0.2999878,nan,2,10.411,1,128,0.3181152,0.3104553,0.2640686,0.3494568,0.01757812,0.00390625,0,1,3,0
4620.558,0.00101,-0.03320312,-0.02929688,-0.04296875,1.726562,0.375,7.65625,-0.00390625,0.01953125,-0.05078125,0.05078125,-0.01367188,0,-0.008300781,0.002319336,0.1761475,0,0,0.199585,0.3105164,4.048,0,0,0,0.2999878,nan,2,10.42,1,128,0.2941589,0.3288574,0.2533569,0.3657532,0.01757812,0.00390625,0,1,3,0
4620.568,0.001017,0.09375,-0.01367188,-0.06054688,1.554688,0.2265625,6.554688,-0.001953125,0.02148438,-0.05273438,0.05078125,-0.015625,0,-0.008544922,0.002685547,0.1756592,0,0,0.199585,0.3105164,4.048,0,0,0,0.2999878,nan,2,10.43,1,128,0.3087769,0.3179626,0.2691956,0.3461914,0.01757812,0.00390625,0,1,3,0
4620.578,0.00101,0.02148438,0.03710938,-0.04296875,1.375,-3.835938,7.820312,0.03125,0.009765625,-0.0546875,0.04882812,-0.015625,0,-0.008056641,0.002685547,0.1750488,0,0,0.199585,0.3105164,4.048,0,0,0,0.2999878,nan,2,10.44,1,128,0.3146362,0.3079529,0.2736511,0.3458252,0.01757812,0.00390625,0,1,3,0
4620.588,0.001012,-0.08007812,-0.01367188,-0.001953125,1.09375,-1.015625,8.53125,0.00390625,-0.009765625,-0.0234375,0.04492188,-0.015625,0,-0.007446289,0.002685547,0.1746826,0,0,0.199585,0.3105164,4.048,0,0,0,0.2999878,nan,2,10.45,1,128,0.3772583,0.2536926,0.3070374,0.3041077,0.01757812,0.00390625,0,1,3,0
4620.598,0.000962,0.0390625,0.02539062,-0.02734375,-0.75,-0.703125,10.14062,-0.01367188,0,-0.02734375,0.04492188,-0.015625,0,-0.007446289,0.002563477,0.1744385,0,0,0.199585,0.3105164,4.048,0,0,0,0.2999878,nan,2,10.461,1,128,0.3204346,0.3033447,0.2703552,0.3479309,0.01757812,0.00390625,0,1,3,0.1111111
4620.608,0.000877,0,0.0546875,0.01171875,-2.96875,2.539062,11.59375,0.00390625,0.001953125,0.01953125,0.04492188,-0.015625,0,-0.007324219,0.002441406,0.1745605,0,0,0.199585,0.3105164,4.048,0,0,0,0.2999878,nan,2,10.471,1,128,0.361969,0.2582397,0.3201599,0.3017578,0.01757812,0.00390625,0,1,3,0
4620.618,0.001163,0.07617188,-0.009765625,0.0390625,1.875,3.21875,11.83594,0.01367188,0.005859375,0.02148438,0.04492188,-0.015625,0,-0.007324219,0.002563477,0.1746826,0,0,0.199585,0.3105164,4.048,0,0,0,0.2999878,nan,2,10.48,1,128,0.3456726,0.2790527,0.3078308,0.3095703,0.01757812,0.00390625,0,1,3,0
4620.629,0.001003,-0.07226562,0.00390625,0.03710938,0.9765625,-2.484375,6.054688,-0.02929688,0.02734375,0.01953125,0.04296875,-0.015625,0,-0.007202148,0.002685547,0.1749268,0,0,0.199585,0.3105164,4.048,0,0,0,0.2999878,nan,2,10.491,1,128,0.3466797,0.2703857,0.290802,0.3342285,0.01757812,0.00390625,0,1,3,0
4620.639,0.001006,0.04296875,-0.02539062,0.03710938,1.40625,-1.6875,9.109375,0.0078125,-0.001953125,0.03515625,0.04296875,-0.015625,0,-0.007202148,0.002685547,0.1751709,0,0,0.199585,0.3105164,4.048,0,0,0,0.2999878,nan,2,10.501,1,128,0.3535156,0.2740479,0.3124084,0.3021545,0.01757812,0.00390625,0,1,3,0.07936508
4620.648,0.001316,-0.046875,0.046875,-0.0078125,-2.242188,-0.7265625,12.17188,-0.015625,0.01367188,0.009765625,0.04296875,-0.015625,0,-0.007324219,0.002685547,0.175415,0,0,0.199585,0.3105164,4.048,0,0,0,0.2999878,nan,2,10.51,1,128,0.3122864,0.3078308,0.26651,0.3554688,0.01757812,0.00390625,0,1,3,0
4620.658,0.001011,-0.02929688,-0.04101562,-0.1113281,0.7734375,3.890625,12.70312,-0.001953125,-0.01953125,-0.06445312,0.04492188,-0.015625,0,-0.007446289,0.002563477,0.1751709,0,0,0.199585,0.3105164,4.048,0,0,0,0.2999878,nan,2,10.52,1,128,0.2419434,0.394104,0.1890869,0.4169617,0.01757812,0.00390625,0,1,3,0
4620.668,0.001014,0,-0.03515625,-0.009765625,0.8828125,-0.8203125,10.19531,0.03515625,-0.02148438,-0.03710938,0.04296875,-0.015625,0,-0.007202148,0.002563477,0.1744385,0,0,0.199585,0.3105164,4.048,0,0,0,0.2999878,nan,2,10.53,1,128,0.3671875,0.2670898,0.3249512,0.2828979,0.01757812,0.00390625,0,1,3,0.04761905
4620.678,0.001001,-0.08984375,0,0.00390625,0.8984375,1.632812,8.171875,0.01171875,0.0234375,-0.01367188,0.04101562,-0.015625,0,-0.006958008,0.002563477,0.1743164,0,0,0.199585,0.3105164,4.048,0,0,0,0.2999878,nan,2,10.54,1,128,0.3439026,0.2750244,0.3003845,0.3227844,0.01757812,0.00390625,0,1,3,0
4620.688,0.00101,-0.02539062,0.04296875,0.06835938,1.765625,-3.382812,10.21875,0.03515625,0.0078125,0.04492188,0.04101562,-0.015625,0,-0.006835938,0.002685547,0.1744385,0,0,0.199585,0.3105164,4.048,0,0,0,0.2999878,nan,2,10.55,1,128,0.3962097,0.2289124,0.3632812,0.2537231,0.01757812,0.00390625,0,1,3,0
4620.698,0.001,0.01367188,-0.01953125,0.03710938,-0.7265625,0.1953125,9.9375,-0.009765625,-0.00390625,0.04101562,0.04101562,-0.01757812,0,-0.006835938,0.002807617,0.1749268,0,0,0.199585,0.3105164,4.048,0,0,0,0.2999878,nan,2,10.561,1,128,0.3480835,0.2812805,0.2905579,0.3221741,0.01757812,0.00390625,0,1,3,0.5396826
4620.708,0.001011,-0.03515625,-0.0390625,0.02734375,-1.484375,4.296875,14.04688,-0.01953125,0.001953125,0.02929688,0.04101562,-0.01757812,0,-0.006835938,0.002807617,0.175293,0,0,0.199585,0.3105164,4.048,0,0,0,0.2999878,nan,2,10.571,1,128,0.3389282,0.2876587,0.2870789,0.3284607,0.01757812,0.002929688,0,1,3,0
4620.719,0.001003,-0.00390625,0.015625,0.01953125,0.8828125,0.1953125,8.140625,0.009765625,-0.02734375,0.02734375,0.04101562,-0.015625,0,-0.006835938,0.002563477,0.1755371,0,0,0.199585,0.3105164,4.048,0,0,0,0.2999878,nan,2,10.581,1,128,0.34198,0.2909546,0.2940063,0.315155,0.01757812,0.002929688,0,1,3,0
4620.729,0.001011,-0.04296875,-0.02148438,0.07226562,1.320312,-5.007812,10.21094,-0.02929688,-0.015625,0.05664062,0.04296875,-0.015625,0,-0.006958008,0.002563477,0.1759033,0,0,0.199585,0.3105164,4.048,0,0,0,0.2999878,nan,2,10.591,1,128,0.399353,0.2333069,0.3362427,0.2731628,0.01757812,0.002929688,0,1,3,0
4620.739,0.001011,0.09960938,-0.08007812,0.04882812,0.046875,1.695312,11.42188,0.01953125,-0.02734375,0.06445312,0.04492188,-0.015625,0,-0.007446289,0.002563477,0.1766357,0,0,0.199585,0.3105164,4.048,0,0,0,0.2999878,nan,2,10.601,1,128,0.3466797,0.2938843,0.3061218,0.2954407,0.01757812,0.002929688,0,1,3,0
4620.749,0.001011,-0.04296875,-0.005859375,-0.08789062,-0.6015625,2.195312,12.57812,-0.009765625,0.005859375,-0.046875,0.04296875,-0.01367188,0,-0.007202148,0.002319336,0.1766357,0,0,0.199585,0.3105164,4.048,0,0,0,0.2999878,nan,2,10.611,1,128,0.2167358,0.3988037,0.1723022,0.4542542,0.01757812,0.002929688,0,1,3,0
4620.758,0.001031,-0.02148438,0.06054688,-0.07226562,1.703125,-3.148438,7.023438,0.05273438,0.03125,-0.06445312,0.04296875,-0.01367188,0,-0.007080078,0.002319336,0.1761475,0,0,0.199585,0.3105164,4.048,0,0,0,0.2999878,nan,2,10.62,1,128,0.2690125,0.3417358,0.2525635,0.3788147,0.01757812,0.002929688,0,1,3,0
4620.768,0.001008,0.00390625,-0.05078125,-0.001953125,1.570312,-3.796875,6.507812,0.01953125,0.009765625,-0.02734375,0.04101562,-0.015625,0,-0.006958008,0.002563477,0.1756592,0,0,0.199585,0.3105164,4.048,0,0,0,0.2999878,nan,2,10.63,1,128,0.3623657,0.2676392,0.3180847,0.2940369,0.01757812,0.002929688,0,1,3,0
4620.778,0.001,0.0546875,-0.06445312,0.03710938,0.7890625,-6.703125,9.28125,-0.009765625,0.001953125,-0.01171875,0.04296875,-0.015625,0,-0.007202148,0.002563477,0.1755371,0,0,0.199585,0.3105164,4.048,0,0,0,0.2999878,nan,2,10.64,1,128,0.3416748,0.2860718,0.2963562,0.3179932,0.01855469,0.002929688,0,1,3,0
4620.788,0.001009,0.04101562,-0.08984375,-0.009765625,-0.59375,1.671875,11.30469,0.0546875,-0.02539062,-0.009765625,0.04296875,-0.015625,0,-0.007080078,0.002563477,0.175415,0,0,0.199585,0.3105164,4.048,0,0,0,0.2999878,nan,2,10.65,1,128,0.3308105,0.3088684,0.2951355,0.3072815,0.01855469,0.002929688,0,1,3,0
4620.799,0.001052,0.05273438,-0.01367188,0.03710938,-2.625,3.257812,13.67969,0.01171875,0.01367188,-0.0078125,0.04101562,-0.015625,0,-0.006958008,0.002563477,0.1751709,0,0,0.199585,0.3105164,4.048,0,0,0,0.2999878,nan,2,10.661,1,128,0.3508911,0.2705078,0.3120117,0.3087158,0.01855469,0.002929688,0,1,3,0
4620.808,0.001013,0.05078125,0.005859375,0.02148438,0.1953125,1.90625,10.10938,0.04101562,-0.009765625,0.015625,0.0390625,-0.01367188,0,-0.006591797,0.002441406,0.175293,0,0,0.199585,0.3105164,4.048,0,0,0,0.2999878,nan,2,10.671,1,128,0.3546143,0.2735291,0.3147583,0.2992249,0.01855469,0.002929688,0,1,3,0.01587302
4620.819,0.001013,0.01953125,-0.01367188,0.04492188,0.890625,-1.445312,8.726562,0.03320312,-0.0078125,0.04296875,0.03710938,-0.015625,0,-0.006103516,0.002441406,0.1756592,0,0,0.199585,0.3105164,4.048,0,0,0,0.2999878,nan,2,10.681,1,128,0.3676758,0.2619324,0.3231812,0.2893372,0.01855469,0.002929688,0,1,3,0
4620.829,0.001013,0.03320312,-0.03125,-0.08789062,0.984375,0.4453125,8.859375,0.0078125,-0.01367188,-0.03710938,0.03710938,-0.01367188,0,-0.006103516,0.002441406,0.1757812,0,0,0.199585,0.3105164,4.048,0,0,0,0.2999878,nan,2,10.691,1,128,0.2359619,0.3954773,0.1853638,0.4253235,0.01855469,0.002929688,0,1,3,0
4620.839,0.001013,0.03320312,0.03125,-0.171875,-1.703125,2.117188,9.601562,0.03710938,0.01367188,-0.1347656,0.03710938,-0.01367188,0,-0.006103516,0.002441406,0.1748047,0,0,0.199585,0.3105164,4.048,0,0,0,0.2999878,nan,2,10.701,1,128,0.1885376,0.427948,0.1680603,0.45755,0.01855469,0.002929688,0,1,3,0
4620.849,0.001013,-0.0546875,0.07421875,-0.04101562,-2.71875,1.882812,12.14844,0,0,-0.05859375,0.03320312,-0.015625,0,-0.005615234,0.002563477,0.1738281,0,0,0.199585,0.3105164,4.048,0,0,0,0.2999878,nan,2,10.711,1,128,0.3840332,0.2438049,0.3193665,0.2948914,0.01855469,0.002929688,0,1,3,0
4620.858,0.001011,-0.005859375,-0.0390625,0.015625,-0.7734375,3.039062,13.03906,-0.02148438,-0.01757812,-0.001953125,0.03320312,-0.015625,0,-0.005737305,0.002563477,0.173584,0,0,0.199585,0.3105164,4.048,0,0,0,0.2999878,nan,2,10.72,1,128,0.3970642,0.236084,0.3340759,0.2748718,0.01855469,0.002929688,0,1,3,0
4620.868,0.000966,-0.01367188,0.0234375,0.0390625,1.195312,0.421875,10.5,-0.03515625,-0.00390625,0.05078125,0.03515625,-0.01367188,0,-0.005859375,0.002441406,0.1739502,0,0,0.199585,0.3105164,4.048,0,0,0,0.2999878,nan,2,10.73,1,128,0.3824158,0.2396545,0.3318787,0.288147,0.01855469,0.002929688,0,1,3,0
4620.878,0.000995,0.001953125,0.02148438,-0.04882812,-0.1796875,-2.96875,6.273438,-0.00390625,0.001953125,-0.03320312,0.03710938,-0.01367188,0,-0.006103516,0.002441406,0.1740723,0,0,0.199585,0.3105164,4.048,0,0,0,0.2999878,nan,2,10.74,1,128,0.2443848,0.3795166,0.2030029,0.4152222,0.01855469,0.002929688,0,1,3,0
4620.888,0.001014,0.06054688,0.03125,-0.009765625,-1.304688,1.695312,10.23438,0.0234375,-0.015625,-0.015625,0.03515625,-0.01367188,0,-0.005981445,0.002319336,0.1738281,0,0,0.199585,0.3105164,4.048,0,0,0,0.2999878,nan,2,10.75,1,128,0.3371277,0.2911987,0.3001709,0.3135986,0.01855469,0.002929688,0,1,3,0
4620.898,0.001011,0.01171875,-0.01757812,0.02734375,-1.5,1.914062,12.15625,0.009765625,-0.001953125,0.02734375,0.03515625,-0.01367188,0,-0.005859375,0.002197266,0.1738281,0,0,0.199585,0.3105164,4.048,0,0,0,0.2999878,nan,2,10.761,1,128,0.3785095,0.2461853,0.335022,0.2823486,0.01855469,0.002929688,0,1,3,0
4620.908,0.001011,-0.01171875,-0.0234375,-0.01171875,1.539062,1.523438,9.414062,0.01953125,0.005859375,0.01367188,0.03515625,-0.01367188,0,-0.005859375,0.002197266,0.1741943,0,0,0.199585,0.3105164,4.048,0,0,0,0.2999878,nan,2,10.771,1,128,0.3040771,0.3206177,0.2675171,0.3499146,0.01855469,0.002929688,0,1,3,0.03174603
4620.919,0.001011,-0.01171875,0.00390625,-0.04101562,0.6953125,-6.3125,10.90625,0.04101562,-0.02148438,-0.03320312,0.03320312,-0.01171875,0,-0.005493164,0.001953125,0.1741943,0,0,0.199585,0.3105164,4.048,0,0,0,0.2999878,nan,2,10.781,1,128,0.2674866,0.3593445,0.2269287,0.3883362,0.01855469,0.002929688,0,1,3,0
4620.929,0.001011,-0.01171875,0.04492188,-0.06640625,-0.8359375,0.6484375,12.4375,0.009765625,-0.00390625,-0.04101562,0.03320312,-0.01171875,0,-0.005371094,0.001831055,0.1738281,0,0,0.199585,0.3105164,4.048,0,0,0,0.2999878,nan,2,10.791,1,128,0.301178,0.3218079,0.2573853,0.3617249,0.01855469,0.002929688,0,1,3,0
4620.939,0.001011,-0.1542969,0.01171875,-0.02539062,-2.65625,3.90625,13.60156,-0.04882812,0.001953125,-0.015625,0.03320312,-0.01171875,0,-0.005615234,0.001953125,0.173584,0,0,0.199585,0.3105164,4.048,0,0,0,0.2999878,nan,2,10.801,1,128,0.3467712,0.278595,0.2808533,0.3358765,0.01855469,0.002929688,0,1,3,0
4620.948,0.001,-0.02734375,0.0546875,-0.0234375,0.1640625,2.203125,9.5625,-0.009765625,0.01953125,-0.01367188,0.03515625,-0.01171875,0,-0.005737305,0.001953125,0.1733398,0,0,0.199585,0.3105164,4.048,0,0,0,0.2999878,nan,2,10.81,1,128,0.333313,0.28479,0.292572,0.3314209,0.01855469,0.002929688,0,1,3,0.4126984
4620.958,0.000982,0,0.02734375,-0.0390625,1.53125,-1.164062,8.960938,-0.0078125,-0.009765625,-0.01757812,0.03515625,-0.01171875,0,-0.005737305,0.001953125,0.1733398,0,0,0.199585,0.3105164,4.048,0,0,0,0.2999878,nan,2,10.82,1,128,0.3174133,0.3113098,0.2666321,0.3467712,0.01855469,0.002929688,0,1,3,0
4620.968,0.001002,0.02539062,0.04101562,-0.1054688,-0.375,-3.484375,9.632812,0.01367188,0,-0.08007812,0.03515625,-0.01171875,0,-0.005737305,0.001953125,0.1728516,0,0,0.199585,0.3105164,4.048,0,0,0,0.2999878,nan,2,10.83,1,128,0.2424622,0.3818054,0.2045593,0.4132996,0.01855469,0.002929688,0,1,3,0.03174603
4620.978,0.00096,0,0.05859375,-0.09179688,-0.859375,-0.265625,9.820312,-0.001953125,0.00390625,-0.08398438,0.03320312,-0.01171875,0,-0.005615234,0.002075195,0.171875,0,0,0.199585,0.3105164,4.048,0,0,0,0.2999878,nan,2,10.84,1,128,0.3158875,0.3087463,0.265686,0.3517761,0.01855469,0.002929688,0,1,3,0.6031746
4620.988,0.001028,-0.03515625,-0.06640625,-0.03320312,-2.335938,1.625,10.92188,-0.01171875,-0.01953125,-0.02929688,0.03320312,-0.01171875,0,-0.005615234,0.002075195,0.1712646,0,0,0.199585,0.3105164,4.048,0,0,0,0.2999878,nan,2,10.85,1,128,0.3755188,0.2609558,0.3123779,0.2932434,0.01855469,0.002929688,0,1,3,0
4620.999,0.00106,-0.009765625,-0.05078125,-0.0234375,-0.5,3.320312,12.69531,-0.03515625,0,-0.0390625,0.03710938,-0.01171875,0,-0.006103516,0.001953125,0.1710205,0,0,0.199585,0.3105164,4.048,0,0,0,0.2999878,nan,2,10.861,1,128,0.3165588,0.3082886,0.2667236,0.3505554,0.01855469,0.002929688,0,1,3,0
4621.009,0.001019,0.01171875,-0.015625,-0.02148438,2.09375,0.3203125,8.695312,-0.01367188,-0.01953125,-0.01757812,0.0390625,-0.009765625,0,-0.006347656,0.001831055,0.1707764,0,0,0.199585,0.3105164,4.048,0,0,0,0.2999878,nan,2,10.871,1,128,0.3440857,0.2870483,0.2949219,0.3160095,0.01855469,0.002929688,0,1,3,0
4621.019,0.001013,-0.02148438,-0.03710938,-0.03710938,1.007812,-4.203125,10.17969,0.001953125,0,-0.04101562,0.0390625,-0.01171875,0,-0.006347656,0.001831055,0.1704102,0,0,0.199585,0.3105164,4.048,0,0,0,0.2999878,nan,2,10.881,1,128,0.3160706,0.3122253,0.2695312,0.3442688,0.01855469,0.002929688,0,1,3,0
4621.029,0.000974,0.046875,0.0078125,0.01757812,-1.007812,0.515625,6.554688,-0.01171875,-0.01171875,0.00390625,0.0390625,-0.01171875,0,-0.006469727,0.001831055,0.170166,0,0,0.199585,0.3105164,4.048,0,0,0,0.2999878,nan,2,10.891,1,128,0.3795776,0.25177,0.3259888,0.2847595,0.01855469,0.002929688,0,1,3,0
4621.038,0.000953,0.08398438,0.005859375,0.0234375,-1.59375,2.71875,13.70312,0.015625,0,0.0234375,0.0390625,-0.009765625,0,-0.006469727,0.001831055,0.1702881,0,0,0.199585,0.3105164,4.048,0,0,0,0.2999878,nan,2,10.9,1,128,0.3543396,0.2695618,0.3188477,0.2993469,0.01855469,0.002929688,0,1,3,0
4621.048,0.001047,-0.02734375,-0.0390625,0.01171875,1.375,0.6484375,6.773438,-0.01757812,-0.01757812,0.009765625,0.0390625,-0.009765625,0,-0.006347656,0.001708984,0.1704102,0,0,0.199585,0.3105164,4.048,0,0,0,0.2999878,nan,2,10.91,1,128,0.3442383,0.2886658,0.2795715,0.3296204,0.01855469,0.002929688,0,1,3,0
4621.058,0.001011,-0.009765625,-0.0234375,0.0625,1.273438,-3.265625,9.671875,0.015625,-0.001953125,0.04101562,0.0390625,-0.009765625,0,-0.006347656,0.001708984,0.1706543,0,0,0.199585,0.3105164,4.048,0,0,0,0.2999878,nan,2,10.92,1,128,0.3789673,0.2478638,0.336853,0.2784119,0.01953125,0.002929688,0,1,3,0
4621.068,0.001014,0.009765625,0.02929688,0.05859375,-2.632812,-0.15625,10.94531,-0.001953125,0,0.0625,0.0390625,-0.009765625,0,-0.006591797,0.001586914,0.1712646,0,0,0.199585,0.3105164,4.048,0,0,0,0.2999878,nan,2,10.93,1,128,0.3612671,0.2615356,0.3201904,0.2991333,0.01953125,0.002929688,0,1,3,0
4621.078,0.001024,-0.00390625,0.009765625,0.08398438,1.46875,0.8046875,9.492188,-0.001953125,0.01757812,0.06835938,0.0390625,-0.009765625,0,-0.006591797,0.001586914,0.171875,0,0,0.199585,0.3105164,4.048,0,0,0,0.2999878,nan,2,10.94,1,128,0.3667297,0.2491455,0.3273926,0.2988281,0.01953125,0.002929688,0,1,3,0
4621.088,0.001005,-0.04296875,0.02148438,0.05273438,0.8671875,-0.3359375,8.523438,-0.01367188,0.009765625,0.07617188,0.0390625,-0.0078125,0,-0.006347656,0.001464844,0.1727295,0,0,0.199585,0.3105164,4.048,0,0,0,0.2999878,nan,2,10.95,1,128,0.342926,0.2752075,0.2911682,0.3327942,0.01953125,0.002929688,0,1,3,0
4621.098,0.001011,0.01367188,-0.03515625,-0.005859375,-1.117188,1.1875,12.64062,0.01953125,-0.0234375,0.015625,0.03710938,-0.0078125,0,-0.006347656,0.001342773,0.1732178,0,0,0.199585,0.3105164,4.048,0,0,0,0.2999878,nan,2,10.961,1,128,0.2809753,0.3502502,0.2334595,0.3774109,0.01953125,0.002929688,0,1,3,0
4621.108,0.001011,-0.0078125,-0.015625,0.009765625,0.828125,-0.8828125,6.34375,-0.009765625,-0.03320312,-0.0078125,0.03710938,-0.005859375,0,-0.006225586,0.0009765625,0.1730957,0,0,0.199585,0.3105164,4.048,0,0,0,0.2999878,nan,2,10.971,1,128,0.3410339,0.2912598,0.280365,0.3294373,0.01953125,0.002929688,0,1,3,0
4621.119,0.001011,0.005859375,-0.01953125,0.0546875,1.757812,-0.5625,7.367188,0.001953125,-0.01171875,0.02539062,0.03710938,-0.005859375,0,-0.006347656,0.0008544922,0.1730957,0,0,0.199585,0.3105164,4.048,0,0,0,0.2999878,nan,2,10.981,1,128,0.3867188,0.2409668,0.3401489,0.274292,0.01953125,0.002929688,0,1,3,0
4621.129,0.001011,0.046875,0.046875,-0.009765625,-0.8359375,-0.4140625,8.609375,-0.02148438,0.009765625,-0.00390625,0.0390625,-0.00390625,0,-0.006469727,0.0008544922,0.1733398,0,0,0.199585,0.3105164,4.048,0,0,0,0.2999878,nan,2,10.991,1,128,0.2900085,0.3291016,0.2477417,0.3752441,0.01953125,0.002929688,0,1,3,0
4621.139,0.001011,0.02734375,-0.0390625,0.05664062,-1.945312,0.671875,10.15625,-0.005859375,-0.005859375,0.06445312,0.0390625,-0.005859375,0,-0.006591797,0.0008544922,0.1738281,0,0,0.199585,0.3105164,4.048,0,0,0,0.2999878,nan,2,11.001,1,128,0.3873596,0.243042,0.3375549,0.2741394,0.01953125,0.002929688,0,1,3,0
4621.148,0.001005,-0.09570312,0.01367188,0.04296875,0.84375,-1.460938,7.085938,-0.0234375,-0.00390625,0.06445312,0.0390625,-0.005859375,0,-0.006713867,0.0008544922,0.1743164,0,0,0.199585,0.3105164,4.048,0,0,0,0.2999878,nan,2,11.01,1,128,0.3648071,0.2649841,0.3028259,0.3094788,0.01953125,0.002929688,0,1,3,0
4621.158,0.001006,-0.02539062,0.03710938,0.0625,-1.8125,2.21875,8.085938,0.01953125,0.01953125,0.05664062,0.0390625,-0.005859375,0,-0.006591797,0.0009765625,0.1748047,0,0,0.199585,0.3105164,4.048,0,0,0,0.2999878,nan,2,11.02,1,128,0.3570862,0.2620239,0.3201294,0.3028564,0.01953125,0.002929688,0,1,3,0
4621.168,0.001009,0.03125,0.02734375,0.04296875,0.234375,-0.4453125,13.97656,0.02148438,-0.009765625,0.05664062,0.0390625,-0.005859375,0,-0.006469727,0.0008544922,0.175415,0,0,0.199585,0.3105164,4.048,0,0,0,0.2999878,nan,2,11.03,1,128,0.344574,0.283844,0.2981567,0.3155212,0.01953125,0.002929688,0,1,3,0
4621.179,0.001219,-0.009765625,0.02929688,0.0703125,0.984375,-3.796875,6.523438,-0.0078125,0.0078125,0.046875,0.0390625,-0.005859375,0,-0.006591797,0.0008544922,0.1759033,0,0,0.199585,0.3105164,4.048,0,0,0,0.2999878,nan,2,11.041,1,128,0.3427124,0.2759705,0.3008118,0.3226013,0.01953125,0.002929688,0,1,3,0
4621.189,0.00112,-0.015625,0.009765625,0.03710938,-0.609375,3.242188,8.179688,0.009765625,-0.009765625,0.04882812,0.0390625,-0.00390625,0,-0.006469727,0.0006103516,0.1765137,0,0,0.199585,0.3105164,4.048,0,0,0,0.2999878,nan,2,11.051,1,128,0.3419189,0.2846375,0.2966919,0.3189087,0.01953125,0.002929688,0,1,3,0
4621.199,0.001158,-0.00390625,-0.015625,0.02929688,0.390625,0.609375,14.22656,0.009765625,0.00390625,0.02539062,0.0390625,-0.00390625,0,-0.006469727,0.0007324219,0.1767578,0,0,0.199585,0.3105164,4.048,0,0,0,0.2999878,nan,2,11.061,1,128,0.3366699,0.2907104,0.287262,0.3274536,0.01953125,0.002929688,0,1,3,0
4621.208,0.00092,-0.04882812,-0.02148438,-0.02148438,0.859375,-3.734375,6.109375,-0.01757812,-0.009765625,-0.015625,0.03710938,-0.00390625,0,-0.006347656,0.0007324219,0.1767578,0,0,0.199585,0.3105164,4.048,0,0,0,0.2999878,nan,2,11.071,1,128,0.3103333,0.3228149,0.2410278,0.3679199,0.01953125,0.002929688,0,1,3,0
4621.219,0.001007,-0.02539062,-0.03320312,-0.02929688,-0.578125,-0.421875,9.1875,-0.005859375,-0.01953125,-0.01171875,0.0390625,-0.00390625,0,-0.006347656,0.0007324219,0.1766357,0,0,0.199585,0.3105164,4.048,0,0,0,0.2999878,nan,2,11.081,1,128,0.328064,0.3074036,0.2678833,0.3387451,0.01953125,0.002929688,0,1,3,0
4621.229,0.001014,-0.0234375,0.06054688,0.0078125,-1.851562,5.648438,13.1875,-0.05078125,0.02734375,-0.03125,0.04101562,-0.00390625,0,-0.006713867,0.0007324219,0.1762695,0,0,0.199585,0.3105164,4.048,0,0,0,0.2999878,nan,2,11.091,1,128,0.3326721,0.2825623,0.2819519,0.3449097,0.01953125,0.002929688,0,1,3,0
4621.239,0.001014,-0.04882812,-0.01953125,0.009765625,-0.28125,0.5859375,13.51562,-0.01953125,-0.01953125,-0.00390625,0.04101562,-0.00390625,0,-0.006835938,0.0006103516,0.1761475,0,0,0.199585,0.3105164,4.048,0,0,0,0.2999878,nan,2,11.101,1,128,0.3639832,0.2677002,0.3026428,0.3078003,0.01953125,0.002929688,0,1,3,0
4621.248,0.001011,0.05078125,-0.04492188,0.05664062,0.84375,-2.117188,7.523438,0.03125,0.00390625,0.0234375,0.04101562,-0.00390625,0,-0.006958008,0.0007324219,0.1761475,0,0,0.199585,0.3105164,4.048,0,0,0,0.2999878,nan,2,11.11,1,128,0.3850098,0.2428894,0.3488159,0.2654114,0.01953125,0.002929688,0,1,3,0
4621.258,0.001012,-0.015625,0.02539062,0.02929688,0.546875,-1.304688,8.875,0.02929688,-0.005859375,0.03710938,0.04101562,-0.00390625,0,-0.006835938,0.0007324219,0.1765137,0,0,0.199585,0.3105164,4.048,0,0,0,0.2999878,nan,2,11.12,1,128,0.345459,0.2817993,0.3049622,0.3098755,0.01953125,0.002929688,0,1,3,0
4621.268,0.001012,-0.015625,0.009765625,0.0703125,-0.5703125,2.1875,13.26562,-0.015625,-0.02929688,0.06054688,0.04296875,-0.00390625,0,-0.007080078,0.0006103516,0.177002,0,0,0.199585,0.3105164,4.048,0,0,0,0.2999878,nan,2,11.13,1,128,0.3932495,0.2426147,0.3323669,0.2738647,0.01953125,0.002929688,0,1,3,0
4621.278,0.000976,-0.08203125,0.04101562,0.001953125,0.8515625,0.109375,6.125,-0.0625,0.03320312,0.0390625,0.04492188,-0.00390625,0,-0.007446289,0.0007324219,0.1776123,0,0,0.199585,0.3105164,4.048,0,0,0,0.2999878,nan,2,11.14,1,128,0.3157959,0.2991333,0.2606506,0.3665466,0.01953125,0.002929688,0,1,3,0
4621.288,0.001011,0.046875,-0.00390625,0.01367188,-0.15625,-7.03125,13.05469,0,-0.01757812,0.01757812,0.046875,-0.005859375,0,-0.0078125,0.0009765625,0.1777344,0,0,0.199585,0.3105164,4.048,0,0,0,0.2999878,nan,2,11.15,1,128,0.3306885,0.3098145,0.2792969,0.3222961,0.02050781,0.002929688,0,1,3,0
4621.298,0.001013,-0.02734375,0.04101562,0.02929688,-1.015625,6.273438,14.52344,-0.001953125,-0.005859375,0.04101562,0.046875,-0.005859375,0,-0.00769043,0.0008544922,0.1781006,0,0,0.199585,0.3105164,4.051,0,0,0,0.2999878,nan,2,11.161,1,128,0.36026,0.2669373,0.3040161,0.3109131,0.02050781,0.002929688,0,1,3,0
4621.308,0.001011,0.00390625,0.00390625,0.02539062,0.5234375,-0.34375,10.92969,-0.02148438,-0.00390625,0.02929688,0.04882812,-0.005859375,0,-0.00793457,0.001098633,0.1784668,0,0,0.199585,0.3105164,4.051,0,0,0,0.2999878,nan,2,11.171,1,128,0.340271,0.2906189,0.2810059,0.3302002,0.02050781,0.002929688,0,1,3,0
4621.319,0.001011,-0.03710938,0.06054688,-0.015625,0.8671875,-0.8515625,6.40625,-0.005859375,0.01953125,0.00390625,0.04882812,-0.0078125,0,-0.00793457,0.001098633,0.1785889,0,0,0.199585,0.3105164,4.051,0,0,0,0.2999878,nan,2,11.181,1,128,0.305603,0.3129883,0.258667,0.3648376,0.02050781,0.002929688,0,1,3,0
4621.329,0.001011,-0.06054688,-0.001953125,0.009765625,-1.0625,0.7734375,11.36719,-0.02929688,0.009765625,0.005859375,0.04882812,-0.0078125,0,-0.008056641,0.001220703,0.178833,0,0,0.199585,0.3105164,4.051,0,0,0,0.2999878,nan,2,11.191,1,128,0.3309631,0.2947998,0.2659302,0.3504028,0.02050781,0.002929688,0,1,3,0
4621.339,0.001011,0,0.01367188,0.04296875,-0.375,2.554688,10.67188,0.009765625,-0.001953125,0.03320312,0.046875,-0.0078125,0,-0.00793457,0.001220703,0.1789551,0,0,0.199585,0.3105164,4.051,0,0,0,0.2999878,nan,2,11.201,1,128,0.370575,0.2550659,0.3198242,0.2966003,0.02050781,0.002929688,0,1,3,0
4621.349,0.001011,-0.00390625,-0.03515625,0.03710938,2.460938,-0.96875,10.57031,-0.02929688,-0.001953125,0.04296875,0.04882812,-0.0078125,0,-0.008056641,0.001342773,0.1794434,0,0,0.199585,0.3105164,4.051,0,0,0,0.2999878,nan,2,11.211,1,128,0.3557739,0.276886,0.2940979,0.3153381,0.02050781,0.002929688,0,1,3,0
4621.358,0.001064,-0.04882812,-0.02539062,-0.06835938,-0.0078125,-3.375,8.484375,-0.01757812,-0.005859375,-0.02734375,0.04882812,-0.0078125,0,-0.008178711,0.001342773,0.1795654,0,0,0.199585,0.3105164,4.051,0,0,0,0.2999878,nan,2,11.22,1,128,0.2552795,0.3744202,0.196106,0.4162598,0.02050781,0.002929688,0,1,3,0
4621.368,0.001009,-0.05273438,-0.03710938,-0.05273438,-1.609375,4.84375,11.5,-0.00390625,0.005859375,-0.08203125,0.04882812,-0.009765625,0,-0.008178711,0.001464844,0.1787109,0,0,0.199585,0.3105164,4.051,0,0,0,0.2999878,nan,2,11.23,1,128,0.2989502,0.3299255,0.2385559,0.3746948,0.02050781,0.002929688,0,1,3,0
4621.378,0.001013,0.0546875,-0.0234375,-0.06054688,-1.632812,2.898438,14.125,-0.001953125,-0.01171875,-0.07226562,0.04882812,-0.0078125,0,-0.008300781,0.001464844,0.1779785,0,0,0.199585,0.3105164,4.051,0,0,0,0.2999878,nan,2,11.24,1,128,0.322052,0.308075,0.2692566,0.3427429,0.02050781,0.002929688,0,1,3,0
4621.388,0.001004,0.015625,0.02539062,-0.015625,-0.9140625,3.953125,11.96875,0.02734375,0.015625,-0.015625,0.046875,-0.009765625,0,-0.00793457,0.001586914,0.1776123,0,0,0.199585,0.3105164,4.051,0,0,0,0.2999878,nan,2,11.25,1,128,0.3768921,0.2457886,0.3279419,0.2914734,0.02050781,0.002929688,0,1,3,0
4621.398,0.001012,-0.046875,0.01757812,-0.00390625,1.976562,0.046875,11.57812,-0.01757812,0.015625,0.0078125,0.046875,-0.009765625,0,-0.00793457,0.001586914,0.1776123,0,0,0.199585,0.3105164,4.051,0,0,0,0.2999878,nan,2,11.26,1,128,0.35672,0.2625427,0.3021545,0.3207092,0.02050781,0.002929688,0,1,3,0
4621.408,0.001013,0,0.015625,0.03320312,0.8046875,-5.523438,4.625,-0.04296875,0.01171875,0.015625,0.04882812,-0.009765625,0,-0.008178711,0.001708984,0.1776123,0,0,0.199585,0.3105164,4.051,0,0,0,0.2999878,nan,2,11.271,1,128,0.3652344,0.2564697,0.3056946,0.3146973,0.02050781,0.002929688,0,1,3,0
4621.418,0.001013,-0.015625,0.00390625,0.005859375,0.4140625,0.15625,8.710938,0.005859375,0.01171875,0.009765625,0.04882812,-0.01171875,0,-0.008300781,0.001831055,0.1778564,0,0,0.199585,0.3105164,4.051,0,0,0,0.2999878,nan,2,11.281,1,128,0.3268127,0.2973022,0.2832336,0.3347778,0.02050781,0.002929688,0,1,3,0
4621.429,0.001013,0,-0.01171875,-0.03320312,-2.03125,0.7578125,10.92188,-0.015625,-0.001953125,-0.02148438,0.05078125,-0.01171875,0,-0.008300781,0.001831055,0.1777344,0,0,0.199585,0.3105164,4.051,0,0,0,0.2999878,nan,2,11.291,1,128,0.3058777,0.321106,0.2493286,0.3657837,0.02050781,0.002929688,0,1,3,0
4621.439,0.001013,0.078125,0.046875,-0.05859375,-0.1328125,3.773438,11.125,0.00390625,0.01171875,-0.04101562,0.05078125,-0.01171875,0,-0.008422852,0.001831055,0.1773682,0,0,0.199585,0.3105164,4.051,0,0,0,0.2999878,nan,2,11.301,1,128,0.3001099,0.3179016,0.2614441,0.3626709,0.02050781,0.002929688,0,1,3,0
4621.449,0.001013,0.09960938,0.0390625,-0.04882812,2.367188,-1.515625,8.609375,0.01367188,0.00390625,-0.04101562,0.05078125,-0.009765625,0,-0.008422852,0.001708984,0.1768799,0,0,0.199585,0.3101807,4.051,0,0,0,0.2996216,nan,2,11.311,1,128,0.3191833,0.2998962,0.283783,0.3379211,0.02050781,0.002929688,0,1,3,0
4621.458,0.001011,-0.1640625,-0.0234375,-0.03515625,0.984375,-4.28125,8.890625,-0.06054688,-0.009765625,-0.05078125,0.05078125,-0.009765625,0,-0.008544922,0.001831055,0.1765137,0,0,0.199585,0.3086853,4.051,0,0,0,0.2977905,nan,2,11.32,1,128,0.3385315,0.2879028,0.2507324,0.3575134,0.02050781,0.002929688,0,1,3,0.6825397
4621.468,0.001003,0.046875,0.0234375,-0.001953125,0.46875,-1.976562,6.4375,0.01953125,0.0078125,-0.02929688,0.0546875,-0.009765625,0,-0.009033203,0.001708984,0.1760254,0,0,0.199585,0.3069763,4.051,0,0,0,0.2957764,nan,2,11.33,1,128,0.3384399,0.2734375,0.3126221,0.3034363,0.02148438,0.002929688,0,1,3,0
4621.478,0.001008,-0.08203125,-0.0078125,0.005859375,-2.5,-0.234375,9.226562,-0.01953125,-0.005859375,-0.01171875,0.05273438,-0.009765625,0,-0.008789062,0.001708984,0.1759033,0,0,0.199585,0.3051453,4.051,0,0,0,0.2935791,nan,2,11.34,1,128,0.3570557,0.2611084,0.2835693,0.3188171,0.02148438,0.002929688,0,1,3,0.04761905
4621.488,0.001017,0.001953125,0.0078125,0.06640625,-1.5625,4.828125,13.28125,0.00390625,0.01367188,0.03515625,0.05273438,-0.01171875,0,-0.008666992,0.001831055,0.1759033,0,0,0.199585,0.3034668,4.051,0,0,0,0.291626,nan,2,11.35,1,128,0.3881531,0.2207031,0.335022,0.269928,0.02148438,0.002929688,0,1,3,0
4621.498,0.001009,-0.02148438,-0.06835938,0.04101562,1.28125,-2,10.91406,-0.01171875,-0.009765625,0.04101562,0.05273438,-0.01171875,0,-0.008666992,0.001953125,0.1763916,0,0,0.199585,0.3017578,4.051,0,0,0,0.2896118,nan,2,11.36,1,128,0.3442078,0.273468,0.2744446,0.3149414,0.02148438,0.002929688,0,1,3,0
4621.508,0.001011,0.04101562,0,0.00390625,2.796875,1.070312,7.820312,0.01953125,-0.02148438,0.03125,0.05078125,-0.009765625,0,-0.008544922,0.001708984,0.1768799,0,0,0.199585,0.3000793,4.051,0,0,0,0.2875977,nan,2,11.371,1,128,0.3057251,0.3007202,0.2566528,0.3372803,0.02148438,0.002929688,0,1,3,0
4621.519,0.001032,0.04296875,0.01953125,-0.08984375,-1.453125,-0.984375,10.42188,0.02148438,-0.005859375,-0.06054688,0.05078125,-0.009765625,0,-0.008422852,0.001708984,0.1766357,0,0,0.199585,0.2984009,4.051,0,0,0,0.2855835,nan,2,11.381,1,128,0.2316589,0.3683472,0.187561,0.4060364,0.02148438,0.002929688,0,1,3,0
4621.529,0.001007,0.02929688,-0.03125,-0.02148438,-2.109375,1.320312,12.39844,-0.001953125,-0.009765625,-0.04882812,0.05078125,-0.009765625,0,-0.008544922,0.001708984,0.1759033,0,0,0.199585,0.2967224,4.051,0,0,0,0.2835693,nan,2,11.391,1,128,0.3467712,0.2590942,0.2904663,0.2905273,0.02148438,0.002929688,0,1,3,0
4621.538,0.001064,0.07421875,0.03320312,0.0234375,-1.773438,4.484375,13.96094,0.009765625,0.009765625,0.01953125,0.05273438,-0.009765625,0,-0.008789062,0.001586914,0.1759033,0,0,0.199585,0.2951965,4.051,0,0,0,0.2817993,nan,2,11.4,1,128,0.3664551,0.218689,0.3361816,0.259491,0.02148438,0.002929688,0,1,3,0
4621.548,0.001028,0.03320312,-0.005859375,0.1152344,0.2265625,0.9609375,7.742188,0.03710938,0.001953125,0.0859375,0.05078125,-0.009765625,0,-0.008422852,0.001708984,0.1763916,0,0,0.199585,0.2935181,4.051,0,0,0,0.2797852,nan,2,11.41,1,128,0.4112549,0.1806335,0.3644409,0.2177124,0.02148438,0.002929688,0,1,3,0
4621.558,0.001054,-0.1054688,-0.00390625,0.05664062,1.367188,-1.5,7.539062,0.0078125,-0.00390625,0.078125,0.046875,-0.009765625,0,-0.00793457,0.001464844,0.1773682,0,0,0.199585,0.2918396,4.051,0,0,0,0.277771,nan,2,11.42,1,128,0.3272095,0.2556763,0.2692261,0.3152161,0.02148438,0.002929688,0,1,3,0
4621.568,0.001009,-0.001953125,-0.0390625,-0.08984375,-1.046875,-0.015625,11.4375,-0.0234375,0.001953125,-0.0390625,0.04882812,-0.009765625,0,-0.008178711,0.001464844,0.1776123,0,0,0.199585,0.2901611,4.051,0,0,0,0.2758179,nan,2,11.43,1,128,0.1853943,0.3961792,0.1263428,0.4526978,0.02148438,0.002929688,0,1,3,0
4621.578,0.000968,-0.0546875,0.0078125,-0.09375,-1.96875,5.34375,13.30469,0,-0.01171875,-0.09375,0.046875,-0.0078125,0,-0.00793457,0.001220703,0.1768799,0,0,0.199585,0.2882996,4.051,0,0,0,0.2736206,nan,2,11.44,1,128,0.2360535,0.3414612,0.1802673,0.3953857,0.02148438,0.002929688,0,1,3,0
4621.588,0.001058,0.08007812,-0.07617188,-0.07617188,-1.320312,1.429688,11.96094,0.06445312,-0.02734375,-0.08007812,0.046875,-0.005859375,0,-0.0078125,0.001098633,0.1760254,0,0,0.199585,0.2866211,4.051,0,0,0,0.2716064,nan,2,11.45,1,128,0.276947,0.3110352,0.232666,0.3257751,0.02148438,0.002929688,0,1,3,0
4621.599,0.00094,-0.1621094,0.01757812,-0.00390625,-1.601562,6.046875,12,-0.07226562,-0.01367188,-0.046875,0.046875,-0.00390625,0,-0.00793457,0.0007324219,0.1755371,0,0,0.199585,0.2849121,4.051,0,0,0,0.2695923,nan,2,11.461,1,128,0.3436584,0.2258911,0.2601929,0.309967,0.02148438,0.002929688,0,1,3,0
4621.608,0.001005,0.0234375,-0.04101562,-0.01953125,-2.265625,-0.359375,10.98438,-0.0390625,0.009765625,-0.01171875,0.05078125,-0.005859375,0,-0.008544922,0.0009765625,0.175293,0,0,0.199585,0.2832336,4.051,0,0,0,0.2675781,nan,2,11.471,1,128,0.3222656,0.2530823,0.2687378,0.2888794,0.02148438,0.002929688,0,1,3,0
4621.618,0.0009860001,0.08789062,-0.0234375,-0.0625,-2.054688,8.6875,17.61719,0.001953125,0.0078125,-0.0625,0.05273438,-0.005859375,0,-0.008666992,0.001098633,0.1749268,0,0,0.199585,0.2815552,4.051,0,0,0,0.265625,nan,2,11.481,1,128,0.2547913,0.3158875,0.2067261,0.3488159,0.02148438,0.002929688,0,1,3,0
4621.629,0.001013,-0.09179688,0.005859375,0.01171875,-2.03125,2.492188,14.25781,-0.03710938,0.03515625,-0.01953125,0.05273438,-0.0078125,0,-0.008789062,0.001220703,0.1743164,0,0,0.199585,0.2798767,4.051,0,0,0,0.2636108,nan,2,11.491,1,128,0.355835,0.1980286,0.2962341,0.2693787,0.02148438,0.002929688,0,1,3,0
4621.639,0.001013,0.03320312,0.07226562,0.0234375,-1.921875,4.742188,12.21094,0.00390625,-0.01757812,0.001953125,0.0546875,-0.005859375,0,-0.009033203,0.001098633,0.1743164,0,0,0.199585,0.2781982,4.051,0,0,0,0.2615967,nan,2,11.501,1,128,0.3341675,0.2288513,0.2874451,0.2622681,0.02148438,0.002929688,0,1,3,0
4621.649,0.001013,-0.05664062,0.01757812,0.03320312,-1.007812,2.734375,17.125,-0.01757812,0.01953125,0.03125,0.0546875,-0.0078125,0,-0.009277344,0.001464844,0.1744385,0,0,0.199585,0.2765198,4.051,0,0,0,0.2595825,nan,2,11.511,1,128,0.3366699,0.2206421,0.2792053,0.2694702,0.02246094,0.002929688,0,1,3,0
4621.659,0.001013,0.009765625,-0.005859375,0.01757812,0.21875,2.820312,13.625,0.009765625,0.01171875,0.02539062,0.05664062,-0.009765625,0,-0.009399414,0.001586914,0.1746826,0,0,0.199585,0.2748108,4.051,0,0,0,0.2576294,nan,2,11.521,1,128,0.3035889,0.2503967,0.2559204,0.2893982,0.02246094,0.002929688,0,1,3,0
4621.668,0.001011,-0.015625,0.01171875,0.0546875,1.601562,-6.234375,6.59375,-0.001953125,-0.005859375,0.04296875,0.0546875,-0.009765625,0,-0.009277344,0.001708984,0.1750488,0,0,0.199585,0.2733154,4.051,0,0,0,0.2557983,nan,2,11.53,1,128,0.3358765,0.2192688,0.2721863,0.2658997,0.02246094,0.002929688,0,1,3,0
4621.678,0.00101,0.07617188,0.02734375,0,1.84375,-1.828125,5.84375,0.005859375,-0.0078125,0.04296875,0.05664062,-0.009765625,0,-0.009399414,0.001708984,0.1756592,0,0,0.199585,0.2714539,4.051,0,0,0,0.2536011,nan,2,11.54,1,128,0.2774963,0.2720642,0.2284241,0.3078308,0.02246094,0.002929688,0,1,3,0
4621.688,0.000969,0.09570312,-0.04296875,-0.08984375,1.710938,-7.070312,8.015625,0.02929688,-0.03320312,-0.07421875,0.05664062,-0.009765625,0,-0.009277344,0.001708984,0.175415,0,0,0.199585,0.2697754,4.051,0,0,0,0.2515869,nan,2,11.55,1,128,0.1843262,0.3752747,0.1265259,0.3929443,0.02246094,0.002929688,0,1,3,0
4621.698,0.001036,0.04296875,0.01171875,-0.03710938,1.101562,0.6953125,11.64062,-0.009765625,0.01171875,-0.04882812,0.05664062,-0.01171875,0,-0.009399414,0.001831055,0.1746826,0,0,0.199585,0.2680969,4.051,0,0,0,0.2495728,nan,2,11.56,1,128,0.2926941,0.2451782,0.2404785,0.2939758,0.02246094,0.002929688,0,1,3,0
4621.708,0.001011,-0.03320312,0.08984375,-0.0390625,-1.976562,3.9375,13.26562,0.00390625,0.04296875,-0.02539062,0.0546875,-0.009765625,0,-0.009155273,0.001708984,0.1744385,0,0,0.199585,0.2663879,4.051,0,0,0,0.2476196,nan,2,11.571,1,128,0.2869568,0.2280273,0.2477722,0.3028564,0.02246094,0.002929688,0,1,3,0
4621.718,0.001003,0.09960938,-0.07617188,0.015625,-2.359375,3.625,9.734375,0.08984375,-0.009765625,-0.01171875,0.05273438,-0.01171875,0,-0.008666992,0.001953125,0.1741943,0,0,0.199585,0.2647095,4.051,0,0,0,0.2456055,nan,2,11.581,1,128,0.317688,0.2280884,0.2748108,0.2383118,0.02246094,0.002929688,0,1,3,0
4621.729,0.001011,0.08789062,-0.02148438,0.05273438,-0.8984375,1.148438,10.03125,0.04101562,-0.03125,0.015625,0.04882812,-0.009765625,0,-0.008300781,0.001708984,0.1740723,0,0,0.199585,0.263031,4.051,0,0,0,0.2435913,nan,2,11.591,1,128,0.3380127,0.2003174,0.2813721,0.2324219,0.02246094,0.002929688,0,1,3,0
4621.738,0.001026,-0.03710938,0.01757812,0.03515625,-1.460938,-4.75,10.13281,0.00390625,-0.015625,0.02539062,0.05078125,-0.009765625,0,-0.008300781,0.001586914,0.1743164,0,0,0.199585,0.2615051,4.051,0,0,0,0.2418213,nan,2,11.6,1,128,0.3043213,0.2218628,0.2549438,0.2649231,0.02246094,0.002929688,0,1,3,0
4621.749,0.001014,-0.09179688,-0.01367188,0.03125,1.585938,-2.484375,4.078125,-0.05078125,-0.0078125,0.03515625,0.05078125,-0.009765625,0,-0.008544922,0.001464844,0.1745605,0,0,0.199585,0.2596741,4.051,0,0,0,0.239624,nan,2,11.611,1,128,0.3270569,0.1982422,0.2494202,0.2639465,0.02246094,0.002929688,0,1,3,0
4621.758,0.001012,-0.03320312,0.0546875,-0.00390625,0.28125,-7.164062,9.5,0.02929688,-0.01171875,0.01367188,0.05078125,-0.0078125,0,-0.008300781,0.001342773,0.1748047,0,0,0.199585,0.2581482,4.051,0,0,0,0.237793,nan,2,11.62,1,128,0.2630005,0.2551575,0.216217,0.2981873,0.02246094,0.002929688,0,1,3,0
4621.768,0.001038,0.03710938,-0.015625,-0.00390625,0.46875,-2.367188,6.9375,0.01757812,-0.009765625,0,0.05078125,-0.0078125,0,-0.008300781,0.001220703,0.1749268,0,0,0.199585,0.2562866,4.051,0,0,0,0.2355957,nan,2,11.63,1,128,0.263092,0.2566223,0.2127991,0.2926636,0.02246094,0.002929688,0,1,3,0
4621.778,0.001009,0.0234375,-0.03710938,-0.00390625,2.34375,1.234375,9.132812,0.0078125,0.005859375,-0.01953125,0.04882812,-0.0078125,0,-0.008178711,0.001342773,0.1746826,0,0,0.199585,0.2546082,4.051,0,0,0,0.2335815,nan,2,11.64,1,128,0.2749634,0.2388,0.2193604,0.2853088,0.02246094,0.002929688,0,1,3,0.04761905
4621.788,0.001026,-0.02734375,0.02734375,-0.02539062,-0.1484375,1.757812,13.48438,-0.015625,0.01757812,-0.01757812,0.04882812,-0.0078125,0,-0.008178711,0.001342773,0.1745605,0,0,0.199585,0.2529297,4.051,0,0,0,0.2316284,nan,2,11.65,1,128,0.2723083,0.230896,0.2152405,0.2932739,0.02246094,0.002929688,0,1,3,0
4621.798,0.001009,0.04492188,0.001953125,-0.01953125,-1.648438,3.476562,11.32812,-0.04296875,0.005859375,0.01171875,0.05078125,-0.0078125,0,-0.008544922,0.001342773,0.1746826,0,0,0.199585,0.2512512,4.051,0,0,0,0.2296143,nan,2,11.66,1,128,0.2844238,0.2193909,0.2221985,0.2789612,0.02246094,0.002929688,0,1,3,0
4621.808,0.001006,-0.06445312,0.0390625,-0.01367188,-0.71875,-7.726562,3.15625,-0.02929688,-0.001953125,0.005859375,0.05078125,-0.0078125,0,-0.008544922,0.001342773,0.1748047,0,0,0.199585,0.2495422,4.051,0,0,0,0.2276001,nan,2,11.671,1,128,0.2727661,0.2282715,0.2091675,0.2879944,0.02246094,0.002929688,0,1,3,0
4621.818,0.001006,-0.01953125,0.001953125,-0.03515625,2.15625,-1.195312,7.367188,-0.046875,0.01171875,-0.02734375,0.05273438,-0.0078125,0,-0.008789062,0.001464844,0.1745605,0,0,0.199585,0.2478638,4.051,0,0,0,0.2255859,nan,2,11.681,1,128,0.2455444,0.2526245,0.1761475,0.3171692,0.02246094,0.002929688,0,1,3,0
4621.829,0.001006,-0.0390625,0.07617188,-0.0859375,-1,-1.132812,8.875,-0.02734375,0.03515625,-0.07226562,0.0546875,-0.009765625,0,-0.009033203,0.001586914,0.1740723,0,0,0.199585,0.2461853,4.051,0,0,0,0.2235718,nan,2,11.691,1,128,0.1980896,0.283783,0.1498718,0.3529968,0.02246094,0.002929688,0,1,3,0
4621.839,0.001006,-0.02148438,0.01757812,-0.06445312,-1.421875,-0.125,4.546875,-0.015625,-0.01367188,-0.07226562,0.0546875,-0.0078125,0,-0.009155273,0.001464844,0.1733398,0,0,0.199585,0.2445068,4.051,0,0,0,0.2216187,nan,2,11.701,1,128,0.2506714,0.2445374,0.1902161,0.292572,0.0234375,0.002929688,0,1,3,0
4621.849,0.001006,-0.009765625,0.001953125,-0.04492188,1.054688,-4.898438,8.34375,-0.03515625,0.01953125,-0.06835938,0.05664062,-0.0078125,0,-0.009521484,0.001342773,0.1727295,0,0,0.199585,0.2428284,4.051,0,0,0,0.2196045,nan,2,11.711,1,128,0.2518921,0.2249756,0.2023926,0.2919922,0.0234375,0.002929688,0,1,3,0.2857143
4621.858,0.001015,0.001953125,0.09375,-0.0546875,-2.007812,6.015625,15.5625,-0.02148438,0.04492188,-0.0625,0.05859375,-0.009765625,0,-0.009765625,0.001464844,0.1721191,0,0,0.199585,0.2413025,4.051,0,0,0,0.2177734,nan,2,11.72,1,128,0.2434998,0.2255554,0.2011719,0.2949829,0.0234375,0.002929688,0,1,3,0
4621.868,0.001016,0.08203125,-0.03710938,0.005859375,0.296875,-7.609375,7.5625,0.015625,-0.001953125,-0.009765625,0.05859375,-0.009765625,0,-0.009887695,0.001586914,0.171875,0,0,0.199585,0.239624,4.051,0,0,0,0.2158203,nan,2,11.73,1,128,0.3006897,0.1871643,0.2550354,0.2156067,0.0234375,0.001953125,0,1,3,0
4621.878,0.001014,-0.04101562,-0.005859375,-0.005859375,1.992188,1.078125,7.875,-0.03710938,-0.0078125,-0.001953125,0.06054688,-0.0078125,0,-0.01000977,0.001464844,0.171875,0,0,0.199585,0.2377625,4.051,0,0,0,0.213623,nan,2,11.74,1,128,0.2705383,0.2081909,0.2018433,0.2705078,0.0234375,0.002929688,0,1,3,0
4621.888,0.001023,-0.03710938,0,0.01953125,-1.421875,7.328125,15.13281,-0.046875,-0.005859375,0.02929688,0.06054688,-0.0078125,0,-0.01013184,0.001342773,0.1719971,0,0,0.199585,0.236084,4.051,0,0,0,0.2116089,nan,2,11.75,1,128,0.304657,0.1713867,0.2285461,0.2397461,0.0234375,0.002929688,0,1,3,0
4621.898,0.001074,-0.078125,0.01367188,0.046875,0.671875,-2.140625,4.460938,-0.0390625,-0.001953125,0.04296875,0.06054688,-0.0078125,0,-0.01013184,0.001342773,0.1723633,0,0,0.199585,0.2344055,4.051,0,0,0,0.2095947,nan,2,11.761,1,128,0.3087769,0.1642761,0.2289734,0.2355347,0.0234375,0.001953125,0,1,3,0
4621.908,0.001016,-0.01953125,0.0078125,0.02539062,-0.125,-4.398438,9.960938,0.01171875,0.005859375,0.03320312,0.06054688,-0.0078125,0,-0.01025391,0.001220703,0.1727295,0,0,0.199585,0.2327271,4.051,0,0,0,0.2075806,nan,2,11.771,1,128,0.2553406,0.2084045,0.2077026,0.2593994,0.0234375,0.001953125,0,1,3,0
4621.918,0.001016,0,0.02929688,-0.001953125,-2.625,7.742188,14.78125,-0.001953125,0.01367188,-0.01367188,0.0625,-0.0078125,0,-0.01037598,0.001220703,0.1728516,0,0,0.199585,0.2310181,4.051,0,0,0,0.2056274,nan,2,11.781,1,128,0.2227173,0.2356262,0.1756592,0.2901001,0.0234375,0.001953125,0,1,3,0
4621.928,0.001069,-0.06445312,-0.0546875,-0.0078125,-0.03125,3.914062,12.01562,-0.02539062,0.005859375,-0.01757812,0.0625,-0.0078125,0,-0.01037598,0.001464844,0.1726074,0,0,0.199585,0.2295227,4.051,0,0,0,0.2037964,nan,2,11.79,1,128,0.2617188,0.2051697,0.1864624,0.2647095,0.0234375,0.001953125,0,1,3,0
4621.938,0.001031,0.06835938,-0.08203125,-0.0625,2.734375,-6.601562,8.8125,0.03125,-0.01367188,-0.07421875,0.0625,-0.009765625,0,-0.01049805,0.001586914,0.1721191,0,0,0.199585,0.2278442,4.051,0,0,0,0.2017822,nan,2,11.8,1,128,0.1921387,0.280304,0.1398621,0.2989807,0.0234375,0.001953125,0,1,3,0
4621.949,0.001013,0.03515625,-0.03320312,-0.01171875,-2.03125,0.921875,11.10938,0.0234375,-0.01171875,-0.0390625,0.0625,-0.0078125,0,-0.01049805,0.001342773,0.1715088,0,0,0.199585,0.2259827,4.061,0,0,0,0.199585,nan,2,11.811,1,128,0.2706604,0.1882935,0.2164612,0.2284851,0.0234375,0.001953125,0,1,3,0
4621.959,0.001011,0.00390625,0,0.03125,1.335938,1.289062,11.71875,0.02539062,-0.01171875,0.01171875,0.06054688,-0.0078125,0,-0.01025391,0.001220703,0.1713867,0,0,0.199585,0.2243042,4.061,0,0,0,0.1975708,nan,2,11.821,1,128,0.2955627,0.1572266,0.2419434,0.2024536,0.0234375,0.001953125,0,1,3,0
4621.969,0.001018,-0.001953125,0.00390625,0.0625,-1.140625,10.64062,14.125,-0.00390625,0,0.05859375,0.0625,-0.005859375,0,-0.01037598,0.001098633,0.171875,0,0,0.199585,0.2225952,4.061,0,0,0,0.1956177,nan,2,11.831,1,128,0.3041382,0.1409302,0.2507629,0.1946106,0.0234375,0.001953125,0,1,3,0
4621.978,0.001015,-0.04101562,-0.01953125,-0.015625,-1.75,-9.234375,5.1875,-0.0546875,-0.02148438,0.01367188,0.06445312,-0.005859375,0,-0.01074219,0.0008544922,0.1722412,0,0,0.199585,0.2209167,4.061,0,0,0,0.1936035,nan,2,11.84,1,128,0.2182312,0.2310486,0.1424255,0.2919617,0.02441406,0.001953125,0,1,3,0
4621.988,0.000978,0.03710938,-0.00390625,-0.02148438,2.09375,-5.210938,12.22656,0.05273438,0.01171875,-0.01953125,0.0625,-0.005859375,0,-0.01049805,0.0009765625,0.1721191,0,0,0.199585,0.2192383,4.061,0,0,0,0.1915894,nan,2,11.85,1,128,0.2058716,0.232605,0.1696167,0.2688599,0.02441406,0.001953125,0,1,3,0
4621.998,0.001002,0.03710938,-0.0546875,-0.04882812,-0.546875,-1.453125,7.84375,0.02929688,-0.015625,-0.06054688,0.0625,-0.005859375,0,-0.01025391,0.0009765625,0.1716309,0,0,0.199585,0.2175598,4.061,0,0,0,0.1895752,nan,2,11.86,1,128,0.2061157,0.2442932,0.1435547,0.2762451,0.02441406,0.001953125,0,1,3,0
4622.008,0.001005,0.00390625,0.02539062,0.005859375,0.3203125,0.046875,11.80469,0.0078125,-0.0078125,-0.0078125,0.06054688,-0.00390625,0,-0.01013184,0.0007324219,0.1712646,0,0,0.199585,0.2158813,4.061,0,0,0,0.1876221,nan,2,11.871,1,128,0.2806091,0.1521912,0.222168,0.2084961,0.02441406,0.001953125,0,1,3,0
4622.018,0.001005,0.046875,0.06054688,0.05273438,-1.648438,-3.757812,5.53125,0.015625,0.0078125,0.04492188,0.06054688,-0.00390625,0,-0.01013184,0.0006103516,0.1716309,0,0,0.199585,0.2142029,4.061,0,0,0,0.1856079,nan,2,11.881,1,128,0.2897949,0.1329956,0.2495117,0.1844482,0.02441406,0.001953125,0,1,3,0
4622.029,0.001005,-0.03515625,-0.001953125,-0.04296875,1.765625,4.859375,6.703125,-0.005859375,-0.00390625,-0.005859375,0.06054688,-0.00390625,0,-0.01025391,0.0004882812,0.171875,0,0,0.199585,0.2124939,4.061,0,0,0,0.1835938,nan,2,11.891,1,128,0.1791992,0.2472534,0.1166077,0.3069763,0.02441406,0.001953125,0,1,3,0
4622.039,0.001005,-0.02929688,-0.02734375,-0.00390625,-1.242188,2.148438,10.44531,-0.03710938,0.001953125,-0.01367188,0.0625,-0.00390625,0,-0.01049805,0.0006103516,0.1716309,0,0,0.199585,0.2108154,4.061,0,0,0,0.1815796,nan,2,11.901,1,128,0.2513733,0.1797485,0.1774597,0.2346497,0.02441406,0.001953125,0,1,3,0
4622.049,0.001005,0.08398438,-0.0625,0.01171875,2.515625,6.367188,13.88281,0.0390625,-0.0234375,-0.01757812,0.06445312,-0.00390625,0,-0.01062012,0.0006103516,0.1713867,0,0,0.199585,0.209137,4.061,0,0,0,0.1796265,nan,2,11.911,1,128,0.2533264,0.1808472,0.2047119,0.1976929,0.02441406,0.001953125,0,1,3,0
4622.059,0.001005,-0.0625,0.0234375,-0.0234375,0.3515625,1.695312,9.210938,-0.02929688,-0.005859375,-0.015625,0.06445312,-0.00390625,0,-0.01074219,0.0006103516,0.1712646,0,0,0.199585,0.2074585,4.061,0,0,0,0.1776123,nan,2,11.921,1,128,0.2325439,0.1885071,0.1598206,0.2489319,0.02441406,0.001953125,0,1,3,0.0952381
4622.068,0.001032,-0.0234375,0.1503906,-0.009765625,0.28125,-5.820312,9.71875,-0.00390625,0.04101562,0.005859375,0.06640625,-0.00390625,0,-0.01098633,0.0004882812,0.1713867,0,0,0.199585,0.20578,4.061,0,0,0,0.1755981,nan,2,11.93,1,128,0.2201538,0.1706848,0.1894226,0.2427979,0.02441406,0.001953125,0,1,3,0
4622.078,0.001012,-0.05859375,0.06640625,-0.06054688,0.421875,-10.66406,10.19531,-0.02929688,0.0078125,-0.03125,0.06835938,-0.00390625,0,-0.01123047,0.0006103516,0.1712646,0,0,0.199585,0.204071,4.061,0,0,0,0.173584,nan,2,11.94,1,128,0.1764526,0.2325745,0.1111145,0.2962036,0.02441406,0.001953125,0,1,3,0
4622.089,0.001071,0.03320312,-0.01171875,-0.01171875,-0.953125,4.679688,14.23438,0.005859375,-0.009765625,-0.001953125,0.06835938,-0.00390625,0,-0.01135254,0.0004882812,0.1711426,0,0,0.199585,0.2023926,4.061,0,0,0,0.1715698,nan,2,11.95,1,128,0.2435913,0.1666565,0.1863098,0.2130127,0.02441406,0.001953125,0,1,3,0
4622.098,0.00106,0.05078125,-0.03125,0.06640625,1.945312,8.5625,12.99219,0.001953125,-0.001953125,0.03125,0.06835938,-0.00390625,0,-0.01135254,0.0006103516,0.1711426,0,0,0.199585,0.2007141,4.061,0,0,0,0.1696167,nan,2,11.961,1,128,0.2937317,0.1132202,0.2340698,0.1618652,0.02441406,0.001953125,0,1,3,0
4622.109,0.001017,-0.06445312,-0.04296875,-0.02929688,2.367188,-3.359375,3.203125,-0.03515625,-0.00390625,-0.001953125,0.0703125,-0.00390625,0,-0.01159668,0.0006103516,0.1713867,0,0,0.199585,0.1990356,4.061,0,0,0,0.1676025,nan,2,11.971,1,128,0.1963501,0.2099915,0.1193237,0.2704773,0.02441406,0.001953125,0,1,3,0
4622.118,0.001011,0.005859375,-0.015625,-0.015625,-4.070312,0.0703125,11.4375,0.0078125,-0.02539062,-0.01757812,0.0703125,-0.00390625,0,-0.01159668,0.0004882812,0.1712646,0,0,0.199585,0.1973572,4.061,0,0,0,0.1655884,nan,2,11.981,1,128,0.2184143,0.1905823,0.1486206,0.231781,0.02539062,0.001953125,0,1,3,0
4622.129,0.000991,-0.1289062,0.005859375,-0.01953125,0.671875,4.96875,16.28906,-0.02539062,0.005859375,-0.02539062,0.06835938,-0.00390625,0,-0.01147461,0.0004882812,0.1710205,0,0,0.199585,0.1956482,4.061,0,0,0,0.1635742,nan,2,11.991,1,128,0.2166138,0.1768188,0.13974,0.2494812,0.02539062,0.001953125,0,1,3,0
4622.139,0.000974,-0.06054688,-0.05078125,0.02539062,1.242188,2.273438,5.242188,-0.02929688,-0.01953125,0.01953125,0.0703125,-0.00390625,0,-0.01171875,0.0004882812,0.1711426,0,0,0.199585,0.1939697,4.061,0,0,0,0.1616211,nan,2,12.001,1,128,0.2670288,0.1348267,0.1836853,0.1903992,0.02539062,0.001953125,0,1,3,0
4622.149,0.001011,0,-0.03320312,0.01171875,-1.273438,-6.351562,4.820312,0.00390625,-0.01367188,-0.001953125,0.07226562,-0.001953125,0,-0.01196289,0.0004882812,0.1710205,0,0,0.199585,0.1922913,4.061,0,0,0,0.1596069,nan,2,12.011,1,128,0.2301941,0.1657104,0.1662903,0.2069702,0.02539062,0.001953125,0,1,3,0
4622.159,0.001011,0.08007812,-0.07226562,-0.00390625,-0.953125,-3.460938,10.58594,0.03710938,-0.03710938,-0.00390625,0.07226562,-0.001953125,0,-0.01196289,0.0003662109,0.1711426,0,0,0.199585,0.1906128,4.061,0,0,0,0.1575928,nan,2,12.021,1,128,0.2124329,0.1907349,0.1506653,0.2086182,0.02539062,0.001953125,0,1,3,0
4622.168,0.000961,0.02734375,0.015625,0.0390625,3.125,-1.679688,12.42188,0.01953125,0.005859375,0.0234375,0.07226562,-0.001953125,0,-0.01184082,0.0003662109,0.1711426,0,0,0.199585,0.1890869,4.061,0,0,0,0.1558228,nan,2,12.03,1,128,0.2509155,0.1265869,0.2024841,0.1763916,0.02539062,0.001953125,0,1,3,0
4622.178,0.0009860001,0.05664062,0.005859375,-0.0234375,-1.1875,-7.65625,4.46875,0,0.0234375,-0.01367188,0.07226562,-0.001953125,0,-0.01196289,0.0003662109,0.1712646,0,0,0.199585,0.1872253,4.061,0,0,0,0.1536255,nan,2,12.04,1,128,0.1635437,0.2073975,0.1109924,0.2670288,0.02539062,0.001953125,0,1,3,0
4622.188,0.001007,-0.02734375,0.04101562,-0.06835938,0.015625,0.3359375,5.101562,0.001953125,-0.009765625,-0.02929688,0.07226562,-0.001953125,0,-0.01184082,0.0002441406,0.1711426,0,0,0.199585,0.1855469,4.061,0,0,0,0.1516113,nan,2,12.05,1,128,0.1677246,0.2072754,0.1044922,0.2626953,0.02539062,0.001953125,0,1,3,0
4622.199,0.00108,-0.02929688,-0.02148438,-0.02734375,-0.8359375,0.890625,11.95312,-0.01367188,0.0078125,-0.03710938,0.07226562,-0.001953125,0,-0.01196289,0.0003662109,0.1706543,0,0,0.199585,0.1838684,4.061,0,0,0,0.1495972,nan,2,12.06,1,128,0.2209473,0.151001,0.1540222,0.2095337,0.02539062,0.001953125,0,1,3,0
4622.208,0.001006,-0.09375,-0.04101562,-0.02148438,-1.453125,-0.9296875,6.28125,-0.04296875,0.015625,-0.01367188,0.07421875,-0.00390625,0,-0.01220703,0.0006103516,0.1705322,0,0,0.199585,0.1821899,4.061,0,0,0,0.147583,nan,2,12.071,1,128,0.2221069,0.1455994,0.1446533,0.2163696,0.02539062,0.001953125,0,1,3,0
4622.218,0.001002,0.005859375,0.00390625,0.01171875,-1.53125,-2.492188,8.0625,0,0,-0.009765625,0.07421875,-0.001953125,0,-0.01245117,0.0004882812,0.1704102,0,0,0.199585,0.1805115,4.061,0,0,0,0.1455688,nan,2,12.081,1,128,0.2112122,0.1543274,0.1530762,0.2034302,0.02539062,0.001953125,0,1,3,0
4622.229,0.001009,-0.005859375,-0.1191406,-0.02929688,-0.5078125,-8.929688,5.15625,0.001953125,-0.04296875,-0.02734375,0.07421875,-0.001953125,0,-0.01245117,0.0004882812,0.170166,0,0,0.199585,0.178833,4.061,0,0,0,0.1436157,nan,2,12.091,1,128,0.2046509,0.1785583,0.1207886,0.2113037,0.02539062,0.001953125,0,1,3,0
4622.239,0.001009,-0.06640625,-0.0234375,-0.08203125,-0.484375,-5.710938,7.242188,0.00390625,0.01171875,-0.06835938,0.07226562,-0.001953125,0,-0.01220703,0.0003662109,0.1696777,0,0,0.199585,0.177124,4.061,0,0,0,0.1416016,nan,2,12.101,1,128,0.1554871,0.1994019,0.08959961,0.2640686,0.02636719,0.001953125,0,1,3,0
4622.249,0.001017,0.06640625,0.04296875,-0.03320312,-1.28125,-5.992188,7.203125,0.03125,0.001953125,-0.03125,0.07226562,-0.001953125,0,-0.01220703,0.0003662109,0.1691895,0,0,0.1691895,0.1761169,4.061,0,0,0,0.1400146,nan,4,12.111,1,128,0.1643066,0.1832275,0.1676025,0.1893616,0,0,0,1,6,0.2698413
4622.259,0.001007,0.005859375,0.109375,-0.0546875,-0.46875,-4.765625,4.640625,-0.01953125,0.03125,-0.05273438,0.07226562,-0.001953125,0,-0.01208496,0.0003662109,0.1688232,0,0,0.1688232,0.1777954,4.061,0,0,0,0.1400146,nan,4,12.121,1,128,0.1331177,0.2044678,0.1318665,0.2417908,0,0,0,1,6,0
4622.269,0.001007,0.09765625,-0.05078125,0.00390625,2.59375,2.828125,9.28125,0.01953125,-0.009765625,-0.0234375,0.07421875,-0.001953125,0,-0.0123291,0.0003662109,0.168457,0,0,0.168457,0.1795044,4.061,0,0,0,0.1400146,nan,4,12.131,1,128,0.1929321,0.1702271,0.1960449,0.1587524,0,0,0,1,6,0.2857143
4622.278,0.001015,0.0234375,-0.001953125,0.0078125,2.367188,4.351562,6.359375,0.0390625,-0.01171875,-0.01757812,0.07226562,-0.001953125,0,-0.01208496,0.0002441406,0.168335,0,0,0.168335,0.1809998,4.061,0,0,0,0.1400146,nan,4,12.14,1,128,0.1917114,0.1742859,0.1897888,0.1682434,0,0,0,1,6,0
4622.288,0.001008,-0.0078125,-0.01367188,0.00390625,0.15625,-1.835938,3.039062,0.03125,-0.02734375,-0.01367188,0.06835938,-0.001953125,0,-0.01147461,0.0001220703,0.1680908,0,0,0.1680908,0.1826782,4.061,0,0,0,0.1400146,nan,4,12.15,1,128,0.202179,0.1740112,0.1763,0.1782837,0,0,0,1,6,0
4622.298,0.001015,-0.009765625,0.06835938,-0.08789062,0.1171875,-0.1875,4.328125,-0.009765625,0.0234375,-0.04882812,0.06835938,0,0,-0.01147461,0.0001220703,0.1678467,0,0,0.1678467,0.1843872,4.061,0,0,0,0.1400146,nan,4,12.16,1,128,0.1326599,0.2216492,0.1321106,0.2510986,0,0,0,1,6,0
4622.308,0.001012,0.05664062,-0.02734375,-0.08984375,1.9375,-4.125,12.36719,0.009765625,0.01171875,-0.09375,0.0703125,-0.001953125,0,-0.01171875,0.0002441406,0.1669922,0,0,0.1669922,0.1860657,4.061,0,0,0,0.1400146,nan,4,12.17,1,128,0.1274719,0.2424927,0.1366882,0.2375488,0,0,0,1,6,0
4622.318,0.001013,-0.1367188,0.07421875,-0.08398438,1.34375,1.71875,13.89844,0.005859375,0.0234375,-0.08203125,0.0703125,-0.001953125,0,-0.01171875,0.0003662109,0.1661377,0,0,0.1661377,0.1877441,4.061,0,0,0,0.1400146,nan,4,12.181,1,128,0.168335,0.1985474,0.1657104,0.2183533,0,0,0,1,6,0
4622.329,0.001015,-0.01953125,0.0703125,-0.001953125,1.460938,6.5,16.41406,-0.01757812,0.03125,-0.04296875,0.0703125,-0.001953125,0,-0.01171875,0.0003662109,0.1654053,0,0,0.1654053,0.1894226,4.061,0,0,0,0.1400146,nan,4,12.191,1,128,0.2225647,0.1419373,0.2186584,0.1745605,0.0009765625,0,0,1,6,0
4622.339,0.001019,0.0546875,0.1601562,-0.0390625,1.546875,10.00781,17.85938,0.03320312,0.015625,-0.01367188,0.0703125,-0.001953125,0,-0.01171875,0.0001220703,0.1652832,0,0,0.1652832,0.1911011,4.061,0,0,0,0.1400146,nan,4,12.201,1,128,0.1805115,0.1815491,0.2088318,0.1935425,0.0009765625,0,0,1,6,0
4622.349,0.00102,0.04882812,0.09179688,0.02148438,1.460938,7.875,16.84375,0.0234375,0.01171875,-0.00390625,0.0703125,0,0,-0.01171875,0.0001220703,0.1651611,0,0,0.1651611,0.1928101,4.061,0,0,0,0.1400146,nan,4,12.211,1,128,0.2046509,0.1663513,0.2215881,0.1785889,0.0009765625,0,0,1,6,0
4622.359,0.00101,0.04101562,-0.03710938,-0.00390625,0.734375,-3.171875,7.046875,0.02148438,-0.001953125,0,0.0703125,-0.001953125,0,-0.01171875,0.0002441406,0.1652832,0,0,0.1652832,0.194458,4.061,0,0,0,0.1400146,nan,4,12.221,1,128,0.1800842,0.214386,0.1753235,0.2080994,0.0009765625,0,0,1,6,0
4622.369,0.001009,-0.00390625,-0.05859375,0.0546875,1,-7.328125,8.804688,-0.005859375,-0.00390625,0.06640625,0.0703125,-0.001953125,0,-0.01171875,0.0002441406,0.1657715,0,0,0.1657715,0.196167,4.061,0,0,0,0.1400146,nan,4,12.231,1,128,0.2612,0.1378784,0.242218,0.1433411,0.0009765625,0,0,1,6,0
4622.378,0.001008,-0.03710938,0.001953125,0.009765625,1.523438,3.945312,11.17188,0.0078125,-0.0078125,0.015625,0.0703125,-0.001953125,0,-0.01159668,0.0002441406,0.1660156,0,0,0.1660156,0.1976624,4.061,0,0,0,0.1400146,nan,4,12.24,1,128,0.1797485,0.2171936,0.166748,0.2269897,0.0009765625,0,0,1,6,0
4622.388,0.001009,0.02148438,0.02929688,0.1210938,-0.21875,-8.703125,2.523438,0.009765625,0.001953125,0.1015625,0.0703125,-0.001953125,0,-0.01159668,0.0001220703,0.166748,0,0,0.166748,0.1993408,4.061,0,0,0,0.1400146,nan,4,12.25,1,128,0.2975159,0.09768677,0.2960205,0.1062012,0.0009765625,0,0,1,6,0
4622.398,0.000995,0.09375,-0.06445312,-0.02539062,-0.9140625,12.58594,22.07031,-0.01171875,-0.009765625,0.03515625,0.07226562,-0.001953125,0,-0.01208496,0.0003662109,0.1674805,0,0,0.1674805,0.2010498,4.061,0,0,0,0.1400146,nan,4,12.26,1,128,0.1324158,0.2810059,0.1239929,0.2667236,0.0009765625,0,0,1,6,0
4622.408,0.001006,-0.0078125,-0.01757812,-0.07226562,2.125,-5.5625,8.210938,0.001953125,0.00390625,-0.06054688,0.07226562,-0.001953125,0,-0.01208496,0.0003662109,0.1672363,0,0,0.1672363,0.2027283,4.061,0,0,0,0.1400146,nan,4,12.27,1,128,0.1148376,0.2878723,0.107666,0.3005066,0.0009765625,0,0,1,6,0.3174603
4622.418,0.001007,-0.07226562,-0.04296875,0.140625,-1.351562,-2.03125,7.242188,-0.01953125,-0.0234375,0.06054688,0.07226562,-0.001953125,0,-0.01208496,0.0002441406,0.1671143,0,0,0.1671143,0.2044067,4.061,0,0,0,0.1400146,nan,4,12.281,1,128,0.3694763,0.04818726,0.3378296,0.06210327,0.0009765625,0,0,1,6,0
4622.428,0.001007,-0.0234375,-0.001953125,0.02929688,2.375,0.515625,4.015625,-0.015625,0.009765625,0.0390625,0.07226562,-0.001953125,0,-0.01208496,0.0003662109,0.1677246,0,0,0.1677246,0.2060852,4.061,0,0,0,0.1400146,nan,4,12.291,1,128,0.2019043,0.2078552,0.188324,0.2262878,0.0009765625,0,0,1,6,0
4622.439,0.001007,0.00390625,0.01757812,0.1523438,-2.828125,7.984375,14.30469,0.009765625,0.009765625,0.1074219,0.07226562,-0.001953125,0,-0.01208496,0.0003662109,0.168335,0,0,0.168335,0.2077637,4.061,0,0,0,0.1400146,nan,4,12.301,1,128,0.318512,0.09194946,0.3140564,0.1065674,0.0009765625,0,0,1,6,0
4622.449,0.001008,-0.00390625,0.015625,0.25,-0.4609375,-4.945312,11.00781,0.02929688,0.0078125,0.2148438,0.07226562,-0.00390625,0,-0.01196289,0.0004882812,0.1700439,0,0,0.1700439,0.2094421,4.061,0,0,0,0.1400146,nan,4,12.311,1,128,0.3742065,0.04360962,0.3741455,0.0458374,0.0009765625,0,0,1,6,0
4622.458,0.001016,-0.0390625,-0.04882812,0.2109375,0.4609375,-5.421875,7.625,0.00390625,0.009765625,0.2285156,0.0703125,-0.00390625,0,-0.01184082,0.0006103516,0.1721191,0,0,0.1721191,0.210968,4.061,0,0,0,0.1400146,nan,4,12.32,1,128,0.3058777,0.1181335,0.2870483,0.1328125,0.001953125,0,0,1,6,0.0952381
4622.468,0.001009,-0.03125,0.03125,0.05273438,-1.851562,4.234375,7.929688,0.005859375,-0.001953125,0.1132812,0.0703125,-0.00390625,0,-0.01171875,0.0006103516,0.1739502,0,0,0.1739502,0.2126465,4.061,0,0,0,0.1400146,nan,4,12.33,1,128,0.1295776,0.2924805,0.1173401,0.3112183,0.001953125,0,0,1,6,0
4622.478,0.001017,0,-0.08984375,0.0390625,-0.84375,-3.742188,12.85938,-0.005859375,-0.0078125,0.05078125,0.07226562,-0.005859375,0,-0.01196289,0.0008544922,0.1745605,0,0,0.1745605,0.214325,4.061,0,0,0,0.1400146,nan,4,12.34,1,128,0.1915283,0.2510071,0.1669922,0.2477722,0.001953125,0,0,1,6,0
4622.488,0.001015,0.05273438,-0.03515625,-0.04101562,1.9375,-7.734375,9.351562,0.005859375,-0.009765625,-0.01171875,0.0703125,-0.005859375,0,-0.01184082,0.0009765625,0.1748047,0,0,0.1748047,0.2160339,4.061,0,0,0,0.1400146,nan,4,12.35,1,128,0.1555176,0.284668,0.1385193,0.2853699,0.001953125,0,0,1,6,0
4622.498,0.001018,-0.05273438,0.07421875,-0.07226562,3.21875,-2.296875,5.375,-0.01757812,0.01757812,-0.06445312,0.07226562,-0.005859375,0,-0.01196289,0.0009765625,0.1743164,0,0,0.1743164,0.2177124,4.061,0,0,0,0.1400146,nan,4,12.36,1,128,0.1650391,0.2618103,0.1553955,0.2885437,0.001953125,0,0,1,6,0
4622.508,0.001017,-0.03515625,-0.0390625,0.001953125,-1.507812,-0.34375,11.96094,0.01953125,-0.00390625,-0.01953125,0.0703125,-0.005859375,0,-0.01171875,0.0009765625,0.1739502,0,0,0.1739502,0.2193909,4.061,0,0,0,0.1400146,nan,4,12.37,1,128,0.2569275,0.1836853,0.2419739,0.1949463,0.001953125,0,0,1,6,0
4622.518,0.001017,-0.03710938,0.009765625,-0.08789062,1.492188,-12.57031,7.984375,0,0.01171875,-0.06835938,0.06835938,-0.005859375,0,-0.01147461,0.0008544922,0.173584,0,0,0.173584,0.2210693,4.061,0,0,0,0.1400146,nan,4,12.381,1,128,0.1547241,0.2763062,0.1454163,0.3078308,0.001953125,0,0,1,6,0
4622.528,0.001017,-0.01171875,0.0390625,-0.02539062,-0.9609375,0.375,15.04688,-0.015625,0.01367188,-0.03710938,0.06835938,-0.00390625,0,-0.01135254,0.0008544922,0.1729736,0,0,0.1729736,0.2227478,4.061,0,0,0,0.1400146,nan,4,12.391,1,128,0.2494812,0.1850891,0.2351074,0.221344,0.001953125,0,0,1,6,0
4622.539,0.001017,0.05273438,-0.0390625,-0.00390625,-0.4453125,-1.429688,6.46875,0.04101562,0.005859375,-0.01953125,0.06640625,-0.00390625,0,-0.0111084,0.0007324219,0.1726074,0,0,0.1726074,0.2244263,4.061,0,0,0,0.1400146,nan,4,12.401,1,128,0.2421265,0.2025146,0.2462158,0.2068787,0.001953125,0,0,1,6,0
4622.549,0.001017,0.0390625,-0.03320312,0,1.375,2.671875,5.601562,0.015625,-0.00390625,0.009765625,0.06640625,-0.00390625,0,-0.01086426,0.0007324219,0.1727295,0,0,0.1727295,0.2261047,4.061,0,0,0,0.1400146,nan,4,12.411,1,128,0.2425842,0.2104187,0.2339172,0.2175598,0.001953125,0,0,1,6,0
4622.559,0.001026,-0.04101562,-0.0546875,-0.02734375,-0.546875,14.21875,17.3125,-0.01953125,0.015625,-0.01171875,0.06445312,-0.00390625,0,-0.01098633,0.0007324219,0.1727295,0,0,0.1727295,0,4.061,0,0,0,0.1400146,nan,4,12.421,0,0,0,0,0,0,0,0,0,1,6,0
4622.569,0.001016,0.02929688,-0.03320312,-0.05273438,1.96875,5.421875,6.304688,0.009765625,-0.01757812,-0.0390625,0.06445312,-0.00390625,0,-0.01098633,0.0006103516,0.1724854,0,0,0.1727295,0,4.061,0,0,0,0.1400146,nan,4,12.431,0,0,0,0,0,0,0,0,0,1,6,0
4622.579,0.001024,-0.03710938,0.02148438,-0.0703125,-2.3125,-2.679688,11.97656,0.02148438,0.02148438,-0.06835938,0.06445312,-0.00390625,0,-0.01098633,0.0006103516,0.171875,0,0,0.1727295,0,4.061,0,0,0,0.1400146,nan,4,12.441,0,0,0,0,0,0,0,0,0,1,6,0
4622.589,0.001014,-0.02539062,0.00390625,-0.03125,-0.515625,-1.875,6.757812,-0.01367188,0.015625,-0.05273438,0.06445312,-0.00390625,0,-0.0111084,0.0008544922,0.1711426,0,0,0.1727295,0,4.061,0,0,0,0.1400146,nan,4,12.451,0,0,0,0,0,0,0,0,0,1,6,0
4622.598,0.001026,-0.0234375,0.03710938,-0.015625,0.921875,-7.039062,5.28125,-0.009765625,0.03515625,-0.005859375,0.06445312,-0.00390625,0,-0.01135254,0.001098633,0.1710205,0,0,0.1727295,0,4.061,0,0,0,0.1400146,nan,4,12.46,0,0,0,0,0,0,0,0,0,1,6,1
4622.608,0.001041,0.04101562,-0.0625,-0.02539062,-0.359375,3.609375,7.945312,0.0234375,-0.03125,-0.03125,0.06445312,-0.00390625,0,-0.01123047,0.001098633,0.1707764,0,0,0.1727295,0,4.061,0,0,0,0.1400146,nan,4,12.47,0,0,0,0,0,0,0,0,0,1,6,0
4622.618,0.00101,0.001953125,-0.03125,-0.005859375,-0.4375,2.273438,13.59375,0.03320312,-0.009765625,-0.001953125,0.06445312,-0.00390625,0,-0.01086426,0.0009765625,0.1706543,0,0,0.1727295,0,4.061,0,0,0,0.1400146,nan,4,12.481,0,0,0,0,0,0,0,0,0,1,6,0
4622.629,0.000857,-0.01367188,0.015625,-0.1074219,-0.109375,4.242188,6.5625,0.00390625,0.001953125,-0.06445312,0.06445312,-0.00390625,0,-0.01086426,0.0008544922,0.1704102,0,0,0.1727295,0,4.061,0,0,0,0.1400146,nan,4,12.491,0,0,0,0,0,0,0,0,0,1,6,0
4622.639,0.001101,0.05078125,-0.03125,-0.04492188,-0.3515625,4.664062,12.14844,0.02539062,-0.01171875,-0.0703125,0.06445312,-0.00390625,0,-0.01074219,0.0007324219,0.1694336,0,0,0.1727295,0,4.061,0,0,0,0.1400146,nan,4,12.501,0,0,0,0,0,0,0,0,0,1,6,0
4622.648,0.00101,-0.01953125,-0.0390625,-0.03710938,3.257812,-2.71875,12.85156,-0.001953125,-0.01171875,-0.02929688,0.06445312,-0.00390625,0,-0.01062012,0.0006103516,0.1690674,0,0,0.1727295,0,4.061,0,0,0,0.1400146,nan,4,12.511,0,0,0,0,0,0,0,0,0,1,6,0
4622.659,0.000902,-0.01757812,-0.001953125,-0.07617188,2.25,3.5,6.96875,-0.01367188,0.01171875,-0.05859375,0.06445312,-0.00390625,0,-0.01062012,0.0006103516,0.1685791,0,0,0.1727295,0,4.061,0,0,0,0.1400146,nan,4,12.521,0,0,0,0,0,0,0,0,0,1,6,0
4622.668,0.000922,0.01367188,0,-0.05859375,1.609375,3.570312,11.6875,0.0078125,0.005859375,-0.05859375,0.06445312,-0.00390625,0,-0.01062012,0.0006103516,0.1680908,0,0,0.1727295,0,4.061,0,0,0,0.1400146,nan,4,12.53,0,0,0,0,0,0,0,0,0,1,6,0
4622.72,0.001105,-0.01757812,0.001953125,-0.05273438,-1.226562,-3.25,4.085938,0.001953125,0.005859375,-0.05664062,0.06445312,-0.00390625,0,-0.01062012,0.0006103516,0.1679688,0,0,0.1727295,0,4.061,0,0,0,0.1400146,nan,4,12.531,0,0,0,0,0,0,0,0,0,1,6,0
4622.728,0.001047,0.00390625,0.005859375,0.01953125,-0.125,1.359375,10.83594,-0.01367188,0.009765625,0.00390625,0.06445312,-0.00390625,0,-0.0123291,0.0009765625,0.1673584,0,0,0.1727295,0,4.061,0,0,0,0.1400146,nan,4,12.591,0,0,0,0,0,0,0,0,0,1,6,0
4622.739,0.001001,-0.02929688,-0.001953125,-0.001953125,-0.1015625,-0.25,9.523438,-0.01171875,0.01367188,0.00390625,0.06445312,-0.00390625,0,-0.01220703,0.001098633,0.1674805,0,0,0.1727295,0,4.061,0,0,0,0.1400146,nan,4,12.601,0,0,0,0,0,0,0,0,0,1,6,1
4622.749,0.000994,0,0.02539062,-0.06445312,0.4296875,0.8203125,10.35156,-0.00390625,-0.00390625,-0.0390625,0.06445312,-0.00390625,0,-0.0123291,0.0009765625,0.1673584,0,0,0.1727295,0,4.061,0,0,0,0.1400146,nan,4,12.611,0,0,0,0,0,0,0,0,0,1,6,1
4622.758,0.001018,0.02148438,-0.0078125,-0.04101562,0.4765625,1.164062,8.0625,0.001953125,0.00390625,-0.05078125,0.06445312,-0.00390625,0,-0.01220703,0.0009765625,0.1668701,0,0,0.1727295,0,4.061,0,0,0,0.1400146,nan,4,12.62,0,0,0,0,0,0,0,0,0,1,6,0
4622.768,0.001018,-0.02929688,0.02929688,0,0.6484375,0.5234375,10.27344,-0.009765625,0.0234375,-0.01171875,0.06445312,-0.00390625,0,-0.01220703,0.001098633,0.166626,0,0,0.1727295,0,4.061,0,0,0,0.1400146,nan,4,12.631,0,0,0,0,0,0,0,0,0,1,6,1
4622.778,0.00101,0,-0.06640625,-0.04296875,-0.4296875,1.242188,9.46875,0.01171875,-0.02734375,-0.03125,0.06445312,-0.00390625,0,-0.01208496,0.0009765625,0.1663818,0,0,0.1727295,0,4.061,0,0,0,0.1400146,nan,4,12.641,0,0,0,0,0,0,0,0,0,1,6,1
4622.788,0.001018,-0.0078125,0.005859375,-0.02929688,-0.140625,-1.578125,10.16406,0.001953125,0.00390625,-0.0390625,0.06445312,-0.00390625,0,-0.01196289,0.0009765625,0.1660156,0,0,0.1727295,0,4.061,0,0,0,0.1400146,nan,4,12.651,0,0,0,0,0,0,0,0,0,1,6,1
4622.798,0.001018,-0.0078125,-0.00390625,-0.005859375,0.65625,0.3828125,7.515625,0.009765625,0.001953125,-0.01367188,0.06445312,-0.00390625,0,-0.01196289,0.001098633,0.1657715,0,0,0.1727295,0,4.061,0,0,0,0.1400146,nan,4,12.661,0,0,0,0,0,0,0,0,0,1,6,0
4622.808,0.001018,0.03515625,0.01757812,-0.01757812,-0.546875,2.789062,11.75781,-0.005859375,-0.009765625,-0.009765625,0.06445312,-0.00390625,0,-0.01196289,0.001098633,0.1656494,0,0,0.1727295,0,4.061,0,0,0,0.1400146,nan,4,12.671,0,0,0,0,0,0,0,0,0,1,6,0
4622.819,0.00101,0.01171875,-0.02734375,0.03125,-0.6171875,-0.53125,4.210938,0.009765625,-0.005859375,0.01171875,0.06445312,-0.00390625,0,-0.01184082,0.001098633,0.1656494,0,0,0.1727295,0,4.061,0,0,0,0.1400146,nan,4,12.681,0,0,0,0,0,0,0,0,0,1,6,0
4622.829,0.001018,-0.005859375,-0.01367188,-0.0078125,-0.96875,-0.09375,12.28906,-0.01171875,-0.009765625,0.005859375,0.06445312,-0.00390625,0,-0.01184082,0.0009765625,0.1658936,0,0,0.1727295,0,4.061,0,0,0,0.1400146,nan,4,12.691,0,0,0,0,0,0,0,0,0,1,6,0
4622.839,0.00102,0,0.02734375,-0.02539062,0.8046875,4.164062,11.35156,-0.005859375,0.01367188,-0.015625,0.06445312,-0.00390625,0,-0.01184082,0.001098633,0.1657715,0,0,0.1727295,0,4.061,0,0,0,0.1400146,nan,4,12.701,0,0,0,0,0,0,0,0,0,1,6,0
4622.849,0.001023,0.01757812,0.00390625,-0.015625,-0.09375,4.21875,9.054688,0.0078125,-0.0078125,-0.0078125,0.06445312,-0.00390625,0,-0.01184082,0.001098633,0.1656494,0,0,0.1727295,0,4.061,0,0,0,0.1400146,nan,4,12.711,0,0,0,0,0,0,0,0,0,1,6,1
4622.858,0.001008,0.01171875,0.001953125,-0.02539062,-0.9375,0.3828125,14.71875,0.005859375,-0.005859375,-0.015625,0.06445312,-0.00390625,0,-0.01171875,0.001098633,0.1655273,0,0,0.1727295,0,4.061,0,0,0,0.1400146,nan,4,12.72,0,0,0,0,0,0,0,0,0,1,6,0
4622.868,0.00101,-0.0078125,0.00390625,-0.05859375,1.492188,4.1875,10.57031,-0.0078125,0.00390625,-0.046875,0.06445312,-0.00390625,0,-0.01171875,0.001098633,0.1651611,0,0,0.1727295,0,4.061,0,0,0,0.1400146,nan,4,12.731,0,0,0,0,0,0,0,0,0,1,6,0
4622.878,0.001018,-0.03515625,-0.00390625,0.03320312,0.2890625,-5.3125,14.85938,-0.005859375,-0.001953125,-0.00390625,0.06445312,-0.00390625,0,-0.01171875,0.0009765625,0.164917,0,0,0.1727295,0,4.061,0,0,0,0.1400146,nan,4,12.741,0,0,0,0,0,0,0,0,0,1,6,0
4622.888,0.00101,0.01171875,0.01171875,0,-2.710938,0.84375,10.07812,-0.009765625,0.01171875,0.01367188,0.06445312,-0.00390625,0,-0.01184082,0.001098633,0.1650391,0,0,0.1727295,0,4.061,0,0,0,0.1400146,nan,4,12.751,0,0,0,0,0,0,0,0,0,1,6,1
4622.898,0.001035,0.009765625,-0.015625,-0.03710938,1.476562,3.015625,8.054688,0,-0.001953125,-0.01367188,0.06445312,-0.00390625,0,-0.01196289,0.001098633,0.1650391,0,0,0.1727295,0,4.061,0,0,0,0.1400146,nan,4,12.761,0,0,0,0,0,0,0,0,0,1,6,0
4622.908,0.00101,0.05273438,-0.03710938,-0.02539062,3.429688,3.671875,9.65625,0.01367188,-0.0078125,-0.02734375,0.06445312,-0.00390625,0,-0.01184082,0.001098633,0.1647949,0,0,0.1727295,0,4.061,0,0,0,0.1400146,nan,4,12.771,0,0,0,0,0,0,0,0,0,1,6,0
4622.919,0.001018,0.01171875,-0.001953125,0.01953125,2.992188,1.976562,9.007812,-0.00390625,0.001953125,0.00390625,0.06445312,-0.00390625,0,-0.01184082,0.0009765625,0.1646729,0,0,0.1727295,0,4.061,0,0,0,0.1400146,nan,4,12.781,0,0,0,0,0,0,0,0,0,1,6,1
4622.929,0.001005,0.03710938,-0.001953125,-0.01171875,3.070312,3.40625,10.58594,0.00390625,0.001953125,0.015625,0.06445312,-0.00390625,0,-0.01184082,0.001098633,0.164917,0,0,0.1727295,0,4.061,0,0,0,0,nan,4,0,0,0,0,0,0,0,0,0,0,1,6,0
4622.939,0.001002,0.01953125,-0.009765625,-0.03710938,1.054688,1.851562,10.46094,-0.00390625,-0.001953125,-0.01367188,0.06445312,-0.00390625,0,-0.01184082,0.001098633,0.164917,0,0,0.1727295,0,4.061,0,0,0,0,nan,4,0.01,0,0,0,0,0,0,0,0,0,1,6,1
4622.949,0.001036,-0.02148438,0.03125,-0.00390625,-2.867188,-1.664062,11.04688,-0.001953125,0.0078125,-0.0078125,0.06445312,-0.00390625,0,-0.01171875,0.001098633,0.1647949,0,0,0.1727295,0,4.061,0,0,0,0,nan,4,0.02,0,0,0,0,0,0,0,0,0,1,6,0
4622.958,0.001007,0.01171875,-0.01757812,-0.001953125,2.578125,0.390625,9.796875,-0.00390625,-0.0078125,0.001953125,0.06445312,-0.00390625,0,-0.01171875,0.0009765625,0.1647949,0,0,0.1727295,0,4.061,0,0,0,0,nan,4,0.029,0,0,0,0,0,0,0,0,0,1,6,1
4622.968,0.000984,-0.01171875,0.009765625,0.00390625,0.7578125,-1.484375,9.929688,0.0078125,0.005859375,-0.005859375,0.06445312,-0.00390625,0,-0.01159668,0.0009765625,0.1646729,0,0,0.1727295,0,4.061,0,0,0,0,nan,4,0.039,0,0,0,0,0,0,0,0,0,1,6,1
4622.978,0.001,0.05859375,-0.03320312,-0.015625,2.601562,1.820312,10.08594,0.0078125,-0.00390625,-0.00390625,0.06445312,-0.00390625,0,-0.01147461,0.0008544922,0.1646729,0,0,0.1727295,0,4.061,0,0,0,0,nan,4,0.004,0,0,0,0,0,0,0,0,0,1,6,1
4622.989,0.001042,-0.04492188,0.01757812,0.01171875,-0.3203125,-1.625,10.46875,-0.00390625,-0.00390625,0.001953125,nan,nan,nan,-0.01135254,0.0008544922,0.1646729,nan,nan,nan,0,4.061,0,0,0,0,nan,2,0.014,0,0,0,0,0,0,0,0,0,1,6,1
4622.998,0.001004,0.00390625,0.009765625,0.015625,-0.84375,0.765625,9.421875,-0.005859375,0.005859375,0.00390625,nan,nan,nan,-0.01123047,0.0008544922,0.1646729,0,0,0.1646729,0,4.061,0,0,0,0,nan,2,0.024,0,0,0,0,0,0,0,0,0,1,2,1
4623.009,0.001006,-0.03515625,-0.0078125,0.01171875,0.640625,-3.601562,9.570312,-0.0078125,0.001953125,0.00390625,nan,nan,nan,-0.01123047,0.0007324219,0.1646729,0,0,0.1646729,0,4.061,0,0,0,0,nan,2,0.034,0,0,0,0,0,0,0,0,0,1,2,1
4623.019,0.000942,0.06054688,-0.00390625,-0.02148438,-0.8515625,1.851562,10.16406,-0.005859375,0,-0.00390625,nan,nan,nan,-0.01123047,0.0007324219,0.1646729,0,0,0.1646729,0,4.061,0,0,0,0,nan,2,0.044,0,0,0,0,0,0,0,0,0,1,2,1
4623.029,0.001007,0.02929688,-0.0859375,0.001953125,1.820312,-0.296875,9.054688,0.00390625,-0.0078125,-0.001953125,nan,nan,nan,-0.0111084,0.0007324219,0.1645508,0,0,0.1645508,0,4.061,0,0,0,0,nan,2,0.055,0,0,0,0,0,0,0,0,0,1,2,1
4623.039,0.001009,0.03320312,-0.04296875,0.01367188,0.5390625,-1.539062,9.1875,-0.01171875,-0.0078125,0.00390625,nan,nan,nan,-0.0111084,0.0006103516,0.1645508,0,0,0.1645508,0,4.061,0,0,0,0,nan,2,0.065,0,0,0,0,0,0,0,0,0,1,2,1
4623.048,0.001025,-0.01757812,0.0625,0,-0.6328125,-0.875,10.90625,-0.015625,0.001953125,0.001953125,nan,nan,nan,-0.0111084,0.0006103516,0.1646729,0,0,0.1646729,0,4.061,0,0,0,0,nan,2,0.074,0,0,0,0,0,0,0,0,0,1,2,0
4623.058,0.001011,0.09570312,0.1152344,-0.04101562,-0.9296875,1.570312,11.45312,0.009765625,0.01171875,-0.01171875,nan,nan,nan,-0.0111084,0.0006103516,0.1646729,0,0,0.1646729,0,4.061,0,0,0,0,nan,2,0.084,0,0,0,0,0,0,0,0,0,1,2,0
4623.068,0.001015,0.1171875,-0.01171875,-0.01171875,-1.015625,0.75,10.60938,0.01757812,0.00390625,-0.00390625,nan,nan,nan,-0.01098633,0.0006103516,0.1645508,0,0,0.1645508,0,4.061,0,0,0,0,nan,2,0.094,0,0,0,0,0,0,0,0,0,1,2,1
4623.078,0.001016,-0.015625,-0.06835938,0.01953125,-0.65625,0.4375,9.414062,0.001953125,-0.01367188,0.005859375,nan,nan,nan,-0.01086426,0.0006103516,0.1645508,0,0,0.1645508,0,4.061,0,0,0,0,nan,2,0.104,0,0,0,0,0,0,0,0,0,1,2,1
4623.088,0.001021,-0.02148438,-0.02148438,-0.009765625,0.3828125,0.3828125,8.695312,0.0078125,-0.00390625,-0.001953125,nan,nan,nan,-0.01074219,0.0006103516,0.1645508,0,0,0.1645508,0,4.061,0,0,0,0,nan,2,0.114,0,0,0,0,0,0,0,0,0,1,2,0
4623.099,0.001024,0.02734375,-0.04882812,0.00390625,-0.5546875,-0.265625,9.648438,0.001953125,0,-0.001953125,nan,nan,nan,-0.01074219,0.0004882812,0.1645508,0,0,0.1645508,0,4.061,0,0,0,0,nan,2,0.124,0,0,0,0,0,0,0,0,0,1,2,1
4623.108,0.001009,-0.005859375,0.01757812,0.02148438,0.578125,-0.34375,9.898438,-0.005859375,0,0.00390625,nan,nan,nan,-0.01074219,0.0004882812,0.1645508,0,0,0.1645508,0,4.061,0,0,0,0,nan,2,0.133,0,0,0,0,0,0,0,0,0,1,2,1
4623.119,0.001023,-0.03125,-0.005859375,-0.01171875,0.3203125,0.2109375,9.921875,-0.009765625,0.001953125,-0.00390625,nan,nan,nan,-0.01062012,0.0004882812,0.1645508,0,0,0.1645508,0,4.061,0,0,0,0,nan,2,0.144,0,0,0,0,0,0,0,0,0,1,2,1
4623.128,0.00101,0.01757812,0.0078125,-0.01171875,-0.0546875,-0.078125,9.867188,0.005859375,0.001953125,-0.00390625,nan,nan,nan,-0.01062012,0.0004882812,0.1645508,0,0,0.1645508,0,4.061,0,0,0,0,nan,2,0.154,0,0,0,0,0,0,0,0,0,1,2,1
4623.138,0.001007,-0.00390625,0.009765625,0.0234375,0.125,0.1328125,10.00781,-0.009765625,0.001953125,0.00390625,nan,nan,nan,-0.01062012,0.0004882812,0.1645508,0,0,0.1645508,0,4.061,0,0,0,0,nan,2,0.164,0,0,0,0,0,0,0,0,0,1,2,1
4623.148,0.000982,-0.005859375,0.0078125,0,-0.3125,-0.1328125,9.835938,-0.001953125,0.00390625,-0.001953125,nan,nan,nan,-0.01049805,0.0003662109,0.1645508,0,0,0.1645508,0,4.061,0,0,0,0,nan,2,0.174,0,0,0,0,0,0,0,0,0,1,2,1
4623.158,0.00101,-0.001953125,-0.01171875,0.01171875,-0.1484375,0.421875,9.820312,-0.001953125,-0.0078125,0,nan,nan,nan,-0.01037598,0.0003662109,0.1645508,0,0,0.1645508,0,4.061,0,0,0,0,nan,2,0.184,0,0,0,0,0,0,0,0,0,1,2,1
4623.168,0.00101,-0.001953125,-0.001953125,-0.01953125,0.046875,0.21875,9.460938,-0.001953125,-0.00390625,-0.001953125,nan,nan,nan,-0.01037598,0.0002441406,0.1645508,0,0,0.1645508,0,4.061,0,0,0,0,nan,2,0.194,0,0,0,0,0,0,0,0,0,1,2,1
4623.178,0.000968,-0.01367188,-0.0078125,0,0,0.359375,10.13281,-0.00390625,-0.001953125,-0.009765625,nan,nan,nan,-0.01025391,0.0002441406,0.1645508,0,0,0.1645508,0,4.061,0,0,0,0,nan,2,0.204,0,0,0,0,0,0,0,0,0,1,2,1
4623.189,0.00101,0,-0.001953125,0.0078125,0.21875,-0.140625,9.585938,0,0,0,nan,nan,nan,-0.01025391,0.0002441406,0.1645508,0,0,0.1645508,0,4.061,0,0,0,0,nan,2,0.214,0,0,0,0,0,0,0,0,0,1,2,1
4623.199,0.00101,0.01171875,0,0.005859375,-0.1015625,-0.1640625,9.28125,0.001953125,0,0.0078125,nan,nan,nan,-0.01013184,0.0002441406,0.1645508,0,0,0.1645508,0,4.061,0,0,0,0,nan,2,0.224,0,0,0,0,0,0,0,0,0,1,2,1
4623.209,0.001033,0.00390625,-0.01171875,0,-0.140625,0.0546875,9.859375,0,0,0.00390625,nan,nan,nan,-0.01013184,0.0001220703,0.1645508,0,0,0.1645508,0,4.061,0,0,0,0,nan,2,0.234,0,0,0,0,0,0,0,0,0,1,2,1
4623.219,0.001009,-0.009765625,0.001953125,-0.01171875,0.0546875,-0.1015625,9.953125,0,0.001953125,-0.005859375,nan,nan,nan,-0.01013184,0.0001220703,0.1645508,0,0,0.1645508,0,4.061,0,0,0,0,nan,2,0.244,0,0,0,0,0,0,0,0,0,1,2,1
4623.228,0.000999,0.0078125,-0.001953125,0.001953125,-0.1484375,0.0234375,9.914062,0,-0.001953125,0,nan,nan,nan,-0.01000977,0.0001220703,0.1645508,0,0,0.1645508,0,4.061,0,0,0,0,nan,2,0.254,0,0,0,0,0,0,0,0,0,1,2,1
4623.238,0.001027,-0.001953125,0,-0.00390625,0.5,0.0546875,9.835938,-0.001953125,0.00390625,-0.00390625,nan,nan,nan,-0.01000977,0.0001220703,0.1645508,0,0,0.1645508,0,4.061,0,0,0,0,nan,2,0.264,0,0,0,0,0,0,0,0,0,1,2,1
4623.248,0.001034,0.01171875,0.0078125,0.0234375,0.0625,0.0859375,9.773438,0,-0.001953125,0.005859375,nan,nan,nan,-0.009887695,0.0001220703,0.1644287,0,0,0.1644287,0,4.077,0,0,0,0,nan,2,0.274,0,0,0,0,0,0,0,0,0,1,2,1
4623.258,0.00101,-0.005859375,0.005859375,0.001953125,0.046875,0.03125,9.90625,-0.00390625,0.00390625,0.001953125,nan,nan,nan,-0.009887695,0.0001220703,0.1645508,0,0,0.1645508,0,4.077,0,0,0,0,nan,2,0.284,0,0,0,0,0,0,0,0,0,1,2,1
4623.268,0.001026,0.001953125,-0.001953125,-0.015625,0.0234375,0,9.796875,-0.001953125,-0.00390625,-0.009765625,nan,nan,nan,-0.009765625,0.0001220703,0.1644287,0,0,0.1644287,0,4.077,0,0,0,0,nan,2,0.294,0,0,0,0,0,0,0,0,0,1,2,1
4623.278,0.001008,-0.00390625,0.001953125,-0.00390625,-0.0234375,0.2578125,9.867188,-0.001953125,0.001953125,0.00390625,nan,nan,nan,-0.009765625,0.0001220703,0.1645508,0,0,0.1645508,0,4.077,0,0,0,0,nan,2,0.304,0,0,0,0,0,0,0,0,0,1,2,1
4623.288,0.001009,0.001953125,-0.0078125,0.005859375,0.0625,0.1484375,9.75,-0.001953125,-0.001953125,-0.005859375,nan,nan,nan,-0.009765625,0,0.1644287,0,0,0.1644287,0,4.077,0,0,0,0,nan,2,0.314,0,0,0,0,0,0,0,0,0,1,2,1
4623.299,0.001016,-0.0078125,0,0.005859375,-0.109375,-0.2265625,9.695312,-0.001953125,-0.001953125,0,nan,nan,nan,-0.009643555,0,0.1644287,0,0,0.1644287,0,4.077,0,0,0,0,nan,2,0.324,0,0,0,0,0,0,0,0,0,1,2,1
4623.309,0.001008,0.005859375,0,0.001953125,0.1171875,0.1640625,9.859375,0,0.001953125,0.00390625,nan,nan,nan,-0.009643555,0,0.1644287,0,0,0.1644287,0,4.077,0,0,0,0,nan,2,0.334,0,0,0,0,0,0,0,0,0,1,2,1
4623.319,0.0009860001,-0.009765625,-0.001953125,-0.009765625,-0.0546875,-0.1015625,9.820312,-0.001953125,-0.001953125,-0.00390625,nan,nan,nan,-0.009521484,0,0.1644287,0,0,0.1644287,0,4.077,0,0,0,0,nan,2,0.344,0,0,0,0,0,0,0,0,0,1,2,1
4623.329,0.001009,0.001953125,0.00390625,0.005859375,0.09375,0.1953125,9.835938,-0.001953125,0.00390625,0.001953125,nan,nan,nan,-0.009521484,0,0.1644287,0,0,0.1644287,0,4.077,0,0,0,0,nan,2,0.355,0,0,0,0,0,0,0,0,0,1,2,1
4623.339,0.001008,-0.001953125,-0.001953125,-0.005859375,-0.03125,-0.140625,9.796875,0,-0.00390625,0.001953125,nan,nan,nan,-0.009399414,-0.0001220703,0.1644287,0,0,0.1644287,0,4.077,0,0,0,0,nan,2,0.365,0,0,0,0,0,0,0,0,0,1,2,1
4623.348,0.001003,-0.00390625,0.005859375,-0.00390625,0.0859375,0.1328125,9.820312,-0.00390625,0.00390625,-0.0078125,nan,nan,nan,-0.009399414,-0.0001220703,0.1644287,0,0,0.1644287,0,4.077,0,0,0,0,nan,2,0.374,0,0,0,0,0,0,0,0,0,1,2,1
4623.358,0.001005,0.005859375,0.001953125,0.009765625,0.03125,-0.0859375,9.75,0.001953125,0,0.005859375,nan,nan,nan,-0.009399414,-0.0001220703,0.1644287,0,0,0.1644287,0,4.077,0,0,0,0,nan,2,0.384,0,0,0,0,0,0,0,0,0,1,2,1
4623.368,0.001005,-0.001953125,0.00390625,-0.005859375,0.0703125,0.078125,9.859375,-0.001953125,0.00390625,-0.001953125,nan,nan,nan,-0.009277344,-0.0001220703,0.1644287,0,0,0.1644287,0,4.077,0,0,0,0,nan,2,0.394,0,0,0,0,0,0,0,0,0,1,2,1
4623.378,0.001007,0,-0.005859375,0.00390625,-0.0078125,-0.03125,9.78125,0,-0.001953125,0,nan,nan,nan,-0.009277344,-0.0001220703,0.1644287,0,0,0.1644287,0,4.077,0,0,0,0,nan,2,0.404,0,0,0,0,0,0,0,0,0,1,2,1
4623.388,0.001006,-0.001953125,0,-0.001953125,0.0390625,0.1015625,9.867188,-0.00390625,0,0,nan,nan,nan,-0.009277344,-0.0001220703,0.1644287,0,0,0.1644287,0,4.077,0,0,0,0,nan,2,0.414,0,0,0,0,0,0,0,0,0,1,2,1
4623.398,0.001006,0,-0.00390625,-0.00390625,0.0546875,0.03125,9.796875,-0.001953125,-0.001953125,-0.001953125,nan,nan,nan,-0.009155273,-0.0001220703,0.1644287,0,0,0.1644287,0,4.077,0,0,0,0,nan,2,0.424,0,0,0,0,0,0,0,0,0,1,2,1
4623.409,0.000974,-0.001953125,0.001953125,0,0.015625,0.0234375,9.8125,0,0,-0.001953125,nan,nan,nan,-0.009155273,-0.0001220703,0.1644287,0,0,0.1644287,0,4.077,0,0,0,0,nan,2,0.434,0,0,0,0,0,0,0,0,0,1,2,1
4623.419,0.001027,0.001953125,-0.001953125,0.001953125,0.03125,0.015625,9.796875,0,0,0.001953125,nan,nan,nan,-0.009033203,-0.0001220703,0.1644287,0,0,0.1644287,0,4.077,0,0,0,0,nan,2,0.444,0,0,0,0,0,0,0,0,0,1,2,1
4623.429,0.001014,-0.001953125,-0.00390625,-0.00390625,0.0078125,0.0078125,9.773438,-0.001953125,-0.001953125,-0.001953125,nan,nan,nan,-0.009033203,-0.0001220703,0.1644287,0,0,0.1644287,0,4.077,0,0,0,0,nan,2,0.455,0,0,0,0,0,0,0,0,0,1,2,1
4623.439,0.001007,0,-0.001953125,0.001953125,0.0546875,0.0625,9.84375,-0.001953125,0,0.001953125,nan,nan,nan,-0.009033203,-0.0001220703,0.1644287,0,0,0.1644287,0,4.077,0,0,0,0,nan,2,0.465,0,0,0,0,0,0,0,0,0,1,2,1
4623.448,0.001019,-0.00390625,-0.001953125,0,0,0.015625,9.828125,-0.001953125,-0.001953125,0,nan,nan,nan,-0.008911133,-0.0002441406,0.1644287,0,0,0.1644287,0,4.077,0,0,0,0,nan,2,0.474,0,0,0,0,0,0,0,0,0,1,2,1
4623.458,0.001008,0,0,0,0.078125,0.09375,9.835938,-0.001953125,0.001953125,-0.001953125,nan,nan,nan,-0.008911133,-0.0002441406,0.1644287,0,0,0.1644287,0,4.077,0,0,0,0,nan,2,0.484,0,0,0,0,0,0,0,0,0,1,2,1
4623.468,0.001015,0,-0.001953125,0.001953125,0.03125,0,9.828125,-0.001953125,0,0.001953125,nan,nan,nan,-0.008789062,-0.0002441406,0.1644287,0,0,0.1644287,0,4.077,0,0,0,0,nan,2,0.494,0,0,0,0,0,0,0,0,0,1,2,1
4623.478,0.001015,0,0,-0.005859375,0.0625,0.046875,9.859375,-0.001953125,0.001953125,-0.001953125,nan,nan,nan,-0.008789062,-0.0002441406,0.1644287,0,0,0.1644287,0,4.077,0,0,0,0,nan,2,0.504,0,0,0,0,0,0,0,0,0,1,2,1
4623.488,0.001015,0,0,0.001953125,0.0234375,0.0390625,9.820312,0,0,0.001953125,nan,nan,nan,-0.008789062,-0.0002441406,0.1644287,0,0,0.1644287,0,4.077,0,0,0,0,nan,2,0.514,0,0,0,0,0,0,0,0,0,1,2,1
4623.498,0.001015,0,0,0,0.0390625,0.0390625,9.835938,-0.001953125,0,0,nan,nan,nan,-0.008666992,-0.0002441406,0.1644287,0,0,0.1644287,0,4.077,0,0,0,0,nan,2,0.524,0,0,0,0,0,0,0,0,0,1,2,1
4623.509,0.001015,0,0,0,0,0.0234375,9.734375,-0.001953125,0,-0.001953125,nan,nan,nan,-0.008666992,-0.0002441406,0.1644287,0,0,0.1644287,0,4.077,0,0,0,0,nan,2,0.534,0,0,0,0,0,0,0,0,0,1,2,1
4623.519,0.001015,0,-0.001953125,0.001953125,0.0625,0.015625,9.765625,-0.001953125,-0.001953125,0,nan,nan,nan,-0.008666992,-0.0002441406,0.1644287,0,0,0.1644287,0,4.077,0,0,0,0,nan,2,0.544,0,0,0,0,0,0,0,0,0,1,2,1
4623.529,0.00101,-0.001953125,0,0,0.046875,0,9.789062,-0.001953125,-0.001953125,0,nan,nan,nan,-0.008544922,-0.0003662109,0.1644287,0,0,0.1644287,0,4.077,0,0,0,0,nan,2,0.554,0,0,0,0,0,0,0,0,0,1,2,1
4623.539,0.00101,-0.00390625,-0.001953125,0,0.0234375,0.0234375,9.742188,-0.001953125,-0.001953125,0,nan,nan,nan,-0.008544922,-0.0003662109,0.1644287,0,0,0.1644287,0,4.077,0,0,0,0,nan,2,0.565,0,0,0,0,0,0,0,0,0,1,2,1
4623.548,0.001015,0.001953125,0,-0.00390625,0.0390625,0.03125,9.757812,0,0,-0.001953125,nan,nan,nan,-0.008544922,-0.0003662109,0.1644287,0,0,0.1644287,0,4.077,0,0,0,0,nan,2,0.574,0,0,0,0,0,0,0,0,0,1,2,1
