t,dt_s,gyro_x,gyro_y,gyro_z,acc_x,acc_y,acc_z,rates.x,rates.y,rates.z,ratesTarget.x,ratesTarget.y,ratesTarget.z,attitude.x,attitude.y,attitude.z,attitudeTarget.x,attitudeTarget.y,attitudeTarget.z,thrustTarget,battery_v,rc_roll,rc_pitch,rc_yaw,rc_throttle,rc_mode,flight_mode,rc_age_s,armed,fault_mask,motor_rl,motor_rr,motor_fr,motor_fl,rate_i_x,rate_i_y,rate_i_z,mix_scale,control_source,accel_correction_confidence
4036.528,0.001004,0.001953125,0.001953125,0,0.0078125,0.0078125,9.882812,0,0,-0.001953125,0.01367188,-0.01757812,0,0.0006103516,-0.0006103516,-0.01159668,0,0,-0.01159668,0,4.077,0,0,0,0,nan,2,inf,0,0,0,0,0,0,0,0,0,1,1,1
4036.538,0.00101,0,0.00390625,0,0.0234375,0.0078125,9.820312,0,0.001953125,0,0.01367188,-0.01757812,0,0.0006103516,-0.0006103516,-0.01159668,0,0,-0.01159668,0,4.077,0,0,0,0,nan,2,inf,0,0,0,0,0,0,0,0,0,1,1,1
4036.548,0.001003,0.001953125,0.001953125,0.00390625,0.0234375,0.015625,9.804688,0,0,0.001953125,0.01367188,-0.01757812,0,0.0006103516,-0.0006103516,-0.01159668,0,0,-0.01159668,0,4.077,0,0,0,0,nan,2,inf,0,0,0,0,0,0,0,0,0,1,1,1
4036.558,0.001016,-0.00390625,0.001953125,-0.001953125,0.03125,-0.0078125,9.8125,0,0.001953125,0,0.01367188,-0.01757812,0,0.0006103516,-0.0006103516,-0.01159668,0,0,-0.01159668,0,4.077,0,0,0,0,nan,2,inf,0,0,0,0,0,0,0,0,0,1,1,1
4036.568,0.000954,0,0.001953125,0,0,0.0078125,9.820312,0,0,0,0.01367188,-0.01757812,0,0.0006103516,-0.0006103516,-0.01159668,0,0,-0.01159668,0,4.077,0,0,0,0,nan,2,inf,0,0,0,0,0,0,0,0,0,1,1,1
4036.579,0.001016,-0.00390625,0,-0.001953125,0.0234375,0.03125,9.789062,-0.001953125,0,0,0.01367188,-0.01757812,0,0.0006103516,-0.0006103516,-0.01159668,0,0,-0.01159668,0,4.077,0,0,0,0,nan,2,inf,0,0,0,0,0,0,0,0,0,1,1,1
4036.589,0.001015,0,-0.001953125,0.001953125,0.0234375,0.0234375,9.820312,0,0,0,0.01367188,-0.01757812,0,0.0004882812,-0.0006103516,-0.01159668,0,0,-0.01159668,0,4.077,0,0,0,0,nan,2,inf,0,0,0,0,0,0,0,0,0,1,1,1
4036.599,0.001016,0.001953125,0.001953125,0.001953125,-0.0078125,-0.015625,9.78125,0.001953125,0,0.001953125,0.01367188,-0.01757812,0,0.0006103516,-0.0006103516,-0.01159668,0,0,-0.01159668,0,4.077,0,0,0,0,nan,2,inf,0,0,0,0,0,0,0,0,0,1,1,1
4036.609,0.000998,0,0.00390625,0,0.0078125,0,9.851562,-0.001953125,0.001953125,0,0.01367188,-0.01757812,0,0.0004882812,-0.0006103516,-0.01159668,0,0,-0.01159668,0,4.077,0,0,0,0,nan,2,inf,0,0,0,0,0,0,0,0,0,1,1,1
4036.618,0.001017,0,0,0.001953125,0.03125,-0.0234375,9.820312,0,0,0.001953125,0.01367188,-0.01757812,0,0.0004882812,-0.0006103516,-0.01159668,0,0,-0.01159668,0,4.077,0,0,0,0,nan,2,inf,0,0,0,0,0,0,0,0,0,1,1,1
4036.628,0.001006,-0.001953125,-0.00390625,0,0.0078125,-0.0078125,9.796875,-0.001953125,0,0,0.01367188,-0.01757812,0,0.0004882812,-0.0006103516,-0.01159668,0,0,-0.01159668,0,4.077,0,0,0,0,nan,2,inf,0,0,0,0,0,0,0,0,0,1,1,1
4036.638,0.001011,-0.00390625,0.001953125,-0.001953125,0.015625,0.015625,9.773438,-0.001953125,0,0,0.01367188,-0.01757812,0,0.0004882812,-0.0006103516,-0.01159668,0,0,-0.01159668,0,4.077,0,0,0,0,nan,2,inf,0,0,0,0,0,0,0,0,0,1,1,1
4036.648,0.001013,-0.001953125,0,-0.001953125,0,0.03125,9.8125,0,0,0,0.01367188,-0.01757812,0,0.0004882812,-0.0006103516,-0.01159668,0,0,-0.01159668,0,4.077,0,0,0,0,nan,2,inf,0,0,0,0,0,0,0,0,0,1,1,1
4036.658,0.001012,0.001953125,0.001953125,0.001953125,0.0078125,-0.0078125,9.820312,0.001953125,0,0,0.01367188,-0.01757812,0,0.0004882812,-0.0006103516,-0.01159668,0,0,-0.01159668,0,4.077,0,0,0,0,nan,2,inf,0,0,0,0,0,0,0,0,0,1,1,1
4036.668,0.001014,0,0,0.001953125,0.015625,-0.0078125,9.78125,0.001953125,-0.001953125,0,0.01367188,-0.01757812,0,0.0004882812,-0.0006103516,-0.01159668,0,0,-0.01159668,0,4.077,0,0,0,0,nan,2,inf,0,0,0,0,0,0,0,0,0,1,1,1
4036.679,0.001012,0.001953125,0.001953125,0,0.0078125,-0.0078125,9.804688,0.001953125,0,0,0.01367188,-0.01757812,0,0.0004882812,-0.0006103516,-0.01159668,0,0,-0.01159668,0,4.077,0,0,0,0,nan,2,inf,0,0,0,0,0,0,0,0,0,1,1,1
4036.689,0.001014,0,0,0.001953125,0.0078125,0.015625,9.820312,0,0,0,0.01367188,-0.01757812,0,0.0006103516,-0.0006103516,-0.01159668,0,0,-0.01159668,0,4.077,0,0,0,0,nan,2,inf,0,0,0,0,0,0,0,0,0,1,1,1
4036.699,0.001012,0.001953125,0,0,0.015625,0,9.796875,0.001953125,0,0,0.01367188,-0.01757812,0,0.0004882812,-0.0006103516,-0.01159668,0,0,-0.01159668,0,4.077,0,0,0,0,nan,2,inf,0,0,0,0,0,0,0,0,0,1,1,1
4036.709,0.00101,0.001953125,-0.001953125,0,-0.0234375,0,9.8125,0,0,0,0.01367188,-0.01757812,0,0.0004882812,-0.0007324219,-0.01159668,0,0,-0.01159668,0,4.077,0,0,0,0,nan,2,inf,0,0,0,0,0,0,0,0,0,1,1,1
4036.718,0.001012,0.001953125,0.001953125,0.001953125,0,-0.015625,9.757812,0,0,0,0.01367188,-0.01757812,0,0.0004882812,-0.0007324219,-0.01159668,0,0,-0.01159668,0,4.077,0,0,0,0,nan,2,inf,0,0,0,0,0,0,0,0,0,1,1,1
4036.728,0.001012,0,0.001953125,-0.001953125,0.0078125,-0.0078125,9.859375,0,0,0,0.01367188,-0.01757812,0,0.0004882812,-0.0006103516,-0.01159668,0,0,-0.01159668,0,4.077,0,0,0,0,nan,2,inf,0,0,0,0,0,0,0,0,0,1,1,1
4036.738,0.001014,0,0,0,0.03125,0.0234375,9.851562,0,0.001953125,0,0.01367188,-0.01757812,0,0.0004882812,-0.0006103516,-0.01147461,0,0,-0.01147461,0,4.077,0,0,0,0,nan,2,inf,0,0,0,0,0,0,0,0,0,1,1,1
4036.748,0.001013,0,0,0,-0.0078125,0.0078125,9.8125,0,0,0.001953125,0.01367188,-0.01757812,0,0.0004882812,-0.0006103516,-0.01147461,0,0,-0.01147461,0,4.077,0,0,0,0,nan,2,inf,0,0,0,0,0,0,0,0,0,1,1,1
4036.758,0.001015,0,0,0.00390625,0,0.0078125,9.78125,0,0,0.001953125,0.01367188,-0.01757812,0,0.0004882812,-0.0006103516,-0.01147461,0,0,-0.01147461,0,4.077,0,0,0,0,nan,2,inf,0,0,0,0,0,0,0,0,0,1,1,1
4036.768,0.001013,0,-0.001953125,0,0.015625,-0.03125,9.820312,0,-0.001953125,0,0.01367188,-0.01757812,0,0.0004882812,-0.0006103516,-0.01147461,0,0,-0.01147461,0,4.077,0,0,0,0,nan,2,inf,0,0,0,0,0,0,0,0,0,1,1,1
4036.779,0.001041,0.00390625,0.001953125,0,0.0078125,0.03125,9.828125,0,0,0,0.01367188,-0.01757812,0,0.0004882812,-0.0007324219,-0.01147461,0,0,-0.01147461,0,4.077,0,0,0,0,nan,2,inf,0,0,0,0,0,0,0,0,0,1,1,1
4036.789,0.001013,0,0,0,0.015625,0.03125,9.820312,0,0.001953125,0,0.01367188,-0.01757812,0,0.0004882812,-0.0006103516,-0.01147461,0,0,-0.01147461,0,4.077,0,0,0,0,nan,2,inf,0,0,0,0,0,0,0,0,0,1,1,1
4036.799,0.001015,0.001953125,0.001953125,-0.001953125,-0.0078125,0.0078125,9.835938,0,0,0,0.01367188,-0.01757812,0,0.0004882812,-0.0006103516,-0.01147461,0,0,-0.01147461,0,4.077,0,0,0,0,nan,2,inf,0,0,0,0,0,0,0,0,0,1,1,1
4036.809,0.001013,-0.00390625,0,0,0.03125,0.0078125,9.820312,-0.001953125,0,0,0.01367188,-0.01757812,0,0.0004882812,-0.0006103516,-0.01147461,0,0,-0.01147461,0,4.077,0,0,0,0,nan,2,inf,0,0,0,0,0,0,0,0,0,1,1,1
4036.818,0.001016,0,0.001953125,-0.001953125,-0.03125,0.015625,9.789062,0,0,0,0.01367188,-0.01757812,0,0.0004882812,-0.0006103516,-0.01147461,0,0,-0.01147461,0,4.077,0,0,0,0,nan,2,inf,0,0,0,0,0,0,0,0,0,1,1,1
4036.828,0.001009,0,0.001953125,0,0,0,9.796875,0,0,0,0.01367188,-0.01757812,0,0.0004882812,-0.0006103516,-0.01147461,0,0,-0.01147461,0,4.077,0,0,0,0,nan,2,inf,0,0,0,0,0,0,0,0,0,1,1,1
4036.838,0.001008,-0.001953125,-0.001953125,-0.001953125,0.0390625,-0.0234375,9.84375,-0.001953125,-0.001953125,0,0.01367188,-0.01757812,0,0.0004882812,-0.0006103516,-0.01159668,0,0,-0.01159668,0,4.077,0,0,0,0,nan,2,inf,0,0,0,0,0,0,0,0,0,1,1,1
4036.848,0.00101,0,0,-0.001953125,0.0078125,-0.015625,9.835938,-0.001953125,0,0,0.01367188,-0.01757812,0,0.0004882812,-0.0007324219,-0.01159668,0,0,-0.01159668,0,4.077,0,0,0,0,nan,2,inf,0,0,0,0,0,0,0,0,0,1,1,1
4036.858,0.001009,0,0.001953125,-0.001953125,-0.0234375,-0.0078125,9.835938,0,0.001953125,0,0.01367188,-0.01757812,0,0.0004882812,-0.0007324219,-0.01159668,0,0,-0.01159668,0,4.077,0,0,0,0,nan,2,inf,0,0,0,0,0,0,0,0,0,1,1,1
4036.868,0.00101,0.001953125,0.001953125,0.001953125,0.015625,0.015625,9.78125,0,0,0,0.01367188,-0.01757812,0,0.0004882812,-0.0006103516,-0.01159668,0,0,-0.01159668,0,4.077,0,0,0,0,nan,2,inf,0,0,0,0,0,0,0,0,0,1,1,1
4036.879,0.00101,0,0.001953125,-0.001953125,0,-0.03125,9.828125,0,0,0,0.01367188,-0.01757812,0,0.0004882812,-0.0006103516,-0.01159668,0,0,-0.01159668,0,4.077,0,0,0,0,nan,2,inf,0,0,0,0,0,0,0,0,0,1,1,1
4036.889,0.00101,-0.001953125,0,-0.001953125,0.0234375,-0.0078125,9.8125,0,0,0,0.01367188,-0.01757812,0,0.0004882812,-0.0006103516,-0.01159668,0,0,-0.01159668,0,4.077,0,0,0,0,nan,2,inf,0,0,0,0,0,0,0,0,0,1,1,1
4036.899,0.00101,-0.001953125,0.001953125,-0.001953125,0,0,9.835938,-0.001953125,0,0,0.01367188,-0.01757812,0,0.0004882812,-0.0006103516,-0.01159668,0,0,-0.01159668,0,4.077,0,0,0,0,nan,2,inf,0,0,0,0,0,0,0,0,0,1,1,1
4036.909,0.00101,-0.001953125,0,0,0,0.0390625,9.773438,0,0,0,0.01367188,-0.01757812,0,0.0004882812,-0.0006103516,-0.01159668,0,0,-0.01159668,0,4.077,0,0,0,0,nan,2,inf,0,0,0,0,0,0,0,0,0,1,1,1
4036.919,0.001013,-0.001953125,-0.001953125,0,-0.0078125,0.0234375,9.828125,0,0,0,0.01367188,-0.01757812,0,0.0004882812,-0.0006103516,-0.01159668,0,0,-0.01159668,0,4.077,0,0,0,0,nan,2,inf,0,0,0,0,0,0,0,0,0,1,1,1
4036.928,0.001009,0.001953125,0,-0.00390625,0.015625,0.015625,9.78125,0.001953125,0,0,0.01367188,-0.01757812,0,0.0004882812,-0.0006103516,-0.01159668,0,0,-0.01159668,0,4.077,0,0,0,0,nan,2,inf,0,0,0,0,0,0,0,0,0,1,1,1
4036.938,0.001009,0,0.001953125,-0.001953125,-0.0078125,-0.015625,9.851562,0,0,-0.001953125,0.01367188,-0.01757812,0,0.0004882812,-0.0006103516,-0.01159668,0,0,-0.01159668,0,4.077,0,0,0,0,nan,2,inf,0,0,0,0,0,0,0,0,0,1,1,1
4036.948,0.00101,0.001953125,-0.001953125,0,0.0390625,0.015625,9.8125,0.001953125,0,0,0.01367188,-0.01757812,0,0.0004882812,-0.0006103516,-0.01159668,0,0,-0.01159668,0,4.077,0,0,0,0,nan,2,inf,0,0,0,0,0,0,0,0,0,1,1,1
4036.958,0.00101,0.001953125,0.001953125,0.001953125,0.0234375,0.015625,9.820312,0,0.001953125,0,0.01367188,-0.01757812,0,0.0004882812,-0.0006103516,-0.01159668,0,0,-0.01159668,0,4.077,0,0,0,0,nan,2,inf,0,0,0,0,0,0,0,0,0,1,1,1
4036.968,0.00101,-0.001953125,0,-0.001953125,0.0234375,0.015625,9.875,-0.001953125,0,0,0.01367188,-0.01757812,0,0.0004882812,-0.0006103516,-0.01159668,0,0,-0.01159668,0,4.077,0,0,0,0,nan,2,inf,0,0,0,0,0,0,0,0,0,1,1,1
4036.979,0.001009,0,-0.001953125,0.001953125,0.0390625,0.03125,9.8125,0,-0.001953125,0,0.01367188,-0.01757812,0,0.0004882812,-0.0006103516,-0.01159668,0,0,-0.01159668,0,4.077,0,0,0,0,nan,2,inf,0,0,0,0,0,0,0,0,0,1,1,1
4036.989,0.00101,0.001953125,0.00390625,0,0.03125,0.0078125,9.8125,0.001953125,0.001953125,-0.001953125,0.01367188,-0.01757812,0,0.0004882812,-0.0006103516,-0.01159668,0,0,-0.01159668,0,4.077,0,0,0,0,nan,2,inf,0,0,0,0,0,0,0,0,0,1,1,1
4036.999,0.00101,0,0.001953125,0.001953125,-0.0078125,0.0234375,9.8125,0,0.001953125,0,0.01367188,-0.01757812,0,0.0004882812,-0.0006103516,-0.01159668,0,0,-0.01159668,0,4.077,0,0,0,0,nan,2,inf,0,0,0,0,0,0,0,0,0,1,1,1
4037.009,0.00101,-0.001953125,-0.00390625,0,0.03125,0.046875,9.8125,0,0,0,0.01367188,-0.01757812,0,0.0004882812,-0.0006103516,-0.01159668,0,0,-0.01159668,0,4.077,0,0,0,0,nan,2,inf,0,0,0,0,0,0,0,0,0,1,1,1
4037.019,0.00101,0.001953125,0.001953125,0.001953125,-0.0546875,0.046875,9.796875,0,0.001953125,0,0.01367188,-0.01757812,0,0.0004882812,-0.0006103516,-0.01159668,0,0,-0.01159668,0,4.077,0,0,0,0,nan,2,inf,0,0,0,0,0,0,0,0,0,1,1,1
4037.028,0.001011,0.001953125,0,0,0.03125,0.0078125,9.820312,0,0,0,0.01367188,-0.01757812,0,0.0004882812,-0.0006103516,-0.01159668,0,0,-0.01159668,0,4.077,0,0,0,0,nan,2,inf,0,0,0,0,0,0,0,0,0,1,1,1
4037.038,0.00101,0,0.001953125,-0.001953125,-0.0234375,0,9.828125,0,0,0,0.01367188,-0.01757812,0,0.0004882812,-0.0006103516,-0.01159668,0,0,-0.01159668,0,4.077,0,0,0,0,nan,2,inf,0,0,0,0,0,0,0,0,0,1,1,1
4037.048,0.00101,-0.001953125,-0.00390625,0,-0.015625,0.0078125,9.789062,0,0,0,0.01367188,-0.01757812,0,0.0004882812,-0.0006103516,-0.01159668,0,0,-0.01159668,0,4.077,0,0,0,0,nan,2,inf,0,0,0,0,0,0,0,0,0,1,1,1
4037.058,0.00101,-0.001953125,0.001953125,0,0,0.0234375,9.835938,0,0.001953125,0,0.01367188,-0.01757812,0,0.0004882812,-0.0006103516,-0.01159668,0,0,-0.01159668,0,4.077,0,0,0,0,nan,2,inf,0,0,0,0,0,0,0,0,0,1,1,1
4037.068,0.00101,0,0,0,-0.0234375,0.015625,9.789062,0,0.001953125,0,0.01367188,-0.01757812,0,0.0004882812,-0.0006103516,-0.01159668,0,0,-0.01159668,0,4.077,0,0,0,0,nan,2,inf,0,0,0,0,0,0,0,0,0,1,1,1
4037.078,0.00101,0,-0.001953125,0.00390625,-0.0078125,0,9.8125,0,0,0,0.01367188,-0.01757812,0,0.0006103516,-0.0006103516,-0.01159668,0,0,-0.01159668,0,4.077,0,0,0,0,nan,2,inf,0,0,0,0,0,0,0,0,0,1,1,1
4037.089,0.00101,0,0,0,-0.0234375,-0.0078125,9.851562,0,0,0.001953125,0.01367188,-0.01757812,0,0.0006103516,-0.0006103516,-0.01159668,0,0,-0.01159668,0,4.077,0,0,0,0,nan,2,inf,0,0,0,0,0,0,0,0,0,1,1,1
4037.099,0.00101,0.001953125,0.00390625,0.001953125,0.0234375,-0.0078125,9.796875,0,0.001953125,0,0.01367188,-0.01757812,0,0.0006103516,-0.0006103516,-0.01159668,0,0,-0.01159668,0,4.077,0,0,0,0,nan,2,inf,0,0,0,0,0,0,0,0,0,1,1,1
4037.109,0.00101,0,-0.001953125,-0.001953125,0.015625,-0.0078125,9.789062,0,0,-0.001953125,0.01367188,-0.01757812,0,0.0004882812,-0.0006103516,-0.01159668,0,0,-0.01159668,0,4.077,0,0,0,0,nan,2,inf,0,0,0,0,0,0,0,0,0,1,1,1
4037.119,0.001013,-0.001953125,-0.001953125,-0.001953125,0,0.0234375,9.875,0,0,0,0.01367188,-0.01757812,0,0.0004882812,-0.0006103516,-0.01159668,0,0,-0.01159668,0,4.077,0,0,0,0,nan,2,inf,0,0,0,0,0,0,0,0,0,1,1,1
4037.128,0.001004,0,0,0,-0.03125,0.015625,9.851562,0,-0.001953125,0,0.01367188,-0.01757812,0,0.0004882812,-0.0006103516,-0.01159668,0,0,-0.01159668,0,4.077,0,0,0,0,nan,2,inf,0,0,0,0,0,0,0,0,0,1,1,1
4037.138,0.001005,0,0.001953125,0,-0.0234375,0.0234375,9.75,0.001953125,0,0,0.01367188,-0.01757812,0,0.0006103516,-0.0006103516,-0.01159668,0,0,-0.01159668,0,4.077,0,0,0,0,nan,2,inf,0,0,0,0,0,0,0,0,0,1,1,1
4037.148,0.001006,0.00390625,-0.00390625,0,-0.015625,-0.0234375,9.804688,0.001953125,-0.001953125,0.001953125,0.01367188,-0.01757812,0,0.0004882812,-0.0006103516,-0.01159668,0,0,-0.01159668,0,4.077,0,0,0,0,nan,2,inf,0,0,0,0,0,0,0,0,0,1,1,1
4037.158,0.001006,-0.001953125,-0.001953125,0,0.015625,0.015625,9.804688,0,-0.001953125,0,0.01367188,-0.01757812,0,0.0006103516,-0.0006103516,-0.01159668,0,0,-0.01159668,0,4.077,0,0,0,0,nan,2,inf,0,0,0,0,0,0,0,0,0,1,1,1
4037.168,0.001006,0,-0.001953125,-0.00390625,0.0078125,0.015625,9.8125,0,-0.001953125,0,0.01367188,-0.01757812,0,0.0006103516,-0.0006103516,-0.01159668,0,0,-0.01159668,0,4.077,0,0,0,0,nan,2,inf,0,0,0,0,0,0,0,0,0,1,1,1
4037.178,0.001005,0,0,0.00390625,-0.0078125,0.0234375,9.765625,0,-0.001953125,0,0.01367188,-0.01757812,0,0.0006103516,-0.0006103516,-0.01159668,0,0,-0.01159668,0,4.077,0,0,0,0,nan,2,inf,0,0,0,0,0,0,0,0,0,1,1,1
4037.189,0.001024,0,0,0,0.015625,-0.0078125,9.757812,0,-0.001953125,0,0.01367188,-0.01757812,0,0.0006103516,-0.0006103516,-0.01159668,0,0,-0.01159668,0,4.077,0,0,0,0,nan,2,inf,0,0,0,0,0,0,0,0,0,1,1,1
4037.199,0.001011,0,0.001953125,0,0.015625,0.0078125,9.789062,0,0,0,0.01367188,-0.01757812,0,0.0006103516,-0.0006103516,-0.01159668,0,0,-0.01159668,0,4.077,0,0,0,0,nan,2,inf,0,0,0,0,0,0,0,0,0,1,1,1
4037.209,0.001,0.00390625,0,-0.001953125,0,0.015625,9.859375,0,0,-0.001953125,0.01367188,-0.01757812,0,0.0006103516,-0.0006103516,-0.01159668,0,0,-0.01159668,0,4.077,0,0,0,0,nan,2,inf,0,0,0,0,0,0,0,0,0,1,1,1
4037.218,0.001024,0,0,0,-0.0390625,0.03125,9.835938,0,0,0,0.01367188,-0.01757812,0,0.0006103516,-0.0006103516,-0.01159668,0,0,-0.01159668,0,4.077,0,0,0,0,nan,2,inf,0,0,0,0,0,0,0,0,0,1,1,1
4037.228,0.001019,0,0,0,0.015625,-0.03125,9.75,0,0,0,0.01367188,-0.01757812,0,0.0006103516,-0.0006103516,-0.01159668,0,0,-0.01159668,0,4.077,0,0,0,0,nan,2,inf,0,0,0,0,0,0,0,0,0,1,1,1
4037.238,0.001019,0.001953125,0.001953125,-0.001953125,0.0234375,-0.0234375,9.84375,0,0.001953125,0,0.01367188,-0.01757812,0,0.0006103516,-0.0006103516,-0.01159668,0,0,-0.01159668,0,4.077,0,0,0,0,nan,2,inf,0,0,0,0,0,0,0,0,0,1,1,1
4037.248,0.00102,0,-0.001953125,0.001953125,-0.015625,0.03125,9.820312,0,0,0.001953125,0.01367188,-0.01757812,0,0.0006103516,-0.0006103516,-0.01159668,0,0,-0.01159668,0,4.077,0,0,0,0,nan,2,inf,0,0,0,0,0,0,0,0,0,1,1,1
4037.258,0.00102,-0.001953125,0,-0.001953125,-0.0078125,0.0390625,9.796875,-0.001953125,0,0,0.01367188,-0.01757812,0,0.0006103516,-0.0006103516,-0.01159668,0,0,-0.01159668,0,4.077,0,0,0,0,nan,2,inf,0,0,0,0,0,0,0,0,0,1,1,1
4037.268,0.00102,0,-0.001953125,0.001953125,0,0.015625,9.773438,0,0,0,0.01367188,-0.01757812,0,0.0006103516,-0.0006103516,-0.01159668,0,0,-0.01159668,0,4.077,0,0,0,0,nan,2,inf,0,0,0,0,0,0,0,0,0,1,1,1
4037.279,0.00102,0.001953125,0,0.001953125,-0.03125,0.0390625,9.796875,0,-0.001953125,0.001953125,0.01367188,-0.01757812,0,0.0006103516,-0.0006103516,-0.01159668,0,0,-0.01159668,0,4.077,0,0,0,0,nan,2,inf,0,0,0,0,0,0,0,0,0,1,1,1
4037.289,0.00102,0.001953125,0,0.001953125,0,0.0546875,9.820312,0.001953125,0,0,0.01367188,-0.01757812,0,0.0006103516,-0.0006103516,-0.01159668,0,0,-0.01159668,0,4.077,0,0,0,0,nan,2,inf,0,0,0,0,0,0,0,0,0,1,1,1
4037.299,0.00102,-0.001953125,0.001953125,0.001953125,0.015625,0,9.78125,-0.001953125,0.001953125,0,0.01367188,-0.01757812,0,0.0006103516,-0.0006103516,-0.01159668,0,0,-0.01159668,0,4.077,0,0,0,0,nan,2,inf,0,0,0,0,0,0,0,0,0,1,1,1
4037.309,0.001009,0.001953125,-0.00390625,0.001953125,0.015625,-0.015625,9.78125,0,0,0.001953125,0.01367188,-0.01757812,0,0.0006103516,-0.0006103516,-0.01159668,0,0,-0.01159668,0,4.077,0,0,0,0,nan,2,inf,0,0,0,0,0,0,0,0,0,1,1,1
4037.318,0.001016,0,0,0.00390625,-0.0078125,-0.0234375,9.84375,0,0,0.001953125,0.01367188,-0.01757812,0,0.0006103516,-0.0006103516,-0.01159668,0,0,-0.01159668,0,4.077,0,0,0,0,nan,2,inf,0,0,0,0,0,0,0,0,0,1,1,1
4037.328,0.001015,0.001953125,0.001953125,-0.001953125,0.03125,-0.015625,9.820312,0,0,-0.001953125,0.01367188,-0.01757812,0,0.0006103516,-0.0006103516,-0.01159668,0,0,-0.01159668,0,4.077,0,0,0,0,nan,2,inf,0,0,0,0,0,0,0,0,0,1,1,1
4037.338,0.001019,0,-0.001953125,0,0.0390625,-0.0078125,9.859375,-0.001953125,0,0,0.01367188,-0.01757812,0,0.0006103516,-0.0006103516,-0.01159668,0,0,-0.01159668,0,4.077,0,0,0,0,nan,2,inf,0,0,0,0,0,0,0,0,0,1,1,1
4037.348,0.001016,0.001953125,0,0,0,0,9.789062,0,0.001953125,0,0.01367188,-0.01757812,0,0.0006103516,-0.0006103516,-0.01159668,0,0,-0.01159668,0,4.077,0,0,0,0,nan,2,inf,0,0,0,0,0,0,0,0,0,1,1,1
4037.358,0.00101,0,-0.005859375,0,0.0078125,0.03125,9.867188,0,-0.001953125,0,0.01367188,-0.01757812,0,0.0006103516,-0.0006103516,-0.01159668,0,0,-0.01159668,0,4.077,0,0,0,0,nan,2,inf,0,0,0,0,0,0,0,0,0,1,1,1
4037.368,0.00101,0.00390625,0.001953125,-0.001953125,0.0234375,0,9.828125,0.001953125,0.001953125,-0.001953125,0.01367188,-0.01757812,0,0.0006103516,-0.0006103516,-0.01159668,0,0,-0.01159668,0,4.077,0,0,0,0,nan,2,inf,0,0,0,0,0,0,0,0,0,1,1,1
4037.378,0.001009,0.00390625,-0.001953125,0,0.046875,-0.015625,9.867188,0,0,0,0.01367188,-0.01757812,0,0.0006103516,-0.0006103516,-0.01159668,0,0,-0.01159668,0,4.077,0,0,0,0,nan,2,inf,0,0,0,0,0,0,0,0,0,1,1,1
4037.389,0.00101,-0.001953125,0,-0.001953125,0,-0.0078125,9.835938,0,-0.001953125,0,0.01367188,-0.01757812,0,0.0006103516,-0.0007324219,-0.01159668,0,0,-0.01159668,0,4.077,0,0,0,0,nan,2,inf,0,0,0,0,0,0,0,0,0,1,1,1
4037.399,0.00101,0,0.001953125,0,0,-0.0234375,9.804688,0,0,0,0.01367188,-0.01757812,0,0.0006103516,-0.0007324219,-0.01159668,0,0,-0.01159668,0,4.077,0,0,0,0,nan,2,inf,0,0,0,0,0,0,0,0,0,1,1,1
4037.409,0.00101,0,0,0,-0.0078125,-0.015625,9.835938,0,0,0,0.01367188,-0.01757812,0,0.0006103516,-0.0007324219,-0.01159668,0,0,-0.01159668,0,4.077,0,0,0,0,nan,2,inf,0,0,0,0,0,0,0,0,0,1,1,1
4037.419,0.001013,0.001953125,0,-0.001953125,0,0.0078125,9.820312,0.001953125,0,0,0.01367188,-0.01757812,0,0.0006103516,-0.0006103516,-0.01159668,0,0,-0.01159668,0,4.077,0,0,0,0,nan,2,inf,0,0,0,0,0,0,0,0,0,1,1,1
4037.428,0.001017,0.00390625,0.001953125,0.001953125,-0.0078125,0,9.757812,0.001953125,0,0,0.01367188,-0.01757812,0,0.0006103516,-0.0006103516,-0.01159668,0,0,-0.01159668,0,4.077,0,0,0,0,nan,2,inf,0,0,0,0,0,0,0,0,0,1,1,1
4037.438,0.001005,-0.001953125,0,-0.001953125,0.03125,-0.0078125,9.820312,0,0,-0.001953125,0.01367188,-0.01757812,0,0.0006103516,-0.0006103516,-0.01159668,0,0,-0.01159668,0,4.077,0,0,0,0,nan,2,inf,0,0,0,0,0,0,0,0,0,1,1,1
4037.448,0.001032,-0.001953125,0.001953125,-0.001953125,0.015625,0.0234375,9.804688,-0.001953125,0,0,0.01367188,-0.01757812,0,0.0006103516,-0.0006103516,-0.01159668,0,0,-0.01159668,0,4.077,0,0,0,0,nan,2,inf,0,0,0,0,0,0,0,0,0,1,1,1
4037.458,0.00101,-0.001953125,0.001953125,0,0.015625,0.015625,9.8125,-0.001953125,0,0,0.01367188,-0.01757812,0,0.0006103516,-0.0006103516,-0.01159668,0,0,-0.01159668,0,4.077,0,0,0,0,nan,2,inf,0,0,0,0,0,0,0,0,0,1,1,1
4037.468,0.00101,0.001953125,0,0,0.03125,0.015625,9.804688,0,-0.001953125,0,0.01367188,-0.01757812,0,0.0006103516,-0.0006103516,-0.01159668,0,0,-0.01159668,0,4.077,0,0,0,0,nan,2,inf,0,0,0,0,0,0,0,0,0,1,1,1
4037.478,0.00101,0.001953125,0.001953125,-0.001953125,0.0078125,-0.0078125,9.84375,0,0,-0.001953125,0.01367188,-0.01757812,0,0.0006103516,-0.0006103516,-0.01159668,0,0,-0.01159668,0,4.077,0,0,0,0,nan,2,inf,0,0,0,0,0,0,0,0,0,1,1,1
4037.489,0.00101,-0.001953125,0,0.001953125,0,-0.0078125,9.835938,-0.001953125,0,0,0.01367188,-0.01757812,0,0.0006103516,-0.0006103516,-0.01159668,0,0,-0.01159668,0,4.077,0,0,0,0,nan,2,inf,0,0,0,0,0,0,0,0,0,1,1,1
4037.499,0.00101,0,0,0.001953125,-0.0234375,0,9.8125,-0.001953125,0,0,0.01367188,-0.01757812,0,0.0006103516,-0.0006103516,-0.01159668,0,0,-0.01159668,0,4.077,0,0,0,0,nan,2,inf,0,0,0,0,0,0,0,0,0,1,1,1
4037.509,0.00101,0.001953125,0,0,0.015625,-0.015625,9.75,0.001953125,0.001953125,-0.001953125,0.01367188,-0.01757812,0,0.0006103516,-0.0006103516,-0.01159668,0,0,-0.01159668,0,4.077,0,0,0,0,nan,2,inf,0,0,0,0,0,0,0,0,0,1,1,1
4037.519,0.001012,0.001953125,0,0.00390625,0,0,9.789062,0,0,0.001953125,0.01367188,-0.01757812,0,0.0006103516,-0.0006103516,-0.01159668,0,0,-0.01159668,0,4.077,0,0,0,0,nan,2,inf,0,0,0,0,0,0,0,0,0,1,1,1
4037.528,0.001013,-0.001953125,0,0,-0.0078125,0.0078125,9.765625,0,0,0,0.01367188,-0.01757812,0,0.0006103516,-0.0006103516,-0.01159668,0,0,-0.01159668,0,4.077,0,0,0,0,nan,2,inf,0,0,0,0,0,0,0,0,0,1,1,1
4037.538,0.001011,0,0,0.00390625,0.0078125,-0.015625,9.90625,-0.001953125,0,0.001953125,0.01367188,-0.01757812,0,0.0006103516,-0.0006103516,-0.01159668,0,0,-0.01159668,0,4.077,0,0,0,0,nan,2,inf,0,0,0,0,0,0,0,0,0,1,1,1
4037.548,0.001004,0.00390625,0,0.00390625,0.0078125,-0.0234375,9.828125,0.001953125,0,0,0.01367188,-0.01757812,0,0.0006103516,-0.0006103516,-0.01159668,0,0,-0.01159668,0,4.077,0,0,0,0,nan,2,inf,0,0,0,0,0,0,0,0,0,1,1,1
4037.558,0.001006,0.001953125,0.001953125,-0.001953125,0.015625,0.0234375,9.835938,0.001953125,0,-0.001953125,0.01367188,-0.01757812,0,0.0006103516,-0.0006103516,-0.01159668,0,0,-0.01159668,0,4.077,0,0,0,0,nan,2,inf,0,0,0,0,0,0,0,0,0,1,1,1
4037.568,0.00101,0.001953125,0,0,0.03125,0,9.835938,0,0,0,0.01367188,-0.01757812,0,0.0006103516,-0.0006103516,-0.01159668,0,0,-0.01159668,0,4.077,0,0,0,0,nan,2,inf,0,0,0,0,0,0,0,0,0,1,1,1
4037.578,0.000959,0.001953125,0.001953125,-0.001953125,0.0390625,0.0390625,9.773438,0,0,0,0.01367188,-0.01757812,0,0.0006103516,-0.0006103516,-0.01159668,0,0,-0.01159668,0,4.077,0,0,0,0,nan,2,inf,0,0,0,0,0,0,0,0,0,1,1,1
4037.589,0.001005,-0.001953125,-0.001953125,-0.001953125,0,-0.015625,9.8125,0,-0.001953125,0,0.01367188,-0.01757812,0,0.0006103516,-0.0006103516,-0.01159668,0,0,-0.01159668,0,4.077,0,0,0,0,nan,2,inf,0,0,0,0,0,0,0,0,0,1,1,1
4037.599,0.001046,-0.001953125,0.001953125,0.001953125,0.0078125,0.0078125,9.820312,-0.001953125,0.001953125,0.001953125,0.01367188,-0.01757812,0,0.0006103516,-0.0006103516,-0.01159668,0,0,-0.01159668,0,4.077,0,0,0,0,nan,2,inf,0,0,0,0,0,0,0,0,0,1,1,1
4037.609,0.001005,0,0,-0.001953125,-0.03125,0,9.789062,0,0,0,0.01367188,-0.01757812,0,0.0006103516,-0.0006103516,-0.01159668,0,0,-0.01159668,0,4.077,0,0,0,0,nan,2,inf,0,0,0,0,0,0,0,0,0,1,1,1
4037.619,0.001014,0.001953125,0.001953125,0,-0.0234375,-0.0078125,9.773438,0.001953125,0,0,0.01367188,-0.01757812,0,0.0006103516,-0.0006103516,-0.01159668,0,0,-0.01159668,0,4.077,0,0,0,0,nan,2,inf,0,0,0,0,0,0,0,0,0,1,1,1
4037.628,0.001009,0,0.001953125,0,-0.0078125,0.0234375,9.796875,0.001953125,0,0,0.01367188,-0.01757812,0,0.0006103516,-0.0006103516,-0.01159668,0,0,-0.01159668,0,4.077,0,0,0,0,nan,2,inf,0,0,0,0,0,0,0,0,0,1,1,1
4037.638,0.001003,0,0,0.001953125,0,0.0078125,9.78125,0,0,0,0.01367188,-0.01757812,0,0.0006103516,-0.0006103516,-0.01159668,0,0,-0.01159668,0,4.077,0,0,0,0,nan,2,inf,0,0,0,0,0,0,0,0,0,1,1,1
4037.648,0.001006,0,0,0,0.03125,0.0390625,9.765625,0,0,0,0.01367188,-0.01757812,0,0.0006103516,-0.0006103516,-0.01159668,0,0,-0.01159668,0,4.077,0,0,0,0,nan,2,inf,0,0,0,0,0,0,0,0,0,1,1,1
4037.658,0.00101,-0.001953125,0.001953125,0.001953125,0.0078125,-0.0234375,9.84375,-0.001953125,0,0.001953125,0.01367188,-0.01757812,0,0.0006103516,-0.0006103516,-0.01159668,0,0,-0.01159668,0,4.077,0,0,0,0,nan,2,inf,0,0,0,0,0,0,0,0,0,1,1,1
4037.668,0.00101,0,0.001953125,0,0.0078125,-0.0390625,9.796875,0,0,-0.001953125,0.01367188,-0.01757812,0,0.0006103516,-0.0006103516,-0.01159668,0,0,-0.01159668,0,4.077,0,0,0,0,nan,2,inf,0,0,0,0,0,0,0,0,0,1,1,1
4037.679,0.001,-0.001953125,0,0,-0.0234375,-0.015625,9.820312,-0.001953125,0,0.001953125,0.01367188,-0.01757812,0,0.0006103516,-0.0006103516,-0.01159668,0,0,-0.01159668,0,4.077,0,0,0,0,nan,2,inf,0,0,0,0,0,0,0,0,0,1,1,1
4037.689,0.00101,0,-0.001953125,0,0.0078125,-0.015625,9.757812,-0.001953125,0,0,0.01367188,-0.01757812,0,0.0006103516,-0.0006103516,-0.01159668,0,0,-0.01159668,0,4.077,0,0,0,0,nan,2,inf,0,0,0,0,0,0,0,0,0,1,1,1
4037.699,0.000981,-0.001953125,0.001953125,0.001953125,0.015625,0,9.765625,-0.001953125,0,0.001953125,0.01367188,-0.01757812,0,0.0006103516,-0.0006103516,-0.01159668,0,0,-0.01159668,0,4.077,0,0,0,0,nan,2,inf,0,0,0,0,0,0,0,0,0,1,1,1
4037.709,0.00101,0.001953125,0.001953125,0,0.015625,0,9.8125,0,0,0,0.01367188,-0.01757812,0,0.0006103516,-0.0006103516,-0.01159668,0,0,-0.01159668,0,4.077,0,0,0,0,nan,2,inf,0,0,0,0,0,0,0,0,0,1,1,1
4037.718,0.00101,0,-0.00390625,-0.001953125,-0.0234375,0.0390625,9.804688,0,-0.001953125,0,0.01367188,-0.01757812,0,0.0004882812,-0.0006103516,-0.01159668,0,0,-0.01159668,0,4.077,0,0,0,0,nan,2,inf,0,0,0,0,0,0,0,0,0,1,1,1
4037.728,0.001012,0,0,0,0.0078125,0.0390625,9.78125,0,-0.001953125,0,0.01367188,-0.01757812,0,0.0006103516,-0.0006103516,-0.01159668,0,0,-0.01159668,0,4.077,0,0,0,0,nan,2,inf,0,0,0,0,0,0,0,0,0,1,1,1
4037.738,0.000989,0.001953125,0.001953125,0,0.0078125,0.0234375,9.84375,0,0,0,0.01367188,-0.01757812,0,0.0006103516,-0.0006103516,-0.01159668,0,0,-0.01159668,0,4.077,0,0,0,0,nan,2,inf,0,0,0,0,0,0,0,0,0,1,1,1
4037.748,0.000985,0,0,-0.001953125,0.015625,0,9.789062,0,0,0,0.01367188,-0.01757812,0,0.0006103516,-0.0006103516,-0.01159668,0,0,-0.01159668,0,4.077,0,0,0,0,nan,2,inf,0,0,0,0,0,0,0,0,0,1,1,1
4037.758,0.00101,0.001953125,0.001953125,-0.001953125,-0.03125,-0.0234375,9.851562,0.001953125,0,0,0.01367188,-0.01757812,0,0.0006103516,-0.0006103516,-0.01159668,0,0,-0.01159668,0,4.077,0,0,0,0,nan,2,inf,0,0,0,0,0,0,0,0,0,1,1,1
4037.768,0.001031,0,-0.001953125,0,0,0.015625,9.796875,0,-0.001953125,0,0.01367188,-0.01757812,0,0.0006103516,-0.0006103516,-0.01159668,0,0,-0.01159668,0,4.077,0,0,0,0,nan,2,inf,0,0,0,0,0,0,0,0,0,1,1,1
4037.778,0.00101,0,0.001953125,0,0.03125,0.0234375,9.84375,0,0,0,0.01367188,-0.01757812,0,0.0006103516,-0.0006103516,-0.01159668,0,0,-0.01159668,0,4.077,0,0,0,0,nan,2,inf,0,0,0,0,0,0,0,0,0,1,1,1
4037.789,0.00101,0,-0.00390625,0.001953125,0.015625,0.0390625,9.804688,0,0,0,0.01367188,-0.01757812,0,0.0006103516,-0.0006103516,-0.01159668,0,0,-0.01159668,0,4.077,0,0,0,0,nan,2,inf,0,0,0,0,0,0,0,0,0,1,1,1
4037.799,0.00101,-0.001953125,-0.001953125,0.00390625,0.0078125,0,9.75,0,0,0.001953125,0.01367188,-0.01757812,0,0.0006103516,-0.0006103516,-0.01159668,0,0,-0.01159668,0,4.077,0,0,0,0,nan,2,inf,0,0,0,0,0,0,0,0,0,1,1,1
4037.809,0.001032,0,0,-0.001953125,0,0.0234375,9.820312,0,0.001953125,0,0.01367188,-0.01757812,0,0.0006103516,-0.0006103516,-0.01159668,0,0,-0.01159668,0,4.077,0,0,0,0,nan,2,inf,0,0,0,0,0,0,0,0,0,1,1,1
4037.818,0.00101,-0.001953125,0,-0.00390625,0.0078125,-0.0078125,9.789062,0,0,0,0.01367188,-0.01757812,0,0.0006103516,-0.0006103516,-0.01159668,0,0,-0.01159668,0,4.077,0,0,0,0,nan,2,inf,0,0,0,0,0,0,0,0,0,1,1,1
4037.828,0.00101,0,0.00390625,-0.001953125,0,0.0234375,9.78125,0,0.001953125,0,0.01367188,-0.01757812,0,0.0006103516,-0.0006103516,-0.01159668,0,0,-0.01159668,0,4.077,0,0,0,0,nan,2,inf,0,0,0,0,0,0,0,0,0,1,1,1
4037.838,0.001003,-0.001953125,-0.001953125,-0.001953125,-0.015625,0.0234375,9.84375,0,0,0,0.01367188,-0.01757812,0,0.0006103516,-0.0006103516,-0.01159668,0,0,-0.01159668,0,4.077,0,0,0,0,nan,2,inf,0,0,0,0,0,0,0,0,0,1,1,1
4037.848,0.001038,-0.001953125,-0.001953125,0.001953125,0.015625,-0.0078125,9.78125,0,0,0.001953125,0.01367188,-0.01757812,0,0.0006103516,-0.0006103516,-0.01159668,0,0,-0.01159668,0,4.077,0,0,0,0,nan,2,inf,0,0,0,0,0,0,0,0,0,1,1,1
4037.858,0.001021,0.001953125,-0.001953125,0.001953125,-0.0078125,0.0078125,9.804688,0,-0.001953125,0,0.01367188,-0.01757812,0,0.0006103516,-0.0006103516,-0.01159668,0,0,-0.01159668,0,4.077,0,0,0,0,nan,2,inf,0,0,0,0,0,0,0,0,0,1,1,1
4037.868,0.001011,-0.00390625,0.00390625,-0.001953125,0,0.0234375,9.796875,-0.001953125,0,-0.001953125,0.01367188,-0.01757812,0,0.0006103516,-0.0006103516,-0.01159668,0,0,-0.01159668,0,4.077,0,0,0,0,nan,2,inf,0,0,0,0,0,0,0,0,0,1,1,1
4037.879,0.001046,-0.00390625,0,0.001953125,0.015625,0.015625,9.875,-0.001953125,0,0,0.01367188,-0.01757812,0,0.0006103516,-0.0006103516,-0.01159668,0,0,-0.01159668,0,4.077,0,0,0,0,nan,2,inf,0,0,0,0,0,0,0,0,0,1,1,1
4037.889,0.001004,0,0.001953125,0,-0.0078125,-0.03125,9.796875,0,0.001953125,0,0.01367188,-0.01757812,0,0.0006103516,-0.0006103516,-0.01159668,0,0,-0.01159668,0,4.077,0,0,0,0,nan,2,inf,0,0,0,0,0,0,0,0,0,1,1,1
4037.899,0.001066,-0.001953125,0,0.001953125,0.0078125,0.0234375,9.851562,0,0,0,0.01367188,-0.01757812,0,0.0006103516,-0.0006103516,-0.01159668,0,0,-0.01159668,0,4.077,0,0,0,0,nan,2,inf,0,0,0,0,0,0,0,0,0,1,1,1
4037.909,0.001012,0,0.001953125,0,-0.0078125,0,9.789062,0,0,0,0.01367188,-0.01757812,0,0.0006103516,-0.0006103516,-0.01159668,0,0,-0.01159668,0,4.077,0,0,0,0,nan,2,inf,0,0,0,0,0,0,0,0,0,1,1,1
4037.919,0.001001,0.001953125,-0.001953125,-0.00390625,-0.0078125,0.015625,9.820312,0,-0.001953125,-0.001953125,0.01367188,-0.01757812,0,0.0006103516,-0.0006103516,-0.01159668,0,0,-0.01159668,0,4.077,0,0,0,0,nan,2,inf,0,0,0,0,0,0,0,0,0,1,1,1
4037.928,0.001022,0.001953125,-0.001953125,0.001953125,-0.0078125,0.03125,9.78125,0,-0.001953125,0,0.01367188,-0.01757812,0,0.0006103516,-0.0006103516,-0.01159668,0,0,-0.01159668,0,4.077,0,0,0,0,nan,2,inf,0,0,0,0,0,0,0,0,0,1,1,1
4037.938,0.001017,0.001953125,0,0,-0.015625,0,9.820312,0,0,0,0.01367188,-0.01757812,0,0.0006103516,-0.0006103516,-0.01159668,0,0,-0.01159668,0,4.077,0,0,0,0,nan,2,inf,0,0,0,0,0,0,0,0,0,1,1,1
4037.948,0.00102,-0.001953125,0,0,0.03125,0.0234375,9.804688,0,0,0,0.01367188,-0.01757812,0,0.0006103516,-0.0006103516,-0.01159668,0,0,-0.01159668,0,4.077,0,0,0,0,nan,2,inf,0,0,0,0,0,0,0,0,0,1,1,1
4037.958,0.001024,-0.001953125,0.001953125,-0.001953125,0.0078125,0.015625,9.773438,0,-0.001953125,0,0.01367188,-0.01757812,0,0.0006103516,-0.0006103516,-0.01159668,0,0,-0.01159668,0,4.077,0,0,0,0,nan,2,inf,0,0,0,0,0,0,0,0,0,1,1,1
4037.968,0.001046,-0.001953125,0.001953125,0,-0.0078125,0.03125,9.804688,0,0.001953125,0,0.01367188,-0.01757812,0,0.0006103516,-0.0006103516,-0.01159668,0,0,-0.01159668,0,4.077,0,0,0,0,nan,2,inf,0,0,0,0,0,0,0,0,0,1,1,1
4037.978,0.00105,0,0,-0.00390625,0.03125,0.0078125,9.789062,0,0,-0.001953125,0.01367188,-0.01757812,0,0.0006103516,-0.0006103516,-0.01159668,0,0,-0.01159668,0,4.077,0,0,0,0,nan,2,inf,0,0,0,0,0,0,0,0,0,1,1,1
4037.989,0.001005,0.001953125,0.00390625,-0.001953125,0.015625,0.0078125,9.796875,0,0,-0.001953125,0.01367188,-0.01757812,0,0.0006103516,-0.0006103516,-0.01159668,0,0,-0.01159668,0,4.077,0,0,0,0,nan,2,inf,0,0,0,0,0,0,0,0,0,1,1,1
4037.999,0.00102,0,0.001953125,0,0.0390625,0.03125,9.78125,0.001953125,0.001953125,0,0.01367188,-0.01757812,0,0.0006103516,-0.0006103516,-0.01159668,0,0,-0.01159668,0,4.077,0,0,0,0,nan,2,inf,0,0,0,0,0,0,0,0,0,1,1,1
4038.008,0.001066,0.001953125,0,-0.00390625,0.0546875,-0.0234375,9.859375,0,0,-0.001953125,0.01367188,-0.01757812,0,0.0006103516,-0.0006103516,-0.01159668,0,0,-0.01159668,0,4.077,0,0,0,0,nan,2,inf,0,0,0,0,0,0,0,0,0,1,1,1
4038.019,0.00101,0,0.001953125,-0.001953125,0.015625,0.0390625,9.796875,0,0,-0.001953125,0.01367188,-0.01757812,0,0.0006103516,-0.0006103516,-0.01159668,0,0,-0.01159668,0,4.077,0,0,0,0,nan,2,inf,0,0,0,0,0,0,0,0,0,1,1,1
4038.029,0.001014,-0.001953125,-0.00390625,0,0.015625,0.03125,9.804688,0,-0.001953125,0,0.01367188,-0.01757812,0,0.0006103516,-0.0006103516,-0.01159668,0,0,-0.01159668,0,4.077,0,0,0,0,nan,2,inf,0,0,0,0,0,0,0,0,0,1,1,1
4038.038,0.001015,-0.001953125,-0.001953125,-0.00390625,0.03125,0,9.804688,0,0,-0.001953125,0.01367188,-0.01757812,0,0.0006103516,-0.0006103516,-0.01159668,0,0,-0.01159668,0,4.077,0,0,0,0,nan,2,inf,0,0,0,0,0,0,0,0,0,1,1,1
4038.048,0.001012,0.001953125,0.001953125,0,-0.0234375,0,9.773438,0,0.001953125,0,0.01367188,-0.01757812,0,0.0006103516,-0.0006103516,-0.01171875,0,0,-0.01171875,0,4.077,0,0,0,0,nan,2,inf,0,0,0,0,0,0,0,0,0,1,1,1
4038.058,0.00101,0,0,-0.001953125,0.0390625,-0.0078125,9.835938,0,0,0,0.01367188,-0.01757812,0,0.0006103516,-0.0006103516,-0.01171875,0,0,-0.01171875,0,4.077,0,0,0,0,nan,2,inf,0,0,0,0,0,0,0,0,0,1,1,1
4038.068,0.001,0.001953125,0,0,-0.0234375,0.0078125,9.8125,0.001953125,0,0,0.01367188,-0.01757812,0,0.0006103516,-0.0006103516,-0.01171875,0,0,-0.01171875,0,4.077,0,0,0,0,nan,2,0,0,0,0,0,0,0,0,0,0,1,2,1
4038.078,0.001011,-0.001953125,0,-0.001953125,0.0078125,0.015625,9.8125,0,0,0,0.01367188,-0.01757812,0,0.0006103516,-0.0006103516,-0.01171875,0,0,-0.01171875,0,4.077,0,0,0,0,nan,2,0.01,0,0,0,0,0,0,0,0,0,1,2,1
4038.089,0.001024,0.00390625,0,0,0.046875,0,9.757812,0.001953125,0,0,0.01367188,-0.01757812,0,0.0006103516,-0.0006103516,-0.01171875,0,0,-0.01171875,0,4.077,0,0,0,0,nan,2,0.02,0,0,0,0,0,0,0,0,0,1,2,1
4038.099,0.001005,0.001953125,0,-0.001953125,-0.0078125,0.0234375,9.835938,0,-0.001953125,0,0.01367188,-0.01757812,0,0.0006103516,-0.0006103516,-0.01171875,0,0,-0.01171875,0,4.077,0,0,0,0,nan,2,0.03,0,0,0,0,0,0,0,0,0,1,2,1
4038.109,0.001011,0,-0.001953125,-0.001953125,0,-0.0234375,9.851562,0,-0.001953125,0,0.01367188,-0.01757812,0,0.0006103516,-0.0006103516,-0.01171875,0,0,-0.01171875,0,4.077,0,0,0,0,nan,2,0.04,0,0,0,0,0,0,0,0,0,1,2,1
4038.119,0.001011,0,0.001953125,-0.001953125,0.0078125,0.03125,9.773438,0,0.001953125,-0.001953125,0.01367188,-0.01757812,0,0.0006103516,-0.0006103516,-0.01171875,0,0,-0.01171875,0,4.077,0,0,0,0,nan,2,0.05,0,0,0,0,0,0,0,0,0,1,2,1
4038.129,0.001008,0,0,0,0.03125,0.0078125,9.914062,0.001953125,-0.001953125,0.001953125,0.01367188,-0.01757812,0,0.0006103516,-0.0006103516,-0.01171875,0,0,-0.01171875,0,4.077,0,0,0,0,nan,2,0.061,0,0,0,0,0,0,0,0,0,1,2,1
4038.138,0.00101,0,0,-0.001953125,0.0390625,0,9.796875,0,0,-0.001953125,0.01367188,-0.01757812,0,0.0006103516,-0.0006103516,-0.01171875,0,0,-0.01171875,0,4.077,0,0,0,0,nan,2,0.07,0,0,0,0,0,0,0,0,0,1,2,1
4038.148,0.001009,-0.001953125,0,0,0.015625,-0.0078125,9.835938,0,0,0,0.01367188,-0.01757812,0,0.0006103516,-0.0007324219,-0.01171875,0,0,-0.01171875,0,4.077,0,0,0,0,nan,2,0.08,0,0,0,0,0,0,0,0,0,1,2,1
4038.158,0.001003,-0.001953125,0,0,0.0078125,0.015625,9.828125,-0.001953125,-0.001953125,0,0.01367188,-0.01757812,0,0.0006103516,-0.0007324219,-0.01171875,0,0,-0.01171875,0,4.077,0,0,0,0,nan,2,0.09,0,0,0,0,0,0,0,0,0,1,2,1
4038.168,0.001004,0,0,0,-0.0078125,0.0078125,9.789062,0,0.001953125,0,0.01367188,-0.01757812,0,0.0006103516,-0.0007324219,-0.01171875,0,0,-0.01171875,0,4.077,0,0,0,0,nan,2,0.1,0,0,0,0,0,0,0,0,0,1,2,1
4038.178,0.001004,0,0,0,-0.03125,0.0078125,9.820312,0,0,0,0.01367188,-0.01757812,0,0.0006103516,-0.0006103516,-0.01171875,0,0,-0.01171875,0,4.077,0,0,0,0,nan,2,0.11,0,0,0,0,0,0,0,0,0,1,2,1
4038.189,0.001004,0,-0.001953125,0,0.015625,-0.015625,9.75,0.001953125,0,0,0.01367188,-0.01757812,0,0.0006103516,-0.0006103516,-0.01171875,0,0,-0.01171875,0,4.077,0,0,0,0,nan,2,0.12,0,0,0,0,0,0,0,0,0,1,2,1
4038.199,0.001003,0,0,0,0.0234375,0.015625,9.804688,0,0,0,0.01367188,-0.01757812,0,0.0006103516,-0.0006103516,-0.01171875,0,0,-0.01171875,0,4.077,0,0,0,0,nan,2,0.13,0,0,0,0,0,0,0,0,0,1,2,1
4038.209,0.001005,0,0.001953125,0,0.0078125,0.015625,9.789062,0,0,0,0.01367188,-0.01757812,0,0.0006103516,-0.0006103516,-0.01171875,0,0,-0.01171875,0,4.077,0,0,0,0,nan,2,0.14,0,0,0,0,0,0,0,0,0,1,2,1
4038.219,0.001008,0.001953125,-0.001953125,-0.001953125,0.0234375,0.0390625,9.84375,0.001953125,0,0.001953125,0.01367188,-0.01757812,0,0.0006103516,-0.0006103516,-0.01171875,0,0,-0.01171875,0,4.077,0,0,0,0,nan,2,0.15,0,0,0,0,0,0,0,0,0,1,2,1
4038.228,0.001014,0.001953125,0,-0.001953125,0,0.0234375,9.820312,0.001953125,0,0,0.01367188,-0.01757812,0,0.0007324219,-0.0006103516,-0.01171875,0,0,-0.01171875,0,4.077,0,0,0,0,nan,2,0.16,0,0,0,0,0,0,0,0,0,1,2,1
4038.238,0.001027,-0.001953125,0.001953125,-0.001953125,0.0078125,-0.03125,9.796875,0,0.001953125,-0.001953125,0.01367188,-0.01757812,0,0.0007324219,-0.0006103516,-0.01171875,0,0,-0.01171875,0,4.077,0,0,0,0,nan,2,0.17,0,0,0,0,0,0,0,0,0,1,2,1
4038.248,0.000997,0,0.001953125,0,0.0078125,0,9.8125,0,0.001953125,0,0.01367188,-0.01757812,0,0.0007324219,-0.0006103516,-0.01171875,0,0,-0.01171875,0,4.077,0,0,0,0,nan,2,0.18,0,0,0,0,0,0,0,0,0,1,2,1
4038.258,0.00108,-0.001953125,-0.00390625,0.001953125,-0.0234375,0.015625,9.765625,0,0,0.001953125,0.01367188,-0.01757812,0,0.0007324219,-0.0006103516,-0.01171875,0,0,-0.01171875,0,4.077,0,0,0,0,nan,2,0.19,0,0,0,0,0,0,0,0,0,1,2,1
4038.268,0.001017,0.001953125,0.001953125,-0.00390625,0.0078125,0.03125,9.78125,-0.001953125,0,0,0.01367188,-0.01757812,0,0.0007324219,-0.0006103516,-0.01171875,0,0,-0.01171875,0,4.077,0,0,0,0,nan,2,0.2,0,0,0,0,0,0,0,0,0,1,2,1
4038.279,0.001027,0.001953125,0.001953125,0,0.015625,0.046875,9.820312,0,0,0,0.01367188,-0.01757812,0,0.0007324219,-0.0006103516,-0.01171875,0,0,-0.01171875,0,4.077,0,0,0,0,nan,2,0.21,1,0,0,0,0,0,0,0,0,1,2,1
4038.289,0.001015,0,0.001953125,-0.001953125,-0.0078125,0,9.84375,0,0.001953125,-0.001953125,0.01367188,-0.01757812,0,0.0007324219,-0.0006103516,-0.01171875,0,0,-0.01171875,0,4.077,0,0,0,0,nan,2,0.22,1,0,0,0,0,0,0,0,0,1,2,1
4038.299,0.001015,-0.001953125,-0.005859375,0,-0.0234375,-0.015625,9.804688,-0.001953125,-0.001953125,0,0.01367188,-0.01757812,0,0.0007324219,-0.0006103516,-0.01171875,0,0,-0.01171875,0,4.077,0,0,0,0,nan,2,0.23,1,0,0,0,0,0,0,0,0,1,2,1
4038.309,0.001016,-0.001953125,0.001953125,-0.00390625,0.03125,-0.0078125,9.8125,-0.001953125,0.001953125,-0.001953125,0.01367188,-0.01757812,0,0.0006103516,-0.0006103516,-0.01171875,0,0,-0.01171875,0,4.077,0,0,0,0,nan,2,0.24,1,0,0,0,0,0,0,0,0,1,2,1
4038.319,0.001015,0.001953125,0,0.00390625,0,0.0078125,9.773438,0,0.001953125,0,0.01367188,-0.01757812,0,0.0006103516,-0.0006103516,-0.01171875,0,0,-0.01171875,0,4.077,0,0,0,0,nan,2,0.25,1,0,0,0,0,0,0,0,0,1,2,1
4038.328,0.001003,0,-0.001953125,0,0,0.046875,9.820312,0,0,0,0.01367188,-0.01757812,0,0.0006103516,-0.0006103516,-0.01171875,0,0,-0.01171875,0,4.077,0,0,0,0,nan,2,0.26,1,0,0,0,0,0,0,0,0,1,2,1
4038.338,0.001023,-0.001953125,-0.001953125,-0.001953125,0,0.0078125,9.773438,0,0,0,0.01367188,-0.01757812,0,0.0006103516,-0.0006103516,-0.01171875,0,0,-0.01171875,0,4.077,0,0,0,0,nan,2,0.27,1,0,0,0,0,0,0,0,0,1,2,1
4038.348,0.00102,0.001953125,0.001953125,0.001953125,-0.0078125,0.03125,9.875,0,0.001953125,0.001953125,0.01367188,-0.01757812,0,0.0006103516,-0.0006103516,-0.01171875,0,0,-0.01171875,0,4.077,0,0,0,0,nan,2,0.28,1,0,0,0,0,0,0,0,0,1,2,1
4038.358,0.00101,-0.001953125,0,-0.001953125,0.03125,0.03125,9.84375,-0.001953125,0.001953125,0,0.01367188,-0.01757812,0,0.0006103516,-0.0006103516,-0.01171875,0,0,-0.01171875,0,4.077,0,0,0,0,nan,2,0.29,1,0,0,0,0,0,0,0,0,1,2,1
4038.368,0.00101,-0.001953125,0.001953125,0.001953125,0.0078125,0.0078125,9.84375,-0.001953125,0.001953125,0.001953125,0.01367188,-0.01757812,0,0.0006103516,-0.0004882812,-0.01171875,0,0,-0.01171875,0,4.077,0,0,0,0,nan,2,0.3,1,0,0,0,0,0,0,0,0,1,2,1
4038.378,0.00101,-0.001953125,0,0.001953125,0.0078125,0.0078125,9.75,0,0,0,0.01367188,-0.01757812,0,0.0006103516,-0.0004882812,-0.01171875,0,0,-0.01171875,0,4.077,0,0,0,0,nan,2,0.31,1,0,0,0,0,0,0,0,0,1,2,1
4038.389,0.00101,0,0.001953125,-0.001953125,0,0.0234375,9.773438,0,0,0,0.01367188,-0.01757812,0,0.0006103516,-0.0004882812,-0.01171875,0,0,-0.01171875,0,4.077,0,0,0,0,nan,2,0.32,1,0,0,0,0,0,0,0,0,1,2,1
4038.399,0.00101,0.001953125,0.00390625,-0.001953125,-0.0234375,-0.0078125,9.796875,0,0.001953125,0,0.01367188,-0.01757812,0,0.0006103516,-0.0004882812,-0.01171875,0,0,-0.01171875,0,4.077,0,0,0,0,nan,2,0.33,1,0,0,0,0,0,0,0,0,1,2,1
4038.409,0.00101,-0.001953125,0,0,-0.0078125,0,9.78125,-0.001953125,0,0,0.01367188,-0.01757812,0,0.0006103516,-0.0004882812,-0.01171875,0,0,-0.01171875,0,4.077,0,0,0,0,nan,2,0.34,1,0,0,0,0,0,0,0,0,1,2,1
4038.419,0.00101,0,0.00390625,-0.001953125,0.0078125,0,9.828125,0,0.001953125,0,0.01367188,-0.01757812,0,0.0006103516,-0.0004882812,-0.01171875,0,0,-0.01171875,0,4.077,0,0,0,0,nan,2,0.35,1,0,0,0,0,0,0,0,0,1,2,1
4038.428,0.001019,-0.001953125,0.001953125,0.001953125,0.0078125,0.03125,9.734375,0,0,0,0.01367188,-0.01757812,0,0.0006103516,-0.0004882812,-0.01171875,0,0,-0.01171875,0,4.077,0,0,0,0,nan,2,0.36,1,0,0,0,0,0,0,0,0,1,2,1
4038.438,0.001019,0.001953125,0,0,-0.03125,-0.0234375,9.8125,0,0,0,0.01367188,-0.01757812,0,0.0006103516,-0.0004882812,-0.01171875,0,0,-0.01171875,0,4.077,0,0,0,0,nan,2,0.37,1,0,0,0,0,0,0,0,0,1,2,1
4038.448,0.001012,-0.001953125,0,0,0.0234375,0.0234375,9.804688,-0.001953125,0,0,0.01367188,-0.01757812,0,0.0006103516,-0.0004882812,-0.01171875,0,0,-0.01171875,0,4.077,0,0,0,0,nan,2,0.38,1,0,0,0,0,0,0,0,0,1,2,1
4038.458,0.00101,0,0.001953125,0,-0.0234375,0,9.859375,0,0,0,0.01367188,-0.01757812,0,0.0006103516,-0.0004882812,-0.01171875,0,0,-0.01171875,0,4.077,0,0,0,0,nan,2,0.39,1,0,0,0,0,0,0,0,0,1,2,1
4038.468,0.00101,-0.001953125,-0.00390625,0.001953125,0.0078125,0.015625,9.789062,0,0,0,0.01367188,-0.01757812,0,0.0006103516,-0.0004882812,-0.01171875,0,0,-0.01171875,0,4.077,0,0,0,0,nan,2,0.4,1,0,0,0,0,0,0,0,0,1,2,1
4038.478,0.00101,0,0.001953125,-0.00390625,0.015625,0.0078125,9.835938,0,0,-0.001953125,0.01367188,-0.01757812,0,0.0006103516,-0.0004882812,-0.01171875,0,0,-0.01171875,0,4.077,0,0,0,0,nan,2,0.41,1,0,0,0,0,0,0,0,0,1,2,1
4038.489,0.00101,0,-0.00390625,-0.001953125,0.015625,0.03125,9.84375,0,0,0,0.01367188,-0.01757812,0,0.0006103516,-0.0004882812,-0.01171875,0,0,-0.01171875,0,4.077,0,0,0,0,nan,2,0.42,1,0,0,0,0,0,0,0,0,1,2,1
4038.499,0.001013,0,-0.001953125,-0.00390625,0.0078125,-0.0078125,9.84375,0,-0.001953125,0,0.01367188,-0.01757812,0,0.0006103516,-0.0004882812,-0.01171875,0,0,-0.01171875,0,4.077,0,0,0,0,nan,2,0.43,1,0,0,0,0,0,0,0,0,1,2,1
4038.509,0.001016,0.001953125,0,0,0.0234375,0,9.789062,0,0,0,0.01367188,-0.01757812,0,0.0006103516,-0.0004882812,-0.01171875,0,0,-0.01171875,0,4.077,0,0,0,0,nan,2,0.44,1,0,0,0,0,0,0,0,0,1,2,1
4038.519,0.001008,-0.001953125,0,0,0.0234375,-0.015625,9.820312,0,0,0,0.01367188,-0.01757812,0,0.0006103516,-0.0004882812,-0.01171875,0,0,-0.01171875,0,4.077,0,0,0,0,nan,2,0.45,1,0,0,0,0,0,0,0,0,1,2,1
4038.528,0.001046,-0.001953125,-0.001953125,0,0,0.03125,9.820312,-0.001953125,0,0,0.01367188,-0.01757812,0,0.0006103516,-0.0004882812,-0.01171875,0,0,-0.01171875,0,4.077,0,0,0,0,nan,2,0.46,1,0,0,0,0,0,0,0,0,1,2,1
4038.538,0.001028,0.001953125,0.001953125,0,0.0234375,0,9.8125,0,0,0,0.01367188,-0.01757812,0,0.0006103516,-0.0004882812,-0.01171875,0,0,-0.01171875,0,4.077,0,0,0,0,nan,2,0.47,1,0,0,0,0,0,0,0,0,1,2,1
4038.548,0.001007,-0.001953125,0.00390625,0,0,0.0234375,9.757812,0,0.001953125,-0.001953125,0.01367188,-0.01757812,0,0.0006103516,-0.0004882812,-0.01171875,0,0,-0.01171875,0,4.077,0,0,0,0,nan,2,0.48,1,0,0,0,0,0,0,0,0,1,2,1
4038.558,0.00102,0,0.001953125,-0.001953125,0.015625,0.03125,9.828125,0,0,0,0.01367188,-0.01757812,0,0.0006103516,-0.0004882812,-0.01171875,0,0,-0.01171875,0,4.077,0,0,0,0,nan,2,0.49,1,0,0,0,0,0,0,0,0,1,2,1
4038.568,0.001007,0,-0.00390625,-0.001953125,0.0234375,0.0234375,9.820312,0,0,0,0.01367188,-0.01757812,0,0.0006103516,-0.0004882812,-0.01171875,0,0,-0.01171875,0,4.077,0,0,0,0,nan,2,0.5,1,0,0,0,0,0,0,0,0,1,2,1
4038.578,0.001007,0.001953125,0,-0.001953125,0.0078125,0,9.8125,0.001953125,0,0,0.01367188,-0.01757812,0,0.0006103516,-0.0004882812,-0.01171875,0,0,-0.01171875,0,4.077,0,0,0,0,nan,2,0.51,1,0,0,0,0,0,0,0,0,1,2,1
4038.589,0.000998,0,-0.001953125,0,0,0.015625,9.804688,0,0,0,0.01367188,-0.01757812,0,0.0006103516,-0.0004882812,-0.01171875,0,0,-0.01171875,0,4.077,0,0,0,0,nan,2,0.52,1,0,0,0,0,0,0,0,0,1,2,1
4038.598,0.001007,0,0.001953125,0.001953125,0.03125,0.015625,9.804688,0,0,0,0.01367188,-0.01757812,0,0.0006103516,-0.0004882812,-0.01171875,0,0,-0.01171875,0,4.077,0,0,0,0.000793457,nan,2,0.529,1,0,0,0,0,0,0,0,0,1,3,1
4038.609,0.001006,0,0,-0.001953125,0.03125,0,9.796875,0.001953125,0,0,0.01367188,-0.01757812,0,0.0006103516,-0.0004882812,-0.01171875,0,0,-0.01171875,0,4.077,0,0,0,0.002990723,nan,2,0.54,1,0,0,0,0,0,0,0,0,1,3,1
4038.618,0.001029,-0.001953125,-0.001953125,0,0.0546875,0.015625,9.851562,0,0,-0.001953125,0.01367188,-0.01757812,0,0.0006103516,-0.0004882812,-0.01171875,0,0,-0.01171875,0,4.077,0,0,0,0.004821777,nan,2,0.549,1,0,0,0,0,0,0,0,0,1,3,1
4038.628,0.001059,0.001953125,-0.001953125,0.001953125,0.015625,-0.03125,9.84375,0,0,0.001953125,0.01367188,-0.01757812,0,0.0006103516,-0.0004882812,-0.01171875,0,0,-0.01171875,0,4.077,0,0,0,0.007019043,nan,2,0.56,1,0,0,0,0,0,0,0,0,1,3,1
4038.638,0.00101,0,0,0.001953125,0.0390625,-0.03125,9.8125,0,0,0,0.01367188,-0.01757812,0,0.0006103516,-0.0004882812,-0.01171875,0,0,-0.01171875,0,4.077,0,0,0,0.008972168,nan,2,0.57,1,0,0,0,0,0,0,0,0,1,3,1
4038.649,0.001184,-0.00390625,-0.001953125,-0.00390625,-0.015625,-0.0078125,9.765625,-0.001953125,0,0,0.01367188,-0.01757812,0,0.0006103516,-0.0004882812,-0.01171875,0,0,-0.01171875,0,4.077,0,0,0,0.01098633,nan,2,0.58,1,0,0,0,0,0,0,0,0,1,3,1
4038.658,0.001003,0.001953125,-0.00390625,0.00390625,0.0078125,0.015625,9.84375,0.001953125,-0.001953125,0.001953125,0.01367188,-0.01757812,0,0.0006103516,-0.0004882812,-0.01171875,0,0,-0.01171875,0,4.077,0,0,0,0.01300049,nan,2,0.59,1,0,0,0,0,0,0,0,0,1,3,1
4038.668,0.001015,0,0.001953125,-0.00390625,0.0234375,0.0078125,9.78125,0,0,0,0.01367188,-0.01757812,0,0.0006103516,-0.0004882812,-0.01171875,0,0,-0.01171875,0,4.077,0,0,0,0.01501465,nan,2,0.6,1,0,0,0,0,0,0,0,0,1,3,1
4038.678,0.001011,0.00390625,0.00390625,0,0.0234375,0.015625,9.84375,0,0.001953125,0,0.01367188,-0.01757812,0,0.0006103516,-0.0004882812,-0.01171875,0,0,-0.01171875,0,4.077,0,0,0,0.01702881,nan,2,0.61,1,0,0,0,0,0,0,0,0,1,3,1
4038.689,0.001011,0,0,0,0.015625,0.0546875,9.828125,0,0,0,0.01367188,-0.01757812,0,0.0006103516,-0.0004882812,-0.01171875,0,0,-0.01171875,0,4.077,0,0,0,0.01898193,nan,2,0.62,1,0,0,0,0,0,0,0,0,1,3,1
4038.699,0.001019,0,0.001953125,0.001953125,0,0,9.804688,0,0,0,0.01367188,-0.01757812,0,0.0006103516,-0.0004882812,-0.01171875,0,0,-0.01171875,0,4.077,0,0,0,0.02099609,nan,2,0.63,1,0,0,0,0,0,0,0,0,1,3,1
4038.709,0.001011,0.001953125,-0.00390625,-0.001953125,0,0,9.773438,0,-0.001953125,0,0.01367188,-0.01757812,0,0.0006103516,-0.0004882812,-0.01171875,0,0,-0.01171875,0,4.077,0,0,0,0.02301025,nan,2,0.64,1,0,0,0,0,0,0,0,0,1,3,1
4038.718,0.001032,-0.001953125,0.00390625,-0.00390625,-0.03125,0.03125,9.828125,0,0,-0.001953125,0.01367188,-0.01757812,0,0.0006103516,-0.0006103516,-0.01171875,0,0,-0.01171875,0,4.077,0,0,0,0.02478027,nan,2,0.649,1,0,0,0,0,0,0,0,0,1,3,1
4038.728,0.000999,0,0.001953125,-0.001953125,0.0078125,0.0546875,9.8125,0,0.001953125,0,0.01367188,-0.01757812,0,0.0006103516,-0.0004882812,-0.01171875,0,0,-0.01171875,0,4.077,0,0,0,0.02697754,nan,2,0.66,1,0,0,0,0,0,0,0,0,1,3,1
4038.738,0.001014,0,0.00390625,0,0.0234375,-0.015625,9.796875,0,0.001953125,0,0.01367188,-0.01757812,0,0.0006103516,-0.0004882812,-0.01171875,0,0,-0.01171875,0,4.077,0,0,0,0.0289917,nan,2,0.67,1,0,0,0,0,0,0,0,0,1,3,1
4038.748,0.001015,-0.001953125,0,0,0.0078125,0.015625,9.828125,0,0,0,0.01367188,-0.01757812,0,0.0006103516,-0.0004882812,-0.01171875,0,0,-0.01171875,0,4.077,0,0,0,0.03100586,nan,2,0.68,1,0,0,0,0,0,0,0,0,1,3,1
4038.758,0.001011,0.001953125,0.00390625,0.001953125,0.0078125,0.0234375,9.835938,0.001953125,0.001953125,0.001953125,0.01367188,-0.01757812,0,0.0006103516,-0.0004882812,-0.01171875,0,0,-0.01171875,0,4.077,0,0,0,0.03302002,nan,2,0.69,1,0,0,0,0,0,0,0,0,1,3,1
4038.768,0.001017,0,0.00390625,0,-0.0078125,0.0390625,9.8125,0,0.001953125,0,0.01367188,-0.01757812,0,0.0006103516,-0.0004882812,-0.01171875,0,0,-0.01171875,0,4.077,0,0,0,0.03497314,nan,2,0.7,1,0,0,0,0,0,0,0,0,1,3,1
4038.778,0.000988,0,0.00390625,0,0.0234375,0.0234375,9.804688,0,0.001953125,0,0.01367188,-0.01757812,0,0.0006103516,-0.0004882812,-0.01171875,0,0,-0.01171875,0,4.077,0,0,0,0.0369873,nan,2,0.71,1,0,0,0,0,0,0,0,0,1,3,1
4038.789,0.001011,-0.001953125,0,-0.001953125,0,0.0234375,9.804688,-0.001953125,0,-0.001953125,0.01367188,-0.01757812,0,0.0006103516,-0.0004882812,-0.01171875,0,0,-0.01171875,0,4.077,0,0,0,0.03900146,nan,2,0.72,1,0,0,0,0,0,0,0,0,1,3,1
4038.799,0.001014,0,0.001953125,0,0.0078125,0.0390625,9.851562,0,0,-0.001953125,0.01367188,-0.01757812,0,0.0006103516,-0.0004882812,-0.01184082,0,0,-0.01171875,0,4.077,0,0,0,0.04101562,nan,2,0.73,1,0,0,0,0,0,0,0,0,1,3,1
4038.809,0.001011,0.00390625,-0.001953125,-0.001953125,-0.0078125,0.0234375,9.75,0.001953125,-0.001953125,0,0.01367188,-0.01757812,0,0.0006103516,-0.0004882812,-0.01184082,0,0,-0.01171875,0,4.077,0,0,0,0.04302979,nan,2,0.74,1,0,0,0,0,0,0,0,0,1,3,1
4038.819,0.001011,0.001953125,0,0,0.03125,0.03125,9.820312,0,-0.001953125,0.001953125,0.01367188,-0.01757812,0,0.0006103516,-0.0004882812,-0.01171875,0,0,-0.01171875,0,4.077,0,0,0,0.04498291,nan,2,0.75,1,0,0,0,0,0,0,0,0,1,3,1
4038.828,0.000933,0,0.001953125,-0.001953125,0,0.03125,9.796875,0,0,0,0.01367188,-0.01757812,0,0.0007324219,-0.0004882812,-0.01171875,0,0,-0.01171875,0,4.077,0,0,0,0.04699707,nan,2,0.76,1,0,0,0,0,0,0,0,0,1,3,1
4038.838,0.001,0.00390625,0,0,-0.0390625,0.046875,9.835938,0,0,-0.001953125,0.01367188,-0.01757812,0,0.0007324219,-0.0004882812,-0.01184082,0,0,-0.01171875,0,4.077,0,0,0,0.04901123,nan,2,0.77,1,0,0,0,0,0,0,0,0,1,3,1
4038.848,0.001006,-0.00390625,-0.02148438,-0.001953125,0.0546875,-0.046875,9.78125,-0.001953125,-0.009765625,-0.001953125,-0.00390625,0.00390625,0,0.0007324219,-0.0004882812,-0.01184082,0,0,-0.01171875,0.1008301,4.077,0,0,0,0.05102539,nan,2,0.78,1,0,0.1001892,0.1058655,0.09536743,0.1019287,0,0,0,1,3,0.952381
4038.858,0.001004,0.001953125,0,0,-0.0546875,-0.09375,9.710938,0,0,0.001953125,-0.00390625,0.00390625,0,0.0007324219,-0.0006103516,-0.01171875,0,0,-0.01171875,0.1025391,4.077,0,0,0,0.05297852,nan,2,0.79,1,0,0.1029358,0.1016541,0.1037903,0.1017151,0,0,0,1,3,0.7936508
4038.868,0.001006,0,0,0.01367188,0.140625,0.2109375,9.898438,0.001953125,0.001953125,0,-0.00390625,0.00390625,0,0.0007324219,-0.0006103516,-0.01184082,0,0,-0.01171875,0.1042175,4.077,0,0,0,0.05499268,nan,2,0.8,1,0,0.1117859,0.09677124,0.1127319,0.09558105,0,0,0,1,3,0.7619048
4038.878,0.001006,-0.01757812,0.005859375,0,-0.0078125,0.546875,10.08594,-0.00390625,0,-0.001953125,-0.00390625,0.00390625,0,0.0007324219,-0.0006103516,-0.01171875,0,0,-0.01171875,0.105896,4.077,0,0,0,0.05700684,nan,2,0.81,1,0,0.09661865,0.1146545,0.09472656,0.1175537,0,0,0,1,3,0.3492064
4038.889,0.001006,0.02734375,-0.01953125,-0.005859375,-0.1796875,-0.6796875,8.429688,0,-0.005859375,0,-0.00390625,0.00390625,0,0.0007324219,-0.0006103516,-0.01184082,0,0,-0.01171875,0.1075745,4.077,0,0,0,0.059021,nan,2,0.82,1,0,0.1129456,0.1044006,0.1130371,0.09991455,0,0,0,1,3,0
4038.899,0.000979,-0.00390625,0.02539062,0.001953125,-0.1171875,-0.4765625,10.59375,-0.0078125,0.00390625,0,-0.00390625,0.00390625,0,0.0006103516,-0.0006103516,-0.01184082,0,0,-0.01171875,0.1092529,4.077,0,0,0,0.06097412,nan,2,0.83,1,0,0.1100159,0.1058044,0.1099854,0.1112671,0,0,0,1,3,0
4038.909,0.001026,0.01953125,0.1171875,-0.015625,-2.40625,0.453125,11.96875,0.001953125,0.01367188,-0.01171875,-0.00390625,0.00390625,0,0.0007324219,-0.0007324219,-0.01184082,0,0,-0.01171875,0.1109619,4.077,0,0,0,0.06298828,nan,2,0.84,1,0,0.08340454,0.1294556,0.0925293,0.1384277,0,0,0,1,3,0
4038.919,0.001015,-0.05664062,-0.03710938,0.01367188,1.65625,-1.796875,9.507812,-0.001953125,0.00390625,0.005859375,-0.00390625,0.00390625,0,0.0006103516,-0.0007324219,-0.01184082,0,0,-0.01171875,0.1126404,4.077,0,0,0,0.06500244,nan,2,0.85,1,0,0.1255493,0.09771729,0.128479,0.09875488,0,0,0,1,3,0.984127
4038.928,0.00101,0.01757812,-0.03710938,-0.015625,0.8671875,0.9765625,10.10156,0.001953125,-0.005859375,-0.00390625,-0.00390625,0.00390625,0,0.0006103516,-0.0007324219,-0.01184082,0,0,-0.01171875,0.1143188,4.077,0,0,0,0.0670166,nan,2,0.86,1,0,0.1072998,0.1249695,0.1052246,0.119751,0,0,0,1,3,0.2063492
4038.938,0.001043,0.02929688,0.046875,0.00390625,-1.078125,2.148438,8.890625,0,0.005859375,-0.001953125,-0.00390625,0.00390625,0,0.0006103516,-0.0007324219,-0.01184082,0,0,-0.01171875,0.1159973,4.077,0,0,0,0.06896973,nan,2,0.87,1,0,0.1148071,0.1149902,0.1187134,0.1154785,0,0,0,1,3,0
4038.948,0.001007,0,0.01757812,0.015625,-2.484375,-6.265625,13.71875,0.001953125,0.005859375,0,-0.00390625,0.00390625,0,0.0006103516,-0.0006103516,-0.01184082,0,0,-0.01171875,0.1176758,4.077,0,0,0,0.07098389,nan,2,0.88,1,0,0.1180725,0.1159973,0.1208191,0.1158447,0,0,0,1,3,0
4038.958,0.00101,0.03515625,0.015625,-0.02148438,-2.460938,4.273438,9.5625,0.00390625,0.009765625,-0.005859375,-0.00390625,0.00390625,0,0.0006103516,-0.0007324219,-0.01184082,0,0,-0.01171875,0.1193542,4.077,0,0,0,0.07299805,nan,2,0.89,1,0,0.1034241,0.1298218,0.1106873,0.1335449,0,0,0,1,3,0
4038.968,0.000982,-0.00390625,-0.02539062,-0.03320312,-1.734375,2.742188,10.35156,-0.001953125,-0.0078125,-0.01367188,-0.00390625,0.00390625,0,0.0006103516,-0.0007324219,-0.01184082,0,0,-0.01171875,0.1210632,4.077,0,0,0,0.07501221,nan,2,0.9,1,0,0.1011658,0.1442566,0.097229,0.141571,0,0,0,1,3,0
4038.978,0.001,0.015625,0.01367188,-0.009765625,-0.734375,2.445312,11.10156,0.015625,-0.005859375,-0.01367188,-0.00390625,0.005859375,0,0.0007324219,-0.0008544922,-0.01208496,0,0,-0.01171875,0.1227417,4.077,0,0,0,0.07702637,nan,2,0.91,1,0,0.1192322,0.1260986,0.1247253,0.1208496,0,0,0,1,3,0
4038.989,0.001008,-0.01367188,-0.01367188,-0.015625,-0.34375,0.9765625,6.382812,-0.005859375,0.001953125,-0.009765625,-0.00390625,0.005859375,0,0.0007324219,-0.0008544922,-0.01208496,0,0,-0.01171875,0.1244202,4.077,0,0,0,0.07897949,nan,2,0.92,1,0,0.1216736,0.1271057,0.1183777,0.1305237,0,0,0,1,3,0
4038.999,0.000994,0.03515625,0,0.005859375,0.296875,-0.96875,10.92188,0.01953125,-0.001953125,-0.00390625,-0.00390625,0.00390625,0,0.0007324219,-0.0008544922,-0.01220703,0,0,-0.01171875,0.1260986,4.077,0,0,0,0.08099365,nan,2,0.93,1,0,0.1292725,0.1256714,0.1343689,0.1150818,0,0,0,1,3,0
4039.009,0.001004,-0.03515625,0.03320312,-0.01757812,0.546875,-0.1484375,8.554688,-0.015625,0.0078125,-0.005859375,-0.00390625,0.00390625,0,0.0007324219,-0.0007324219,-0.01220703,0,0,-0.01171875,0.1277771,4.077,0,0,0,0.08300781,nan,2,0.94,1,0,0.1245728,0.1294556,0.118866,0.1382446,0,0,0,1,3,0
4039.019,0.001024,-0.00390625,0.001953125,-0.02148438,-0.2265625,0.75,10.08594,-0.005859375,0.0078125,-0.01757812,-0.00390625,0.00390625,0,0.0006103516,-0.0006103516,-0.01245117,0,0,-0.01171875,0.1294861,4.077,0,0,0,0.08502197,nan,2,0.95,1,0,0.1156006,0.1452942,0.1155701,0.1414185,0,0,0,1,3,0.3492064
4039.028,0.001012,-0.02929688,0.046875,0.03515625,-0.28125,0.9453125,10.64062,-0.015625,0.01171875,0.01757812,-0.00390625,0.00390625,0,0.0006103516,-0.0004882812,-0.0123291,0,0,-0.01171875,0.1309814,4.077,0,0,0,0.08679199,nan,2,0.959,1,0,0.1709595,0.08706665,0.1697083,0.09622192,0,0,0,1,3,0
4039.038,0.001013,-0.02929688,-0.01171875,0.01367188,-0.9140625,1,13.54688,-0.01953125,0.005859375,0.015625,-0.001953125,0.001953125,0,0.0003662109,-0.0004882812,-0.01220703,0,0,-0.01171875,0.132843,4.077,0,0,0,0.08898926,nan,2,0.97,1,0,0.1384888,0.1287537,0.1323242,0.1318054,0,0,0,1,3,0
4039.048,0.001012,-0.001953125,-0.03125,0,-0.2578125,0.25,8.265625,0.009765625,-0.015625,0,-0.001953125,0.001953125,0,0.0003662109,-0.0004882812,-0.01220703,0,0,-0.01171875,0.1345215,4.077,0,0,0,0.09100342,nan,2,0.98,1,0,0.1269836,0.1477356,0.1262207,0.137207,0,0,0,1,3,0
4039.058,0.001013,-0.01757812,-0.01367188,0.02929688,1.3125,2.671875,10.49219,-0.009765625,-0.00390625,0.01367188,-0.001953125,0.00390625,0,0.0003662109,-0.0006103516,-0.01208496,0,0,-0.01171875,0.1362,4.077,0,0,0,0.09301758,nan,2,0.99,1,0,0.1601257,0.1140137,0.1547546,0.1159363,0,0,0,1,3,0
4039.068,0.001012,0.03515625,-0.0390625,-0.00390625,-0.6953125,2.523438,13.25,0.0234375,-0.0078125,0.005859375,-0.001953125,0.00390625,0,0.0003662109,-0.0006103516,-0.01196289,0,0,-0.01171875,0.1379089,4.077,0,0,0,0.0949707,nan,2,1,1,0,0.1228943,0.1578064,0.1295471,0.1413269,0,0,0,1,3,0
4039.078,0.001012,0.005859375,-0.00390625,-0.02734375,-1.828125,1.382812,13.10938,0.02539062,-0.01171875,-0.0234375,-0.00390625,0.00390625,0,0.0006103516,-0.0007324219,-0.01208496,0,0,-0.01171875,0.1395874,4.077,0,0,0,0.09698486,nan,2,1.01,1,0,0.1107788,0.1715088,0.1119995,0.164032,0,0,0,1,3,0
4039.089,0.001012,0,0.0234375,-0.04882812,1.304688,5.171875,10.82812,0.0078125,0.00390625,-0.0390625,-0.005859375,0.005859375,0,0.0008544922,-0.0008544922,-0.0123291,0,0,-0.01171875,0.1412659,4.077,0,0,0,0.09899902,nan,2,1.02,1,0,0.1062012,0.1692505,0.1100769,0.1795044,0,0,0,1,3,0
4039.099,0.001012,0,0.009765625,-0.046875,-1.234375,1.484375,13.01562,-0.01367188,0.01367188,-0.05859375,-0.00390625,0.00390625,0,0.0007324219,-0.0007324219,-0.01293945,0,0,-0.01171875,0.1429443,4.077,0,0,0,0.1010132,nan,2,1.03,1,0,0.1179504,0.1672058,0.1165161,0.170105,0,0,0,1,3,0
4039.109,0.001012,-0.03125,0.0078125,-0.04101562,0.421875,-0.421875,7.554688,-0.005859375,-0.0078125,-0.04492188,-0.00390625,0.00390625,0,0.0007324219,-0.0006103516,-0.01342773,0,0,-0.01171875,0.1446228,4.077,0,0,0,0.1030273,nan,2,1.04,1,0,0.1393738,0.1550598,0.1320496,0.1520081,0,0,0,1,3,0
4039.119,0.001012,0.01171875,-0.03515625,-0.046875,-0.375,-2.929688,3.4375,0,-0.01171875,-0.04101562,-0.00390625,0.00390625,0,0.0006103516,-0.0006103516,-0.01379395,0,0,-0.01171875,0.1463013,4.077,0,0,0,0.1049805,nan,2,1.05,1,0,0.1348877,0.1653442,0.1288452,0.1562195,0,0,0,1,3,0
4039.128,0.00102,-0.06835938,0.02539062,-0.0390625,2.171875,2.375,10,-0.03320312,0.009765625,-0.03125,-0.001953125,0.00390625,0,0.0004882812,-0.0006103516,-0.01416016,0,0,-0.01171875,0.1478271,4.077,0,0,0,0.1068115,nan,2,1.059,1,0,0.1495972,0.1422729,0.1424866,0.1569824,0,0,0,1,3,0
4039.138,0.001007,0,-0.015625,-0.01953125,1.5625,0.9921875,3.671875,0.00390625,0,-0.02734375,-0.001953125,0.00390625,0,0.0003662109,-0.0006103516,-0.0144043,0,0,-0.01171875,0.1496887,4.077,0,0,0,0.1090088,nan,2,1.07,1,0,0.1505737,0.1526794,0.1525879,0.1429138,0,0,0,1,3,0
4039.148,0.001005,-0.04296875,0.06835938,-0.04492188,1.070312,7.296875,11.39844,-0.02148438,0.02148438,-0.03125,-0.001953125,0.00390625,0,0.0003662109,-0.0006103516,-0.01464844,0,0,-0.01171875,0.1513672,4.077,0,0,0,0.1110229,nan,2,1.08,1,0,0.1280212,0.1644592,0.1289673,0.184021,0,0,0,1,3,0
4039.158,0.001006,0.05273438,-0.009765625,-0.0078125,-0.9765625,-4.078125,6.460938,0.01171875,0.005859375,-0.02539062,0,0,0,0.0002441406,-0.0002441406,-0.01501465,0,0,-0.01171875,0.1530457,4.077,0,0,0,0.1129761,nan,2,1.09,1,0,0.1576233,0.157196,0.1598206,0.1375732,0,0,0,1,3,0
4039.168,0.001005,-0.02148438,0.06054688,-0.01757812,1.703125,-5.335938,7.84375,-0.04101562,0.04101562,-0.0234375,0,0,0,0,0,-0.01525879,0,0,-0.01171875,0.1547241,4.077,0,0,0,0.1149902,nan,2,1.1,1,0,0.1490479,0.1502075,0.1499939,0.1697083,0,0,0,1,3,0.6507937
4039.178,0.001005,0.01953125,-0.009765625,-0.02539062,0.140625,-0.578125,7.09375,0.01367188,0.001953125,-0.02734375,0,0,0,0,0.0002441406,-0.01550293,0,0,-0.01171875,0.1564331,4.077,0,0,0,0.1170044,nan,2,1.11,1,0,0.1449585,0.1750488,0.1434021,0.1622925,0,0,0,1,3,0
4039.189,0.000998,-0.005859375,-0.02734375,-0.001953125,3.03125,1.632812,6.335938,0,-0.001953125,-0.009765625,0,0,0,0.0001220703,0.0002441406,-0.01574707,0,0,-0.01171875,0.1581116,4.077,0,0,0,0.1190186,nan,2,1.12,1,0,0.173645,0.1432495,0.1705933,0.144928,0,0,0,1,3,0
4039.199,0.001005,0.02929688,-0.015625,-0.03125,-1.328125,-3.34375,8.054688,0.0234375,-0.0078125,-0.03320312,0,0,0,0,0.0002441406,-0.01586914,0,0,-0.01171875,0.15979,4.077,0,0,0,0.1209717,nan,2,1.13,1,0,0.1270142,0.1976013,0.1343689,0.1801758,0,0,0,1,3,0
4039.209,0.001005,0.03125,-0.03710938,-0.009765625,2.40625,-3.757812,4.367188,0.01757812,-0.03125,-0.00390625,0,0,0,0,0.0001220703,-0.01611328,0,0,-0.01171875,0.1614685,4.077,0,0,0,0.1229858,nan,2,1.14,1,0,0.1792603,0.1550293,0.1757507,0.1358643,0,0,0,1,3,0
4039.218,0.001015,-0.02148438,0.02929688,-0.05273438,0.8671875,7.203125,12.79688,-0.03125,0.02929688,-0.04101562,0,0,0,0,0.0001220703,-0.01623535,0,0,-0.01171875,0.1629944,4.077,0,0,0,0.1248169,nan,2,1.149,1,0,0.1187439,0.1951904,0.1205139,0.2174988,0,0,0,1,3,0
4039.228,0.001015,0.03320312,-0.02734375,0.0078125,0.546875,5.5625,15.5625,-0.001953125,-0.01953125,-0.01953125,0,0,0,-0.0001220703,0.0001220703,-0.01660156,0,0,-0.01171875,0.1646729,4.077,0,0,0,0.1268311,nan,2,1.159,1,0,0.1921082,0.1476746,0.1860657,0.1328735,0,0,0,1,3,0
4039.238,0.001011,0.02929688,0.03320312,-0.01757812,0.5390625,4.171875,12.75,-0.009765625,0.01953125,-0.015625,0,0,0,-0.0002441406,0.0001220703,-0.01672363,0,0,-0.01171875,0.1665344,4.077,0,0,0,0.1290283,nan,2,1.17,1,0,0.1528015,0.170929,0.1585388,0.1838684,0,0,0,1,3,0
4039.248,0.001005,0.06054688,-0.07617188,-0.005859375,-0.640625,-5.59375,3.78125,0.04492188,-0.03515625,-0.0078125,0,0,0,-0.0001220703,0.0001220703,-0.0168457,0,0,-0.01171875,0.1682129,4.077,0,0,0,0.1309814,nan,2,1.18,1,0,0.1736755,0.1790466,0.1767273,0.1434021,0,0,0,1,3,0
4039.258,0.001014,0.01171875,0.0546875,-0.009765625,-1.03125,3.914062,12.25,0.015625,0.001953125,-0.00390625,0,0,0,0.0001220703,-0.0001220703,-0.0168457,0,0,-0.01171875,0.1698914,4.077,0,0,0,0.1329956,nan,2,1.19,1,0,0.1619568,0.1676331,0.1704712,0.1795349,0,0,0,1,3,0
4039.268,0.001015,0.00390625,0.001953125,0,-3.226562,0.3984375,7.8125,0.0078125,-0.00390625,-0.00390625,0,0,0,0,0,-0.01696777,0,0,-0.01171875,0.1715698,4.077,0,0,0,0.1350098,nan,2,1.2,1,0,0.1757507,0.1725769,0.1783447,0.1596985,0,0,0,1,3,0
4039.279,0.001015,-0.03710938,0.02539062,-0.0625,-1.476562,-1.03125,11.17188,-0.00390625,-0.005859375,-0.02929688,0,0,0,0.0002441406,-0.0002441406,-0.01708984,0,0,-0.01171875,0.1732788,4.077,0,0,0,0.1370239,nan,2,1.21,1,0,0.127655,0.2127075,0.1255493,0.2271729,0,0,0,1,3,0
4039.289,0.001015,0.02734375,0.02929688,-0.04296875,-2.664062,5.867188,8.242188,-0.01757812,0.02929688,-0.0703125,0,0,0,-0.0002441406,0,-0.0177002,0,0,-0.01171875,0.1749573,4.077,0,0,0,0.1389771,nan,2,1.22,1,0,0.1376648,0.2059937,0.1488953,0.2072449,0,0,0,1,3,0
4039.299,0.001015,0.04882812,-0.01757812,-0.0625,1.820312,-3.25,5.90625,0.02148438,-0.01367188,-0.05664062,0,0,0,-0.0002441406,0,-0.01831055,0,0,-0.01171875,0.1766357,4.077,0,0,0,0.1409912,nan,2,1.23,1,0,0.1521301,0.2079468,0.1564026,0.1900635,0,0,0,1,3,0
4039.309,0.001015,-0.04882812,0.08007812,-0.08398438,3.46875,1.804688,13.64062,-0.005859375,0.0234375,-0.05859375,0,0,0,0,-0.0001220703,-0.01879883,0,0,-0.01171875,0.1783142,4.077,0,0,0,0.1430054,nan,2,1.24,1,0,0.1416016,0.1981812,0.1478882,0.2256165,0,0,0,1,3,0
4039.319,0.001015,-0.01953125,-0.1074219,-0.04296875,-3.1875,-3.117188,5.429688,-0.0546875,-0.01953125,-0.06445312,0.00390625,-0.001953125,0,-0.0007324219,0.0003662109,-0.01965332,0,0,-0.01171875,0.1799927,4.077,0,0,0,0.1450195,nan,2,1.25,1,0,0.1918335,0.1921082,0.1636658,0.1723938,0,0,0,1,3,0
4039.328,0.00101,0.0546875,-0.04492188,-0.046875,0.8515625,-5.132812,7.804688,0.04882812,-0.00390625,-0.07421875,0.00390625,-0.001953125,0,-0.0007324219,0.0003662109,-0.02026367,0,0,-0.01171875,0.1815186,4.077,0,0,0,0.1467896,nan,2,1.259,1,0,0.160675,0.2064514,0.1802368,0.1787109,0,0,0,1,3,0.06349207
4039.338,0.001005,-0.08203125,0.009765625,-0.08007812,-1.304688,-5.429688,8.6875,-0.00390625,0.01757812,-0.0703125,0.001953125,-0.001953125,0,-0.0003662109,0.0002441406,-0.02099609,0,0,-0.01171875,0.1833801,4.077,0,0,0,0.1489868,nan,2,1.27,1,0,0.155365,0.202301,0.1513672,0.2244263,0,0,0,1,3,0
4039.348,0.00101,-0.06835938,0.0078125,-0.05273438,4.015625,2.757812,11.0625,-0.001953125,0.00390625,-0.05273438,0.001953125,-0.001953125,0,-0.0004882812,0.0003662109,-0.02160645,0,0,-0.01171875,0.1850586,4.077,0,0,0,0.151001,nan,2,1.28,1,0,0.1875305,0.1849976,0.1795044,0.1882324,0,0,0,1,3,0
4039.358,0.001013,0.01171875,-0.03515625,-0.0234375,-2.109375,3.375,14.22656,0.0234375,-0.009765625,-0.0390625,0.001953125,-0.001953125,0,-0.0003662109,0.0004882812,-0.02209473,0,0,-0.01171875,0.1867371,4.077,0,0,0,0.1530151,nan,2,1.29,1,0,0.1955872,0.1856384,0.1957397,0.1700134,0,0,0,1,3,0
4039.368,0.00101,0.001953125,0.01953125,-0.0234375,0.609375,-6.226562,7.640625,-0.02734375,0.03320312,-0.0390625,0.00390625,-0.00390625,0,-0.0007324219,0.0006103516,-0.02246094,0,0,-0.01171875,0.1884155,4.077,0,0,0,0.1550293,nan,2,1.3,1,0,0.1777344,0.1872253,0.1837158,0.2049866,0,0,0,1,3,0.4920635
4039.378,0.00101,0.03125,0,-0.0546875,0.1484375,4.546875,8.664062,0.02148438,-0.0078125,-0.04296875,0.00390625,-0.001953125,0,-0.0006103516,0.0003662109,-0.02270508,0,0,-0.01171875,0.190094,4.077,0,0,0,0.1569824,nan,2,1.31,1,0,0.1496887,0.2252502,0.1616516,0.2238464,0,0,0,1,3,0.5714286
4039.389,0.00101,-0.04296875,0.07226562,-0.0390625,2.648438,0.3984375,12.875,-0.015625,0.03515625,-0.0390625,0.00390625,-0.001953125,0,-0.0006103516,0.0003662109,-0.02319336,0,0,-0.01171875,0.191803,4.077,0,0,0,0.1589966,nan,2,1.32,1,0,0.1784973,0.1891174,0.1867676,0.2127991,0,0,0,1,3,0
4039.399,0.00101,0.009765625,-0.03515625,0.009765625,1.335938,7.125,12.28906,0.01367188,-0.0234375,0.005859375,0.00390625,-0.00390625,0,-0.0006103516,0.0006103516,-0.02331543,0,0,-0.01171875,0.1934814,4.077,0,0,0,0.1610107,nan,2,1.33,1,0,0.244751,0.1571655,0.2358704,0.1361084,0,0,0,1,3,0
4039.409,0.00101,0.0390625,-0.03125,-0.046875,-3.5,1.195312,14.24219,0.01171875,-0.0078125,-0.04882812,0.001953125,-0.001953125,0,-0.0004882812,0.0003662109,-0.02368164,0,0,-0.01171875,0.1951599,4.077,0,0,0,0.1630249,nan,2,1.34,1,0,0.146637,0.2444153,0.1481934,0.2414246,0,0,0,1,3,0
4039.419,0.00101,-0.0546875,0.04492188,-0.05859375,-1.375,4.601562,13.83594,-0.01953125,0.02734375,-0.05078125,0.001953125,-0.001953125,0,-0.0003662109,0.0003662109,-0.02404785,0,0,-0.01171875,0.1968384,4.077,0,0,0,0.164978,nan,2,1.35,1,0,0.1631165,0.2168579,0.1642761,0.2431335,0,0,0,1,3,0
4039.428,0.00101,-0.06835938,0.01367188,-0.01367188,2.984375,4.484375,12.35938,-0.005859375,-0.01171875,-0.01757812,0.001953125,-0.001953125,0,-0.0002441406,0.0003662109,-0.02441406,0,0,-0.01171875,0.1983643,4.077,0,0,0,0.1668091,nan,2,1.359,1,0,0.2250061,0.1749573,0.2127075,0.1807861,0,0,0,1,3,0
4039.438,0.001002,0.01757812,-0.01171875,-0.0390625,-0.2265625,3.492188,10.22656,0.0078125,0.009765625,-0.05078125,0.001953125,-0.001953125,0,-0.0004882812,0.0004882812,-0.02478027,0,0,-0.01171875,0.2002258,4.077,0,0,0,0.1690063,nan,2,1.37,1,0,0.160614,0.2367554,0.1715088,0.2319641,0,0,0,1,3,0
4039.448,0.001015,-0.02734375,0.03515625,-0.02929688,1.039062,2.742188,13.70312,0.00390625,0.00390625,-0.01757812,0.001953125,-0.001953125,0,-0.0003662109,0.0003662109,-0.02502441,0,0,-0.01171875,0.2019043,4.077,0,0,0,0.1710205,nan,2,1.38,1,0,0.2079773,0.1920471,0.209137,0.1984253,0,0,0,1,3,0
4039.458,0.001007,-0.03320312,-0.005859375,0.03710938,1.546875,1.242188,6.328125,-0.02929688,-0.001953125,0.0234375,0.001953125,-0.001953125,0,-0.0004882812,0.0004882812,-0.02502441,0,0,-0.01171875,0.2035828,4.077,0,0,0,0.1729736,nan,2,1.39,1,0,0.2623596,0.147644,0.2500916,0.1542053,0,0,0,1,3,0
4039.468,0.00101,0.0390625,-0.03710938,-0.07421875,2.382812,-3.984375,8.796875,0.015625,-0.01757812,-0.046875,0.00390625,-0.001953125,0,-0.0007324219,0.0003662109,-0.02502441,0,0,-0.01171875,0.2052612,4.077,0,0,0,0.1749878,nan,2,1.4,1,0,0.1139221,0.3027649,0.1204224,0.2839355,0,0,0,1,3,0.6984127
4039.478,0.00101,-0.05859375,0.02539062,0,-2.992188,-0.8671875,11.44531,0.005859375,-0.00390625,-0.01171875,0.001953125,0,0,-0.0003662109,0.0001220703,-0.02539062,0,0,-0.01171875,0.2069397,4.077,0,0,0,0.177002,nan,2,1.41,1,0,0.2326355,0.1744385,0.2337341,0.1869812,0,0,0,1,3,0
4039.489,0.001006,-0.0859375,0.03710938,-0.07617188,-1.179688,5.523438,12.14844,-0.08007812,0.0546875,-0.06054688,0.005859375,-0.001953125,0,-0.0008544922,0.0004882812,-0.02575684,0,0,-0.01171875,0.2086182,4.077,0,0,0,0.1790161,nan,2,1.42,1,0,0.1516113,0.2503662,0.1416931,0.2908325,0,0,0,1,3,0
4039.499,0.00101,0.08007812,-0.046875,0.009765625,1.929688,1.179688,6.835938,0.05664062,-0.04296875,-0.01367188,0.005859375,-0.001953125,0,-0.0009765625,0.0003662109,-0.02612305,0,0,-0.01171875,0.2103271,4.077,0,0,0,0.1810303,nan,2,1.43,1,0,0.2507019,0.1878967,0.2593079,0.1433716,0,0,0,1,3,0
4039.509,0.00101,-0.0546875,0.04296875,0.01367188,-0.25,-2.617188,6.0625,-0.04882812,0.04101562,0,0.005859375,-0.001953125,0,-0.0009765625,0.0004882812,-0.02624512,0,0,-0.01171875,0.2120056,4.077,0,0,0,0.1829834,nan,2,1.44,1,0,0.2385254,0.1698914,0.2328186,0.2067871,0,0,0,1,3,0
4039.519,0.00101,0.0390625,-0.04296875,0.02539062,-0.8984375,2.554688,15.80469,0.01757812,-0.015625,0.02929688,0.005859375,-0.00390625,0,-0.001098633,0.0006103516,-0.02600098,0,0,-0.01171875,0.2136841,4.077,0,0,0,0.1849976,nan,2,1.45,1,0,0.2381897,0.2017517,0.2383423,0.1764526,0,0,0,1,3,0
4039.529,0.000964,-0.009765625,-0.02929688,-0.00390625,2.390625,-4.085938,8.5625,0.00390625,-0.00390625,0.00390625,0.005859375,-0.00390625,0,-0.001098633,0.0004882812,-0.02587891,0,0,-0.02587891,0.2146912,4.077,0,0,0,0.1862183,nan,2,1.461,0,0,0,0,0,0,0,0,0,1,2,1
4039.539,0.001008,0.005859375,0.02148438,-0.0078125,-2.664062,0.71875,6.039062,0.00390625,0.005859375,-0.01367188,0.005859375,-0.00390625,0,-0.001098633,0.0004882812,-0.02587891,0,0,-0.02587891,0.2146912,4.077,0,0,0,0.1862183,nan,2,1.471,0,0,0,0,0,0,0,0,0,1,2,0
4039.548,0.001011,0.001953125,0.02148438,0.01953125,1.539062,2.46875,17.69531,0.009765625,0.0078125,0.01757812,0.005859375,-0.00390625,0,-0.0009765625,0.0006103516,-0.02587891,0,0,-0.02587891,0.2146912,4.077,0,0,0,0.1862183,nan,2,1.48,0,0,0,0,0,0,0,0,0,1,2,0
4039.558,0.001003,-0.0078125,0.046875,-0.08984375,-0.3359375,-3.46875,14.5,-0.01367188,0.02734375,-0.046875,0.005859375,-0.00390625,0,-0.001098633,0.0008544922,-0.02600098,0,0,-0.02600098,0.2146912,4.077,0,0,0,0.1862183,nan,2,1.49,0,0,0,0,0,0,0,0,0,1,2,0
4039.568,0.001012,-0.04882812,0.00390625,-0.140625,1.773438,-3.109375,8.296875,-0.02148438,-0.005859375,-0.1230469,0.005859375,-0.00390625,0,-0.001342773,0.0009765625,-0.02685547,0,0,-0.02685547,0.2146912,4.077,0,0,0,0.1862183,nan,2,1.5,0,0,0,0,0,0,0,0,0,1,2,1
4039.578,0.00102,0.04492188,-0.001953125,-0.1054688,-0.6171875,-3.015625,4.085938,0.02734375,-0.01757812,-0.1191406,0.005859375,-0.00390625,0,-0.001342773,0.0007324219,-0.02819824,0,0,-0.02819824,0.2146912,4.077,0,0,0,0.1862183,nan,2,1.51,0,0,0,0,0,0,0,0,0,1,2,0
4039.588,0.001012,-0.005859375,-0.01757812,-0.04882812,1.898438,-2.804688,6.6875,0.07421875,-0.0546875,-0.0625,0.005859375,-0.00390625,0,-0.0008544922,0.0003662109,-0.0291748,0,0,-0.0291748,0.2146912,4.077,0,0,0,0.1862183,nan,2,1.52,0,0,0,0,0,0,0,0,0,1,2,0
4039.598,0.001014,-0.0078125,0.02148438,-0.03320312,2.953125,-3.90625,6.695312,0,-0.01171875,-0.03320312,0.005859375,-0.00390625,0,-0.0006103516,0.0001220703,-0.02954102,0,0,-0.02954102,0.2146912,4.077,0,0,0,0.1862183,nan,2,1.53,0,0,0,0,0,0,0,0,0,1,2,0
4039.609,0.001019,-0.03125,-0.0078125,-0.04101562,1.554688,3.507812,11.61719,-0.01171875,0,-0.04296875,0.005859375,-0.00390625,0,-0.0006103516,0.0001220703,-0.0300293,0,0,-0.0300293,0.2146912,4.077,0,0,0,0.1862183,nan,2,1.54,0,0,0,0,0,0,0,0,0,1,2,0
4039.619,0.001014,-0.0234375,0.05078125,-0.08398438,0.0234375,-2.140625,5,-0.015625,0.02148438,-0.07617188,0.005859375,-0.00390625,0,-0.0008544922,0.0001220703,-0.03063965,0,0,-0.03063965,0.2146912,4.077,0,0,0,0.1862183,nan,2,1.55,0,0,0,0,0,0,0,0,0,1,2,0
4039.629,0.001012,-0.001953125,-0.015625,-0.05273438,1.421875,-2.359375,13.50781,-0.001953125,0,-0.06835938,0.005859375,-0.00390625,0,-0.0007324219,0.0003662109,-0.03137207,0,0,-0.03137207,0.2146912,4.077,0,0,0,0.1862183,nan,2,1.56,0,0,0,0,0,0,0,0,0,1,2,0
4039.639,0.001011,-0.00390625,-0.01757812,-0.005859375,-0.3125,-2.867188,11.48438,-0.00390625,0,-0.02148438,0.005859375,-0.00390625,0,-0.0008544922,0.0003662109,-0.03186035,0,0,-0.03186035,0.2146912,4.077,0,0,0,0.1862183,nan,2,1.571,0,0,0,0,0,0,0,0,0,1,2,0
4039.648,0.001011,0.03320312,0.02539062,-0.01367188,-0.6640625,-2.609375,7.078125,0.015625,-0.001953125,-0.01171875,0.005859375,-0.00390625,0,-0.0007324219,0.0002441406,-0.03198242,0,0,-0.03198242,0.2146912,4.077,0,0,0,0.1862183,nan,2,1.58,0,0,0,0,0,0,0,0,0,1,2,0
4039.658,0.001018,-0.015625,0.03320312,-0.015625,-1.25,1.273438,7.078125,-0.015625,0.01367188,-0.01757812,0.005859375,-0.00390625,0,-0.0007324219,0.0003662109,-0.03210449,0,0,-0.03210449,0.2146912,4.077,0,0,0,0.1862183,nan,2,1.59,0,0,0,0,0,0,0,0,0,1,2,0
4039.668,0.001018,0.009765625,-0.0390625,-0.0078125,-0.4296875,-1.523438,10.82031,0,-0.01757812,-0.009765625,0.005859375,-0.00390625,0,-0.0007324219,0.0002441406,-0.03222656,0,0,-0.03222656,0.2146912,4.077,0,0,0,0.1862183,nan,2,1.6,0,0,0,0,0,0,0,0,0,1,2,0
4039.678,0.001012,-0.00390625,0.0078125,-0.01953125,0.125,1.28125,11.71875,0.0078125,0.00390625,-0.02148438,0.005859375,-0.00390625,0,-0.0006103516,0.0002441406,-0.03234863,0,0,-0.03234863,0.2146912,4.077,0,0,0,0.1862183,nan,2,1.61,0,0,0,0,0,0,0,0,0,1,2,0
4039.688,0.001012,0.0234375,0.02148438,-0.009765625,1,-0.453125,9.851562,0.01367188,0.009765625,-0.01757812,0.005859375,-0.00390625,0,-0.0006103516,0.0003662109,-0.03259277,0,0,-0.03259277,0.2146912,4.077,0,0,0,0.1862183,nan,2,1.62,0,0,0,0,0,0,0,0,0,1,2,1
4039.698,0.001012,0.005859375,0.005859375,-0.0078125,-0.21875,-0.328125,9.679688,0.001953125,0,-0.01367188,0.005859375,-0.00390625,0,-0.0006103516,0.0002441406,-0.03271484,0,0,-0.03271484,0.2146912,4.077,0,0,0,0.1862183,nan,2,1.63,0,0,0,0,0,0,0,0,0,1,2,1
4039.709,0.001012,-0.02148438,0.009765625,-0.02539062,-0.3046875,0.90625,8.132812,0.01171875,-0.01367188,-0.01757812,0.005859375,-0.00390625,0,-0.0004882812,0.0001220703,-0.03283691,0,0,-0.03283691,0.2146912,4.077,0,0,0,0.1862183,nan,2,1.64,0,0,0,0,0,0,0,0,0,1,2,0
4039.719,0.001005,0.02148438,0.015625,-0.03710938,-0.296875,-0.6796875,10.57031,0.01367188,0,-0.02539062,0.005859375,-0.00390625,0,-0.0004882812,0.0002441406,-0.03308105,0,0,-0.03308105,0.2146912,4.077,0,0,0,0.1862183,nan,2,1.65,0,0,0,0,0,0,0,0,0,1,2,1
4039.729,0.001012,-0.00390625,-0.02539062,-0.01953125,-0.4609375,0.265625,9.273438,-0.001953125,-0.009765625,-0.02539062,0.005859375,-0.00390625,0,-0.0003662109,0.0001220703,-0.0333252,0,0,-0.0333252,0.2146912,4.077,0,0,0,0.1862183,nan,2,1.66,0,0,0,0,0,0,0,0,0,1,2,1
4039.739,0.001014,-0.03515625,0.005859375,-0.005859375,0.453125,-0.65625,10.28125,-0.02148438,0.0078125,-0.015625,0.005859375,-0.00390625,0,-0.0004882812,0.0001220703,-0.03356934,0,0,-0.03356934,0.2146912,4.077,0,0,0,0.1862183,nan,2,1.671,0,0,0,0,0,0,0,0,0,1,2,1
4039.748,0.001,0.02734375,-0.02539062,-0.005859375,-0.1015625,-1.273438,13.34375,0.005859375,-0.009765625,-0.0078125,0.005859375,-0.00390625,0,-0.0006103516,0.0001220703,-0.03369141,0,0,-0.03369141,0.2146912,4.077,0,0,0,0.1862183,nan,2,1.68,0,0,0,0,0,0,0,0,0,1,2,0
4039.758,0.001006,-0.009765625,0.001953125,-0.01757812,0,-0.609375,9.921875,0,-0.001953125,-0.015625,0.005859375,-0.00390625,0,-0.0004882812,0,-0.03381348,0,0,-0.03381348,0.2146912,4.077,0,0,0,0.1862183,nan,2,1.69,0,0,0,0,0,0,0,0,0,1,2,1
4039.768,0.001005,-0.03515625,0.01757812,0.005859375,0.484375,-0.8125,7.789062,-0.01367188,0.015625,0,0.005859375,-0.00390625,0,-0.0004882812,0.0001220703,-0.03381348,0,0,-0.03381348,0.2146912,4.077,0,0,0,0.1862183,nan,2,1.7,0,0,0,0,0,0,0,0,0,1,2,0
4039.778,0.001008,0.00390625,0.015625,-0.00390625,2.96875,-2.460938,9.367188,0.0078125,0,0.001953125,0.005859375,-0.00390625,0,-0.0004882812,0.0001220703,-0.03381348,0,0,-0.03381348,0.2146912,4.077,0,0,0,0.1862183,nan,2,1.71,0,0,0,0,0,0,0,0,0,1,2,1
4039.788,0.001008,-0.009765625,-0.001953125,-0.02148438,-0.0234375,2.1875,5.21875,0,-0.009765625,-0.01367188,0.005859375,-0.00390625,0,-0.0004882812,0.0001220703,-0.03393555,0,0,-0.03393555,0.2146912,4.077,0,0,0,0.1862183,nan,2,1.72,0,0,0,0,0,0,0,0,0,1,2,0
4039.799,0.001008,-0.0546875,0.015625,0.03320312,-0.8828125,-4.710938,9.304688,-0.01171875,0.001953125,0.01171875,0.005859375,-0.00390625,0,-0.0006103516,0,-0.03393555,0,0,-0.03393555,0.2146912,4.077,0,0,0,0.1862183,nan,2,1.73,0,0,0,0,0,0,0,0,0,1,2,1
4039.809,0.001014,0.03125,-0.01171875,-0.01953125,-0.5390625,4.34375,10.70312,0.001953125,0.001953125,0.001953125,0.005859375,-0.00390625,0,-0.0006103516,0.0001220703,-0.03381348,0,0,-0.03381348,0.2146912,4.077,0,0,0,0.1862183,nan,2,1.74,0,0,0,0,0,0,0,0,0,1,2,0
4039.819,0.001008,-0.005859375,-0.02929688,0.001953125,3.273438,0,9.140625,0.00390625,-0.01367188,-0.005859375,0.005859375,-0.00390625,0,-0.0006103516,0,-0.03393555,0,0,-0.03393555,0.2146912,4.077,0,0,0,0.1862183,nan,2,1.75,0,0,0,0,0,0,0,0,0,1,2,1
4039.829,0.001008,0.04882812,0,0.0078125,2.382812,0.9296875,11.96875,0.00390625,-0.00390625,0,0.005859375,-0.00390625,0,-0.0006103516,-0.0001220703,-0.03393555,0,0,-0.03393555,0.2146912,4.077,0,0,0,0.1862183,nan,2,1.76,0,0,0,0,0,0,0,0,0,1,2,0
4039.838,0.001012,0.08398438,-0.046875,-0.0078125,6.132812,6.3125,11.17969,0.009765625,-0.01171875,0.005859375,0.005859375,-0.00390625,0,-0.0007324219,0,-0.03381348,0,0,-0.03381348,0.2146912,4.077,0,0,0,0.1862183,nan,2,1.77,0,0,0,0,0,0,0,0,0,1,2,0
4039.848,0.000996,-0.03125,0.0078125,-0.001953125,-2.585938,-2.21875,8.546875,0.005859375,0,-0.005859375,0.005859375,-0.00390625,0,-0.0006103516,0,-0.03393555,0,0,-0.03393555,0.2146912,4.077,0,0,0,0.1862183,nan,2,1.78,0,0,0,0,0,0,0,0,0,1,2,1
4039.858,0.000991,0.00390625,-0.03125,-0.001953125,0.7734375,1.15625,7.8125,0.01367188,-0.001953125,0,0.005859375,-0.00390625,0,-0.0003662109,0,-0.03393555,0,0,-0.03393555,0.2146912,4.077,0,0,0,0.1862183,nan,2,1.79,0,0,0,0,0,0,0,0,0,1,2,0
4039.868,0.000988,0.001953125,-0.03515625,0.01171875,0.40625,1.0625,8.53125,0,-0.001953125,0.00390625,0.005859375,-0.00390625,0,-0.0003662109,0,-0.03381348,0,0,-0.03381348,0,4.077,0,0,0,0,nan,2,0,0,0,0,0,0,0,0,0,0,1,2,0
4039.878,0.00101,0.02929688,0.001953125,-0.01367188,-2.648438,0.8125,9.984375,0.009765625,0.001953125,-0.005859375,0.005859375,-0.00390625,0,-0.0003662109,-0.0001220703,-0.03381348,0,0,-0.03381348,0,4.077,0,0,0,0,nan,2,0.01,0,0,0,0,0,0,0,0,0,1,2,1
4039.888,0.001018,0.01757812,0.0234375,0.00390625,0.0703125,0.265625,9.960938,-0.00390625,0,0.001953125,0.005859375,-0.00390625,0,-0.0002441406,-0.0001220703,-0.03393555,0,0,-0.03393555,0,4.077,0,0,0,0,nan,2,0.02,0,0,0,0,0,0,0,0,0,1,2,1
4039.899,0.001019,0.02148438,-0.015625,-0.015625,1.140625,1.226562,9.617188,0.00390625,0,-0.00390625,0.005859375,-0.00390625,0,-0.0002441406,-0.0001220703,-0.03393555,0,0,-0.03393555,0,4.077,0,0,0,0,nan,2,0.03,0,0,0,0,0,0,0,0,0,1,2,1
4039.909,0.000988,-0.02539062,-0.00390625,0.02148438,-0.5546875,-1.257812,9.765625,0.005859375,0.001953125,0.001953125,0.005859375,-0.00390625,0,-0.0002441406,-0.0001220703,-0.03381348,0,0,-0.03381348,0,4.077,0,0,0,0,nan,2,0.04,0,0,0,0,0,0,0,0,0,1,2,1
4039.919,0.001019,-0.02929688,0.005859375,0.01171875,-0.8515625,-0.3203125,10.35156,-0.009765625,-0.00390625,0,0.005859375,-0.00390625,0,-0.0002441406,-0.0001220703,-0.03381348,0,0,-0.03381348,0,4.077,0,0,0,0,nan,2,0.05,0,0,0,0,0,0,0,0,0,1,2,1
4039.929,0.001012,-0.02539062,0.06640625,0.02734375,-0.90625,-0.8125,11.10156,-0.005859375,0.01367188,0.005859375,0.005859375,-0.00390625,0,-0.0002441406,-0.0001220703,-0.03381348,0,0,-0.03381348,0,4.077,0,0,0,0,nan,2,0.061,0,0,0,0,0,0,0,0,0,1,2,0
4039.938,0.001014,-0.06835938,0.046875,0.03710938,-0.8515625,-0.5625,11.10938,-0.005859375,0.005859375,0.001953125,0.005859375,-0.00390625,0,-0.0002441406,-0.0001220703,-0.03381348,0,0,-0.03381348,0,4.077,0,0,0,0,nan,2,0.07,0,0,0,0,0,0,0,0,0,1,2,0
4039.948,0.000988,-0.1210938,0.01953125,0.03515625,-0.390625,-1.304688,10.5,-0.015625,0,0,0.005859375,-0.00390625,0,-0.0002441406,-0.0001220703,-0.03381348,0,0,-0.03381348,0,4.077,0,0,0,0,nan,2,0.08,0,0,0,0,0,0,0,0,0,1,2,1
4039.958,0.001004,-0.03125,0.1113281,0.01757812,-0.7734375,-0.109375,11.14844,-0.01367188,0.01757812,0.00390625,0.005859375,-0.00390625,0,-0.0001220703,-0.0002441406,-0.03393555,0,0,-0.03393555,0,4.077,0,0,0,0,nan,2,0.09,0,0,0,0,0,0,0,0,0,1,2,0
4039.968,0.001008,0.00390625,0.06445312,-0.009765625,-0.203125,0.28125,10.84375,0.00390625,0.005859375,0.001953125,0.005859375,-0.00390625,0,-0.0001220703,-0.0002441406,-0.03393555,0,0,-0.03393555,0,4.077,0,0,0,0,nan,2,0.1,0,0,0,0,0,0,0,0,0,1,2,0
4039.978,0.001023,0.01757812,-0.02148438,0.02929688,-0.3359375,-0.140625,10.14844,0.001953125,-0.0078125,0.0078125,0.005859375,-0.00390625,0,-0.0001220703,-0.0002441406,-0.03381348,0,0,-0.03381348,0,4.077,0,0,0,0,nan,2,0.11,0,0,0,0,0,0,0,0,0,1,2,1
4039.988,0.001008,0.001953125,-0.03125,-0.0078125,-0.0390625,0.5859375,9.96875,0.001953125,-0.00390625,-0.009765625,0.005859375,-0.00390625,0,-0.0001220703,-0.0002441406,-0.03393555,0,0,-0.03393555,0,4.077,0,0,0,0,nan,2,0.12,0,0,0,0,0,0,0,0,0,1,2,1
4039.999,0.001028,0.02929688,-0.02539062,0.00390625,-0.2109375,-0.265625,8.875,0.005859375,0,0.0078125,0.005859375,-0.00390625,0,-0.0001220703,-0.0002441406,-0.03381348,0,0,-0.03381348,0,4.077,0,0,0,0,nan,2,0.13,0,0,0,0,0,0,0,0,0,1,2,1
4040.009,0.001022,-0.02539062,0.03515625,-0.00390625,-0.265625,0.0234375,11.41406,-0.001953125,0.009765625,-0.00390625,0.005859375,-0.00390625,0,0,-0.0002441406,-0.03381348,0,0,-0.03381348,0,4.077,0,0,0,0,nan,2,0.004,0,0,0,0,0,0,0,0,0,1,2,0
4040.018,0.00107,-0.01171875,0.001953125,0.001953125,0.0546875,0.1953125,9.867188,0,-0.001953125,0,0.005859375,-0.00390625,0,0,-0.0002441406,-0.03381348,0,0,-0.03381348,0,4.077,0,0,0,0,nan,2,0.013,0,0,0,0,0,0,0,0,0,1,2,1
4040.029,0.000982,-0.0078125,0.02929688,0.0234375,-0.3203125,-0.296875,10.63281,0.001953125,0.001953125,0.001953125,0.005859375,-0.00390625,0,0,-0.0002441406,-0.03381348,0,0,-0.03381348,0,4.077,0,0,0,0,nan,2,0.024,0,0,0,0,0,0,0,0,0,1,2,1
4040.039,0.001008,0.0234375,0.00390625,0.01953125,0.1328125,-0.3671875,9.53125,0.009765625,-0.005859375,0.009765625,0.005859375,-0.00390625,0,0,-0.0002441406,-0.03381348,0,0,-0.03381348,0,4.077,0,0,0,0,nan,2,0.034,0,0,0,0,0,0,0,0,0,1,2,1
4040.048,0.001013,0,-0.001953125,0.001953125,-0.1796875,-0.4296875,9.945312,0.005859375,-0.00390625,0.0078125,0.005859375,-0.00390625,0,0,-0.0003662109,-0.03381348,0,0,-0.03381348,0,4.077,0,0,0,0,nan,2,0.043,0,0,0,0,0,0,0,0,0,1,2,1
4040.058,0.000999,0.0078125,-0.005859375,-0.01367188,-0.0625,-0.0078125,8.65625,0.001953125,-0.00390625,-0.001953125,0.005859375,-0.00390625,0,0.0001220703,-0.0003662109,-0.03381348,0,0,-0.03381348,0,4.077,0,0,0,0,nan,2,0.054,0,0,0,0,0,0,0,0,0,1,2,0
4040.068,0.00101,0.01757812,-0.01953125,0.001953125,0.03125,0.1953125,9.585938,0,-0.00390625,-0.001953125,0.005859375,-0.00390625,0,0.0001220703,-0.0003662109,-0.03381348,0,0,-0.03381348,0,4.077,0,0,0,0,nan,2,0.064,0,0,0,0,0,0,0,0,0,1,2,1
4040.078,0.001011,0.02539062,-0.03320312,0.0078125,-0.0234375,0.2734375,9.828125,0.00390625,-0.0078125,0.001953125,0.005859375,-0.00390625,0,0.0001220703,-0.0003662109,-0.03381348,0,0,-0.03381348,0,4.077,0,0,0,0,nan,2,0.074,0,0,0,0,0,0,0,0,0,1,2,1
4040.088,0.001011,0.009765625,-0.02539062,-0.00390625,-0.140625,0.28125,9.992188,0,-0.00390625,0.001953125,0.005859375,-0.00390625,0,0.0001220703,-0.0003662109,-0.03381348,0,0,-0.03381348,0,4.077,0,0,0,0,nan,2,0.084,0,0,0,0,0,0,0,0,0,1,2,1
4040.098,0.001011,-0.009765625,0.0078125,-0.01171875,-0.078125,-0.3359375,10.10938,0.001953125,0.00390625,0.001953125,0.005859375,-0.00390625,0,0.0001220703,-0.0003662109,-0.03381348,0,0,-0.03381348,0,4.077,0,0,0,0,nan,2,0.094,0,0,0,0,0,0,0,0,0,1,2,1
4040.109,0.00101,-0.005859375,0.009765625,-0.005859375,-0.1328125,-0.0546875,9.71875,-0.001953125,0.00390625,0,0.005859375,-0.00390625,0,0.0001220703,-0.0003662109,-0.03381348,0,0,-0.03381348,0,4.077,0,0,0,0,nan,2,0.104,0,0,0,0,0,0,0,0,0,1,2,1
4040.119,0.001011,-0.00390625,0.009765625,-0.005859375,0.265625,0.0859375,9.6875,0,0.00390625,-0.0078125,0.005859375,-0.00390625,0,0.0001220703,-0.0003662109,-0.03381348,0,0,-0.03381348,0,4.077,0,0,0,0,nan,2,0.114,0,0,0,0,0,0,0,0,0,1,2,1
4040.129,0.001011,0.001953125,0.00390625,0.01367188,-0.34375,0.0625,9.617188,-0.001953125,-0.001953125,0.00390625,0.005859375,-0.00390625,0,0.0002441406,-0.0003662109,-0.03381348,0,0,-0.03381348,0,4.077,0,0,0,0,nan,2,0.124,0,0,0,0,0,0,0,0,0,1,2,1
4040.138,0.001011,0.00390625,-0.00390625,-0.001953125,0.2265625,-0.234375,9.851562,0.005859375,0.001953125,0,0.005859375,-0.00390625,0,0.0002441406,-0.0003662109,-0.03381348,0,0,-0.03381348,0,4.077,0,0,0,0,nan,2,0.133,0,0,0,0,0,0,0,0,0,1,2,1
4040.148,0.000984,0.00390625,-0.00390625,0.01757812,-0.171875,0.1953125,10,-0.001953125,-0.00390625,0.005859375,0.005859375,-0.00390625,0,0.0002441406,-0.0003662109,-0.03381348,0,0,-0.03381348,0,4.077,0,0,0,0,nan,2,0.143,0,0,0,0,0,0,0,0,0,1,2,1
4040.158,0.001063,0.001953125,0.005859375,-0.01171875,0.2734375,-0.125,9.992188,0.005859375,0.005859375,0.00390625,0.005859375,-0.00390625,0,0.0002441406,-0.0003662109,-0.03381348,0,0,-0.03381348,0,4.077,0,0,0,0,nan,2,0.154,0,0,0,0,0,0,0,0,0,1,2,1
4040.168,0.001034,-0.00390625,-0.0078125,-0.01367188,-0.15625,0.3359375,9.617188,-0.005859375,-0.00390625,-0.01171875,0.005859375,-0.00390625,0,0.0002441406,-0.0003662109,-0.03381348,0,0,-0.03381348,0,4.077,0,0,0,0,nan,2,0.164,0,0,0,0,0,0,0,0,0,1,2,1
4040.178,0.00101,-0.00390625,0.001953125,0.01757812,0.203125,-0.1640625,9.6875,0,0.00390625,0.009765625,0.005859375,-0.00390625,0,0.0002441406,-0.0003662109,-0.03381348,0,0,-0.03381348,0,4.077,0,0,0,0,nan,2,0.174,0,0,0,0,0,0,0,0,0,1,2,1
4040.188,0.000969,0,-0.005859375,-0.00390625,-0.171875,0.140625,9.65625,-0.001953125,-0.00390625,-0.00390625,0.005859375,-0.00390625,0,0.0002441406,-0.0003662109,-0.03381348,0,0,-0.03381348,0,4.077,0,0,0,0,nan,2,0.184,0,0,0,0,0,0,0,0,0,1,2,1
4040.198,0.001013,0.005859375,0.0078125,0.001953125,0.125,-0.125,9.929688,0.005859375,0.00390625,-0.001953125,0.005859375,-0.00390625,0,0.0002441406,-0.0003662109,-0.03381348,0,0,-0.03381348,0,4.077,0,0,0,0,nan,2,0.194,0,0,0,0,0,0,0,0,0,1,2,1
4040.209,0.001035,-0.0078125,-0.0078125,0.00390625,-0.078125,0.0078125,9.710938,-0.001953125,-0.00390625,0.005859375,0.005859375,-0.00390625,0,0.0002441406,-0.0003662109,-0.03381348,0,0,-0.03381348,0,4.077,0,0,0,0,nan,2,0.204,0,0,0,0,0,0,0,0,0,1,2,1
4040.219,0.001013,0.001953125,0.00390625,-0.009765625,0.03125,0.0625,9.773438,0.001953125,0.001953125,0,0.005859375,-0.00390625,0,0.0002441406,-0.0003662109,-0.03381348,0,0,-0.03381348,0,4.077,0,0,0,0,nan,2,0.214,0,0,0,0,0,0,0,0,0,1,2,1
4040.229,0.001023,-0.005859375,-0.00390625,-0.005859375,0.015625,0.0625,9.75,-0.001953125,-0.001953125,-0.00390625,0.005859375,-0.00390625,0,0.0002441406,-0.0003662109,-0.03381348,0,0,-0.03381348,0,4.077,0,0,0,0,nan,2,0.224,0,0,0,0,0,0,0,0,0,1,2,1
4040.238,0.001006,0.001953125,0.00390625,0.0078125,-0.0390625,0.015625,9.875,0,0.001953125,0.001953125,0.005859375,-0.00390625,0,0.0002441406,-0.0003662109,-0.03381348,0,0,-0.03381348,0,4.077,0,0,0,0,nan,2,0.233,0,0,0,0,0,0,0,0,0,1,2,1
4040.248,0.001013,0.00390625,-0.005859375,0.00390625,0.1328125,-0.0078125,9.804688,0.001953125,0,0.001953125,0.005859375,-0.00390625,0,0.0002441406,-0.0003662109,-0.03381348,0,0,-0.03381348,0,4.077,0,0,0,0,nan,2,0.243,0,0,0,0,0,0,0,0,0,1,2,1
4040.258,0.001023,0.001953125,0,0,-0.0546875,0.0390625,9.820312,0,0,0,0.005859375,-0.00390625,0,0.0002441406,-0.0003662109,-0.03381348,0,0,-0.03381348,0,4.077,0,0,0,0,nan,2,0.254,0,0,0,0,0,0,0,0,0,1,2,1
4040.268,0.001011,0,-0.001953125,-0.00390625,0.03125,-0.0078125,9.828125,0.001953125,0,0,0.005859375,-0.00390625,0,0.0002441406,-0.0003662109,-0.03381348,0,0,-0.03381348,0,4.077,0,0,0,0,nan,2,0.264,0,0,0,0,0,0,0,0,0,1,2,1
4040.278,0.001011,-0.00390625,0.001953125,0.001953125,-0.015625,0.0859375,9.78125,-0.001953125,0,0,0.005859375,-0.00390625,0,0.0002441406,-0.0003662109,-0.03381348,0,0,-0.03381348,0,4.077,0,0,0,0,nan,2,0.274,0,0,0,0,0,0,0,0,0,1,2,1
4040.288,0.001011,0,0,-0.001953125,0.0078125,-0.0625,9.851562,0,0,-0.001953125,0.005859375,-0.00390625,0,0.0003662109,-0.0003662109,-0.03381348,0,0,-0.03381348,0,4.077,0,0,0,0,nan,2,0.284,0,0,0,0,0,0,0,0,0,1,2,1
4040.299,0.001057,0,0,0.005859375,0,0.0546875,9.773438,0,0,0,0.005859375,-0.00390625,0,0.0002441406,-0.0003662109,-0.03381348,0,0,-0.03381348,0,4.077,0,0,0,0,nan,2,0.294,0,0,0,0,0,0,0,0,0,1,2,1
4040.309,0.000997,0,0,0.001953125,0.0703125,-0.015625,9.867188,0.001953125,0,0.001953125,0.005859375,-0.00390625,0,0.0003662109,-0.0003662109,-0.03381348,0,0,-0.03381348,0,4.077,0,0,0,0,nan,2,0.304,0,0,0,0,0,0,0,0,0,1,2,1
4040.319,0.001012,0,0,0,0.0234375,0.0078125,9.757812,0,-0.001953125,0.001953125,0.005859375,-0.00390625,0,0.0003662109,-0.0003662109,-0.03381348,0,0,-0.03381348,0,4.077,0,0,0,0,nan,2,0.314,0,0,0,0,0,0,0,0,0,1,2,1
4040.329,0.001012,0,0,-0.001953125,0.1015625,-0.0078125,9.84375,0,0,0,0.005859375,-0.00390625,0,0.0003662109,-0.0003662109,-0.03381348,0,0,-0.03381348,0,4.077,0,0,0,0,nan,2,0.324,0,0,0,0,0,0,0,0,0,1,2,1
4040.339,0.001051,-0.001953125,-0.001953125,-0.001953125,-0.0234375,0.09375,9.867188,-0.001953125,0,0,0.005859375,-0.00390625,0,0.0003662109,-0.0003662109,-0.03381348,0,0,-0.03381348,0,4.077,0,0,0,0,nan,2,0.334,0,0,0,0,0,0,0,0,0,1,2,1
4040.349,0.001009,0.00390625,0,0,0.0546875,0.03125,9.804688,0.001953125,0,0,0.005859375,-0.00390625,0,0.0003662109,-0.0003662109,-0.03381348,0,0,-0.03381348,0,4.077,0,0,0,0,nan,2,0.344,0,0,0,0,0,0,0,0,0,1,2,1
4040.358,0.000996,-0.001953125,-0.001953125,0.001953125,0,0.0078125,9.78125,0,0,0,0.005859375,-0.00390625,0,0.0003662109,-0.0003662109,-0.03381348,0,0,-0.03381348,0,4.077,0,0,0,0,nan,2,0.354,0,0,0,0,0,0,0,0,0,1,2,1
4040.368,0.000999,0,-0.001953125,0.00390625,0.0390625,-0.03125,9.804688,-0.001953125,-0.001953125,0.00390625,0.005859375,-0.00390625,0,0.0003662109,-0.0003662109,-0.03381348,0,0,-0.03381348,0,4.077,0,0,0,0,nan,2,0.364,0,0,0,0,0,0,0,0,0,1,2,1
4040.378,0.001008,0.001953125,0,-0.001953125,0,0.0078125,9.78125,0,0,0,0.005859375,-0.00390625,0,0.0003662109,-0.0003662109,-0.03381348,0,0,-0.03381348,0,4.077,0,0,0,0,nan,2,0.374,0,0,0,0,0,0,0,0,0,1,2,1
4040.388,0.001008,-0.001953125,0.00390625,0,0,-0.0234375,9.835938,-0.001953125,0.001953125,0,0.005859375,-0.00390625,0,0.0003662109,-0.0003662109,-0.03381348,0,0,-0.03381348,0,4.077,0,0,0,0,nan,2,0.384,0,0,0,0,0,0,0,0,0,1,2,1
4040.398,0.001008,-0.005859375,-0.001953125,-0.001953125,-0.015625,0.03125,9.8125,-0.001953125,0,0,0.005859375,-0.00390625,0,0.0003662109,-0.0003662109,-0.03381348,0,0,-0.03381348,0,4.077,0,0,0,0,nan,2,0.394,0,0,0,0,0,0,0,0,0,1,2,1
4040.408,0.001008,0,-0.001953125,0,0.03125,0.0390625,9.8125,0,-0.001953125,0,0.005859375,-0.00390625,0,0.0003662109,-0.0004882812,-0.03381348,0,0,-0.03381348,0,4.077,0,0,0,0,nan,2,0.404,0,0,0,0,0,0,0,0,0,1,2,1
4040.419,0.001008,0.001953125,-0.001953125,0.00390625,0.0390625,0.015625,9.835938,0,0,0.001953125,0.005859375,-0.00390625,0,0.0003662109,-0.0004882812,-0.03381348,0,0,-0.03381348,0,4.077,0,0,0,0,nan,2,0.414,0,0,0,0,0,0,0,0,0,1,2,1
4040.429,0.001008,0.001953125,0,0,-0.0078125,0.0390625,9.851562,0,-0.001953125,0,0.005859375,-0.00390625,0,0.0003662109,-0.0004882812,-0.03381348,0,0,-0.03381348,0,4.077,0,0,0,0,nan,2,0.424,0,0,0,0,0,0,0,0,0,1,2,1
4040.439,0.001008,0,-0.001953125,0.001953125,0,0.0390625,9.78125,0.001953125,0,0,0.005859375,-0.00390625,0,0.0003662109,-0.0004882812,-0.03381348,0,0,-0.03381348,0,4.077,0,0,0,0,nan,2,0.434,0,0,0,0,0,0,0,0,0,1,2,1
4040.448,0.00101,-0.001953125,0,0,-0.0078125,0.0234375,9.796875,0,0,0.001953125,0.005859375,-0.00390625,0,0.0003662109,-0.0004882812,-0.03369141,0,0,-0.03369141,0,4.077,0,0,0,0,nan,2,0.443,0,0,0,0,0,0,0,0,0,1,2,1
4040.458,0.00105,0.001953125,0,-0.001953125,0,0.0234375,9.859375,0,0,0,0.005859375,-0.00390625,0,0.0003662109,-0.0004882812,-0.03369141,0,0,-0.03369141,0,4.077,0,0,0,0,nan,2,0.454,0,0,0,0,0,0,0,0,0,1,2,1
4040.468,0.001002,-0.001953125,-0.001953125,0,0.0234375,0,9.835938,0,0,0.001953125,0.005859375,-0.00390625,0,0.0003662109,-0.0004882812,-0.03369141,0,0,-0.03369141,0,4.077,0,0,0,0,nan,2,0.464,0,0,0,0,0,0,0,0,0,1,2,1
4040.478,0.001012,0.001953125,-0.001953125,0,0.0078125,0.0078125,9.8125,0.001953125,-0.001953125,0,0.005859375,-0.00390625,0,0.0003662109,-0.0004882812,-0.03369141,0,0,-0.03369141,0,4.077,0,0,0,0,nan,2,0.474,0,0,0,0,0,0,0,0,0,1,2,1
4040.489,0.001023,0,0.001953125,0,0.015625,-0.015625,9.757812,0,0,0.001953125,0.005859375,-0.00390625,0,0.0003662109,-0.0004882812,-0.03369141,0,0,-0.03369141,0,4.077,0,0,0,0,nan,2,0.484,0,0,0,0,0,0,0,0,0,1,2,1
4040.499,0.001052,0,-0.005859375,0.001953125,0.0859375,0.015625,9.84375,0,-0.001953125,0.001953125,0.005859375,-0.00390625,0,0.0003662109,-0.0004882812,-0.03369141,0,0,-0.03369141,0,4.077,0,0,0,0,nan,2,0.494,0,0,0,0,0,0,0,0,0,1,2,1
4040.509,0.001014,0.001953125,-0.00390625,0.001953125,0.015625,-0.0234375,9.835938,0.001953125,-0.001953125,0,0.005859375,-0.00390625,0,0.0004882812,-0.0004882812,-0.03369141,0,0,-0.03369141,0,4.077,0,0,0,0,nan,2,0.504,0,0,0,0,0,0,0,0,0,1,2,1
4040.519,0.001058,-0.001953125,0,0,0,0.0234375,9.789062,0,0,-0.001953125,0.005859375,-0.00390625,0,0.0004882812,-0.0004882812,-0.03369141,0,0,-0.03369141,0,4.077,0,0,0,0,nan,2,0.514,0,0,0,0,0,0,0,0,0,1,2,1
