t,dt_s,gyro_x,gyro_y,gyro_z,acc_x,acc_y,acc_z,rates.x,rates.y,rates.z,ratesTarget.x,ratesTarget.y,ratesTarget.z,attitude.x,attitude.y,attitude.z,attitudeTarget.x,attitudeTarget.y,attitudeTarget.z,thrustTarget,battery_v,rc_roll,rc_pitch,rc_yaw,rc_throttle,rc_mode,flight_mode,rc_age_s,armed,fault_mask,motor_rl,motor_rr,motor_fr,motor_fl,rate_i_x,rate_i_y,rate_i_z,mix_scale,control_source,accel_correction_confidence
40.896,0.000975,0.005859375,0.04101562,-0.0234375,2.796875,-1.007812,7.5625,0.005859375,0,-0.009765625,0.06445312,-0.01367188,0,-0.01062012,0.002197266,-0.1435547,0,0,-0.001342773,0.3105164,4.013,0,0,0,0.2999878,nan,4,9.441,1,128,0.3032837,0.2888794,0.2915649,0.3583984,0.01757812,-0.01171875,0.0009765625,1,3,0
40.906,0.001022,-0.03710938,-0.0625,-0.009765625,1.21875,2.789062,9.4375,0.005859375,-0.01367188,0.001953125,0.06445312,-0.015625,0,-0.01062012,0.002441406,-0.1436768,0,0,-0.001342773,0.3105164,4.013,0,0,0,0.2999878,nan,4,9.452,1,128,0.3351746,0.2752686,0.2987061,0.3329773,0.01757812,-0.01171875,0.0009765625,1,3,0.3968254
40.916,0.001051,0.0234375,-0.02734375,-0.02148438,2.296875,2.609375,12.61719,0.0078125,-0.0078125,-0.00390625,0.06445312,-0.01367188,0,-0.01074219,0.002319336,-0.1435547,0,0,-0.001342773,0.3105164,4.013,0,0,0,0.2999878,nan,4,9.462,1,128,0.2992554,0.2974243,0.2875061,0.3579407,0.01757812,-0.01171875,0.0009765625,1,3,0
40.926,0.001001,0.03320312,0.08203125,0.03320312,0.0859375,4.710938,12.47656,0.001953125,0.05078125,0.0234375,0.06445312,-0.015625,0,-0.01074219,0.002563477,-0.1434326,0,0,-0.001342773,0.3105164,4.013,0,0,0,0.2999878,nan,4,9.472,1,128,0.3340454,0.2444458,0.3362732,0.3273621,0.01855469,-0.01171875,0.0009765625,1,3,0
40.936,0.001013,-0.01171875,-0.02539062,0.00390625,0.1171875,1.695312,12.58594,-0.02929688,0.00390625,0.02148438,0.06640625,-0.015625,0,-0.01098633,0.002563477,-0.1431885,0,0,-0.001342773,0.3105164,4.013,0,0,0,0.2999878,nan,4,9.482,1,128,0.3265991,0.2703857,0.2997131,0.3453979,0.01855469,-0.01171875,0.0009765625,1,3,0
40.946,0.001007,0.0078125,-0.0390625,0.001953125,-1.546875,2.875,11.04688,-0.0078125,0.001953125,0.01171875,0.06640625,-0.01757812,0,-0.01098633,0.002807617,-0.1430664,0,0,-0.001342773,0.3105164,4.013,0,0,0,0.2999878,nan,4,9.492,1,128,0.3121948,0.2893372,0.2842712,0.3562927,0.01855469,-0.01171875,0.0009765625,1,3,0
40.955,0.001007,-0.08789062,-0.1132812,0.01757812,1.828125,4.359375,12.57812,-0.0390625,-0.03320312,0.03515625,0.06640625,-0.01757812,0,-0.0111084,0.003051758,-0.1428223,0,0,-0.001342773,0.3105164,4.013,0,0,0,0.2999878,nan,4,9.501,1,128,0.3643188,0.2587891,0.3002625,0.3187561,0.01855469,-0.01171875,0.0009765625,1,3,0
40.965,0.001008,0.06445312,0.05664062,0.03320312,-1.546875,2.054688,12.0625,0.03710938,0.01953125,0.01367188,0.06835938,-0.01757812,0,-0.01123047,0.002929688,-0.1427002,0,0,-0.001342773,0.3105164,4.013,0,0,0,0.2999878,nan,4,9.511,1,128,0.3102722,0.2734375,0.3237915,0.3345947,0.01855469,-0.01171875,0.0009765625,1,3,0
40.976,0.000977,0.05273438,-0.03125,-0.01757812,-1.6875,4.367188,12.5625,0.0234375,-0.01171875,-0.005859375,0.06640625,-0.01757812,0,-0.01098633,0.002807617,-0.1427002,0,0,-0.001342773,0.3105164,4.013,0,0,0,0.2999878,nan,4,9.521,1,128,0.2993164,0.2992554,0.2804871,0.3630371,0.01855469,-0.01171875,0.0009765625,1,3,0
40.986,0.001031,0.04101562,0.0078125,-0.01367188,-3.398438,3.242188,14.875,0.001953125,-0.009765625,-0.00390625,0.06445312,-0.015625,0,-0.01086426,0.002685547,-0.1427002,0,0,-0.001342773,0.3105164,4.013,0,0,0,0.2999878,nan,4,9.531,1,128,0.3102722,0.2828979,0.2921753,0.3567505,0.01855469,-0.01171875,0.0009765625,1,3,0
40.996,0.00103,0.0078125,-0.00390625,-0.0390625,-1.523438,-0.6875,11.55469,0.01171875,-0.02734375,-0.03320312,0.06445312,-0.015625,0,-0.01086426,0.002563477,-0.1428223,0,0,-0.001342773,0.3105164,4.013,0,0,0,0.2999878,nan,4,9.541,1,128,0.2902527,0.3158875,0.2627869,0.3731689,0.01855469,-0.01171875,0.0009765625,1,3,0
41.006,0.001004,-0.03710938,-0.03710938,-0.03710938,0.359375,-3.328125,8.429688,-0.02929688,-0.01953125,-0.02929688,0.06640625,-0.01367188,0,-0.01098633,0.002441406,-0.1431885,0,0,-0.001342773,0.3105164,4.013,0,0,0,0.2999878,nan,4,9.552,1,128,0.3120117,0.2880554,0.2769775,0.3650818,0.01855469,-0.01171875,0.0009765625,1,3,0
41.016,0.001003,0.03320312,-0.04882812,-0.01367188,1.71875,-4.046875,5.34375,0.00390625,-0.02148438,-0.0234375,0.06640625,-0.01367188,0,-0.01098633,0.002441406,-0.1434326,0,0,-0.001342773,0.3105164,4.013,0,0,0,0.2999878,nan,4,9.562,1,128,0.3244324,0.2843933,0.2941589,0.3391113,0.01855469,-0.01171875,0.0009765625,1,3,0
41.026,0.001003,0.02148438,0.03320312,-0.03710938,2.921875,2.101562,8.289062,0.0390625,0.01757812,-0.02539062,0.06640625,-0.01367188,0,-0.01098633,0.002441406,-0.1436768,0,0,-0.001342773,0.3105164,4.013,0,0,0,0.2999878,nan,4,9.572,1,128,0.2947388,0.2920837,0.299469,0.3558044,0.01855469,-0.01171875,0.0009765625,1,3,0
41.036,0.001013,0.01757812,-0.01171875,-0.03515625,-0.78125,2.039062,12.03125,-0.01367188,-0.01171875,-0.02929688,0.06640625,-0.01367188,0,-0.01098633,0.002319336,-0.1439209,0,0,-0.001342773,0.3105164,4.013,0,0,0,0.2999878,nan,4,9.582,1,128,0.3110046,0.2878418,0.282196,0.3610535,0.01855469,-0.01171875,0.0009765625,1,3,0
41.046,0.001004,-0.01367188,-0.02148438,-0.02929688,-1.671875,3.804688,13.96094,0.00390625,0.01367188,-0.03710938,0.06640625,-0.01367188,0,-0.01086426,0.002441406,-0.1442871,0,0,-0.001342773,0.3105164,4.013,0,0,0,0.2999878,nan,4,9.592,1,128,0.3022156,0.2886963,0.2869568,0.3642273,0.01855469,-0.01171875,0.0009765625,1,3,0
41.055,0.001017,0.08007812,0.02929688,-0.02734375,-3.585938,-0.4765625,11.07031,0.02148438,0.009765625,-0.02929688,0.06640625,-0.015625,0,-0.01086426,0.002441406,-0.1446533,0,0,-0.001342773,0.3105164,4.013,0,0,0,0.2999878,nan,4,9.601,1,128,0.3103333,0.2833862,0.3031921,0.3452148,0.01855469,-0.01171875,0.0009765625,1,3,0
41.065,0.001017,-0.06445312,0.001953125,-0.02148438,1.492188,-4.453125,6.914062,-0.04296875,-0.001953125,-0.02539062,0.06640625,-0.015625,0,-0.01098633,0.002563477,-0.1448975,0,0,-0.001342773,0.3105164,4.013,0,0,0,0.2999878,nan,4,9.611,1,128,0.3268738,0.2717896,0.2851868,0.3582764,0.01855469,-0.01171875,0.0009765625,1,3,0
41.076,0.001017,-0.04101562,0.001953125,-0.02539062,1.453125,1.445312,8.929688,0,0.04492188,-0.02148438,0.06640625,-0.01757812,0,-0.01098633,0.002807617,-0.1450195,0,0,-0.001342773,0.3105164,4.013,0,0,0,0.2999878,nan,4,9.621,1,128,0.3036194,0.2820129,0.2932739,0.3631592,0.01953125,-0.01171875,0.0009765625,1,3,0
41.086,0.001016,0.03710938,-0.001953125,-0.01953125,1.4375,2.320312,11.86719,-0.0078125,0.009765625,-0.01757812,0.06640625,-0.01757812,0,-0.0111084,0.003051758,-0.1452637,0,0,-0.001342773,0.3105164,4.013,0,0,0,0.2999878,nan,4,9.631,1,128,0.3157043,0.2832031,0.2909851,0.3522034,0.01953125,-0.01171875,0.0009765625,1,3,0
41.096,0.001017,-0.01367188,0.00390625,0.00390625,-1.476562,5.773438,11.99219,0.01171875,0.03320312,-0.005859375,0.06640625,-0.01953125,0,-0.0111084,0.003295898,-0.1453857,0,0,-0.001342773,0.3105164,4.013,0,0,0,0.2999878,nan,4,9.641,1,128,0.3305359,0.2579041,0.3208618,0.3327942,0.01953125,-0.01171875,0.0009765625,1,3,0
41.106,0.001017,0.09375,0.046875,0,-2.492188,-0.125,12.88281,0.03125,0.015625,-0.001953125,0.06640625,-0.01953125,0,-0.0111084,0.003295898,-0.1453857,0,0,-0.001342773,0.3105164,4.013,0,0,0,0.2999878,nan,4,9.652,1,128,0.3074036,0.2811584,0.3104553,0.3431091,0.01953125,-0.01171875,0.0009765625,1,3,0
41.116,0.001038,-0.1289062,0.1035156,0.015625,-1.859375,-3.109375,9.578125,-0.03515625,0.03320312,0.0078125,0.06640625,-0.02148438,0,-0.01098633,0.003540039,-0.1453857,0,0,-0.001342773,0.3105164,4.013,0,0,0,0.2999878,nan,4,9.662,1,128,0.343689,0.237915,0.3164673,0.3440247,0.01953125,-0.01171875,0.0009765625,1,3,0.1111111
41.126,0.000979,0.06640625,-0.01757812,0.005859375,0.4453125,-2.515625,10.14062,-0.02148438,0,0.01367188,0.06640625,-0.02148438,0,-0.01123047,0.003662109,-0.1452637,0,0,-0.001342773,0.3105164,4.013,0,0,0,0.2999878,nan,4,9.672,1,128,0.3224792,0.2772217,0.29599,0.3464355,0.01953125,-0.01171875,0.0009765625,1,3,0
41.135,0.001034,-0.04882812,-0.1054688,0.001953125,-2.335938,-5.625,7.460938,-0.00390625,-0.01367188,0.01367188,0.06640625,-0.0234375,0,-0.0111084,0.00378418,-0.1451416,0,0,-0.001342773,0.3105164,4.013,0,0,0,0.2999878,nan,4,9.681,1,128,0.3272705,0.2755737,0.2950134,0.3442383,0.01953125,-0.01171875,0.0009765625,1,3,0.5396826
41.145,0.000984,-0.046875,-0.06835938,0.01367188,0.0078125,-5.1875,5.71875,-0.03320312,-0.005859375,0.01757812,0.06835938,-0.02148438,0,-0.01135254,0.003540039,-0.1448975,0,0,-0.001342773,0.3105164,4.013,0,0,0,0.2999878,nan,4,9.691,1,128,0.3283081,0.2658386,0.2954407,0.3525391,0.01953125,-0.01171875,0.0009765625,1,3,0
41.155,0.001002,0.0703125,0.02539062,-0.015625,1.054688,-4.75,7.742188,0.05273438,-0.001953125,-0.005859375,0.06640625,-0.02148438,0,-0.01098633,0.003417969,-0.1448975,0,0,-0.001342773,0.3105164,4.013,0,0,0,0.2999878,nan,4,9.701,1,128,0.2789001,0.3121948,0.2773132,0.3736877,0.01953125,-0.01171875,0.0009765625,1,3,0
41.165,0.001001,-0.03320312,-0.00390625,0.02929688,2.820312,-2.625,6.226562,-0.015625,0.005859375,0.00390625,0.06640625,-0.02148438,0,-0.01098633,0.003417969,-0.1448975,0,0,-0.001342773,0.3105164,4.013,0,0,0,0.2999878,nan,4,9.711,1,128,0.3434753,0.2484131,0.3167114,0.3335266,0.01953125,-0.01171875,0.0009765625,1,3,0
41.176,0.001001,0.04101562,0.0703125,-0.009765625,0.9140625,1.304688,8.390625,0.0234375,0.03515625,0.00390625,0.06640625,-0.02148438,0,-0.01098633,0.003540039,-0.1447754,0,0,-0.001342773,0.3105164,4.01,0,0,0,0.2999878,nan,4,9.721,1,128,0.2997437,0.2815552,0.3032532,0.3575134,0.01953125,-0.01171875,0.0009765625,1,3,0
41.186,0.001009,-0.07226562,0.04882812,0.02734375,1.773438,3.242188,11.92969,-0.03710938,0.0078125,0.01367188,0.06640625,-0.02148438,0,-0.0111084,0.00378418,-0.1447754,0,0,-0.001342773,0.3105164,4.01,0,0,0,0.2999878,nan,4,9.731,1,128,0.3439026,0.2495422,0.3051758,0.3434753,0.01953125,-0.01171875,0.0009765625,1,3,0
41.196,0.001009,0.04101562,-0.04882812,0.00390625,-0.2109375,3.03125,11.53906,0.001953125,0.009765625,0.02148438,0.06835938,-0.0234375,0,-0.01135254,0.00378418,-0.1445312,0,0,-0.001342773,0.3105164,4.01,0,0,0,0.2999878,nan,4,9.741,1,128,0.3173828,0.2782898,0.3018799,0.344574,0.01953125,-0.01171875,0.0009765625,1,3,0
41.206,0.001009,-0.04101562,0.1269531,0.00390625,-1.53125,5.765625,11.3125,-0.001953125,0.015625,0.005859375,0.06835938,-0.02148438,0,-0.01135254,0.00378418,-0.1444092,0,0,-0.001342773,0.3105164,4.01,0,0,0,0.2999878,nan,4,9.752,1,128,0.3045959,0.2751465,0.2958069,0.3665466,0.01953125,-0.01171875,0.0009765625,1,3,0
41.216,0.000999,0.01757812,0.03320312,-0.0078125,-2.164062,2.890625,12.69531,-0.00390625,0.02539062,0.001953125,0.0703125,-0.02539062,0,-0.01159668,0.004150391,-0.1444092,0,0,-0.001342773,0.3105164,4.01,0,0,0,0.2999878,nan,4,9.762,1,128,0.3085632,0.2831421,0.2935181,0.3569031,0.02050781,-0.01269531,0.0009765625,1,3,0
41.226,0.001006,-0.09765625,0.02539062,-0.02929688,-2.875,1.210938,12.85156,-0.0234375,0.1035156,-0.02734375,0.06835938,-0.02929688,0,-0.01147461,0.004760742,-0.1445312,0,0,-0.001342773,0.3105164,4.01,0,0,0,0.2999878,nan,4,9.772,1,128,0.2833557,0.283905,0.2711487,0.403717,0.02050781,-0.01269531,0.0009765625,1,3,0
41.236,0.00101,0.03710938,-0.0234375,-0.015625,-0.8515625,-1.148438,9.15625,0,0.001953125,-0.01367188,0.0703125,-0.02929688,0,-0.01159668,0.005004883,-0.1446533,0,0,-0.001342773,0.3105164,4.01,0,0,0,0.2999878,nan,4,9.782,1,128,0.319458,0.2815247,0.2948608,0.3462524,0.02050781,-0.01269531,0.0009765625,1,3,0
41.246,0.000999,-0.015625,-0.0546875,-0.00390625,-0.25,-7.234375,6.492188,0.00390625,-0.03515625,-0.01757812,0.0703125,-0.02929688,0,-0.01159668,0.004882812,-0.1448975,0,0,-0.001342773,0.3105164,4.01,0,0,0,0.2999878,nan,4,9.792,1,128,0.3285522,0.276825,0.2967224,0.3400269,0.02050781,-0.01269531,0.0009765625,1,3,0.7301587
41.256,0.001009,0.0078125,0.001953125,-0.04296875,2.632812,-1.007812,6.53125,-0.005859375,-0.01171875,-0.02734375,0.0703125,-0.02734375,0,-0.01171875,0.004638672,-0.1451416,0,0,-0.001342773,0.3105164,4.01,0,0,0,0.2999878,nan,4,9.802,1,128,0.2930603,0.2987366,0.2731323,0.3771667,0.02050781,-0.01269531,0.0009765625,1,3,0
41.265,0.001008,-0.01367188,-0.04296875,-0.02539062,2.15625,-0.953125,7.859375,0.0078125,-0.01367188,-0.02539062,0.0703125,-0.02734375,0,-0.01159668,0.004638672,-0.1453857,0,0,-0.001342773,0.3105164,4.01,0,0,0,0.2999878,nan,4,9.811,1,128,0.3145142,0.2843323,0.2884216,0.3548584,0.02050781,-0.01269531,0.0009765625,1,3,0
41.275,0.00101,0.01171875,0.02929688,-0.03710938,-1.03125,4.78125,15.85938,0.02539062,0.009765625,-0.03320312,0.0703125,-0.02734375,0,-0.01159668,0.004516602,-0.1456299,0,0,-0.001342773,0.3105164,4.01,0,0,0,0.2999878,nan,4,9.821,1,128,0.2867737,0.2976074,0.2854004,0.372345,0.02050781,-0.01269531,0.0009765625,1,3,0
41.286,0.00101,0.01953125,0.05273438,0.001953125,-2.976562,3.757812,13.41406,-0.005859375,0.00390625,-0.0078125,0.0703125,-0.02734375,0,-0.01159668,0.004516602,-0.145874,0,0,-0.001342773,0.3105164,4.01,0,0,0,0.2999878,nan,4,9.831,1,128,0.3415527,0.2480774,0.3218689,0.3305969,0.02050781,-0.01269531,0.0009765625,1,3,0
41.296,0.001003,0.005859375,-0.04492188,-0.00390625,-1.351562,-5.203125,9.109375,0.001953125,-0.001953125,-0.009765625,0.0703125,-0.02734375,0,-0.01159668,0.004516602,-0.145874,0,0,-0.001342773,0.3105164,4.01,0,0,0,0.2999878,nan,4,9.841,1,128,0.318634,0.2738953,0.2970276,0.3525391,0.02050781,-0.01269531,0.0009765625,1,3,0
41.306,0.001045,-0.07226562,0.01757812,0.001953125,0.2734375,-5.90625,3.742188,-0.06640625,0.01171875,-0.005859375,0.0703125,-0.02734375,0,-0.01184082,0.004394531,-0.1459961,0,0,-0.001342773,0.3105164,4.01,0,0,0,0.2999878,nan,4,9.852,1,128,0.33255,0.2533569,0.2938843,0.3623047,0.02050781,-0.01269531,0.0009765625,1,3,0
41.316,0.001024,0.02734375,0.00390625,-0.00390625,1.796875,-1.953125,7.914062,0.01757812,0.01953125,-0.001953125,0.07226562,-0.02734375,0,-0.01196289,0.004516602,-0.1459961,0,0,-0.001342773,0.3105164,4.01,0,0,0,0.2999878,nan,4,9.862,1,128,0.3143005,0.2729492,0.3075867,0.347229,0.02050781,-0.01269531,0.0009765625,1,3,0
41.326,0.001089,-0.07421875,-0.04101562,0.015625,2.078125,-2.109375,6.429688,-0.04101562,-0.01953125,0.01757812,0.07226562,-0.02539062,0,-0.01196289,0.004394531,-0.145874,0,0,-0.001342773,0.3105164,4.01,0,0,0,0.2999878,nan,4,9.872,1,128,0.3500977,0.2475586,0.3072815,0.3371887,0.02050781,-0.01269531,0.0009765625,1,3,0
41.336,0.001005,0.04882812,-0.04296875,-0.0078125,2.34375,1.5,7.304688,0.0234375,0.00390625,-0.001953125,0.07226562,-0.02539062,0,-0.01208496,0.004272461,-0.145874,0,0,-0.001342773,0.3105164,4.01,0,0,0,0.2999878,nan,4,9.882,1,128,0.2944031,0.29599,0.2877197,0.3639832,0.02050781,-0.01269531,0.0009765625,1,3,0
41.346,0.001015,0.01171875,0.02734375,0,1.101562,3.6875,11.44531,0.009765625,0.015625,-0.005859375,0.0703125,-0.02539062,0,-0.01184082,0.004394531,-0.145874,0,0,-0.001342773,0.3105164,4.01,0,0,0,0.2999878,nan,4,9.892,1,128,0.3184814,0.2677002,0.3009338,0.3549805,0.02050781,-0.01269531,0.0009765625,1,3,0
41.355,0.001009,0.0859375,-0.0078125,-0.005859375,1.492188,3.007812,12.69531,0.01171875,0.00390625,-0.01171875,0.07226562,-0.02734375,0,-0.01184082,0.004394531,-0.1459961,0,0,-0.001342773,0.3105164,4.01,0,0,0,0.2999878,nan,4,9.901,1,128,0.3126831,0.2813721,0.2966919,0.3513489,0.02148438,-0.01269531,0.0009765625,1,3,0
41.365,0.001009,-0.04882812,-0.00390625,-0.009765625,-0.46875,6.734375,13.71094,0.00390625,0.015625,-0.009765625,0.0703125,-0.02734375,0,-0.01171875,0.004516602,-0.1461182,0,0,-0.001342773,0.3105164,4.01,0,0,0,0.2999878,nan,4,9.911,1,128,0.3252258,0.2649231,0.3026123,0.3493347,0.02148438,-0.01269531,0.0009765625,1,3,0
41.376,0.001009,0.03125,0.046875,-0.0234375,-3.015625,-0.75,10.82812,0.01171875,0.0078125,-0.01757812,0.0703125,-0.02734375,0,-0.01171875,0.004516602,-0.1462402,0,0,-0.001342773,0.3105164,4.01,0,0,0,0.2999878,nan,4,9.921,1,128,0.2955933,0.2918701,0.2835999,0.3710632,0.02148438,-0.01269531,0.0009765625,1,3,0
41.386,0.001009,-0.01171875,0.001953125,-0.015625,-1.15625,-3.125,11.59375,-0.02929688,0.0078125,-0.015625,0.0703125,-0.02734375,0,-0.01184082,0.004638672,-0.1463623,0,0,-0.001342773,0.3105164,4.01,0,0,0,0.2999878,nan,4,9.931,1,128,0.3205566,0.2723694,0.2879028,0.3612671,0.02148438,-0.01269531,0.0009765625,1,3,0
41.396,0.001009,0.01757812,0.09375,-0.015625,-0.5234375,-3.90625,7.632812,0.01367188,0.03125,-0.01953125,0.07226562,-0.02734375,0,-0.01196289,0.004638672,-0.1466064,0,0,-0.001342773,0.3105164,4.01,0,0,0,0.2999878,nan,4,9.941,1,128,0.3010254,0.2763062,0.303009,0.3617554,0.02148438,-0.01269531,0.0009765625,1,3,0
41.406,0.001009,-0.0546875,-0.03320312,-0.0078125,2.53125,-4.460938,7.203125,-0.015625,-0.01953125,-0.005859375,0.07226562,-0.02734375,0,-0.01196289,0.004638672,-0.1467285,0,0,-0.001342773,0.3105164,4.01,0,0,0,0.2999878,nan,4,9.951,1,128,0.3365784,0.2631531,0.2970886,0.3452759,0.02148438,-0.01269531,0.0009765625,1,3,0
41.416,0.001011,0.1074219,0.03125,-0.01367188,1.375,-0.1171875,5.953125,0.04492188,-0.02734375,-0.009765625,0.07226562,-0.02539062,0,-0.01196289,0.004394531,-0.1468506,0,0,-0.001342773,0.3105164,4.01,0,0,0,0.2999878,nan,4,9.962,1,128,0.305603,0.2896423,0.3027649,0.3441162,0.02148438,-0.01269531,0.0009765625,1,3,0
41.426,0.001014,-0.0703125,-0.04492188,0.02539062,1.882812,2.257812,11.05469,-0.0234375,-0.01953125,0.00390625,0.07226562,-0.02539062,0,-0.01196289,0.004272461,-0.1468506,0,0,-0.001342773,0.3105164,4.01,0,0,0,0.2999878,nan,4,9.972,1,128,0.3570557,0.2394104,0.3146362,0.3309937,0.02148438,-0.01269531,0.0009765625,1,3,0
41.436,0.001019,-0.0234375,0.001953125,0.005859375,0.296875,3.203125,11.66406,-0.009765625,0.0234375,0.009765625,0.07226562,-0.02539062,0,-0.01208496,0.004272461,-0.1467285,0,0,-0.001342773,0.3105164,4.01,0,0,0,0.2999878,nan,4,9.982,1,128,0.3136292,0.2672119,0.3001709,0.361084,0.02148438,-0.01269531,0.0009765625,1,3,0
41.446,0.001002,-0.01367188,-0.009765625,0.01757812,-0.640625,5.1875,10.98438,0.00390625,-0.005859375,0.00390625,0.07226562,-0.02539062,0,-0.01220703,0.004394531,-0.1467285,0,0,-0.001342773,0.3105164,4.01,0,0,0,0.2999878,nan,4,9.992,1,128,0.3262939,0.2739868,0.3008118,0.3410339,0.02148438,-0.01269531,0.0009765625,1,3,0
41.455,0.00096,0.03320312,-0.015625,-0.009765625,0.140625,3.367188,12.98438,0.009765625,-0.001953125,0.009765625,0.07421875,-0.02539062,0,-0.0123291,0.004272461,-0.1466064,0,0,-0.001342773,0.3105164,4.01,0,0,0,0.2999878,nan,4,10.001,1,128,0.3156128,0.276886,0.3001404,0.3494568,0.02148438,-0.01269531,0.0009765625,1,3,0
41.465,0.000995,-0.04296875,-0.02539062,0,-1.6875,4.078125,14.78906,0.02539062,-0.01367188,-0.01171875,0.0703125,-0.02539062,0,-0.01184082,0.004150391,-0.1467285,0,0,-0.001342773,0.3105164,4.01,0,0,0,0.2999878,nan,4,10.011,1,128,0.3106995,0.2854004,0.2810059,0.3649597,0.02148438,-0.01269531,0.0009765625,1,3,0
41.475,0.00101,-0.08203125,0.01171875,-0.009765625,-2.828125,-0.4296875,8.78125,-0.02929688,-0.009765625,-0.005859375,0.07226562,-0.0234375,0,-0.01196289,0.00402832,-0.1467285,0,0,-0.001342773,0.3105164,4.01,0,0,0,0.2999878,nan,4,10.021,1,128,0.3223877,0.2666626,0.2875366,0.3655396,0.02148438,-0.01269531,0.0009765625,1,3,0
41.486,0.001051,-0.02539062,-0.009765625,-0.02148438,0.1796875,-5.609375,8.117188,-0.005859375,0.0078125,-0.01757812,0.07226562,-0.0234375,0,-0.01196289,0.00402832,-0.1468506,0,0,-0.001342773,0.3105164,4.01,0,0,0,0.2999878,nan,4,10.031,1,128,0.2993774,0.2884827,0.276123,0.3781433,0.02246094,-0.01269531,0.0009765625,1,3,0.2222222
41.496,0.001027,0.015625,0.01953125,0.0078125,1.226562,-3.484375,9.304688,0.005859375,0.02148438,-0.00390625,0.07226562,-0.02539062,0,-0.01196289,0.004150391,-0.1469727,0,0,-0.001342773,0.3105164,4.01,0,0,0,0.2999878,nan,4,10.041,1,128,0.3271179,0.2576599,0.3137817,0.3435669,0.02246094,-0.01269531,0.0009765625,1,3,0.5555556
41.506,0.000958,0.01757812,-0.01757812,-0.02148438,2.226562,-0.1640625,5.523438,0.0390625,-0.009765625,-0.001953125,0.07226562,-0.0234375,0,-0.01196289,0.00402832,-0.1468506,0,0,-0.001342773,0.3105164,4.01,0,0,0,0.2999878,nan,4,10.051,1,128,0.3087158,0.2871094,0.2958069,0.3504639,0.02246094,-0.01269531,0.0009765625,1,3,0
41.516,0.001049,0.0546875,0.03125,0.0234375,2.78125,-0.265625,10.39062,0.00390625,0.02734375,0.00390625,0.07226562,-0.02539062,0,-0.01196289,0.004150391,-0.1469727,0,0,-0.001342773,0.3105164,4.01,0,0,0,0.2999878,nan,4,10.062,1,128,0.3335266,0.2477417,0.3238525,0.3370056,0.02246094,-0.01269531,0.0009765625,1,3,0
41.526,0.001035,0.0078125,-0.07226562,0.00390625,0.4765625,3.554688,11.88281,0,0.0078125,-0.00390625,0.07226562,-0.02539062,0,-0.01196289,0.004272461,-0.1469727,0,0,-0.001342773,0.3105164,4.01,0,0,0,0.2999878,nan,4,10.072,1,128,0.3163757,0.2781677,0.2912903,0.3562927,0.02246094,-0.01269531,0.0009765625,1,3,0
41.536,0.001019,0.02539062,-0.03710938,-0.005859375,-0.28125,6.257812,13.07812,0.005859375,-0.015625,-0.00390625,0.0703125,-0.02539062,0,-0.01184082,0.004150391,-0.1469727,0,0,-0.001342773,0.3105164,4.01,0,0,0,0.2999878,nan,4,10.082,1,128,0.3193665,0.2750549,0.2907715,0.3569031,0.02246094,-0.01269531,0.0009765625,1,3,0
41.545,0.001044,0.0546875,0.04101562,-0.0390625,-1.65625,1.945312,11.60156,0.03320312,0.0234375,-0.01367188,0.0703125,-0.02539062,0,-0.01171875,0.004394531,-0.1470947,0,0,-0.001342773,0.3105164,4.01,0,0,0,0.2999878,nan,4,10.091,1,128,0.2907104,0.293457,0.2889404,0.368988,0.02246094,-0.01269531,0.0009765625,1,3,0
41.556,0.001027,0.0390625,-0.005859375,-0.02539062,-1.773438,-0.2421875,13.35938,-0.001953125,0.02148438,-0.03515625,0.0703125,-0.02734375,0,-0.01171875,0.004760742,-0.1474609,0,0,-0.001342773,0.3105164,4.01,0,0,0,0.2999878,nan,4,10.102,1,128,0.3085022,0.2839966,0.2813416,0.3682861,0.02246094,-0.01367188,0.0009765625,1,3,0
41.565,0.001004,0.05859375,-0.0390625,-0.02929688,-1.882812,-0.59375,10.95312,0.01171875,-0.01367188,-0.03515625,0.0703125,-0.02734375,0,-0.01184082,0.004638672,-0.1477051,0,0,-0.001342773,0.3105164,4.01,0,0,0,0.2999878,nan,4,10.111,1,128,0.3093262,0.2894287,0.288269,0.355072,0.02246094,-0.01367188,0.0009765625,1,3,0
41.575,0.001006,-0.07421875,-0.015625,-0.04492188,1.6875,-4.179688,3.914062,-0.02148438,0.001953125,-0.04101562,0.0703125,-0.02929688,0,-0.01171875,0.004882812,-0.1481934,0,0,-0.001342773,0.3105164,4.01,0,0,0,0.2999878,nan,4,10.121,1,128,0.3104248,0.284729,0.2685852,0.3783569,0.02246094,-0.01367188,0.001953125,1,3,0
41.586,0.001004,0.04492188,0.02929688,-0.05273438,2.164062,3.65625,8.242188,0.015625,0.015625,-0.05273438,0.0703125,-0.02929688,0,-0.01171875,0.004882812,-0.1485596,0,0,-0.001342773,0.3105164,4.01,0,0,0,0.2999878,nan,4,10.131,1,128,0.2845764,0.3014221,0.2740479,0.3820496,0.02246094,-0.01367188,0.001953125,1,3,0
41.596,0.001006,-0.009765625,-0.001953125,-0.03710938,-0.5234375,2.328125,10.57031,-0.01757812,-0.02148438,-0.03125,0.0703125,-0.02734375,0,-0.01184082,0.004638672,-0.1490479,0,0,-0.001342773,0.3105164,4.01,0,0,0,0.2999878,nan,4,10.141,1,128,0.3296509,0.2633362,0.2991333,0.3499756,0.02246094,-0.01367188,0.001953125,1,3,0
41.606,0.001004,-0.03710938,-0.00390625,-0.03125,-1.59375,2.523438,11.95312,-0.01171875,0.01171875,-0.04101562,0.07226562,-0.02734375,0,-0.01184082,0.004638672,-0.1494141,0,0,-0.001342773,0.3105164,4.01,0,0,0,0.2999878,nan,4,10.151,1,128,0.3097534,0.2769775,0.2843323,0.3710632,0.02246094,-0.01367188,0.001953125,1,3,0
41.616,0.000994,0.03125,-0.01757812,-0.0234375,-1.640625,-3.320312,10.64844,0.0078125,-0.001953125,-0.02929688,0.07226562,-0.02929688,0,-0.01208496,0.004760742,-0.1497803,0,0,-0.001342773,0.3105164,4.01,0,0,0,0.2999878,nan,4,10.162,1,128,0.3222351,0.2732849,0.3014832,0.3451233,0.02246094,-0.01367188,0.001953125,1,3,0
41.626,0.00102,-0.05859375,-0.0078125,-0.0078125,1.664062,-5.804688,7.992188,0,-0.01171875,-0.015625,0.07226562,-0.02929688,0,-0.01196289,0.004760742,-0.1500244,0,0,-0.001342773,0.3105164,4.01,0,0,0,0.2999878,nan,4,10.172,1,128,0.3380432,0.2601929,0.3019714,0.3418884,0.0234375,-0.01367188,0.001953125,1,3,0.3650794
41.636,0.001007,0.04882812,-0.08203125,-0.00390625,1.679688,-0.9609375,4.09375,0.015625,-0.03515625,-0.0078125,0.07226562,-0.02734375,0,-0.01196289,0.004638672,-0.1501465,0,0,-0.001342773,0.3105164,4.01,0,0,0,0.2999878,nan,4,10.182,1,128,0.3327332,0.2724304,0.3014526,0.3354797,0.0234375,-0.01367188,0.001953125,1,3,0
41.646,0.001001,-0.0390625,-0.02734375,0.01171875,2.210938,0.5390625,10.20312,-0.01367188,-0.015625,0.015625,0.07226562,-0.02734375,0,-0.01208496,0.004394531,-0.1501465,0,0,-0.001342773,0.3105164,4.01,0,0,0,0.2999878,nan,4,10.192,1,128,0.3534851,0.2383118,0.3205872,0.3297119,0.0234375,-0.01367188,0.001953125,1,3,0
41.656,0.001004,0.05859375,-0.02539062,-0.005859375,0.4765625,2.945312,12.35938,0.02148438,-0.015625,0.009765625,0.07226562,-0.02539062,0,-0.01220703,0.004272461,-0.1499023,0,0,-0.001342773,0.3105164,4.01,0,0,0,0.2999878,nan,4,10.202,1,128,0.310791,0.2846985,0.29422,0.3523865,0.0234375,-0.01367188,0.001953125,1,3,0
41.665,0.001017,-0.01757812,-0.1484375,0.0078125,2.546875,5.320312,10.65625,0,-0.09375,0.001953125,0.07226562,-0.0234375,0,-0.01208496,0.00390625,-0.1499023,0,0,-0.001342773,0.3105164,4.01,0,0,0,0.2999878,nan,4,10.211,1,128,0.3345947,0.2905273,0.2713318,0.3456116,0.0234375,-0.01367188,0.001953125,1,3,0
41.676,0.000945,0.04882812,0.046875,0.01757812,-1.929688,2.554688,12.88281,0,0.01171875,0.015625,0.07226562,-0.02148438,0,-0.01208496,0.003662109,-0.1497803,0,0,-0.001342773,0.3105164,4.01,0,0,0,0.2999878,nan,4,10.221,1,128,0.3234863,0.2505798,0.3159485,0.3521118,0.0234375,-0.01367188,0.001953125,1,3,0
41.686,0.001048,-0.03515625,-0.078125,-0.009765625,-2.515625,3.171875,14.35938,0,0,0.0078125,0.07226562,-0.0234375,0,-0.01196289,0.00390625,-0.1496582,0,0,-0.001342773,0.3105164,4.01,0,0,0,0.2999878,nan,4,10.231,1,128,0.3227844,0.2779846,0.2845764,0.3567505,0.0234375,-0.01367188,0.001953125,1,3,0
41.696,0.001003,0.02734375,-0.02539062,0.05078125,-2.523438,1.507812,8.914062,-0.005859375,-0.03710938,0.03125,0.07226562,-0.02148438,0,-0.01196289,0.003662109,-0.1494141,0,0,-0.001342773,0.3105164,4.01,0,0,0,0.2999878,nan,4,10.241,1,128,0.3607178,0.2431641,0.321167,0.3170776,0.0234375,-0.01367188,0.001953125,1,3,0.04761905
41.706,0.001003,0,0.02539062,0.01757812,-1.703125,-2.28125,12.11719,0.02734375,0.0078125,0.02148438,0.0703125,-0.02148438,0,-0.01184082,0.003540039,-0.1491699,0,0,-0.001342773,0.3105164,4.01,0,0,0,0.2999878,nan,4,10.251,1,128,0.3156128,0.2673645,0.3060608,0.3530579,0.0234375,-0.01367188,0.001953125,1,3,0
41.716,0.001011,-0.04101562,-0.1230469,0.046875,-1.34375,-6.039062,9.4375,0.005859375,-0.06054688,0.02734375,0.0703125,-0.01953125,0,-0.01159668,0.003295898,-0.1490479,0,0,-0.001342773,0.3105164,4.01,0,0,0,0.2999878,nan,4,10.262,1,128,0.367981,0.2463684,0.3144226,0.3133545,0.0234375,-0.01367188,0.001953125,1,3,0
41.726,0.000996,0.03320312,0.1054688,-0.009765625,0.390625,-3.195312,5.960938,0,0.01171875,0.009765625,0.0703125,-0.01757812,0,-0.01184082,0.002929688,-0.1488037,0,0,-0.001342773,0.3105164,4.01,0,0,0,0.2999878,nan,4,10.272,1,128,0.2864075,0.2846985,0.2854309,0.3855896,0.0234375,-0.01367188,0.001953125,1,3,0
41.735,0.001053,-0.0234375,0.1289062,-0.01171875,-1.054688,-5.84375,6.828125,-0.01367188,0.1054688,-0.02148438,0.0703125,-0.02148438,0,-0.01171875,0.003540039,-0.1489258,0,0,-0.001342773,0.3105164,4.01,0,0,0,0.2999878,nan,4,10.281,1,128,0.2778931,0.2781067,0.2798157,0.406311,0.0234375,-0.01367188,0.001953125,1,3,0
41.746,0.00101,-0.0234375,-0.01171875,-0.01757812,1.835938,-1.445312,7.140625,-0.03710938,-0.02148438,-0.015625,0.07226562,-0.02148438,0,-0.01196289,0.003662109,-0.1490479,0,0,-0.001342773,0.3105164,4.01,0,0,0,0.2999878,nan,4,10.292,1,128,0.3316956,0.2752991,0.2792358,0.355835,0.0234375,-0.01367188,0.001953125,1,3,0
41.756,0.001011,-0.03320312,0.04882812,-0.015625,1.90625,3.734375,8.507812,-0.009765625,0.04101562,-0.02148438,0.07226562,-0.0234375,0,-0.01208496,0.00390625,-0.149292,0,0,-0.001342773,0.3105164,4.01,0,0,0,0.2999878,nan,4,10.302,1,128,0.3067627,0.2706299,0.2913513,0.3733521,0.0234375,-0.01367188,0.001953125,1,3,0.1746032
41.765,0.000998,-0.05859375,-0.05078125,-0.02148438,1.859375,-0.265625,7.554688,-0.01953125,-0.0078125,-0.01757812,0.07226562,-0.0234375,0,-0.01220703,0.00390625,-0.1494141,0,0,-0.001342773,0.3105164,4.01,0,0,0,0.2999878,nan,4,10.311,1,128,0.3220825,0.2757568,0.2791748,0.3650818,0.02441406,-0.01367188,0.001953125,1,3,0
41.775,0.000999,0.03515625,-0.078125,-0.02148438,-0.9296875,4.453125,15.19531,0.005859375,0.0078125,-0.02148438,0.07226562,-0.0234375,0,-0.01220703,0.00390625,-0.1496582,0,0,-0.001342773,0.3105164,4.01,0,0,0,0.2999878,nan,4,10.321,1,128,0.3149109,0.2773132,0.2909241,0.3589783,0.02441406,-0.01367188,0.001953125,1,3,0
41.786,0.000999,-0.009765625,0.09960938,-0.01953125,-2.15625,3.992188,14.61719,-0.0078125,0.01953125,-0.01953125,0.07421875,-0.0234375,0,-0.01245117,0.00378418,-0.1497803,0,0,-0.001342773,0.3105164,4.01,0,0,0,0.2999878,nan,4,10.331,1,128,0.310791,0.2652283,0.300354,0.3657227,0.02441406,-0.01367188,0.001953125,1,3,0
41.796,0.000999,0.03125,0.02929688,-0.0078125,-0.1796875,-4.429688,8.320312,0.009765625,0.01757812,-0.01953125,0.07421875,-0.02539062,0,-0.01220703,0.00402832,-0.1500244,0,0,-0.001342773,0.3105164,4.01,0,0,0,0.2999878,nan,4,10.341,1,128,0.3197937,0.2713318,0.2938538,0.3571167,0.02441406,-0.01367188,0.001953125,1,3,0.1746032
41.806,0.000999,0.04882812,-0.04492188,-0.0078125,-0.9765625,-5.28125,4.867188,-0.009765625,-0.01367188,-0.005859375,0.07421875,-0.02539062,0,-0.01245117,0.004150391,-0.1501465,0,0,-0.001342773,0.3105164,4.01,0,0,0,0.2999878,nan,4,10.351,1,128,0.3314209,0.267334,0.2990417,0.3442993,0.02441406,-0.01367188,0.001953125,1,3,0
41.816,0.00101,0.04882812,-0.09375,-0.005859375,1.664062,-3.976562,7.65625,0.02539062,-0.0234375,-0.01953125,0.07421875,-0.02539062,0,-0.0123291,0.004272461,-0.1503906,0,0,-0.001342773,0.3105164,4.01,0,0,0,0.2999878,nan,4,10.362,1,128,0.3232422,0.2840881,0.2859802,0.3488159,0.02441406,-0.01367188,0.001953125,1,3,0
41.826,0.00102,-0.015625,0.1171875,0.0234375,0.9609375,0.640625,7.882812,-0.0078125,0.01367188,0.01757812,0.07421875,-0.02539062,0,-0.0123291,0.00402832,-0.1502686,0,0,-0.001342773,0.3105164,4.01,0,0,0,0.2999878,nan,4,10.372,1,128,0.3466492,0.2290039,0.3325195,0.3339233,0.02441406,-0.01367188,0.001953125,1,3,0
41.836,0.00098,-0.07617188,-0.0390625,-0.015625,3.21875,1.890625,7.695312,-0.015625,0.001953125,0,0.07421875,-0.02539062,0,-0.0123291,0.004150391,-0.1502686,0,0,-0.001342773,0.3105164,4.01,0,0,0,0.2999878,nan,4,10.382,1,128,0.3165894,0.2749634,0.2785034,0.3720093,0.02441406,-0.01367188,0.001953125,1,3,0
41.846,0.000979,-0.005859375,-0.03515625,-0.005859375,1.523438,2.046875,9.335938,0.015625,-0.00390625,-0.005859375,0.07421875,-0.02539062,0,-0.0123291,0.004150391,-0.1502686,0,0,-0.001342773,0.3105164,4.01,0,0,0,0.2999878,nan,4,10.392,1,128,0.3208923,0.2733765,0.2934875,0.3543091,0.02441406,-0.01367188,0.001953125,1,3,0.2222222
41.856,0.001002,0.03710938,0.05078125,-0.0390625,0.90625,4.3125,13.82812,0.02929688,0.0078125,-0.02148438,0.07226562,-0.0234375,0,-0.01208496,0.00402832,-0.1503906,0,0,-0.001342773,0.3105164,4.01,0,0,0,0.2999878,nan,4,10.402,1,128,0.2836609,0.3003235,0.2688904,0.3892212,0.02441406,-0.01367188,0.001953125,1,3,0
41.865,0.001018,-0.046875,-0.06445312,-0.02734375,-0.140625,5.945312,13.41406,0.009765625,-0.01171875,-0.01953125,0.07226562,-0.02539062,0,-0.01196289,0.004150391,-0.1506348,0,0,-0.001342773,0.3105164,4.01,0,0,0,0.2999878,nan,4,10.411,1,128,0.3224487,0.2776489,0.2833862,0.3586426,0.02441406,-0.01367188,0.001953125,1,3,0
41.875,0.001018,0.09570312,0.05664062,-0.03320312,-2.84375,1.03125,12.71875,0.02929688,0.0078125,-0.01953125,0.07226562,-0.0234375,0,-0.01196289,0.00390625,-0.1507568,0,0,-0.001342773,0.3105164,4.01,0,0,0,0.2999878,nan,4,10.421,1,128,0.295929,0.2851257,0.2953186,0.3656921,0.02441406,-0.01367188,0.001953125,1,3,0
41.886,0.001018,-0.015625,-0.07617188,-0.01367188,-1.5,-2.960938,11.82031,0.005859375,-0.01171875,-0.01757812,0.0703125,-0.0234375,0,-0.01184082,0.00402832,-0.151001,0,0,-0.001342773,0.3105164,4.01,0,0,0,0.2999878,nan,4,10.431,1,128,0.3249207,0.2729797,0.2865906,0.357605,0.02441406,-0.01367188,0.001953125,1,3,0
41.896,0.001018,0.03125,0.02929688,-0.01171875,0.2578125,-2.242188,9.1875,0.0234375,0.009765625,-0.005859375,0.0703125,-0.0234375,0,-0.01184082,0.00390625,-0.151001,0,0,-0.001342773,0.3105164,4.01,0,0,0,0.2999878,nan,4,10.441,1,128,0.3208618,0.2632751,0.3109436,0.3470154,0.02441406,-0.01367188,0.001953125,1,3,0.04761905
41.906,0.001018,0.01171875,0.0546875,0.02539062,1.304688,-5.242188,6.367188,-0.009765625,-0.001953125,0.005859375,0.0703125,-0.0234375,0,-0.01184082,0.00390625,-0.151123,0,0,-0.001342773,0.3105164,4.01,0,0,0,0.2999878,nan,4,10.451,1,128,0.3475037,0.2410583,0.3170166,0.3365173,0.02539062,-0.01367188,0.001953125,1,3,0
41.916,0.001018,0.05273438,0.005859375,0.01953125,0.671875,-1.320312,5.359375,0.009765625,0.0234375,0.009765625,0.07226562,-0.02539062,0,-0.01208496,0.004272461,-0.151001,0,0,-0.001342773,0.3105164,4.01,0,0,0,0.2999878,nan,4,10.462,1,128,0.3240356,0.2651672,0.3074951,0.3453979,0.02539062,-0.01367188,0.001953125,1,3,0
41.926,0.001009,-0.01367188,-0.07617188,-0.03710938,3.117188,2.929688,8.8125,-0.015625,-0.0078125,-0.02148438,0.07226562,-0.02539062,0,-0.01220703,0.004394531,-0.151123,0,0,-0.001342773,0.3105164,4.01,0,0,0,0.2999878,nan,4,10.472,1,128,0.2939758,0.3024597,0.2539978,0.3916321,0.02539062,-0.01367188,0.001953125,1,3,0.6349207
41.936,0.001024,-0.02929688,0.02734375,-0.03320312,0.5234375,0.7421875,8.882812,-0.01367188,0.0078125,-0.0234375,0.07421875,-0.02734375,0,-0.01220703,0.004394531,-0.1512451,0,0,-0.001342773,0.3105164,4.01,0,0,0,0.2999878,nan,4,10.482,1,128,0.3070679,0.2803955,0.2749939,0.3796692,0.02539062,-0.01367188,0.001953125,1,3,0
41.946,0.001003,-0.09960938,0.02148438,-0.01757812,-1.4375,4.695312,13.77344,-0.0234375,0.02929688,-0.02148438,0.07226562,-0.02734375,0,-0.01220703,0.004760742,-0.1514893,0,0,-0.001342773,0.3105164,4.01,0,0,0,0.2999878,nan,4,10.492,1,128,0.3291016,0.2565308,0.2911072,0.3653259,0.02539062,-0.01464844,0.001953125,1,3,0
41.956,0.001018,0.02734375,0.01953125,-0.04492188,-2.992188,2.945312,13.57812,-0.01367188,0.015625,-0.03125,0.07617188,-0.03125,0,-0.01257324,0.005004883,-0.1518555,0,0,-0.001342773,0.3105164,4.01,0,0,0,0.2999878,nan,4,10.502,1,128,0.3023682,0.2909546,0.27771,0.3710632,0.02539062,-0.01464844,0.001953125,1,3,0
41.965,0.001009,-0.01367188,0.02929688,-0.03125,-1.9375,0.84375,13.79688,-0.01757812,0.02929688,-0.04101562,0.07617188,-0.03125,0,-0.01269531,0.005126953,-0.1522217,0,0,-0.001342773,0.3105164,4.01,0,0,0,0.2999878,nan,4,10.511,1,128,0.3067017,0.2738037,0.2822266,0.3793945,0.02539062,-0.01464844,0.001953125,1,3,0
41.976,0.001028,0.07617188,0.01757812,-0.05078125,1.421875,-2.304688,4.507812,0.009765625,0.01171875,-0.04101562,0.07617188,-0.03320312,0,-0.01281738,0.005371094,-0.1525879,0,0,-0.001342773,0.3105164,4.01,0,0,0,0.2999878,nan,4,10.521,1,128,0.2950134,0.2945251,0.2763977,0.3761597,0.02539062,-0.01464844,0.001953125,1,3,0
41.986,0.000954,-0.009765625,-0.02929688,-0.01757812,2.117188,-1.414062,5.585938,-0.015625,-0.00390625,-0.03710938,0.07617188,-0.03320312,0,-0.01269531,0.005493164,-0.1530762,0,0,-0.001342773,0.3105164,4.01,0,0,0,0.2999878,nan,4,10.531,1,128,0.3345032,0.2611084,0.2915955,0.3548889,0.02539062,-0.01464844,0.001953125,1,3,0
41.996,0.001002,-0.02929688,0.01171875,-0.03515625,1.265625,2.578125,9.4375,0.005859375,0.01367188,-0.02929688,0.07617188,-0.03320312,0,-0.01269531,0.005493164,-0.1531982,0,0,-0.001342773,0.3105164,4.01,0,0,0,0.2999878,nan,4,10.541,1,128,0.3000183,0.2827759,0.2782288,0.3811035,0.02539062,-0.01464844,0.001953125,1,3,0.2063492
42.006,0.001009,-0.05273438,-0.001953125,-0.0078125,-1.054688,5.773438,13.11719,-0.009765625,-0.009765625,-0.009765625,0.07617188,-0.03320312,0,-0.01257324,0.005615234,-0.1534424,0,0,-0.001342773,0.3105164,4.01,0,0,0,0.2999878,nan,4,10.551,1,128,0.3459473,0.2486267,0.3009949,0.3465576,0.02539062,-0.01464844,0.001953125,1,3,0
42.016,0.001009,0.02539062,-0.005859375,0,-2.585938,1.484375,13.13281,0.02148438,0.01367188,-0.0078125,0.07421875,-0.03320312,0,-0.01245117,0.005615234,-0.1535645,0,0,-0.001342773,0.3105164,4.01,0,0,0,0.2999878,nan,4,10.562,1,128,0.3158264,0.2669067,0.3021545,0.3572083,0.02539062,-0.01464844,0.001953125,1,3,0
42.026,0.000998,-0.06835938,-0.05078125,0.01953125,-2.578125,-0.1953125,10.19531,-0.009765625,-0.0390625,0.01367188,0.07421875,-0.03320312,0,-0.01245117,0.005371094,-0.1534424,0,0,-0.001342773,0.3105164,4.01,0,0,0,0.2999878,nan,4,10.572,1,128,0.3594055,0.2426453,0.3063965,0.3336182,0.02539062,-0.01464844,0.001953125,1,3,0
42.036,0.001013,0.03125,-0.04882812,-0.02734375,-1.234375,-0.7734375,11.32031,0.005859375,-0.0078125,0,0.07617188,-0.03125,0,-0.01257324,0.005249023,-0.1533203,0,0,-0.001342773,0.3105164,4.01,0,0,0,0.2999878,nan,4,10.582,1,128,0.3039856,0.2834778,0.2845764,0.3700562,0.02636719,-0.01464844,0.001953125,1,3,0
42.046,0.001011,-0.009765625,0.0859375,0.001953125,-0.5703125,-5.796875,7.578125,0,0.04882812,-0.01171875,0.07421875,-0.03320312,0,-0.01257324,0.005493164,-0.1535645,0,0,-0.001342773,0.3105164,4.01,0,0,0,0.2999878,nan,4,10.592,1,128,0.3132935,0.2596436,0.2998657,0.3692932,0.02636719,-0.01464844,0.001953125,1,3,0.3650794
42.056,0.001042,0.009765625,-0.03320312,-0.001953125,1.234375,-3.960938,6.796875,-0.001953125,0.001953125,0.001953125,0.07617188,-0.03515625,0,-0.01257324,0.005737305,-0.1535645,0,0,-0.001342773,0.3105164,4.01,0,0,0,0.2999878,nan,4,10.602,1,128,0.3339844,0.2614136,0.3008423,0.3458862,0.02636719,-0.01464844,0.001953125,1,3,0
42.065,0.001018,-0.00390625,-0.08203125,-0.009765625,0.34375,-4.476562,8.273438,0.01171875,-0.01953125,-0.0078125,0.07421875,-0.03515625,0,-0.01245117,0.005737305,-0.1535645,0,0,-0.001342773,0.3105164,4.01,0,0,0,0.2999878,nan,4,10.611,1,128,0.3192749,0.2807922,0.2799377,0.3620911,0.02636719,-0.01464844,0.001953125,1,3,0.1428571
42.076,0.001062,-0.04296875,0.09375,0.02929688,2.132812,-1.085938,6.75,-0.03710938,-0.0078125,0.02148438,0.07617188,-0.03320312,0,-0.01257324,0.005371094,-0.1534424,0,0,-0.001342773,0.3105164,4.01,0,0,0,0.2999878,nan,4,10.621,1,128,0.3532715,0.2262878,0.3179932,0.344574,0.02636719,-0.01464844,0.001953125,1,3,0
42.086,0.001032,0.04296875,-0.01171875,-0.01171875,1.476562,1.507812,6.140625,0.01367188,0.0234375,0.00390625,0.07617188,-0.03515625,0,-0.01269531,0.005737305,-0.1533203,0,0,-0.001342773,0.3105164,4.01,0,0,0,0.2999878,nan,4,10.631,1,128,0.3061523,0.2811584,0.2888794,0.3659363,0.02636719,-0.01464844,0.001953125,1,3,0
42.096,0.001012,0.009765625,-0.08007812,0.01367188,2.148438,4.078125,11.92188,-0.001953125,-0.06640625,0.0078125,0.07617188,-0.03320312,0,-0.01269531,0.005615234,-0.1533203,0,0,-0.001342773,0.3105164,4.01,0,0,0,0.2999878,nan,4,10.641,1,128,0.3401489,0.2721863,0.2850037,0.3447571,0.02636719,-0.01464844,0.001953125,1,3,0
42.106,0.00101,-0.02539062,-0.05859375,-0.03125,0,2.109375,10.89844,0.0078125,-0.01953125,-0.00390625,0.07617188,-0.03125,0,-0.01257324,0.005249023,-0.1531982,0,0,-0.001342773,0.3105164,4.01,0,0,0,0.2999878,nan,4,10.651,1,128,0.2964478,0.2898254,0.2687073,0.387146,0.02636719,-0.01464844,0.001953125,1,3,0
42.116,0.001011,0.0625,-0.02929688,-0.01757812,-0.4375,4.4375,13.34375,0.02539062,-0.02148438,-0.01757812,0.07421875,-0.03125,0,-0.01245117,0.005126953,-0.1533203,0,0,-0.001342773,0.3105164,4.01,0,0,0,0.2999878,nan,4,10.662,1,128,0.3094788,0.2858887,0.281189,0.3655701,0.02636719,-0.01464844,0.001953125,1,3,0
42.126,0.001005,-0.01171875,0.02148438,-0.00390625,-1.867188,3.664062,15.01562,-0.01757812,-0.02148438,-0.0078125,0.07617188,-0.02929688,0,-0.01257324,0.004882812,-0.1534424,0,0,-0.001342773,0.3105164,4.01,0,0,0,0.2999878,nan,4,10.672,1,128,0.3317261,0.2561951,0.2983093,0.3558655,0.02636719,-0.01464844,0.001953125,1,3,0
42.136,0.001013,0.01367188,-0.0234375,-0.009765625,-1.429688,-2.109375,10.72656,0.00390625,0.015625,-0.01171875,0.07421875,-0.02929688,0,-0.01257324,0.005004883,-0.1535645,0,0,-0.001342773,0.3105164,4.01,0,0,0,0.2999878,nan,4,10.682,1,128,0.3186951,0.2664185,0.292511,0.364502,0.02636719,-0.01464844,0.001953125,1,3,0
42.146,0.000943,-0.0234375,-0.1601562,-0.01367188,-1.398438,-3.171875,5.59375,-0.009765625,-0.0390625,0,0.07617188,-0.03125,0,-0.01257324,0.005249023,-0.1535645,0,0,-0.001342773,0.3105164,4.01,0,0,0,0.2999878,nan,4,10.692,1,128,0.3442688,0.2718506,0.2836609,0.3423462,0.02636719,-0.01464844,0.001953125,1,3,0
42.156,0.001011,-0.01171875,0.01367188,-0.02734375,-0.1328125,-5.109375,10.78125,-0.001953125,0.009765625,-0.02929688,0.07617188,-0.03125,0,-0.01257324,0.005126953,-0.1538086,0,0,-0.001342773,0.3105164,4.01,0,0,0,0.2999878,nan,4,10.702,1,128,0.2847595,0.2975464,0.258606,0.4012146,0.02734375,-0.01464844,0.001953125,1,3,0
42.165,0.001009,0.005859375,-0.05859375,0.0078125,-0.796875,-4.125,10.3125,-0.00390625,-0.02929688,-0.0078125,0.07421875,-0.02929688,0,-0.01257324,0.004882812,-0.1539307,0,0,-0.001342773,0.3105164,4.01,0,0,0,0.2999878,nan,4,10.711,1,128,0.3511047,0.2467346,0.3078613,0.3363953,0.02734375,-0.01464844,0.001953125,1,3,0
42.175,0.001009,0.09375,0.03710938,-0.01367188,2.757812,1.023438,7.84375,0.03320312,0.005859375,-0.01367188,0.07617188,-0.02929688,0,-0.01257324,0.005004883,-0.1540527,0,0,-0.001342773,0.3105164,4.01,0,0,0,0.2999878,nan,4,10.721,1,128,0.3049316,0.2811279,0.2947388,0.3612976,0.02734375,-0.01464844,0.001953125,1,3,0
42.185,0.001009,-0.00390625,0.01757812,-0.03320312,1.789062,-1.007812,5.484375,0,0.01171875,-0.0234375,0.07617188,-0.03125,0,-0.01269531,0.005371094,-0.1541748,0,0,-0.001342773,0.3105164,4.01,0,0,0,0.2999878,nan,4,10.731,1,128,0.3078613,0.2848206,0.2786255,0.3708191,0.02734375,-0.01464844,0.001953125,1,3,0
42.196,0.001009,0.0703125,0.01171875,-0.03515625,2.21875,2.585938,12.07812,0.01953125,0.001953125,-0.03125,0.07617188,-0.03125,0,-0.01257324,0.005371094,-0.154541,0,0,-0.001342773,0.3105164,4.01,0,0,0,0.2999878,nan,4,10.741,1,128,0.2997131,0.2873535,0.2789917,0.3760376,0.02734375,-0.01464844,0.001953125,1,3,0
42.206,0.001009,-0.05078125,-0.01953125,-0.02929688,0.5078125,6.070312,13.25,0.00390625,0.001953125,-0.0234375,0.07421875,-0.03515625,0,-0.01245117,0.005737305,-0.1547852,0,0,-0.001342773,0.3105164,4.01,0,0,0,0.2999878,nan,4,10.751,1,128,0.3286438,0.2693787,0.2828674,0.3612061,0.02734375,-0.01464844,0.001953125,1,3,0
42.216,0.000958,0.01953125,0.05078125,-0.05078125,-1.921875,3.304688,13.61719,0.02539062,0.02148438,-0.04882812,0.07421875,-0.03515625,0,-0.01245117,0.005737305,-0.1551514,0,0,-0.001342773,0.3105164,4.01,0,0,0,0.2999878,nan,4,10.762,1,128,0.2775574,0.3003845,0.2669983,0.3971558,0.02734375,-0.015625,0.001953125,1,3,0
42.226,0.001,-0.02148438,-0.03125,0.005859375,-2.382812,1.445312,10.26562,-0.0078125,0.001953125,-0.009765625,0.07421875,-0.03515625,0,-0.01245117,0.005981445,-0.1555176,0,0,-0.001342773,0.3105164,4.01,0,0,0,0.2999878,nan,4,10.772,1,128,0.3673096,0.2250061,0.3274841,0.3222656,0.02734375,-0.015625,0.001953125,1,3,0
42.236,0.001004,0.046875,-0.00390625,-0.04101562,-1.328125,-4.046875,9.140625,0.00390625,0.00390625,-0.03125,0.07421875,-0.03515625,0,-0.01257324,0.005981445,-0.1556396,0,0,-0.001342773,0.3105164,4.01,0,0,0,0.2999878,nan,4,10.782,1,128,0.2918396,0.2942505,0.26651,0.3895264,0.02734375,-0.015625,0.001953125,1,3,0.2222222
42.246,0.00101,-0.01367188,-0.046875,0.009765625,0.453125,-3.640625,8.671875,-0.0078125,-0.06640625,-0.009765625,0.07421875,-0.03515625,0,-0.01245117,0.005737305,-0.1558838,0,0,-0.001342773,0.3105164,4.01,0,0,0,0.2999878,nan,4,10.792,1,128,0.3625183,0.2457581,0.3065491,0.327301,0.02734375,-0.015625,0.001953125,1,3,0.1904762
42.256,0.001009,-0.0078125,0.05859375,-0.005859375,1.648438,-1.5,6.164062,0.02148438,0.01171875,-0.00390625,0.07421875,-0.03320312,0,-0.0123291,0.005493164,-0.1558838,0,0,-0.001342773,0.3105164,4.01,0,0,0,0.2999878,nan,4,10.802,1,128,0.3092957,0.2614746,0.3013611,0.3699951,0.02734375,-0.015625,0.001953125,1,3,0
42.265,0.001005,-0.09179688,0.03710938,0.03125,1.171875,-6.71875,5.765625,-0.04101562,0.02539062,0.01757812,0.07421875,-0.03320312,0,-0.01245117,0.005615234,-0.1558838,0,0,-0.001342773,0.3105164,4.01,0,0,0,0.2999878,nan,4,10.811,1,128,0.3605042,0.2132568,0.3244629,0.3439026,0.02734375,-0.015625,0.001953125,1,3,0
42.275,0.001004,-0.01171875,0.05664062,-0.03515625,1.3125,0.59375,8.421875,-0.01367188,0.06445312,-0.001953125,0.07617188,-0.03515625,0,-0.01281738,0.005981445,-0.1557617,0,0,-0.001342773,0.3105164,4.01,0,0,0,0.2999878,nan,4,10.821,1,128,0.2890015,0.2785645,0.2814026,0.3931274,0.02734375,-0.015625,0.001953125,1,3,0
42.286,0.001004,-0.005859375,-0.0859375,-0.001953125,2.773438,3.820312,8.15625,0.009765625,-0.03710938,-0.01171875,0.07617188,-0.03710938,0,-0.01257324,0.006103516,-0.1558838,0,0,-0.001342773,0.3105164,4.01,0,0,0,0.2999878,nan,4,10.831,1,128,0.3325806,0.275116,0.2807617,0.3536377,0.02832031,-0.015625,0.001953125,1,3,0.06349207
42.296,0.001004,0.01757812,-0.04101562,-0.0078125,1.484375,-0.34375,8.054688,-0.009765625,-0.02539062,0,0.07617188,-0.03515625,0,-0.01269531,0.005981445,-0.1560059,0,0,-0.001342773,0.3105164,4.01,0,0,0,0.2999878,nan,4,10.841,1,128,0.3416443,0.2559204,0.2974854,0.3470459,0.02832031,-0.015625,0.001953125,1,3,0
42.306,0.001004,0.01953125,-0.04492188,-0.01367188,-0.875,3.835938,13.60938,0.01953125,0.01757812,-0.01757812,0.07617188,-0.03710938,0,-0.01257324,0.006103516,-0.1561279,0,0,-0.001342773,0.3105164,4.01,0,0,0,0.2999878,nan,4,10.851,1,128,0.3047791,0.2776794,0.287384,0.3722534,0.02832031,-0.015625,0.001953125,1,3,0
42.316,0.001004,-0.01757812,-0.05664062,0.02148438,-1.125,6.53125,12.65625,-0.01171875,-0.03125,0.009765625,0.07617188,-0.03710938,0,-0.01257324,0.006103516,-0.1561279,0,0,-0.001342773,0.3105164,4.01,0,0,0,0.2999878,nan,4,10.862,1,128,0.3635254,0.2367859,0.3112488,0.3305359,0.02832031,-0.015625,0.001953125,1,3,0
42.326,0.001009,-0.01171875,0.0390625,-0.015625,-2.953125,0.75,13.19531,0,0.03320312,-0.001953125,0.07617188,-0.03710938,0,-0.01269531,0.006103516,-0.1560059,0,0,-0.001342773,0.3105164,4.01,0,0,0,0.2999878,nan,4,10.872,1,128,0.2930603,0.2799072,0.2785645,0.3905945,0.02832031,-0.015625,0.001953125,1,3,0
42.336,0.001019,0.05273438,-0.08789062,0.03125,-2.640625,1.679688,13.08594,0.009765625,-0.0234375,0.01171875,0.07617188,-0.03710938,0,-0.01269531,0.006225586,-0.1560059,0,0,-0.001342773,0.3105164,4.01,0,0,0,0.2999878,nan,4,10.882,1,128,0.3501892,0.2513123,0.3078308,0.3327942,0.02832031,-0.015625,0.001953125,1,3,0
42.346,0.000999,0.00390625,-0.01171875,-0.02148438,-1.015625,0.625,10.36719,0.009765625,-0.0078125,-0.001953125,0.07617188,-0.03515625,0,-0.01257324,0.005981445,-0.1560059,0,0,-0.001342773,0.3105164,4.01,0,0,0,0.2999878,nan,4,10.892,1,128,0.3064575,0.2729797,0.2844238,0.3782043,0.02832031,-0.015625,0.001953125,1,3,0
42.356,0.001017,0.08398438,-0.03515625,-0.001953125,-0.9453125,-6.765625,8.726562,0.005859375,-0.01367188,-0.01953125,0.07617188,-0.03515625,0,-0.01257324,0.005981445,-0.15625,0,0,-0.001342773,0.3105164,4.01,0,0,0,0.2999878,nan,4,10.902,1,128,0.3206177,0.2745056,0.2860413,0.3609314,0.02832031,-0.015625,0.001953125,1,3,0
42.365,0.001009,-0.05273438,-0.08984375,0.0078125,-1.445312,-4.601562,8.585938,-0.03125,-0.03125,-0.00390625,0.07421875,-0.03710938,0,-0.01257324,0.005981445,-0.15625,0,0,-0.001342773,0.3105164,4.01,0,0,0,0.2999878,nan,4,10.911,1,128,0.3526611,0.2475891,0.29245,0.3494263,0.02832031,-0.015625,0.001953125,1,3,0.8412699
42.376,0.00108,0.03125,-0.01757812,0.0078125,2.023438,-0.7265625,5.265625,0.03710938,-0.001953125,0.01757812,0.07421875,-0.03515625,0,-0.01245117,0.005859375,-0.1561279,0,0,-0.001342773,0.3105164,4.01,0,0,0,0.2999878,nan,4,10.921,1,128,0.3218079,0.2603455,0.3070984,0.3528442,0.02832031,-0.015625,0.001953125,1,3,0
42.386,0.001007,-0.1855469,0.04101562,-0.00390625,1.40625,-3.515625,8.585938,-0.02929688,-0.02148438,0.01367188,0.07421875,-0.03515625,0,-0.01245117,0.005737305,-0.1560059,0,0,-0.001342773,0.3105164,4.01,0,0,0,0.2999878,nan,4,10.931,1,128,0.3439026,0.2442322,0.2912598,0.3627014,0.02832031,-0.015625,0.001953125,1,3,0.0952381
42.396,0.000982,0.01367188,0.05078125,0.01757812,2.5,-0.421875,10.3125,-0.005859375,0.01367188,0.02148438,0.078125,-0.03515625,0,-0.01293945,0.005737305,-0.1557617,0,0,-0.001342773,0.3105164,4.01,0,0,0,0.2999878,nan,4,10.941,1,128,0.3262329,0.2483826,0.3156128,0.3518677,0.02832031,-0.015625,0.001953125,1,3,0
42.406,0.000873,0.03710938,-0.015625,0.01367188,1.039062,1.265625,4.9375,0.02148438,-0.01757812,-0.0078125,0.07617188,-0.03515625,0,-0.01269531,0.005859375,-0.1558838,0,0,-0.001342773,0.3105164,4.01,0,0,0,0.2999878,nan,4,10.951,1,128,0.3203735,0.2760315,0.2851868,0.3605347,0.02832031,-0.015625,0.001953125,1,3,0
42.416,0.001009,-0.04296875,-0.06445312,0.02929688,1.320312,2.46875,10.1875,-0.02148438,-0.04882812,0.01757812,0.07617188,-0.03320312,0,-0.01269531,0.005493164,-0.1558838,0,0,-0.001342773,0.3105164,4.01,0,0,0,0.2999878,nan,4,10.961,1,128,0.3685913,0.2297363,0.3118591,0.3319092,0.02929688,-0.015625,0.001953125,1,3,0
42.426,0.001009,0.046875,0.02929688,0.01171875,0.7109375,1.304688,10.05469,0.009765625,0.005859375,0.001953125,0.078125,-0.03125,0,-0.01293945,0.005249023,-0.1557617,0,0,-0.001342773,0.3105164,4.01,0,0,0,0.2999878,nan,4,10.972,1,128,0.3001404,0.2746582,0.2910461,0.3762512,0.02929688,-0.015625,0.001953125,1,3,0.1904762
42.436,0.001013,-0.01757812,-0.1738281,-0.009765625,-0.7734375,4.632812,9.984375,0.01953125,-0.03125,-0.01367188,0.07617188,-0.03125,0,-0.01257324,0.005249023,-0.1557617,0,0,-0.001342773,0.3105164,4.01,0,0,0,0.2999878,nan,4,10.982,1,128,0.3206787,0.2810364,0.2739868,0.366394,0.02929688,-0.015625,0.001953125,1,3,0
42.446,0.001004,-0.005859375,-0.04492188,-0.009765625,-0.2578125,4.234375,14.375,-0.04492188,0.01367188,-0.005859375,0.078125,-0.03125,0,-0.01281738,0.005249023,-0.1558838,0,0,-0.001342773,0.3105164,4.01,0,0,0,0.2999878,nan,4,10.992,1,128,0.3296204,0.2542419,0.2866821,0.371582,0.02929688,-0.015625,0.001953125,1,3,0
42.456,0.000997,-0.009765625,0.07226562,-0.02148438,-2.757812,1.90625,12.98438,0.02734375,0.015625,-0.01757812,0.07617188,-0.03125,0,-0.01269531,0.005249023,-0.1560059,0,0,-0.001342773,0.3105164,4.01,0,0,0,0.2999878,nan,4,11.002,1,128,0.3006592,0.2765503,0.2842407,0.3806763,0.02929688,-0.015625,0.001953125,1,3,0
42.466,0.001009,-0.1152344,-0.05273438,-0.015625,-2.117188,-0.8125,8.65625,-0.02929688,-0.0234375,-0.01953125,0.07617188,-0.03125,0,-0.01257324,0.005249023,-0.15625,0,0,-0.001342773,0.3105164,4.01,0,0,0,0.2999878,nan,4,11.012,1,128,0.3365784,0.2602539,0.2751465,0.3701172,0.02929688,-0.015625,0.001953125,1,3,0
42.475,0.001003,-0.001953125,-0.01953125,-0.02148438,-2.539062,-0.6484375,11.66406,-0.00390625,-0.0078125,-0.01953125,0.07617188,-0.03125,0,-0.01269531,0.005126953,-0.1563721,0,0,-0.001342773,0.3105164,4.011,0,0,0,0.2999878,nan,4,11.021,1,128,0.3144836,0.2694397,0.2840576,0.3741455,0.02929688,-0.015625,0.001953125,1,3,0
42.485,0.001011,-0.04882812,0.078125,-0.0078125,0.9609375,-6.648438,10.17969,0.005859375,0.005859375,-0.0078125,0.07617188,-0.02929688,0,-0.01257324,0.004882812,-0.1564941,0,0,-0.001342773,0.3105164,4.011,0,0,0,0.2999878,nan,4,11.031,1,128,0.3293762,0.2438049,0.3070068,0.361908,0.02929688,-0.015625,0.001953125,1,3,0
42.496,0.001011,0.06054688,-0.04882812,0,0.375,-2.085938,5.625,0.01367188,-0.0234375,0.005859375,0.07617188,-0.02929688,0,-0.01269531,0.004882812,-0.1564941,0,0,-0.001342773,0.3105164,4.011,0,0,0,0.2999878,nan,4,11.041,1,128,0.3371277,0.2569275,0.3039551,0.3441162,0.02929688,-0.015625,0.001953125,1,3,0
42.506,0.001011,-0.02734375,-0.01171875,-0.009765625,1.96875,-2.851562,6.515625,-0.02929688,0.02539062,0.0078125,0.07617188,-0.02929688,0,-0.01269531,0.005004883,-0.1563721,0,0,-0.001342773,0.3105164,4.011,0,0,0,0.2999878,nan,4,11.051,1,128,0.3290405,0.2480164,0.2884827,0.3765869,0.02929688,-0.015625,0.001953125,1,3,0
42.516,0.001011,0.01367188,0.009765625,-0.01367188,2.617188,-0.6640625,9.546875,0.01953125,0.01367188,0.001953125,0.07617188,-0.03125,0,-0.01269531,0.005371094,-0.1563721,0,0,-0.001342773,0.3105164,4.011,0,0,0,0.2999878,nan,4,11.061,1,128,0.3121643,0.2742615,0.2878418,0.3678284,0.02929688,-0.015625,0.001953125,1,3,0.6825397
42.526,0.001011,-0.03515625,-0.09960938,-0.0078125,1.960938,0.7109375,4.304688,-0.009765625,-0.01953125,-0.015625,0.07617188,-0.03320312,0,-0.01257324,0.005493164,-0.1564941,0,0,-0.001342773,0.3105164,4.011,0,0,0,0.2999878,nan,4,11.072,1,128,0.3279114,0.2704163,0.2745972,0.3691711,0.02929688,-0.01660156,0.001953125,1,3,0
42.536,0.001006,-0.0390625,0.02539062,-0.01171875,1.328125,1.570312,12.97656,-0.0234375,-0.005859375,0,0.07617188,-0.03125,0,-0.01269531,0.005249023,-0.1564941,0,0,-0.001342773,0.3105164,4.011,0,0,0,0.2999878,nan,4,11.082,1,128,0.3274536,0.2532959,0.2886353,0.3727417,0.02929688,-0.01660156,0.001953125,1,3,0
42.546,0.000988,0.04101562,-0.0234375,0.01171875,-0.2578125,3.164062,11.85156,0.03710938,-0.02148438,0.01367188,0.07617188,-0.02929688,0,-0.01269531,0.004882812,-0.1564941,0,0,-0.001342773,0.3105164,4.011,0,0,0,0.2999878,nan,4,11.092,1,128,0.3359985,0.2502747,0.3170776,0.3387756,0.03027344,-0.01660156,0.001953125,1,3,0
42.556,0.0009869999,-0.1367188,0.1054688,-0.01171875,-0.96875,5.179688,10.83594,-0.01367188,0.02539062,0.015625,0.07421875,-0.02929688,0,-0.01245117,0.004760742,-0.15625,0,0,-0.001342773,0.3105164,4.011,0,0,0,0.2999878,nan,4,11.102,1,128,0.3244019,0.2406311,0.2936096,0.3834839,0.03027344,-0.01660156,0.001953125,1,3,0
42.565,0.001003,-0.04882812,-0.0078125,-0.03515625,0.7734375,2.632812,12.20312,-0.0546875,0.01367188,-0.001953125,0.07617188,-0.02929688,0,-0.01281738,0.005004883,-0.1561279,0,0,-0.001342773,0.3105164,4.011,0,0,0,0.2999878,nan,4,11.111,1,128,0.3019714,0.2840576,0.2489929,0.4071045,0.03027344,-0.01660156,0.001953125,1,3,0
42.575,0.000955,-0.015625,0.09375,-0.015625,-0.3046875,3.539062,13.04688,0.03320312,0.05273438,-0.01367188,0.07617188,-0.03125,0,-0.01269531,0.005371094,-0.15625,0,0,-0.001342773,0.3105164,4.011,0,0,0,0.2999878,nan,4,11.121,1,128,0.2923889,0.2758789,0.287262,0.3865967,0.03027344,-0.01660156,0.001953125,1,3,0
42.585,0.000956,-0.0234375,-0.07226562,0.02148438,-2.492188,2.671875,10.75781,-0.01367188,-0.03320312,0.001953125,0.07617188,-0.03125,0,-0.01257324,0.005371094,-0.1563721,0,0,-0.001342773,0.3105164,4.011,0,0,0,0.2999878,nan,4,11.131,1,128,0.3666077,0.235321,0.3073425,0.3328552,0.03027344,-0.01660156,0.001953125,1,3,0
42.596,0.001012,-0.01367188,-0.005859375,-0.02148438,-1.671875,2.632812,13.4375,-0.03320312,-0.01171875,0.001953125,0.078125,-0.02929688,0,-0.01293945,0.005004883,-0.1563721,0,0,-0.001342773,0.3105164,4.011,0,0,0,0.2999878,nan,4,11.141,1,128,0.3202209,0.2583923,0.2858887,0.377594,0.03027344,-0.01660156,0.001953125,1,3,0
42.606,0.001011,0.01367188,-0.04296875,-0.015625,-1.992188,-3.210938,7.554688,0,-0.00390625,-0.01757812,0.07617188,-0.03125,0,-0.01281738,0.005249023,-0.1563721,0,0,-0.001342773,0.3105164,4.011,0,0,0,0.2999878,nan,4,11.151,1,128,0.3084412,0.2849121,0.2658691,0.3829041,0.03027344,-0.01660156,0.001953125,1,3,0
42.616,0.000982,-0.05664062,-0.03710938,0.02539062,-0.6328125,-3.359375,8.140625,-0.01757812,-0.03320312,0.02539062,0.07617188,-0.02929688,0,-0.01281738,0.004882812,-0.1563721,0,0,-0.001342773,0.3105164,4.011,0,0,0,0.2999878,nan,4,11.162,1,128,0.3730774,0.2160645,0.3244629,0.3285217,0.03027344,-0.01660156,0.001953125,1,3,0
42.626,0.000991,0.001953125,0.03125,-0.02734375,0.9296875,-2.578125,8.289062,0.04101562,0.01171875,-0.01367188,0.07617188,-0.02929688,0,-0.01269531,0.004760742,-0.15625,0,0,-0.001342773,0.3105164,4.011,0,0,0,0.2999878,nan,4,11.172,1,128,0.2815857,0.2938538,0.2709656,0.3956909,0.03027344,-0.01660156,0.001953125,1,3,0
42.636,0.00102,-0.01171875,0.02148438,-0.0234375,0.6640625,-5.078125,5.851562,0,0.00390625,-0.02929688,0.07617188,-0.02929688,0,-0.01257324,0.004760742,-0.1566162,0,0,-0.001342773,0.3105164,4.011,0,0,0,0.2999878,nan,4,11.182,1,128,0.3208313,0.2615967,0.2839966,0.3756409,0.03027344,-0.01660156,0.001953125,1,3,0
42.646,0.001004,0.03710938,-0.0234375,-0.01953125,2.6875,-1.757812,6.21875,-0.01367188,-0.03125,-0.009765625,0.078125,-0.02734375,0,-0.01281738,0.004516602,-0.1567383,0,0,-0.001342773,0.3105164,4.011,0,0,0,0.2999878,nan,4,11.192,1,128,0.3299255,0.2625122,0.2924805,0.3571777,0.03027344,-0.01660156,0.001953125,1,3,0
42.656,0.0009869999,-0.015625,-0.015625,-0.009765625,3.164062,1.757812,7.9375,0.0234375,-0.001953125,-0.015625,0.07617188,-0.02734375,0,-0.01281738,0.004516602,-0.1569824,0,0,-0.001342773,0.3105164,4.011,0,0,0,0.2999878,nan,4,11.202,1,128,0.3208923,0.2623901,0.2971497,0.3616638,0.03027344,-0.01660156,0.001953125,1,3,0
42.665,0.001018,0.05859375,-0.001953125,-0.0078125,1.898438,1.242188,9.515625,0.0078125,-0.01953125,-0.01171875,0.07617188,-0.02734375,0,-0.01269531,0.004394531,-0.1571045,0,0,-0.001342773,0.3105164,4.011,0,0,0,0.2999878,nan,4,11.211,1,128,0.3365784,0.2533569,0.2982178,0.3539734,0.03027344,-0.01660156,0.001953125,1,3,0.2698413
42.675,0.001018,-0.02148438,-0.0234375,0.00390625,1.398438,4.335938,7.9375,0.001953125,-0.01953125,-0.005859375,0.07617188,-0.02539062,0,-0.01257324,0.004272461,-0.1572266,0,0,-0.001342773,0.3105164,4.011,0,0,0,0.2999878,nan,4,11.221,1,128,0.3427124,0.2478638,0.2998047,0.3517151,0.03027344,-0.01660156,0.001953125,1,3,0
42.685,0.001017,-0.01367188,0.009765625,-0.01757812,-0.9375,3.84375,16.21094,-0.001953125,-0.001953125,0,0.07617188,-0.02539062,0,-0.01257324,0.004394531,-0.1572266,0,0,-0.001342773,0.3105164,4.011,0,0,0,0.2999878,nan,4,11.231,1,128,0.3297119,0.2562561,0.289917,0.3662109,0.03125,-0.01660156,0.001953125,1,3,0
42.696,0.001018,0.02148438,0.0390625,-0.01953125,-2.75,2.539062,11.6875,0.001953125,0.001953125,-0.009765625,0.07421875,-0.02539062,0,-0.01245117,0.004272461,-0.1572266,0,0,-0.001342773,0.3105164,4.011,0,0,0,0.2999878,nan,4,11.241,1,128,0.3126831,0.2696838,0.2762146,0.3835144,0.03125,-0.01660156,0.001953125,1,3,0
42.706,0.001018,-0.0625,-0.09960938,-0.02539062,-2.109375,1.179688,10.63281,-0.015625,-0.05273438,0.00390625,0.07421875,-0.0234375,0,-0.0123291,0.00390625,-0.1572266,0,0,-0.001342773,0.3105164,4.011,0,0,0,0.2999878,nan,4,11.251,1,128,0.3276062,0.2674561,0.2729797,0.3740845,0.03125,-0.01660156,0.001953125,1,3,0
42.716,0.001018,0.04492188,0.06445312,-0.03515625,-2.210938,0.8046875,13.75781,0.0078125,0.03320312,-0.01367188,0.07421875,-0.0234375,0,-0.01245117,0.00378418,-0.1572266,0,0,-0.001342773,0.3105164,4.011,0,0,0,0.2999878,nan,4,11.261,1,128,0.2911987,0.2764587,0.2779236,0.3965149,0.03125,-0.01660156,0.001953125,1,3,0
42.726,0.001019,0.02929688,-0.06445312,0.0078125,-1.671875,-3.65625,10.13281,0.015625,-0.02929688,0.009765625,0.07421875,-0.0234375,0,-0.0123291,0.00402832,-0.1572266,0,0,-0.001342773,0.3105164,4.011,0,0,0,0.2999878,nan,4,11.272,1,128,0.3546753,0.2497253,0.3083496,0.3293762,0.03125,-0.01660156,0.001953125,1,3,0
42.736,0.001017,-0.01171875,-0.005859375,0.03320312,-0.640625,-5.328125,7.414062,-0.005859375,0.01757812,0.02539062,0.07617188,-0.0234375,0,-0.01257324,0.00402832,-0.1571045,0,0,-0.001342773,0.3105164,4.011,0,0,0,0.2999878,nan,4,11.282,1,128,0.3514709,0.2283325,0.3240051,0.3382874,0.03125,-0.01660156,0.001953125,1,3,0
42.746,0.001019,0.03515625,0.046875,-0.0078125,0.296875,-1.101562,10.21094,0.0546875,0.04492188,-0.01367188,0.07421875,-0.02539062,0,-0.01245117,0.004272461,-0.1571045,0,0,-0.001342773,0.3105164,4.011,0,0,0,0.2999878,nan,4,11.292,1,128,0.2935486,0.2781677,0.2924805,0.3778992,0.03125,-0.01660156,0.001953125,1,3,0.01587302
42.756,0.001011,0.01757812,-0.08007812,0.0234375,0.390625,-8.890625,6.101562,-0.0078125,0.00390625,-0.00390625,0.07421875,-0.02734375,0,-0.0123291,0.004638672,-0.1572266,0,0,-0.001342773,0.3105164,4.011,0,0,0,0.2999878,nan,4,11.302,1,128,0.3524475,0.2428284,0.3006897,0.3461304,0.03125,-0.01660156,0.001953125,1,3,0
42.766,0.001018,0.02539062,0.01367188,-0.0546875,1.078125,-4.210938,6.515625,-0.01171875,0,-0.03320312,0.07421875,-0.02539062,0,-0.01257324,0.004394531,-0.1574707,0,0,-0.001342773,0.3105164,4.011,0,0,0,0.2999878,nan,4,11.312,1,128,0.2857361,0.2940674,0.2566528,0.4056702,0.03125,-0.01660156,0.001953125,1,3,0
42.775,0.001008,0.05273438,-0.02929688,-0.0390625,0.9609375,-3.460938,6.695312,0.03320312,0.001953125,-0.03710938,0.07421875,-0.02734375,0,-0.0123291,0.004516602,-0.1577148,0,0,-0.001342773,0.3105164,4.011,0,0,0,0.2999878,nan,4,11.321,1,128,0.3024292,0.2852173,0.2749634,0.3794861,0.03125,-0.01660156,0.001953125,1,3,0
42.785,0.001009,-0.04101562,-0.05273438,0.0078125,2.445312,-0.6328125,7.84375,-0.04492188,-0.0625,-0.0078125,0.07421875,-0.02539062,0,-0.01245117,0.004272461,-0.157959,0,0,-0.001342773,0.3105164,4.011,0,0,0,0.2999878,nan,4,11.331,1,128,0.3747559,0.230835,0.3007812,0.3357239,0.03125,-0.01660156,0.001953125,1,3,0
42.796,0.001072,0.01757812,0.06054688,0.01171875,0.5703125,2.742188,7.148438,0.01757812,0.015625,-0.0078125,0.07421875,-0.02539062,0,-0.01245117,0.004150391,-0.1580811,0,0,-0.001342773,0.3105164,4.011,0,0,0,0.2999878,nan,4,11.341,1,128,0.3254395,0.2463379,0.309845,0.3605042,0.03125,-0.01660156,0.001953125,1,3,0
42.806,0.00102,-0.05078125,-0.09375,-0.015625,1.710938,3.890625,14,-0.01757812,-0.00390625,-0.001953125,0.07421875,-0.02539062,0,-0.01220703,0.004272461,-0.1582031,0,0,-0.001342773,0.3105164,4.011,0,0,0,0.2999878,nan,4,11.351,1,128,0.3432922,0.2493896,0.2861938,0.3632202,0.03125,-0.01660156,0.001953125,1,3,0
42.816,0.000919,0.01757812,0.0234375,-0.03320312,-1.03125,3.1875,12.14844,-0.005859375,0.02734375,-0.0078125,0.07421875,-0.02539062,0,-0.01245117,0.004272461,-0.1582031,0,0,-0.001342773,0.3093567,4.011,0,0,0,0.298584,nan,4,11.361,1,128,0.3066406,0.2672424,0.2823181,0.3811951,0.03222656,-0.01660156,0.001953125,1,3,0
42.826,0.001008,-0.05664062,0.01953125,-0.04882812,-2.085938,4.117188,13.92188,-0.03515625,0.01953125,-0.02734375,0.07617188,-0.02734375,0,-0.01269531,0.004638672,-0.1584473,0,0,-0.001342773,0.3076782,4.011,0,0,0,0.2965698,nan,4,11.372,1,128,0.3035583,0.2720032,0.2590027,0.3960876,0.03222656,-0.01660156,0.001953125,1,3,0
42.836,0.001015,0.00390625,-0.009765625,-0.0078125,-2.828125,4.210938,13.64844,-0.03320312,0.01171875,-0.02148438,0.078125,-0.02734375,0,-0.01306152,0.004760742,-0.1586914,0,0,-0.001342773,0.3058167,4.011,0,0,0,0.2943726,nan,4,11.382,1,128,0.3259583,0.247345,0.2886963,0.3612366,0.03222656,-0.01660156,0.001953125,1,3,0
42.846,0.001004,0.03515625,0.0234375,0.02539062,-2.210938,-2.765625,9.945312,0.02148438,-0.01171875,0.00390625,0.078125,-0.02734375,0,-0.01293945,0.004638672,-0.1588135,0,0,-0.001342773,0.3041382,4.011,0,0,0,0.2924194,nan,4,11.392,1,128,0.346344,0.2293701,0.3114929,0.3293152,0.03222656,-0.01660156,0.001953125,1,3,0
42.856,0.000981,-0.02734375,-0.04101562,0.05664062,-1.710938,-4.382812,6.742188,0,-0.0390625,0.02734375,0.07617188,-0.02734375,0,-0.01281738,0.004516602,-0.1585693,0,0,-0.001342773,0.3024292,4.011,0,0,0,0.2904053,nan,4,11.402,1,128,0.3670044,0.2120667,0.3153381,0.3153687,0.03222656,-0.01660156,0.001953125,1,3,0
42.866,0.001009,0.01171875,0.03125,0.03515625,-0.1171875,0.09375,11.72656,0.046875,0.01367188,0.0234375,0.07617188,-0.02539062,0,-0.01269531,0.004272461,-0.1584473,0,0,-0.001342773,0.3007507,4.011,0,0,0,0.2883911,nan,4,11.412,1,128,0.3222046,0.2288818,0.313446,0.338501,0.03222656,-0.01660156,0.001953125,1,3,0
42.875,0.001004,0.01757812,0.01953125,-0.001953125,-3.5625,-3.195312,9.921875,0.05078125,0,-0.01171875,0.07421875,-0.02539062,0,-0.01245117,0.004272461,-0.1584473,0,0,-0.001342773,0.2992554,4.011,0,0,0,0.2866211,nan,4,11.421,1,128,0.2844238,0.2735596,0.2673645,0.3716431,0.03222656,-0.01660156,0.001953125,1,3,0
42.885,0.001004,-0.0078125,0,0.01367188,-0.1640625,-5.882812,9.117188,-0.02734375,-0.009765625,-0.001953125,0.07617188,-0.02539062,0,-0.01269531,0.004272461,-0.1585693,0,0,-0.001342773,0.2975464,4.011,0,0,0,0.2846069,nan,4,11.431,1,128,0.3360901,0.2250671,0.2880554,0.3410034,0.03222656,-0.01660156,0.001953125,1,3,0
42.896,0.001004,0.109375,-0.01367188,0.0078125,1.015625,-2.742188,4.34375,0.03320312,0.001953125,0.0078125,0.07617188,-0.02539062,0,-0.01269531,0.004272461,-0.1584473,0,0,-0.001342773,0.2958679,4.011,0,0,0,0.2825928,nan,4,11.441,1,128,0.3121338,0.2427673,0.2927551,0.3358154,0.03222656,-0.01660156,0.001953125,1,3,0
42.906,0.001004,-0.0703125,-0.01367188,0.01757812,1.429688,2.648438,7.953125,0,0.009765625,0.02929688,0.07421875,-0.02734375,0,-0.0123291,0.004516602,-0.1583252,0,0,-0.001342773,0.2941895,4.011,0,0,0,0.2805786,nan,4,11.451,1,128,0.3431396,0.2093506,0.2951965,0.329071,0.03222656,-0.01660156,0.001953125,1,3,0
42.916,0.001003,0.00390625,-0.001953125,0.02539062,2.742188,0.7578125,9.070312,-0.0234375,-0.04296875,0.03320312,0.07617188,-0.02539062,0,-0.01281738,0.004150391,-0.157959,0,0,-0.001342773,0.292511,4.011,0,0,0,0.2786255,nan,4,11.461,1,128,0.3291321,0.2278137,0.2859497,0.3271179,0.03222656,-0.01660156,0.001953125,1,3,0.1746032
42.926,0.001004,0.05078125,0.03515625,-0.01367188,1.960938,-1.125,8.25,0.02929688,0.05664062,-0.001953125,0.07617188,-0.02734375,0,-0.01269531,0.004516602,-0.157959,0,0,-0.001342773,0.2908325,4.011,0,0,0,0.2766113,nan,4,11.472,1,128,0.2720642,0.2563171,0.2647095,0.3702087,0.03222656,-0.01757812,0.001953125,1,3,0
42.936,0.001009,-0.03320312,-0.01953125,0.005859375,0.8203125,2.640625,10.82812,-0.005859375,-0.005859375,0.0078125,0.07421875,-0.02929688,0,-0.01257324,0.004882812,-0.157959,0,0,-0.001342773,0.2889709,4.011,0,0,0,0.2744141,nan,4,11.482,1,128,0.3256836,0.2281494,0.2662964,0.3357544,0.03222656,-0.01757812,0.001953125,1,3,0
42.946,0.00099,-0.08007812,-0.07226562,0.0234375,-2.304688,3.96875,11.35938,-0.03515625,-0.0546875,0.0078125,0.07617188,-0.02734375,0,-0.01269531,0.004760742,-0.1578369,0,0,-0.001342773,0.2872925,4.011,0,0,0,0.2723999,nan,4,11.492,1,128,0.3321838,0.2262268,0.2620544,0.3286438,0.03320312,-0.01757812,0.001953125,1,3,0
42.955,0.001042,0.0390625,0.04882812,0,-1.070312,7.710938,15.125,0.01171875,0.02929688,0.01757812,0.078125,-0.02929688,0,-0.01293945,0.004760742,-0.1577148,0,0,-0.001342773,0.2857666,4.011,0,0,0,0.2706299,nan,4,11.501,1,128,0.293335,0.2262573,0.2823792,0.341095,0.03320312,-0.01757812,0.001953125,1,3,0
42.965,0.001,0.01757812,0.01367188,0.0078125,-2.351562,5.890625,15.30469,0.0234375,0.009765625,0.005859375,0.07617188,-0.02929688,0,-0.01269531,0.004882812,-0.1575928,0,0,-0.001342773,0.2840881,4.011,0,0,0,0.2686157,nan,4,11.511,1,128,0.2947083,0.2347412,0.2630615,0.343811,0.03320312,-0.01757812,0.001953125,1,3,0
42.975,0.001001,0.01953125,-0.01367188,-0.01171875,-0.9296875,-3.148438,11.60156,-0.009765625,-0.02929688,-0.005859375,0.07617188,-0.02734375,0,-0.01269531,0.004638672,-0.1575928,0,0,-0.001342773,0.2824097,4.011,0,0,0,0.2666016,nan,4,11.521,1,128,0.2872925,0.245575,0.2415466,0.3551636,0.03320312,-0.01757812,0.001953125,1,3,0
42.985,0.001001,-0.009765625,0.02148438,0.009765625,-0.3515625,-4.640625,5.460938,0.01757812,-0.03320312,-0.00390625,0.07617188,-0.02539062,0,-0.01269531,0.004272461,-0.1577148,0,0,-0.001342773,0.2807007,4.011,0,0,0,0.2645874,nan,4,11.531,1,128,0.3079224,0.2169189,0.2748413,0.3231812,0.03320312,-0.01757812,0.001953125,1,3,0
42.996,0.001001,-0.005859375,-0.03515625,-0.03515625,1.921875,0.0546875,9.640625,-0.009765625,-0.001953125,-0.01953125,0.07617188,-0.02539062,0,-0.01257324,0.004272461,-0.1578369,0,0,-0.001342773,0.2790222,4.011,0,0,0,0.2625732,nan,4,11.541,1,128,0.2732849,0.2483215,0.2266235,0.3678894,0.03320312,-0.01757812,0.001953125,1,3,0.6825397
43.006,0.001001,0.0234375,0.0390625,-0.04882812,-2.929688,5.039062,15.32812,0.009765625,0.0078125,-0.04492188,0.07421875,-0.02539062,0,-0.01245117,0.004272461,-0.1580811,0,0,-0.001342773,0.2773438,4.011,0,0,0,0.2606201,nan,4,11.551,1,128,0.2546387,0.2590942,0.22229,0.3733521,0.03320312,-0.01757812,0.001953125,1,3,0
43.016,0.001002,0.02148438,-0.078125,0.0234375,-0.7734375,-5.59375,7.664062,0.00390625,-0.0390625,0.00390625,0.07617188,-0.02539062,0,-0.01257324,0.004150391,-0.1583252,0,0,-0.001342773,0.2756653,4.011,0,0,0,0.258606,nan,4,11.561,1,128,0.3440247,0.1851807,0.2947083,0.2787476,0.03320312,-0.01757812,0.001953125,1,3,0.2380952
43.026,0.001008,0.04296875,0.03125,-0.05664062,3.273438,0.53125,6.492188,0.04296875,0.02539062,-0.03515625,0.07421875,-0.02539062,0,-0.0123291,0.004272461,-0.1584473,0,0,-0.001342773,0.2739868,4.011,0,0,0,0.2565918,nan,4,11.572,1,128,0.2363892,0.2654419,0.2189941,0.3750916,0.03320312,-0.01757812,0.001953125,1,3,0
43.036,0.001001,-0.02734375,-0.02734375,-0.001953125,-1.015625,8.5625,14.03125,-0.015625,-0.01757812,-0.02539062,0.07421875,-0.0234375,0,-0.01220703,0.00402832,-0.1589355,0,0,-0.001342773,0.2721252,4.011,0,0,0,0.2543945,nan,4,11.582,1,128,0.3111267,0.1983032,0.2623291,0.3167725,0.03320312,-0.01757812,0.001953125,1,3,0
43.046,0.001003,0.08984375,0.0078125,0,0.53125,-2.398438,10.01562,0.01953125,-0.02148438,-0.0078125,0.07421875,-0.0234375,0,-0.0123291,0.00390625,-0.1590576,0,0,-0.001342773,0.2704468,4.011,0,0,0,0.2523804,nan,4,11.592,1,128,0.2958679,0.2113647,0.2672729,0.307251,0.03320312,-0.01757812,0.001953125,1,3,0
43.056,0.001009,-0.0390625,-0.05859375,-0.005859375,1.929688,0.0546875,7.648438,0.01367188,-0.01953125,0.00390625,0.07226562,-0.0234375,0,-0.01208496,0.00390625,-0.1590576,0,0,-0.001342773,0.2687683,4.011,0,0,0,0.2504272,nan,4,11.602,1,128,0.2978516,0.2102966,0.2509155,0.3159485,0.03320312,-0.01757812,0.001953125,1,3,0
43.067,0.001074,0.0390625,-0.06054688,-0.01367188,-1.484375,2.648438,13.46094,0.01367188,0.001953125,-0.009765625,0.07226562,-0.0234375,0,-0.01208496,0.00390625,-0.1590576,0,0,-0.001342773,0.2670593,4.011,0,0,0,0.2484131,nan,4,11.612,1,128,0.2608337,0.2366028,0.2285767,0.3422852,0.03320312,-0.01757812,0.001953125,1,3,0
43.075,0.001003,-0.07617188,0.06640625,-0.04882812,-2.945312,-2.273438,11.46094,0.01171875,0.015625,-0.03320312,0.0703125,-0.0234375,0,-0.01171875,0.00378418,-0.1591797,0,0,-0.001342773,0.265564,4.011,0,0,0,0.246582,nan,4,11.621,1,128,0.2354431,0.2463379,0.1998291,0.3806152,0.03320312,-0.01757812,0.001953125,1,3,0
43.085,0.001001,-0.06640625,-0.04296875,0.02148438,1.226562,-1.578125,6.664062,-0.06054688,-0.03320312,0.0078125,0.07226562,-0.02148438,0,-0.01196289,0.003662109,-0.1593018,0,0,-0.001342773,0.2638855,4.011,0,0,0,0.2446289,nan,4,11.631,1,128,0.3337402,0.1648865,0.2613525,0.2955322,0.03417969,-0.01757812,0.001953125,1,3,0
43.095,0.001003,-0.02734375,0.1269531,-0.05859375,-1.117188,0.8125,14.53125,0.0234375,-0.00390625,-0.0078125,0.0703125,-0.01953125,0,-0.01171875,0.003173828,-0.1590576,0,0,-0.001342773,0.2621765,4.011,0,0,0,0.2426147,nan,4,11.641,1,128,0.2276001,0.2444763,0.2052612,0.3714294,0.03417969,-0.01757812,0.001953125,1,3,0
43.106,0.001022,-0.08203125,-0.125,-0.01367188,-0.265625,-9.835938,6.585938,-0.01757812,-0.0390625,-0.009765625,0.06835938,-0.01953125,0,-0.01159668,0.003173828,-0.1593018,0,0,-0.001342773,0.260498,4.011,0,0,0,0.2406006,nan,4,11.651,1,128,0.2886963,0.2114258,0.2164917,0.3254089,0.03417969,-0.01757812,0.001953125,1,3,0
43.116,0.000893,0.078125,0.001953125,0.001953125,1.367188,0.8671875,11.5625,-0.02148438,0.001953125,-0.009765625,0.07421875,-0.01757812,0,-0.0123291,0.002929688,-0.1594238,0,0,-0.001342773,0.2588196,4.011,0,0,0,0.2385864,nan,4,11.661,1,128,0.2739563,0.2030945,0.2502747,0.3079529,0.03417969,-0.01757812,0.001953125,1,3,0
43.126,0.000921,-0.01953125,0.1113281,-0.01171875,-1.710938,-3.648438,10.46094,0.046875,0.03515625,-0.005859375,0.07226562,-0.01953125,0,-0.01208496,0.003173828,-0.1595459,0,0,-0.001342773,0.2571411,4.016,0,0,0,0.2365723,nan,4,11.672,1,128,0.2684937,0.1959229,0.2566223,0.3075256,0.03417969,-0.01757812,0.001953125,1,3,0
43.136,0.001015,-0.05664062,-0.1523438,0.001953125,1.867188,-0.28125,6.992188,-0.02148438,-0.05273438,0.00390625,0.07226562,-0.01953125,0,-0.01196289,0.003173828,-0.1594238,0,0,-0.001342773,0.2552795,4.016,0,0,0,0.234375,nan,4,11.682,1,128,0.3007812,0.198761,0.2227478,0.2988281,0.03417969,-0.01757812,0.001953125,1,3,0
43.146,0.001043,0.03710938,0.08398438,0.001953125,-0.828125,6.25,16.55469,0,0.02929688,0,0.07226562,-0.01757812,0,-0.01220703,0.002929688,-0.1594238,0,0,-0.001342773,0.2536011,4.016,0,0,0,0.2324219,nan,4,11.692,1,128,0.2588501,0.1890564,0.2466125,0.3198547,0.03417969,-0.01757812,0.001953125,1,3,0
43.155,0.001015,0,0.01171875,-0.02539062,0.6875,-2.71875,6.375,0.01953125,0.01953125,-0.015625,0.07226562,-0.01953125,0,-0.01196289,0.003295898,-0.1595459,0,0,-0.001342773,0.2520752,4.016,0,0,0,0.2305908,nan,4,11.701,1,128,0.2446289,0.223175,0.2073059,0.3331909,0.03417969,-0.01757812,0.001953125,1,3,0
43.165,0.001056,-0.1113281,-0.1132812,0.001953125,-0.5703125,8.015625,12.875,-0.0390625,-0.05273438,-0.0078125,0.07226562,-0.01953125,0,-0.01196289,0.003173828,-0.159668,0,0,-0.001342773,0.2503967,4.016,0,0,0,0.2285767,nan,4,11.711,1,128,0.2981567,0.1905212,0.2128906,0.3000183,0.03417969,-0.01757812,0.001953125,1,3,0
43.175,0.001014,0.08984375,0.0703125,-0.02734375,0.6796875,-5.007812,4.914062,0.009765625,0.06640625,-0.0078125,0.07421875,-0.01953125,0,-0.0123291,0.003173828,-0.159668,0,0,-0.001342773,0.2487183,4.016,0,0,0,0.2266235,nan,4,11.721,1,128,0.2218628,0.2062988,0.2285461,0.3381348,0.03417969,-0.01757812,0.001953125,1,3,0
43.185,0.001016,-0.046875,-0.0703125,-0.005859375,-2.460938,0.3203125,13.10156,-0.00390625,-0.001953125,-0.02734375,0.07226562,-0.02148438,0,-0.01220703,0.003540039,-0.1599121,0,0,-0.001342773,0.2470398,4.016,0,0,0,0.2246094,nan,4,11.731,1,128,0.2709045,0.2003174,0.2098694,0.3070374,0.03417969,-0.01757812,0.001953125,1,3,0
43.196,0.001037,0.01953125,0.0859375,0.02929688,1.140625,-1.03125,8.804688,-0.01953125,0.015625,0.0390625,0.07617188,-0.01953125,0,-0.01269531,0.003295898,-0.159668,0,0,-0.001342773,0.2453613,4.016,0,0,0,0.2225952,nan,4,11.741,1,128,0.3024902,0.1347961,0.2814026,0.2626648,0.03417969,-0.01757812,0.001953125,1,3,0
43.206,0.001016,0.125,0.02734375,-0.01367188,-0.3515625,0.7578125,13.33594,0.05859375,0.03515625,-0.009765625,0.07421875,-0.02148438,0,-0.0123291,0.003662109,-0.159668,0,0,-0.001342773,0.2436523,4.016,0,0,0,0.2205811,nan,4,11.751,1,128,0.2147522,0.2269287,0.2043152,0.3286743,0.03417969,-0.01757812,0.001953125,1,3,0
43.216,0.001015,-0.08203125,-0.1152344,-0.0234375,1.390625,4.609375,5.9375,-0.02734375,-0.04492188,-0.03515625,0.07226562,-0.02148438,0,-0.01208496,0.003540039,-0.1599121,0,0,-0.001342773,0.2419739,4.016,0,0,0,0.2186279,nan,4,11.761,1,128,0.25354,0.2139893,0.1665649,0.3338013,0.03515625,-0.01757812,0.001953125,1,3,0
43.226,0.001016,0.01367188,-0.0078125,0.01171875,-2.203125,-7.773438,5.453125,-0.01953125,-0.02539062,-0.0078125,0.07421875,-0.01953125,0,-0.0123291,0.003173828,-0.1601562,0,0,-0.001342773,0.2402954,4.016,0,0,0,0.2166138,nan,4,11.772,1,128,0.2832336,0.1593018,0.2420959,0.2765503,0.03515625,-0.01757812,0.001953125,1,3,0.7619048
43.236,0.001021,0.07421875,0.06445312,-0.05078125,-1.78125,5.09375,15.11719,0.05859375,0.05273438,-0.02929688,0.07226562,-0.02148438,0,-0.01208496,0.003417969,-0.1602783,0,0,-0.001342773,0.2384338,4.016,0,0,0,0.2144165,nan,4,11.782,1,128,0.2012024,0.2206116,0.1970825,0.3348694,0.03515625,-0.01757812,0.001953125,1,3,0
43.246,0.001029,-0.06054688,-0.1054688,-0.0078125,2.984375,-4.320312,9.085938,-0.009765625,-0.0390625,-0.01757812,0.0703125,-0.01953125,0,-0.01184082,0.003417969,-0.1605225,0,0,-0.001342773,0.2367554,4.016,0,0,0,0.2124023,nan,4,11.792,1,128,0.2808228,0.1721497,0.2078552,0.2862244,0.03515625,-0.01757812,0.001953125,1,3,0
43.256,0.001012,0.05273438,0.1210938,-0.03710938,-0.2578125,0.359375,13.39844,0.01953125,0.0625,-0.01367188,0.07226562,-0.01953125,0,-0.01208496,0.003295898,-0.1606445,0,0,-0.001342773,0.2350769,4.016,0,0,0,0.2103882,nan,4,11.802,1,128,0.2140503,0.1852722,0.2220459,0.3189087,0.03515625,-0.01757812,0.001953125,1,3,0
43.266,0.001,0.00390625,0.001953125,-0.04296875,-0.9921875,5.578125,10.17188,0.01171875,0.02734375,-0.05078125,0.0703125,-0.02148438,0,-0.01184082,0.00378418,-0.1610107,0,0,-0.001342773,0.2333984,4.016,0,0,0,0.208374,nan,4,11.812,1,128,0.2188721,0.210968,0.1752014,0.3284912,0.03515625,-0.01757812,0.001953125,1,3,0
43.275,0.001011,-0.05078125,0.02148438,0.02734375,-0.0390625,-6.054688,5.445312,-0.0546875,-0.05664062,0,0.07226562,-0.02148438,0,-0.01220703,0.003417969,-0.1612549,0,0,-0.001342773,0.2318726,4.016,0,0,0,0.206604,nan,4,11.821,1,128,0.315155,0.1278992,0.2390442,0.2453918,0.03515625,-0.01757812,0.001953125,1,3,0
43.285,0.001012,0.09960938,0.00390625,-0.04492188,0.546875,-6.75,7.445312,0.04101562,0.015625,-0.02734375,0.07226562,-0.02148438,0,-0.01208496,0.003540039,-0.1612549,0,0,-0.001342773,0.2301941,4.016,0,0,0,0.2045898,nan,4,11.831,1,128,0.1908264,0.2285461,0.1716309,0.3297424,0.03515625,-0.01757812,0.001953125,1,3,0.4603175
43.296,0.001011,-0.1699219,-0.03125,0.01171875,-1.304688,5.914062,13.21094,-0.07617188,-0.001953125,-0.00390625,0.07226562,-0.02148438,0,-0.01208496,0.003662109,-0.161499,0,0,-0.001342773,0.2285156,4.016,0,0,0,0.2025757,nan,4,11.841,1,128,0.2969971,0.1257935,0.2141724,0.2770386,0.03515625,-0.01757812,0.001953125,1,3,0
43.306,0.001011,0.02929688,-0.009765625,-0.02734375,1.882812,3.414062,12.92969,0.001953125,0.005859375,-0.00390625,0.07617188,-0.02148438,0,-0.01269531,0.003662109,-0.161377,0,0,-0.001342773,0.2268066,4.016,0,0,0,0.2006226,nan,4,11.851,1,128,0.2218933,0.1910706,0.1966858,0.2976074,0.03515625,-0.01757812,0.001953125,1,3,0
43.316,0.001011,0.03320312,-0.05859375,-0.01367188,2.570312,0.2421875,5.421875,0.02929688,-0.04882812,-0.01757812,0.07421875,-0.02148438,0,-0.0123291,0.003662109,-0.1616211,0,0,-0.001342773,0.2251282,4.016,0,0,0,0.1986084,nan,4,11.861,1,128,0.2442627,0.191925,0.1860046,0.2783508,0.03515625,-0.01757812,0.001953125,1,3,0
43.326,0.000966,-0.05664062,-0.01171875,-0.001953125,-2.773438,-6.546875,4.507812,-0.02929688,-0.02734375,-0.01367188,0.07421875,-0.01953125,0,-0.01245117,0.003417969,-0.1617432,0,0,-0.001342773,0.2234497,4.016,0,0,0,0.1965942,nan,4,11.872,1,128,0.2557678,0.1568298,0.1993408,0.2818909,0.03515625,-0.01757812,0.001953125,1,3,0
43.336,0.001031,0.03125,0.02539062,-0.0390625,-0.8671875,-3.195312,13.75781,0.009765625,0.04101562,-0.02734375,0.07617188,-0.02148438,0,-0.01269531,0.003417969,-0.1619873,0,0,-0.001342773,0.2215881,4.016,0,0,0,0.194397,nan,4,11.882,1,128,0.1994934,0.1875,0.1834106,0.3160095,0.03515625,-0.01757812,0.001953125,1,3,0
43.346,0.000982,0.02929688,-0.078125,-0.009765625,-2.140625,5.96875,12.61719,0.015625,-0.01171875,-0.03320312,0.07421875,-0.02148438,0,-0.01245117,0.003662109,-0.1623535,0,0,-0.001342773,0.2199097,4.016,0,0,0,0.1923828,nan,4,11.892,1,128,0.2428589,0.1731262,0.1879883,0.2756653,0.03613281,-0.01757812,0.001953125,1,3,0
43.356,0.001014,0.03320312,-0.06054688,-0.0390625,-0.1484375,4.6875,15.90625,-0.0234375,-0.06054688,-0.0234375,0.07617188,-0.01953125,0,-0.01269531,0.003173828,-0.1624756,0,0,-0.001342773,0.2182312,4.016,0,0,0,0.1903687,nan,4,11.902,1,128,0.2306824,0.1833496,0.171936,0.2869568,0.03613281,-0.01757812,0.001953125,1,3,0
43.366,0.001008,0.04296875,-0.05078125,-0.0078125,0.484375,9.421875,16.09375,0.02929688,0.00390625,-0.03515625,0.07617188,-0.01953125,0,-0.01269531,0.003173828,-0.1628418,0,0,-0.001342773,0.2165527,4.016,0,0,0,0.1884155,nan,4,11.912,1,128,0.2272034,0.166626,0.1976624,0.2747192,0.03613281,-0.01757812,0.001953125,1,3,0
43.376,0.001002,0.0546875,0.001953125,-0.0234375,0.0078125,5.820312,16.89062,-0.01757812,0.02929688,-0.02734375,0.07617188,-0.01953125,0,-0.01281738,0.003295898,-0.1630859,0,0,-0.001342773,0.2148743,4.016,0,0,0,0.1864014,nan,4,11.922,1,128,0.2073059,0.1748962,0.1735535,0.3036804,0.03613281,-0.01757812,0.001953125,1,3,0
43.385,0.001009,-0.03320312,-0.01757812,-0.009765625,0.90625,8.703125,18.39844,-0.01953125,-0.01367188,-0.0234375,0.078125,-0.01953125,0,-0.01293945,0.003417969,-0.1633301,0,0,-0.001342773,0.2133484,4.016,0,0,0,0.1845703,nan,4,11.931,1,128,0.2480774,0.1505737,0.1896362,0.2651062,0.03613281,-0.01757812,0.001953125,1,3,0
43.395,0.001009,0.09960938,0.01953125,-0.05664062,0.1484375,3.929688,16.00781,0.03125,-0.01757812,-0.04492188,0.078125,-0.01953125,0,-0.01306152,0.003173828,-0.1635742,0,0,-0.001342773,0.2116699,4.016,0,0,0,0.1826172,nan,4,11.941,1,128,0.1757507,0.2095337,0.1543579,0.3069763,0.03613281,-0.01757812,0.001953125,1,3,0
43.406,0.001009,-0.1171875,0.04101562,-0.03710938,0.296875,2.578125,13.27344,-0.01757812,-0.0234375,-0.02148438,0.078125,-0.01953125,0,-0.01293945,0.003173828,-0.1638184,0,0,-0.001342773,0.2099915,4.016,0,0,0,0.180603,nan,4,11.951,1,128,0.2398682,0.1503296,0.1727295,0.2770081,0.03613281,-0.01757812,0.001953125,1,3,0
43.416,0.001009,0.078125,-0.005859375,-0.02539062,0.8125,-6.539062,10.30469,0.009765625,0.06054688,-0.03125,0.08007812,-0.0234375,0,-0.01330566,0.00390625,-0.1641846,0,0,-0.001342773,0.2082825,4.016,0,0,0,0.1785889,nan,4,11.961,1,128,0.1998291,0.1710205,0.1807251,0.2816162,0.03613281,-0.01855469,0.001953125,1,3,0
43.426,0.001009,-0.07226562,-0.03515625,-0.009765625,0.140625,-4.226562,3.203125,-0.01171875,-0.01171875,-0.00390625,0.08007812,-0.0234375,0,-0.01318359,0.00402832,-0.1643066,0,0,-0.001342773,0.206604,4.016,0,0,0,0.1765747,nan,4,11.971,1,128,0.2594299,0.1294861,0.1939697,0.2435608,0.03613281,-0.01855469,0.001953125,1,3,0
43.436,0.001011,-0.03515625,0.05273438,-0.02539062,3.4375,0.03125,8.25,0.01757812,0.01757812,-0.02539062,0.08007812,-0.02539062,0,-0.01318359,0.004150391,-0.1645508,0,0,-0.001342773,0.2047424,4.016,0,0,0,0.1743774,nan,4,11.982,1,128,0.2017822,0.1648254,0.1656494,0.2867432,0.03613281,-0.01855469,0.001953125,1,3,0
43.446,0.001015,0.02734375,-0.03710938,-0.01757812,0.71875,4.015625,11.6875,-0.02148438,-0.00390625,-0.0078125,0.08007812,-0.02539062,0,-0.01330566,0.004150391,-0.1646729,0,0,-0.001342773,0.203064,4.016,0,0,0,0.1724243,nan,4,11.992,1,128,0.2268677,0.1430054,0.1761475,0.2662964,0.03613281,-0.01855469,0.001953125,1,3,0
43.456,0.001007,-0.01367188,-0.015625,0,-2.140625,4.007812,12.02344,0.01171875,-0.005859375,-0.02148438,0.08007812,-0.02539062,0,-0.01330566,0.004272461,-0.1647949,0,0,-0.001342773,0.2013855,4.016,0,0,0,0.1704102,nan,4,12.002,1,128,0.2196045,0.1481628,0.1753845,0.2623901,0.03613281,-0.01855469,0.001953125,1,3,0
43.466,0.001006,0.009765625,0.005859375,-0.03125,0.671875,-3.46875,9.070312,-0.009765625,-0.001953125,-0.02539062,0.08007812,-0.02539062,0,-0.01342773,0.004272461,-0.1650391,0,0,-0.001342773,0.199707,4.016,0,0,0,0.168396,nan,4,12.012,1,128,0.1985168,0.161438,0.15448,0.2843933,0.03710938,-0.01855469,0.001953125,1,3,0.2063492
43.476,0.001035,-0.04492188,0.02539062,-0.01171875,0.453125,-3.554688,4.648438,-0.0078125,0.01953125,-0.02148438,0.08007812,-0.02734375,0,-0.01330566,0.004394531,-0.1652832,0,0,-0.001342773,0.1980286,4.016,0,0,0,0.1663818,nan,4,12.022,1,128,0.2239075,0.1311646,0.1771545,0.2598572,0.03710938,-0.01855469,0.001953125,1,3,0
43.486,0.001052,-0.01757812,0.02148438,-0.04492188,-2.46875,4.359375,13.85156,-0.001953125,0.015625,-0.03515625,0.08007812,-0.02734375,0,-0.01342773,0.004638672,-0.1655273,0,0,-0.001342773,0.1965027,4.016,0,0,0,0.1646118,nan,4,12.031,1,128,0.1846924,0.165863,0.1432495,0.2922058,0.03710938,-0.01855469,0.001953125,1,3,0
43.496,0.000983,-0.02148438,-0.015625,-0.009765625,-2.835938,-6.21875,2.429688,0,-0.005859375,-0.015625,0.08007812,-0.02734375,0,-0.01330566,0.004516602,-0.1657715,0,0,-0.001342773,0.1948242,4.016,0,0,0,0.1625977,nan,4,12.041,1,128,0.2273254,0.1242981,0.179718,0.2479553,0.03710938,-0.01855469,0.001953125,1,3,0
43.506,0.001041,0.01757812,-0.01757812,-0.0390625,-0.3515625,6.398438,10.39844,0.015625,0.001953125,-0.02734375,0.08007812,-0.02734375,0,-0.01330566,0.004516602,-0.1660156,0,0,-0.001342773,0.1931458,4.016,0,0,0,0.1605835,nan,4,12.051,1,128,0.1907349,0.1535645,0.1542053,0.2740479,0.03710938,-0.01855469,0.001953125,1,3,0
43.516,0.001011,-0.0234375,-0.015625,-0.04101562,1.945312,-1.390625,13.65625,0,0.001953125,-0.0234375,0.08007812,-0.02734375,0,-0.01318359,0.004516602,-0.1662598,0,0,-0.001342773,0.1914368,4.016,0,0,0,0.1585693,nan,4,12.061,1,128,0.2012329,0.1400757,0.1575623,0.2669373,0.03710938,-0.01855469,0.001953125,1,3,0
43.526,0.001012,0.0390625,0.0546875,-0.03710938,2.421875,5.476562,13.47656,0.01953125,0.02148438,-0.03710938,0.078125,-0.02539062,0,-0.01318359,0.004394531,-0.1665039,0,0,-0.001342773,0.1897583,4.016,0,0,0,0.1566162,nan,4,12.071,1,128,0.1732178,0.1528931,0.148468,0.2844849,0.03710938,-0.01855469,0.001953125,1,3,0
43.536,0.001009,0.03125,-0.05078125,-0.05273438,1.484375,-3.554688,12.11719,0.001953125,0.009765625,-0.02539062,0.08007812,-0.02929688,0,-0.01318359,0.004760742,-0.166748,0,0,-0.001342773,0.1880798,4.016,0,0,0,0.1546021,nan,4,12.082,1,128,0.1929016,0.1523438,0.1427307,0.2643738,0.03710938,-0.01855469,0.001953125,1,3,0
43.546,0.001006,-0.0546875,0.01171875,-0.0078125,0.6875,2.476562,10.21875,-0.015625,-0.02539062,-0.015625,0.078125,-0.02734375,0,-0.01306152,0.004638672,-0.1669922,0,0,-0.001342773,0.1862183,4.016,0,0,0,0.1524048,nan,4,12.092,1,128,0.2306213,0.1114197,0.1655579,0.2373352,0.03710938,-0.01855469,0.001953125,1,3,0
43.556,0.001,-0.03125,-0.001953125,-0.02929688,0.7890625,-7.710938,9.132812,0.001953125,0.00390625,-0.0234375,0.078125,-0.02734375,0,-0.01318359,0.004638672,-0.1672363,0,0,-0.001342773,0.1845398,4.016,0,0,0,0.1503906,nan,4,12.102,1,128,0.1845703,0.1404419,0.1438293,0.2693176,0.03710938,-0.01855469,0.001953125,1,3,0
43.566,0.001008,0.05664062,0.01757812,-0.02539062,2.203125,4.867188,17.57031,-0.009765625,0.001953125,-0.02148438,0.08007812,-0.02734375,0,-0.01330566,0.004638672,-0.1673584,0,0,-0.001342773,0.1828613,4.016,0,0,0,0.1483765,nan,4,12.112,1,128,0.1877747,0.1329041,0.1505127,0.2602539,0.03710938,-0.01855469,0.001953125,1,3,0
43.576,0.001011,-0.009765625,0.02539062,-0.02734375,3.710938,-2.554688,6.351562,0.01171875,0.001953125,-0.0234375,0.08007812,-0.02734375,0,-0.01330566,0.004516602,-0.1676025,0,0,-0.001342773,0.1811829,4.016,0,0,0,0.1464233,nan,4,12.122,1,128,0.1892395,0.1296082,0.1543274,0.2515259,0.03710938,-0.01855469,0.001953125,1,3,0
43.585,0.001016,-0.03320312,-0.001953125,-0.02929688,1.132812,-1.789062,13.02344,-0.01171875,-0.0234375,-0.015625,0.08007812,-0.02734375,0,-0.01318359,0.004516602,-0.1678467,0,0,-0.001342773,0.179657,4.016,0,0,0,0.1445923,nan,4,12.131,1,128,0.2070923,0.1202393,0.1455994,0.2457275,0.03808594,-0.01855469,0.001953125,1,3,0
43.595,0.001016,-0.06445312,0.06640625,-0.01953125,-0.5859375,7.484375,11.54688,-0.04101562,0.03515625,-0.02929688,0.08007812,-0.02734375,0,-0.01330566,0.004516602,-0.1680908,0,0,-0.001342773,0.1779785,4.016,0,0,0,0.1425781,nan,4,12.141,1,128,0.1913757,0.1073303,0.1457214,0.2674866,0.03808594,-0.01855469,0.001953125,1,3,0
43.606,0.001016,0.005859375,-0.046875,-0.02734375,1.320312,-0.53125,4.351562,0.01953125,-0.02539062,-0.02148438,0.08007812,-0.02734375,0,-0.01330566,0.004516602,-0.168335,0,0,-0.001342773,0.1763,4.016,0,0,0,0.140625,nan,4,12.151,1,128,0.187439,0.1379395,0.1386108,0.2411499,0.03808594,-0.01855469,0.001953125,1,3,0
43.616,0.001018,0.01171875,-0.02148438,-0.0078125,-2.679688,-5.09375,9.203125,0.015625,-0.001953125,-0.01757812,0.078125,-0.02734375,0,-0.01306152,0.004516602,-0.1685791,0,0,-0.1685791,0.1769714,4.016,0,0,0,0.1400146,nan,4,12.161,1,128,0.1915894,0.1616821,0.1800232,0.1745911,0,0,0,1,6,0
43.625,0.001021,0.046875,-0.0078125,-0.06835938,-2.65625,-0.4765625,2.8125,0.015625,-0.005859375,-0.04101562,0.078125,-0.02734375,0,-0.01318359,0.004394531,-0.1687012,0,0,-0.1687012,0.1784973,4.016,0,0,0,0.1400146,nan,4,12.171,1,128,0.1333313,0.221405,0.134552,0.2246704,0,0,0,1,6,0
43.636,0.001025,-0.0390625,0.04296875,-0.02148438,0.9921875,-1.3125,6.382812,-0.009765625,0,-0.009765625,0.078125,-0.02539062,0,-0.01318359,0.004272461,-0.1690674,0,0,-0.1690674,0.1803284,4.016,0,0,0,0.1400146,nan,4,12.182,1,128,0.2003479,0.1527405,0.1922913,0.1759338,0,0,0,1,6,0
43.646,0.001005,-0.01171875,0.08984375,-0.01367188,-2.78125,-5.609375,11.08594,0.01757812,0.02734375,-0.02539062,0.078125,-0.02539062,0,-0.01306152,0.004394531,-0.1693115,0,0,-0.1693115,0.1820068,4.016,0,0,0,0.1400146,nan,4,12.192,1,128,0.1712646,0.1763306,0.1809998,0.1994629,0,0,0,1,6,0
43.656,0.001033,0.078125,-0.02539062,-0.02734375,-0.78125,6.101562,11.98438,0,-0.001953125,-0.009765625,0.078125,-0.02734375,0,-0.01318359,0.004516602,-0.1694336,0,0,-0.1694336,0.1837158,4.016,0,0,0,0.1400146,nan,4,12.202,1,128,0.1859741,0.1835022,0.1806946,0.1846924,0,0,0,1,6,0
43.665,0.000982,0.02539062,-0.0390625,-0.0234375,-0.65625,1.773438,12.33594,0.009765625,-0.0078125,-0.0234375,0.078125,-0.02734375,0,-0.01306152,0.004638672,-0.1695557,0,0,-0.1695557,0.1852112,4.016,0,0,0,0.1400146,nan,4,12.211,1,128,0.1801758,0.1939087,0.168396,0.1983643,0,0,0,1,6,0
43.675,0.000966,0.01171875,-0.05273438,0.015625,2.0625,2.890625,11.23438,-0.009765625,-0.01953125,0.00390625,0.078125,-0.02734375,0,-0.01306152,0.004516602,-0.1696777,0,0,-0.1696777,0.1868896,4.016,0,0,0,0.1400146,nan,4,12.221,1,128,0.2243958,0.1537476,0.2053223,0.164093,0.0009765625,0,0,1,6,0
43.685,0.001004,0.05664062,0.01367188,0,-0.4453125,-5.15625,10.32031,0.009765625,0.03320312,0.001953125,0.078125,-0.02734375,0,-0.01318359,0.004638672,-0.1695557,0,0,-0.1695557,0.1885681,4.016,0,0,0,0.1400146,nan,4,12.231,1,128,0.1769714,0.1837158,0.1930237,0.2006226,0.0009765625,0,0,1,6,0
43.696,0.001025,0.02148438,-0.02539062,0,0.7734375,3.21875,16.64062,0.02929688,0,-0.009765625,0.078125,-0.02929688,0,-0.01293945,0.004760742,-0.1697998,0,0,-0.1697998,0.1902771,4.016,0,0,0,0.1400146,nan,4,12.241,1,128,0.1999817,0.1829224,0.1951904,0.1829834,0.0009765625,0,0,1,6,0
43.706,0.000991,-0.03515625,-0.009765625,0.0546875,-2.21875,-3.679688,-0.3359375,-0.02539062,-0.0234375,0.01757812,0.078125,-0.02734375,0,-0.01306152,0.004638672,-0.1697998,0,0,-0.1697998,0.1919556,4.016,0,0,0,0.1400146,nan,4,12.251,1,128,0.2487183,0.138031,0.2243958,0.1566467,0.0009765625,0,0,1,6,0
43.716,0.001011,-0.06445312,0.08007812,0.04492188,2.5625,5.132812,19.50781,-0.02734375,0.01171875,0.04101562,0.08007812,-0.02734375,0,-0.01318359,0.004516602,-0.1694336,0,0,-0.1694336,0.193634,4.016,0,0,0,0.1400146,nan,4,12.261,1,128,0.2330933,0.1383057,0.2286987,0.174408,0.0009765625,0,0,1,6,0
43.726,0.001011,0.01367188,0.0546875,-0.00390625,0.078125,-8.21875,5.453125,0.03320312,0.0390625,0,0.08007812,-0.02929688,0,-0.01318359,0.004882812,-0.1693115,0,0,-0.1693115,0.1953125,4.016,0,0,0,0.1400146,nan,4,12.271,1,128,0.1597595,0.2183838,0.1737976,0.2293091,0.0009765625,0,0,1,6,0.8571429
43.736,0.001019,-0.015625,-0.04101562,-0.01367188,-2.554688,5.640625,11.13281,0.0078125,-0.02929688,-0.0078125,0.078125,-0.02929688,0,-0.01306152,0.004882812,-0.1693115,0,0,-0.1693115,0.196991,4.016,0,0,0,0.1400146,nan,4,12.282,1,128,0.1950378,0.2096558,0.1730042,0.2102966,0.0009765625,0,0,1,6,0
43.746,0.001018,0.005859375,0.02929688,0.009765625,1.398438,-3.960938,10.78906,-0.009765625,-0.01757812,0.009765625,0.08007812,-0.02734375,0,-0.01330566,0.004638672,-0.1694336,0,0,-0.1694336,0.1986694,4.016,0,0,0,0.1400146,nan,4,12.292,1,128,0.2297668,0.1637878,0.2226257,0.1785278,0.0009765625,0,0,1,6,0
43.756,0.001016,-0.04296875,0.09570312,0.03125,-0.8671875,1.367188,5.59375,-0.04296875,0.06445312,0.02734375,0.08007812,-0.02929688,0,-0.01342773,0.005004883,-0.1693115,0,0,-0.1693115,0.2003784,4.016,0,0,0,0.1400146,nan,4,12.302,1,128,0.2324829,0.1433411,0.2320557,0.193573,0.0009765625,0,0,1,6,0
43.765,0.001002,-0.1113281,0.01757812,0.03320312,1.53125,4.710938,14.79688,-0.005859375,-0.005859375,0.03125,0.08203125,-0.03125,0,-0.0135498,0.005249023,-0.1690674,0,0,-0.1690674,0.2018738,4.016,0,0,0,0.1400146,nan,4,12.311,1,128,0.2329712,0.1782837,0.2110596,0.1852112,0.0009765625,-0.0009765625,0,1,6,0
43.775,0.000999,-0.02734375,0.1933594,-0.03125,-0.9140625,4.078125,15.92969,0.0078125,0.09765625,0.005859375,0.08203125,-0.03320312,0,-0.01367188,0.005615234,-0.1688232,0,0,-0.1688232,0.2035522,4.021,0,0,0,0.1400146,nan,4,12.321,1,128,0.1534119,0.2110901,0.1869507,0.2627869,0.0009765625,-0.0009765625,0,1,6,0
43.785,0.000995,0.04492188,-0.03125,-0.009765625,-1.6875,-0.015625,3.742188,0.0078125,0.02929688,-0.03320312,0.08203125,-0.03710938,0,-0.01367188,0.006225586,-0.1690674,0,0,-0.1690674,0.2052612,4.021,0,0,0,0.1400146,nan,4,12.331,1,128,0.1825562,0.2271118,0.1750183,0.2363586,0.0009765625,-0.0009765625,0,1,6,0
43.795,0.001018,-0.0234375,0.01367188,-0.01953125,0.8515625,4.992188,17.97656,-0.02539062,-0.01367188,-0.01953125,0.08398438,-0.03710938,0,-0.01379395,0.006225586,-0.1693115,0,0,-0.1693115,0.2069397,4.021,0,0,0,0.1400146,nan,4,12.341,1,128,0.2207336,0.1917114,0.2025146,0.2127686,0.001953125,-0.0009765625,0,1,6,0
43.806,0.001018,-0.015625,-0.009765625,-0.03320312,-0.65625,-4.992188,7.265625,-0.00390625,0.00390625,-0.02734375,0.08398438,-0.03710938,0,-0.01391602,0.006225586,-0.1695557,0,0,-0.1695557,0.2086182,4.021,0,0,0,0.1400146,nan,4,12.351,1,128,0.1930542,0.217865,0.1864014,0.2371216,0.001953125,-0.0009765625,0,1,6,0
43.816,0.001018,0.02734375,-0.05859375,-0.03125,0.0078125,2.421875,5.59375,0.01367188,-0.00390625,-0.02929688,0.08203125,-0.03710938,0,-0.01379395,0.006225586,-0.1697998,0,0,-0.1697998,0.2102966,4.021,0,0,0,0.1400146,nan,4,12.361,1,128,0.2011719,0.2193909,0.190155,0.2304688,0.001953125,-0.0009765625,0,1,6,0
43.826,0.001018,-0.0390625,-0.001953125,-0.03125,0.2890625,2.5625,16.89844,0.001953125,-0.00390625,-0.02734375,0.08203125,-0.03710938,0,-0.01367188,0.006103516,-0.1700439,0,0,-0.1700439,0.2119751,4.021,0,0,0,0.1400146,nan,4,12.371,1,128,0.2038574,0.2137756,0.1954956,0.2347412,0.001953125,-0.0009765625,0,1,6,0
43.836,0.001018,0.009765625,0.01953125,-0.08789062,-0.65625,-7.625,6.632812,0.005859375,0.0234375,-0.07226562,0.08203125,-0.03710938,0,-0.01367188,0.006225586,-0.1706543,0,0,-0.1706543,0.2136536,4.021,0,0,0,0.1400146,nan,4,12.382,1,128,0.1537781,0.260498,0.1554565,0.2849121,0.001953125,-0.0009765625,0,1,6,0.2222222
43.846,0.001017,0.03515625,-0.03125,-0.09765625,1.59375,9.390625,12.89844,0.01757812,-0.01367188,-0.08984375,0.08203125,-0.03710938,0,-0.01367188,0.006225586,-0.1715088,0,0,-0.1715088,0.2153625,4.021,0,0,0,0.1400146,nan,4,12.392,1,128,0.1721802,0.2590637,0.1665344,0.2636414,0.001953125,-0.0009765625,0,1,6,0
43.856,0.001016,-0.001953125,-0.09960938,-0.04101562,-2.492188,-2.75,7.34375,-0.009765625,-0.04492188,-0.05273438,0.08203125,-0.03515625,0,-0.01379395,0.005981445,-0.1721191,0,0,-0.1721191,0.217041,4.021,0,0,0,0.1400146,nan,4,12.402,1,128,0.2445068,0.1990662,0.2190552,0.2054749,0.001953125,-0.0009765625,0,1,6,0
43.866,0.00102,0.01171875,0.06445312,-0.0546875,1.34375,-0.6953125,5.609375,0,0.02929688,-0.03515625,0.08203125,-0.03515625,0,-0.01379395,0.005859375,-0.1724854,0,0,-0.1724854,0.2187195,4.021,0,0,0,0.1400146,nan,4,12.412,1,128,0.1990967,0.2145691,0.2086792,0.2525024,0.001953125,-0.0009765625,0,1,6,0
43.876,0.001007,-0.01757812,0.01757812,-0.08984375,-0.5546875,6.515625,14.24219,0.00390625,0.03320312,-0.0703125,0.08203125,-0.03710938,0,-0.01367188,0.006103516,-0.1729736,0,0,-0.1729736,0.2203979,4.021,0,0,0,0.1400146,nan,4,12.422,1,128,0.1617432,0.2642822,0.1594543,0.2961121,0.001953125,-0.0009765625,0,1,6,0
43.885,0.001065,0.04296875,-0.1132812,-0.05078125,-2.757812,4.015625,13.02344,0.00390625,-0.005859375,-0.06445312,0.08203125,-0.03710938,0,-0.01367188,0.006347656,-0.173584,0,0,-0.173584,0.2219238,4.021,0,0,0,0.1400146,nan,4,12.431,1,128,0.2209473,0.228363,0.2025757,0.2358093,0.001953125,-0.0009765625,0,1,6,0
43.896,0.001009,0.08789062,-0.1230469,-0.001953125,1.929688,2.390625,11.28906,0.01171875,-0.03125,-0.02734375,0.08203125,-0.03710938,0,-0.0135498,0.006103516,-0.1741943,0,0,-0.1739502,0,4.021,0,0,0,0.1400146,nan,4,12.442,0,0,0,0,0,0,0,0,0,1,6,0
43.905,0.001011,-0.0078125,0.08789062,-0.02539062,-1.4375,1.835938,16.5,0.015625,0.005859375,-0.005859375,0.08203125,-0.03710938,0,-0.0135498,0.005981445,-0.1741943,0,0,-0.1739502,0,4.021,0,0,0,0.1400146,nan,4,12.451,0,0,0,0,0,0,0,0,0,1,6,0
43.916,0.001011,0.001953125,0.01367188,-0.046875,-3.328125,4.273438,8.703125,0.00390625,0.02929688,-0.03125,0.08203125,-0.03710938,0,-0.01330566,0.006103516,-0.1744385,0,0,-0.1739502,0,4.021,0,0,0,0.1400146,nan,4,12.461,0,0,0,0,0,0,0,0,0,1,6,1
43.926,0.001011,-0.0234375,-0.04492188,0.01367188,-4.109375,4.921875,8.460938,-0.01367188,-0.01953125,-0.00390625,0.08203125,-0.03710938,0,-0.01330566,0.006103516,-0.1745605,0,0,-0.1739502,0,4.021,0,0,0,0.1400146,nan,4,12.471,0,0,0,0,0,0,0,0,0,1,6,1
43.936,0.001011,0.02929688,0,0.005859375,-0.28125,-2.625,12.32812,0.0078125,0.01171875,0.01367188,0.08203125,-0.03710938,0,-0.0135498,0.005981445,-0.1745605,0,0,-0.1739502,0,4.021,0,0,0,0.1400146,nan,4,12.482,0,0,0,0,0,0,0,0,0,1,6,0
43.946,0.001033,0.0390625,0.09765625,-0.0390625,-2.15625,3.296875,10.21875,0.03710938,0.03320312,-0.02148438,0.08203125,-0.03710938,0,-0.01342773,0.006103516,-0.1745605,0,0,-0.1739502,0,4.021,0,0,0,0.1400146,nan,4,12.492,0,0,0,0,0,0,0,0,0,1,6,0
43.956,0.000991,0.01757812,-0.00390625,-0.04296875,-0.6328125,1.71875,5.40625,-0.0078125,-0.001953125,-0.03710938,0.08203125,-0.03710938,0,-0.01330566,0.006347656,-0.1749268,0,0,-0.1739502,0,4.021,0,0,0,0.1400146,nan,4,12.502,0,0,0,0,0,0,0,0,0,1,6,0
43.966,0.0009860001,0.02929688,0,-0.0390625,0.640625,1.632812,6.78125,-0.009765625,-0.01757812,-0.03710938,0.08203125,-0.03710938,0,-0.0135498,0.006225586,-0.175293,0,0,-0.1739502,0,4.021,0,0,0,0.1400146,nan,4,12.512,0,0,0,0,0,0,0,0,0,1,6,0
43.976,0.000991,-0.0703125,-0.03320312,-0.07226562,1.640625,1.421875,15.10156,-0.015625,0.005859375,-0.06054688,0.08203125,-0.03710938,0,-0.0135498,0.006225586,-0.1756592,0,0,-0.1739502,0,4.021,0,0,0,0.1400146,nan,4,12.522,0,0,0,0,0,0,0,0,0,1,6,0
43.986,0.001011,0.009765625,0.01367188,-0.07421875,-1.046875,0.1953125,6.007812,-0.0078125,-0.03125,-0.06445312,0.08203125,-0.03710938,0,-0.01342773,0.006103516,-0.1763916,0,0,-0.1739502,0,4.021,0,0,0,0.1400146,nan,4,12.532,0,0,0,0,0,0,0,0,0,1,6,0
43.996,0.000992,0.005859375,-0.01171875,-0.04296875,0.28125,0.859375,11.41406,0.0078125,0.005859375,-0.04492188,0.08203125,-0.03710938,0,-0.01330566,0.006103516,-0.1768799,0,0,-0.1739502,0,4.021,0,0,0,0.1400146,nan,4,12.542,0,0,0,0,0,0,0,0,0,1,6,0
44.005,0.001008,-0.03125,0.009765625,-0.04882812,-0.2734375,-0.296875,8.382812,0.01171875,0.01367188,-0.0390625,0.08203125,-0.03710938,0,-0.01342773,0.006225586,-0.1772461,0,0,-0.1739502,0,4.021,0,0,0,0.1400146,nan,4,12.551,0,0,0,0,0,0,0,0,0,1,6,0
44.015,0.001007,0.04296875,0.0390625,-0.0625,-0.578125,0.9296875,11.21875,0.0078125,0.00390625,-0.0546875,0.08203125,-0.03710938,0,-0.01342773,0.006225586,-0.1777344,0,0,-0.1739502,0,4.021,0,0,0,0.1400146,nan,4,12.561,0,0,0,0,0,0,0,0,0,1,6,0
44.026,0.000988,0.02148438,0,-0.08007812,-1.257812,-1.742188,12.14844,0.02539062,-0.005859375,-0.07421875,0.08203125,-0.03710938,0,-0.01330566,0.006103516,-0.1783447,0,0,-0.1739502,0,4.021,0,0,0,0.1400146,nan,4,12.571,0,0,0,0,0,0,0,0,0,1,6,0
44.036,0.001007,0.04296875,-0.0078125,-0.02929688,-0.3515625,0.9453125,7.40625,0.009765625,-0.001953125,-0.0390625,0.08203125,-0.03710938,0,-0.01318359,0.006103516,-0.1789551,0,0,-0.1739502,0,4.021,0,0,0,0.1400146,nan,4,12.582,0,0,0,0,0,0,0,0,0,1,6,0
44.046,0.001008,-0.005859375,-0.01953125,0.02539062,0.109375,-2.671875,10.64062,-0.01757812,-0.01171875,0.001953125,0.08203125,-0.03710938,0,-0.01330566,0.005981445,-0.1790771,0,0,-0.1739502,0,4.021,0,0,0,0.1400146,nan,4,12.592,0,0,0,0,0,0,0,0,0,1,6,0
44.056,0.00098,-0.0078125,0.01953125,-0.04296875,-0.265625,0.1875,12.42188,-0.01757812,0.001953125,-0.015625,0.08203125,-0.03710938,0,-0.01330566,0.005859375,-0.1790771,0,0,-0.1739502,0,4.021,0,0,0,0.1400146,nan,4,12.602,0,0,0,0,0,0,0,0,0,1,6,0
44.066,0.001006,0.001953125,-0.01757812,-0.06835938,-0.90625,0.578125,11.53125,-0.0078125,0.0078125,-0.0546875,0.08203125,-0.03710938,0,-0.01318359,0.005859375,-0.1795654,0,0,-0.1739502,0,4.021,0,0,0,0.1400146,nan,4,12.612,0,0,0,0,0,0,0,0,0,1,6,0
44.076,0.001026,0.01171875,0.0234375,-0.046875,-1.0625,-1.460938,13.64844,-0.0078125,0.0078125,-0.046875,0.08203125,-0.03710938,0,-0.01306152,0.005981445,-0.1800537,0,0,-0.1739502,0,4.021,0,0,0,0.1400146,nan,4,12.622,0,0,0,0,0,0,0,0,0,1,6,0
44.086,0.001008,-0.009765625,-0.015625,0.00390625,0.5546875,-2.335938,15.13281,-0.001953125,0,-0.015625,0.08203125,-0.03710938,0,-0.01293945,0.005981445,-0.1804199,0,0,-0.1739502,0,4.021,0,0,0,0.1400146,nan,4,12.632,0,0,0,0,0,0,0,0,0,1,6,0
44.096,0.001007,0.0078125,-0.01367188,0.02734375,0.2734375,-1.09375,15.59375,-0.0078125,-0.01171875,0.01171875,0.08203125,-0.03710938,0,-0.01306152,0.005859375,-0.1804199,0,0,-0.1739502,0,4.021,0,0,0,0.1400146,nan,4,12.642,0,0,0,0,0,0,0,0,0,1,6,0
44.105,0.0009860001,0.0078125,-0.0390625,0.01757812,-0.671875,-1.46875,13.50781,0.02539062,-0.00390625,0.01953125,0.08203125,-0.03710938,0,-0.01293945,0.005859375,-0.1801758,0,0,-0.1739502,0,4.021,0,0,0,0.1400146,nan,4,12.651,0,0,0,0,0,0,0,0,0,1,6,0
44.115,0.001006,-0.005859375,0.009765625,-0.01953125,2.164062,4.25,15.92188,0.0078125,0.015625,-0.00390625,0.08203125,-0.03710938,0,-0.01293945,0.005859375,-0.1801758,0,0,-0.1739502,0,4.021,0,0,0,0.1400146,nan,4,12.661,0,0,0,0,0,0,0,0,0,1,6,0
44.126,0.001007,0.05859375,0.0234375,0.01171875,0.2734375,-0.8984375,13.69531,0.0078125,0,-0.001953125,0.08203125,-0.03710938,0,-0.01293945,0.005859375,-0.1801758,0,0,-0.1739502,0,4.021,0,0,0,0.1400146,nan,4,12.671,0,0,0,0,0,0,0,0,0,1,6,0
44.136,0.001027,0.01953125,-0.001953125,-0.00390625,-1.515625,-0.046875,10.59375,0.009765625,-0.001953125,-0.01953125,0.08203125,-0.03710938,0,-0.01281738,0.005981445,-0.1802979,0,0,-0.1739502,0,4.021,0,0,0,0.1400146,nan,4,12.682,0,0,0,0,0,0,0,0,0,1,6,1
44.146,0.001048,-0.001953125,0.0546875,-0.01171875,-2.664062,-2.890625,8.40625,-0.005859375,0.01171875,-0.015625,0.08203125,-0.03710938,0,-0.01269531,0.005981445,-0.180542,0,0,-0.1739502,0,4.021,0,0,0,0.1400146,nan,4,12.692,0,0,0,0,0,0,0,0,0,1,6,1
44.156,0.001007,-0.0625,-0.02148438,-0.009765625,-0.6328125,-5.25,9.335938,-0.01367188,-0.00390625,-0.01367188,0.08203125,-0.03710938,0,-0.01269531,0.005981445,-0.1806641,0,0,-0.1739502,0,4.021,0,0,0,0.1400146,nan,4,12.702,0,0,0,0,0,0,0,0,0,1,6,1
44.166,0.001001,-0.009765625,0.05273438,-0.015625,-3.445312,-3.242188,10.84375,0.001953125,0.01171875,-0.02148438,0.08203125,-0.03710938,0,-0.01281738,0.005981445,-0.1807861,0,0,-0.1739502,0,4.021,0,0,0,0.1400146,nan,4,12.712,0,0,0,0,0,0,0,0,0,1,6,0
44.176,0.001007,-0.01367188,-0.02148438,-0.02539062,0.046875,3.890625,8.789062,-0.00390625,-0.00390625,-0.02929688,0.08203125,-0.03710938,0,-0.01281738,0.005981445,-0.1811523,0,0,-0.1739502,0,4.021,0,0,0,0.1400146,nan,4,12.722,0,0,0,0,0,0,0,0,0,1,6,1
44.186,0.001016,0.03125,-0.01171875,0.001953125,1.828125,1.34375,9.71875,0,0.001953125,-0.00390625,0.08203125,-0.03710938,0,-0.01269531,0.005981445,-0.1812744,0,0,-0.1739502,0,4.021,0,0,0,0.1400146,nan,4,12.732,0,0,0,0,0,0,0,0,0,1,6,1
44.195,0.001018,-0.05078125,-0.009765625,0.01171875,0.4140625,-0.6796875,8.976562,-0.00390625,0.001953125,0.00390625,0.08203125,-0.03710938,0,-0.01245117,0.005981445,-0.1812744,0,0,-0.1739502,0,4.021,0,0,0,0.1400146,nan,4,12.741,0,0,0,0,0,0,0,0,0,1,6,1
44.205,0.000995,0.0546875,-0.00390625,0.01171875,0.0703125,0.0703125,10.32812,0.0078125,0,0.005859375,0.08203125,-0.03710938,0,-0.01245117,0.005859375,-0.1811523,0,0,-0.1739502,0,4.021,0,0,0,0.1400146,nan,4,12.751,0,0,0,0,0,0,0,0,0,1,6,1
44.215,0.001016,0.01367188,0.0078125,-0.02148438,0.2578125,1.921875,10.32812,0.00390625,0,-0.00390625,0.08203125,-0.03710938,0,-0.0123291,0.005859375,-0.1811523,0,0,-0.1739502,0,4.021,0,0,0,0.1400146,nan,4,12.761,0,0,0,0,0,0,0,0,0,1,6,1
44.226,0.001053,-0.001953125,-0.00390625,0.001953125,-0.5546875,0.8984375,9.625,0,-0.005859375,-0.001953125,0.08203125,-0.03710938,0,-0.01220703,0.005859375,-0.1811523,0,0,-0.1739502,0,4.021,0,0,0,0.1400146,nan,4,12.771,0,0,0,0,0,0,0,0,0,1,6,1
44.236,0.001016,-0.0078125,0.02148438,0.0234375,-0.7109375,-0.59375,9.8125,-0.001953125,0.001953125,0.00390625,0.08203125,-0.03710938,0,-0.01220703,0.005737305,-0.1811523,0,0,-0.1739502,0,4.021,0,0,0,0.1400146,nan,4,12.782,0,0,0,0,0,0,0,0,0,1,6,1
44.246,0.000996,-0.009765625,0.0078125,0.02539062,-1.273438,-1.101562,10.39844,0.001953125,0,0.00390625,0.08203125,-0.03710938,0,-0.01208496,0.005737305,-0.1811523,0,0,-0.1739502,0,4.021,0,0,0,0,nan,4,0.001,0,0,0,0,0,0,0,0,0,1,6,1
44.256,0.001013,-0.005859375,0.1015625,0.005859375,-2.421875,-2.078125,12.04688,-0.009765625,0.015625,-0.00390625,0.08203125,-0.03710938,0,-0.01208496,0.005737305,-0.1812744,0,0,-0.1739502,0,4.021,0,0,0,0,nan,4,0.011,0,0,0,0,0,0,0,0,0,1,6,0
44.266,0.001002,-0.03320312,0.0234375,0.01171875,-0.0703125,-0.5234375,8.835938,-0.0078125,0.01367188,-0.001953125,0.08203125,-0.03710938,0,-0.01208496,0.005737305,-0.1812744,0,0,-0.1739502,0,4.021,0,0,0,0,nan,4,0.021,0,0,0,0,0,0,0,0,0,1,6,1
44.276,0.001042,-0.02148438,-0.04296875,0.001953125,1.0625,1.546875,8.195312,0.001953125,-0.009765625,-0.001953125,0.08203125,-0.03710938,0,-0.01208496,0.005737305,-0.1811523,0,0,-0.1739502,0,4.021,0,0,0,0,nan,4,0.031,0,0,0,0,0,0,0,0,0,1,6,0
44.285,0.001041,0.0625,-0.1035156,0.0234375,1.1875,0.875,7.648438,0.009765625,-0.009765625,0.0078125,0.08203125,-0.03710938,0,-0.01208496,0.005737305,-0.1811523,0,0,-0.1739502,0,4.021,0,0,0,0,nan,4,0.04,0,0,0,0,0,0,0,0,0,1,6,0
44.295,0.001036,0.02148438,-0.09960938,0.01953125,0.859375,0.9375,7.625,0.0078125,-0.03515625,0.0078125,0.08203125,-0.03710938,0,-0.01208496,0.005737305,-0.1811523,0,0,-0.1739502,0,4.021,0,0,0,0,nan,4,0.05,0,0,0,0,0,0,0,0,0,1,6,0
44.306,0.001056,0.005859375,-0.07617188,-0.01953125,1.5,1.15625,7.882812,0.005859375,-0.01367188,-0.01171875,0.08203125,-0.03710938,0,-0.01208496,0.005615234,-0.1811523,0,0,-0.1739502,0,4.021,0,0,0,0,nan,4,0.061,0,0,0,0,0,0,0,0,0,1,6,0
44.316,0.001028,0.08203125,-0.05664062,0.00390625,0.0234375,0.3203125,9.0625,0.01171875,-0.00390625,-0.00390625,0.08203125,-0.03710938,0,-0.01196289,0.005615234,-0.1811523,0,0,-0.1739502,0,4.021,0,0,0,0,nan,4,0.001,0,0,0,0,0,0,0,0,0,1,6,1
44.326,0.000991,-0.01757812,0.0234375,-0.02539062,0.109375,-0.1875,10.92969,-0.009765625,0.0078125,-0.005859375,nan,nan,nan,-0.01196289,0.005615234,-0.1811523,nan,nan,nan,0,4.021,0,0,0,0,nan,2,0.011,0,0,0,0,0,0,0,0,0,1,6,0
44.336,0.001015,-0.0390625,0.00390625,0.015625,0.0546875,-0.390625,9.046875,-0.005859375,0,0,nan,nan,nan,-0.01184082,0.005615234,-0.1811523,0,0,-0.1811523,0,4.021,0,0,0,0,nan,2,0.021,0,0,0,0,0,0,0,0,0,1,2,1
44.346,0.000985,0.04492188,0.00390625,-0.005859375,-0.390625,0.125,10.69531,0.009765625,0.005859375,0.00390625,nan,nan,nan,-0.01184082,0.005615234,-0.1811523,0,0,-0.1811523,0,4.021,0,0,0,0,nan,2,0.031,0,0,0,0,0,0,0,0,0,1,2,1
44.356,0.000997,-0.03320312,-0.0078125,0.001953125,0.375,-0.7109375,8.929688,0,-0.005859375,0.00390625,nan,nan,nan,-0.01171875,0.005615234,-0.1811523,0,0,-0.1811523,0,4.021,0,0,0,0,nan,2,0.041,0,0,0,0,0,0,0,0,0,1,2,1
44.365,0.000694,-0.00390625,0.009765625,0.005859375,0.078125,-0.15625,10.99219,-0.0078125,-0.001953125,0.005859375,nan,nan,nan,-0.01171875,0.005493164,-0.1811523,0,0,-0.1811523,0,4.021,0,0,0,0,nan,2,0.051,0,0,0,0,0,0,0,0,0,1,2,0
44.376,0.001031,0.009765625,0.00390625,-0.02539062,0.2109375,0.1484375,9.53125,0.001953125,0.001953125,-0.001953125,nan,nan,nan,-0.01184082,0.005493164,-0.1811523,0,0,-0.1811523,0,4.021,0,0,0,0,nan,2,0.061,0,0,0,0,0,0,0,0,0,1,2,1
44.385,0.000988,-0.01757812,-0.0078125,-0.009765625,0.25,-0.1953125,8.546875,0.00390625,-0.001953125,-0.00390625,nan,nan,nan,-0.01171875,0.005493164,-0.1811523,0,0,-0.1811523,0,4.021,0,0,0,0,nan,2,0.071,0,0,0,0,0,0,0,0,0,1,2,0
44.396,0.00101,-0.01953125,-0.00390625,-0.005859375,0.1171875,-0.359375,9.835938,-0.00390625,0,-0.001953125,nan,nan,nan,-0.01171875,0.005493164,-0.1811523,0,0,-0.1811523,0,4.021,0,0,0,0,nan,2,0.081,0,0,0,0,0,0,0,0,0,1,2,1
44.406,0.001011,-0.005859375,-0.01171875,0.02148438,-0.1953125,-0.3203125,11.0625,-0.001953125,-0.005859375,0.009765625,nan,nan,nan,-0.01159668,0.005493164,-0.1811523,0,0,-0.1811523,0,4.021,0,0,0,0,nan,2,0.091,0,0,0,0,0,0,0,0,0,1,2,0
44.416,0.000989,-0.01171875,0.001953125,0.0234375,-0.125,0.1171875,11.23438,-0.0078125,0,0.005859375,nan,nan,nan,-0.01159668,0.005493164,-0.1811523,0,0,-0.1811523,0,4.021,0,0,0,0,nan,2,0.101,0,0,0,0,0,0,0,0,0,1,2,0
44.426,0.00102,0,-0.001953125,0.00390625,0.265625,-0.09375,10.02344,0,-0.001953125,0,nan,nan,nan,-0.01159668,0.005493164,-0.1811523,0,0,-0.1811523,0,4.077,0,0,0,0,nan,2,0.111,0,0,0,0,0,0,0,0,0,1,2,1
44.436,0.000988,-0.001953125,0.00390625,0.00390625,-0.1640625,-0.1015625,9.671875,0,-0.001953125,0.001953125,nan,nan,nan,-0.01147461,0.005493164,-0.1811523,0,0,-0.1811523,0,4.077,0,0,0,0,nan,2,0.121,0,0,0,0,0,0,0,0,0,1,2,1
44.446,0.000982,0.00390625,-0.001953125,-0.0078125,0.015625,0.140625,9.507812,0.001953125,0.001953125,-0.0078125,nan,nan,nan,-0.01135254,0.005493164,-0.1811523,0,0,-0.1811523,0,4.077,0,0,0,0,nan,2,0.131,0,0,0,0,0,0,0,0,0,1,2,1
44.456,0.000993,0.005859375,0.005859375,-0.005859375,-0.078125,0,9.78125,0.001953125,0.001953125,0.005859375,nan,nan,nan,-0.01135254,0.005493164,-0.1811523,0,0,-0.1811523,0,4.077,0,0,0,0,nan,2,0.005,0,0,0,0,0,0,0,0,0,1,2,1
44.466,0.001016,-0.01171875,-0.005859375,0.01171875,0.0859375,-0.0078125,10.0625,-0.005859375,0,0.001953125,nan,nan,nan,-0.01123047,0.005493164,-0.1811523,0,0,-0.1811523,0,4.077,0,0,0,0,nan,2,0.015,0,0,0,0,0,0,0,0,0,1,2,1
44.475,0.001004,0.005859375,-0.001953125,0.00390625,-0.234375,0.0546875,9.875,0.00390625,0,0.00390625,nan,nan,nan,-0.01123047,0.005493164,-0.1811523,0,0,-0.1811523,0,4.077,0,0,0,0,nan,2,0.024,0,0,0,0,0,0,0,0,0,1,2,1
44.485,0.001005,0,0.0078125,0,0.2109375,0.1328125,10.07812,-0.001953125,0,0,nan,nan,nan,-0.0111084,0.005493164,-0.1811523,0,0,-0.1811523,0,4.077,0,0,0,0,nan,2,0.034,0,0,0,0,0,0,0,0,0,1,2,1
44.495,0.001006,0,-0.00390625,-0.001953125,-0.15625,0.0390625,9.71875,0.00390625,0,-0.001953125,nan,nan,nan,-0.0111084,0.005493164,-0.1811523,0,0,-0.1811523,0,4.077,0,0,0,0,nan,2,0.044,0,0,0,0,0,0,0,0,0,1,2,1
44.506,0.001005,-0.001953125,0.00390625,0,0.0546875,0.078125,9.796875,-0.00390625,-0.001953125,0.001953125,nan,nan,nan,-0.01098633,0.005371094,-0.1811523,0,0,-0.1811523,0,4.077,0,0,0,0,nan,2,0.054,0,0,0,0,0,0,0,0,0,1,2,1
44.516,0.001006,0.00390625,0.00390625,0.001953125,-0.0625,0.0625,9.835938,0.00390625,0.00390625,0.001953125,nan,nan,nan,-0.01086426,0.005371094,-0.1811523,0,0,-0.1811523,0,4.077,0,0,0,0,nan,2,0.065,0,0,0,0,0,0,0,0,0,1,2,1
44.526,0.001005,-0.00390625,0,-0.00390625,-0.0546875,-0.0078125,9.976562,-0.005859375,-0.001953125,-0.00390625,nan,nan,nan,-0.01086426,0.005371094,-0.1811523,0,0,-0.1811523,0,4.077,0,0,0,0,nan,2,0.075,0,0,0,0,0,0,0,0,0,1,2,1
44.536,0.001009,0.001953125,0,0.005859375,-0.0078125,0.0234375,9.875,0,0.001953125,0.001953125,nan,nan,nan,-0.01074219,0.005371094,-0.1811523,0,0,-0.1811523,0,4.077,0,0,0,0,nan,2,0.085,0,0,0,0,0,0,0,0,0,1,2,1
44.546,0.001003,0,-0.001953125,-0.001953125,0.0234375,0,9.804688,0.001953125,0,0,nan,nan,nan,-0.01074219,0.005371094,-0.1811523,0,0,-0.1811523,0,4.077,0,0,0,0,nan,2,0.095,0,0,0,0,0,0,0,0,0,1,2,1
44.556,0.001006,0.00390625,0.001953125,0.001953125,-0.0078125,0.0390625,9.765625,0.001953125,0,0.001953125,nan,nan,nan,-0.01062012,0.005371094,-0.1810303,0,0,-0.1810303,0,4.077,0,0,0,0,nan,2,0.105,0,0,0,0,0,0,0,0,0,1,2,1
44.566,0.001009,0,0,-0.005859375,0.0234375,0.0625,9.765625,0,0,-0.001953125,nan,nan,nan,-0.01062012,0.005371094,-0.1810303,0,0,-0.1810303,0,4.077,0,0,0,0,nan,2,0.115,0,0,0,0,0,0,0,0,0,1,2,1
44.576,0.001006,0,0,-0.001953125,-0.0234375,0.0234375,9.882812,0,-0.001953125,-0.001953125,nan,nan,nan,-0.01049805,0.005371094,-0.1811523,0,0,-0.1811523,0,4.077,0,0,0,0,nan,2,0.125,0,0,0,0,0,0,0,0,0,1,2,1
44.585,0.001017,-0.00390625,-0.001953125,0,-0.0390625,0.0546875,9.875,0,-0.001953125,0,nan,nan,nan,-0.01049805,0.005371094,-0.1811523,0,0,-0.1811523,0,4.077,0,0,0,0,nan,2,0.134,0,0,0,0,0,0,0,0,0,1,2,1
44.596,0.001037,0,-0.001953125,0,-0.015625,0.0078125,9.835938,0,0,0,nan,nan,nan,-0.01037598,0.005249023,-0.1811523,0,0,-0.1811523,0,4.077,0,0,0,0,nan,2,0.144,0,0,0,0,0,0,0,0,0,1,2,1
44.606,0.000968,0.001953125,-0.001953125,-0.001953125,-0.03125,0.0625,9.820312,0,-0.001953125,-0.001953125,nan,nan,nan,-0.01037598,0.005249023,-0.1811523,0,0,-0.1811523,0,4.077,0,0,0,0,nan,2,0.154,0,0,0,0,0,0,0,0,0,1,2,1
44.616,0.001015,0.001953125,0,0.001953125,0,0,9.84375,0,-0.001953125,0,nan,nan,nan,-0.01025391,0.005249023,-0.1811523,0,0,-0.1811523,0,4.077,0,0,0,0,nan,2,0.165,0,0,0,0,0,0,0,0,0,1,2,1
44.626,0.00101,-0.001953125,-0.001953125,-0.001953125,-0.0546875,0.015625,9.828125,0,0,-0.001953125,nan,nan,nan,-0.01025391,0.005249023,-0.1811523,0,0,-0.1811523,0,4.077,0,0,0,0,nan,2,0.175,0,0,0,0,0,0,0,0,0,1,2,1
44.636,0.001003,0,0,0,-0.0390625,0.0390625,9.789062,0,0,0,nan,nan,nan,-0.01013184,0.005249023,-0.1811523,0,0,-0.1811523,0,4.077,0,0,0,0,nan,2,0.185,0,0,0,0,0,0,0,0,0,1,2,1
44.646,0.000985,-0.001953125,-0.001953125,0,-0.03125,0.03125,9.796875,0,0,0,nan,nan,nan,-0.01013184,0.005249023,-0.1811523,0,0,-0.1811523,0,4.077,0,0,0,0,nan,2,0.195,0,0,0,0,0,0,0,0,0,1,2,1
44.656,0.001004,-0.001953125,0.00390625,-0.001953125,-0.0546875,0.046875,9.789062,-0.001953125,0,-0.001953125,nan,nan,nan,-0.01000977,0.005249023,-0.1811523,0,0,-0.1811523,0,4.077,0,0,0,0,nan,2,0.205,0,0,0,0,0,0,0,0,0,1,2,1
44.666,0.001015,-0.00390625,-0.001953125,0.001953125,-0.046875,0.0390625,9.796875,-0.001953125,-0.001953125,0,nan,nan,nan,-0.01000977,0.005249023,-0.1811523,0,0,-0.1811523,0,4.077,0,0,0,0,nan,2,0.215,0,0,0,0,0,0,0,0,0,1,2,1
44.676,0.001048,0.001953125,0,0.001953125,-0.0078125,0.078125,9.835938,0.001953125,0,0.001953125,nan,nan,nan,-0.009887695,0.005249023,-0.1811523,0,0,-0.1811523,0,4.077,0,0,0,0,nan,2,0.225,0,0,0,0,0,0,0,0,0,1,2,1
44.685,0.000948,-0.001953125,0,0.001953125,0,-0.0234375,9.890625,0,-0.001953125,0.001953125,nan,nan,nan,-0.009887695,0.005249023,-0.1811523,0,0,-0.1811523,0,4.077,0,0,0,0,nan,2,0.234,0,0,0,0,0,0,0,0,0,1,2,1
44.696,0.001018,0.005859375,0,0,-0.0703125,0.0625,9.835938,0,0,0,nan,nan,nan,-0.009765625,0.005126953,-0.1811523,0,0,-0.1811523,0,4.077,0,0,0,0,nan,2,0.244,0,0,0,0,0,0,0,0,0,1,2,1
44.706,0.00099,0,-0.00390625,0,-0.0390625,0.0234375,9.828125,0,-0.001953125,0,nan,nan,nan,-0.009765625,0.005126953,-0.1811523,0,0,-0.1811523,0,4.077,0,0,0,0,nan,2,0.255,0,0,0,0,0,0,0,0,0,1,2,1
44.716,0.000996,0,0,-0.00390625,-0.0625,0.046875,9.867188,0,0,-0.001953125,nan,nan,nan,-0.009643555,0.005126953,-0.1811523,0,0,-0.1811523,0,4.077,0,0,0,0,nan,2,0.265,0,0,0,0,0,0,0,0,0,1,2,1
44.726,0.000963,-0.001953125,0.001953125,0.001953125,-0.046875,0.0390625,9.851562,-0.001953125,0,-0.001953125,nan,nan,nan,-0.009643555,0.005126953,-0.1811523,0,0,-0.1811523,0,4.077,0,0,0,0,nan,2,0.275,0,0,0,0,0,0,0,0,0,1,2,1
44.736,0.001052,0,0,-0.001953125,-0.0234375,-0.015625,9.851562,0,0,-0.001953125,nan,nan,nan,-0.009521484,0.005126953,-0.1811523,0,0,-0.1811523,0,4.077,0,0,0,0,nan,2,0.285,0,0,0,0,0,0,0,0,0,1,2,1
44.746,0.000969,-0.001953125,0.00390625,0.001953125,-0.0390625,-0.015625,9.804688,-0.001953125,0,0,nan,nan,nan,-0.009521484,0.005126953,-0.1811523,0,0,-0.1811523,0,4.077,0,0,0,0,nan,2,0.295,0,0,0,0,0,0,0,0,0,1,2,1
44.756,0.001022,0.00390625,0.005859375,0,-0.0078125,0.0390625,9.835938,0.001953125,0.001953125,0,nan,nan,nan,-0.009521484,0.005126953,-0.1811523,0,0,-0.1811523,0,4.077,0,0,0,0,nan,2,0.305,0,0,0,0,0,0,0,0,0,1,2,1
44.765,0.001036,-0.001953125,0.00390625,0,-0.015625,0.03125,9.851562,0,0.001953125,0,nan,nan,nan,-0.009399414,0.005126953,-0.1811523,0,0,-0.1811523,0,4.077,0,0,0,0,nan,2,0.314,0,0,0,0,0,0,0,0,0,1,2,1
44.775,0.000991,0,-0.001953125,0,-0.03125,0.03125,9.84375,0,0,0,nan,nan,nan,-0.009399414,0.005126953,-0.1811523,0,0,-0.1811523,0,4.077,0,0,0,0,nan,2,0.324,0,0,0,0,0,0,0,0,0,1,2,1
44.785,0.000982,-0.001953125,-0.001953125,0.001953125,0,0.0078125,9.796875,0,0,0,nan,nan,nan,-0.009277344,0.005126953,-0.1811523,0,0,-0.1811523,0,4.077,0,0,0,0,nan,2,0.334,0,0,0,0,0,0,0,0,0,1,2,1
44.796,0.000975,0.00390625,-0.001953125,0,-0.046875,0.03125,9.898438,0.001953125,0,0,nan,nan,nan,-0.009277344,0.005126953,-0.1811523,0,0,-0.1811523,0,4.077,0,0,0,0,nan,2,0.344,0,0,0,0,0,0,0,0,0,1,2,1
44.806,0.00102,-0.001953125,-0.00390625,-0.001953125,0.0078125,0.0546875,9.914062,0,-0.001953125,-0.001953125,nan,nan,nan,-0.009155273,0.005004883,-0.1811523,0,0,-0.1811523,0,4.077,0,0,0,0,nan,2,0.355,0,0,0,0,0,0,0,0,0,1,2,1
44.816,0.001039,0,0.00390625,-0.001953125,-0.0078125,-0.0234375,9.867188,0,0.001953125,-0.001953125,nan,nan,nan,-0.009155273,0.005004883,-0.1811523,0,0,-0.1811523,0,4.077,0,0,0,0,nan,2,0.365,0,0,0,0,0,0,0,0,0,1,2,1
44.826,0.001024,0,0.001953125,0.001953125,-0.046875,0.046875,9.867188,0,0.001953125,0.001953125,nan,nan,nan,-0.009033203,0.005004883,-0.1811523,0,0,-0.1811523,0,4.077,0,0,0,0,nan,2,0.375,0,0,0,0,0,0,0,0,0,1,2,1
44.836,0.00098,0,-0.001953125,0.001953125,-0.03125,0.03125,9.828125,0,0.001953125,0,nan,nan,nan,-0.009033203,0.005004883,-0.1811523,0,0,-0.1811523,0,4.077,0,0,0,0,nan,2,0.385,0,0,0,0,0,0,0,0,0,1,2,1
44.846,0.001019,0.00390625,0,0.001953125,-0.0390625,0.0234375,9.773438,0.001953125,0,0,nan,nan,nan,-0.008911133,0.005004883,-0.1811523,0,0,-0.1811523,0,4.077,0,0,0,0,nan,2,0.395,0,0,0,0,0,0,0,0,0,1,2,1
44.856,0.001017,-0.001953125,0,-0.001953125,-0.0390625,0.046875,9.804688,0,0,0,nan,nan,nan,-0.008911133,0.005004883,-0.1811523,0,0,-0.1811523,0,4.077,0,0,0,0,nan,2,0.405,0,0,0,0,0,0,0,0,0,1,2,1
44.866,0.001044,-0.00390625,-0.00390625,0,-0.0234375,0.03125,9.84375,-0.001953125,-0.001953125,0,nan,nan,nan,-0.008789062,0.005004883,-0.1811523,0,0,-0.1811523,0,4.077,0,0,0,0,nan,2,0.415,0,0,0,0,0,0,0,0,0,1,2,1
44.875,0.001052,0,0.001953125,0.001953125,-0.0546875,0,9.851562,0,0,0.001953125,nan,nan,nan,-0.008789062,0.005004883,-0.1811523,0,0,-0.1811523,0,4.077,0,0,0,0,nan,2,0.424,0,0,0,0,0,0,0,0,0,1,2,1
44.885,0.001016,0.001953125,0,-0.00390625,-0.015625,0.0625,9.820312,0,0,0,nan,nan,nan,-0.008666992,0.005004883,-0.1811523,0,0,-0.1811523,0,4.077,0,0,0,0,nan,2,0.434,0,0,0,0,0,0,0,0,0,1,2,1
