t,dt_s,gyro_x,gyro_y,gyro_z,acc_x,acc_y,acc_z,rates.x,rates.y,rates.z,ratesTarget.x,ratesTarget.y,ratesTarget.z,attitude.x,attitude.y,attitude.z,attitudeTarget.x,attitudeTarget.y,attitudeTarget.z,thrustTarget,battery_v,rc_roll,rc_pitch,rc_yaw,rc_throttle,rc_mode,flight_mode,rc_age_s,armed,fault_mask,motor_rl,motor_rr,motor_fr,motor_fl,rate_i_x,rate_i_y,rate_i_z,mix_scale,control_source,accel_correction_confidence
544.861,0.001014,-0.06445312,-0.04101562,0.005859375,-0.1171875,-6.03125,9.5625,-0.0234375,0.009765625,0.00390625,0,0,0,0.002075195,-0.001708984,0.001098633,0,0,0.0009765625,0,4.077,0,0,0,0,nan,2,0.147,1,0,0.1000061,0.1000061,0.1000061,0.1000061,0,0,0,1,2,0
544.871,0.001014,-0.0546875,-0.01953125,0.00390625,-1.71875,-3.125,11.32031,-0.01171875,0.005859375,-0.00390625,0,0,0,0.002075195,-0.001586914,0.0009765625,0,0,0.0009765625,0,4.077,0,0,0,0,nan,2,0.158,1,0,0.1000061,0.1000061,0.1000061,0.1000061,0,0,0,1,2,0
544.88,0.00101,0.0703125,0.01171875,-0.005859375,2.765625,6.976562,10.13281,0.02539062,-0.01367188,-0.00390625,0,0,0,0.002075195,-0.001708984,0.0009765625,0,0,0.0009765625,0,4.077,0,0,0,0,nan,2,0.167,1,0,0.1000061,0.1000061,0.1000061,0.1000061,0,0,0,1,2,0
544.89,0.001012,-0.009765625,-0.02148438,-0.00390625,0.4296875,-4.179688,8.453125,0.01953125,-0.01757812,-0.00390625,0,0,0,0.002197266,-0.001831055,0.0009765625,0,0,0.0009765625,0,4.077,0,0,0,0,nan,2,0.177,1,0,0.1000061,0.1000061,0.1000061,0.1000061,0,0,0,1,2,0.2222222
544.9,0.001008,-0.02734375,0.015625,-0.05273438,-0.734375,-0.25,3.078125,-0.0078125,0.01171875,-0.0390625,0,0,0,0.002319336,-0.001708984,0.0007324219,0,0,0.0009765625,0,4.077,0,0,0,0,nan,2,0.187,1,0,0.1000061,0.1000061,0.1000061,0.1000061,0,0,0,1,2,0
544.91,0.001021,-0.0078125,0.02929688,-0.08007812,-1.289062,2.132812,1.742188,-0.00390625,0.009765625,-0.06640625,0,0,0,0.002319336,-0.001708984,0.0002441406,0,0,0.0009765625,0,4.077,0,0,0,0,nan,2,0.197,1,0,0.1000061,0.1000061,0.1000061,0.1000061,0,0,0,1,2,0
544.92,0.00101,0.01171875,-0.06445312,-0.01953125,-0.7421875,1.140625,3.46875,-0.015625,0.005859375,-0.03320312,0,0,0,0.002197266,-0.001708984,-0.0003662109,0,0,0.0009765625,0,4.077,0,0,0,0,nan,2,0.207,1,0,0.1000061,0.1000061,0.1000061,0.1000061,0,0,0,1,2,0
544.93,0.00101,-0.02929688,0.04882812,-0.02539062,0,0.7734375,8.515625,-0.015625,0.009765625,-0.015625,0,0,0,0.002197266,-0.001708984,-0.0004882812,0,0,0.0009765625,0,4.077,0,0,0,0,nan,2,0.217,1,0,0.1000061,0.1000061,0.1000061,0.1000061,0,0,0,1,2,0
544.94,0.00101,0.02734375,-0.01757812,-0.05664062,0.953125,-0.5546875,12.51562,0.015625,-0.00390625,-0.04296875,0,0,0,0.002197266,-0.001708984,-0.0007324219,0,0,0.0009765625,0,4.077,0,0,0,0,nan,2,0.227,1,0,0.1000061,0.1000061,0.1000061,0.1000061,0,0,0,1,2,0
544.95,0.00101,-0.00390625,-0.0234375,-0.07226562,-0.0625,-0.0390625,7.078125,-0.01757812,0.001953125,-0.06835938,0,0,0,0.002075195,-0.001586914,-0.001342773,0,0,0.0009765625,0,4.077,0,0,0,0,nan,2,0.237,1,0,0.1000061,0.1000061,0.1000061,0.1000061,0,0,0,1,2,0
544.961,0.00101,-0.05078125,0.05859375,-0.06640625,-0.4921875,-0.5859375,12.34375,-0.02148438,0.01367188,-0.0703125,0,0,0,0.001953125,-0.001586914,-0.002075195,0,0,0.0009765625,0,4.077,0,0,0,0,nan,2,0.247,1,0,0.1000061,0.1000061,0.1000061,0.1000061,0,0,0,1,2,0
544.971,0.000971,-0.01367188,0.02539062,-0.04101562,0.0703125,0.609375,9.195312,-0.00390625,0,-0.04882812,0,0,0,0.001953125,-0.001708984,-0.002685547,0,0,0.0009765625,0,4.077,0,0,0,0,nan,2,0.258,1,0,0.1000061,0.1000061,0.1000061,0.1000061,0,0,0,1,2,0
544.98,0.001,0.009765625,0.015625,0.04882812,0.125,-0.171875,11.25,0.001953125,-0.00390625,0.01757812,0,0,0,0.001953125,-0.001708984,-0.002807617,0,0,0.0009765625,0,4.077,0,0,0,0,nan,2,0.267,1,0,0.1000061,0.1000061,0.1000061,0.1000061,0,0,0,1,2,0
544.99,0.001046,-0.02929688,0.0390625,0.078125,-0.2109375,-0.4375,9.71875,0.001953125,0.001953125,0.07226562,0,0,0,0.002075195,-0.001831055,-0.002197266,0,0,0.0009765625,0,4.077,0,0,0,0,nan,2,0.277,1,0,0.1000061,0.1000061,0.1000061,0.1000061,0,0,0,1,2,0.8095238
545,0.001007,0.04296875,0.0390625,0.02539062,0.09375,-0.375,9.28125,0.015625,0.00390625,0.05078125,0,0,0,0.002197266,-0.001831055,-0.001586914,0,0,0.0009765625,0,4.077,0,0,0,0,nan,2,0.287,1,0,0.1000061,0.1000061,0.1000061,0.1000061,0,0,0,1,2,0
545.01,0.000994,-0.03515625,0.046875,-0.001953125,-0.0625,0.90625,9.953125,-0.02734375,0.01757812,0.001953125,0,0,0,0.002075195,-0.001708984,-0.001342773,0,0,0.0009765625,0,4.077,0,0,0,0,nan,2,0.297,1,0,0.1000061,0.1000061,0.1000061,0.1000061,0,0,0,1,2,0.5873016
545.02,0.000972,-0.046875,-0.001953125,0.001953125,1.09375,-1.03125,7.328125,-0.015625,0.005859375,0.001953125,0,0,0,0.001953125,-0.001708984,-0.001342773,0,0,0.0009765625,0,4.077,0,0,0,0.000793457,nan,2,0.307,1,0,0.1000061,0.1000061,0.1000061,0.1000061,0,0,0,1,3,0
545.03,0.000988,-0.03515625,-0.02734375,0.001953125,-0.171875,0.34375,11.01562,-0.009765625,-0.01367188,0.00390625,0,0,0,0.001953125,-0.001708984,-0.001342773,0,0,0.0009765625,0,4.077,0,0,0,0.002807617,nan,2,0.317,1,0,0.1000061,0.1000061,0.1000061,0.1000061,0,0,0,1,3,0
545.04,0.000995,-0.0078125,-0.0078125,0,-0.4921875,-0.8515625,10.53906,0.001953125,0,0.005859375,0,0,0,0.001953125,-0.001708984,-0.001220703,0,0,0.0009765625,0,4.077,0,0,0,0.004821777,nan,2,0.327,1,0,0.1000061,0.1000061,0.1000061,0.1000061,0,0,0,1,3,0
545.051,0.000988,-0.005859375,0.02734375,-0.0078125,-0.1875,2.40625,10.07812,0.01171875,0.00390625,0,0,0,0,0.002075195,-0.001586914,-0.001220703,0,0,0.0009765625,0,4.077,0,0,0,0.006774902,nan,2,0.337,1,0,0.1000061,0.1000061,0.1000061,0.1000061,0,0,0,1,3,0
545.06,0.000956,-0.02148438,-0.03515625,-0.0078125,-0.0625,-1.039062,7.4375,0.001953125,-0.001953125,-0.001953125,0,0,0,0.002197266,-0.001586914,-0.001220703,0,0,0.0009765625,0,4.077,0,0,0,0.008789062,nan,2,0.347,1,0,0.1000061,0.1000061,0.1000061,0.1000061,0,0,0,1,3,0
545.071,0.001009,-0.06054688,0.02148438,0.02929688,-0.28125,0.4296875,11.11719,-0.03125,0.02734375,0.01757812,0,0,0,0.001953125,-0.001342773,-0.001220703,0,0,0.0009765625,0,4.077,0,0,0,0.01080322,nan,2,0.358,1,0,0.1000061,0.1000061,0.1000061,0.1000061,0,0,0,1,3,0
545.081,0.001009,0,-0.04101562,0.02929688,0.265625,0.09375,9.773438,0.009765625,-0.01757812,0.03320312,0,0,0,0.001831055,-0.001342773,-0.0008544922,0,0,0.0009765625,0,4.077,0,0,0,0.01281738,nan,2,0.368,1,0,0.1000061,0.1000061,0.1000061,0.1000061,0,0,0,1,3,0.9047619
545.09,0.001015,0.02929688,-0.0234375,-0.01171875,-0.0078125,-1.085938,8.65625,0.01367188,-0.015625,0.005859375,0,0,0,0.001831055,-0.001464844,-0.0007324219,0,0,0.0009765625,0,4.077,0,0,0,0.0145874,nan,2,0.377,1,0,0.1000061,0.1000061,0.1000061,0.1000061,0,0,0,1,3,0
545.1,0.001016,0.05273438,-0.02539062,-0.03125,-0.53125,0.1796875,9.03125,0.009765625,-0.00390625,-0.02539062,0,0,0,0.001831055,-0.001464844,-0.0008544922,0,0,0.0009765625,0,4.077,0,0,0,0.01678467,nan,2,0.387,1,0,0.1000061,0.1000061,0.1000061,0.1000061,0,0,0,1,3,0
545.11,0.00101,0.01171875,-0.02929688,-0.005859375,-0.4921875,-1.085938,12.14844,0.001953125,-0.005859375,-0.01367188,0,0,0,0.001831055,-0.001464844,-0.001098633,0,0,0.0009765625,0,4.077,0,0,0,0.01879883,nan,2,0.397,1,0,0.1000061,0.1000061,0.1000061,0.1000061,0,0,0,1,3,0
545.12,0.001013,-0.03320312,-0.015625,0.01171875,-1.039062,1.921875,10.98438,-0.00390625,-0.01171875,0.0078125,0,0,0,0.001953125,-0.001464844,-0.001098633,0,0,0.0009765625,0,4.077,0,0,0,0.02081299,nan,2,0.407,1,0,0.1000061,0.1000061,0.1000061,0.1000061,0,0,0,1,3,0
545.13,0.001013,-0.03710938,0.04882812,0.009765625,2.335938,3.5625,9.179688,-0.0078125,0.001953125,0.005859375,0,0,0,0.001953125,-0.001464844,-0.0009765625,0,0,0.0009765625,0,4.077,0,0,0,0.02282715,nan,2,0.417,1,0,0.1000061,0.1000061,0.1000061,0.1000061,0,0,0,1,3,0.3650794
545.14,0.001013,0.02148438,-0.01953125,0.015625,0.875,-1.0625,7.664062,0.005859375,0.01171875,0.01171875,0,0,0,0.001953125,-0.001342773,-0.0009765625,0,0,0.0009765625,0,4.077,0,0,0,0.02478027,nan,2,0.427,1,0,0.1000061,0.1000061,0.1000061,0.1000061,0,0,0,1,3,0
545.15,0.000976,0.03515625,0.0390625,0.04882812,-1.4375,-1.484375,6.476562,0.01171875,0.009765625,0.03710938,0,0,0,0.001953125,-0.001220703,-0.0007324219,0,0,0.0009765625,0,4.077,0,0,0,0.02679443,nan,2,0.437,1,0,0.1000061,0.1000061,0.1000061,0.1000061,0,0,0,1,3,0
545.16,0.001013,-0.07226562,0.06445312,0.1445312,-0.4375,-0.9140625,11.75,-0.0078125,0.02539062,0.1035156,0,0,0,0.002075195,-0.001098633,0,0,0,0.0009765625,0,4.077,0,0,0,0.02880859,nan,2,0.447,1,0,0.1000061,0.1000061,0.1000061,0.1000061,0,0,0,1,3,0
545.171,0.001013,-0.0625,0.0546875,0.1894531,0.4765625,-2.953125,14.55469,-0.02148438,0.01367188,0.1738281,0,0,0,0.001831055,-0.0009765625,0.001464844,0,0,0.0009765625,0,4.077,0,0,0,0.03082275,nan,2,0.458,1,0,0.1000061,0.1000061,0.1000061,0.1000061,0,0,0,1,3,0
545.181,0.001013,0.00390625,-0.00390625,0.07226562,0.640625,-4.71875,9.601562,-0.00390625,-0.01757812,0.1191406,0,0,0,0.001708984,-0.0009765625,0.003051758,0,0,0.0009765625,0,4.077,0,0,0,0.03277588,nan,2,0.468,1,0,0.1000061,0.1000061,0.1000061,0.1000061,0,0,0,1,3,0
545.19,0.000974,0.01171875,0.01757812,0.0078125,-0.71875,-0.453125,5.179688,-0.0078125,0.005859375,0.02734375,0,0,0,0.001586914,-0.0009765625,0.003662109,0,0,0.0009765625,0,4.077,0,0,0,0.03460693,nan,2,0.477,1,0,0.1000061,0.1000061,0.1000061,0.1000061,0,0,0,1,3,0
545.2,0.00103,0.04882812,0.01367188,0.05273438,-0.4296875,1.132812,10.71875,0.03515625,0.0078125,0.03710938,0,0,0,0.001831055,-0.0009765625,0.00390625,0,0,0.0009765625,0,4.077,0,0,0,0.0368042,nan,2,0.487,1,0,0.1000061,0.1000061,0.1000061,0.1000061,0,0,0,1,3,0
545.21,0.001008,0.01757812,0.005859375,0.1035156,-1.164062,0.984375,12.78906,0.001953125,0.0078125,0.08789062,0,0,0,0.001953125,-0.0008544922,0.004516602,0,0,0.0009765625,0,4.077,0,0,0,0.03881836,nan,2,0.497,1,0,0.1000061,0.1000061,0.1000061,0.1000061,0,0,0,1,3,0
545.22,0.000958,0.00390625,0.00390625,0.046875,-1.0625,-2.257812,13.35938,0.00390625,0.00390625,0.06445312,0,0,0,0.002075195,-0.0008544922,0.005371094,0,0,0.0009765625,0,4.077,0,0,0,0.04077148,nan,2,0.507,1,0,0.1000061,0.1000061,0.1000061,0.1000061,0,0,0,1,3,0
545.23,0.00101,-0.03320312,0.009765625,-0.05664062,-1.273438,-3.734375,13.24219,-0.02148438,0.001953125,-0.02539062,0,0,0,0.002075195,-0.0008544922,0.005493164,0,0,0.0009765625,0,4.077,0,0,0,0.04278564,nan,2,0.517,1,0,0.1000061,0.1000061,0.1000061,0.1000061,0,0,0,1,3,0
545.24,0.00101,-0.01367188,-0.009765625,-0.0546875,-0.8515625,-2.664062,9.695312,-0.001953125,-0.001953125,-0.0546875,0,0,0,0.001953125,-0.0008544922,0.005004883,0,0,0.0009765625,0,4.077,0,0,0,0.0447998,nan,2,0.527,1,0,0.1000061,0.1000061,0.1000061,0.1000061,0,0,0,1,3,0.3968254
545.25,0.00101,0.046875,0.001953125,0.04882812,-0.03125,-1.195312,7.492188,0,0.005859375,0.001953125,0,0,0,0.001831055,-0.0008544922,0.004760742,0,0,0.0009765625,0,4.077,0,0,0,0.04681396,nan,2,0.537,1,0,0.1000061,0.1000061,0.1000061,0.1000061,0,0,0,1,3,0
545.26,0.00101,-0.03125,-0.03320312,0.1367188,0.875,0.078125,5.453125,-0.001953125,-0.009765625,0.1015625,0,0,0,0.001831055,-0.0007324219,0.005249023,0,0,0.0009765625,0,4.077,0,0,0,0.04882812,nan,2,0.547,1,0,0.1000061,0.1000061,0.1000061,0.1000061,0,0,0,1,3,0
545.271,0.00101,0.02734375,-0.01757812,0.1523438,1.125,0.5625,5.742188,0.00390625,0,0.1464844,0,0,0,0.001708984,-0.0007324219,0.006591797,0,0,0.0009765625,0,4.077,0,0,0,0.05078125,nan,2,0.557,1,0,0.1000061,0.1000061,0.1000061,0.1000061,0,0,0,1,3,0
545.281,0.00101,-0.005859375,-0.05078125,0.0546875,2.148438,-2.492188,8.882812,0.001953125,-0.02929688,0.09960938,0,0,0,0.001831055,-0.0009765625,0.00793457,0,0,0.0009765625,0,4.077,0,0,0,0.05279541,nan,2,0.568,1,0,0.1000061,0.1000061,0.1000061,0.1000061,0,0,0,1,3,0.3174603
545.29,0.001011,-0.00390625,0.001953125,-0.02734375,0.3203125,-4.992188,8.09375,0.015625,-0.01953125,0.009765625,0,0,0,0.001953125,-0.001220703,0.008300781,0,0,0.0009765625,0,4.077,0,0,0,0.05462646,nan,2,0.577,1,0,0.1000061,0.1000061,0.1000061,0.1000061,0,0,0,1,3,0.3650794
545.3,0.001007,0.01171875,-0.0078125,-0.02734375,-0.7109375,-5.320312,6.945312,-0.005859375,0.01757812,-0.03710938,0,0,0,0.001831055,-0.001098633,0.008056641,0,0,0.0009765625,0,4.077,0,0,0,0.05682373,nan,2,0.587,1,0,0.1000061,0.1000061,0.1000061,0.1000061,0,0,0,1,3,0
545.31,0.001007,0.015625,0.015625,0.04296875,-0.84375,-2.742188,3.429688,0.01367188,0.01171875,0.01171875,0,0,0,0.001953125,-0.0009765625,0.00793457,0,0,0.0009765625,0,4.077,0,0,0,0.05877686,nan,2,0.597,1,0,0.1000061,0.1000061,0.1000061,0.1000061,0,0,0,1,3,0
545.32,0.001006,0.02148438,0.01757812,0.1113281,0.6015625,-0.2109375,4.59375,0,0.00390625,0.078125,0,0,0,0.001953125,-0.0009765625,0.008422852,0,0,0.0009765625,0,4.077,0,0,0,0.06079102,nan,2,0.607,1,0,0.1000061,0.1000061,0.1000061,0.1000061,0,0,0,1,3,0
545.33,0.00101,0.02734375,-0.03125,0.1289062,1.171875,-0.796875,8.679688,0.009765625,-0.009765625,0.1230469,0,0,0,0.001953125,-0.0009765625,0.009521484,0,0,0.0009765625,0,4.077,0,0,0,0.06280518,nan,2,0.617,1,0,0.1000061,0.1000061,0.1000061,0.1000061,0,0,0,1,3,0
545.34,0.00101,0.02734375,-0.0078125,0.08203125,-0.3359375,-3.734375,11.20312,0.005859375,-0.005859375,0.09765625,0,0,0,0.002075195,-0.0009765625,0.01062012,0,0,0.0009765625,0,4.077,0,0,0,0.06481934,nan,2,0.627,1,0,0.1000061,0.1000061,0.1000061,0.1000061,0,0,0,1,3,0
545.35,0.00101,0.00390625,-0.00390625,0.03710938,-1.273438,-4.414062,8.929688,-0.001953125,0.00390625,0.0546875,0,0,0,0.001953125,-0.0009765625,0.01135254,0,0,0.0009765625,0,4.077,0,0,0,0.06677246,nan,2,0.637,1,0,0.1000061,0.1000061,0.1000061,0.1000061,0,0,0,1,3,0.5079365
545.36,0.00101,-0.01953125,0.01953125,0.01757812,0.3984375,-2.15625,9.117188,0,-0.001953125,0.02734375,0,0,0,0.001953125,-0.0009765625,0.01171875,0,0,0.0009765625,0,4.077,0,0,0,0.06878662,nan,2,0.647,1,0,0.1000061,0.1000061,0.1000061,0.1000061,0,0,0,1,3,0.1111111
545.371,0.00101,-0.01171875,0.005859375,0,2.226562,1.210938,16,0.00390625,0,0.009765625,0,0,0,0.001953125,-0.0009765625,0.01196289,0,0,0.0009765625,0,4.077,0,0,0,0.07080078,nan,2,0.657,1,0,0.1000061,0.1000061,0.1000061,0.1000061,0,0,0,1,3,0
545.381,0.001041,0.02539062,-0.04101562,-0.005859375,0.5,1.515625,18.14844,0.00390625,-0.00390625,-0.001953125,0,0,0,0.002075195,-0.0009765625,0.01196289,0,0,0.0009765625,0,4.077,0,0,0,0.07281494,nan,2,0.668,1,0,0.1000061,0.1000061,0.1000061,0.1000061,0,0,0,1,3,0
545.391,0.001009,0.001953125,0.01171875,-0.01367188,-0.40625,-2.226562,10.35938,0.00390625,-0.00390625,-0.009765625,0,0,0,0.002075195,-0.0009765625,0.01184082,0,0,0.0009765625,0,4.077,0,0,0,0.0748291,nan,2,0.678,1,0,0.1000061,0.1000061,0.1000061,0.1000061,0,0,0,1,3,0
545.4,0.000968,-0.03515625,-0.009765625,-0.01367188,-0.2109375,2.28125,8.507812,-0.001953125,-0.005859375,-0.009765625,0,0,0,0.002075195,-0.0009765625,0.01184082,0,0,0.0009765625,0,4.077,0,0,0,0.07678223,nan,2,0.687,1,0,0.1000061,0.1000061,0.1000061,0.1000061,0,0,0,1,3,0
545.41,0.001009,-0.03515625,0.02539062,0.01953125,-0.0546875,2.929688,10.67188,-0.001953125,0.001953125,0.005859375,0,0,0,0.002075195,-0.0009765625,0.01184082,0,0,0.0009765625,0,4.077,0,0,0,0.07879639,nan,2,0.697,1,0,0.1000061,0.1000061,0.1000061,0.1000061,0,0,0,1,3,0
545.42,0.00101,0.03515625,-0.01171875,0.03710938,-0.2421875,1.09375,9.226562,0.00390625,-0.00390625,0.03125,0,0,0,0.001953125,-0.0009765625,0.01196289,0,0,0.0009765625,0,4.077,0,0,0,0.08081055,nan,2,0.707,1,0,0.1000061,0.1000061,0.1000061,0.1000061,0,0,0,1,3,0
545.43,0.001009,0.01171875,0.005859375,0.00390625,-0.3046875,-1.671875,3.09375,0.001953125,0.015625,0.01953125,0,0,0,0.001953125,-0.0008544922,0.0123291,0,0,0.0009765625,0,4.077,0,0,0,0.08282471,nan,2,0.717,1,0,0.1000061,0.1000061,0.1000061,0.1000061,0,0,0,1,3,0
545.44,0.001009,-0.01171875,-0.01367188,-0.03710938,0.8125,-3.0625,4.757812,0.00390625,-0.001953125,-0.0234375,0,0,0,0.001953125,-0.0008544922,0.01220703,0,0,0.0009765625,0,4.077,0,0,0,0.08477783,nan,2,0.727,1,0,0.1000061,0.1000061,0.1000061,0.1000061,0,0,0,1,3,0
545.45,0.001025,0,-0.02929688,-0.046875,0.265625,-2.71875,10.20312,0.01367188,-0.01367188,-0.04101562,0,0,0,0.002075195,-0.0008544922,0.01184082,0,0,0.0009765625,0,4.077,0,0,0,0.08679199,nan,2,0.737,1,0,0.1000061,0.1000061,0.1000061,0.1000061,0,0,0,1,3,0
545.46,0.001009,-0.001953125,-0.01367188,-0.009765625,0.28125,-0.7578125,12.17969,-0.01171875,0.009765625,-0.02148438,0,0,0,0.001953125,-0.0007324219,0.01159668,0,0,0.0009765625,0,4.077,0,0,0,0.08880615,nan,2,0.747,1,0,0.1000061,0.1000061,0.1000061,0.1000061,0,0,0,1,3,0
545.471,0.001009,0.03320312,-0.04296875,0.046875,0.6640625,0.4765625,12.53906,0.0078125,-0.01757812,0.02929688,0,0,0,0.001953125,-0.0007324219,0.01159668,0,0,0.0009765625,0,4.077,0,0,0,0.09082031,nan,2,0.757,1,0,0.1000061,0.1000061,0.1000061,0.1000061,0,0,0,1,3,0
545.481,0.001009,0.01757812,-0.009765625,0.06835938,-0.140625,1.28125,13.44531,0.01757812,-0.01171875,0.06445312,0,0,0,0.002075195,-0.0009765625,0.01208496,0,0,0.0009765625,0,4.077,0,0,0,0.09277344,nan,2,0.768,1,0,0.1000061,0.1000061,0.1000061,0.1000061,0,0,0,1,3,0
545.491,0.001009,-0.0078125,-0.01367188,-0.00390625,0.265625,-3.203125,11.97656,-0.0078125,0.009765625,0.02148438,0,0,0,0.002075195,-0.0008544922,0.01257324,0,0,0.0009765625,0,4.077,0,0,0,0.0947876,nan,2,0.778,1,0,0.1000061,0.1000061,0.1000061,0.1000061,0,0,0,1,3,0
545.5,0.001017,0.015625,0.015625,-0.04296875,0.6484375,2.1875,6.53125,0.001953125,0.00390625,-0.02539062,0,0,0,0.002075195,-0.0008544922,0.01257324,0,0,0.0009765625,0,4.077,0,0,0,0.09680176,nan,2,0.787,1,0,0.1000061,0.1000061,0.1000061,0.1000061,0,0,0,1,3,0
545.51,0.001011,0.01757812,-0.02148438,-0.04296875,-0.390625,-1.210938,5.695312,0.0078125,-0.005859375,-0.04296875,0,0,0,0.002075195,-0.0009765625,0.01208496,0,0,0.0009765625,0,4.077,0,0,0,0.09881592,nan,2,0.797,1,0,0.1000061,0.1000061,0.1000061,0.1000061,0,0,0,1,3,0
545.52,0.001012,-0.005859375,0.02734375,0.04492188,0.3984375,-1.796875,7.84375,-0.005859375,0.001953125,0.015625,0,0,0,0.002075195,-0.0009765625,0.01196289,0,0,0.0009765625,0,4.077,0,0,0,0.1008301,nan,2,0.807,1,0,0.1000061,0.1000061,0.1000061,0.1000061,0,0,0,1,3,0
545.53,0.001013,0.00390625,0.0234375,0.06054688,0.1875,-0.90625,7.28125,0.005859375,0.00390625,0.05664062,0,0,0,0.002075195,-0.0009765625,0.01245117,0,0,0.0009765625,0,4.077,0,0,0,0.1027832,nan,2,0.817,1,0,0.1000061,0.1000061,0.1000061,0.1000061,0,0,0,1,3,0
545.54,0.001018,0.01171875,-0.02734375,0.03320312,1.398438,-1.804688,14.78125,0.001953125,-0.00390625,0.04492188,0,0,0,0.002197266,-0.0009765625,0.01293945,0,0,0.0009765625,0,4.077,0,0,0,0.1047974,nan,2,0.827,1,0,0.1000061,0.1000061,0.1000061,0.1000061,0,0,0,1,3,0
545.55,0.001056,-0.0234375,-0.01757812,-0.01757812,-0.3828125,1.640625,14.46875,0,-0.009765625,0.00390625,0,0,0,0.002197266,-0.001098633,0.01318359,0,0,0.0009765625,0,4.077,0,0,0,0.1068115,nan,2,0.837,1,0,0.1000061,0.1000061,0.1000061,0.1000061,0,0,0,1,3,0
545.561,0.001062,0.001953125,-0.001953125,-0.00390625,-1.640625,4.335938,10.19531,0.001953125,-0.01171875,-0.015625,0,0,0,0.002197266,-0.001220703,0.01306152,0,0,0.0009765625,0,4.077,0,0,0,0.1088257,nan,2,0.847,1,0,0.1000061,0.1000061,0.1000061,0.1000061,0,0,0,1,3,0
545.571,0.001041,0.015625,0,0.009765625,0.5625,1.515625,7.742188,0.0078125,-0.001953125,0.0078125,0,0,0,0.002319336,-0.001220703,0.01306152,0,0,0.0009765625,0,4.077,0,0,0,0.1107788,nan,2,0.858,1,0,0.1000061,0.1000061,0.1000061,0.1000061,0,0,0,1,3,0
545.58,0.001004,0.009765625,-0.009765625,0.01953125,0.6875,0.25,12.89844,0.001953125,0.005859375,0.01757812,0,0,0,0.002319336,-0.001220703,0.01318359,0,0,0.0009765625,0,4.077,0,0,0,0.1126099,nan,2,0.867,1,0,0.1000061,0.1000061,0.1000061,0.1000061,0,0,0,1,3,0
545.59,0.001043,0.01367188,0.001953125,0.01757812,-0.1328125,-1.21875,5.117188,-0.001953125,0.001953125,0.015625,0,0,0,0.002319336,-0.001220703,0.01342773,0,0,0.0009765625,0,4.077,0,0,0,0.114624,nan,2,0.877,1,0,0.1000061,0.1000061,0.1000061,0.1000061,0,0,0,1,3,0
545.6,0.001012,0.02148438,-0.02929688,0.03320312,1.367188,-3.328125,13.14844,-0.001953125,-0.00390625,0.03320312,0,0,0,0.002197266,-0.001220703,0.01367188,0,0,0.0009765625,0,4.077,0,0,0,0.1168213,nan,2,0.887,1,0,0.1000061,0.1000061,0.1000061,0.1000061,0,0,0,1,3,0
545.61,0.001001,-0.02539062,-0.01367188,-0.01953125,-0.8203125,0.015625,14.75781,0.001953125,-0.01171875,-0.001953125,0,0,0,0.002319336,-0.001220703,0.01379395,0,0,0.0009765625,0,4.077,0,0,0,0.1187744,nan,2,0.897,1,0,0.1000061,0.1000061,0.1000061,0.1000061,0,0,0,1,3,0
545.62,0.001009,0.02148438,-0.00390625,-0.015625,-0.3203125,3.726562,10.625,0.009765625,0,-0.01953125,0,0,0,0.002319336,-0.001220703,0.01367188,0,0,0.0009765625,0,4.077,0,0,0,0.1207886,nan,2,0.907,1,0,0.1000061,0.1000061,0.1000061,0.1000061,0,0,0,1,3,0
545.63,0.00101,0.001953125,0,0.04882812,-0.6015625,1.398438,11.35156,0,0.005859375,0.02539062,0,0,0,0.002319336,-0.001220703,0.01367188,0,0,0.0009765625,0,4.077,0,0,0,0.1228027,nan,2,0.917,1,0,0.1000061,0.1000061,0.1000061,0.1000061,0,0,0,1,3,0
545.64,0.00101,-0.0078125,-0.00390625,0.07617188,-0.6015625,2.242188,6.554688,-0.001953125,-0.005859375,0.0703125,0,0,0,0.002197266,-0.001220703,0.01416016,0,0,0.0009765625,0,4.077,0,0,0,0.1248169,nan,2,0.927,1,0,0.1000061,0.1000061,0.1000061,0.1000061,0,0,0,1,3,0
545.65,0.00101,-0.00390625,0.01367188,0.04101562,0.75,-3.304688,3.8125,0.005859375,0.005859375,0.0546875,0,0,0,0.002319336,-0.001220703,0.01477051,0,0,0.0009765625,0,4.077,0,0,0,0.1268311,nan,2,0.937,1,0,0.1000061,0.1000061,0.1000061,0.1000061,0,0,0,1,3,0
545.66,0.00101,0.00390625,-0.01171875,0.00390625,-0.234375,-3.992188,9.710938,0.0078125,-0.00390625,0.01367188,0,0,0,0.002441406,-0.001220703,0.01513672,0,0,0.0009765625,0,4.077,0,0,0,0.1287842,nan,2,0.947,1,0,0.1000061,0.1000061,0.1000061,0.1000061,0,0,0,1,3,0
545.671,0.00101,0.0234375,0.005859375,0.02734375,0.59375,-0.5546875,12.83594,0.0078125,-0.001953125,0.01367188,0,0,0,0.002441406,-0.001220703,0.01525879,0,0,0.0009765625,0,4.077,0,0,0,0.1307983,nan,2,0.957,1,0,0.1000061,0.1000061,0.1000061,0.1000061,0,0,0,1,3,0
545.681,0.00101,0.0390625,-0.01757812,0.0703125,0.671875,2.351562,13.90625,0.001953125,0,0.05859375,0,0,0,0.002441406,-0.001220703,0.015625,0,0,0.0009765625,0,4.077,0,0,0,0.1328125,nan,2,0.968,1,0,0.1000061,0.1000061,0.1000061,0.1000061,0,0,0,1,3,0
545.691,0.00101,0.01367188,-0.03515625,0.03515625,0.6875,-2.132812,10.625,0.0078125,-0.00390625,0.04882812,0,0,0,0.002441406,-0.001220703,0.01611328,0,0,0.0009765625,0,4.077,0,0,0,0.1348267,nan,2,0.978,1,0,0.1000061,0.1000061,0.1000061,0.1000061,0,0,0,1,3,0
545.7,0.001009,-0.0078125,0.01171875,-0.01953125,-1.179688,2.867188,5.617188,0,-0.005859375,0.00390625,0,0,0,0.002441406,-0.001342773,0.01635742,0,0,0.0009765625,0,4.077,0,0,0,0.1367798,nan,2,0.987,1,0,0.1000061,0.1000061,0.1000061,0.1000061,0,0,0,1,3,0
545.71,0.001009,-0.005859375,0.009765625,-0.02539062,1.109375,-1.554688,6.171875,0.001953125,-0.0078125,-0.015625,0,0,0,0.002441406,-0.001342773,0.01635742,0,0,0.0009765625,0,4.077,0,0,0,0.1387939,nan,2,0.997,1,0,0.1000061,0.1000061,0.1000061,0.1000061,0,0,0,1,3,0
545.72,0.00101,0.01953125,-0.001953125,-0.01367188,-1.234375,-2.265625,7.546875,0.00390625,0.00390625,-0.02148438,0,0,0,0.002441406,-0.001342773,0.01611328,0,0,0.0009765625,0,4.077,0,0,0,0.1408081,nan,2,1.007,1,0,0.1000061,0.1000061,0.1000061,0.1000061,0,0,0,1,3,0
545.73,0.00101,0.02148438,-0.02734375,0.015625,0.5625,-0.5625,8.984375,0.0078125,-0.005859375,0,0,0,0,0.002441406,-0.001342773,0.01599121,0,0,0.0009765625,0,4.077,0,0,0,0.1428223,nan,2,1.017,1,0,0.1000061,0.1000061,0.1000061,0.1000061,0,0,0,1,3,0
545.74,0.00101,-0.03515625,0.02539062,0.01953125,0.28125,-0.828125,16.22656,0.001953125,0,0.01953125,0,0,0,0.002441406,-0.001342773,0.01611328,0,0,0.0009765625,0,4.077,0,0,0,0.1447754,nan,2,1.027,1,0,0.1000061,0.1000061,0.1000061,0.1000061,0,0,0,1,3,0
545.75,0.001017,0,0.02734375,0.009765625,-0.6640625,4.828125,12.48438,-0.00390625,0.005859375,0.0078125,0,0,0,0.002563477,-0.001342773,0.01623535,0,0,0.0009765625,0,4.077,0,0,0,0.1467896,nan,2,1.037,1,0,0.1000061,0.1000061,0.1000061,0.1000061,0,0,0,1,3,0
545.76,0.0009860001,0.04296875,-0.02539062,0.009765625,-0.234375,1.578125,8.3125,0.005859375,-0.005859375,0.001953125,0,0,0,0.002563477,-0.001342773,0.01623535,0,0,0.0009765625,0,4.077,0,0,0,0.1488037,nan,2,1.047,1,0,0.1000061,0.1000061,0.1000061,0.1000061,0,0,0,1,3,0
545.77,0.000962,0.001953125,-0.00390625,0.07617188,0.4453125,-0.546875,7.421875,0,-0.00390625,0.05273438,0,0,0,0.002563477,-0.001342773,0.01660156,0,0,0.0009765625,0,4.077,0,0,0,0.1508179,nan,2,1.057,1,0,0.1000061,0.1000061,0.1000061,0.1000061,0,0,0,1,3,0
545.781,0.00101,-0.02929688,0.03710938,0.06640625,-0.1796875,-1.359375,4.15625,-0.001953125,0.005859375,0.07421875,0,0,0,0.002563477,-0.001342773,0.01733398,0,0,0.0009765625,0,4.077,0,0,0,0.152771,nan,2,1.068,1,0,0.1000061,0.1000061,0.1000061,0.1000061,0,0,0,1,3,0
545.791,0.00101,0.03320312,-0.03515625,0.0234375,-0.71875,2.554688,3.46875,0.00390625,-0.005859375,0.04296875,0,0,0,0.002563477,-0.001342773,0.01794434,0,0,0.0009765625,0,4.077,0,0,0,0.1547852,nan,2,1.078,1,0,0.1000061,0.1000061,0.1000061,0.1000061,0,0,0,1,3,0
545.8,0.001012,-0.005859375,-0.015625,-0.01757812,-0.7578125,0.4765625,14.58594,0.009765625,-0.009765625,0,0,0,0,0.002563477,-0.001464844,0.01806641,0,0,0.0009765625,0,4.077,0,0,0,0.1567993,nan,2,1.087,1,0,0.1000061,0.1000061,0.1000061,0.1000061,0,0,0,1,3,0
545.81,0.001016,-0.03710938,0.02539062,-0.03515625,0.1640625,4.328125,11.90625,-0.001953125,0,-0.02734375,0,0,0,0.002563477,-0.001464844,0.01782227,0,0,0.0009765625,0,4.077,0,0,0,0.1588135,nan,2,1.097,1,0,0.1000061,0.1000061,0.1000061,0.1000061,0,0,0,1,3,0
545.82,0.001012,-0.05273438,0.04296875,0.03320312,-1.171875,0.328125,10.10156,-0.009765625,0.009765625,0.01367188,0,0,0,0.002563477,-0.001464844,0.01782227,0,0,0.0009765625,0,4.077,0,0,0,0.1608276,nan,2,1.107,1,0,0.1000061,0.1000061,0.1000061,0.1000061,0,0,0,1,3,0.2222222
545.83,0.001008,-0.04101562,0.02929688,0.04492188,0.296875,0.984375,4.078125,-0.0078125,0.005859375,0.04882812,0,0,0,0.002563477,-0.001464844,0.01818848,0,0,0.0009765625,0,4.077,0,0,0,0.1627808,nan,2,1.117,1,0,0.1000061,0.1000061,0.1000061,0.1000061,0,0,0,1,3,0
545.84,0.001008,-0.001953125,0.04296875,0,-0.0859375,-3.8125,6.90625,0,0.01171875,0.015625,0,0,0,0.002685547,-0.001342773,0.01855469,0,0,0.0009765625,0,4.077,0,0,0,0.1647949,nan,2,1.127,1,0,0.1000061,0.1000061,0.1000061,0.1000061,0,0,0,1,3,0
545.85,0.001008,-0.00390625,0.001953125,0,0.6875,-1.046875,13.89844,-0.00390625,0,-0.005859375,0,0,0,0.002685547,-0.001464844,0.01855469,0,0,0.0009765625,0,4.077,0,0,0,0.1668091,nan,2,1.137,1,0,0.1000061,0.1000061,0.1000061,0.1000061,0,0,0,1,3,0
545.86,0.001008,0.005859375,0.02148438,0.04101562,0.703125,2.9375,13.76562,0,0.01367188,0.02539062,0,0,0,0.002685547,-0.001342773,0.01867676,0,0,0.0009765625,0,4.077,0,0,0,0.1688232,nan,2,1.147,1,0,0.1000061,0.1000061,0.1000061,0.1000061,0,0,0,1,3,0
545.87,0.001008,0.009765625,0.04882812,0.046875,-0.5390625,0.84375,13.39844,0.001953125,0.01367188,0.04101562,0,0,0,0.002685547,-0.001342773,0.01904297,0,0,0.0009765625,0,4.077,0,0,0,0.1707764,nan,2,1.157,1,0,0.1000061,0.1000061,0.1000061,0.1000061,0,0,0,1,3,0
545.881,0.001008,0.02539062,0.03125,0.0546875,-1.210938,3.28125,4.757812,0.00390625,0,0.046875,0,0,0,0.002685547,-0.001342773,0.01940918,0,0,0.0009765625,0,4.077,0,0,0,0.1727905,nan,2,1.168,1,0,0.1000061,0.1000061,0.1000061,0.1000061,0,0,0,1,3,0
545.891,0.001008,0.01953125,-0.01757812,-0.015625,0.734375,-3.234375,6.609375,0.001953125,0.0078125,0.001953125,0,0,0,0.002685547,-0.001342773,0.01965332,0,0,0.0009765625,0,4.077,0,0,0,0.1748047,nan,2,1.178,1,0,0.1000061,0.1000061,0.1000061,0.1000061,0,0,0,1,3,0
545.9,0.001016,0.04296875,0,-0.0078125,0.0859375,-3.164062,9.164062,0.00390625,0.005859375,-0.01171875,0,0,0,0.002685547,-0.001342773,0.01965332,0,0,0.0009765625,0,4.077,0,0,0,0.1765747,nan,2,1.187,1,0,0.1000061,0.1000061,0.1000061,0.1000061,0,0,0,1,3,0.5396826
545.91,0.000992,0.0234375,-0.03515625,0.08203125,0.921875,0.109375,12.03125,-0.009765625,-0.001953125,0.04296875,0,0,0,0.002563477,-0.001342773,0.01977539,0,0,0.0009765625,0,4.077,0,0,0,0.178772,nan,2,1.197,1,0,0.1000061,0.1000061,0.1000061,0.1000061,0,0,0,1,3,0
545.92,0.000954,-0.0078125,0.04492188,0.05664062,1.015625,0.109375,15.4375,-0.005859375,0.01171875,0.0703125,0,0,0,0.002563477,-0.001220703,0.02038574,0,0,0.0009765625,0,4.077,0,0,0,0.1807861,nan,2,1.207,1,0,0.1000061,0.1000061,0.1000061,0.1000061,0,0,0,1,3,0
545.93,0.000994,-0.04296875,-0.03515625,0.02734375,-2.265625,4.351562,10.19531,0.001953125,-0.01757812,0.046875,0,0,0,0.002685547,-0.001220703,0.02099609,0,0,0.0009765625,0,4.077,0,0,0,0.1828003,nan,2,1.217,1,0,0.1000061,0.1000061,0.1000061,0.1000061,0,0,0,1,3,0
545.94,0.001009,0.01953125,-0.01953125,-0.01953125,0.4453125,1.359375,7.273438,0.00390625,0.001953125,-0.0078125,0,0,0,0.002685547,-0.001342773,0.02124023,0,0,0.0009765625,0,4.077,0,0,0,0.1848145,nan,2,1.227,1,0,0.1000061,0.1000061,0.1000061,0.1000061,0,0,0,1,3,0
545.95,0.001009,-0.03320312,0.06445312,-0.00390625,-1.148438,-2.578125,6.476562,-0.00390625,0.01171875,-0.01367188,0,0,0,0.002685547,-0.001342773,0.02099609,0,0,0.0009765625,0,4.077,0,0,0,0.1868286,nan,2,1.237,1,0,0.1000061,0.1000061,0.1000061,0.1000061,0,0,0,1,3,0
545.96,0.001009,-0.01757812,0.04882812,0.0546875,0.890625,-1.390625,5.859375,0,0.0078125,0.04296875,0,0,0,0.002563477,-0.001342773,0.02124023,0,0,0.0009765625,0,4.077,0,0,0,0.1887817,nan,2,1.247,1,0,0.1000061,0.1000061,0.1000061,0.1000061,0,0,0,1,3,0
545.97,0.000971,-0.03515625,-0.03710938,0.03515625,0.5,-3.132812,14.04688,-0.00390625,-0.005859375,0.04882812,0,0,0,0.002563477,-0.001220703,0.02172852,0,0,0.0009765625,0,4.077,0,0,0,0.1907959,nan,2,1.257,1,0,0.1000061,0.1000061,0.1000061,0.1000061,0,0,0,1,3,0
545.981,0.001013,0.06835938,-0.03710938,0.005859375,-0.390625,1.882812,12.55469,0.02148438,-0.0078125,0.01171875,0,0,0,0.002685547,-0.001342773,0.02209473,0,0,0.0009765625,0,4.077,0,0,0,0.1928101,nan,2,1.268,1,0,0.1000061,0.1000061,0.1000061,0.1000061,0,0,0,1,3,0
545.991,0.001013,-0.0625,0.06445312,-0.005859375,0.4765625,4.09375,13.16406,-0.01953125,0.015625,-0.00390625,0,0,0,0.002685547,-0.001342773,0.02209473,0,0,0.0009765625,0,4.077,0,0,0,0.1948242,nan,2,1.278,1,0,0.1000061,0.1000061,0.1000061,0.1000061,0,0,0,1,3,0
546,0.001009,0.00390625,-0.03125,0.0390625,-1.859375,0,7.96875,-0.009765625,0.00390625,0.01367188,0,0,0,0.002441406,-0.001220703,0.02209473,0,0,0.0009765625,0,4.077,0,0,0,0.1965942,nan,2,1.287,1,0,0.1000061,0.1000061,0.1000061,0.1000061,0,0,0,1,3,0
546.01,0.00101,-0.06445312,0.06640625,0.02539062,0.8984375,-0.1171875,3.875,-0.0234375,0.005859375,0.0390625,0,0,0,0.002319336,-0.001220703,0.02246094,0,0,0.0009765625,0,4.077,0,0,0,0.1987915,nan,2,1.297,1,0,0.1000061,0.1000061,0.1000061,0.1000061,0,0,0,1,3,0
546.02,0.001009,0.04101562,-0.0390625,0.01171875,-0.4375,-4.554688,8.367188,-0.009765625,0.01367188,0.015625,0,0,0,0.002197266,-0.001098633,0.02270508,0,0,0.0009765625,0,4.077,0,0,0,0.2000122,nan,2,1.307,1,0,0.1000061,0.1000061,0.1000061,0.1000061,0,0,0,1,3,0.3968254
546.03,0.00101,0.005859375,-0.03515625,0.0078125,0.109375,-0.875,12.92969,0.015625,-0.01171875,0.001953125,0,0,0,0.002075195,-0.001098633,0.02270508,0,0,0.0009765625,0,4.077,0,0,0,0.2000122,nan,2,1.317,1,0,0.1000061,0.1000061,0.1000061,0.1000061,0,0,0,1,3,0
546.04,0.00101,-0.03710938,0.03515625,0.02929688,1.445312,3.171875,14.375,-0.01171875,0.005859375,0.0234375,0,0,0,0.002197266,-0.001098633,0.02282715,0,0,0.0009765625,0,4.077,0,0,0,0.2000122,nan,2,1.327,1,0,0.1000061,0.1000061,0.1000061,0.1000061,0,0,0,1,3,0
546.05,0.00101,0.02734375,-0.03125,0.046875,-1.757812,1.742188,13.48438,0.005859375,-0.005859375,0.04492188,0,0,0,0.002075195,-0.001098633,0.02319336,0,0,0.0009765625,0,4.077,0,0,0,0.2000122,nan,2,1.337,1,0,0.1000061,0.1000061,0.1000061,0.1000061,0,0,0,1,3,0
546.06,0.00101,0.01171875,0.03320312,0.02734375,0.5625,2.367188,4.296875,-0.0078125,0.009765625,0.03515625,0,0,0,0.002075195,-0.001098633,0.02368164,0,0,0.0009765625,0,4.077,0,0,0,0.2000122,nan,2,1.347,1,0,0.1000061,0.1000061,0.1000061,0.1000061,0,0,0,1,3,0
546.071,0.00101,-0.0546875,0.05078125,-0.01953125,0.078125,-3.375,6.460938,-0.001953125,-0.00390625,-0.00390625,0,0,0,0.002075195,-0.001098633,0.02380371,0,0,0.0009765625,0,4.077,0,0,0,0.2000122,nan,2,1.357,1,0,0.1000061,0.1000061,0.1000061,0.1000061,0,0,0,1,3,0
546.081,0.000976,0.02734375,-0.03125,0.04101562,-0.59375,-2.367188,7.453125,0.015625,-0.015625,0.02539062,0,0,0,0.002075195,-0.001098633,0.02392578,0,0,0.0009765625,0,4.077,0,0,0,0.2000122,nan,2,1.368,1,0,0.1000061,0.1000061,0.1000061,0.1000061,0,0,0,1,3,0
546.091,0.00099,0.04882812,-0.04882812,0.06640625,1.8125,0.40625,13.28125,0.00390625,-0.00390625,0.05078125,0,0,0,0.002075195,-0.001098633,0.02429199,0,0,0.0009765625,0,4.077,0,0,0,0.2000122,nan,2,1.378,1,0,0.1000061,0.1000061,0.1000061,0.1000061,0,0,0,1,3,0
546.1,0.001012,0.015625,0.015625,0.04101562,-0.875,-0.34375,15.14062,0.001953125,0,0.05078125,0,0,0,0.002075195,-0.001098633,0.02478027,0,0,0.0009765625,0,4.077,0,0,0,0.2000122,nan,2,1.387,1,0,0.1000061,0.1000061,0.1000061,0.1000061,0,0,0,1,3,0
546.11,0.000984,0.03515625,0.03710938,-0.01367188,-0.078125,5.367188,10.32812,0,0.01171875,0.001953125,0,0,0,0.002075195,-0.001098633,0.02502441,0,0,0.0009765625,0,4.077,0,0,0,0.2000122,nan,2,1.397,1,0,0.1000061,0.1000061,0.1000061,0.1000061,0,0,0,1,3,0
546.12,0.001015,0.01367188,0,0.02734375,0.4609375,1.085938,8.828125,-0.0078125,0.0078125,0,0,0,0,0.002075195,-0.001098633,0.02502441,0,0,0.0009765625,0,4.077,0,0,0,0.2000122,nan,2,1.407,1,0,0.1000061,0.1000061,0.1000061,0.1000061,0,0,0,1,3,0
546.13,0.000967,0.005859375,0.0078125,0.05273438,-1.070312,-0.9765625,4.289062,-0.0078125,0.01171875,0.03515625,0,0,0,0.002075195,-0.001098633,0.02526855,0,0,0.0009765625,0,4.077,0,0,0,0.2000122,nan,2,1.417,1,0,0.1000061,0.1000061,0.1000061,0.1000061,0,0,0,1,3,0
546.14,0.001001,0.02148438,-0.04101562,0.0546875,1.1875,-1.6875,5.632812,-0.001953125,-0.0078125,0.05273438,0,0,0,0.002075195,-0.001098633,0.02575684,0,0,0.0009765625,0,4.077,0,0,0,0.2000122,nan,2,1.427,1,0,0.1000061,0.1000061,0.1000061,0.1000061,0,0,0,1,3,0
546.15,0.001031,0.01367188,-0.04296875,0.001953125,-0.84375,-4.398438,12.69531,0.0078125,-0.0078125,0.02539062,0,0,0,0.002075195,-0.001098633,0.02612305,0,0,0.0009765625,0,4.077,0,0,0,0.2000122,nan,2,1.437,1,0,0.1000061,0.1000061,0.1000061,0.1000061,0,0,0,1,3,0
546.16,0.001008,-0.0546875,0.01757812,-0.00390625,0.53125,1.515625,12.875,-0.00390625,0.00390625,-0.005859375,0,0,0,0.002197266,-0.001220703,0.02612305,0,0,0.0009765625,0,4.077,0,0,0,0.2000122,nan,2,1.447,1,0,0.1000061,0.1000061,0.1000061,0.1000061,0,0,0,1,3,0
546.17,0.001008,0.00390625,0.015625,0.03320312,0.9375,3.601562,14.50781,0.00390625,0.01171875,0.01757812,0,0,0,0.002197266,-0.001098633,0.02624512,0,0,0.0009765625,0,4.077,0,0,0,0.2000122,nan,2,1.457,1,0,0.1000061,0.1000061,0.1000061,0.1000061,0,0,0,1,3,0
546.181,0.001008,0.01171875,-0.03320312,0.05664062,-1.570312,1.273438,10.70312,0,-0.009765625,0.04882812,0,0,0,0.002197266,-0.001098633,0.02661133,0,0,0.0009765625,0,4.077,0,0,0,0.2000122,nan,2,1.467,1,0,0.1000061,0.1000061,0.1000061,0.1000061,0,0,0,1,3,0
546.191,0.001008,-0.0234375,0.02148438,0.04296875,0.7421875,0.375,3.351562,-0.005859375,0.0078125,0.05078125,0,0,0,0.002197266,-0.001098633,0.02709961,0,0,0.0009765625,0,4.077,0,0,0,0.2000122,nan,2,1.478,1,0,0.1000061,0.1000061,0.1000061,0.1000061,0,0,0,1,3,0
546.2,0.001009,0.0234375,-0.02929688,0.001953125,0.6796875,-5.101562,8.195312,0.0078125,-0.01367188,0.01367188,0,0,0,0.002197266,-0.001220703,0.02734375,0,0,0.0009765625,0,4.077,0,0,0,0.2000122,nan,2,1.487,1,0,0.1000061,0.1000061,0.1000061,0.1000061,0,0,0,1,3,0.5714286
546.21,0.001011,-0.015625,0.02734375,-0.009765625,-0.9609375,-1.632812,7.484375,0,0.001953125,0,0,0,0,0.002197266,-0.001098633,0.02746582,0,0,0.0009765625,0,4.077,0,0,0,0.2000122,nan,2,1.497,1,0,0.1000061,0.1000061,0.1000061,0.1000061,0,0,0,1,3,0
546.22,0.001007,-0.005859375,0.009765625,0.08007812,1.492188,-0.265625,14.64844,-0.005859375,0.0078125,0.04296875,0,0,0,0.002197266,-0.001098633,0.02758789,0,0,0.0009765625,0,4.077,0,0,0,0.2000122,nan,2,1.507,1,0,0.1000061,0.1000061,0.1000061,0.1000061,0,0,0,1,3,0
546.23,0.001009,-0.01367188,-0.0078125,0.078125,-0.296875,0.0546875,14.60156,0.001953125,0,0.08007812,0,0,0,0.002197266,-0.001098633,0.02832031,0,0,0.0009765625,0,4.077,0,0,0,0.2000122,nan,2,1.517,1,0,0.1000061,0.1000061,0.1000061,0.1000061,0,0,0,1,3,0
546.24,0.001009,0.02148438,0,0.04101562,-1.359375,4.8125,9.609375,-0.001953125,0.0078125,0.05664062,0,0,0,0.002197266,-0.001098633,0.02905273,0,0,0.0009765625,0,4.077,0,0,0,0.2000122,nan,2,1.527,1,0,0.1000061,0.1000061,0.1000061,0.1000061,0,0,0,1,3,0
546.25,0.001009,-0.0078125,0.0078125,-0.02929688,0.09375,-0.75,8.007812,0,-0.0078125,-0.005859375,0,0,0,0.002075195,-0.001098633,0.0291748,0,0,0.0009765625,0,4.077,0,0,0,0.2000122,nan,2,1.537,1,0,0.1000061,0.1000061,0.1000061,0.1000061,0,0,0,1,3,0
546.26,0.001009,-0.015625,0.02539062,0.03710938,-0.109375,-1.78125,5.179688,0.00390625,0.0078125,0.01367188,0,0,0,0.002197266,-0.001098633,0.0291748,0,0,0.0009765625,0,4.077,0,0,0,0.2000122,nan,2,1.547,1,0,0.1000061,0.1000061,0.1000061,0.1000061,0,0,0,1,3,0
546.27,0.000997,0.001953125,-0.0234375,0.08203125,0.640625,-0.265625,4.726562,0.001953125,0.00390625,0.06640625,0,0,0,0.002197266,-0.0009765625,0.02966309,0,0,0.0009765625,0,4.077,0,0,0,0.2000122,nan,2,1.557,1,0,0.1000061,0.1000061,0.1000061,0.1000061,0,0,0,1,3,0
546.281,0.001009,-0.01757812,-0.015625,0.05859375,0.109375,-4.945312,13.25781,-0.01367188,-0.001953125,0.06445312,0,0,0,0.002075195,-0.0009765625,0.03039551,0,0,0.0009765625,0,4.077,0,0,0,0.2000122,nan,2,1.567,1,0,0.1000061,0.1000061,0.1000061,0.1000061,0,0,0,1,3,0
546.291,0.001009,0.00390625,0.015625,-0.03125,0.9765625,1.140625,13.10938,-0.001953125,0.0078125,-0.005859375,0,0,0,0.001953125,-0.0009765625,0.03063965,0,0,0.0009765625,0,4.077,0,0,0,0.2000122,nan,2,1.578,1,0,0.1000061,0.1000061,0.1000061,0.1000061,0,0,0,1,3,0
546.3,0.001013,0,-0.015625,0.04101562,0.3671875,4.773438,15.03906,0.001953125,0.001953125,0.0078125,0,0,0,0.002075195,-0.0009765625,0.03051758,0,0,0.0009765625,0,4.077,0,0,0,0.2000122,nan,2,1.587,1,0,0.1000061,0.1000061,0.1000061,0.1000061,0,0,0,1,3,0
546.31,0.00102,0.009765625,-0.01171875,0.07226562,-1.71875,-0.1875,12.96875,0,0.001953125,0.06054688,0,0,0,0.002075195,-0.0009765625,0.03100586,0,0,0.0009765625,0,4.077,0,0,0,0.2000122,nan,2,1.597,1,0,0.1000061,0.1000061,0.1000061,0.1000061,0,0,0,1,3,0
546.32,0.001025,0.02539062,-0.001953125,0.05273438,0.2421875,4.28125,6.648438,0.00390625,-0.005859375,0.06835938,0,0,0,0.002075195,-0.0009765625,0.03161621,0,0,0.0009765625,0,4.077,0,0,0,0.2000122,nan,2,1.607,1,0,0.1000061,0.1000061,0.1000061,0.1000061,0,0,0,1,3,0
546.33,0.00104,0.03515625,-0.02539062,-0.01367188,-0.40625,0.0859375,7.039062,0.01171875,-0.009765625,0,0,0,0,0.002075195,-0.0009765625,0.03198242,0,0,0.0009765625,0,4.077,0,0,0,0.2000122,nan,2,1.617,1,0,0.1000061,0.1000061,0.1000061,0.1000061,0,0,0,1,3,0
546.34,0.001013,0.04101562,0,0.01367188,-0.4296875,-3.835938,4.9375,0.00390625,0.00390625,0.001953125,0,0,0,0.002075195,-0.0009765625,0.03186035,0,0,0.0009765625,0,4.077,0,0,0,0.2000122,nan,2,1.627,1,0,0.1000061,0.1000061,0.1000061,0.1000061,0,0,0,1,3,0
546.35,0.001013,0.001953125,-0.01367188,0.03125,1.4375,0.25,6.132812,-0.001953125,-0.001953125,0.02929688,0,0,0,0.002075195,-0.0009765625,0.03210449,0,0,0.0009765625,0,4.077,0,0,0,0.2000122,nan,2,1.637,1,0,0.1000061,0.1000061,0.1000061,0.1000061,0,0,0,1,3,0
546.36,0.001013,0.001953125,-0.00390625,0.0078125,-0.9921875,-3.960938,14.07812,0.009765625,-0.00390625,0.02148438,0,0,0,0.002197266,-0.0009765625,0.03234863,0,0,0.0009765625,0,4.077,0,0,0,0.2000122,nan,2,1.647,1,0,0.1000061,0.1000061,0.1000061,0.1000061,0,0,0,1,3,0
546.37,0.001013,-0.005859375,0.005859375,-0.02539062,0.2109375,-0.7578125,12.22656,-0.0078125,0.009765625,-0.01953125,0,0,0,0.002075195,-0.0008544922,0.03234863,0,0,0.0009765625,0,4.077,0,0,0,0.2000122,nan,2,1.657,1,0,0.1000061,0.1000061,0.1000061,0.1000061,0,0,0,1,3,0
546.381,0.001013,0.009765625,-0.01757812,0.01953125,1.796875,5,14.52344,0.005859375,0.001953125,-0.001953125,0,0,0,0.002075195,-0.0008544922,0.03222656,0,0,0.0009765625,0,4.077,0,0,0,0.2000122,nan,2,1.667,1,0,0.1000061,0.1000061,0.1000061,0.1000061,0,0,0,1,3,0
546.391,0.001013,-0.0078125,0.009765625,0.0234375,-2.929688,0.1875,13.24219,-0.00390625,0.005859375,0.015625,0,0,0,0.002075195,-0.0008544922,0.03222656,0,0,0.0009765625,0,4.077,0,0,0,0.2000122,nan,2,1.678,1,0,0.1000061,0.1000061,0.1000061,0.1000061,0,0,0,1,3,0
546.4,0.00101,-0.01367188,-0.01171875,-0.001953125,0.5234375,2.507812,4.046875,0.001953125,-0.00390625,0.005859375,0,0,0,0.002075195,-0.0008544922,0.03234863,0,0,0.0009765625,0,4.077,0,0,0,0.2000122,nan,2,1.687,1,0,0.1000061,0.1000061,0.1000061,0.1000061,0,0,0,1,3,0
546.41,0.001018,-0.03515625,0.02929688,-0.001953125,0.9765625,1.109375,8.914062,-0.01367188,0.0078125,-0.001953125,0,0,0,0.002075195,-0.0008544922,0.03234863,0,0,0.0009765625,0,4.077,0,0,0,0.2000122,nan,2,1.697,1,0,0.1000061,0.1000061,0.1000061,0.1000061,0,0,0,1,3,0
546.42,0.001013,0.01757812,0.0078125,-0.02539062,-1.664062,-4.234375,5.851562,0,0.001953125,-0.015625,0,0,0,0.001953125,-0.0007324219,0.03234863,0,0,0.0009765625,0,4.077,0,0,0,0.2000122,nan,2,1.707,1,0,0.1000061,0.1000061,0.1000061,0.1000061,0,0,0,1,3,0
546.43,0.001011,0.015625,0.005859375,0.009765625,1.289062,-1.296875,6.296875,0.005859375,-0.00390625,-0.001953125,0,0,0,0.002075195,-0.0007324219,0.03222656,0,0,0.0009765625,0,4.077,0,0,0,0.2000122,nan,2,1.717,1,0,0.1000061,0.1000061,0.1000061,0.1000061,0,0,0,1,3,0
546.44,0.00101,-0.0078125,-0.009765625,0.009765625,1.367188,-1.382812,17.19531,-0.005859375,0.001953125,0.01171875,0,0,0,0.002075195,-0.0007324219,0.03222656,0,0,0.0009765625,0,4.077,0,0,0,0.2000122,nan,2,1.727,1,0,0.1000061,0.1000061,0.1000061,0.1000061,0,0,0,1,3,0
546.45,0.00101,0.005859375,0.001953125,-0.001953125,-1.53125,0.375,10.67188,0,-0.009765625,0.00390625,0,0,0,0.002075195,-0.0007324219,0.03234863,0,0,0.0009765625,0,4.077,0,0,0,0.2000122,nan,2,1.737,1,0,0.1000061,0.1000061,0.1000061,0.1000061,0,0,0,1,3,0
546.46,0.00101,-0.01757812,-0.005859375,-0.02734375,1.320312,3.492188,11.51562,-0.00390625,0.00390625,-0.03125,0,0,0,0.002075195,-0.0007324219,0.03210449,0,0,0.0009765625,0,4.077,0,0,0,0.2000122,nan,2,1.747,1,0,0.1000061,0.1000061,0.1000061,0.1000061,0,0,0,1,3,0
546.47,0.000958,-0.01757812,0.02734375,0.005859375,-0.453125,2.390625,14.61719,-0.005859375,0.00390625,-0.00390625,0,0,0,0.002075195,-0.0007324219,0.03198242,0,0,0.0009765625,0,4.077,0,0,0,0.2000122,nan,2,1.757,1,0,0.1000061,0.1000061,0.1000061,0.1000061,0,0,0,1,3,0
546.481,0.00105,0.009765625,-0.005859375,0.001953125,-1.195312,1.40625,2.359375,-0.001953125,0.00390625,0.005859375,0,0,0,0.002075195,-0.0006103516,0.03198242,0,0,0.0009765625,0,4.077,0,0,0,0.2000122,nan,2,1.768,1,0,0.1000061,0.1000061,0.1000061,0.1000061,0,0,0,1,3,0
546.491,0.000981,0.0078125,-0.02148438,-0.0234375,1.34375,-2.679688,6.570312,0.01171875,-0.01171875,-0.01171875,0,0,0,0.002075195,-0.0007324219,0.03198242,0,0,0.0009765625,0,4.077,0,0,0,0.2000122,nan,2,1.778,1,0,0.1000061,0.1000061,0.1000061,0.1000061,0,0,0,1,3,0
546.5,0.000995,-0.009765625,-0.0078125,0.01171875,0.1953125,-1.648438,8.648438,-0.005859375,-0.001953125,-0.0078125,0,0,0,0.002075195,-0.0007324219,0.03186035,0,0,0.0009765625,0,4.077,0,0,0,0.2000122,nan,2,1.787,1,0,0.1000061,0.1000061,0.1000061,0.1000061,0,0,0,1,3,0
546.51,0.001023,0.00390625,-0.01367188,0.01757812,0.1796875,-0.7109375,7.875,-0.00390625,0.00390625,0.01757812,0,0,0,0.001953125,-0.0006103516,0.03198242,0,0,0.0009765625,0,4.077,0,0,0,0.2000122,nan,2,1.797,1,0,0.1000061,0.1000061,0.1000061,0.1000061,0,0,0,1,3,0
546.52,0.001009,-0.005859375,-0.02734375,-0.005859375,0.46875,-2.273438,16.75,0.001953125,-0.01367188,0.00390625,0,0,0,0.001953125,-0.0006103516,0.03210449,0,0,0.0009765625,0,4.077,0,0,0,0.2000122,nan,2,1.807,1,0,0.1000061,0.1000061,0.1000061,0.1000061,0,0,0,1,3,0
546.53,0.00101,-0.005859375,-0.02539062,-0.04101562,-0.046875,4.15625,12.41406,0.001953125,-0.001953125,-0.03515625,0,0,0,0.002075195,-0.0007324219,0.03186035,0,0,0.0009765625,0,4.077,0,0,0,0.2000122,nan,2,1.817,1,0,0.1000061,0.1000061,0.1000061,0.1000061,0,0,0,1,3,0
546.54,0.00101,-0.0078125,-0.005859375,0.009765625,0.4609375,3.507812,14.07031,-0.009765625,0.0078125,-0.0078125,0,0,0,0.002075195,-0.0007324219,0.03161621,0,0,0.0009765625,0,4.077,0,0,0,0.2000122,nan,2,1.827,1,0,0.1000061,0.1000061,0.1000061,0.1000061,0,0,0,1,3,0
546.55,0.00101,0,0.001953125,0.02734375,-1.632812,1.429688,11.74219,-0.0078125,0,0.0234375,0,0,0,0.001953125,-0.0006103516,0.03173828,0,0,0.0009765625,0,4.077,0,0,0,0.2000122,nan,2,1.837,1,0,0.1000061,0.1000061,0.1000061,0.1000061,0,0,0,1,3,0
546.56,0.00101,0.01171875,0.005859375,0.009765625,0.8671875,2.984375,4.640625,0.00390625,0.005859375,0.0234375,0,0,0,0.001953125,-0.0006103516,0.03198242,0,0,0.0009765625,0,4.077,0,0,0,0.2000122,nan,2,1.847,1,0,0.1000061,0.1000061,0.1000061,0.1000061,0,0,0,1,3,0
546.57,0.00101,0.005859375,0.03320312,-0.01953125,-0.3125,-3.21875,7.476562,-0.001953125,0.001953125,-0.015625,0,0,0,0.001953125,-0.0006103516,0.03210449,0,0,0.0009765625,0,4.077,0,0,0,0.2000122,nan,2,1.857,1,0,0.1000061,0.1000061,0.1000061,0.1000061,0,0,0,1,3,0
546.581,0.00101,0.00390625,0.01367188,0.01367188,-1.203125,-1.71875,4.164062,0.00390625,0.0078125,0.0078125,0,0,0,0.001953125,-0.0004882812,0.03210449,0,0,0.0009765625,0,4.077,0,0,0,0.2000122,nan,2,1.867,1,0,0.1000061,0.1000061,0.1000061,0.1000061,0,0,0,1,3,0
546.591,0.00101,-0.009765625,-0.01953125,0.06640625,0.7890625,-1.28125,7.976562,0.001953125,-0.0078125,0.04101562,0,0,0,0.001831055,-0.0004882812,0.03222656,0,0,0.0009765625,0,4.077,0,0,0,0.2000122,nan,2,1.878,1,0,0.1000061,0.1000061,0.1000061,0.1000061,0,0,0,1,3,0
546.601,0.00101,0.03320312,-0.009765625,0.01171875,0.65625,3.15625,5.125,0.001953125,-0.01171875,0.03320312,0,0,0,0.001831055,-0.0006103516,0.03271484,0,0,0.0009765625,0,4.077,0,0,0,0.2000122,nan,2,1.888,1,0,0.1000061,0.1000061,0.1000061,0.1000061,0,0,0,1,3,0
546.61,0.001015,0.01171875,0.03320312,0.00390625,0.765625,2.007812,12.82031,-0.0078125,0.001953125,0.009765625,0,0,0,0.001831055,-0.0006103516,0.03283691,0,0,0.0009765625,0,4.077,0,0,0,0.2000122,nan,2,1.897,1,0,0.1000061,0.1000061,0.1000061,0.1000061,0,0,0,1,3,0
546.62,0.000994,0.009765625,0.0234375,0.02148438,0.328125,2.859375,15.41406,-0.0078125,0.005859375,-0.001953125,0,0,0,0.001831055,-0.0006103516,0.03283691,0,0,0.0009765625,0,4.077,0,0,0,0.2000122,nan,2,1.907,1,0,0.1000061,0.1000061,0.1000061,0.1000061,0,0,0,1,3,0
546.63,0.001028,0.009765625,0.04101562,0.06640625,-1.914062,1.351562,12.32812,0,0.01757812,0.05078125,0,0,0,0.001708984,-0.0004882812,0.03308105,0,0,0.0009765625,0,4.077,0,0,0,0.2000122,nan,2,1.917,1,0,0.1000061,0.1000061,0.1000061,0.1000061,0,0,0,1,3,0
546.64,0.001014,-0.0078125,0.02148438,0.03320312,0.3984375,4.414062,6.75,-0.00390625,0.0078125,0.04101562,0,0,0,0.001708984,-0.0004882812,0.03356934,0,0,0.0009765625,0,4.077,0,0,0,0.2000122,nan,2,1.927,1,0,0.1000061,0.1000061,0.1000061,0.1000061,0,0,0,1,3,0
546.65,0.001009,0.009765625,-0.005859375,-0.02734375,-1.320312,-2.328125,7.546875,-0.009765625,0.005859375,-0.0078125,0,0,0,0.001708984,-0.0006103516,0.03369141,0,0,0.0009765625,0,4.077,0,0,0,0.2000122,nan,2,1.937,1,0,0.1000061,0.1000061,0.1000061,0.1000061,0,0,0,1,3,0
546.66,0.001009,0.015625,0.01953125,0.03515625,-0.046875,-2.945312,3.09375,-0.005859375,0.005859375,0.01171875,0,0,0,0.001586914,-0.0004882812,0.03356934,0,0,0.0009765625,0,4.077,0,0,0,0.2000122,nan,2,1.947,1,0,0.1000061,0.1000061,0.1000061,0.1000061,0,0,0,1,3,0
546.67,0.00101,-0.009765625,0.009765625,0.0390625,1.273438,-0.2578125,6.632812,-0.0078125,-0.00390625,0.04492188,0,0,0,0.001586914,-0.0004882812,0.03393555,0,0,0.0009765625,0,4.077,0,0,0,0.2000122,nan,2,1.957,1,0,0.1000061,0.1000061,0.1000061,0.1000061,0,0,0,1,3,0
546.681,0.001003,0,0.001953125,0.0078125,-1.773438,-5.328125,11.70312,0.001953125,0,0.02929688,0,0,0,0.001708984,-0.0006103516,0.03442383,0,0,0.0009765625,0,4.077,0,0,0,0.2000122,nan,2,1.967,1,0,0.1000061,0.1000061,0.1000061,0.1000061,0,0,0,1,3,0
546.69,0.001063,0.01171875,0.01953125,-0.03125,-0.2109375,4.914062,11.75,0.001953125,0.009765625,-0.01953125,0,0,0,0.001708984,-0.0004882812,0.03442383,0,0,0.0009765625,0,4.077,0,0,0,0.2000122,nan,2,1.977,1,0,0.1000061,0.1000061,0.1000061,0.1000061,0,0,0,1,3,0
546.7,0.001031,0.02734375,-0.046875,0.02929688,2.351562,3.539062,17.70312,0.009765625,0,0.009765625,0,0,0,0.001708984,-0.0004882812,0.03442383,0,0,0.0009765625,0,4.077,0,0,0,0.2000122,nan,2,1.987,1,0,0.1000061,0.1000061,0.1000061,0.1000061,0,0,0,1,3,0
546.71,0.001011,0.0234375,0.015625,0.03125,-2.523438,0.8125,14.13281,0.009765625,-0.001953125,0.02929688,0,0,0,0.001708984,-0.0004882812,0.03466797,0,0,0.0009765625,0,4.077,0,0,0,0.2000122,nan,2,1.997,1,0,0.1000061,0.1000061,0.1000061,0.1000061,0,0,0,1,3,0
546.72,0.001004,-0.01367188,0.02734375,-0.0234375,0.96875,4.226562,8.929688,0,-0.00390625,-0.001953125,0,0,0,0.001708984,-0.0004882812,0.03479004,0,0,0.0009765625,0,4.077,0,0,0,0.2000122,nan,2,2.007,1,0,0.1000061,0.1000061,0.1000061,0.1000061,0,0,0,1,3,0.5396826
546.73,0.00101,-0.001953125,-0.005859375,-0.005859375,0.6171875,0.8984375,11.23438,0.0078125,-0.0078125,-0.0078125,0,0,0,0.001831055,-0.0004882812,0.03466797,0,0,0.0009765625,0,4.077,0,0,0,0.2000122,nan,2,2.017,1,0,0.1000061,0.1000061,0.1000061,0.1000061,0,0,0,1,3,0
546.74,0.00101,0.02148438,0.03320312,0.009765625,-1.375,-0.203125,4.117188,-0.00390625,0.0078125,-0.00390625,0,0,0,0.001708984,-0.0006103516,0.03466797,0,0,0.0009765625,0,4.077,0,0,0,0.2000122,nan,2,2.027,1,0,0.1000061,0.1000061,0.1000061,0.1000061,0,0,0,1,3,0
546.75,0.00101,-0.009765625,-0.04492188,0.0234375,1.695312,0.609375,3.421875,-0.001953125,-0.009765625,0.02734375,0,0,0,0.001831055,-0.0004882812,0.03479004,0,0,0.0009765625,0,4.077,0,0,0,0.2000122,nan,2,2.037,1,0,0.1000061,0.1000061,0.1000061,0.1000061,0,0,0,1,3,0
546.76,0.00101,0.009765625,0.001953125,0.0078125,-0.2265625,-4.96875,9.734375,0.005859375,-0.001953125,0.01757812,0,0,0,0.001831055,-0.0006103516,0.03503418,0,0,0.0009765625,0,4.077,0,0,0,0.2000122,nan,2,2.047,1,0,0.1000061,0.1000061,0.1000061,0.1000061,0,0,0,1,3,0
546.77,0.00101,-0.005859375,-0.005859375,-0.02734375,0.015625,-2.773438,4.617188,-0.001953125,-0.00390625,-0.01953125,0,0,0,0.001831055,-0.0006103516,0.03491211,0,0,0.0009765625,0,4.077,0,0,0,0.2000122,nan,2,2.057,1,0,0.1000061,0.1000061,0.1000061,0.1000061,0,0,0,1,3,0
546.781,0.00101,0,0.0078125,0.01757812,1.429688,-0.1953125,11.67969,0,0.01171875,0.0078125,0,0,0,0.001831055,-0.0004882812,0.03491211,0,0,0.0009765625,0,4.077,0,0,0,0.2000122,nan,2,2.067,1,0,0.1000061,0.1000061,0.1000061,0.1000061,0,0,0,1,3,0
546.791,0.00101,-0.009765625,-0.0234375,0.01757812,-1.578125,-3.09375,16.33594,-0.001953125,-0.01171875,0.01953125,0,0,0,0.001831055,-0.0006103516,0.03503418,0,0,0.0009765625,0,4.077,0,0,0,0.2000122,nan,2,2.078,1,0,0.1000061,0.1000061,0.1000061,0.1000061,0,0,0,1,3,0
546.801,0.00101,-0.01757812,-0.015625,-0.03125,-0.4140625,-3.203125,8.84375,0.001953125,-0.005859375,-0.01757812,0,0,0,0.001831055,-0.0006103516,0.03503418,0,0,0.0009765625,0,4.077,0,0,0,0.2000122,nan,2,2.088,1,0,0.1000061,0.1000061,0.1000061,0.1000061,0,0,0,1,3,0.1428571
546.81,0.001008,0.001953125,-0.02539062,0.00390625,1.976562,3.453125,16.48438,-0.001953125,-0.001953125,-0.0078125,0,0,0,0.001831055,-0.0006103516,0.03491211,0,0,0.0009765625,0,4.077,0,0,0,0.2000122,nan,2,2.097,1,0,0.1000061,0.1000061,0.1000061,0.1000061,0,0,0,1,3,0
546.82,0.001019,0,0.00390625,0.0078125,-2.929688,2.546875,13.6875,0.001953125,-0.00390625,0.005859375,0,0,0,0.001831055,-0.0006103516,0.03491211,0,0,0.0009765625,0,4.077,0,0,0,0.1989746,nan,2,2.107,1,0,0.1000061,0.1000061,0.1000061,0.1000061,0,0,0,1,3,0
546.83,0.001013,-0.00390625,-0.00390625,-0.01757812,0.1015625,1.726562,4.695312,0.0078125,-0.00390625,-0.009765625,0,0,0,0.001953125,-0.0007324219,0.03491211,0,0,0.0009765625,0,4.077,0,0,0,0.1970215,nan,2,2.117,1,0,0.1000061,0.1000061,0.1000061,0.1000061,0,0,0,1,3,0
546.84,0.00101,0,-0.00390625,0.001953125,1.140625,0.484375,9.726562,0,-0.001953125,-0.0078125,0,0,0,0.001953125,-0.0008544922,0.03479004,0,0,0.0009765625,0,4.077,0,0,0,0.1950073,nan,2,2.127,1,0,0.1000061,0.1000061,0.1000061,0.1000061,0,0,0,1,3,0.9047619
546.85,0.00101,0.02734375,0.00390625,-0.009765625,-1.328125,-0.15625,3.890625,0.001953125,-0.00390625,-0.009765625,0,0,0,0.001953125,-0.0007324219,0.03479004,0,0,0.0009765625,0,4.077,0,0,0,0.1929932,nan,2,2.137,1,0,0.1000061,0.1000061,0.1000061,0.1000061,0,0,0,1,3,0
546.86,0.000985,0.01171875,0.0234375,-0.01757812,1.171875,-2.523438,2.835938,0.0078125,0.0078125,-0.015625,0,0,0,0.001831055,-0.0007324219,0.0345459,0,0,0.0009765625,0,4.077,0,0,0,0.190979,nan,2,2.147,1,0,0.1000061,0.1000061,0.1000061,0.1000061,0,0,0,1,3,0
546.87,0.000995,-0.03710938,0.0078125,-0.009765625,-0.0234375,-3.84375,10.91406,-0.00390625,-0.001953125,-0.015625,0,0,0,0.001831055,-0.0008544922,0.03442383,0,0,0.0009765625,0,4.077,0,0,0,0.1890259,nan,2,2.157,1,0,0.1000061,0.1000061,0.1000061,0.1000061,0,0,0,1,3,0
546.88,0.000975,-0.01757812,-0.015625,-0.01757812,0.1171875,-1.65625,6.28125,-0.015625,0.005859375,-0.015625,0,0,0,0.001831055,-0.0008544922,0.03430176,0,0,0.0009765625,0,4.077,0,0,0,0.1870117,nan,2,2.167,1,0,0.1000061,0.1000061,0.1000061,0.1000061,0,0,0,1,3,0
546.891,0.001062,0.005859375,0.00390625,0.02734375,0.984375,-0.9296875,12.34375,-0.005859375,0.001953125,0.01171875,0,0,0,0.001708984,-0.0007324219,0.03417969,0,0,0.0009765625,0,4.077,0,0,0,0.1849976,nan,2,2.178,1,0,0.1000061,0.1000061,0.1000061,0.1000061,0,0,0,1,3,0
546.901,0.00101,0.01367188,-0.009765625,0.00390625,-0.546875,-0.59375,16.79688,0.009765625,-0.015625,0.001953125,0,0,0,0.001708984,-0.0008544922,0.03430176,0,0,0.0009765625,0,4.077,0,0,0,0.1829834,nan,2,2.188,1,0,0.1000061,0.1000061,0.1000061,0.1000061,0,0,0,1,3,0
546.91,0.001016,0.009765625,0,-0.02539062,-0.03125,2.914062,11.07031,0.009765625,0.00390625,-0.02539062,0,0,0,0.001831055,-0.0009765625,0.03417969,0,0,0.0009765625,0,4.077,0,0,0,0.1812134,nan,2,2.197,1,0,0.1000061,0.1000061,0.1000061,0.1000061,0,0,0,1,3,0
546.92,0.001011,-0.01757812,0.001953125,0.03125,0.8828125,3.171875,14.57812,-0.001953125,0.009765625,0.0078125,0,0,0,0.001831055,-0.0008544922,0.03405762,0,0,0.0009765625,0,4.077,0,0,0,0.1790161,nan,2,2.207,1,0,0.1000061,0.1000061,0.1000061,0.1000061,0,0,0,1,3,0
546.93,0.001007,-0.02539062,-0.01367188,0.01953125,-2.25,3.328125,12.21094,-0.005859375,-0.00390625,0.02539062,0,0,0,0.001708984,-0.0008544922,0.03430176,0,0,0.0009765625,0,4.077,0,0,0,0.177002,nan,2,2.217,1,0,0.1000061,0.1000061,0.1000061,0.1000061,0,0,0,1,3,0
546.94,0.001008,0.01171875,-0.0234375,-0.02734375,0.1484375,0.890625,5.109375,0.001953125,-0.0078125,-0.0078125,0,0,0,0.001831055,-0.0008544922,0.03430176,0,0,0.0009765625,0,4.077,0,0,0,0.1749878,nan,2,2.227,1,0,0.1000061,0.1000061,0.1000061,0.1000061,0,0,0,1,3,0
546.95,0.001008,0.03320312,0.0078125,-0.001953125,0.171875,-0.765625,7.898438,0.001953125,0,-0.01171875,0,0,0,0.001831055,-0.0009765625,0.03417969,0,0,0.0009765625,0,4.077,0,0,0,0.1729736,nan,2,2.237,1,0,0.1000061,0.1000061,0.1000061,0.1000061,0,0,0,1,3,0
546.96,0.001008,0.00390625,-0.0078125,0.03320312,-0.6328125,0.640625,2.898438,0.001953125,-0.00390625,0.01757812,0,0,0,0.001831055,-0.0009765625,0.03417969,0,0,0.0009765625,0,4.077,0,0,0,0.1710205,nan,2,2.247,1,0,0.1000061,0.1000061,0.1000061,0.1000061,0,0,0,1,3,0
546.97,0.001008,-0.0078125,0.001953125,0.01757812,0.4453125,-2.265625,5.15625,0.001953125,0.0078125,0.02929688,0,0,0,0.001831055,-0.0009765625,0.0345459,0,0,0.0009765625,0,4.077,0,0,0,0.1690063,nan,2,2.257,1,0,0.1000061,0.1000061,0.1000061,0.1000061,0,0,0,1,3,0
546.98,0.001008,-0.0234375,-0.01953125,0.001953125,0.328125,-5.421875,8.859375,-0.009765625,-0.005859375,0.001953125,0,0,0,0.001831055,-0.0009765625,0.03466797,0,0,0.0009765625,0,4.077,0,0,0,0.1669922,nan,2,2.267,1,0,0.1000061,0.1000061,0.1000061,0.1000061,0,0,0,1,3,0
546.991,0.001008,-0.015625,-0.02148438,0.001953125,0.9453125,-0.15625,6.101562,-0.0078125,-0.00390625,-0.001953125,0,0,0,0.001708984,-0.0009765625,0.03466797,0,0,0.0009765625,0,4.077,0,0,0,0.164978,nan,2,2.278,1,0,0.1000061,0.1000061,0.1000061,0.1000061,0,0,0,1,3,0
547.001,0.001015,0.02148438,0.01171875,0.06054688,0.0703125,0.953125,2.039062,-0.001953125,0.01171875,0.04492188,0,0,0,0.001708984,-0.0008544922,0.03491211,0,0,0.0009765625,0,4.077,0,0,0,0.1630249,nan,2,2.288,1,0,0.1000061,0.1000061,0.1000061,0.1000061,0,0,0,1,3,0
547.01,0.001021,0.046875,-0.001953125,0.02929688,-1.351562,-4.617188,14.79688,0.01171875,0.00390625,0.04101562,0,0,0,0.001708984,-0.0008544922,0.03527832,0,0,0.0009765625,0,4.077,0,0,0,0.1611938,nan,2,2.297,1,0,0.1000061,0.1000061,0.1000061,0.1000061,0,0,0,1,3,0
547.02,0.000985,0.00390625,-0.00390625,-0.04101562,1.554688,3.75,11.71094,0.00390625,0.005859375,-0.01367188,0,0,0,0.001708984,-0.0009765625,0.03540039,0,0,0.0009765625,0,4.077,0,0,0,0.1589966,nan,2,2.307,1,0,0.1000061,0.1000061,0.1000061,0.1000061,0,0,0,1,3,0
547.03,0.001007,0.01757812,-0.0234375,0.0234375,1.140625,3.515625,18.63281,0.001953125,0.005859375,0.005859375,0,0,0,0.001708984,-0.0008544922,0.03527832,0,0,0.0009765625,0,4.077,0,0,0,0.1569824,nan,2,2.317,1,0,0.1000061,0.1000061,0.1000061,0.1000061,0,0,0,1,3,0
547.04,0.001009,0.001953125,-0.04296875,0.03515625,-3.171875,1.398438,11.73438,-0.001953125,-0.009765625,0.03710938,0,0,0,0.001708984,-0.0008544922,0.03552246,0,0,0.0009765625,0,4.077,0,0,0,0.1550293,nan,2,2.327,1,0,0.1000061,0.1000061,0.1000061,0.1000061,0,0,0,1,3,0
547.05,0.001009,0.0234375,0.03320312,-0.015625,1.015625,3.140625,7.882812,-0.00390625,0.009765625,0.005859375,0,0,0,0.001708984,-0.0009765625,0.0357666,0,0,0.0009765625,0,4.077,0,0,0,0.1530151,nan,2,2.337,1,0,0.1000061,0.1000061,0.1000061,0.1000061,0,0,0,1,3,0
547.06,0.001009,0.00390625,0.02539062,0.0078125,0.71875,1.671875,13.14844,-0.00390625,0.0078125,-0.00390625,0,0,0,0.001708984,-0.0009765625,0.0357666,0,0,0.0009765625,0,4.077,0,0,0,0.151001,nan,2,2.347,1,0,0.1000061,0.1000061,0.1000061,0.1000061,0,0,0,1,3,0
547.07,0.001009,-0.001953125,-0.0078125,0.01171875,-2.023438,0.0625,2.28125,0.001953125,-0.00390625,0.01171875,0,0,0,0.001708984,-0.0009765625,0.0357666,0,0,0.0009765625,0,4.077,0,0,0,0.1489868,nan,2,2.357,1,0,0.1000061,0.1000061,0.1000061,0.1000061,0,0,0,1,3,0
547.08,0.001009,-0.05273438,0.01757812,-0.00390625,1.0625,-1.515625,2.875,-0.00390625,0.01367188,0.00390625,0,0,0,0.001708984,-0.0009765625,0.03588867,0,0,0.0009765625,0,4.077,0,0,0,0.1469727,nan,2,2.367,1,0,0.1000061,0.1000061,0.1000061,0.1000061,0,0,0,1,3,0
547.091,0.001009,-0.01757812,0.00390625,0.001953125,0.2734375,-3.210938,10.13281,-0.005859375,-0.00390625,-0.00390625,0,0,0,0.001708984,-0.0009765625,0.03588867,0,0,0.0009765625,0,4.077,0,0,0,0.1450195,nan,2,2.378,1,0,0.1000061,0.1000061,0.1000061,0.1000061,0,0,0,1,3,0
547.101,0.001009,0.02734375,-0.02734375,-0.009765625,0.078125,-1.375,4.101562,-0.005859375,-0.00390625,-0.00390625,0,0,0,0.001708984,-0.0009765625,0.03588867,0,0,0.0009765625,0,4.077,0,0,0,0.1430054,nan,2,2.388,1,0,0.1000061,0.1000061,0.1000061,0.1000061,0,0,0,1,3,0
547.11,0.001016,0.03515625,-0.01367188,-0.01953125,0.0625,-2.53125,8.6875,0.01171875,0.0078125,-0.009765625,0,0,0,0.001708984,-0.0009765625,0.0357666,0,0,0.0009765625,0,4.077,0,0,0,0.1411743,nan,2,2.397,1,0,0.1000061,0.1000061,0.1000061,0.1000061,0,0,0,1,3,0
547.12,0.00101,-0.015625,-0.005859375,-0.01757812,-0.4140625,-2.5,14.50781,-0.001953125,-0.00390625,-0.01953125,0,0,0,0.001708984,-0.0009765625,0.03564453,0,0,0.0009765625,0,4.077,0,0,0,0.1389771,nan,2,2.407,1,0,0.1000061,0.1000061,0.1000061,0.1000061,0,0,0,1,3,0
547.13,0.00101,-0.03515625,0.001953125,-0.001953125,1.578125,2.453125,13.73438,-0.01171875,0.009765625,-0.01171875,0,0,0,0.001708984,-0.0009765625,0.03540039,0,0,0.0009765625,0,4.077,0,0,0,0.1370239,nan,2,2.417,1,0,0.1000061,0.1000061,0.1000061,0.1000061,0,0,0,1,3,0
547.14,0.001013,-0.02734375,-0.01367188,0.046875,0.7265625,-0.3203125,16.27344,-0.0078125,0,0.02929688,0,0,0,0.001708984,-0.0009765625,0.03552246,0,0,0.0009765625,0,4.077,0,0,0,0.1350098,nan,2,2.427,1,0,0.1000061,0.1000061,0.1000061,0.1000061,0,0,0,1,3,0
547.15,0.001013,0.01171875,-0.009765625,0.01757812,-1.742188,2.828125,11.75,-0.01367188,0,0.02929688,0,0,0,0.001708984,-0.0009765625,0.03588867,0,0,0.0009765625,0,4.077,0,0,0,0.1329956,nan,2,2.437,1,0,0.1000061,0.1000061,0.1000061,0.1000061,0,0,0,1,3,0
547.16,0.001064,-0.0234375,0.015625,-0.0390625,0.609375,4.398438,10.09375,-0.0234375,0.0078125,-0.0234375,0,0,0,0.001464844,-0.0008544922,0.03588867,0,0,0.0009765625,0,4.077,0,0,0,0.1309814,nan,2,2.447,1,0,0.1000061,0.1000061,0.1000061,0.1000061,0,0,0,1,3,0
547.171,0.001021,0.01757812,0.02929688,0.01367188,-0.515625,0.0390625,13.82812,-0.009765625,0.01367188,-0.009765625,0,0,0,0.001342773,-0.0007324219,0.03564453,0,0,0.0009765625,0,4.077,0,0,0,0.1290283,nan,2,2.457,1,0,0.1000061,0.1000061,0.1000061,0.1000061,0,0,0,1,3,0
547.18,0.000988,0.0625,-0.01953125,0.04101562,-1.523438,1.664062,2.929688,0.02148438,-0.01367188,0.02539062,0,0,0,0.001464844,-0.0008544922,0.0357666,0,0,0.0009765625,0,4.077,0,0,0,0.1270142,nan,2,2.467,1,0,0.1000061,0.1000061,0.1000061,0.1000061,0,0,0,1,3,0
547.191,0.001013,0.05273438,-0.02929688,0.001953125,1.21875,0.484375,5.085938,0.009765625,-0.001953125,0.01367188,0,0,0,0.001464844,-0.0008544922,0.03601074,0,0,0.0009765625,0,4.077,0,0,0,0.125,nan,2,2.478,1,0,0.1000061,0.1000061,0.1000061,0.1000061,0,0,0,1,3,0
547.201,0.001013,-0.005859375,0.015625,-0.0078125,-0.1796875,-3.34375,10.27344,-0.001953125,0.00390625,-0.005859375,0,0,0,0.001464844,-0.0008544922,0.03601074,0,0,0.0009765625,0,4.077,0,0,0,0.1229858,nan,2,2.488,1,0,0.1000061,0.1000061,0.1000061,0.1000061,0,0,0,1,3,0
547.21,0.001009,-0.005859375,-0.0078125,-0.0078125,0.15625,-1.828125,2.109375,-0.005859375,0.00390625,-0.001953125,0,0,0,0.001464844,-0.0008544922,0.03601074,0,0,0.0009765625,0,4.077,0,0,0,0.1212158,nan,2,2.497,1,0,0.1000061,0.1000061,0.1000061,0.1000061,0,0,0,1,3,0
547.22,0.001009,-0.04296875,0.02734375,-0.01171875,0.109375,-3.765625,7.648438,0.005859375,0.00390625,-0.005859375,0,0,0,0.001586914,-0.0009765625,0.03601074,0,0,0.0009765625,0,4.077,0,0,0,0.1190186,nan,2,2.507,1,0,0.1000061,0.1000061,0.1000061,0.1000061,0,0,0,1,3,0
547.23,0.001009,0.001953125,-0.01953125,0,-0.421875,-1.789062,11.84375,0.00390625,0,-0.001953125,0,0,0,0.001464844,-0.0008544922,0.03588867,0,0,0.0009765625,0,4.077,0,0,0,0.1170044,nan,2,2.517,1,0,0.1000061,0.1000061,0.1000061,0.1000061,0,0,0,1,3,0
547.24,0.00101,-0.01367188,-0.01367188,0.03125,1.945312,1.671875,13.14844,-0.005859375,0.005859375,0.0234375,0,0,0,0.001464844,-0.0009765625,0.03601074,0,0,0.0009765625,0,4.077,0,0,0,0.1149902,nan,2,2.527,1,0,0.1000061,0.1000061,0.1000061,0.1000061,0,0,0,1,3,0
547.25,0.00101,0.0078125,-0.01757812,0.04296875,0.21875,-2.085938,16.58594,0.0078125,0.009765625,0.04296875,0,0,0,0.001464844,-0.0008544922,0.03637695,0,0,0.0009765625,0,4.077,0,0,0,0.1129761,nan,2,2.537,1,0,0.1000061,0.1000061,0.1000061,0.1000061,0,0,0,1,3,0
547.26,0.00101,0.03515625,0.01171875,-0.005859375,-0.953125,2.695312,11.82031,0.02148438,-0.0078125,0.01171875,0,0,0,0.001586914,-0.0009765625,0.03662109,0,0,0.0009765625,0,4.077,0,0,0,0.1110229,nan,2,2.547,1,0,0.1000061,0.1000061,0.1000061,0.1000061,0,0,0,1,3,0
547.27,0.00101,0.01171875,0.02734375,-0.0234375,0.6484375,4.109375,12.29688,-0.01171875,0.01953125,-0.02148438,0,0,0,0.001464844,-0.0008544922,0.03662109,0,0,0.0009765625,0,4.077,0,0,0,0.1090088,nan,2,2.557,1,0,0.1000061,0.1000061,0.1000061,0.1000061,0,0,0,1,3,0
547.28,0.00101,0.04101562,0.009765625,0.03320312,-1.398438,0.8203125,14.32812,0.0078125,0,0.0078125,0,0,0,0.001464844,-0.0008544922,0.03649902,0,0,0.0009765625,0,4.077,0,0,0,0.1069946,nan,2,2.567,1,0,0.1000061,0.1000061,0.1000061,0.1000061,0,0,0,1,3,0
547.291,0.00101,0.01367188,-0.01757812,0.02734375,-0.8828125,3.195312,4.96875,0.009765625,-0.015625,0.02929688,0,0,0,0.001586914,-0.0008544922,0.03674316,0,0,0.0009765625,0,4.077,0,0,0,0.1049805,nan,2,2.577,1,0,0.1000061,0.1000061,0.1000061,0.1000061,0,0,0,1,3,0
547.3,0.001044,-0.04101562,0.015625,-0.02148438,-0.9296875,-2.78125,12.29688,-0.02539062,0.015625,0.00390625,0,0,0,0.001586914,-0.0009765625,0.03686523,0,0,0.0009765625,0,4.077,0,0,0,0.1032104,nan,2,2.587,1,0,0.1000061,0.1000061,0.1000061,0.1000061,0,0,0,1,3,0
547.311,0.001009,0.02539062,-0.03125,0.0078125,1.523438,3.640625,16.11719,0.005859375,-0.005859375,0.00390625,0,0,0,0.001586914,-0.0008544922,0.03686523,0,0,0.0009765625,0,4.077,0,0,0,0.1010132,nan,2,2.598,1,0,0.1000061,0.1000061,0.1000061,0.1000061,0,0,0,1,3,0
547.32,0.001026,-0.009765625,-0.0234375,-0.01171875,0.9375,-2.382812,3.554688,0.01367188,-0.01757812,0,0,0,0,0.001708984,-0.0009765625,0.03686523,0,0,0.0009765625,0,4.077,0,0,0,0.09997559,nan,2,2.607,1,0,0.1000061,0.1000061,0.1000061,0.1000061,0,0,0,1,3,0
547.33,0.001028,0.01171875,0.04101562,-0.02539062,-0.9765625,-4.882812,7.585938,-0.00390625,0.01171875,-0.01953125,0,0,0,0.001708984,-0.001098633,0.03674316,0,0,0.0009765625,0,4.077,0,0,0,0.09997559,nan,2,2.617,1,0,0.1000061,0.1000061,0.1000061,0.1000061,0,0,0,1,3,0
547.34,0.000969,-0.005859375,0.03320312,0.02929688,-0.4296875,-1.0625,7.203125,-0.02539062,0.01367188,0.001953125,0,0,0,0.001464844,-0.0009765625,0.03662109,0,0,0.0009765625,0,4.077,0,0,0,0.09997559,nan,2,2.627,1,0,0.1000061,0.1000061,0.1000061,0.1000061,0,0,0,1,3,0
547.35,0.001035,-0.01953125,-0.0078125,0.046875,1.773438,-1.390625,14.14062,-0.02539062,0,0.04101562,0,0,0,0.001220703,-0.0007324219,0.03686523,0,0,0.0009765625,0,4.077,0,0,0,0.09997559,nan,2,2.637,1,0,0.1000061,0.1000061,0.1000061,0.1000061,0,0,0,1,3,0
547.36,0.00101,-0.009765625,-0.01757812,0.001953125,-0.9921875,-3.242188,13.29688,0.0078125,-0.01171875,0.01953125,0,0,0,0.001342773,-0.0008544922,0.03723145,0,0,0.0009765625,0,4.077,0,0,0,0.09997559,nan,2,2.647,1,0,0.1000061,0.1000061,0.1000061,0.1000061,0,0,0,1,3,0
547.37,0.001021,0.04296875,-0.0234375,-0.00390625,1.296875,3.25,13.01562,0.01367188,-0.001953125,-0.009765625,0,0,0,0.001220703,-0.0007324219,0.03723145,0,0,0.0009765625,0,4.077,0,0,0,0.09997559,nan,2,2.657,1,0,0.1000061,0.1000061,0.1000061,0.1000061,0,0,0,1,3,0
547.38,0.000976,-0.005859375,-0.001953125,-0.01367188,0.0078125,0.8359375,16.53125,-0.005859375,0.01171875,-0.01171875,0,0,0,0.001220703,-0.0007324219,0.03710938,0,0,0.0009765625,0,4.077,0,0,0,0.09997559,nan,2,2.667,1,0,0.1000061,0.1000061,0.1000061,0.1000061,0,0,0,1,3,0
547.391,0.001008,0.001953125,0.04296875,0.01367188,-1.882812,2.78125,10.54688,0.001953125,0.001953125,0.001953125,0,0,0,0.001220703,-0.0008544922,0.03710938,0,0,0.0009765625,0,4.077,0,0,0,0.09997559,nan,2,2.677,1,0,0.1000061,0.1000061,0.1000061,0.1000061,0,0,0,1,3,0
547.401,0.001008,0.03320312,0.01953125,0.01367188,0.5625,3.773438,12.03125,0,0.005859375,0.00390625,0,0,0,0.001220703,-0.0007324219,0.03710938,0,0,0.0009765625,0,4.077,0,0,0,0.09997559,nan,2,2.688,1,0,0.1000061,0.1000061,0.1000061,0.1000061,0,0,0,1,3,0
547.41,0.001009,-0.01953125,-0.02539062,0.0078125,-1.148438,1.773438,9.710938,-0.01171875,0.005859375,0.015625,0,0,0,0.001220703,-0.0007324219,0.03723145,0,0,0.0009765625,0,4.077,0,0,0,0.09997559,nan,2,2.697,1,0,0.1000061,0.1000061,0.1000061,0.1000061,0,0,0,1,3,0.3650794
547.42,0.00101,0.01171875,-0.03320312,-0.00390625,0.921875,1.617188,3.757812,0.0078125,0.001953125,0.0078125,0,0,0,0.001220703,-0.0007324219,0.03735352,0,0,0.0009765625,0,4.077,0,0,0,0.09997559,nan,2,2.707,1,0,0.1000061,0.1000061,0.1000061,0.1000061,0,0,0,1,3,0
547.43,0.001011,0.03515625,0.009765625,-0.009765625,0.265625,-2.828125,8.039062,0.00390625,0.001953125,-0.015625,0,0,0,0.001220703,-0.0007324219,0.03723145,0,0,0.0009765625,0,4.077,0,0,0,0.09997559,nan,2,2.717,1,0,0.1000061,0.1000061,0.1000061,0.1000061,0,0,0,1,3,0
547.44,0.001016,-0.01757812,0.01171875,-0.009765625,-0.46875,-2.3125,0.9296875,-0.01171875,0.001953125,-0.005859375,0,0,0,0.001220703,-0.0007324219,0.03723145,0,0,0.0009765625,0,4.077,0,0,0,0.09997559,nan,2,2.727,1,0,0.1000061,0.1000061,0.1000061,0.1000061,0,0,0,1,3,0
547.45,0.001009,-0.0625,0.0234375,0.01171875,1.367188,-2.09375,7.828125,-0.01367188,0.00390625,0.01367188,0,0,0,0.001220703,-0.0007324219,0.03723145,0,0,0.0009765625,0,4.077,0,0,0,0.09997559,nan,2,2.737,1,0,0.1000061,0.1000061,0.1000061,0.1000061,0,0,0,1,3,0
547.46,0.001009,-0.05273438,0.03125,-0.00390625,-0.8359375,-3.15625,11.59375,0,0.005859375,0.00390625,0,0,0,0.001220703,-0.0007324219,0.03735352,0,0,0.0009765625,0,4.077,0,0,0,0.09997559,nan,2,2.747,1,0,0.1000061,0.1000061,0.1000061,0.1000061,0,0,0,1,3,0
547.47,0.001009,-0.001953125,0.0078125,-0.01171875,1.054688,-0.8828125,8.515625,0,0.015625,-0.001953125,0,0,0,0.001220703,-0.0007324219,0.03735352,0,0,0.0009765625,0,4.077,0,0,0,0.09997559,nan,2,2.757,1,0,0.1000061,0.1000061,0.1000061,0.1000061,0,0,0,1,3,0
547.48,0.001009,0.04492188,0.00390625,-0.0234375,0.1875,-3.054688,16.45312,0.005859375,0.0078125,-0.01757812,0,0,0,0.001220703,-0.0007324219,0.03723145,0,0,0.0009765625,0,4.077,0,0,0,0.09997559,nan,2,2.767,1,0,0.1000061,0.1000061,0.1000061,0.1000061,0,0,0,1,3,0
547.491,0.001009,-0.01367188,-0.009765625,-0.02539062,0.2421875,2.671875,13.17188,-0.009765625,-0.001953125,-0.02734375,0,0,0,0.001220703,-0.0007324219,0.0369873,0,0,0.0009765625,0,4.077,0,0,0,0.09997559,nan,2,2.777,1,0,0.1000061,0.1000061,0.1000061,0.1000061,0,0,0,1,3,0
547.501,0.001002,0.00390625,0,0.01367188,0.9921875,3.375,16.46094,0.005859375,0.01171875,0.01367188,0,0,0,0.001220703,-0.0007324219,0.0369873,0,0,0.0009765625,0,4.077,0,0,0,0.09997559,nan,2,2.788,1,0,0.1000061,0.1000061,0.1000061,0.1000061,0,0,0,1,3,0
547.511,0.001009,0.03515625,0.03710938,0.04101562,0.5859375,-1.539062,14.71094,0.015625,0.01367188,0.04101562,0,0,0,0.001220703,-0.0007324219,0.03735352,0,0,0.0009765625,0,4.077,0,0,0,0.09997559,nan,2,2.798,1,0,0.1000061,0.1000061,0.1000061,0.1000061,0,0,0,1,3,0
547.52,0.001007,-0.03515625,0.01171875,0.01171875,0.640625,3.90625,8.859375,-0.02148438,-0.01171875,0.015625,0,0,0,0.001220703,-0.0007324219,0.03747559,0,0,0.0009765625,0,4.077,0,0,0,0.09997559,nan,2,2.807,1,0,0.1000061,0.1000061,0.1000061,0.1000061,0,0,0,1,3,0.5238096
547.53,0.001012,-0.078125,0.05078125,-0.01757812,-1.078125,-0.6875,9.585938,-0.01367188,0.01757812,0.001953125,0,0,0,0.001342773,-0.0007324219,0.03771973,0,0,0.0009765625,0,4.077,0,0,0,0.09997559,nan,2,2.817,1,0,0.1000061,0.1000061,0.1000061,0.1000061,0,0,0,1,3,0.5396826
547.54,0.001006,0.03320312,0.046875,-0.01953125,0.4296875,1.398438,3.578125,0.00390625,0.005859375,-0.01953125,0,0,0,0.001220703,-0.0008544922,0.03747559,0,0,0.0009765625,0,4.077,0,0,0,0.09997559,nan,2,2.827,1,0,0.1000061,0.1000061,0.1000061,0.1000061,0,0,0,1,3,0
547.55,0.001017,-0.02539062,-0.001953125,-0.03320312,0.4296875,-3.539062,7.242188,-0.0234375,-0.001953125,-0.0390625,0,0,0,0.001220703,-0.0007324219,0.03723145,0,0,0.0009765625,0,4.077,0,0,0,0.09997559,nan,2,2.837,1,0,0.1000061,0.1000061,0.1000061,0.1000061,0,0,0,1,3,0
547.56,0.001013,0,0.03125,0.0234375,-0.796875,-1.726562,1.695312,0.005859375,0.02734375,0.015625,0,0,0,0.001220703,-0.0007324219,0.03710938,0,0,0.0009765625,0,4.077,0,0,0,0.09997559,nan,2,2.847,1,0,0.1000061,0.1000061,0.1000061,0.1000061,0,0,0,1,3,0
547.57,0.001013,0.06640625,-0.01367188,0.03320312,1.328125,-1.695312,8.5625,0.01757812,-0.005859375,0.03320312,0,0,0,0.001220703,-0.0007324219,0.03735352,0,0,0.0009765625,0,4.077,0,0,0,0.09997559,nan,2,2.857,1,0,0.1000061,0.1000061,0.1000061,0.1000061,0,0,0,1,3,0
547.58,0.001013,-0.02929688,0,-0.01367188,-0.6640625,-3.914062,11.97656,0.001953125,-0.009765625,0.0078125,0,0,0,0.001342773,-0.0007324219,0.03759766,0,0,0.0009765625,0,4.077,0,0,0,0.09997559,nan,2,2.867,1,0,0.1000061,0.1000061,0.1000061,0.1000061,0,0,0,1,3,0
547.591,0.001013,0.0234375,0.001953125,-0.00390625,1.25,-0.1015625,9.867188,0.01367188,-0.001953125,-0.001953125,0,0,0,0.001342773,-0.0008544922,0.03759766,0,0,0.0009765625,0,4.077,0,0,0,0.09997559,nan,2,2.877,1,0,0.1000061,0.1000061,0.1000061,0.1000061,0,0,0,1,3,0.5873016
547.601,0.00106,0.01367188,0.01367188,-0.03320312,0.3359375,-1.085938,18.39844,-0.001953125,-0.005859375,-0.0234375,0,0,0,0.001342773,-0.0008544922,0.03747559,0,0,0.0009765625,0,4.077,0,0,0,0.09997559,nan,2,2.888,1,0,0.1000061,0.1000061,0.1000061,0.1000061,0,0,0,1,3,0
547.611,0.001013,0.00390625,0.01757812,-0.03515625,-0.1484375,-5.8125,8.484375,0.01953125,0.001953125,-0.02929688,0,0,0,0.001342773,-0.0008544922,0.03723145,0,0,0.0009765625,0,4.077,0,0,0,0.09997559,nan,2,2.898,1,0,0.1000061,0.1000061,0.1000061,0.1000061,0,0,0,1,3,0.01587302
547.62,0.001005,-0.04101562,0.02929688,0.02929688,1.242188,5.070312,15.98438,-0.02148438,0.01367188,0.01171875,0,0,0,0.001342773,-0.0007324219,0.03710938,0,0,0.03710938,0.0006713867,4.077,0,0,0,0.09997559,nan,4,2.907,1,0,0.1000061,0.1000061,0.1000061,0.1000061,0,0,0,1,6,0
547.63,0.001004,0.01367188,0.015625,0.06445312,-2.390625,1.507812,14,0.01367188,0.005859375,0.046875,0,0,0,0.001342773,-0.0007324219,0.03735352,0,0,0.03735352,0.002349854,4.077,0,0,0,0.09997559,nan,4,2.917,1,0,0.1000061,0.1000061,0.1000061,0.1000061,0,0,0,1,6,0
547.64,0.001007,0.00390625,0.04101562,0,0.5703125,2.742188,6.390625,-0.00390625,0,0.02539062,0,0,0,0.001342773,-0.0007324219,0.0378418,0,0,0.0378418,0.00402832,4.077,0,0,0,0.09997559,nan,4,2.927,1,0,0.1000061,0.1000061,0.1000061,0.1000061,0,0,0,1,6,0
547.65,0.001007,0.0078125,0.00390625,-0.009765625,-0.1328125,-1.226562,8.515625,0.01367188,0.005859375,0.001953125,0,0,0,0.001464844,-0.0007324219,0.03796387,0,0,0.03796387,0.005737305,4.077,0,0,0,0.09997559,nan,4,2.937,1,0,0.1000061,0.1000061,0.1000061,0.1000061,0,0,0,1,6,0
547.66,0.001007,0.04101562,-0.0078125,-0.02148438,-0.484375,1.851562,5.085938,-0.009765625,-0.0078125,-0.02539062,0,0,0,0.001342773,-0.0007324219,0.03771973,0,0,0.03771973,0.007415771,4.077,0,0,0,0.09997559,nan,4,2.947,1,0,0.1000061,0.1000061,0.1000061,0.1000061,0,0,0,1,6,0
547.67,0.001007,0.0234375,-0.01757812,-0.03320312,0.2421875,-1.851562,4.789062,0.015625,0.001953125,-0.02734375,0,0,0,0.001342773,-0.0006103516,0.03747559,0,0,0.03747559,0.009094238,4.077,0,0,0,0.09997559,nan,4,2.957,1,0,0.1000061,0.1000061,0.1000061,0.1000061,0,0,0,1,6,0
547.681,0.000983,0,0.03710938,0.01171875,-0.953125,-4.03125,5.75,-0.01367188,0.00390625,-0.001953125,0,0,0,0.001220703,-0.0007324219,0.03735352,0,0,0.03735352,0.01077271,4.077,0,0,0,0.09997559,nan,4,2.967,1,0,0.1000061,0.1000061,0.1000061,0.1000061,0,0,0,1,6,0
547.691,0.001053,-0.04492188,0.03515625,0.05859375,1.304688,-0.359375,5.523438,-0.001953125,0.01757812,0.04101562,0,0,0,0.001342773,-0.0006103516,0.03759766,0,0,0.03759766,0.01245117,4.077,0,0,0,0.09997559,nan,4,2.978,1,0,0.1000061,0.1000061,0.1000061,0.1000061,0,0,0,1,6,0
547.701,0.001007,0.02539062,0,0.04296875,0.96875,-1.84375,12.84375,0.00390625,-0.00390625,0.05078125,0,0,0,0.001220703,-0.0006103516,0.03808594,0,0,0.03808594,0.01412964,4.077,0,0,0,0.09997559,nan,4,2.988,1,0,0.1000061,0.1000061,0.1000061,0.1000061,0,0,0,1,6,0
547.71,0.001067,-0.009765625,-0.02148438,-0.02148438,-1.726562,-3.140625,9.648438,0,-0.01367188,0.0078125,0,0,0,0.001220703,-0.0006103516,0.03833008,0,0,0.03833008,0.01565552,4.077,0,0,0,0.09997559,nan,4,2.997,1,0,0.1000061,0.1000061,0.1000061,0.1000061,0,0,0,1,6,0
547.72,0.001008,0.0078125,0.03710938,-0.015625,0.765625,-1.140625,11.9375,0.009765625,0.001953125,-0.02148438,0,0,0,0.001220703,-0.0007324219,0.03820801,0,0,0.03820801,0.01733398,4.077,0,0,0,0.09997559,nan,4,3.007,1,0,0.1000061,0.1000061,0.1000061,0.1000061,0,0,0,1,6,0
547.73,0.001008,-0.02539062,-0.01757812,-0.0078125,0.4296875,-0.203125,16.61719,-0.0078125,-0.009765625,-0.005859375,0,0,0,0.001220703,-0.0006103516,0.03808594,0,0,0.03808594,0.01901245,4.077,0,0,0,0.09997559,nan,4,3.017,1,0,0.1000061,0.1000061,0.1000061,0.1000061,0,0,0,1,6,0
547.74,0.001011,0.03320312,0.001953125,-0.01171875,0.3515625,5.03125,13.23438,0.02539062,0.001953125,-0.005859375,0,0,0,0.001220703,-0.0007324219,0.03808594,0,0,0.03808594,0.02072144,4.077,0,0,0,0.09997559,nan,4,3.027,1,0,0.1000061,0.1000061,0.1000061,0.1000061,0,0,0,1,6,0
547.75,0.001011,0.01757812,-0.001953125,0.02734375,-0.875,2.96875,15.40625,-0.015625,0.00390625,0.00390625,0,0,0,0.001220703,-0.0006103516,0.03796387,0,0,0.03796387,0.0223999,4.077,0,0,0,0.09997559,nan,4,3.037,1,0,0.1000061,0.1000061,0.1000061,0.1000061,0,0,0,1,6,0
547.76,0.001011,0,0.02539062,0.0546875,-2.257812,0.1328125,10.79688,0.01757812,0.001953125,0.05273438,0,0,0,0.001220703,-0.0006103516,0.03833008,0,0,0.03833008,0.02407837,4.077,0,0,0,0.09997559,nan,4,3.047,1,0,0.1000061,0.1000061,0.1000061,0.1000061,0,0,0,1,6,0
547.77,0.001011,0.005859375,-0.0078125,-0.02539062,1.820312,3.476562,6.953125,-0.00390625,-0.015625,0.00390625,0,0,0,0.001220703,-0.0007324219,0.03869629,0,0,0.03869629,0.02575684,4.077,0,0,0,0.09997559,nan,4,3.057,1,0,0.1000061,0.1000061,0.1000061,0.1000061,0,0,0,1,6,0
547.78,0.001011,0.03320312,0.00390625,-0.03515625,0.5703125,1.320312,11.64062,0.015625,0.0078125,-0.03515625,0,0,0,0.001220703,-0.0007324219,0.03845215,0,0,0.03845215,0.0274353,4.077,0,0,0,0.09997559,nan,4,3.067,1,0,0.1000061,0.1000061,0.1000061,0.1000061,0,0,0,1,6,0
547.791,0.001011,0.001953125,-0.02929688,-0.03515625,-2.226562,-0.5390625,2.390625,-0.009765625,0,-0.03320312,0,0,0,0.001342773,-0.0006103516,0.03808594,0,0,0.03808594,0.02911377,4.077,0,0,0,0.09997559,nan,4,3.077,1,0,0.1000061,0.1000061,0.1000061,0.1000061,0,0,0,1,6,0
547.801,0.001011,0.046875,0.00390625,-0.02148438,0.7890625,-2.34375,3.023438,0.015625,0.0078125,-0.0234375,0,0,0,0.001220703,-0.0007324219,0.0378418,0,0,0.0378418,0.03079224,4.077,0,0,0,0.09997559,nan,4,3.088,1,0,0.1000061,0.1000061,0.1000061,0.1000061,0,0,0,1,6,0
547.811,0.001011,0.01757812,-0.02929688,0.0078125,0.703125,3.53125,12.21875,-0.005859375,0,-0.0078125,0,0,0,0.001342773,-0.0006103516,0.03759766,0,0,0.03759766,0.03250122,4.077,0,0,0,0.09997559,nan,4,3.098,1,0,0.1000061,0.1000061,0.1000061,0.1000061,0,0,0,1,6,0
547.82,0.001007,0.02148438,0.02148438,0.03125,0.453125,-0.171875,4.53125,0,0.01171875,0.02539062,0,0,0,0.001220703,-0.0006103516,0.03771973,0,0,0.03771973,0.03399658,4.077,0,0,0,0.09997559,nan,4,3.107,1,0,0.1000061,0.1000061,0.1000061,0.1000061,0,0,0,1,6,0
547.83,0.001008,-0.00390625,-0.0234375,0.02539062,-0.03125,-1.328125,10,-0.001953125,0.00390625,0.03125,0,0,0,0.001342773,-0.0006103516,0.03808594,0,0,0.03808594,0.03567505,4.077,0,0,0,0.09997559,nan,4,3.117,1,0,0.1000061,0.1000061,0.1000061,0.1000061,0,0,0,1,6,0.2380952
547.84,0.001008,0.05273438,-0.04882812,-0.0078125,-1.390625,-5.601562,12.88281,0.001953125,-0.01171875,0.00390625,0,0,0,0.001220703,-0.0007324219,0.03820801,0,0,0.03820801,0.03738403,4.077,0,0,0,0.09997559,nan,4,3.127,1,0,0.1000061,0.1000061,0.1000061,0.1000061,0,0,0,1,6,0
547.85,0.001008,0.02148438,-0.01953125,-0.02734375,1.476562,0.9140625,10.4375,0.01757812,0.0078125,-0.02539062,0,0,0,0.001464844,-0.0007324219,0.03808594,0,0,0.03808594,0.0390625,4.077,0,0,0,0.09997559,nan,4,3.137,1,0,0.1000061,0.1000061,0.1000061,0.1000061,0,0,0,1,6,0
547.86,0.001008,0.03320312,-0.009765625,0.02734375,2.296875,0.546875,18.97656,-0.00390625,0,0.005859375,0,0,0,0.001342773,-0.0006103516,0.03796387,0,0,0.03796387,0.04074097,4.077,0,0,0,0.09997559,nan,4,3.147,1,0,0.1000061,0.1000061,0.1000061,0.1000061,0,0,0,1,6,0
547.87,0.001008,0.02929688,-0.04882812,0.03320312,-1.898438,1.351562,13.875,0.01953125,-0.0078125,0.03125,0,0,0,0.001464844,-0.0007324219,0.03820801,0,0,0.03820801,0.04241943,4.077,0,0,0,0.09997559,nan,4,3.157,1,0,0.1000061,0.1000061,0.1000061,0.1000061,0,0,0,1,6,0
547.88,0.001008,0.01757812,-0.02734375,0,-0.4921875,3.359375,8.539062,-0.015625,-0.001953125,0.001953125,0,0,0,0.001342773,-0.0007324219,0.03833008,0,0,0.03833008,0.0440979,4.077,0,0,0,0.09997559,nan,4,3.167,1,0,0.1000061,0.1000061,0.1000061,0.1000061,0,0,0,1,6,0
547.891,0.001008,0.02539062,0.015625,0.03515625,-0.09375,2.265625,13.76562,0.01367188,0.005859375,0.0234375,0,0,0,0.001342773,-0.0007324219,0.03845215,0,0,0.03845215,0.04577637,4.077,0,0,0,0.09997559,nan,4,3.177,1,0,0.1000061,0.1000061,0.1000061,0.1000061,0,0,0,1,6,0
547.901,0.001008,-0.0234375,0.01953125,-0.009765625,-0.34375,3.867188,8.914062,-0.01367188,-0.009765625,0.01171875,0,0,0,0.001342773,-0.0007324219,0.03869629,0,0,0.03869629,0.04748535,4.077,0,0,0,0.09997559,nan,4,3.188,1,0,0.1000061,0.1000061,0.1000061,0.1000061,0,0,0,1,6,0.5396826
547.911,0.001022,-0.02148438,0.01757812,-0.05078125,0.15625,3.054688,6.492188,0.001953125,0.001953125,-0.03320312,0,0,0,0.001342773,-0.0008544922,0.03857422,0,0,0.03857422,0,4.077,0,0,0,0.09997559,nan,4,3.198,0,0,0,0,0,0,0,0,0,1,6,0
547.921,0.001017,-0.0234375,0.03515625,-0.005859375,2.90625,1.984375,13.53906,-0.01757812,0.02539062,-0.01953125,0,0,0,0.001220703,-0.0006103516,0.03820801,0,0,0.03857422,0,4.077,0,0,0,0.09997559,nan,4,3.208,0,0,0,0,0,0,0,0,0,1,6,0
547.93,0.001008,-0.02929688,0.001953125,0.015625,-1.460938,1.453125,16.42188,-0.03125,-0.00390625,0.001953125,0,0,0,0.001098633,-0.0004882812,0.03808594,0,0,0.03857422,0,4.077,0,0,0,0.09997559,nan,4,3.217,0,0,0,0,0,0,0,0,0,1,6,0
547.94,0.00101,0,-0.01367188,-0.001953125,0.46875,-1.367188,11.95312,0.001953125,-0.0078125,0.01367188,0,0,0,0.0009765625,-0.0004882812,0.03833008,0,0,0.03857422,0,4.077,0,0,0,0.09997559,nan,4,3.227,0,0,0,0,0,0,0,0,0,1,6,0
547.95,0.00102,0.005859375,-0.02148438,-0.01757812,1.007812,1.601562,9.492188,-0.00390625,-0.01171875,-0.01171875,0,0,0,0.0009765625,-0.0004882812,0.03820801,0,0,0.03857422,0,4.077,0,0,0,0.09997559,nan,4,3.237,0,0,0,0,0,0,0,0,0,1,6,1
547.96,0.001006,0.02929688,0.04492188,0.01757812,0.2265625,-0.359375,10.46094,0.001953125,0.005859375,0.00390625,0,0,0,0.0009765625,-0.0003662109,0.03808594,0,0,0.03857422,0,4.077,0,0,0,0.09997559,nan,4,3.247,0,0,0,0,0,0,0,0,0,1,6,1
547.97,0.001011,0.0234375,0.046875,0.01953125,-0.421875,0.5,9.460938,0.005859375,0.01171875,0.01953125,0,0,0,0.001098633,-0.0003662109,0.03833008,0,0,0.03857422,0,4.077,0,0,0,0.09997559,nan,4,3.257,0,0,0,0,0,0,0,0,0,1,6,1
547.98,0.001014,-0.015625,0.05078125,-0.0390625,0.328125,-1.109375,9.648438,-0.001953125,0.0078125,-0.02539062,0,0,0,0.001098633,-0.0003662109,0.03833008,0,0,0.03857422,0,4.077,0,0,0,0.09997559,nan,4,3.267,0,0,0,0,0,0,0,0,0,1,6,1
547.99,0.001002,-0.005859375,0.01953125,-0.02148438,0.0546875,1.554688,9.679688,0.00390625,0.0078125,-0.02929688,0,0,0,0.001098633,-0.0002441406,0.03796387,0,0,0.03857422,0,4.077,0,0,0,0.09997559,nan,4,3.277,0,0,0,0,0,0,0,0,0,1,6,1
548,0.001015,-0.009765625,0.01757812,-0.03320312,-0.1640625,-1.382812,11.67969,0,0.0078125,-0.03320312,0,0,0,0.0009765625,-0.0001220703,0.03759766,0,0,0.03857422,0,4.077,0,0,0,0.09997559,nan,4,3.288,0,0,0,0,0,0,0,0,0,1,6,0
548.011,0.001011,-0.01171875,-0.015625,-0.01953125,-0.2109375,1.773438,8.476562,-0.009765625,-0.005859375,-0.0234375,0,0,0,0.0009765625,-0.0002441406,0.03735352,0,0,0.03857422,0,4.077,0,0,0,0.09997559,nan,4,3.298,0,0,0,0,0,0,0,0,0,1,6,0
548.021,0.001017,0.02148438,-0.01367188,-0.005859375,-1.226562,-1.820312,10.90625,0.001953125,-0.005859375,-0.009765625,0,0,0,0.0009765625,-0.0002441406,0.03723145,0,0,0.03857422,0,4.077,0,0,0,0.09997559,nan,4,3.308,0,0,0,0,0,0,0,0,0,1,6,0
548.03,0.001006,0.03320312,0.001953125,0.00390625,0.6875,-2.351562,4.953125,0.005859375,0.00390625,-0.001953125,0,0,0,0.0009765625,-0.0002441406,0.03723145,0,0,0.03857422,0,4.077,0,0,0,0.09997559,nan,4,3.317,0,0,0,0,0,0,0,0,0,1,6,0
548.04,0.001011,-0.04882812,0.02929688,0.0078125,-0.015625,-0.640625,4.859375,-0.005859375,0,-0.001953125,0,0,0,0.001098633,-0.0003662109,0.03723145,0,0,0.03857422,0,4.077,0,0,0,0.09997559,nan,4,3.327,0,0,0,0,0,0,0,0,0,1,6,0
548.05,0.001011,-0.01367188,-0.03710938,-0.01171875,-1.632812,1.6875,5.960938,0.009765625,-0.0234375,-0.00390625,0,0,0,0.001098633,-0.0003662109,0.03723145,0,0,0.03857422,0,4.077,0,0,0,0.09997559,nan,4,3.337,0,0,0,0,0,0,0,0,0,1,6,0
548.06,0.001003,0.009765625,-0.009765625,0.04101562,-0.0390625,-5.71875,13.86719,-0.005859375,0.001953125,0.009765625,0,0,0,0.001098633,-0.0004882812,0.03710938,0,0,0.03857422,0,4.077,0,0,0,0.09997559,nan,4,3.347,0,0,0,0,0,0,0,0,0,1,6,0
548.07,0.00102,-0.02929688,-0.015625,-0.00390625,0.84375,4.671875,6.234375,-0.00390625,-0.005859375,0.01367188,0,0,0,0.0009765625,-0.0004882812,0.03735352,0,0,0.03857422,0,4.077,0,0,0,0.09997559,nan,4,3.357,0,0,0,0,0,0,0,0,0,1,6,0
548.08,0.001011,0.015625,-0.001953125,0.01757812,1.570312,-0.6328125,15.66406,-0.009765625,0,0.01367188,0,0,0,0.0009765625,-0.0004882812,0.03747559,0,0,0.03857422,0,4.077,0,0,0,0.09997559,nan,4,3.367,0,0,0,0,0,0,0,0,0,1,6,0
548.09,0.001003,-0.02539062,0.009765625,-0.001953125,-3.265625,-3.4375,9.21875,-0.0078125,0.001953125,-0.009765625,0,0,0,0.0008544922,-0.0004882812,0.03747559,0,0,0.03857422,0,4.077,0,0,0,0.09997559,nan,4,3.377,0,0,0,0,0,0,0,0,0,1,6,1
548.101,0.001011,-0.02539062,0.03125,0,-2.210938,-2.078125,8.398438,0,0.0078125,0.00390625,0,0,0,0.0008544922,-0.0004882812,0.03747559,0,0,0.03857422,0,4.077,0,0,0,0.09997559,nan,4,3.387,0,0,0,0,0,0,0,0,0,1,6,1
548.111,0.001003,0.005859375,0.03320312,-0.005859375,-2.179688,1.507812,10.41406,0.00390625,0.009765625,0,0,0,0,0.0008544922,-0.0004882812,0.03747559,0,0,0.03857422,0,4.077,0,0,0,0.09997559,nan,4,3.398,0,0,0,0,0,0,0,0,0,1,6,1
548.121,0.001013,0.02148438,-0.005859375,0.02734375,-0.546875,-0.0390625,9.234375,0.0078125,-0.001953125,0.009765625,0,0,0,0.001098633,-0.0006103516,0.03747559,0,0,0.03857422,0,4.077,0,0,0,0.09997559,nan,4,3.408,0,0,0,0,0,0,0,0,0,1,6,1
548.13,0.001007,0.0234375,0.01171875,-0.009765625,-2.65625,0.5078125,9.78125,0.01171875,-0.001953125,0.005859375,0,0,0,0.001098633,-0.0006103516,0.03747559,0,0,0.03857422,0,4.077,0,0,0,0.09997559,nan,4,3.417,0,0,0,0,0,0,0,0,0,1,6,1
548.14,0.000999,0.05273438,0.02929688,-0.02539062,-0.71875,2.601562,9.671875,0.0078125,0.0078125,-0.0078125,0,0,0,0.001098633,-0.0006103516,0.03759766,0,0,0.03857422,0,4.077,0,0,0,0.09997559,nan,4,3.427,0,0,0,0,0,0,0,0,0,1,6,1
548.15,0.001008,-0.04882812,-0.005859375,-0.001953125,-0.515625,-2.148438,10.375,-0.009765625,0.001953125,-0.0078125,0,0,0,0.001098633,-0.0006103516,0.03747559,0,0,0.03857422,0,4.077,0,0,0,0.09997559,nan,4,3.437,0,0,0,0,0,0,0,0,0,1,6,1
548.16,0.001008,0.02148438,0.005859375,0.01171875,0.921875,-1.414062,10.17188,-0.005859375,0.001953125,0.009765625,0,0,0,0.001098633,-0.0004882812,0.03747559,0,0,0.03857422,0,4.077,0,0,0,0.09997559,nan,4,3.447,0,0,0,0,0,0,0,0,0,1,6,1
548.17,0.001008,0.06640625,0.00390625,-0.01367188,-0.8984375,1.828125,9.984375,0.01171875,-0.005859375,-0.001953125,0,0,0,0.001098633,-0.0006103516,0.03747559,0,0,0.03857422,0,4.077,0,0,0,0.09997559,nan,4,3.457,0,0,0,0,0,0,0,0,0,1,6,1
548.18,0.001008,-0.01757812,-0.02929688,0.01367188,0.5390625,0.7578125,9.507812,0.01171875,-0.005859375,0,0,0,0,0.001098633,-0.0006103516,0.03747559,0,0,0.03857422,0,4.077,0,0,0,0.09997559,nan,4,3.467,0,0,0,0,0,0,0,0,0,1,6,1
548.19,0.001008,-0.06054688,0.05859375,0.01171875,-1.726562,-2.125,11.35938,-0.009765625,0.001953125,0.001953125,0,0,0,0.001220703,-0.0006103516,0.03759766,0,0,0.03857422,0,4.077,0,0,0,0.09997559,nan,4,3.477,0,0,0,0,0,0,0,0,0,1,6,0
548.201,0.001008,0.03320312,0.03710938,-0.005859375,-0.90625,0.90625,10.02344,0.005859375,0.00390625,-0.0078125,0,0,0,0.001220703,-0.0007324219,0.03747559,0,0,0.03857422,0,4.077,0,0,0,0.09997559,nan,4,3.487,0,0,0,0,0,0,0,0,0,1,6,1
548.211,0.001008,-0.07226562,0.009765625,-0.005859375,-0.2109375,0.3984375,10.08594,-0.00390625,0.00390625,-0.00390625,0,0,0,0.001220703,-0.0007324219,0.03747559,0,0,0.03857422,0,4.077,0,0,0,0.09997559,nan,4,3.498,0,0,0,0,0,0,0,0,0,1,6,1
548.221,0.001016,-0.06640625,0.02734375,0.015625,-1.015625,0.203125,11.25781,-0.01171875,0.00390625,0.001953125,0,0,0,0.001220703,-0.0007324219,0.03747559,0,0,0.03857422,0,4.077,0,0,0,0.09997559,nan,4,3.508,0,0,0,0,0,0,0,0,0,1,6,0
548.23,0.001001,0.02734375,-0.046875,-0.03125,0.0859375,0.15625,9,0.009765625,-0.009765625,0,0,0,0,0.001220703,-0.0007324219,0.03759766,0,0,0.03857422,0,4.077,0,0,0,0.09997559,nan,4,3.517,0,0,0,0,0,0,0,0,0,1,6,1
548.24,0.001001,0.02539062,-0.0234375,0.009765625,-0.640625,-0.484375,9.710938,0,0.00390625,0.001953125,0,0,0,0.001220703,-0.0007324219,0.03747559,0,0,0.03857422,0,4.077,0,0,0,0.09997559,nan,4,3.527,0,0,0,0,0,0,0,0,0,1,6,1
548.25,0.000854,-0.02148438,0.02929688,0.015625,0.046875,-0.328125,10.65625,-0.001953125,0.005859375,0.00390625,0,0,0,0.001220703,-0.0007324219,0.03759766,0,0,0.03857422,0,4.077,0,0,0,0.09997559,nan,4,3.537,0,0,0,0,0,0,0,0,0,1,6,1
548.26,0.001009,-0.01367188,-0.015625,0.02148438,-0.4609375,-0.0234375,9.476562,-0.001953125,-0.001953125,0.00390625,0,0,0,0.001220703,-0.0007324219,0.03759766,0,0,0.03857422,0,4.077,0,0,0,0.09997559,nan,4,3.547,0,0,0,0,0,0,0,0,0,1,6,1
548.271,0.001116,-0.005859375,0.009765625,-0.02539062,-0.0078125,-0.296875,9.695312,0.005859375,0.001953125,-0.001953125,0,0,0,0.001220703,-0.0007324219,0.03759766,0,0,0.03857422,0,4.077,0,0,0,0.09997559,nan,4,3.557,0,0,0,0,0,0,0,0,0,1,6,1
548.28,0.000759,-0.01757812,0.009765625,0.01757812,-0.0546875,0.4453125,10.40625,-0.009765625,0.001953125,-0.001953125,0,0,0,0.001220703,-0.0007324219,0.03747559,0,0,0.03857422,0,4.077,0,0,0,0.09997559,nan,4,3.567,0,0,0,0,0,0,0,0,0,1,6,1
548.29,0.000824,0.01757812,-0.009765625,0.02148438,-0.4140625,-0.546875,9.210938,0.001953125,0,0.00390625,0,0,0,0.001220703,-0.0007324219,0.03747559,0,0,0.03857422,0,4.077,0,0,0,0.09997559,nan,4,3.577,0,0,0,0,0,0,0,0,0,1,6,1
548.3,0.001016,-0.001953125,0.005859375,0.001953125,-0.21875,-0.1953125,9.875,0.00390625,-0.001953125,0,0,0,0,0.001220703,-0.0007324219,0.03747559,0,0,0.03857422,0,4.077,0,0,0,0.09997559,nan,4,3.587,0,0,0,0,0,0,0,0,0,1,6,1
548.31,0.001079,0.005859375,0.001953125,-0.001953125,0.2421875,-0.09375,9.601562,0.001953125,0,0,0,0,0,0.001220703,-0.0007324219,0.03747559,0,0,0.03857422,0,4.077,0,0,0,0.09997559,nan,4,3.597,0,0,0,0,0,0,0,0,0,1,6,1
548.32,0.000991,0.0078125,0.0078125,-0.001953125,0.296875,-0.40625,9.515625,0,0,0.00390625,0,0,0,0.001220703,-0.0007324219,0.03759766,0,0,0.03857422,0,4.077,0,0,0,0.09997559,nan,4,3.607,0,0,0,0,0,0,0,0,0,1,6,1
548.381,0.000876,0.005859375,-0.001953125,0.01367188,0.0390625,-0.4609375,9.734375,0.0078125,-0.00390625,0.005859375,0,0,0,0.001342773,-0.0008544922,0.03747559,0,0,0.03857422,0,4.077,0,0,0,0.09997559,nan,4,3.617,0,0,0,0,0,0,0,0,0,1,6,1
548.39,0.00101,0.009765625,-0.00390625,-0.00390625,0.015625,-0.265625,9.835938,0.005859375,-0.001953125,0.005859375,0,0,0,0.0009765625,-0.0007324219,0.03747559,0,0,0.03857422,0,4.077,0,0,0,0.09997559,nan,4,3.677,0,0,0,0,0,0,0,0,0,1,6,1
548.4,0.00101,0,0.001953125,0.0078125,0.203125,0.1015625,9.796875,-0.001953125,0.00390625,-0.00390625,0,0,0,0.0009765625,-0.0007324219,0.03735352,0,0,0.03857422,0,4.077,0,0,0,0.09997559,nan,4,3.687,0,0,0,0,0,0,0,0,0,1,6,1
548.41,0.00101,0.00390625,-0.005859375,-0.00390625,-0.2890625,-0.125,9.820312,0.001953125,-0.00390625,0.001953125,0,0,0,0.0009765625,-0.0007324219,0.03747559,0,0,0.03857422,0,4.077,0,0,0,0.09997559,nan,4,3.697,0,0,0,0,0,0,0,0,0,1,6,1
548.421,0.001018,0,0.001953125,0.00390625,0.2734375,0.0234375,9.828125,0,0.005859375,0.001953125,0,0,0,0.0009765625,-0.0007324219,0.03747559,0,0,0.03857422,0,4.077,0,0,0,0.09997559,nan,4,3.707,0,0,0,0,0,0,0,0,0,1,6,1
548.431,0.001,0.001953125,-0.00390625,-0.005859375,-0.265625,-0.0234375,9.78125,0.001953125,-0.00390625,-0.005859375,0,0,0,0.001098633,-0.0007324219,0.03747559,0,0,0.03857422,0,4.077,0,0,0,0.09997559,nan,4,3.718,0,0,0,0,0,0,0,0,0,1,6,1
548.441,0.00101,-0.001953125,0.005859375,0,0.1796875,-0.015625,9.804688,0,0.00390625,0,0,0,0,0.001098633,-0.0007324219,0.03735352,0,0,0.03857422,0,4.077,0,0,0,0.09997559,nan,4,3.728,0,0,0,0,0,0,0,0,0,1,6,1
548.451,0.00101,0,0,0.0078125,-0.1171875,0.0234375,9.84375,0,-0.001953125,0.0078125,0,0,0,0.001098633,-0.0007324219,0.03747559,0,0,0.03857422,0,4.077,0,0,0,0.09997559,nan,4,3.738,0,0,0,0,0,0,0,0,0,1,6,1
548.46,0.001001,-0.005859375,0.00390625,-0.01367188,0.15625,-0.046875,9.773438,0,0.00390625,-0.0078125,0,0,0,0.001098633,-0.0007324219,0.03747559,0,0,0.03857422,0,4.077,0,0,0,0.09997559,nan,4,3.747,0,0,0,0,0,0,0,0,0,1,6,1
548.47,0.001004,0,0.001953125,0.009765625,-0.0546875,0.0859375,9.84375,0,0,0.005859375,0,0,0,0.001098633,-0.0007324219,0.03747559,0,0,0.03857422,0,4.077,0,0,0,0.09997559,nan,4,3.757,0,0,0,0,0,0,0,0,0,1,6,1
548.48,0.001004,0.001953125,0,-0.00390625,0.125,-0.015625,9.867188,0.001953125,0.001953125,-0.001953125,0,0,0,0.001098633,-0.0006103516,0.03747559,0,0,0.03857422,0,4.077,0,0,0,0.09997559,nan,4,3.767,0,0,0,0,0,0,0,0,0,1,6,1
548.49,0.001004,0,-0.00390625,0.001953125,-0.03125,0.078125,9.804688,0,-0.001953125,0.001953125,0,0,0,0.001098633,-0.0007324219,0.03747559,0,0,0.03857422,0,4.077,0,0,0,0.09997559,nan,4,3.777,0,0,0,0,0,0,0,0,0,1,6,1
548.5,0.001004,-0.00390625,0.00390625,0.001953125,0.09375,-0.0234375,9.835938,0,0.00390625,0,0,0,0,0.001098633,-0.0006103516,0.03747559,0,0,0.03857422,0,4.077,0,0,0,0.09997559,nan,4,3.787,0,0,0,0,0,0,0,0,0,1,6,1
548.51,0.001004,-0.001953125,-0.00390625,-0.00390625,-0.046875,0.0859375,9.828125,-0.001953125,-0.001953125,0,0,0,0,0.001098633,-0.0007324219,0.03747559,0,0,0.03857422,0,4.077,0,0,0,0.09997559,nan,4,3.797,0,0,0,0,0,0,0,0,0,1,6,1
548.52,0.001004,0,0.001953125,0.001953125,0.046875,0.015625,9.796875,0.001953125,0,0,0,0,0,0.001098633,-0.0007324219,0.03747559,0,0,0.03857422,0,4.077,0,0,0,0.09997559,nan,4,3.807,0,0,0,0,0,0,0,0,0,1,6,1
548.531,0.001004,0,-0.005859375,-0.001953125,-0.015625,0.046875,9.765625,0,-0.001953125,0,0,0,0,0.001098633,-0.0007324219,0.03747559,0,0,0.03857422,0,4.077,0,0,0,0.09997559,nan,4,3.818,0,0,0,0,0,0,0,0,0,1,6,1
548.541,0.001027,0,0.00390625,-0.001953125,0.0390625,-0.0234375,9.835938,0,0,-0.001953125,0,0,0,0.001098633,-0.0007324219,0.03747559,0,0,0.03857422,0,4.077,0,0,0,0.09997559,nan,4,3.828,0,0,0,0,0,0,0,0,0,1,6,1
548.55,0.001002,0,-0.001953125,0.001953125,0,0.0078125,9.828125,0,0,0,0,0,0,0.001098633,-0.0007324219,0.03747559,0,0,0.03857422,0,4.077,0,0,0,0.09997559,nan,4,3.837,0,0,0,0,0,0,0,0,0,1,6,1
548.56,0.00097,0.00390625,0,-0.00390625,0.046875,0.015625,9.820312,0.001953125,0,0,0,0,0,0.001220703,-0.0007324219,0.03747559,0,0,0.03857422,0,4.077,0,0,0,0.09997559,nan,4,3.847,0,0,0,0,0,0,0,0,0,1,6,1
548.57,0.001058,0.001953125,0.001953125,0,0,0.046875,9.875,0,0,0,0,0,0,0.001220703,-0.0007324219,0.03747559,0,0,0.03857422,0,4.077,0,0,0,0.09997559,nan,4,3.857,0,0,0,0,0,0,0,0,0,1,6,1
548.58,0.001016,-0.001953125,0.001953125,0,0.0234375,0.0078125,9.828125,-0.001953125,0,0,0,0,0,0.001220703,-0.0007324219,0.03747559,0,0,0.03857422,0,4.077,0,0,0,0.09997559,nan,4,3.867,0,0,0,0,0,0,0,0,0,1,6,1
548.59,0.001016,0,-0.00390625,0,0.0234375,0.03125,9.804688,0,-0.001953125,0,0,0,0,0.001220703,-0.0007324219,0.03747559,0,0,0.03857422,0,4.077,0,0,0,0.09997559,nan,4,3.877,0,0,0,0,0,0,0,0,0,1,6,1
548.6,0.001016,0.00390625,-0.001953125,-0.001953125,0.0546875,0,9.773438,0,0,-0.001953125,0,0,0,0.001220703,-0.0007324219,0.03747559,0,0,0.03857422,0,4.077,0,0,0,0.09997559,nan,4,3.887,0,0,0,0,0,0,0,0,0,1,6,1
548.61,0.001016,0.001953125,-0.001953125,-0.00390625,-0.0234375,0.03125,9.851562,0,0,-0.001953125,0,0,0,0.001220703,-0.0007324219,0.03747559,0,0,0.03857422,0,4.077,0,0,0,0.09997559,nan,4,3.897,0,0,0,0,0,0,0,0,0,1,6,1
548.62,0.001016,0,0.001953125,0,-0.0078125,0,9.789062,0,0.001953125,0,0,0,0,0.001220703,-0.0007324219,0.03747559,0,0,0.03857422,0,4.077,0,0,0,0.09997559,nan,4,3.907,0,0,0,0,0,0,0,0,0,1,6,1
548.631,0.001016,0,0.001953125,0.001953125,0,0.015625,9.820312,0,0,0,0,0,0,0.001220703,-0.0007324219,0.03747559,0,0,0.03857422,0,4.077,0,0,0,0.09997559,nan,4,3.917,0,0,0,0,0,0,0,0,0,1,6,1
548.641,0.001016,0,0.00390625,0.001953125,0.015625,0.0390625,9.789062,0,0.001953125,0,0,0,0,0.001220703,-0.0007324219,0.03747559,0,0,0.03857422,0,4.077,0,0,0,0.09997559,nan,4,3.928,0,0,0,0,0,0,0,0,0,1,6,1
548.651,0.001019,0.00390625,0,0.001953125,-0.015625,0.0234375,9.84375,0.001953125,0.001953125,0,0,0,0,0.001220703,-0.0007324219,0.03747559,0,0,0.03857422,0,4.077,0,0,0,0.09997559,nan,4,3.938,0,0,0,0,0,0,0,0,0,1,6,1
548.66,0.001014,0.001953125,0.00390625,0,0.0078125,0.03125,9.78125,0,0.001953125,0,0,0,0,0.001220703,-0.0007324219,0.03747559,0,0,0.03857422,0,4.077,0,0,0,0.09997559,nan,4,3.947,0,0,0,0,0,0,0,0,0,1,6,1
548.67,0.001008,-0.001953125,0.001953125,0,0.0390625,0.015625,9.796875,-0.001953125,0,0,0,0,0,0.001220703,-0.0007324219,0.03747559,0,0,0.03857422,0,4.077,0,0,0,0.09997559,nan,4,3.957,0,0,0,0,0,0,0,0,0,1,6,1
548.68,0.00101,-0.001953125,0.00390625,0.001953125,0.0234375,-0.0078125,9.8125,0,0.001953125,0,0,0,0,0.001220703,-0.0007324219,0.03747559,0,0,0.03857422,0,4.077,0,0,0,0.09997559,nan,4,3.967,0,0,0,0,0,0,0,0,0,1,6,1
548.69,0.00103,0,0,0.001953125,0.015625,0.03125,9.78125,0,0,0.001953125,0,0,0,0.001220703,-0.0007324219,0.03747559,0,0,0.03857422,0,4.077,0,0,0,0.09997559,nan,4,3.977,0,0,0,0,0,0,0,0,0,1,6,1
548.7,0.00101,0,0,0,0.0390625,0,9.875,0,0.001953125,0,0,0,0,0.001220703,-0.0007324219,0.03747559,0,0,0.03857422,0,4.077,0,0,0,0.09997559,nan,4,3.987,0,0,0,0,0,0,0,0,0,1,6,1
548.71,0.00101,0,0.001953125,0.001953125,0,0,9.796875,0,0,0,0,0,0,0.001220703,-0.0007324219,0.03747559,0,0,0.03857422,0,4.077,0,0,0,0.09997559,nan,4,3.997,0,0,0,0,0,0,0,0,0,1,6,1
548.72,0.00101,-0.001953125,0.001953125,0,0,0.0234375,9.820312,0,0,0.001953125,0,0,0,0.001220703,-0.0007324219,0.03747559,0,0,0.03857422,0,4.077,0,0,0,0.09997559,nan,4,4.007,0,0,0,0,0,0,0,0,0,1,6,1
548.731,0.00101,0,-0.001953125,0,0.046875,0,9.75,-0.001953125,0,0,0,0,0,0.001220703,-0.0007324219,0.03747559,0,0,0.03857422,0,4.077,0,0,0,0.09997559,nan,4,4.017,0,0,0,0,0,0,0,0,0,1,6,1
548.741,0.00101,0.001953125,0.001953125,0.001953125,0.03125,0.015625,9.78125,0.001953125,0,0,0,0,0,0.001220703,-0.0007324219,0.03747559,0,0,0.03857422,0,4.077,0,0,0,0.09997559,nan,4,4.028,0,0,0,0,0,0,0,0,0,1,6,1
548.751,0.001012,0.001953125,0,0,-0.0078125,0.046875,9.835938,0,0,0,0,0,0,0.001220703,-0.0007324219,0.03747559,0,0,0.03857422,0,4.077,0,0,0,0.09997559,nan,4,4.038,0,0,0,0,0,0,0,0,0,1,6,1
548.76,0.001007,0,0.001953125,0.001953125,0.046875,0.015625,9.835938,0,0,0,0,0,0,0.001220703,-0.0007324219,0.03747559,0,0,0.03857422,0,4.077,0,0,0,0.09997559,nan,4,4.047,0,0,0,0,0,0,0,0,0,1,6,1
548.77,0.001009,0,0.001953125,0.001953125,0,0.0234375,9.804688,0,0,0.001953125,0,0,0,0.001220703,-0.0007324219,0.03747559,0,0,0.03857422,0,4.077,0,0,0,0.09997559,nan,4,4.057,0,0,0,0,0,0,0,0,0,1,6,1
548.78,0.001008,0,-0.001953125,0,0.0078125,0.0234375,9.882812,0,0,0,0,0,0,0.001342773,-0.0007324219,0.03759766,0,0,0.03857422,0,4.077,0,0,0,0.09997559,nan,4,4.067,0,0,0,0,0,0,0,0,0,1,6,1
548.79,0.00101,0.00390625,0.001953125,0.00390625,0.015625,0.0703125,9.882812,0.001953125,0,0,0,0,0,0.001342773,-0.0007324219,0.03747559,0,0,0.03857422,0,4.077,0,0,0,0.09997559,nan,4,4.077,0,0,0,0,0,0,0,0,0,1,6,1
548.8,0.00101,0.001953125,0,0.001953125,0.0078125,0.0234375,9.828125,0,0,0,0,0,0,0.001342773,-0.0007324219,0.03759766,0,0,0.03857422,0,4.077,0,0,0,0.09997559,nan,4,4.087,0,0,0,0,0,0,0,0,0,1,6,1
548.81,0.00101,0,-0.001953125,0,0,0.015625,9.796875,0,-0.001953125,0,0,0,0,0.001342773,-0.0007324219,0.03759766,0,0,0.03857422,0,4.077,0,0,0,0.09997559,nan,4,4.097,0,0,0,0,0,0,0,0,0,1,6,1
548.821,0.00105,0.001953125,0.001953125,-0.001953125,0.0234375,0.015625,9.757812,0,0,0,0,0,0,0.001342773,-0.0007324219,0.03759766,0,0,0.03857422,0,4.077,0,0,0,0.09997559,nan,4,4.107,0,0,0,0,0,0,0,0,0,1,6,1
548.83,0.00097,0,0.001953125,0,-0.0078125,0.03125,9.835938,0,0,0.001953125,0,0,0,0.001342773,-0.0007324219,0.03759766,0,0,0.03857422,0,4.077,0,0,0,0.09997559,nan,4,4.117,0,0,0,0,0,0,0,0,0,1,6,1
548.841,0.00101,0,-0.001953125,0,0.015625,0.03125,9.78125,-0.001953125,-0.001953125,0,0,0,0,0.001342773,-0.0007324219,0.03759766,0,0,0.03857422,0,4.077,0,0,0,0.09997559,nan,4,4.128,0,0,0,0,0,0,0,0,0,1,6,1
548.851,0.00101,0.001953125,0.001953125,0.001953125,0.03125,0.015625,9.8125,0,0,0,0,0,0,0.001342773,-0.0007324219,0.03759766,0,0,0.03857422,0,4.077,0,0,0,0.09997559,nan,4,4.138,0,0,0,0,0,0,0,0,0,1,6,1
548.86,0.001008,0.001953125,0.001953125,-0.001953125,0.0546875,0.0078125,9.8125,0,-0.001953125,0,0,0,0,0.001342773,-0.0007324219,0.03759766,0,0,0.03857422,0,4.077,0,0,0,0.09997559,nan,4,4.147,0,0,0,0,0,0,0,0,0,1,6,1
548.87,0.001011,0.001953125,0.00390625,0,0.015625,0.03125,9.84375,0,0.001953125,0,0,0,0,0.001342773,-0.0007324219,0.03759766,0,0,0.03857422,0,4.077,0,0,0,0.09997559,nan,4,4.157,0,0,0,0,0,0,0,0,0,1,6,1
548.88,0.00101,0,0.001953125,-0.001953125,0.0390625,0.03125,9.789062,0,0.001953125,0,0,0,0,0.001342773,-0.0007324219,0.03759766,0,0,0.03857422,0,4.077,0,0,0,0.09997559,nan,4,4.167,0,0,0,0,0,0,0,0,0,1,6,1
548.89,0.00101,-0.001953125,0,0,0.015625,0.015625,9.851562,0,0,0,0,0,0,0.001342773,-0.0007324219,0.03759766,0,0,0.03857422,0,4.077,0,0,0,0.09997559,nan,4,4.177,0,0,0,0,0,0,0,0,0,1,6,1
548.9,0.00101,-0.001953125,0.001953125,0,-0.0234375,0.0234375,9.78125,0.001953125,0.001953125,0,0,0,0,0.001342773,-0.0007324219,0.03759766,0,0,0.03857422,0,4.077,0,0,0,0.09997559,nan,4,4.187,0,0,0,0,0,0,0,0,0,1,6,1
