time_us,gyro_x_rad_s,gyro_y_rad_s,gyro_z_rad_s,acc_x_m_s2,acc_y_m_s2,acc_z_m_s2,temperature_c,gyro_sensor_uncorrected_x_rad_s,gyro_sensor_uncorrected_y_rad_s,gyro_sensor_uncorrected_z_rad_s
489313836,0.001194,-0.000016,0.000083,0.03,-0.31,9.88,33.65,0.024501,0.034089,0.000000
489314926,0.001194,-0.002147,0.001149,0.01,-0.28,9.79,33.64,0.026632,0.034089,0.001065
489315649,-0.002002,-0.002147,0.001149,0.01,-0.27,9.77,33.60,0.026632,0.030893,0.001065
489317220,-0.003067,-0.001081,0.001149,0.02,-0.28,9.85,33.62,0.025567,0.029828,0.001065
489318258,-0.002002,0.001049,0.000083,0.03,-0.29,9.85,33.64,0.023436,0.030893,0.000000
489319254,0.000129,0.002114,0.000083,0.02,-0.32,9.86,33.61,0.022371,0.033024,0.000000
489320264,0.000129,0.001049,0.000083,-0.01,-0.30,9.85,33.59,0.023436,0.033024,0.000000
489321274,0.000129,-0.000016,0.001149,0.02,-0.26,9.79,33.59,0.024501,0.033024,0.001065
489322293,0.001194,-0.000016,0.001149,0.04,-0.26,9.80,33.58,0.024501,0.034089,0.001065
489323303,0.001194,0.001049,0.001149,0.04,-0.27,9.84,33.56,0.023436,0.034089,0.001065
489324304,0.000129,0.002114,0.001149,0.01,-0.28,9.84,33.57,0.022371,0.033024,0.001065
489325314,0.000129,-0.000016,0.000083,0.00,-0.31,9.82,33.56,0.024501,0.033024,0.000000
489326324,0.000129,-0.000016,-0.002047,0.02,-0.30,9.83,33.61,0.024501,0.033024,-0.002131
489327334,-0.000937,-0.000016,-0.003112,0.02,-0.28,9.86,33.62,0.024501,0.031958,-0.003196
489328349,0.000129,-0.000016,-0.003112,0.01,-0.26,9.86,33.61,0.024501,0.033024,-0.003196
489329354,0.001194,-0.001081,-0.002047,-0.02,-0.28,9.84,33.61,0.025567,0.034089,-0.002131
489330364,0.002259,-0.003212,0.000083,0.00,-0.28,9.84,33.58,0.027697,0.035154,0.000000
489331374,0.003324,-0.004277,0.000083,0.06,-0.28,9.84,33.59,0.028763,0.036220,0.000000
489332397,0.003324,-0.003212,-0.000982,0.04,-0.28,9.85,33.62,0.027697,0.036220,-0.001065
489333403,0.003324,0.001049,-0.000982,0.00,-0.24,9.81,33.59,0.023436,0.036220,-0.001065
489334404,0.002259,0.003180,0.002214,0.02,-0.24,9.82,33.60,0.021306,0.035154,0.002131
489335414,0.000129,0.001049,0.002214,0.04,-0.27,9.83,33.63,0.023436,0.033024,0.002131
489336424,-0.000937,-0.001081,0.000083,0.04,-0.31,9.80,33.62,0.025567,0.031958,0.000000
489337434,-0.000937,-0.003212,-0.000982,0.01,-0.30,9.81,33.60,0.027697,0.031958,-0.001065
489338452,-0.000937,-0.004277,0.001149,0.03,-0.31,9.83,33.60,0.028763,0.031958,0.001065
489339454,-0.002002,-0.002147,0.002214,0.04,-0.32,9.84,33.63,0.026632,0.030893,0.002131
489340464,-0.002002,-0.000016,0.002214,0.01,-0.29,9.85,33.63,0.024501,0.030893,0.002131
489341474,-0.000937,-0.000016,0.000083,0.02,-0.28,9.83,33.63,0.024501,0.031958,0.000000
489342541,0.001194,-0.000016,0.000083,0.05,-0.28,9.78,33.62,0.024501,0.034089,0.000000
489343503,0.001194,-0.000016,0.000083,0.05,-0.27,9.82,33.62,0.024501,0.034089,0.000000
489344504,0.000129,-0.001081,0.001149,0.05,-0.25,9.86,33.63,0.025567,0.033024,0.001065
489345514,-0.002002,-0.000016,0.001149,0.06,-0.27,9.87,33.62,0.024501,0.030893,0.001065
489346524,-0.003067,-0.000016,0.000083,0.03,-0.28,9.86,33.64,0.024501,0.029828,0.000000
489347534,-0.002002,-0.002147,0.000083,0.01,-0.29,9.84,33.62,0.026632,0.030893,0.000000
489348544,0.000129,-0.004277,-0.000982,0.04,-0.30,9.84,33.64,0.028763,0.033024,-0.001065
489349600,0.001194,-0.003212,0.000083,0.02,-0.28,9.86,33.64,0.027697,0.034089,0.000000
489350564,0.001194,-0.003212,0.000083,0.00,-0.28,9.83,33.61,0.027697,0.034089,0.000000
489351574,0.002259,-0.003212,0.000083,0.01,-0.28,9.82,33.62,0.027697,0.035154,0.000000
489352597,0.001194,-0.003212,-0.000982,0.00,-0.28,9.79,33.57,0.027697,0.034089,-0.001065
489353594,0.001194,-0.003212,0.000083,0.03,-0.28,9.78,33.60,0.027697,0.034089,0.000000
489354613,0.000129,-0.001081,0.001149,0.04,-0.28,9.81,33.63,0.025567,0.033024,0.001065
489355614,0.000129,-0.001081,0.000083,0.05,-0.27,9.82,33.63,0.025567,0.033024,0.000000
489356624,0.000129,-0.002147,-0.002047,0.04,-0.28,9.79,33.60,0.026632,0.033024,-0.002131
489357634,0.001194,-0.003212,-0.000982,0.01,-0.29,9.74,33.59,0.027697,0.034089,-0.001065
489358644,0.001194,-0.002147,-0.000982,0.05,-0.26,9.85,33.60,0.026632,0.034089,-0.001065
489359662,0.001194,-0.001081,-0.000982,0.05,-0.28,9.85,33.59,0.025567,0.034089,-0.001065
489360664,0.000129,0.001049,0.000083,0.02,-0.29,9.82,33.59,0.023436,0.033024,0.000000
489361683,-0.002002,0.002114,0.002214,0.01,-0.28,9.81,33.59,0.022371,0.030893,0.002131
489362684,-0.004133,0.003180,0.004345,0.05,-0.28,9.80,33.64,0.021306,0.028763,0.004261
489363694,-0.002002,-0.000016,0.003279,0.04,-0.29,9.84,33.60,0.024501,0.030893,0.003196
489364713,0.001194,-0.002147,0.000083,0.00,-0.27,9.85,33.58,0.026632,0.034089,0.000000
489365714,0.004390,-0.004277,-0.003112,-0.01,-0.26,9.82,33.61,0.028763,0.037285,-0.003196
489366724,0.004390,-0.004277,-0.003112,0.00,-0.28,9.84,33.58,0.028763,0.037285,-0.003196
489367734,0.002259,-0.002147,-0.002047,0.03,-0.27,9.85,33.57,0.026632,0.035154,-0.002131
489368744,-0.000937,-0.001081,-0.003112,0.00,-0.27,9.87,33.60,0.025567,0.031958,-0.003196
489369759,-0.002002,-0.003212,-0.002047,0.00,-0.27,9.86,33.62,0.027697,0.030893,-0.002131
489370764,-0.002002,-0.003212,-0.000982,0.03,-0.29,9.84,33.62,0.027697,0.030893,-0.001065
489371787,-0.000937,-0.002147,0.000083,0.05,-0.30,9.84,33.60,0.026632,0.031958,0.000000
489372784,0.001194,-0.000016,0.001149,0.04,-0.30,9.85,33.58,0.024501,0.034089,0.001065
489373794,0.002259,0.001049,0.001149,0.04,-0.31,9.85,33.57,0.023436,0.035154,0.001065
489374813,0.001194,0.001049,0.000083,0.01,-0.27,9.84,33.59,0.023436,0.034089,0.000000
489375814,-0.000937,0.002114,-0.000982,-0.01,-0.27,9.85,33.59,0.022371,0.031958,-0.001065
489376824,-0.003067,0.002114,0.000083,0.02,-0.29,9.88,33.59,0.022371,0.029828,0.000000
489377834,-0.002002,-0.000016,0.000083,0.02,-0.25,9.85,33.62,0.024501,0.030893,0.000000
489378844,0.000129,-0.002147,0.000083,0.03,-0.24,9.83,33.57,0.026632,0.033024,0.000000
489379862,0.000129,-0.002147,0.001149,0.05,-0.27,9.81,33.58,0.026632,0.033024,0.001065
489380864,0.001194,0.001049,0.002214,0.03,-0.26,9.80,33.62,0.023436,0.034089,0.002131
489381883,0.002259,0.001049,0.002214,0.02,-0.28,9.81,33.65,0.023436,0.035154,0.002131
489382884,0.002259,-0.002147,0.001149,0.00,-0.32,9.79,33.65,0.026632,0.035154,0.001065
489383894,0.004390,-0.003212,0.001149,0.02,-0.30,9.78,33.65,0.027697,0.037285,0.001065
489384913,0.004390,-0.001081,0.002214,0.03,-0.30,9.81,33.58,0.025567,0.037285,0.002131
489385914,0.002259,-0.000016,0.003279,0.02,-0.32,9.81,33.59,0.024501,0.035154,0.003196
489386924,0.000129,-0.000016,0.000083,0.03,-0.30,9.84,33.59,0.024501,0.033024,0.000000
489387934,-0.002002,-0.000016,-0.000982,0.01,-0.28,9.83,33.57,0.024501,0.030893,-0.001065
489388944,-0.003067,-0.000016,0.000083,-0.01,-0.28,9.82,33.62,0.024501,0.029828,0.000000
489389964,-0.002002,0.001049,0.002214,0.01,-0.28,9.86,33.64,0.023436,0.030893,0.002131
489390966,0.000129,0.001049,0.004345,0.05,-0.27,9.86,33.61,0.023436,0.033024,0.004261
489391996,0.001194,-0.002147,0.002214,0.04,-0.28,9.82,33.62,0.026632,0.034089,0.002131
489392998,0.003324,-0.001081,-0.000982,0.04,-0.28,9.84,33.60,0.025567,0.036220,-0.001065
489394003,0.003324,0.001049,-0.002047,0.04,-0.30,9.85,33.62,0.023436,0.036220,-0.002131
489395026,0.001194,0.002114,-0.000982,0.00,-0.28,9.80,33.65,0.022371,0.034089,-0.001065
489396026,0.000129,0.001049,0.000083,-0.01,-0.27,9.79,33.62,0.023436,0.033024,0.000000
489397031,0.002259,-0.000016,0.000083,0.01,-0.29,9.81,33.56,0.024501,0.035154,0.000000
489398044,0.005455,-0.000016,0.001149,-0.02,-0.29,9.82,33.58,0.024501,0.038350,0.001065
489399060,0.003324,0.001049,0.002214,-0.02,-0.31,9.82,33.59,0.023436,0.036220,0.002131
489400072,0.000129,-0.000016,0.002214,0.01,-0.29,9.82,33.58,0.024501,0.033024,0.002131
489401076,-0.002002,-0.002147,0.000083,0.03,-0.26,9.78,33.61,0.026632,0.030893,0.000000
489402095,-0.002002,-0.002147,-0.000982,0.04,-0.28,9.81,33.63,0.026632,0.030893,-0.001065
489403095,0.000129,-0.003212,-0.002047,0.02,-0.28,9.86,33.59,0.027697,0.033024,-0.002131
489404104,0.001194,-0.003212,-0.002047,-0.01,-0.29,9.82,33.60,0.027697,0.034089,-0.002131
489405124,0.001194,-0.003212,-0.002047,-0.03,-0.31,9.82,33.59,0.027697,0.034089,-0.002131
489406122,0.002259,-0.002147,-0.002047,-0.01,-0.33,9.85,33.59,0.026632,0.035154,-0.002131
489407133,0.002259,-0.002147,-0.002047,0.02,-0.32,9.86,33.56,0.026632,0.035154,-0.002131
489408142,0.001194,-0.002147,-0.000982,0.01,-0.30,9.82,33.59,0.026632,0.034089,-0.001065
489409151,0.000129,-0.000016,0.000083,-0.01,-0.31,9.78,33.60,0.024501,0.033024,0.000000
489410167,0.000129,0.003180,0.000083,0.02,-0.27,9.80,33.63,0.021306,0.033024,0.000000
489411167,0.001194,0.006375,-0.000982,0.04,-0.24,9.81,33.61,0.018110,0.034089,-0.001065
489412186,0.003324,0.005310,0.000083,0.01,-0.27,9.82,33.60,0.019175,0.036220,0.000000
489413188,0.002259,0.002114,0.000083,0.00,-0.29,9.81,33.62,0.022371,0.035154,0.000000
489414198,0.000129,-0.001081,-0.000982,0.00,-0.29,9.78,33.62,0.025567,0.033024,-0.001065
489415217,-0.000937,-0.003212,0.000083,-0.01,-0.29,9.82,33.59,0.027697,0.031958,0.000000
489416216,-0.000937,-0.003212,0.001149,0.00,-0.28,9.83,33.59,0.027697,0.031958,0.001065
489417224,-0.000937,-0.003212,0.001149,0.04,-0.24,9.78,33.59,0.027697,0.031958,0.001065
489418234,-0.000937,-0.003212,0.000083,0.06,-0.26,9.74,33.61,0.027697,0.031958,0.000000
489419244,-0.002002,-0.004277,-0.003112,0.04,-0.29,9.78,33.60,0.028763,0.030893,-0.003196
489420262,0.000129,-0.004277,-0.003112,0.02,-0.29,9.83,33.59,0.028763,0.033024,-0.003196
489421264,0.001194,-0.002147,-0.002047,0.00,-0.28,9.88,33.60,0.026632,0.034089,-0.002131
489422284,0.000129,0.001049,0.000083,0.00,-0.31,9.85,33.60,0.023436,0.033024,0.000000
489423284,-0.000937,0.003180,0.001149,0.02,-0.31,9.80,33.61,0.021306,0.031958,0.001065
489424294,-0.000937,-0.000016,0.001149,0.04,-0.29,9.83,33.61,0.024501,0.031958,0.001065
489425313,0.001194,-0.002147,0.000083,0.03,-0.26,9.87,33.59,0.026632,0.034089,0.000000
489426314,0.000129,-0.000016,0.001149,-0.01,-0.26,9.89,33.59,0.024501,0.033024,0.001065
489427324,0.000129,0.002114,0.001149,0.01,-0.25,9.82,33.58,0.022371,0.033024,0.001065
489428334,0.001194,0.002114,-0.000982,0.02,-0.25,9.84,33.59,0.022371,0.034089,-0.001065
489429344,0.001194,-0.001081,-0.002047,0.04,-0.27,9.84,33.59,0.025567,0.034089,-0.002131
489430359,0.000129,-0.001081,-0.000982,0.05,-0.31,9.78,33.59,0.025567,0.033024,-0.001065
489431364,-0.000937,-0.001081,-0.000982,0.03,-0.34,9.85,33.62,0.025567,0.031958,-0.001065
489432385,-0.000937,-0.002147,-0.000982,0.02,-0.30,9.88,33.64,0.026632,0.031958,-0.001065
489433384,-0.000937,-0.002147,-0.002047,0.02,-0.28,9.85,33.59,0.026632,0.031958,-0.002131
489434394,0.001194,-0.000016,-0.002047,0.00,-0.29,9.83,33.55,0.024501,0.034089,-0.002131
489435413,0.004390,0.001049,-0.002047,-0.02,-0.29,9.83,33.61,0.023436,0.037285,-0.002131
489436414,0.003324,-0.000016,-0.000982,-0.01,-0.29,9.85,33.64,0.024501,0.036220,-0.001065
489437424,0.000129,-0.000016,0.001149,0.02,-0.32,9.84,33.65,0.024501,0.033024,0.001065
489438434,-0.000937,0.001049,0.001149,0.05,-0.31,9.81,33.63,0.023436,0.031958,0.001065
489439444,-0.000937,0.001049,0.000083,0.03,-0.31,9.83,33.59,0.023436,0.031958,0.000000
489440462,-0.000937,-0.001081,-0.000982,0.00,-0.28,9.84,33.61,0.025567,0.031958,-0.001065
489441492,0.000079,-0.005249,-0.002042,0.00,-0.27,9.86,33.62,0.029828,0.033024,-0.002131
489442483,0.002210,-0.005249,-0.000977,0.00,-0.28,9.89,33.58,0.029828,0.035154,-0.001065
489443484,0.003275,-0.002053,-0.000977,0.00,-0.29,9.84,33.59,0.026632,0.036220,-0.001065
489444494,0.001144,0.000078,-0.002042,0.01,-0.33,9.79,33.58,0.024501,0.034089,-0.002131
489445513,-0.000986,0.000078,-0.002042,0.02,-0.28,9.82,33.59,0.024501,0.031958,-0.002131
489446514,0.000079,-0.000987,-0.002042,0.00,-0.28,9.86,33.59,0.025567,0.033024,-0.002131
489447524,0.002210,-0.000987,0.000088,0.00,-0.32,9.83,33.59,0.025567,0.035154,0.000000
489448534,0.000079,-0.000987,0.002219,0.02,-0.31,9.81,33.60,0.025567,0.033024,0.002131
489449544,-0.002052,0.000078,0.003284,0.02,-0.29,9.83,33.58,0.024501,0.030893,0.003196
489450559,-0.003117,0.002208,0.002219,0.02,-0.27,9.81,33.60,0.022371,0.029828,0.002131
489451602,-0.000986,0.002208,0.000088,0.02,-0.29,9.78,33.62,0.022371,0.031958,0.000000
489452584,0.001144,0.000078,-0.000977,0.01,-0.30,9.78,33.59,0.024501,0.034089,-0.001065
489453584,0.001144,-0.000987,-0.000977,0.01,-0.30,9.81,33.60,0.025567,0.034089,-0.001065
489454619,0.000079,0.001143,-0.000977,0.01,-0.29,9.83,33.63,0.023436,0.033024,-0.001065
489455613,-0.000986,0.003274,-0.002042,0.02,-0.31,9.85,33.65,0.021306,0.031958,-0.002131
489456614,-0.000986,0.002208,-0.004173,0.04,-0.31,9.82,33.61,0.022371,0.031958,-0.004261
489457629,0.000079,0.001143,-0.003107,0.05,-0.29,9.78,33.63,0.023436,0.033024,-0.003196
489458634,-0.000986,0.001143,0.001154,0.04,-0.27,9.84,33.60,0.023436,0.031958,0.001065
489459644,-0.003117,0.002208,0.001154,0.01,-0.25,9.83,33.61,0.022371,0.029828,0.001065
489460689,-0.000986,0.002208,0.001154,0.00,-0.26,9.82,33.62,0.022371,0.031958,0.001065
489461673,-0.000986,0.000078,0.000088,-0.01,-0.30,9.84,33.58,0.024501,0.031958,0.000000
489462674,-0.004182,0.001143,-0.000977,0.01,-0.33,9.85,33.60,0.023436,0.028763,-0.001065
489463684,-0.004182,0.003274,-0.000977,0.06,-0.31,9.86,33.60,0.021306,0.028763,-0.001065
489464694,-0.002052,0.002208,0.000088,0.04,-0.28,9.84,33.58,0.022371,0.030893,0.000000
489465713,-0.000986,0.001143,0.000088,0.01,-0.28,9.79,33.54,0.023436,0.031958,0.000000
489466714,-0.000986,0.001143,-0.000977,0.00,-0.30,9.85,33.58,0.023436,0.031958,-0.001065
489467737,-0.000986,0.000078,-0.003107,-0.01,-0.29,9.88,33.59,0.024501,0.031958,-0.003196
489468734,-0.002052,-0.002053,-0.000977,-0.01,-0.28,9.80,33.58,0.026632,0.030893,-0.001065
489469744,-0.000986,-0.003118,0.001154,-0.01,-0.29,9.80,33.60,0.027697,0.031958,0.001065
489470759,0.000079,-0.002053,0.000088,-0.02,-0.27,9.86,33.61,0.026632,0.033024,0.000000
489471774,-0.000986,0.002208,-0.002042,0.01,-0.27,9.86,33.65,0.022371,0.031958,-0.002131
489472774,-0.000986,0.003274,-0.000977,0.00,-0.27,9.87,33.61,0.021306,0.031958,-0.001065
489473784,0.000079,0.001143,0.001154,-0.01,-0.25,9.86,33.60,0.023436,0.033024,0.001065
489474794,0.001144,-0.002053,0.000088,0.01,-0.27,9.86,33.59,0.026632,0.034089,0.000000
489475813,0.000079,-0.003118,-0.002042,0.03,-0.29,9.85,33.62,0.027697,0.033024,-0.002131
489476814,0.000079,-0.000987,-0.000977,0.00,-0.27,9.80,33.62,0.025567,0.033024,-0.001065
489477824,0.000079,-0.000987,-0.000977,0.00,-0.28,9.82,33.62,0.025567,0.033024,-0.001065
489478834,-0.000986,-0.000987,-0.000977,0.03,-0.31,9.87,33.58,0.025567,0.031958,-0.001065
489479867,-0.002052,-0.002053,0.000088,0.01,-0.30,9.89,33.58,0.026632,0.030893,0.000000
489480862,-0.002052,-0.000987,0.000088,0.00,-0.28,9.87,33.61,0.025567,0.030893,0.000000
489481873,0.000079,-0.000987,-0.000977,0.01,-0.27,9.80,33.57,0.025567,0.033024,-0.001065
489482874,0.001144,-0.002053,0.000088,0.02,-0.31,9.78,33.61,0.026632,0.034089,0.000000
489483884,0.000079,-0.003118,-0.000977,0.03,-0.30,9.87,33.64,0.027697,0.033024,-0.001065
489484906,-0.002052,-0.002053,-0.003107,0.01,-0.25,9.85,33.62,0.026632,0.030893,-0.003196
489485913,0.000079,0.000078,-0.000977,-0.02,-0.26,9.82,33.62,0.024501,0.033024,-0.001065
489486914,0.002210,0.002208,0.003284,-0.03,-0.28,9.85,33.61,0.022371,0.035154,0.003196
489487924,0.001144,0.001143,0.003284,-0.02,-0.29,9.81,33.63,0.023436,0.034089,0.003196
489488934,0.000079,0.000078,0.000088,-0.03,-0.25,9.80,33.59,0.024501,0.033024,0.000000
489489944,-0.000986,0.001143,-0.002042,-0.03,-0.25,9.79,33.62,0.023436,0.031958,-0.002131
489490967,-0.000986,0.000078,0.000088,0.00,-0.33,9.80,33.62,0.024501,0.031958,0.000000
489491975,-0.000986,-0.000987,0.001154,-0.02,-0.33,9.82,33.63,0.025567,0.031958,0.001065
489492979,-0.002052,0.000078,-0.000977,-0.04,-0.31,9.84,33.63,0.024501,0.030893,-0.001065
489493995,-0.003117,0.000078,-0.002042,-0.02,-0.31,9.83,33.60,0.024501,0.029828,-0.002131
489495007,-0.000986,-0.002053,-0.002042,-0.03,-0.30,9.81,33.62,0.026632,0.031958,-0.002131
489496025,0.000079,-0.003118,-0.000977,-0.02,-0.32,9.82,33.58,0.027697,0.033024,-0.001065
489497024,-0.002052,-0.002053,0.000088,0.01,-0.33,9.80,33.63,0.026632,0.030893,0.000000
489498030,-0.002052,-0.000987,-0.000977,0.02,-0.28,9.83,33.62,0.025567,0.030893,-0.001065
489499043,0.000079,-0.000987,-0.002042,0.04,-0.27,9.84,33.60,0.025567,0.033024,-0.002131
489500065,0.001144,-0.003118,-0.002042,0.04,-0.31,9.84,33.59,0.027697,0.034089,-0.002131
489501077,0.001144,-0.004183,-0.002042,0.05,-0.28,9.87,33.60,0.028763,0.034089,-0.002131
489502082,0.001144,-0.004183,-0.002042,0.03,-0.27,9.88,33.58,0.028763,0.034089,-0.002131
489503090,0.001144,-0.002053,-0.000977,0.00,-0.29,9.85,33.55,0.026632,0.034089,-0.001065
489504091,0.001144,-0.003118,-0.000977,0.01,-0.29,9.83,33.55,0.027697,0.034089,-0.001065
489505107,-0.000986,-0.000987,-0.000977,0.02,-0.31,9.83,33.56,0.025567,0.031958,-0.001065
489506122,0.000079,0.000078,-0.002042,0.03,-0.33,9.82,33.57,0.024501,0.033024,-0.002131
489507122,-0.000986,0.000078,-0.000977,0.00,-0.34,9.86,33.59,0.024501,0.031958,-0.001065
489508133,-0.003117,0.003274,0.000088,0.00,-0.34,9.90,33.60,0.021306,0.029828,0.000000
489509141,-0.003117,0.003274,0.000088,0.03,-0.32,9.84,33.62,0.021306,0.029828,0.000000
489510150,-0.002052,0.000078,-0.002042,0.02,-0.29,9.75,33.62,0.024501,0.030893,-0.002131
489511164,-0.002052,-0.004183,-0.004173,0.02,-0.31,9.78,33.63,0.028763,0.030893,-0.004261
489512178,-0.002052,-0.003118,-0.003107,0.01,-0.34,9.85,33.60,0.027697,0.030893,-0.003196
489513182,-0.000986,-0.003118,-0.002042,0.00,-0.30,9.83,33.62,0.027697,0.031958,-0.002131
489514188,0.000079,-0.004183,0.000088,0.00,-0.29,9.82,33.62,0.028763,0.033024,0.000000
489515198,0.001144,-0.004183,-0.000977,0.00,-0.29,9.83,33.64,0.028763,0.034089,-0.001065
489516217,0.001144,-0.002053,-0.000977,0.01,-0.26,9.84,33.60,0.026632,0.034089,-0.001065
489517216,-0.000986,0.001143,0.001154,0.01,-0.28,9.79,33.60,0.023436,0.031958,0.001065
489518224,-0.002052,0.001143,0.002219,0.01,-0.31,9.82,33.60,0.023436,0.030893,0.002131
489519234,-0.002052,-0.002053,0.002219,0.02,-0.28,9.87,33.61,0.026632,0.030893,0.002131
489520244,-0.003117,-0.003118,-0.002042,0.03,-0.26,9.88,33.63,0.027697,0.029828,-0.002131
489521262,-0.002052,-0.003118,-0.005238,0.02,-0.29,9.87,33.63,0.027697,0.030893,-0.005326
489522273,0.000079,-0.004183,-0.003107,0.02,-0.29,9.85,33.59,0.028763,0.033024,-0.003196
489523274,0.000079,-0.002053,-0.000977,0.01,-0.27,9.89,33.62,0.026632,0.033024,-0.001065
489524284,0.000079,0.002208,-0.000977,0.01,-0.26,9.86,33.62,0.022371,0.033024,-0.001065
489525294,0.000079,0.002208,-0.000977,0.01,-0.29,9.82,33.60,0.022371,0.033024,-0.001065
489526313,0.002210,0.001143,-0.000977,0.00,-0.30,9.81,33.58,0.023436,0.035154,-0.001065
489527314,0.002210,0.000078,0.000088,0.03,-0.28,9.78,33.59,0.024501,0.035154,0.000000
489528324,0.001144,-0.000987,0.002219,0.02,-0.30,9.83,33.59,0.025567,0.034089,0.002131
489529334,0.001144,-0.002053,0.001154,-0.01,-0.28,9.86,33.59,0.026632,0.034089,0.001065
489530344,-0.000986,-0.002053,0.001154,0.01,-0.25,9.82,33.62,0.026632,0.031958,0.001065
489531359,-0.000986,-0.000987,0.001154,0.02,-0.28,9.82,33.62,0.025567,0.031958,0.001065
489532375,0.000079,0.001143,0.001154,0.02,-0.29,9.82,33.61,0.023436,0.033024,0.001065
489533374,0.001144,-0.000987,-0.000977,0.01,-0.28,9.83,33.59,0.025567,0.034089,-0.001065
489534384,0.001144,-0.000987,-0.002042,0.02,-0.28,9.82,33.59,0.025567,0.034089,-0.002131
489535394,0.001144,0.003274,-0.003107,0.04,-0.27,9.83,33.59,0.021306,0.034089,-0.003196
489536413,0.000079,0.004339,-0.002042,0.03,-0.26,9.84,33.61,0.020240,0.033024,-0.002131
489537414,-0.000986,-0.000987,0.002219,0.02,-0.26,9.83,33.61,0.025567,0.031958,0.002131
489538424,-0.000986,-0.002053,0.002219,0.01,-0.27,9.81,33.62,0.026632,0.031958,0.002131
489539434,-0.000986,-0.002053,-0.000977,-0.01,-0.31,9.81,33.64,0.026632,0.031958,-0.001065
489540444,-0.000986,-0.000987,-0.000977,-0.03,-0.31,9.83,33.62,0.025567,0.031958,-0.001065
489541462,0.000079,-0.002053,0.000088,0.03,-0.29,9.81,33.63,0.026632,0.033024,0.000000
489542472,0.001144,-0.000987,0.000088,0.03,-0.29,9.76,33.64,0.025567,0.034089,0.000000
489543474,0.002210,0.001143,0.000088,-0.03,-0.32,9.78,33.62,0.023436,0.035154,0.000000
489544484,0.000079,-0.000987,-0.000977,-0.01,-0.32,9.79,33.62,0.025567,0.033024,-0.001065
489545494,-0.002052,-0.000987,-0.002042,0.00,-0.28,9.81,33.63,0.025567,0.030893,-0.002131
489546513,-0.002052,0.001143,-0.002042,0.01,-0.26,9.86,33.63,0.023436,0.030893,-0.002131
489547514,-0.003117,0.001143,-0.002042,0.03,-0.26,9.89,33.62,0.023436,0.029828,-0.002131
489548524,-0.000986,0.002208,-0.000977,0.02,-0.28,9.91,33.60,0.022371,0.031958,-0.001065
489549534,0.001144,0.002208,0.000088,0.04,-0.30,9.90,33.65,0.022371,0.034089,0.000000
489550544,-0.002052,0.000078,0.002219,0.05,-0.28,9.83,33.62,0.024501,0.030893,0.002131
489551559,-0.004182,0.000078,0.000088,0.01,-0.29,9.79,33.60,0.024501,0.028763,0.000000
489552574,-0.004182,0.000078,-0.002042,0.01,-0.30,9.78,33.59,0.024501,0.028763,-0.002131
489553574,-0.003117,0.000078,-0.002042,0.03,-0.29,9.78,33.63,0.024501,0.029828,-0.002131
489554584,-0.000986,0.000078,0.001154,0.05,-0.30,9.79,33.64,0.024501,0.031958,0.001065
489555594,0.000079,0.000078,0.002219,0.01,-0.30,9.80,33.64,0.024501,0.033024,0.002131
489556613,0.000079,0.002208,0.001154,-0.01,-0.28,9.81,33.64,0.022371,0.033024,0.001065
489557614,-0.002052,0.002208,-0.002042,-0.01,-0.26,9.78,33.55,0.022371,0.030893,-0.002131
489558624,-0.003117,-0.000987,-0.003107,-0.03,-0.27,9.82,33.59,0.025567,0.029828,-0.003196
489559634,-0.000986,-0.003118,0.000088,0.03,-0.28,9.86,33.62,0.027697,0.031958,0.000000
489560663,-0.000986,-0.000987,0.000088,0.02,-0.30,9.86,33.61,0.025567,0.031958,0.000000
489561670,0.000079,-0.000987,-0.000977,0.00,-0.31,9.84,33.60,0.025567,0.033024,-0.001065
489562664,0.001144,-0.000987,-0.002042,-0.02,-0.31,9.79,33.61,0.025567,0.034089,-0.002131
489563674,0.001144,0.000078,-0.003107,0.00,-0.29,9.80,33.64,0.024501,0.034089,-0.003196
489564697,0.001144,0.001143,-0.002042,0.00,-0.30,9.81,33.64,0.023436,0.034089,-0.002131
489565694,0.001144,0.000078,0.000088,-0.01,-0.31,9.78,33.63,0.024501,0.034089,0.000000
489566713,0.001144,-0.002053,0.002219,0.02,-0.29,9.78,33.63,0.026632,0.034089,0.002131
489567714,0.001144,-0.002053,0.002219,0.03,-0.28,9.81,33.65,0.026632,0.034089,0.002131
489568724,0.000079,0.002208,0.002219,0.05,-0.28,9.80,33.64,0.022371,0.033024,0.002131
489569737,-0.002052,0.003274,0.001154,0.05,-0.32,9.85,33.63,0.021306,0.030893,0.001065
489570769,-0.001985,0.001189,0.002286,0.03,-0.33,9.83,33.59,0.023436,0.030893,0.002131
489571769,-0.003050,0.000124,0.001220,0.03,-0.29,9.78,33.64,0.024501,0.029828,0.001065
489572764,-0.001985,0.002254,0.001220,0.00,-0.31,9.81,33.61,0.022371,0.030893,0.001065
489573774,-0.001985,0.004385,0.001220,0.00,-0.31,9.81,33.65,0.020240,0.030893,0.001065
489574784,-0.004115,0.004385,0.000155,0.01,-0.29,9.81,33.65,0.020240,0.028763,0.000000
489575794,-0.005181,0.001189,0.001220,0.01,-0.28,9.82,33.62,0.023436,0.027697,0.001065
489576813,-0.003050,0.000124,0.002286,0.03,-0.29,9.81,33.60,0.024501,0.029828,0.002131
489577814,-0.000920,0.000124,0.000155,0.04,-0.26,9.82,33.60,0.024501,0.031958,0.000000
489578824,0.000146,0.001189,-0.000910,0.05,-0.27,9.81,33.62,0.023436,0.033024,-0.001065
489579834,0.000146,0.000124,-0.001976,0.05,-0.32,9.80,33.60,0.024501,0.033024,-0.002131
489580844,-0.000920,-0.003072,-0.003041,0.03,-0.31,9.86,33.59,0.027697,0.031958,-0.003196
489581870,-0.000920,-0.004138,-0.000910,0.01,-0.30,9.86,33.58,0.028763,0.031958,-0.001065
489582864,0.000146,-0.004138,0.000155,0.01,-0.32,9.81,33.59,0.028763,0.033024,0.000000
489583878,0.000146,-0.002007,0.000155,-0.01,-0.30,9.76,33.59,0.026632,0.033024,0.000000
489584884,-0.001985,0.000124,-0.000910,-0.01,-0.27,9.79,33.62,0.024501,0.030893,-0.001065
489585894,-0.000920,0.001189,-0.000910,0.01,-0.28,9.81,33.62,0.023436,0.031958,-0.001065
489586913,-0.001985,0.002254,-0.000910,0.02,-0.27,9.82,33.62,0.022371,0.030893,-0.001065
489587914,-0.000920,0.001189,0.000155,0.03,-0.25,9.83,33.65,0.023436,0.031958,0.000000
489588924,0.000146,0.000124,-0.000910,0.01,-0.25,9.87,33.63,0.024501,0.033024,-0.001065
489589934,0.001211,0.001189,-0.001976,-0.02,-0.27,9.88,33.62,0.023436,0.034089,-0.002131
489590944,0.001211,0.001189,-0.001976,-0.01,-0.28,9.85,33.59,0.023436,0.034089,-0.002131
489591970,0.002276,0.000124,-0.000910,-0.02,-0.29,9.80,33.60,0.024501,0.035154,-0.001065
489592974,0.001211,-0.000942,0.000155,0.02,-0.31,9.82,33.59,0.025567,0.034089,0.000000
489593975,0.000146,-0.000942,0.000155,0.04,-0.30,9.87,33.62,0.025567,0.033024,0.000000
489594996,0.000146,-0.003072,0.001220,0.03,-0.28,9.88,33.61,0.027697,0.033024,0.001065
489596003,0.000146,-0.003072,0.001220,0.03,-0.26,9.88,33.61,0.027697,0.033024,0.001065
489597026,0.000146,-0.002007,0.003351,0.01,-0.28,9.85,33.61,0.026632,0.033024,0.003196
489598026,0.001211,0.001189,0.003351,-0.01,-0.29,9.81,33.59,0.023436,0.034089,0.003196
489599031,0.002276,0.000124,0.001220,-0.01,-0.29,9.80,33.58,0.024501,0.035154,0.001065
489600044,0.000146,-0.002007,-0.000910,0.02,-0.29,9.82,33.58,0.026632,0.033024,-0.001065
489601060,0.000146,-0.004138,-0.000910,0.03,-0.27,9.82,33.61,0.028763,0.033024,-0.001065
489602081,0.002276,-0.002007,0.000155,0.01,-0.26,9.77,33.61,0.026632,0.035154,0.000000
489603076,0.002276,0.000124,0.000155,0.01,-0.29,9.77,33.59,0.024501,0.035154,0.000000
489604087,0.001211,0.000124,-0.000910,0.02,-0.30,9.81,33.59,0.024501,0.034089,-0.001065
489605095,0.000146,0.000124,0.000155,0.04,-0.28,9.80,33.62,0.024501,0.033024,0.000000
489606104,0.000146,-0.000942,-0.000910,0.01,-0.30,9.82,33.62,0.025567,0.033024,-0.001065
489607124,0.001211,-0.002007,0.000155,-0.01,-0.31,9.85,33.59,0.026632,0.034089,0.000000
489608122,0.000146,-0.004138,0.000155,0.04,-0.28,9.86,33.59,0.028763,0.033024,0.000000
489609132,0.000146,-0.003072,-0.000910,0.04,-0.29,9.80,33.61,0.027697,0.033024,-0.001065
489610148,0.000146,-0.000942,-0.001976,-0.02,-0.30,9.78,33.61,0.025567,0.033024,-0.002131
489611151,0.001211,0.000124,-0.000910,-0.02,-0.29,9.84,33.56,0.024501,0.034089,-0.001065
489612173,0.000146,0.000124,0.000155,0.00,-0.32,9.82,33.59,0.024501,0.033024,0.000000
489613168,-0.000920,-0.000942,0.000155,0.01,-0.32,9.75,33.61,0.025567,0.031958,0.000000
489614174,-0.000920,-0.000942,-0.000910,0.04,-0.26,9.79,33.59,0.025567,0.031958,-0.001065
489615188,0.000146,0.000124,-0.001976,0.03,-0.27,9.82,33.60,0.024501,0.033024,-0.002131
489616198,-0.000920,0.002254,-0.000910,0.02,-0.29,9.80,33.61,0.022371,0.031958,-0.001065
489617217,-0.000920,0.003319,-0.000910,0.02,-0.28,9.81,33.60,0.021306,0.031958,-0.001065
489618216,0.000146,0.003319,-0.000910,0.02,-0.30,9.82,33.62,0.021306,0.033024,-0.001065
489619224,0.001211,0.002254,-0.000910,0.02,-0.30,9.82,33.63,0.022371,0.034089,-0.001065
489620234,0.002276,-0.000942,-0.001976,0.01,-0.30,9.83,33.60,0.025567,0.035154,-0.002131
489621244,0.001211,-0.003072,-0.000910,0.02,-0.29,9.85,33.58,0.027697,0.034089,-0.001065
489622270,-0.000920,-0.005203,0.000155,0.03,-0.29,9.80,33.58,0.029828,0.031958,0.000000
489623264,-0.000920,-0.003072,0.000155,0.03,-0.28,9.79,33.66,0.027697,0.031958,0.000000
489624274,-0.000920,-0.000942,0.001220,0.03,-0.27,9.83,33.63,0.025567,0.031958,0.001065
489625284,0.001211,-0.000942,0.001220,0.00,-0.27,9.83,33.60,0.025567,0.034089,0.001065
489626294,0.002276,0.000124,0.001220,0.01,-0.29,9.85,33.60,0.024501,0.035154,0.001065
489627313,0.002276,-0.000942,0.001220,0.04,-0.29,9.81,33.65,0.025567,0.035154,0.001065
489628314,0.001211,0.000124,-0.000910,0.03,-0.29,9.78,33.62,0.024501,0.034089,-0.001065
489629324,0.000146,0.002254,-0.004106,0.02,-0.27,9.80,33.62,0.022371,0.033024,-0.004261
489630334,-0.000920,0.002254,-0.001976,0.03,-0.27,9.78,33.60,0.022371,0.031958,-0.002131
489631344,-0.000920,0.001189,0.001220,0.02,-0.32,9.84,33.59,0.023436,0.031958,0.001065
489632369,-0.000920,-0.000942,0.003351,-0.02,-0.30,9.85,33.58,0.025567,0.031958,0.003196
489633364,0.000146,-0.002007,0.003351,-0.02,-0.28,9.80,33.61,0.026632,0.033024,0.003196
489634374,0.001211,0.000124,0.002286,0.01,-0.28,9.81,33.59,0.024501,0.034089,0.002131
489635384,0.001211,0.001189,0.001220,0.02,-0.29,9.83,33.60,0.023436,0.034089,0.001065
489636394,-0.000920,0.001189,0.000155,0.03,-0.30,9.80,33.62,0.023436,0.031958,0.000000
489637413,-0.001985,0.003319,-0.000910,0.01,-0.29,9.79,33.63,0.021306,0.030893,-0.001065
489638429,0.001211,0.005450,-0.000910,0.00,-0.29,9.80,33.63,0.019175,0.034089,-0.001065
489639422,0.003341,0.006515,-0.001976,0.03,-0.27,9.78,33.62,0.018110,0.036220,-0.002131
489640432,0.003341,0.005450,-0.001976,0.03,-0.28,9.83,33.62,0.019175,0.036220,-0.002131
489641442,0.002276,0.002254,0.000155,0.02,-0.30,9.85,33.63,0.022371,0.035154,0.000000
489642471,0.001211,-0.000942,0.001220,0.02,-0.31,9.88,33.63,0.025567,0.034089,0.001065
489643462,0.002276,-0.000942,0.000155,0.02,-0.31,9.90,33.62,0.025567,0.035154,0.000000
489644472,0.000146,0.001189,0.000155,0.03,-0.28,9.82,33.62,0.023436,0.033024,0.000000
489645482,-0.000920,0.003319,0.000155,0.02,-0.28,9.82,33.60,0.021306,0.031958,0.000000
489646492,0.000146,0.004385,0.000155,-0.01,-0.30,9.88,33.62,0.020240,0.033024,0.000000
489647512,0.001211,0.002254,0.000155,0.00,-0.31,9.83,33.62,0.022371,0.034089,0.000000
489648528,0.000146,0.000124,0.000155,0.03,-0.30,9.81,33.61,0.024501,0.033024,0.000000
489649538,-0.000920,0.001189,0.002286,0.01,-0.28,9.81,33.62,0.023436,0.031958,0.002131
489650534,0.000146,0.003319,0.003351,-0.01,-0.27,9.79,33.62,0.021306,0.033024,0.003196
489651544,0.000146,0.003319,0.003351,0.02,-0.28,9.85,33.61,0.021306,0.033024,0.003196
489652570,0.000146,0.003319,0.002286,0.01,-0.30,9.84,33.59,0.021306,0.033024,0.002131
489653564,0.000146,0.003319,0.001220,-0.03,-0.28,9.80,33.62,0.021306,0.033024,0.001065
489654574,0.000146,0.001189,0.000155,-0.04,-0.26,9.85,33.62,0.023436,0.033024,0.000000
489655584,-0.000920,-0.000942,-0.003041,-0.02,-0.28,9.87,33.62,0.025567,0.031958,-0.003196
489656618,-0.000920,-0.000942,-0.004106,-0.01,-0.28,9.87,33.62,0.025567,0.031958,-0.004261
489657613,0.000146,-0.002007,-0.004106,0.01,-0.28,9.82,33.62,0.026632,0.033024,-0.004261
489658627,0.000146,0.000124,-0.001976,0.00,-0.28,9.78,33.63,0.024501,0.033024,-0.002131
489659622,-0.000920,0.002254,0.001220,-0.02,-0.28,9.76,33.62,0.022371,0.031958,0.001065
489660632,-0.003050,0.004385,0.003351,0.03,-0.26,9.81,33.60,0.020240,0.029828,0.003196
489661654,-0.001985,0.003319,0.003351,0.01,-0.27,9.82,33.54,0.021306,0.030893,0.003196
489662662,-0.001985,0.000124,0.003351,0.02,-0.28,9.88,33.56,0.024501,0.030893,0.003196
489663662,-0.000920,-0.002007,0.001220,0.04,-0.30,9.85,33.59,0.026632,0.031958,0.001065
489664672,0.000146,-0.000942,-0.000910,0.01,-0.29,9.78,33.59,0.025567,0.033024,-0.001065
489665682,-0.001985,-0.000942,0.000155,0.02,-0.27,9.78,33.59,0.025567,0.030893,0.000000
489666692,-0.001985,-0.003072,0.000155,0.04,-0.26,9.84,33.65,0.027697,0.030893,0.000000
489667711,0.000146,-0.004138,0.000155,0.02,-0.28,9.83,33.66,0.028763,0.033024,0.000000
489668728,0.002276,-0.004138,0.001220,0.00,-0.28,9.80,33.65,0.028763,0.035154,0.001065
489669724,0.002276,0.000124,0.001220,0.02,-0.27,9.83,33.63,0.024501,0.035154,0.001065
489670734,0.000146,0.002254,0.001220,0.02,-0.27,9.85,33.66,0.022371,0.033024,0.001065
489671757,-0.001985,0.003319,0.001220,-0.02,-0.29,9.82,33.62,0.021306,0.030893,0.001065
489672761,-0.001985,0.002254,0.000155,-0.06,-0.31,9.77,33.59,0.022371,0.030893,0.000000
489673764,-0.003050,-0.000942,0.000155,-0.04,-0.29,9.76,33.58,0.025567,0.029828,0.000000
489674774,-0.003050,-0.000942,-0.000910,-0.01,-0.28,9.81,33.59,0.025567,0.029828,-0.001065
489675784,-0.001985,-0.000942,-0.001976,-0.01,-0.30,9.86,33.59,0.025567,0.030893,-0.002131
489676794,-0.003050,0.001189,-0.001976,0.00,-0.30,9.85,33.59,0.023436,0.029828,-0.002131
489677812,-0.001985,0.003319,-0.001976,0.00,-0.28,9.84,33.58,0.021306,0.030893,-0.002131
489678827,0.000146,0.001189,-0.003041,0.03,-0.28,9.86,33.61,0.023436,0.033024,-0.003196
489679822,0.001211,-0.000942,-0.003041,0.04,-0.31,9.85,33.60,0.025567,0.034089,-0.003196
489680832,-0.000920,-0.002007,-0.000910,0.01,-0.32,9.87,33.62,0.026632,0.031958,-0.001065
489681854,-0.001985,0.000124,0.000155,0.02,-0.30,9.83,33.62,0.024501,0.030893,0.000000
489682862,-0.001985,0.001189,-0.001976,0.04,-0.29,9.74,33.64,0.023436,0.030893,-0.002131
489683862,-0.001985,0.000124,-0.001976,0.01,-0.28,9.77,33.62,0.024501,0.030893,-0.002131
489684872,-0.003050,0.000124,-0.000910,-0.02,-0.28,9.80,33.62,0.024501,0.029828,-0.001065
489685882,-0.003050,0.001189,0.001220,0.02,-0.29,9.83,33.66,0.023436,0.029828,0.001065
489686892,-0.000920,0.001189,0.002286,0.04,-0.28,9.88,33.67,0.023436,0.031958,0.002131
489687925,0.000146,0.000124,-0.000910,0.01,-0.27,9.78,33.62,0.024501,0.033024,-0.001065
489688914,0.001211,-0.002007,-0.001976,0.01,-0.28,9.78,33.59,0.026632,0.034089,-0.002131
489689924,0.002276,-0.003072,0.000155,0.03,-0.29,9.86,33.59,0.027697,0.035154,0.000000
489690934,0.000146,-0.003072,0.002286,0.03,-0.30,9.87,33.62,0.027697,0.033024,0.002131
489691957,0.000146,-0.000942,0.003351,0.02,-0.31,9.82,33.64,0.025567,0.033024,0.003196
489692967,0.002276,-0.000942,0.004416,0.03,-0.29,9.78,33.59,0.025567,0.035154,0.004261
489693967,0.001211,-0.003072,0.002286,0.04,-0.30,9.83,33.61,0.027697,0.034089,0.002131
489694978,-0.000920,-0.002007,0.001220,0.01,-0.29,9.86,33.63,0.026632,0.031958,0.001065
489695995,-0.003050,0.000124,-0.000910,0.00,-0.26,9.80,33.64,0.024501,0.029828,-0.001065
489697003,-0.000920,0.001189,-0.001976,0.00,-0.27,9.83,33.65,0.023436,0.031958,-0.002131
489698030,-0.000920,0.000124,-0.004106,-0.01,-0.30,9.86,33.65,0.024501,0.031958,-0.004261
489699023,-0.001985,-0.002007,-0.001976,0.02,-0.32,9.81,33.64,0.026632,0.030893,-0.002131
489700050,-0.003019,-0.000956,0.001222,0.03,-0.30,9.78,33.66,0.025567,0.029828,0.001065
489701042,-0.003019,0.000110,0.002287,0.03,-0.29,9.76,33.65,0.024501,0.029828,0.002131
489702063,-0.001953,0.000110,0.002287,0.05,-0.33,9.81,33.64,0.024501,0.030893,0.002131
489703078,-0.000888,-0.000956,0.002287,0.04,-0.31,9.84,33.64,0.025567,0.031958,0.002131
489704076,0.000177,-0.002021,0.002287,0.03,-0.30,9.79,33.64,0.026632,0.033024,0.002131
489705087,0.000177,0.000110,0.001222,0.04,-0.29,9.78,33.63,0.024501,0.033024,0.001065
489706089,0.000177,0.003306,0.000156,0.01,-0.29,9.83,33.59,0.021306,0.033024,0.000000
489707107,0.000177,0.002240,0.000156,0.00,-0.31,9.84,33.57,0.022371,0.033024,0.000000
489708134,0.000177,-0.000956,0.001222,0.00,-0.30,9.84,33.62,0.025567,0.033024,0.001065
489709121,0.001242,-0.003086,0.002287,-0.01,-0.29,9.83,33.62,0.027697,0.034089,0.002131
489710137,0.004438,-0.003086,0.003352,0.00,-0.32,9.80,33.59,0.027697,0.037285,0.003196
489711141,0.004438,-0.002021,0.001222,0.01,-0.30,9.82,33.59,0.026632,0.037285,0.001065
489712160,0.000177,0.000110,0.000156,-0.02,-0.27,9.83,33.59,0.024501,0.033024,0.000000
489713168,-0.000888,0.001175,-0.000909,-0.02,-0.28,9.82,33.62,0.023436,0.031958,-0.001065
489714167,0.001242,0.002240,-0.001974,0.00,-0.29,9.83,33.63,0.022371,0.034089,-0.002131
489715174,0.001242,0.001175,-0.000909,0.02,-0.28,9.82,33.58,0.023436,0.034089,-0.001065
489716188,-0.000888,0.000110,0.000156,0.01,-0.27,9.84,33.60,0.024501,0.031958,0.000000
489717198,-0.001953,0.000110,0.002287,0.01,-0.29,9.83,33.59,0.024501,0.030893,0.002131
489718227,-0.000888,0.002240,0.001222,-0.01,-0.27,9.82,33.61,0.022371,0.031958,0.001065
489719215,0.001242,0.002240,0.001222,-0.01,-0.26,9.84,33.59,0.022371,0.034089,0.001065
489720222,0.001242,0.000110,0.001222,0.04,-0.29,9.89,33.60,0.024501,0.034089,0.001065
489721232,0.000177,-0.000956,0.002287,0.02,-0.28,9.90,33.62,0.025567,0.033024,0.002131
489722253,-0.000888,-0.002021,0.002287,0.01,-0.30,9.86,33.62,0.026632,0.031958,0.002131
489723262,-0.000888,-0.002021,-0.000909,0.02,-0.30,9.84,33.62,0.026632,0.031958,-0.001065
489724262,0.000177,0.000110,-0.001974,0.00,-0.27,9.78,33.62,0.024501,0.033024,-0.002131
489725272,0.000177,0.001175,-0.000909,0.00,-0.30,9.78,33.57,0.023436,0.033024,-0.001065
489726282,-0.000888,0.001175,0.000156,0.00,-0.31,9.81,33.61,0.023436,0.031958,0.000000
489727292,-0.001953,-0.000956,0.000156,-0.03,-0.30,9.82,33.60,0.025567,0.030893,0.000000
489728325,0.000177,-0.002021,0.001222,-0.02,-0.32,9.86,33.57,0.026632,0.033024,0.001065
489729314,0.000177,-0.002021,0.003352,0.03,-0.32,9.83,33.61,0.026632,0.033024,0.003196
489730324,0.000177,0.000110,0.002287,0.04,-0.30,9.83,33.63,0.024501,0.033024,0.002131
489731334,0.001242,0.001175,0.000156,0.03,-0.31,9.89,33.60,0.023436,0.034089,0.000000
489732355,0.001242,0.000110,0.000156,0.03,-0.31,9.86,33.61,0.024501,0.034089,0.000000
489733361,0.000177,0.002240,0.000156,0.03,-0.32,9.87,33.61,0.022371,0.033024,0.000000
489734364,0.000177,0.004371,-0.001974,0.01,-0.32,9.88,33.61,0.020240,0.033024,-0.002131
489735374,0.001242,0.004371,-0.001974,0.00,-0.27,9.85,33.60,0.020240,0.034089,-0.002131
489736384,0.000177,0.002240,-0.000909,0.03,-0.26,9.88,33.62,0.022371,0.033024,-0.001065
489737394,-0.000888,0.001175,-0.000909,0.01,-0.27,9.86,33.64,0.023436,0.031958,-0.001065
489738424,-0.003019,0.000110,-0.000909,0.02,-0.28,9.82,33.59,0.024501,0.029828,-0.001065
489739412,-0.004084,-0.000956,0.000156,0.05,-0.30,9.79,33.61,0.025567,0.028763,0.000000
489740422,-0.001953,-0.002021,0.001222,0.04,-0.30,9.76,33.58,0.026632,0.030893,0.001065
489741432,0.000177,-0.000956,0.000156,0.04,-0.27,9.83,33.60,0.025567,0.033024,0.000000
489742454,0.001242,0.000110,-0.000909,0.02,-0.26,9.90,33.61,0.024501,0.034089,-0.001065
489743484,0.001242,-0.000956,0.000156,-0.01,-0.27,9.86,33.58,0.025567,0.034089,0.000000
489744498,-0.000888,-0.000956,-0.000909,-0.01,-0.27,9.80,33.61,0.025567,0.031958,-0.001065
489745492,-0.001953,0.001175,-0.003040,0.02,-0.27,9.80,33.63,0.023436,0.030893,-0.003196
489746482,0.000177,0.002240,-0.003040,0.03,-0.30,9.84,33.62,0.022371,0.033024,-0.003196
489747492,0.002308,0.002240,-0.000909,0.01,-0.32,9.85,33.61,0.022371,0.035154,-0.001065
489748525,0.002308,0.002240,0.001222,0.02,-0.32,9.82,33.62,0.022371,0.035154,0.001065
489749514,0.002308,0.002240,0.003352,0.01,-0.31,9.79,33.65,0.022371,0.035154,0.003196
489750524,0.002308,0.000110,0.003352,0.00,-0.30,9.78,33.61,0.024501,0.035154,0.003196
489751534,0.000177,0.000110,0.003352,-0.02,-0.31,9.82,33.64,0.024501,0.033024,0.003196
489752555,-0.000888,0.001175,0.002287,-0.06,-0.32,9.86,33.65,0.023436,0.031958,0.002131
489753561,-0.000888,0.004371,0.000156,-0.03,-0.30,9.84,33.62,0.020240,0.031958,0.000000
489754564,-0.001953,0.004371,-0.000909,0.01,-0.29,9.84,33.59,0.020240,0.030893,-0.001065
489755574,-0.000888,0.001175,-0.001974,0.01,-0.29,9.84,33.58,0.023436,0.031958,-0.002131
489756584,0.000177,-0.000956,0.001222,0.02,-0.28,9.82,33.62,0.025567,0.033024,0.001065
489757594,0.001242,-0.000956,0.002287,0.02,-0.30,9.83,33.64,0.025567,0.034089,0.002131
489758679,0.001242,-0.004151,0.000156,0.00,-0.31,9.83,33.60,0.028763,0.034089,0.000000
489759612,0.001242,-0.004151,-0.000909,0.02,-0.31,9.81,33.59,0.028763,0.034089,-0.001065
489760622,0.002308,-0.000956,-0.000909,0.04,-0.25,9.80,33.58,0.025567,0.035154,-0.001065
489761643,0.000177,-0.000956,0.000156,0.03,-0.28,9.85,33.59,0.025567,0.033024,0.000000
489762642,-0.000888,0.000110,0.001222,0.05,-0.31,9.82,33.59,0.024501,0.031958,0.001065
489763662,-0.000888,0.001175,0.003352,0.04,-0.29,9.84,33.61,0.023436,0.031958,0.003196
489764662,-0.000888,0.001175,0.003352,0.02,-0.28,9.82,33.60,0.023436,0.031958,0.003196
489765672,-0.000888,0.000110,0.002287,0.03,-0.29,9.76,33.59,0.024501,0.031958,0.002131
489766682,-0.000888,0.001175,0.000156,0.03,-0.30,9.79,33.64,0.023436,0.031958,0.000000
489767692,-0.000888,-0.000956,-0.001974,0.03,-0.29,9.80,33.62,0.025567,0.031958,-0.002131
489768725,-0.000888,-0.003086,-0.001974,0.01,-0.28,9.83,33.62,0.027697,0.031958,-0.002131
489769714,-0.000888,-0.000956,-0.001974,-0.01,-0.29,9.87,33.60,0.025567,0.031958,-0.002131
489770724,-0.000888,0.001175,-0.000909,-0.02,-0.30,9.85,33.62,0.023436,0.031958,-0.001065
489771747,-0.000888,-0.000956,-0.001974,-0.03,-0.32,9.81,33.63,0.025567,0.031958,-0.002131
489772744,0.001242,0.000110,-0.000909,-0.03,-0.30,9.79,33.62,0.024501,0.034089,-0.001065
489773761,0.001242,-0.000956,-0.000909,0.00,-0.27,9.76,33.59,0.025567,0.034089,-0.001065
489774764,0.000177,-0.002021,-0.003040,0.03,-0.28,9.78,33.63,0.026632,0.033024,-0.003196
489775774,-0.000888,0.001175,-0.001974,0.02,-0.32,9.83,33.62,0.023436,0.031958,-0.002131
489776784,-0.000888,0.002240,-0.001974,0.00,-0.31,9.86,33.65,0.022371,0.031958,-0.002131
489777794,-0.000888,0.001175,-0.000909,0.00,-0.30,9.90,33.68,0.023436,0.031958,-0.001065
489778824,0.000177,0.000110,0.000156,0.01,-0.30,9.84,33.66,0.024501,0.033024,0.000000
489779812,0.001242,0.000110,0.000156,0.00,-0.29,9.81,33.64,0.024501,0.034089,0.000000
489780822,0.001242,-0.000956,0.000156,-0.01,-0.31,9.83,33.64,0.025567,0.034089,0.000000
489781844,0.000177,0.000110,0.000156,0.01,-0.29,9.84,33.62,0.024501,0.033024,0.000000
489782842,0.000177,0.000110,0.000156,0.02,-0.27,9.84,33.62,0.024501,0.033024,0.000000
489783862,0.001242,0.000110,-0.000909,0.02,-0.25,9.79,33.60,0.024501,0.034089,-0.001065
489784862,0.003373,-0.002021,-0.001974,0.00,-0.24,9.77,33.60,0.026632,0.036220,-0.002131
489785872,0.003373,-0.004151,-0.000909,0.00,-0.24,9.78,33.61,0.028763,0.036220,-0.001065
489786882,0.003373,-0.004151,0.001222,0.00,-0.26,9.80,33.59,0.028763,0.036220,0.001065
489787908,0.003373,-0.000956,0.002287,-0.02,-0.29,9.79,33.59,0.025567,0.036220,0.002131
489788912,0.001242,0.001175,0.001222,-0.05,-0.29,9.79,33.56,0.023436,0.034089,0.001065
489789914,0.000177,0.000110,-0.000909,-0.02,-0.27,9.75,33.56,0.024501,0.033024,-0.001065
489790924,-0.000888,0.000110,-0.001974,0.03,-0.24,9.79,33.59,0.024501,0.031958,-0.002131
489791948,0.001242,0.000110,-0.001974,0.02,-0.24,9.85,33.58,0.024501,0.034089,-0.002131
489792944,0.000177,0.000110,0.000156,0.00,-0.27,9.83,33.57,0.024501,0.033024,0.000000
489793965,-0.000888,0.001175,0.000156,0.01,-0.28,9.83,33.59,0.023436,0.031958,0.000000
489794966,0.000177,0.002240,-0.000909,0.01,-0.29,9.89,33.58,0.022371,0.033024,-0.001065
489795976,0.001242,0.001175,-0.000909,0.03,-0.30,9.90,33.60,0.023436,0.034089,-0.001065
489796994,0.000177,-0.000956,0.000156,0.01,-0.31,9.85,33.61,0.025567,0.033024,0.000000
489798002,-0.001953,-0.000956,0.002287,-0.01,-0.31,9.89,33.60,0.025567,0.030893,0.002131
489799019,-0.000888,-0.002021,0.001222,0.04,-0.32,9.87,33.59,0.026632,0.031958,0.001065
489800022,0.002308,0.000110,0.000156,0.08,-0.31,9.79,33.62,0.024501,0.035154,0.000000
489801034,0.003373,0.001175,-0.000909,0.05,-0.32,9.80,33.62,0.023436,0.036220,-0.001065
489802056,0.000177,0.002240,-0.003040,0.04,-0.35,9.82,33.61,0.022371,0.033024,-0.003196
489803062,-0.001953,0.001175,-0.001974,0.01,-0.34,9.83,33.60,0.023436,0.030893,-0.002131
489804075,-0.003019,-0.000956,-0.001974,0.00,-0.29,9.87,33.63,0.025567,0.029828,-0.002131
489805076,-0.003019,-0.002021,0.000156,0.05,-0.27,9.92,33.59,0.026632,0.029828,0.000000
489806088,0.000177,-0.000956,0.001222,0.04,-0.25,9.90,33.59,0.025567,0.033024,0.001065
489807091,0.002308,0.000110,0.002287,0.01,-0.27,9.87,33.59,0.024501,0.035154,0.002131
489808106,0.000177,0.001175,0.003352,0.03,-0.29,9.85,33.59,0.023436,0.033024,0.003196
489809123,-0.001953,0.002240,0.002287,0.02,-0.28,9.85,33.59,0.022371,0.030893,0.002131
489810129,-0.001953,0.002240,0.001222,0.03,-0.27,9.86,33.60,0.022371,0.030893,0.001065
489811138,0.000177,0.002240,0.001222,0.04,-0.29,9.79,33.59,0.022371,0.033024,0.001065
489812152,0.002308,0.000110,0.002287,0.01,-0.31,9.78,33.58,0.024501,0.035154,0.002131
489813157,0.000177,-0.002021,0.001222,-0.01,-0.32,9.85,33.59,0.026632,0.033024,0.001065
489814165,0.000177,-0.002021,0.001222,0.00,-0.30,9.83,33.61,0.026632,0.033024,0.001065
489815167,0.000177,-0.002021,0.001222,0.01,-0.27,9.83,33.63,0.026632,0.033024,0.001065
489816174,0.001242,0.000110,0.001222,0.01,-0.29,9.85,33.62,0.024501,0.034089,0.001065
489817188,0.000177,0.001175,0.002287,0.01,-0.32,9.82,33.60,0.023436,0.033024,0.002131
489818198,-0.000888,0.001175,0.003352,-0.02,-0.29,9.80,33.62,0.023436,0.031958,0.003196
489819216,-0.000888,0.001175,0.003352,0.00,-0.30,9.82,33.61,0.023436,0.031958,0.003196
489820216,0.000177,0.000110,0.002287,0.01,-0.30,9.84,33.63,0.024501,0.033024,0.002131
489821224,0.001242,-0.000956,0.001222,-0.01,-0.27,9.86,33.65,0.025567,0.034089,0.001065
489822243,0.002308,-0.000956,-0.000909,0.00,-0.29,9.82,33.64,0.025567,0.035154,-0.001065
489823244,0.001242,0.000110,0.000156,0.01,-0.28,9.81,33.62,0.024501,0.034089,0.000000
489824263,0.001242,0.001175,0.000156,0.03,-0.28,9.85,33.62,0.023436,0.034089,0.000000
489825264,0.000177,0.001175,0.000156,0.01,-0.28,9.84,33.62,0.023436,0.033024,0.000000
489826274,-0.001953,0.000110,0.000156,0.00,-0.26,9.82,33.58,0.024501,0.030893,0.000000
489827284,-0.001953,0.000110,0.002287,0.01,-0.28,9.80,33.61,0.024501,0.030893,0.002131
489828294,0.000177,0.000110,0.002287,0.00,-0.31,9.85,33.62,0.024501,0.033024,0.002131
489829333,-0.000904,0.000097,0.001176,0.02,-0.29,9.86,33.59,0.024501,0.031958,0.001065
489830314,-0.000904,0.000097,0.000110,0.04,-0.29,9.84,33.60,0.024501,0.031958,0.000000
489831324,-0.000904,0.001162,-0.000955,0.02,-0.29,9.86,33.60,0.023436,0.031958,-0.001065
489832345,-0.001970,0.000097,0.000110,-0.01,-0.31,9.88,33.59,0.024501,0.030893,0.000000
489833344,-0.001970,-0.000969,0.000110,0.00,-0.32,9.83,33.58,0.025567,0.030893,0.000000
489834361,-0.001970,-0.002034,0.000110,-0.02,-0.28,9.80,33.62,0.026632,0.030893,0.000000
489835364,-0.000904,-0.002034,-0.000955,-0.03,-0.28,9.83,33.63,0.026632,0.031958,-0.001065
489836374,-0.000904,-0.000969,-0.003085,-0.02,-0.31,9.82,33.60,0.025567,0.031958,-0.003196
489837384,-0.000904,0.000097,-0.003085,0.01,-0.31,9.83,33.58,0.024501,0.031958,-0.003196
489838394,-0.001970,0.000097,-0.002020,-0.01,-0.31,9.83,33.62,0.024501,0.030893,-0.002131
489839412,0.000161,0.001162,-0.002020,-0.02,-0.29,9.80,33.62,0.023436,0.033024,-0.002131
489840414,0.001226,0.000097,0.001176,0.00,-0.27,9.83,33.61,0.024501,0.034089,0.001065
489841424,0.000161,0.000097,0.003306,-0.02,-0.30,9.86,33.62,0.024501,0.033024,0.003196
489842443,0.001226,-0.002034,0.003306,-0.01,-0.30,9.86,33.66,0.026632,0.034089,0.003196
489843444,0.002291,-0.000969,0.002241,0.02,-0.26,9.88,33.63,0.025567,0.035154,0.002131
489844463,0.003357,0.001162,0.000110,0.01,-0.25,9.88,33.59,0.023436,0.036220,0.000000
489845464,0.000161,0.002227,-0.003085,0.03,-0.24,9.83,33.59,0.022371,0.033024,-0.003196
489846474,-0.000904,0.002227,-0.004151,0.05,-0.26,9.87,33.62,0.022371,0.031958,-0.004261
489847484,-0.000904,0.003292,-0.000955,0.03,-0.30,9.84,33.62,0.021306,0.031958,-0.001065
489848494,-0.000904,0.003292,0.001176,0.05,-0.34,9.79,33.62,0.021306,0.031958,0.001065
489849512,-0.000904,0.004358,0.002241,0.07,-0.33,9.84,33.67,0.020240,0.031958,0.002131
489850514,-0.000904,0.003292,0.001176,0.03,-0.28,9.87,33.65,0.021306,0.031958,0.001065
489851524,-0.000904,0.002227,0.000110,-0.02,-0.28,9.87,33.64,0.022371,0.031958,0.000000
489852544,0.000161,0.000097,0.000110,-0.03,-0.28,9.86,33.63,0.024501,0.033024,0.000000
489853544,0.001226,-0.000969,0.001176,-0.02,-0.25,9.83,33.63,0.025567,0.034089,0.001065
489854572,-0.000904,-0.000969,0.002241,0.02,-0.26,9.83,33.61,0.025567,0.031958,0.002131
489855564,-0.005166,0.000097,0.002241,0.04,-0.28,9.81,33.58,0.024501,0.027697,0.002131
489856574,-0.006231,0.000097,0.000110,0.01,-0.28,9.84,33.58,0.024501,0.026632,0.000000
489857584,-0.005166,0.000097,-0.002020,0.04,-0.28,9.86,33.58,0.024501,0.027697,-0.002131
489858594,-0.001970,-0.000969,-0.002020,0.04,-0.28,9.86,33.61,0.025567,0.030893,-0.002131
489859612,0.001226,0.000097,-0.000955,0.00,-0.30,9.83,33.60,0.024501,0.034089,-0.001065
489860614,0.003357,0.000097,0.000110,0.00,-0.30,9.83,33.58,0.024501,0.036220,0.000000
489861648,0.002291,-0.002034,-0.000955,0.03,-0.30,9.84,33.61,0.026632,0.035154,-0.001065
489862634,0.000161,-0.002034,0.000110,-0.02,-0.31,9.86,33.63,0.026632,0.033024,0.000000
489863644,0.000161,-0.000969,0.001176,-0.04,-0.31,9.86,33.59,0.025567,0.033024,0.001065
489864663,0.001226,-0.000969,0.000110,-0.02,-0.29,9.78,33.61,0.025567,0.034089,0.000000
489865664,0.002291,-0.000969,-0.000955,0.02,-0.28,9.76,33.63,0.025567,0.035154,-0.001065
489866674,0.002291,-0.000969,-0.000955,0.04,-0.30,9.80,33.61,0.025567,0.035154,-0.001065
489867684,0.000161,0.000097,0.000110,0.01,-0.30,9.82,33.57,0.024501,0.033024,0.000000
489868694,-0.000904,0.002227,0.001176,0.03,-0.30,9.85,33.60,0.022371,0.031958,0.001065
489869712,-0.001970,0.002227,0.002241,0.05,-0.29,9.84,33.56,0.022371,0.030893,0.002131
489870714,-0.000904,0.001162,0.001176,0.04,-0.29,9.81,33.57,0.023436,0.031958,0.001065
489871735,0.001226,-0.000969,0.001176,0.08,-0.27,9.83,33.56,0.025567,0.034089,0.001065
489872734,0.001226,-0.000969,0.001176,0.08,-0.27,9.87,33.59,0.025567,0.034089,0.001065
489873744,0.001226,-0.000969,0.000110,0.04,-0.29,9.86,33.62,0.025567,0.034089,0.000000
489874761,0.001226,0.001162,-0.000955,0.05,-0.25,9.81,33.64,0.023436,0.034089,-0.001065
489875764,0.002291,0.002227,-0.000955,0.03,-0.26,9.82,33.60,0.022371,0.035154,-0.001065
489876774,0.002291,0.003292,-0.002020,0.00,-0.31,9.84,33.61,0.021306,0.035154,-0.002131
489877784,0.001226,0.002227,-0.000955,0.02,-0.29,9.82,33.62,0.022371,0.034089,-0.001065
489878794,-0.000904,0.000097,0.000110,0.01,-0.29,9.82,33.67,0.024501,0.031958,0.000000
489879812,-0.003035,0.000097,0.000110,0.01,-0.28,9.81,33.65,0.024501,0.029828,0.000000
489880814,-0.001970,0.000097,0.000110,0.02,-0.28,9.82,33.61,0.024501,0.030893,0.000000
489881832,0.000161,0.000097,0.002241,0.00,-0.27,9.83,33.62,0.024501,0.033024,0.002131
489882834,0.000161,-0.000969,0.001176,0.01,-0.26,9.78,33.62,0.025567,0.033024,0.001065
489883844,0.000161,-0.004165,-0.000955,0.02,-0.26,9.80,33.60,0.028763,0.033024,-0.001065
489884863,0.000161,-0.004165,-0.003085,0.01,-0.28,9.86,33.59,0.028763,0.033024,-0.003196
489885864,0.001226,0.000097,-0.003085,-0.01,-0.30,9.84,33.63,0.024501,0.034089,-0.003196
489886874,0.000161,0.002227,-0.004151,0.01,-0.30,9.84,33.61,0.022371,0.033024,-0.004261
489887884,-0.001970,0.005423,-0.000955,0.00,-0.28,9.86,33.59,0.019175,0.030893,-0.001065
489888894,-0.000904,0.004358,0.002241,-0.02,-0.25,9.86,33.59,0.020240,0.031958,0.002131
489889912,0.000161,0.002227,0.002241,0.00,-0.28,9.81,33.59,0.022371,0.033024,0.002131
489890914,0.000161,0.003292,0.000110,0.01,-0.29,9.79,33.62,0.021306,0.033024,0.000000
489891935,0.001226,0.004358,0.000110,0.02,-0.26,9.84,33.65,0.020240,0.034089,0.000000
489892934,0.001226,0.003292,0.002241,0.03,-0.25,9.81,33.62,0.021306,0.034089,0.002131
489893944,0.001226,0.002227,0.002241,0.01,-0.27,9.80,33.61,0.022371,0.034089,0.002131
489894966,-0.000904,0.000097,0.001176,0.01,-0.29,9.82,33.62,0.024501,0.031958,0.001065
489895966,0.001226,-0.000969,0.000110,0.02,-0.29,9.83,33.65,0.025567,0.034089,0.000000
489896978,0.003357,0.002227,0.000110,0.03,-0.28,9.83,33.65,0.022371,0.036220,0.000000
489897994,0.004422,0.003292,0.000110,0.00,-0.28,9.83,33.64,0.021306,0.037285,0.000000
489899002,0.003357,0.001162,0.000110,0.00,-0.28,9.83,33.62,0.023436,0.036220,0.000000
489900021,0.001226,0.000097,-0.002020,0.02,-0.29,9.86,33.62,0.024501,0.034089,-0.002131
489901022,0.001226,0.000097,-0.004151,0.00,-0.30,9.85,33.63,0.024501,0.034089,-0.004261
489902044,0.001226,0.000097,-0.005216,0.00,-0.31,9.81,33.65,0.024501,0.034089,-0.005326
489903042,0.001226,-0.003099,-0.003085,0.02,-0.30,9.84,33.64,0.027697,0.034089,-0.003196
489904058,0.001226,-0.003099,0.000110,0.02,-0.26,9.85,33.62,0.027697,0.034089,0.000000
489905076,0.001226,-0.000969,0.001176,0.01,-0.25,9.83,33.60,0.025567,0.034089,0.001065
489906072,0.001226,0.000097,0.001176,-0.01,-0.28,9.82,33.60,0.024501,0.034089,0.001065
489907086,0.000161,0.001162,0.002241,-0.02,-0.30,9.80,33.63,0.023436,0.033024,0.002131
489908088,-0.001970,0.001162,0.001176,0.02,-0.29,9.80,33.62,0.023436,0.030893,0.001065
489909107,-0.004100,0.001162,0.000110,0.03,-0.28,9.79,33.66,0.023436,0.028763,0.000000
489910129,-0.001970,0.002227,0.000110,0.03,-0.29,9.82,33.62,0.022371,0.030893,0.000000
489911123,-0.000904,0.002227,-0.002020,0.03,-0.29,9.80,33.60,0.022371,0.031958,-0.002131
489912149,0.000161,-0.000969,-0.002020,0.03,-0.28,9.80,33.59,0.025567,0.033024,-0.002131
489913142,0.001226,-0.000969,-0.002020,0.05,-0.28,9.84,33.61,0.025567,0.034089,-0.002131
489914150,0.001226,0.001162,-0.002020,0.04,-0.30,9.84,33.56,0.023436,0.034089,-0.002131
489915165,0.003357,0.002227,-0.000955,0.02,-0.29,9.80,33.59,0.022371,0.036220,-0.001065
489916167,0.002291,-0.000969,0.000110,-0.01,-0.25,9.76,33.58,0.025567,0.035154,0.000000
489917174,0.000161,-0.000969,0.000110,-0.01,-0.28,9.82,33.60,0.025567,0.033024,0.000000
489918188,-0.000904,-0.000969,-0.002020,0.03,-0.31,9.85,33.57,0.025567,0.031958,-0.002131
489919198,-0.001970,0.001162,-0.002020,0.04,-0.29,9.84,33.60,0.023436,0.030893,-0.002131
489920216,-0.000904,0.002227,-0.000955,0.03,-0.30,9.86,33.62,0.022371,0.031958,-0.001065
489921216,0.001226,0.000097,0.000110,0.00,-0.32,9.82,33.60,0.024501,0.034089,0.000000
489922232,0.002291,-0.000969,0.000110,-0.03,-0.31,9.84,33.59,0.025567,0.035154,0.000000
489923234,0.003357,0.000097,0.002241,-0.01,-0.29,9.88,33.59,0.024501,0.036220,0.002131
489924244,0.002291,0.001162,0.002241,0.04,-0.29,9.83,33.59,0.023436,0.035154,0.002131
489925263,0.000161,0.002227,0.001176,0.05,-0.28,9.81,33.59,0.022371,0.033024,0.001065
489926264,-0.000904,0.003292,0.000110,0.02,-0.27,9.83,33.64,0.021306,0.031958,0.000000
489927274,0.000161,0.004358,0.003306,0.00,-0.30,9.79,33.66,0.020240,0.033024,0.003196
489928284,0.000161,0.004358,0.005437,0.01,-0.31,9.75,33.66,0.020240,0.033024,0.005326
489929294,0.000161,0.000097,0.004372,-0.01,-0.30,9.78,33.63,0.024501,0.033024,0.004261
489930312,0.001226,-0.002034,0.001176,0.02,-0.30,9.81,33.62,0.026632,0.034089,0.001065
489931314,0.000161,-0.003099,0.000110,0.03,-0.28,9.86,33.60,0.027697,0.033024,0.000000
489932335,-0.001970,-0.003099,0.001176,0.02,-0.26,9.88,33.59,0.027697,0.030893,0.001065
489933334,0.000161,0.000097,0.000110,0.03,-0.26,9.82,33.59,0.024501,0.033024,0.000000
489934344,0.000161,0.003292,-0.002020,0.03,-0.29,9.84,33.61,0.021306,0.033024,-0.002131
489935361,-0.003035,0.003292,-0.000955,0.02,-0.29,9.86,33.60,0.021306,0.029828,-0.001065
489936364,-0.004100,0.001162,0.000110,0.00,-0.31,9.82,33.57,0.023436,0.028763,0.000000
489937374,-0.003035,0.000097,0.001176,0.01,-0.34,9.81,33.63,0.024501,0.029828,0.001065
489938384,-0.001970,-0.002034,0.001176,-0.01,-0.30,9.78,33.63,0.026632,0.030893,0.001065
489939394,-0.003035,0.000097,0.002241,-0.02,-0.26,9.80,33.62,0.024501,0.029828,0.002131
489940412,-0.003035,0.002227,0.002241,-0.01,-0.24,9.86,33.65,0.022371,0.029828,0.002131
489941414,-0.000904,0.001162,-0.000955,0.01,-0.27,9.86,33.64,0.023436,0.031958,-0.001065
489942433,0.002291,0.002227,-0.003085,0.02,-0.30,9.79,33.63,0.022371,0.035154,-0.003196
489943434,0.001226,0.003292,-0.004151,0.01,-0.30,9.78,33.65,0.021306,0.034089,-0.004261
489944444,-0.000904,0.000097,-0.003085,0.01,-0.31,9.87,33.61,0.024501,0.031958,-0.003196
489945463,-0.001970,-0.002034,-0.000955,0.00,-0.30,9.90,33.59,0.026632,0.030893,-0.001065
489946464,-0.001970,-0.000969,0.000110,0.00,-0.28,9.86,33.58,0.025567,0.030893,0.000000
489947474,-0.001970,0.002227,0.000110,0.00,-0.24,9.83,33.60,0.022371,0.030893,0.000000
489948484,-0.001970,0.004358,-0.000955,0.01,-0.27,9.83,33.62,0.020240,0.030893,-0.001065
489949494,-0.000904,0.004358,0.000110,0.00,-0.31,9.85,33.57,0.020240,0.031958,0.000000
489950512,0.000161,0.004358,0.001176,0.01,-0.29,9.84,33.56,0.020240,0.033024,0.001065
489951514,-0.000904,0.002227,0.001176,0.03,-0.28,9.83,33.65,0.022371,0.031958,0.001065
489952534,-0.001970,0.002227,0.000110,0.03,-0.27,9.83,33.67,0.022371,0.030893,0.000000
489953534,-0.000904,0.000097,0.001176,0.03,-0.27,9.78,33.61,0.024501,0.031958,0.001065
489954544,0.000161,-0.002034,0.003306,0.02,-0.30,9.79,33.57,0.026632,0.033024,0.003196
489955561,0.000161,-0.003099,0.003306,0.00,-0.29,9.85,33.61,0.027697,0.033024,0.003196
489956564,0.000161,-0.005230,0.002241,0.02,-0.27,9.81,33.61,0.029828,0.033024,0.002131
489957574,0.000161,-0.003099,0.000110,0.03,-0.28,9.82,33.64,0.027697,0.033024,0.000000
489958609,0.000174,0.001095,-0.002020,0.01,-0.28,9.85,33.58,0.023436,0.033024,-0.002131
489959594,0.001239,0.001095,-0.000955,0.00,-0.31,9.79,33.62,0.023436,0.034089,-0.001065
489960612,-0.000892,-0.002101,0.001175,0.01,-0.29,9.78,33.61,0.026632,0.031958,0.001065
489961614,-0.000892,0.000030,-0.000955,0.02,-0.29,9.76,33.65,0.024501,0.031958,-0.001065
489962633,0.000174,0.001095,-0.002020,0.06,-0.27,9.78,33.68,0.023436,0.033024,-0.002131
489963672,0.001239,0.001095,-0.003086,0.08,-0.28,9.82,33.67,0.023436,0.034089,-0.003196
489964644,0.001239,0.000030,-0.002020,0.04,-0.29,9.80,33.65,0.024501,0.034089,-0.002131
489965663,-0.001957,0.000030,0.000110,0.01,-0.29,9.82,33.65,0.024501,0.030893,0.000000
489966664,-0.003022,-0.002101,0.001175,0.00,-0.28,9.83,33.64,0.026632,0.029828,0.001065
489967674,-0.004088,-0.004231,0.001175,0.01,-0.27,9.83,33.61,0.028763,0.028763,0.001065
489968684,-0.003022,-0.003166,0.000110,0.04,-0.26,9.82,33.63,0.027697,0.029828,0.000000
489969694,-0.000892,0.000030,-0.000955,0.05,-0.29,9.82,33.66,0.024501,0.031958,-0.001065
489970712,0.001239,0.002160,0.000110,0.04,-0.28,9.83,33.63,0.022371,0.034089,0.000000
489971724,0.000174,0.003226,0.001175,0.02,-0.27,9.82,33.61,0.021306,0.033024,0.001065
489972724,-0.000892,0.001095,0.002241,0.01,-0.31,9.83,33.63,0.023436,0.031958,0.002131
489973734,-0.000892,0.001095,0.002241,0.01,-0.30,9.83,33.59,0.023436,0.031958,0.002131
489974744,-0.000892,0.003226,0.002241,0.00,-0.27,9.85,33.59,0.021306,0.031958,0.002131
489975761,0.001239,0.004291,0.002241,0.01,-0.26,9.87,33.58,0.020240,0.034089,0.002131
489976764,0.001239,0.003226,0.000110,0.03,-0.30,9.82,33.58,0.021306,0.034089,0.000000
489977774,0.000174,0.002160,0.000110,0.01,-0.32,9.82,33.59,0.022371,0.033024,0.000000
489978784,-0.000892,0.002160,0.000110,0.02,-0.30,9.80,33.58,0.022371,0.031958,0.000000
489979794,-0.000892,0.001095,-0.000955,0.03,-0.26,9.75,33.55,0.023436,0.031958,-0.001065
489980812,-0.001957,0.000030,0.000110,0.03,-0.26,9.80,33.57,0.024501,0.030893,0.000000
489981823,-0.000892,0.000030,-0.000955,0.01,-0.30,9.85,33.66,0.024501,0.031958,-0.001065
489982824,0.001239,-0.001035,-0.003086,0.01,-0.30,9.86,33.64,0.025567,0.034089,-0.003196
489983834,0.001239,0.001095,-0.000955,0.06,-0.28,9.91,33.61,0.023436,0.034089,-0.001065
489984844,-0.000892,0.003226,0.002241,0.05,-0.26,9.84,33.62,0.021306,0.031958,0.002131
489985863,-0.001957,0.001095,0.002241,0.00,-0.28,9.75,33.64,0.023436,0.030893,0.002131
489986864,-0.001957,0.001095,0.000110,0.02,-0.30,9.80,33.61,0.023436,0.030893,0.000000
489987874,-0.000892,0.002160,0.000110,0.01,-0.30,9.84,33.61,0.022371,0.031958,0.000000
489988884,-0.000892,0.001095,0.001175,-0.01,-0.27,9.83,33.61,0.023436,0.031958,0.001065
489989894,-0.000892,0.000030,0.004371,0.02,-0.26,9.82,33.65,0.024501,0.031958,0.004261
489990912,-0.001957,-0.001035,0.004371,0.04,-0.26,9.82,33.62,0.025567,0.030893,0.004261
489991924,-0.000892,-0.002101,0.002241,0.02,-0.26,9.83,33.61,0.026632,0.031958,0.002131
489992924,0.000174,-0.002101,0.000110,0.00,-0.26,9.83,33.64,0.026632,0.033024,0.000000
489993934,0.001239,-0.002101,0.000110,-0.01,-0.30,9.86,33.63,0.026632,0.034089,0.000000
489994944,0.001239,-0.003166,-0.000955,-0.01,-0.30,9.84,33.61,0.027697,0.034089,-0.001065
489995965,0.000174,-0.003166,-0.004151,-0.01,-0.29,9.86,33.57,0.027697,0.033024,-0.004261
489996966,0.002304,0.000030,-0.004151,0.00,-0.30,9.85,33.62,0.024501,0.035154,-0.004261
489997976,0.003369,0.003226,-0.002020,0.01,-0.29,9.84,33.68,0.021306,0.036220,-0.002131
489998994,0.003369,0.002160,-0.000955,0.03,-0.32,9.88,33.65,0.022371,0.036220,-0.001065
490000002,0.001239,0.002160,0.000110,0.06,-0.33,9.88,33.61,0.022371,0.034089,0.000000
490001034,-0.000892,0.001095,0.001175,0.06,-0.30,9.86,33.62,0.023436,0.031958,0.001065
490002037,-0.000892,0.001095,0.002241,0.05,-0.27,9.86,33.61,0.023436,0.031958,0.002131
490003034,0.001239,0.001095,0.002241,0.02,-0.25,9.83,33.62,0.023436,0.034089,0.002131
490004040,0.001239,0.002160,0.002241,0.01,-0.28,9.78,33.60,0.022371,0.034089,0.002131
490005061,0.000174,0.002160,0.001175,0.01,-0.30,9.79,33.66,0.022371,0.033024,0.001065
490006076,-0.000892,0.000030,-0.000955,0.01,-0.33,9.81,33.64,0.024501,0.031958,-0.001065
490007073,-0.001957,-0.001035,-0.002020,0.02,-0.34,9.86,33.65,0.025567,0.030893,-0.002131
490008088,-0.000892,-0.001035,-0.000955,-0.02,-0.30,9.86,33.61,0.025567,0.031958,-0.001065
490009091,-0.000892,-0.001035,0.000110,-0.03,-0.30,9.82,33.62,0.025567,0.031958,0.000000
490010112,0.000174,0.000030,-0.000955,0.01,-0.30,9.82,33.62,0.024501,0.033024,-0.001065
490011123,0.001239,0.002160,-0.003086,0.02,-0.28,9.81,33.62,0.022371,0.034089,-0.003196
490012135,0.000174,0.002160,-0.000955,0.00,-0.27,9.84,33.61,0.022371,0.033024,-0.001065
490013132,-0.003022,0.002160,0.001175,0.02,-0.31,9.85,33.61,0.022371,0.029828,0.001065
490014140,-0.004088,0.003226,0.000110,0.03,-0.32,9.80,33.58,0.021306,0.028763,0.000000
490015150,-0.004088,0.004291,-0.000955,0.01,-0.30,9.79,33.59,0.020240,0.028763,-0.001065
490016165,-0.001957,0.004291,-0.002020,0.02,-0.29,9.82,33.59,0.020240,0.030893,-0.002131
490017167,-0.000892,0.003226,-0.002020,0.02,-0.26,9.84,33.65,0.021306,0.031958,-0.002131
490018174,-0.000892,0.002160,0.001175,-0.01,-0.28,9.84,33.65,0.022371,0.031958,0.001065
490019188,-0.001957,0.002160,0.003306,0.00,-0.28,9.85,33.62,0.022371,0.030893,0.003196
490020198,0.000174,0.002160,0.003306,0.01,-0.28,9.84,33.59,0.022371,0.033024,0.003196
490021216,0.001239,0.002160,0.000110,0.00,-0.30,9.83,33.60,0.022371,0.034089,0.000000
490022225,0.003369,0.000030,-0.003086,0.02,-0.30,9.85,33.60,0.024501,0.036220,-0.003196
490023224,0.004435,0.001095,-0.004151,0.04,-0.29,9.81,33.59,0.023436,0.037285,-0.004261
490024234,0.004435,0.002160,-0.002020,0.01,-0.29,9.76,33.60,0.022371,0.037285,-0.002131
490025244,0.001239,0.001095,-0.000955,-0.02,-0.27,9.77,33.61,0.023436,0.034089,-0.001065
490026263,0.000174,-0.001035,0.000110,0.02,-0.29,9.78,33.60,0.025567,0.033024,0.000000
490027264,0.000174,-0.003166,-0.000955,0.01,-0.29,9.76,33.63,0.027697,0.033024,-0.001065
490028274,0.002304,-0.002101,-0.000955,0.00,-0.28,9.79,33.65,0.026632,0.035154,-0.001065
490029284,0.002304,0.000030,-0.000955,0.04,-0.26,9.84,33.60,0.024501,0.035154,-0.001065
490030294,0.002304,0.000030,0.000110,0.04,-0.25,9.86,33.62,0.024501,0.035154,0.000000
490031312,0.002304,0.000030,-0.000955,-0.01,-0.28,9.89,33.60,0.024501,0.035154,-0.001065
490032324,0.001239,0.003226,-0.004151,-0.01,-0.27,9.88,33.60,0.021306,0.034089,-0.004261
490033324,0.001239,0.003226,-0.005216,0.01,-0.28,9.87,33.64,0.021306,0.034089,-0.005326
490034334,0.000174,0.003226,-0.003086,0.04,-0.27,9.86,33.65,0.021306,0.033024,-0.003196
490035344,0.001239,0.002160,0.000110,0.04,-0.27,9.84,33.62,0.022371,0.034089,0.000000
490036361,0.001239,-0.001035,0.001175,0.00,-0.30,9.85,33.63,0.025567,0.034089,0.001065
490037364,0.000174,-0.001035,0.002241,0.00,-0.31,9.88,33.61,0.025567,0.033024,0.002131
490038374,-0.001957,0.001095,0.002241,0.01,-0.29,9.84,33.60,0.023436,0.030893,0.002131
490039384,-0.003022,0.002160,0.002241,0.02,-0.26,9.81,33.65,0.022371,0.029828,0.002131
490040394,-0.001957,-0.001035,0.000110,0.02,-0.25,9.82,33.63,0.025567,0.030893,0.000000
490041412,-0.000892,-0.002101,-0.000955,0.00,-0.24,9.79,33.63,0.026632,0.031958,-0.001065
490042423,0.001239,-0.001035,0.000110,0.01,-0.27,9.84,33.63,0.025567,0.034089,0.000000
490043424,0.002304,0.000030,0.002241,0.01,-0.29,9.87,33.65,0.024501,0.035154,0.002131
490044434,0.002304,0.001095,0.002241,0.02,-0.29,9.81,33.61,0.023436,0.035154,0.002131
490045444,0.001239,0.002160,-0.000955,0.03,-0.28,9.78,33.64,0.022371,0.034089,-0.001065
490046463,0.001239,0.002160,-0.003086,0.02,-0.31,9.84,33.62,0.022371,0.034089,-0.003196
490047464,0.000174,0.002160,-0.000955,-0.01,-0.29,9.89,33.65,0.022371,0.033024,-0.001065
490048474,0.000174,0.000030,0.002241,0.01,-0.29,9.83,33.62,0.024501,0.033024,0.002131
490049484,0.000174,0.000030,-0.000955,0.03,-0.30,9.82,33.62,0.024501,0.033024,-0.001065
490050494,-0.001957,-0.001035,-0.003086,0.03,-0.28,9.81,33.65,0.025567,0.030893,-0.003196
490051512,-0.001957,-0.002101,-0.003086,0.03,-0.27,9.84,33.63,0.026632,0.030893,-0.003196
490052524,-0.000892,-0.001035,-0.002020,0.01,-0.28,9.89,33.63,0.025567,0.031958,-0.002131
490053524,-0.000892,0.000030,-0.003086,0.00,-0.28,9.84,33.63,0.024501,0.031958,-0.003196
490054534,-0.001957,0.001095,-0.002020,-0.01,-0.27,9.82,33.60,0.023436,0.030893,-0.002131
490055544,-0.000892,0.001095,0.000110,0.02,-0.30,9.83,33.60,0.023436,0.031958,0.000000
490056561,0.000174,0.001095,-0.002020,0.07,-0.30,9.82,33.65,0.023436,0.033024,-0.002131
490057564,0.002304,0.000030,-0.003086,0.04,-0.28,9.82,33.64,0.024501,0.035154,-0.003196
490058574,0.003369,-0.001035,-0.000955,0.04,-0.28,9.80,33.60,0.025567,0.036220,-0.001065
490059584,0.001239,-0.001035,0.002241,0.02,-0.32,9.78,33.61,0.025567,0.034089,0.002131
490060594,0.000174,0.001095,0.001175,0.02,-0.32,9.77,33.60,0.023436,0.033024,0.001065
490061620,0.001239,0.002160,-0.000955,0.02,-0.27,9.76,33.64,0.022371,0.034089,-0.001065
490062614,-0.001957,0.000030,0.002241,0.01,-0.27,9.80,33.61,0.024501,0.030893,0.002131
490063624,-0.003022,-0.001035,0.002241,0.04,-0.29,9.84,33.57,0.025567,0.029828,0.002131
490064634,-0.000892,-0.001035,0.000110,0.02,-0.28,9.84,33.59,0.025567,0.031958,0.000000
490065673,0.001239,-0.001035,-0.000955,-0.01,-0.28,9.76,33.62,0.025567,0.034089,-0.001065
490066663,0.003369,-0.001035,-0.000955,-0.01,-0.31,9.76,33.64,0.025567,0.036220,-0.001065
490067664,0.002304,-0.001035,0.000110,0.02,-0.33,9.79,33.63,0.025567,0.035154,0.000000
490068674,-0.000892,0.000030,-0.000955,0.02,-0.30,9.79,33.64,0.024501,0.031958,-0.001065
490069684,-0.001957,0.000030,-0.000955,-0.01,-0.29,9.84,33.66,0.024501,0.030893,-0.001065
490070694,-0.000892,-0.002101,-0.000955,0.00,-0.30,9.88,33.64,0.026632,0.031958,-0.001065
490071721,-0.000892,-0.001035,-0.000955,0.01,-0.28,9.84,33.65,0.025567,0.031958,-0.001065
490072714,-0.000892,0.002160,-0.002020,0.01,-0.28,9.86,33.66,0.022371,0.031958,-0.002131
490073724,0.000174,0.001095,0.000110,0.02,-0.29,9.85,33.63,0.023436,0.033024,0.000000
490074734,0.000174,0.001095,0.002241,0.01,-0.28,9.78,33.63,0.023436,0.033024,0.002131
490075744,0.000174,0.000030,0.002241,-0.01,-0.28,9.82,33.60,0.024501,0.033024,0.002131
490076761,0.000174,-0.002101,0.002241,-0.01,-0.31,9.82,33.63,0.026632,0.033024,0.002131
490077764,0.001239,-0.003166,0.001175,0.00,-0.32,9.79,33.64,0.027697,0.034089,0.001065
490078774,0.001239,-0.002101,0.002241,0.01,-0.30,9.82,33.63,0.026632,0.034089,0.002131
490079784,0.000174,0.000030,0.003306,0.02,-0.29,9.82,33.64,0.024501,0.033024,0.003196
490080794,-0.000892,0.000030,0.002241,0.06,-0.28,9.83,33.63,0.024501,0.031958,0.002131
490081820,-0.000892,0.000030,0.000110,0.03,-0.30,9.84,33.60,0.024501,0.031958,0.000000
490082814,0.001239,0.001095,-0.002020,0.00,-0.28,9.83,33.58,0.023436,0.034089,-0.002131
490083824,0.001239,0.001095,-0.002020,0.04,-0.26,9.84,33.62,0.023436,0.034089,-0.002131
490084834,0.000174,0.000030,-0.000955,0.03,-0.28,9.86,33.59,0.024501,0.033024,-0.001065
490085844,-0.000892,0.000030,0.002241,0.00,-0.27,9.86,33.66,0.024501,0.031958,0.002131
490086863,-0.001957,-0.001035,0.002241,-0.01,-0.27,9.83,33.68,0.025567,0.030893,0.002131
490087890,-0.000891,-0.001089,-0.000940,0.01,-0.28,9.89,33.68,0.025567,0.031958,-0.001065
490088874,0.000175,0.002107,-0.002006,0.02,-0.30,9.90,33.67,0.022371,0.033024,-0.002131
490089884,0.004436,0.004237,-0.002006,0.00,-0.30,9.80,33.67,0.020240,0.037285,-0.002131
490090894,0.005501,0.002107,-0.002006,-0.01,-0.28,9.83,33.62,0.022371,0.038350,-0.002131
490091921,0.003371,-0.000024,0.000125,0.02,-0.27,9.82,33.65,0.024501,0.036220,0.000000
490092914,0.001240,-0.001089,0.002256,0.03,-0.26,9.81,33.66,0.025567,0.034089,0.002131
490093924,0.001240,-0.001089,0.002256,0.04,-0.27,9.87,33.61,0.025567,0.034089,0.002131
490094934,0.001240,-0.000024,0.000125,0.04,-0.29,9.83,33.61,0.024501,0.034089,0.000000
490095944,0.001240,0.002107,-0.002006,0.03,-0.27,9.80,33.66,0.022371,0.034089,-0.002131
490096966,0.001240,0.003172,-0.002006,0.00,-0.27,9.82,33.63,0.021306,0.034089,-0.002131
490097966,0.001240,0.004237,-0.002006,-0.02,-0.29,9.84,33.63,0.020240,0.034089,-0.002131
490098978,0.001240,0.004237,-0.000940,0.00,-0.30,9.84,33.60,0.020240,0.034089,-0.001065
490099994,-0.000891,0.002107,-0.000940,0.01,-0.28,9.82,33.62,0.022371,0.031958,-0.001065
490101002,-0.003021,-0.001089,-0.000940,-0.01,-0.27,9.84,33.62,0.025567,0.029828,-0.001065
490102036,-0.003021,-0.003220,-0.000940,-0.03,-0.28,9.81,33.65,0.027697,0.029828,-0.001065
490103022,-0.000891,-0.002154,-0.000940,-0.01,-0.28,9.80,33.62,0.026632,0.031958,-0.001065
490104035,0.000175,-0.001089,0.000125,0.01,-0.25,9.79,33.61,0.025567,0.033024,0.000000
490105041,0.001240,0.001041,0.001190,0.00,-0.24,9.76,33.60,0.023436,0.034089,0.001065
490106059,0.001240,0.002107,0.000125,0.01,-0.26,9.78,33.56,0.022371,0.034089,0.000000
490107075,0.001240,0.001041,0.000125,0.00,-0.27,9.81,33.57,0.023436,0.034089,0.000000
490108073,0.001240,-0.000024,-0.000940,0.00,-0.27,9.78,33.60,0.024501,0.034089,-0.001065
490109086,0.000175,0.001041,0.000125,0.02,-0.28,9.80,33.62,0.023436,0.033024,0.000000
490110106,-0.000891,0.002107,0.003321,0.03,-0.29,9.85,33.63,0.022371,0.031958,0.003196
490111106,-0.000891,0.002107,0.003321,0.03,-0.27,9.82,33.63,0.022371,0.031958,0.003196
490112133,-0.000891,0.002107,-0.000940,0.02,-0.28,9.83,33.62,0.022371,0.031958,-0.001065
490113126,-0.001956,0.001041,-0.002006,0.02,-0.28,9.86,33.65,0.023436,0.030893,-0.002131
490114138,0.000175,0.001041,0.000125,0.03,-0.27,9.81,33.60,0.023436,0.033024,0.000000
490115139,0.001240,0.002107,0.001190,0.04,-0.27,9.79,33.61,0.022371,0.034089,0.001065
490116150,0.001240,-0.000024,-0.000940,0.02,-0.27,9.79,33.62,0.024501,0.034089,-0.001065
490117165,0.000175,-0.001089,-0.002006,0.00,-0.29,9.80,33.62,0.025567,0.033024,-0.002131
490118167,0.000175,-0.001089,-0.003071,-0.02,-0.29,9.83,33.63,0.025567,0.033024,-0.003196
490119174,0.002305,-0.000024,0.000125,-0.01,-0.26,9.85,33.62,0.024501,0.035154,0.000000
490120188,0.001240,-0.001089,0.001190,0.01,-0.28,9.79,33.62,0.025567,0.034089,0.001065
490121198,0.000175,-0.001089,0.000125,-0.02,-0.30,9.82,33.64,0.025567,0.033024,0.000000
490122224,0.003371,0.001041,-0.000940,-0.02,-0.30,9.81,33.62,0.023436,0.036220,-0.001065
490123216,0.005501,0.003172,-0.000940,-0.01,-0.31,9.77,33.59,0.021306,0.038350,-0.001065
490124224,0.005501,0.003172,0.000125,0.02,-0.30,9.78,33.60,0.021306,0.038350,0.000000
490125234,0.003371,0.001041,0.000125,0.03,-0.28,9.82,33.60,0.023436,0.036220,0.000000
490126244,-0.000891,0.002107,-0.000940,-0.01,-0.25,9.87,33.56,0.022371,0.031958,-0.001065
490127263,-0.003021,0.004237,0.000125,-0.01,-0.24,9.83,33.57,0.020240,0.029828,0.000000
490128264,-0.004086,0.004237,0.002256,-0.01,-0.27,9.78,33.59,0.020240,0.028763,0.002131
490129274,-0.003021,0.001041,0.001190,-0.02,-0.28,9.77,33.60,0.023436,0.029828,0.001065
490130284,0.000175,-0.002154,-0.000940,-0.02,-0.29,9.78,33.56,0.026632,0.033024,-0.001065
490131294,0.000175,-0.002154,-0.000940,0.02,-0.26,9.85,33.56,0.026632,0.033024,-0.001065
490132321,-0.003021,0.001041,-0.000940,0.01,-0.23,9.84,33.59,0.023436,0.029828,-0.001065
490133314,-0.001956,0.002107,-0.000940,0.00,-0.24,9.80,33.62,0.022371,0.030893,-0.001065
490134324,0.000175,0.001041,-0.000940,0.01,-0.29,9.82,33.62,0.023436,0.033024,-0.001065
490135334,0.000175,0.001041,0.001190,-0.01,-0.31,9.81,33.63,0.023436,0.033024,0.001065
490136344,0.001240,0.001041,0.000125,-0.01,-0.29,9.82,33.62,0.023436,0.034089,0.000000
490137361,0.001240,-0.001089,0.000125,0.00,-0.26,9.88,33.58,0.025567,0.034089,0.000000
490138364,0.000175,-0.002154,0.000125,0.02,-0.25,9.86,33.65,0.026632,0.033024,0.000000
490139374,-0.001956,-0.001089,0.000125,0.00,-0.28,9.81,33.66,0.025567,0.030893,0.000000
490140384,-0.000891,-0.000024,-0.000940,0.00,-0.32,9.85,33.63,0.024501,0.031958,-0.001065
490141394,0.002305,0.001041,0.000125,0.02,-0.31,9.88,33.62,0.023436,0.035154,0.000000
490142420,0.003371,0.001041,-0.000940,-0.01,-0.29,9.86,33.61,0.023436,0.036220,-0.001065
490143414,0.003371,-0.000024,-0.002006,-0.02,-0.32,9.88,33.61,0.024501,0.036220,-0.002131
490144424,0.001240,-0.001089,-0.002006,0.00,-0.32,9.84,33.63,0.025567,0.034089,-0.002131
490145434,0.001240,-0.000024,-0.002006,0.01,-0.27,9.79,33.61,0.024501,0.034089,-0.002131
490146444,0.001240,-0.000024,-0.002006,-0.03,-0.26,9.79,33.61,0.024501,0.034089,-0.002131
490147463,0.002305,-0.001089,-0.002006,-0.03,-0.25,9.82,33.63,0.025567,0.035154,-0.002131
490148464,0.001240,-0.002154,0.000125,0.01,-0.26,9.85,33.63,0.026632,0.034089,0.000000
490149474,-0.000891,-0.002154,0.001190,0.03,-0.30,9.89,33.62,0.026632,0.031958,0.001065
490150484,-0.003021,-0.001089,0.002256,0.01,-0.30,9.89,33.60,0.025567,0.029828,0.002131
490151494,-0.003021,-0.001089,0.003321,-0.01,-0.28,9.82,33.61,0.025567,0.029828,0.003196
490152521,-0.001956,-0.002154,0.002256,-0.02,-0.29,9.79,33.60,0.026632,0.030893,0.002131
490153514,0.000175,-0.002154,0.002256,-0.02,-0.30,9.84,33.59,0.026632,0.033024,0.002131
490154524,0.001240,-0.000024,0.003321,0.01,-0.28,9.83,33.62,0.024501,0.034089,0.003196
490155534,0.000175,-0.001089,0.003321,0.01,-0.28,9.84,33.61,0.025567,0.033024,0.003196
490156544,-0.000891,-0.003220,0.002256,0.00,-0.28,9.91,33.57,0.027697,0.031958,0.002131
490157561,0.000175,-0.003220,0.002256,-0.01,-0.27,9.86,33.57,0.027697,0.033024,0.002131
490158564,0.000175,-0.001089,0.000125,0.00,-0.30,9.81,33.60,0.025567,0.033024,0.000000
490159574,-0.000891,0.001041,-0.000940,-0.01,-0.34,9.82,33.60,0.023436,0.031958,-0.001065
490160584,0.000175,0.002107,-0.000940,-0.01,-0.32,9.83,33.63,0.022371,0.033024,-0.001065
490161623,0.000175,0.002107,0.000125,0.00,-0.30,9.83,33.59,0.022371,0.033024,0.000000
490162620,-0.000891,0.002107,0.001190,0.02,-0.31,9.85,33.61,0.022371,0.031958,0.001065
490163614,-0.001956,-0.000024,0.000125,0.03,-0.28,9.87,33.62,0.024501,0.030893,0.000000
490164624,-0.000891,0.001041,-0.000940,0.03,-0.24,9.79,33.61,0.023436,0.031958,-0.001065
490165634,0.000175,0.003172,-0.000940,0.02,-0.28,9.76,33.59,0.021306,0.033024,-0.001065
490166644,0.000175,0.004237,-0.002006,0.02,-0.31,9.79,33.60,0.020240,0.033024,-0.002131
490167663,-0.001956,0.002107,-0.002006,0.01,-0.32,9.84,33.64,0.022371,0.030893,-0.002131
490168675,-0.001956,-0.000024,-0.002006,0.01,-0.32,9.83,33.64,0.024501,0.030893,-0.002131
490169674,0.000175,-0.002154,-0.000940,0.03,-0.27,9.79,33.63,0.026632,0.033024,-0.001065
490170684,0.001240,-0.004285,0.000125,0.03,-0.26,9.83,33.61,0.028763,0.034089,0.000000
490171704,0.001240,-0.003220,0.001190,0.04,-0.25,9.85,33.61,0.027697,0.034089,0.001065
490172713,0.002305,0.002107,0.001190,0.04,-0.26,9.79,33.63,0.022371,0.035154,0.001065
490173714,0.003371,0.004237,0.000125,0.03,-0.28,9.82,33.60,0.020240,0.036220,0.000000
490174724,0.002305,0.005303,0.000125,0.02,-0.31,9.84,33.58,0.019175,0.035154,0.000000
490175734,0.001240,0.005303,0.001190,0.01,-0.30,9.80,33.58,0.019175,0.034089,0.001065
490176744,-0.000891,0.002107,-0.000940,0.01,-0.27,9.78,33.57,0.022371,0.031958,-0.001065
490177759,-0.000891,-0.001089,-0.003071,0.00,-0.27,9.78,33.61,0.025567,0.031958,-0.003196
490178764,-0.001956,-0.002154,-0.002006,-0.01,-0.29,9.83,33.60,0.026632,0.030893,-0.002131
490179774,-0.000891,-0.002154,0.000125,0.03,-0.29,9.88,33.62,0.026632,0.031958,0.000000
490180784,-0.000891,-0.000024,-0.000940,0.03,-0.28,9.87,33.62,0.024501,0.031958,-0.001065
490181803,-0.000891,0.001041,-0.000940,0.00,-0.28,9.85,33.63,0.023436,0.031958,-0.001065
490182813,0.000175,0.001041,-0.000940,0.01,-0.26,9.83,33.65,0.023436,0.033024,-0.001065
490183814,0.001240,-0.000024,-0.000940,0.02,-0.24,9.81,33.64,0.024501,0.034089,-0.001065
490184824,0.003371,-0.001089,-0.000940,-0.02,-0.28,9.76,33.66,0.025567,0.036220,-0.001065
490185834,0.004436,-0.003220,0.001190,-0.02,-0.29,9.78,33.63,0.027697,0.037285,0.001065
490186844,0.005501,-0.001089,0.002256,-0.01,-0.28,9.81,33.61,0.025567,0.038350,0.002131
490187862,0.004436,0.002107,0.001190,0.01,-0.30,9.82,33.62,0.022371,0.037285,0.001065
490188864,0.001240,0.002107,0.000125,0.02,-0.30,9.84,33.63,0.022371,0.034089,0.000000
490189874,-0.001956,0.001041,-0.000940,0.00,-0.29,9.87,33.63,0.023436,0.030893,-0.001065
490190884,-0.001956,0.001041,-0.000940,0.01,-0.29,9.85,33.64,0.023436,0.030893,-0.001065
490191905,-0.001956,0.002107,0.001190,0.00,-0.29,9.82,33.62,0.022371,0.030893,0.001065
490192913,-0.003021,0.002107,0.002256,-0.01,-0.29,9.81,33.61,0.022371,0.029828,0.002131
490193914,-0.003021,0.003172,0.000125,0.02,-0.27,9.82,33.62,0.021306,0.029828,0.000000
490194924,-0.001956,0.002107,-0.002006,0.02,-0.26,9.84,33.64,0.022371,0.030893,-0.002131
490195934,-0.001956,0.001041,-0.003071,0.01,-0.29,9.82,33.62,0.023436,0.030893,-0.003196
490196944,-0.000891,-0.001089,-0.000940,0.03,-0.31,9.84,33.60,0.025567,0.031958,-0.001065
490197965,0.001240,-0.002154,0.002256,0.02,-0.30,9.85,33.59,0.026632,0.034089,0.002131
490198966,0.002305,-0.001089,0.002256,0.01,-0.28,9.81,33.60,0.025567,0.035154,0.002131
490199976,0.003371,-0.001089,0.001190,0.01,-0.27,9.83,33.65,0.025567,0.036220,0.001065
490200994,0.002305,-0.000024,-0.000940,0.01,-0.30,9.85,33.60,0.024501,0.035154,-0.001065
490202005,-0.000891,0.001041,-0.002006,0.00,-0.30,9.83,33.62,0.023436,0.031958,-0.002131
490203020,-0.003021,-0.000024,-0.002006,0.01,-0.28,9.83,33.65,0.024501,0.029828,-0.002131
490204022,-0.000891,-0.000024,0.001190,0.02,-0.32,9.86,33.69,0.024501,0.031958,0.001065
490205034,0.001240,-0.001089,0.001190,0.02,-0.33,9.86,33.64,0.025567,0.034089,0.001065
490206040,0.002305,-0.003220,-0.000940,0.02,-0.28,9.82,33.60,0.027697,0.035154,-0.001065
490207061,0.003371,-0.004285,-0.002006,0.00,-0.27,9.82,33.64,0.028763,0.036220,-0.002131
490208075,0.003371,-0.004285,0.000125,-0.02,-0.28,9.84,33.64,0.028763,0.036220,0.000000
490209073,0.000175,-0.002154,0.000125,-0.02,-0.28,9.86,33.64,0.026632,0.033024,0.000000
490210095,-0.000891,-0.001089,-0.000940,-0.01,-0.29,9.79,33.64,0.025567,0.031958,-0.001065
490211090,-0.000891,-0.002154,-0.002006,0.02,-0.31,9.77,33.62,0.026632,0.031958,-0.002131
490212120,-0.000891,-0.002154,-0.000940,0.01,-0.26,9.81,33.64,0.026632,0.031958,-0.001065
490213124,-0.003021,-0.002154,0.000125,0.03,-0.24,9.81,33.64,0.026632,0.029828,0.000000
490214125,-0.004086,-0.000024,0.000125,0.05,-0.28,9.79,33.62,0.024501,0.028763,0.000000
490215136,-0.003021,0.001041,-0.000940,0.01,-0.29,9.82,33.61,0.023436,0.029828,-0.001065
490216140,-0.001956,0.002107,-0.002006,-0.02,-0.28,9.87,33.59,0.022371,0.030893,-0.002131
490217175,-0.001986,0.002072,-0.001982,-0.02,-0.31,9.86,33.61,0.022371,0.030893,-0.002131
490218164,-0.001986,0.002072,0.000149,0.01,-0.33,9.85,33.60,0.022371,0.030893,0.000000
490219167,-0.001986,0.002072,0.001214,-0.01,-0.28,9.83,33.59,0.022371,0.030893,0.001065
490220174,-0.000921,0.002072,0.001214,-0.02,-0.26,9.79,33.59,0.022371,0.031958,0.001065
490221188,0.000145,0.004202,0.000149,0.03,-0.27,9.80,33.62,0.020240,0.033024,0.000000
490222206,0.000145,0.003137,-0.000916,-0.01,-0.29,9.82,33.61,0.021306,0.033024,-0.001065
490223217,-0.000921,0.001006,0.000149,-0.02,-0.29,9.82,33.62,0.023436,0.031958,0.000000
490224216,0.000145,-0.001124,-0.000916,0.01,-0.30,9.87,33.63,0.025567,0.033024,-0.001065
490225224,0.002275,-0.000059,-0.001982,0.01,-0.28,9.85,33.66,0.024501,0.035154,-0.002131
490226234,0.002275,0.001006,-0.001982,-0.02,-0.28,9.79,33.67,0.023436,0.035154,-0.002131
490227244,0.000145,0.002072,-0.001982,-0.03,-0.29,9.83,33.64,0.022371,0.033024,-0.002131
490228262,-0.001986,0.001006,-0.001982,-0.02,-0.26,9.87,33.60,0.023436,0.030893,-0.002131
490229264,-0.000921,-0.000059,0.000149,0.00,-0.28,9.81,33.63,0.024501,0.031958,0.000000
490230274,0.000145,0.001006,0.001214,0.03,-0.29,9.73,33.59,0.023436,0.033024,0.001065
490231284,-0.000921,-0.002190,-0.000916,0.03,-0.30,9.82,33.62,0.026632,0.031958,-0.001065
490232305,-0.001986,-0.004320,-0.001982,0.04,-0.28,9.88,33.61,0.028763,0.030893,-0.002131
490233313,-0.003051,-0.001124,-0.001982,0.03,-0.27,9.80,33.60,0.025567,0.029828,-0.002131
490234314,-0.004116,0.001006,-0.003047,0.01,-0.28,9.76,33.55,0.023436,0.028763,-0.003196
490235324,-0.003051,0.002072,0.000149,0.01,-0.28,9.79,33.59,0.022371,0.029828,0.000000
490236334,-0.000921,0.001006,0.002280,-0.02,-0.30,9.80,33.61,0.023436,0.031958,0.002131
490237344,-0.000921,-0.000059,0.002280,-0.04,-0.30,9.78,33.61,0.024501,0.031958,0.002131
490238359,-0.000921,-0.002190,0.000149,-0.02,-0.31,9.81,33.63,0.026632,0.031958,0.000000
490239364,0.000145,-0.004320,-0.001982,0.02,-0.29,9.84,33.65,0.028763,0.033024,-0.002131
490240374,-0.000921,-0.006451,-0.003047,0.06,-0.26,9.87,33.62,0.030893,0.031958,-0.003196
490241384,-0.001986,-0.003255,-0.001982,0.05,-0.28,9.84,33.64,0.027697,0.030893,-0.002131
490242403,-0.004116,0.002072,-0.000916,-0.01,-0.29,9.76,33.60,0.022371,0.028763,-0.001065
490243413,-0.003051,0.001006,0.000149,-0.02,-0.29,9.79,33.59,0.023436,0.029828,0.000000
490244414,-0.000921,-0.000059,-0.000916,-0.02,-0.29,9.82,33.62,0.024501,0.031958,-0.001065
490245424,0.000145,-0.002190,-0.000916,-0.03,-0.30,9.82,33.63,0.026632,0.033024,-0.001065
490246434,0.001210,-0.002190,0.000149,-0.04,-0.32,9.83,33.62,0.026632,0.034089,0.000000
490247444,0.002275,0.001006,0.000149,0.02,-0.33,9.86,33.58,0.023436,0.035154,0.000000
490248501,0.004406,0.004202,-0.001982,0.06,-0.32,9.86,33.59,0.020240,0.037285,-0.002131
490249486,0.002275,0.004202,-0.001982,0.01,-0.29,9.83,33.60,0.020240,0.035154,-0.002131
490250474,-0.001986,0.001006,-0.001982,-0.01,-0.28,9.83,33.60,0.023436,0.030893,-0.002131
490251484,-0.003051,-0.003255,-0.001982,-0.02,-0.31,9.83,33.60,0.027697,0.029828,-0.002131
490252505,0.000145,-0.003255,-0.001982,-0.03,-0.34,9.83,33.58,0.027697,0.033024,-0.002131
490253513,0.002275,-0.001124,0.001214,0.00,-0.33,9.84,33.59,0.025567,0.035154,0.001065
490254514,0.002275,-0.000059,0.001214,0.01,-0.30,9.83,33.61,0.024501,0.035154,0.001065
490255524,0.002275,0.002072,0.001214,0.00,-0.26,9.84,33.61,0.022371,0.035154,0.001065
490256534,0.002275,0.002072,0.000149,-0.01,-0.26,9.85,33.58,0.022371,0.035154,0.000000
490257544,0.002275,0.002072,0.000149,0.00,-0.30,9.82,33.59,0.022371,0.035154,0.000000
490258559,0.000145,0.002072,0.000149,-0.02,-0.29,9.78,33.61,0.022371,0.033024,0.000000
490259564,-0.000921,-0.000059,0.001214,-0.02,-0.29,9.79,33.63,0.024501,0.031958,0.001065
490260574,0.000145,-0.001124,0.001214,0.00,-0.31,9.86,33.62,0.025567,0.033024,0.001065
490261584,-0.000921,-0.001124,0.001214,-0.01,-0.30,9.82,33.61,0.025567,0.031958,0.001065
490262602,-0.001986,-0.001124,0.001214,-0.01,-0.28,9.81,33.61,0.025567,0.030893,0.001065
490263613,-0.000921,-0.000059,0.002280,0.01,-0.25,9.87,33.60,0.024501,0.031958,0.002131
490264614,0.000145,-0.000059,0.003345,0.01,-0.26,9.84,33.59,0.024501,0.033024,0.003196
490265624,0.000145,-0.001124,0.001214,0.04,-0.27,9.86,33.61,0.025567,0.033024,0.001065
490266634,-0.000921,0.001006,0.000149,0.01,-0.30,9.86,33.60,0.023436,0.031958,0.000000
490267644,0.000145,0.002072,0.001214,-0.01,-0.31,9.83,33.62,0.022371,0.033024,0.001065
490268662,0.001210,0.001006,0.001214,0.03,-0.29,9.79,33.63,0.023436,0.034089,0.001065
490269664,0.002275,-0.001124,0.001214,0.04,-0.29,9.76,33.63,0.025567,0.035154,0.001065
490270714,0.003341,-0.002190,0.001214,0.02,-0.30,9.75,33.65,0.026632,0.036220,0.001065
490271695,0.003341,-0.001124,0.000149,0.01,-0.33,9.75,33.69,0.025567,0.036220,0.000000
490272694,0.000145,-0.001124,-0.000916,0.02,-0.31,9.76,33.72,0.025567,0.033024,-0.001065
490273713,-0.001986,-0.000059,-0.000916,0.05,-0.28,9.78,33.64,0.024501,0.030893,-0.001065
490274714,0.000145,0.001006,-0.000916,-0.01,-0.28,9.77,33.61,0.023436,0.033024,-0.001065
490275724,0.002275,0.003137,0.000149,-0.03,-0.27,9.80,33.60,0.021306,0.035154,0.000000
490276734,0.001210,0.003137,0.000149,0.01,-0.28,9.83,33.62,0.021306,0.034089,0.000000
490277744,0.000145,0.003137,0.000149,0.04,-0.31,9.81,33.62,0.021306,0.033024,0.000000
490278759,0.000145,0.001006,-0.001982,0.05,-0.30,9.80,33.61,0.023436,0.033024,-0.002131
490279764,0.002275,-0.001124,-0.001982,0.06,-0.29,9.84,33.62,0.025567,0.035154,-0.002131
490280774,0.002275,-0.002190,-0.000916,0.04,-0.31,9.89,33.64,0.026632,0.035154,-0.001065
490281792,0.003341,-0.002190,0.000149,0.00,-0.31,9.93,33.65,0.026632,0.036220,0.000000
490282794,0.002275,-0.002190,0.000149,0.00,-0.29,9.89,33.62,0.026632,0.035154,0.000000
490283813,0.001210,-0.000059,0.000149,0.01,-0.29,9.82,33.62,0.024501,0.034089,0.000000
490284814,0.001210,0.002072,0.000149,-0.01,-0.29,9.83,33.64,0.022371,0.034089,0.000000
490285824,0.000145,0.002072,0.001214,0.00,-0.31,9.81,33.65,0.022371,0.033024,0.001065
490286834,-0.000921,0.001006,-0.000916,0.00,-0.31,9.79,33.57,0.023436,0.031958,-0.001065
490287857,-0.004116,-0.000059,-0.003047,-0.01,-0.28,9.82,33.59,0.024501,0.028763,-0.003196
490288861,-0.003051,-0.001124,-0.004112,-0.01,-0.27,9.84,33.66,0.025567,0.029828,-0.004261
490289862,-0.000921,-0.002190,-0.001982,-0.02,-0.27,9.82,33.65,0.026632,0.031958,-0.002131
490290872,-0.000921,-0.001124,0.001214,0.00,-0.24,9.81,33.68,0.025567,0.031958,0.001065
490291893,-0.000921,-0.000059,0.002280,0.02,-0.26,9.84,33.68,0.024501,0.031958,0.002131
490292892,0.000145,0.001006,0.001214,0.01,-0.30,9.86,33.65,0.023436,0.033024,0.001065
490293912,0.001210,-0.000059,0.000149,-0.01,-0.29,9.82,33.62,0.024501,0.034089,0.000000
490294912,0.001210,0.001006,0.000149,0.00,-0.28,9.79,33.63,0.023436,0.034089,0.000000
490295922,0.001210,0.002072,0.000149,0.02,-0.28,9.84,33.59,0.022371,0.034089,0.000000
490296932,-0.001986,0.002072,-0.000916,0.01,-0.26,9.83,33.62,0.022371,0.030893,-0.001065
490297963,-0.003051,0.001006,-0.003047,0.03,-0.25,9.84,33.67,0.023436,0.029828,-0.003196
490298965,0.000145,-0.002190,-0.004112,0.04,-0.29,9.84,33.60,0.026632,0.033024,-0.004261
490299966,0.002275,-0.003255,-0.004112,0.03,-0.31,9.76,33.59,0.027697,0.035154,-0.004261
490300976,0.001210,-0.002190,-0.001982,0.02,-0.28,9.78,33.60,0.026632,0.034089,-0.002131
490302000,-0.000921,-0.001124,0.000149,0.01,-0.31,9.86,33.61,0.025567,0.031958,0.000000
490303002,0.000145,-0.001124,0.000149,0.03,-0.31,9.84,33.63,0.025567,0.033024,0.000000
490304020,0.000145,0.001006,0.000149,0.05,-0.28,9.82,33.61,0.023436,0.033024,0.000000
490305022,0.001210,0.001006,0.001214,0.03,-0.28,9.86,33.63,0.023436,0.034089,0.001065
490306034,0.001210,0.001006,0.002280,0.01,-0.28,9.82,33.62,0.023436,0.034089,0.002131
490307040,0.000145,-0.001124,0.001214,0.02,-0.27,9.80,33.61,0.025567,0.033024,0.001065
490308068,-0.000921,-0.001124,0.001214,0.02,-0.28,9.82,33.62,0.025567,0.031958,0.001065
490309072,-0.000921,-0.001124,0.001214,0.02,-0.28,9.84,33.62,0.025567,0.031958,0.001065
490310074,-0.000921,-0.002190,0.001214,0.01,-0.29,9.86,33.59,0.026632,0.031958,0.001065
490311088,-0.001986,-0.001124,0.001214,0.01,-0.28,9.87,33.61,0.025567,0.030893,0.001065
490312105,-0.001986,0.001006,0.002280,0.00,-0.24,9.83,33.61,0.023436,0.030893,0.002131
490313114,-0.000921,0.001006,0.001214,-0.02,-0.26,9.79,33.58,0.023436,0.031958,0.001065
490314124,0.001210,-0.000059,0.000149,0.00,-0.28,9.86,33.58,0.024501,0.034089,0.000000
490315122,0.003341,-0.001124,-0.000916,0.03,-0.27,9.85,33.59,0.025567,0.036220,-0.001065
490316135,0.001210,-0.002190,0.000149,0.04,-0.28,9.79,33.63,0.026632,0.034089,0.000000
490317139,0.000145,-0.001124,0.001214,0.03,-0.31,9.83,33.64,0.025567,0.033024,0.001065
490318162,0.000145,-0.002190,0.000149,0.02,-0.29,9.85,33.63,0.026632,0.033024,0.000000
490319164,0.002275,-0.003255,-0.000916,0.02,-0.28,9.85,33.60,0.027697,0.035154,-0.001065
490320167,0.004406,-0.000059,-0.001982,0.02,-0.31,9.86,33.62,0.024501,0.037285,-0.002131
490321174,0.004406,0.002072,0.000149,0.01,-0.28,9.82,33.62,0.022371,0.037285,0.000000
490322197,0.002275,-0.000059,0.001214,-0.01,-0.25,9.81,33.62,0.024501,0.035154,0.001065
490323198,-0.000921,-0.001124,0.000149,-0.01,-0.29,9.79,33.60,0.025567,0.031958,0.000000
490324217,-0.000921,0.002072,-0.000916,0.01,-0.31,9.81,33.56,0.022371,0.031958,-0.001065
490325216,0.000145,0.004202,-0.000916,0.01,-0.29,9.81,33.60,0.020240,0.033024,-0.001065
490326224,0.001210,0.003137,0.000149,-0.01,-0.28,9.75,33.61,0.021306,0.034089,0.000000
490327234,0.001210,0.002072,0.002280,0.02,-0.27,9.80,33.61,0.022371,0.034089,0.002131
490328257,-0.000921,0.002072,0.003345,0.05,-0.28,9.85,33.62,0.022371,0.031958,0.003196
490329261,-0.000921,-0.000059,0.002280,-0.01,-0.28,9.81,33.60,0.024501,0.031958,0.002131
490330262,0.002275,-0.000059,0.001214,-0.05,-0.29,9.80,33.58,0.024501,0.035154,0.001065
490331272,0.004406,0.002072,0.001214,0.00,-0.31,9.82,33.58,0.022371,0.037285,0.001065
490332294,0.002275,0.001006,0.002280,0.04,-0.27,9.77,33.60,0.023436,0.035154,0.002131
490333292,0.001210,-0.000059,0.002280,0.04,-0.29,9.80,33.59,0.024501,0.034089,0.002131
490334312,0.002275,-0.000059,0.002280,-0.01,-0.29,9.88,33.63,0.024501,0.035154,0.002131
490335312,0.001210,-0.000059,0.001214,-0.02,-0.29,9.83,33.62,0.024501,0.034089,0.001065
490336322,-0.000921,-0.001124,0.001214,-0.01,-0.29,9.78,33.61,0.025567,0.031958,0.001065
490337332,-0.000921,-0.002190,0.002280,0.00,-0.28,9.83,33.61,0.026632,0.031958,0.002131
490338358,0.000145,-0.003255,0.001214,0.02,-0.32,9.85,33.57,0.027697,0.033024,0.001065
490339359,0.002275,-0.002190,-0.000916,0.04,-0.28,9.82,33.58,0.026632,0.035154,-0.001065
490340364,0.004406,0.001006,-0.000916,0.02,-0.24,9.81,33.62,0.023436,0.037285,-0.001065
490341374,0.005471,0.002072,0.000149,-0.01,-0.25,9.79,33.62,0.022371,0.038350,0.000000
490342393,0.001210,0.001006,0.000149,-0.01,-0.27,9.82,33.61,0.023436,0.034089,0.000000
490343394,-0.003051,-0.002190,0.000149,0.02,-0.29,9.86,33.62,0.026632,0.029828,0.000000
490344413,-0.004116,-0.002190,0.000149,0.03,-0.30,9.87,33.62,0.026632,0.028763,0.000000
490345414,-0.000921,-0.001124,0.001214,0.04,-0.31,9.86,33.64,0.025567,0.031958,0.001065
490346448,0.002247,-0.000058,0.002275,0.04,-0.32,9.88,33.62,0.024501,0.035154,0.002131
490347434,0.003312,-0.000058,0.002275,-0.01,-0.33,9.85,33.59,0.024501,0.036220,0.002131
