time_us,gyro_x_rad_s,gyro_y_rad_s,gyro_z_rad_s,acc_x_m_s2,acc_y_m_s2,acc_z_m_s2,temperature_c,gyro_sensor_uncorrected_x_rad_s,gyro_sensor_uncorrected_y_rad_s,gyro_sensor_uncorrected_z_rad_s
309309530,-0.002132,-0.002305,0.000210,0.04,-0.29,9.84,33.93,0.026632,0.030893,0.000000
309310326,-0.003197,-0.000174,0.002341,0.03,-0.33,9.82,33.93,0.024501,0.029828,0.002131
309311248,-0.003197,0.000891,0.002341,0.02,-0.32,9.82,33.95,0.023436,0.029828,0.002131
309312252,-0.000001,0.001956,-0.000855,0.02,-0.30,9.83,33.95,0.022371,0.033024,-0.001065
309313239,0.002129,0.001956,-0.004051,0.05,-0.33,9.81,33.94,0.022371,0.035154,-0.004261
309314246,0.001064,0.001956,-0.001921,0.03,-0.31,9.76,33.93,0.022371,0.034089,-0.002131
309315254,-0.001067,0.003022,0.000210,0.01,-0.30,9.76,33.92,0.021306,0.031958,0.000000
309316273,-0.001067,0.003022,-0.000855,0.01,-0.33,9.80,33.94,0.021306,0.031958,-0.001065
309317287,-0.000001,0.000891,-0.002986,0.00,-0.33,9.82,33.93,0.023436,0.033024,-0.003196
309318242,-0.000001,-0.001239,-0.002986,0.03,-0.32,9.79,33.93,0.025567,0.033024,-0.003196
309319246,-0.000001,-0.000174,-0.001921,0.04,-0.34,9.79,33.96,0.024501,0.033024,-0.002131
309320254,-0.001067,0.003022,0.000210,0.04,-0.33,9.78,33.95,0.021306,0.031958,0.000000
309321272,-0.000001,0.003022,0.001275,0.01,-0.29,9.79,33.94,0.021306,0.033024,0.001065
309322290,-0.000001,0.001956,0.000210,0.02,-0.31,9.84,33.89,0.022371,0.033024,0.000000
309323246,-0.001067,0.000891,0.000210,0.04,-0.35,9.86,33.95,0.023436,0.031958,0.000000
309324245,-0.000001,-0.001239,0.000210,0.03,-0.33,9.88,33.94,0.025567,0.033024,0.000000
309325253,0.001064,-0.001239,0.002341,0.00,-0.27,9.83,33.95,0.025567,0.034089,0.002131
309326258,-0.000001,0.000891,0.002341,-0.01,-0.25,9.76,33.96,0.023436,0.033024,0.002131
309327275,-0.000001,0.001956,0.002341,0.02,-0.25,9.82,33.98,0.022371,0.033024,0.002131
309328275,0.002129,0.000891,0.001275,0.05,-0.26,9.83,33.98,0.023436,0.035154,0.001065
309329244,0.002129,-0.000174,0.001275,0.01,-0.28,9.80,33.95,0.024501,0.035154,0.001065
309330292,0.002129,-0.000174,0.001275,-0.03,-0.28,9.82,33.93,0.024501,0.035154,0.001065
309331257,0.002129,0.000891,0.000210,-0.01,-0.29,9.80,33.93,0.023436,0.035154,0.000000
309332273,0.002129,0.000891,-0.002986,0.03,-0.32,9.78,33.92,0.023436,0.035154,-0.003196
309333271,0.001064,0.000891,-0.002986,0.04,-0.33,9.76,33.92,0.023436,0.034089,-0.003196
309334280,-0.001067,-0.000174,-0.001921,0.03,-0.33,9.79,33.95,0.024501,0.031958,-0.002131
309335244,-0.001067,-0.000174,-0.001921,0.03,-0.33,9.79,33.95,0.024501,0.031958,-0.002131
309336245,0.001064,-0.000174,0.000210,0.04,-0.29,9.81,33.98,0.024501,0.034089,0.000000
309337255,0.002129,0.001956,-0.000855,0.04,-0.30,9.82,33.94,0.022371,0.035154,-0.001065
309338292,0.003219,0.001920,-0.001916,0.04,-0.28,9.85,33.95,0.022371,0.036220,-0.002131
309339275,0.004284,-0.001276,-0.002981,0.03,-0.28,9.86,33.97,0.025567,0.037285,-0.003196
309340285,0.003219,-0.003406,-0.001916,0.00,-0.29,9.86,33.95,0.027697,0.036220,-0.002131
309341303,0.001088,-0.002341,-0.001916,0.00,-0.29,9.86,33.95,0.026632,0.034089,-0.002131
309342317,-0.002108,-0.000210,-0.000850,0.06,-0.31,9.80,33.96,0.024501,0.030893,-0.001065
309343315,-0.003173,0.002986,0.000215,0.06,-0.34,9.75,33.94,0.021306,0.029828,0.000000
309344325,-0.001042,0.002986,0.000215,0.03,-0.31,9.79,33.93,0.021306,0.031958,0.000000
309345335,0.000023,0.001920,-0.001916,0.02,-0.31,9.79,33.97,0.022371,0.033024,-0.002131
309346352,0.000023,-0.001276,-0.002981,0.02,-0.31,9.78,33.97,0.025567,0.033024,-0.003196
309347355,0.001088,-0.005537,-0.000850,0.04,-0.29,9.78,33.95,0.029828,0.034089,-0.001065
309348365,0.000023,-0.005537,0.000215,0.07,-0.29,9.78,33.93,0.029828,0.033024,0.000000
309349375,-0.001042,-0.003406,-0.000850,0.05,-0.30,9.81,33.96,0.027697,0.031958,-0.001065
309350385,-0.001042,-0.000210,-0.001916,0.00,-0.35,9.78,33.95,0.024501,0.031958,-0.002131
309351403,0.001088,0.002986,-0.002981,0.02,-0.36,9.78,33.98,0.021306,0.034089,-0.003196
309352413,0.001088,0.004051,-0.001916,0.02,-0.32,9.82,33.93,0.020240,0.034089,-0.002131
309353415,0.001088,0.001920,-0.000850,-0.01,-0.32,9.81,33.95,0.022371,0.034089,-0.001065
309354425,0.002153,0.001920,0.000215,0.02,-0.31,9.81,33.98,0.022371,0.035154,0.000000
309355435,0.003219,0.001920,0.001280,0.03,-0.33,9.77,33.95,0.022371,0.036220,0.001065
309356454,0.001088,0.000855,0.002345,0.02,-0.34,9.77,33.93,0.023436,0.034089,0.002131
309357455,0.000023,-0.001276,0.001280,0.02,-0.33,9.82,33.97,0.025567,0.033024,0.001065
309358465,-0.001042,-0.002341,0.001280,0.00,-0.31,9.83,33.96,0.026632,0.031958,0.001065
309359475,-0.001042,-0.003406,0.002345,-0.01,-0.32,9.83,33.95,0.027697,0.031958,0.002131
309360485,-0.001042,-0.004471,0.002345,0.01,-0.35,9.82,33.96,0.028763,0.031958,0.002131
309361503,0.000023,-0.006602,0.001280,0.01,-0.34,9.85,33.99,0.030893,0.033024,0.001065
309362517,0.001088,-0.005537,0.001280,0.00,-0.32,9.85,34.00,0.029828,0.034089,0.001065
309363515,0.000023,-0.000210,0.003411,0.02,-0.31,9.81,33.97,0.024501,0.033024,0.003196
309364525,-0.001042,0.004051,0.003411,0.01,-0.32,9.82,33.98,0.020240,0.031958,0.003196
309365535,-0.002108,0.004051,0.002345,0.06,-0.31,9.81,33.95,0.020240,0.030893,0.002131
309366552,-0.002108,0.001920,0.001280,0.05,-0.30,9.79,33.98,0.022371,0.030893,0.001065
309367555,-0.003173,-0.001276,-0.000850,0.00,-0.29,9.83,33.94,0.025567,0.029828,-0.001065
309368565,-0.002108,-0.002341,-0.000850,0.01,-0.29,9.80,33.94,0.026632,0.030893,-0.001065
309369575,0.000023,-0.003406,-0.000850,0.03,-0.29,9.77,33.93,0.027697,0.033024,-0.001065
309370585,0.002153,-0.000210,-0.001916,0.00,-0.30,9.85,33.94,0.024501,0.035154,-0.002131
309371610,0.001088,-0.000210,-0.002981,0.00,-0.33,9.86,33.98,0.024501,0.034089,-0.003196
309372605,0.001088,-0.000210,-0.004046,0.05,-0.34,9.86,33.95,0.024501,0.034089,-0.004261
309373615,0.000023,0.000855,-0.002981,0.08,-0.31,9.85,33.93,0.023436,0.033024,-0.003196
309374625,-0.001042,0.001920,0.000215,0.03,-0.29,9.79,33.93,0.022371,0.031958,0.000000
309375635,-0.001042,0.000855,0.002345,0.01,-0.30,9.81,33.98,0.023436,0.031958,0.002131
309376654,-0.001042,0.000855,0.002345,0.02,-0.32,9.82,33.95,0.023436,0.031958,0.002131
309377655,0.000023,-0.000210,0.000215,0.02,-0.31,9.84,33.94,0.024501,0.033024,0.000000
309378665,0.001088,-0.001276,0.000215,0.00,-0.28,9.84,33.89,0.025567,0.034089,0.000000
309379675,0.001088,-0.000210,-0.000850,0.01,-0.28,9.79,33.95,0.024501,0.034089,-0.001065
309380685,0.000023,0.000855,0.000215,0.02,-0.31,9.81,33.95,0.023436,0.033024,0.000000
309381714,0.000023,-0.000210,0.003411,0.02,-0.28,9.81,33.91,0.024501,0.033024,0.003196
309382705,-0.001042,-0.001276,0.002345,0.01,-0.27,9.83,33.90,0.025567,0.031958,0.002131
309383715,-0.002108,-0.002341,0.001280,0.03,-0.32,9.88,33.91,0.026632,0.030893,0.001065
309384725,0.000023,-0.000210,-0.001916,0.03,-0.32,9.84,33.93,0.024501,0.033024,-0.002131
309385735,-0.001042,-0.000210,-0.005112,-0.02,-0.31,9.80,33.92,0.024501,0.031958,-0.005326
309386752,-0.003173,0.000855,-0.004046,-0.02,-0.33,9.85,33.94,0.023436,0.029828,-0.004261
309387755,-0.003173,0.000855,-0.001916,0.01,-0.29,9.85,33.91,0.023436,0.029828,-0.002131
309388765,-0.002108,-0.000210,0.000215,0.02,-0.30,9.81,33.92,0.024501,0.030893,0.000000
309389775,-0.002108,-0.002341,0.002345,0.02,-0.31,9.79,33.91,0.026632,0.030893,0.002131
309390785,-0.004238,-0.003406,0.002345,0.03,-0.30,9.79,33.95,0.027697,0.028763,0.002131
309391810,-0.004238,-0.002341,0.000215,0.05,-0.30,9.78,33.93,0.026632,0.028763,0.000000
309392805,-0.001042,-0.000210,-0.001916,0.03,-0.28,9.78,33.92,0.024501,0.031958,-0.002131
309393815,0.000023,0.001920,-0.002981,0.03,-0.30,9.81,33.96,0.022371,0.033024,-0.003196
309394825,0.001088,0.001920,-0.001916,0.04,-0.30,9.82,33.93,0.022371,0.034089,-0.002131
309395835,0.001088,0.001920,-0.000850,0.02,-0.30,9.82,33.97,0.022371,0.034089,-0.001065
309396854,-0.001042,0.001920,0.000215,0.01,-0.29,9.78,33.94,0.022371,0.031958,0.000000
309397855,-0.001042,0.000855,-0.000850,0.03,-0.28,9.78,33.92,0.023436,0.031958,-0.001065
309398865,0.000023,-0.002341,-0.000850,0.03,-0.30,9.81,33.89,0.026632,0.033024,-0.001065
309399875,0.002153,-0.003406,-0.000850,0.05,-0.33,9.82,33.89,0.027697,0.035154,-0.001065
309400885,0.001088,-0.002341,-0.000850,0.04,-0.32,9.81,33.89,0.026632,0.034089,-0.001065
309401914,0.000023,-0.002341,-0.000850,0.03,-0.30,9.85,33.91,0.026632,0.033024,-0.001065
309402905,0.000023,-0.002341,0.001280,0.04,-0.32,9.89,33.94,0.026632,0.033024,0.001065
309403915,0.001088,-0.001276,0.001280,0.03,-0.34,9.81,33.94,0.025567,0.034089,0.001065
309404925,0.001088,-0.000210,0.000215,0.01,-0.33,9.78,33.96,0.024501,0.034089,0.000000
309405935,0.000023,-0.000210,0.001280,0.03,-0.32,9.82,33.93,0.024501,0.033024,0.001065
309406952,-0.001042,-0.002341,0.000215,0.04,-0.32,9.83,33.94,0.026632,0.031958,0.000000
309407957,-0.003173,-0.002341,-0.001916,0.03,-0.31,9.80,33.96,0.026632,0.029828,-0.002131
309408966,-0.002108,-0.000210,-0.001916,0.02,-0.28,9.83,33.95,0.024501,0.030893,-0.002131
309409981,-0.001042,0.001920,-0.000850,0.02,-0.28,9.86,33.95,0.022371,0.031958,-0.001065
309410995,0.000023,0.000855,-0.000850,0.02,-0.31,9.88,33.93,0.023436,0.033024,-0.001065
309412017,-0.001042,0.000855,0.000215,0.04,-0.31,9.83,33.96,0.023436,0.031958,0.000000
309413012,-0.001042,-0.001276,0.001280,0.03,-0.30,9.80,33.94,0.025567,0.031958,0.001065
309414022,-0.001042,-0.003406,0.002345,0.01,-0.28,9.82,33.93,0.027697,0.031958,0.002131
309415035,-0.001042,-0.005537,0.002345,-0.02,-0.30,9.82,33.90,0.029828,0.031958,0.002131
309416044,0.001088,-0.004471,0.001280,-0.01,-0.32,9.84,33.92,0.028763,0.034089,0.001065
309417068,0.003219,-0.002341,0.000215,0.02,-0.33,9.88,33.96,0.026632,0.036220,0.000000
309418070,0.003219,-0.001276,0.000215,0.04,-0.29,9.84,33.95,0.025567,0.036220,0.000000
309419075,0.000023,-0.001276,0.003411,0.06,-0.29,9.84,33.93,0.025567,0.033024,0.003196
309420087,-0.002108,-0.003406,0.003411,0.02,-0.31,9.88,33.94,0.027697,0.030893,0.003196
309421089,-0.001042,-0.003406,0.000215,0.02,-0.29,9.84,33.95,0.027697,0.031958,0.000000
309422121,0.001088,-0.002341,-0.002981,0.03,-0.30,9.81,33.96,0.026632,0.034089,-0.003196
309423115,0.001088,-0.001276,-0.001916,0.01,-0.31,9.81,33.95,0.025567,0.034089,-0.002131
309424125,0.001088,-0.000210,0.000215,0.01,-0.29,9.81,33.95,0.024501,0.034089,0.000000
309425139,0.002153,-0.000210,0.000215,0.01,-0.29,9.80,33.96,0.024501,0.035154,0.000000
309426180,0.002153,-0.000210,0.000215,0.02,-0.31,9.79,33.99,0.024501,0.035154,0.000000
309427163,0.000023,0.000855,-0.000850,0.02,-0.31,9.77,34.01,0.023436,0.033024,-0.001065
309428158,0.000023,0.001920,-0.001916,0.02,-0.32,9.79,33.97,0.022371,0.033024,-0.002131
309429168,0.001088,0.002986,-0.002981,0.02,-0.34,9.77,33.95,0.021306,0.034089,-0.003196
309430175,0.002153,0.004051,-0.000850,0.00,-0.32,9.74,33.93,0.020240,0.035154,-0.001065
309431189,0.001088,0.004051,0.001280,-0.02,-0.28,9.73,33.94,0.020240,0.034089,0.001065
309432215,-0.001042,0.000855,0.001280,0.01,-0.27,9.78,33.93,0.023436,0.031958,0.001065
309433224,-0.002108,-0.003406,0.000215,0.01,-0.28,9.84,33.96,0.027697,0.030893,0.000000
309434217,0.000023,-0.002341,0.000215,0.01,-0.30,9.83,33.98,0.026632,0.033024,0.000000
309435225,-0.001042,-0.000210,0.000215,0.02,-0.31,9.80,33.95,0.024501,0.031958,0.000000
309436235,-0.001042,-0.000210,0.000215,0.01,-0.32,9.82,33.95,0.024501,0.031958,0.000000
309437254,0.001088,-0.000210,0.002345,0.03,-0.29,9.81,33.96,0.024501,0.034089,0.002131
309438255,0.001088,0.000855,0.002345,0.01,-0.28,9.79,33.95,0.023436,0.034089,0.002131
309439265,0.000023,0.000855,0.001280,0.00,-0.31,9.79,33.95,0.023436,0.033024,0.001065
309440275,0.001088,-0.001276,-0.000850,0.01,-0.30,9.77,33.98,0.025567,0.034089,-0.001065
309441285,0.001088,-0.001276,-0.001916,0.00,-0.31,9.76,33.97,0.025567,0.034089,-0.002131
309442314,0.000023,0.002986,-0.002981,0.01,-0.33,9.76,33.98,0.021306,0.033024,-0.003196
309443305,0.000023,0.005116,-0.001916,0.00,-0.29,9.76,33.94,0.019175,0.033024,-0.002131
309444315,0.000023,0.001920,0.000215,0.02,-0.26,9.80,33.94,0.022371,0.033024,0.000000
309445325,0.001088,-0.002341,0.000215,0.04,-0.30,9.86,33.96,0.026632,0.034089,0.000000
309446335,-0.001042,-0.002341,0.001280,0.04,-0.28,9.85,33.95,0.026632,0.031958,0.001065
309447352,-0.003173,-0.000210,0.001280,0.05,-0.30,9.82,33.97,0.024501,0.029828,0.001065
309448355,-0.004238,0.000855,0.000215,0.05,-0.34,9.83,33.96,0.023436,0.028763,0.000000
309449365,-0.003173,-0.001276,-0.001916,0.07,-0.36,9.79,33.95,0.025567,0.029828,-0.002131
309450375,-0.001042,-0.001276,-0.000850,0.06,-0.36,9.81,33.95,0.025567,0.031958,-0.001065
309451385,-0.001042,0.000855,0.001280,0.01,-0.33,9.83,33.95,0.023436,0.031958,0.001065
309452410,0.000023,0.000855,0.001280,0.03,-0.31,9.82,33.95,0.023436,0.033024,0.001065
309453405,0.001088,0.000855,0.002345,0.05,-0.29,9.84,33.98,0.023436,0.034089,0.002131
309454415,0.001088,-0.000210,0.003411,0.03,-0.30,9.85,33.92,0.024501,0.034089,0.003196
309455425,0.002153,-0.001276,0.003411,0.02,-0.32,9.83,33.94,0.025567,0.035154,0.003196
309456435,0.003219,-0.002341,0.003411,0.02,-0.31,9.78,33.95,0.026632,0.036220,0.003196
309457454,0.003219,-0.001276,0.003411,-0.01,-0.29,9.77,33.92,0.025567,0.036220,0.003196
309458455,0.003219,0.002986,0.000215,-0.01,-0.29,9.82,33.93,0.021306,0.036220,0.000000
309459465,0.002153,0.005116,-0.001916,0.01,-0.30,9.85,33.96,0.019175,0.035154,-0.002131
309460475,-0.002108,0.004051,-0.001916,0.03,-0.32,9.83,33.95,0.020240,0.030893,-0.002131
309461485,-0.003173,0.001920,-0.000850,0.05,-0.31,9.86,33.95,0.022371,0.029828,-0.001065
309462514,0.000023,0.000855,0.001280,0.04,-0.30,9.87,33.94,0.023436,0.033024,0.001065
309463505,0.002153,0.000855,0.002345,0.01,-0.31,9.82,33.91,0.023436,0.035154,0.002131
309464515,0.001088,0.000855,0.000215,0.01,-0.30,9.83,33.93,0.023436,0.034089,0.000000
309465525,-0.001042,0.001920,-0.001916,-0.02,-0.32,9.80,33.92,0.022371,0.031958,-0.002131
309466535,-0.002108,0.001920,-0.002981,-0.01,-0.34,9.75,33.95,0.022371,0.030893,-0.003196
309467576,-0.001028,0.003020,-0.001913,0.02,-0.33,9.81,33.97,0.021306,0.031958,-0.002131
309468555,0.001102,0.003020,0.000218,0.02,-0.32,9.90,33.94,0.021306,0.034089,0.000000
309469565,0.001102,0.001955,0.002349,0.01,-0.32,9.87,33.92,0.022371,0.034089,0.002131
309470575,-0.001028,0.000889,0.002349,0.00,-0.30,9.81,33.94,0.023436,0.031958,0.002131
309471585,-0.004224,-0.000176,0.001283,0.00,-0.28,9.80,33.93,0.024501,0.028763,0.001065
309472610,-0.004224,0.000889,-0.000847,0.04,-0.32,9.86,33.95,0.023436,0.028763,-0.001065
309473605,-0.001028,0.003020,-0.001913,0.04,-0.34,9.88,33.93,0.021306,0.031958,-0.002131
309474615,0.000037,0.000889,-0.000847,0.01,-0.31,9.81,33.90,0.023436,0.033024,-0.001065
309475625,0.000037,-0.000176,0.000218,0.00,-0.28,9.79,33.92,0.024501,0.033024,0.000000
309476635,0.000037,0.000889,0.001283,-0.01,-0.26,9.81,33.91,0.023436,0.033024,0.001065
309477654,-0.001028,0.000889,0.001283,0.02,-0.28,9.78,33.93,0.023436,0.031958,0.001065
309478655,-0.001028,-0.000176,0.002349,0.03,-0.30,9.78,33.93,0.024501,0.031958,0.002131
309479665,0.000037,-0.002307,0.002349,0.02,-0.29,9.82,33.96,0.026632,0.033024,0.002131
309480675,0.001102,-0.003372,0.001283,0.02,-0.29,9.82,33.98,0.027697,0.034089,0.001065
309481695,0.002168,-0.001241,-0.000847,0.03,-0.31,9.82,33.96,0.025567,0.035154,-0.001065
309482704,0.003233,-0.000176,-0.000847,0.05,-0.32,9.86,33.98,0.024501,0.036220,-0.001065
309483705,0.003233,-0.000176,0.000218,0.05,-0.32,9.86,33.94,0.024501,0.036220,0.000000
309484715,0.005363,0.000889,0.000218,0.03,-0.34,9.87,33.92,0.023436,0.038350,0.000000
309485725,0.005363,0.000889,0.002349,0.03,-0.36,9.86,33.94,0.023436,0.038350,0.002131
309486735,0.001102,0.001955,0.003414,0.02,-0.35,9.80,33.95,0.022371,0.034089,0.003196
309487751,0.000037,0.003020,0.001283,0.00,-0.32,9.77,33.92,0.021306,0.033024,0.001065
309488755,0.002168,0.000889,0.000218,0.03,-0.31,9.77,33.91,0.023436,0.035154,0.000000
309489765,0.004298,-0.001241,-0.000847,0.03,-0.30,9.84,33.94,0.025567,0.037285,-0.001065
309490775,0.003233,-0.003372,-0.000847,0.03,-0.29,9.86,33.93,0.027697,0.036220,-0.001065
309491794,0.000037,-0.005502,-0.000847,0.04,-0.32,9.82,33.96,0.029828,0.033024,-0.001065
309492804,-0.001028,-0.003372,0.000218,0.04,-0.30,9.81,33.91,0.027697,0.031958,0.000000
309493805,-0.001028,0.000889,0.000218,0.02,-0.28,9.82,33.89,0.023436,0.031958,0.000000
309494815,0.002168,0.003020,0.000218,0.01,-0.29,9.80,33.90,0.021306,0.035154,0.000000
309495825,0.002168,0.004085,0.000218,0.01,-0.28,9.82,33.93,0.020240,0.035154,0.000000
309496835,0.000037,0.003020,0.000218,0.00,-0.27,9.85,33.96,0.021306,0.033024,0.000000
309497853,-0.001028,-0.000176,0.001283,-0.02,-0.28,9.87,33.95,0.024501,0.031958,0.001065
309498855,-0.001028,-0.000176,0.001283,0.02,-0.31,9.83,33.93,0.024501,0.031958,0.001065
309499865,0.001102,-0.000176,0.001283,0.05,-0.34,9.84,33.95,0.024501,0.034089,0.001065
309500875,0.002168,0.000889,0.001283,0.04,-0.33,9.86,33.96,0.023436,0.035154,0.001065
309501895,0.003233,-0.000176,0.001283,0.04,-0.31,9.81,33.92,0.024501,0.036220,0.001065
309502904,0.004298,-0.000176,0.000218,0.04,-0.32,9.80,33.93,0.024501,0.037285,0.000000
309503905,0.002168,-0.000176,-0.000847,0.05,-0.30,9.85,33.94,0.024501,0.035154,-0.001065
309504915,0.001102,0.001955,0.000218,0.03,-0.29,9.86,33.93,0.022371,0.034089,0.000000
309505925,0.000037,0.003020,0.000218,0.01,-0.32,9.81,33.94,0.021306,0.033024,0.000000
309506935,0.001102,0.003020,0.000218,0.03,-0.32,9.79,33.97,0.021306,0.034089,0.000000
309507952,0.001102,0.000889,-0.001913,0.05,-0.31,9.79,33.96,0.023436,0.034089,-0.002131
309508956,0.001102,-0.000176,-0.000847,0.04,-0.33,9.80,33.92,0.024501,0.034089,-0.001065
309509968,0.000037,-0.000176,0.000218,0.03,-0.35,9.83,33.97,0.024501,0.033024,0.000000
309510976,-0.001028,0.000889,0.001283,0.02,-0.35,9.83,34.01,0.023436,0.031958,0.001065
309512002,-0.002093,0.003020,0.001283,0.02,-0.34,9.78,33.98,0.021306,0.030893,0.001065
309513010,-0.001028,0.001955,0.001283,0.04,-0.32,9.78,33.96,0.022371,0.031958,0.001065
309514011,0.000037,-0.001241,0.001283,0.04,-0.31,9.82,33.93,0.025567,0.033024,0.001065
309515030,0.000037,-0.001241,-0.000847,0.01,-0.33,9.83,33.93,0.025567,0.033024,-0.001065
309516034,-0.002093,-0.001241,-0.001913,-0.01,-0.32,9.83,33.96,0.025567,0.030893,-0.002131
309517041,-0.005289,-0.002307,-0.000847,0.01,-0.31,9.83,33.94,0.026632,0.027697,-0.001065
309518067,-0.003159,-0.001241,0.000218,0.03,-0.32,9.82,33.96,0.025567,0.029828,0.000000
309519069,0.000037,0.000889,0.000218,0.03,-0.28,9.75,33.95,0.023436,0.033024,0.000000
309520075,0.000037,0.000889,0.000218,0.05,-0.26,9.75,33.97,0.023436,0.033024,0.000000
309521088,0.001102,0.000889,0.000218,0.05,-0.29,9.80,33.92,0.023436,0.034089,0.000000
309522107,0.002168,0.000889,0.001283,0.02,-0.30,9.82,33.94,0.023436,0.035154,0.001065
309523115,0.002168,-0.001241,0.000218,0.03,-0.30,9.84,33.93,0.025567,0.035154,0.000000
309524115,0.002168,-0.002307,0.000218,0.04,-0.30,9.82,33.91,0.026632,0.035154,0.000000
309525126,0.002168,-0.001241,0.001283,0.02,-0.32,9.82,33.92,0.025567,0.035154,0.001065
309526137,0.000037,0.000889,0.000218,0.03,-0.30,9.83,33.92,0.023436,0.033024,0.000000
309527149,-0.001028,-0.000176,-0.000847,0.05,-0.30,9.83,33.94,0.024501,0.031958,-0.001065
309528155,-0.002093,-0.002307,-0.000847,0.02,-0.33,9.77,33.93,0.026632,0.030893,-0.001065
309529167,-0.002093,-0.002307,0.001283,0.00,-0.32,9.76,33.93,0.026632,0.030893,0.001065
309530169,-0.001028,-0.003372,0.001283,0.01,-0.30,9.76,33.88,0.027697,0.031958,0.001065
309531175,0.000037,-0.002307,0.000218,0.01,-0.31,9.78,33.86,0.026632,0.033024,0.000000
309532198,0.000037,-0.002307,-0.000847,0.02,-0.33,9.79,33.95,0.026632,0.033024,-0.001065
309533209,0.002168,-0.004437,-0.001913,0.01,-0.33,9.78,33.93,0.028763,0.035154,-0.002131
309534208,0.003233,-0.006568,-0.001913,0.00,-0.29,9.79,33.95,0.030893,0.036220,-0.002131
309535256,0.003233,-0.005502,-0.000847,0.00,-0.25,9.81,33.97,0.029828,0.036220,-0.001065
309536280,-0.001028,0.004085,0.001283,0.01,-0.32,9.79,33.97,0.020240,0.031958,0.001065
309537235,-0.001028,0.004085,0.001283,0.01,-0.32,9.79,33.97,0.020240,0.031958,0.001065
309538253,-0.001028,0.000889,-0.000847,0.02,-0.30,9.78,33.97,0.023436,0.031958,-0.001065
309539255,-0.001028,0.000889,0.000218,0.05,-0.29,9.82,33.95,0.023436,0.031958,0.000000
309540265,-0.001028,0.001955,0.001283,0.06,-0.27,9.82,33.95,0.022371,0.031958,0.001065
309541275,-0.001028,0.003020,0.001283,0.03,-0.28,9.79,33.90,0.021306,0.031958,0.001065
309542295,0.000037,0.000889,0.001283,0.03,-0.29,9.78,33.92,0.023436,0.033024,0.001065
309543304,0.001102,-0.000176,0.001283,0.03,-0.33,9.82,33.91,0.024501,0.034089,0.001065
309544305,0.000037,-0.001241,0.001283,0.03,-0.34,9.87,33.95,0.025567,0.033024,0.001065
309545315,-0.002093,-0.001241,0.001283,0.03,-0.31,9.85,33.97,0.025567,0.030893,0.001065
309546343,-0.002093,-0.001241,0.001283,0.03,-0.33,9.80,33.94,0.025567,0.030893,0.001065
309547334,-0.002093,-0.000176,0.001283,0.00,-0.31,9.77,33.91,0.024501,0.030893,0.001065
309548350,-0.002093,0.001955,0.000218,-0.01,-0.28,9.79,33.92,0.022371,0.030893,0.000000
309549354,-0.001028,0.001955,0.000218,0.01,-0.30,9.84,33.92,0.022371,0.031958,0.000000
309550364,0.000037,0.000889,0.000218,0.02,-0.32,9.84,33.92,0.023436,0.033024,0.000000
309551374,0.000037,0.000889,0.000218,0.02,-0.32,9.85,33.93,0.023436,0.033024,0.000000
309552394,0.000037,0.003020,-0.001913,0.01,-0.29,9.84,33.90,0.021306,0.033024,-0.002131
309553403,0.000037,0.001955,-0.001913,0.03,-0.30,9.80,33.93,0.022371,0.033024,-0.002131
309554404,-0.001028,0.000889,0.000218,0.04,-0.34,9.81,33.94,0.023436,0.031958,0.000000
309555414,-0.001028,-0.000176,0.000218,0.01,-0.34,9.86,33.92,0.024501,0.031958,0.000000
309556440,-0.001028,0.000889,-0.001913,0.00,-0.31,9.86,33.95,0.023436,0.031958,-0.002131
309557435,-0.002093,0.001955,-0.001913,0.02,-0.32,9.86,33.93,0.022371,0.030893,-0.002131
309558453,-0.002093,0.001955,0.000218,0.04,-0.34,9.84,33.94,0.022371,0.030893,0.000000
309559455,-0.003159,-0.000176,0.001283,0.05,-0.32,9.84,33.95,0.024501,0.029828,0.001065
309560465,-0.004224,-0.003372,0.001283,0.04,-0.29,9.83,33.91,0.027697,0.028763,0.001065
309561475,-0.003159,-0.002307,0.001283,-0.01,-0.30,9.82,33.92,0.026632,0.029828,0.001065
309562497,-0.002093,-0.000176,0.000218,-0.02,-0.32,9.83,33.96,0.024501,0.030893,0.000000
309563504,0.001102,0.001955,-0.000847,0.03,-0.31,9.88,33.97,0.022371,0.034089,-0.001065
309564505,0.002168,0.003020,-0.000847,0.04,-0.28,9.89,33.95,0.021306,0.035154,-0.001065
309565515,-0.001028,0.001955,-0.001913,0.02,-0.29,9.85,33.95,0.022371,0.031958,-0.002131
309566539,-0.001028,0.001955,-0.002978,0.01,-0.31,9.87,33.93,0.022371,0.031958,-0.003196
309567534,0.001102,0.000889,-0.000847,0.01,-0.31,9.86,33.93,0.023436,0.034089,-0.001065
309568550,0.001102,-0.000176,0.000218,-0.01,-0.31,9.86,33.95,0.024501,0.034089,0.000000
309569554,0.000037,-0.000176,-0.001913,-0.02,-0.32,9.85,33.95,0.024501,0.033024,-0.002131
309570564,0.001102,0.001955,-0.002978,0.02,-0.31,9.81,33.94,0.022371,0.034089,-0.003196
309571574,0.001102,0.003020,0.000218,0.02,-0.33,9.82,33.92,0.021306,0.034089,0.000000
309572594,-0.001028,0.001955,0.001283,0.00,-0.34,9.83,33.97,0.022371,0.031958,0.001065
309573603,-0.003159,-0.001241,0.000218,0.02,-0.34,9.85,33.96,0.025567,0.029828,0.000000
309574604,-0.002093,-0.004437,-0.000847,0.03,-0.31,9.81,33.92,0.028763,0.030893,-0.001065
309575614,0.000037,-0.005502,0.000218,0.03,-0.30,9.79,33.94,0.029828,0.033024,0.000000
309576640,0.002168,-0.003372,0.002349,0.01,-0.30,9.85,33.91,0.027697,0.035154,0.002131
309577635,0.001102,-0.001241,0.001283,0.01,-0.29,9.86,33.95,0.025567,0.034089,0.001065
309578653,-0.001028,-0.000176,-0.000847,0.03,-0.32,9.83,33.96,0.024501,0.031958,-0.001065
309579655,-0.002093,-0.001241,-0.001913,0.00,-0.32,9.83,33.95,0.025567,0.030893,-0.002131
309580665,0.000037,-0.003372,-0.000847,-0.01,-0.31,9.83,33.94,0.027697,0.033024,-0.001065
309581687,0.002168,-0.002307,-0.000847,0.03,-0.32,9.80,33.96,0.026632,0.035154,-0.001065
309582685,0.001102,-0.001241,-0.000847,0.03,-0.29,9.80,33.98,0.025567,0.034089,-0.001065
309583704,-0.001028,-0.001241,0.000218,0.00,-0.29,9.86,33.96,0.025567,0.031958,0.000000
309584705,0.001102,-0.003372,0.001283,-0.02,-0.33,9.88,33.95,0.027697,0.034089,0.001065
309585715,0.001102,-0.001241,0.000218,0.01,-0.33,9.82,33.95,0.025567,0.034089,0.000000
309586739,0.000037,0.000889,-0.001913,0.01,-0.32,9.84,33.96,0.023436,0.033024,-0.002131
309587734,0.000037,-0.000176,-0.000847,0.00,-0.31,9.85,33.96,0.024501,0.033024,-0.001065
309588750,0.000037,-0.000176,0.001283,0.01,-0.29,9.82,33.98,0.024501,0.033024,0.001065
309589754,0.002168,-0.002307,0.001283,0.00,-0.30,9.85,34.01,0.026632,0.035154,0.001065
309590764,0.003233,-0.002307,0.001283,-0.02,-0.27,9.86,33.96,0.026632,0.036220,0.001065
309591784,0.004298,-0.001241,-0.000847,0.01,-0.28,9.80,33.89,0.025567,0.037285,-0.001065
309592784,0.001102,-0.000176,-0.002978,0.05,-0.31,9.81,33.90,0.024501,0.034089,-0.003196
309593803,-0.001028,0.000889,0.000218,0.03,-0.30,9.87,33.93,0.023436,0.031958,0.000000
309594804,-0.001028,-0.001241,0.002349,0.03,-0.30,9.82,33.92,0.025567,0.031958,0.002131
309595814,0.001102,-0.002307,0.000218,0.03,-0.29,9.78,33.94,0.026632,0.034089,0.000000
309596864,0.001086,-0.000164,0.001263,0.02,-0.30,9.81,33.96,0.024501,0.034089,0.001065
309597835,0.002151,0.003032,0.003394,0.02,-0.31,9.82,33.92,0.021306,0.035154,0.003196
309598853,0.000021,0.003032,0.003394,0.01,-0.30,9.81,33.98,0.021306,0.033024,0.003196
309599855,-0.001045,-0.000164,0.000198,0.02,-0.30,9.82,33.97,0.024501,0.031958,0.000000
309600865,-0.002110,-0.003360,0.000198,0.04,-0.29,9.83,33.94,0.027697,0.030893,0.000000
309601885,-0.001045,-0.001229,0.001263,0.03,-0.31,9.80,33.93,0.025567,0.031958,0.001065
309602885,0.000021,0.003032,0.002328,0.02,-0.32,9.84,33.92,0.021306,0.033024,0.002131
309603904,0.002151,0.005163,0.002328,0.05,-0.28,9.85,33.92,0.019175,0.035154,0.002131
309604905,0.001086,0.004097,0.001263,0.02,-0.30,9.84,33.91,0.020240,0.034089,0.001065
309605929,0.001086,-0.000164,0.002328,-0.02,-0.34,9.87,33.92,0.024501,0.034089,0.002131
309606924,0.001086,-0.001229,0.001263,0.00,-0.34,9.87,33.96,0.025567,0.034089,0.001065
309607934,0.002151,-0.000164,0.001263,0.00,-0.33,9.88,33.94,0.024501,0.035154,0.001065
309608950,0.002151,0.003032,0.000198,0.04,-0.32,9.84,33.94,0.021306,0.035154,0.000000
309609955,0.000021,0.003032,0.002328,0.01,-0.28,9.82,33.91,0.021306,0.033024,0.002131
309610966,-0.001045,0.003032,0.001263,0.01,-0.30,9.82,33.89,0.021306,0.031958,0.001065
309611992,-0.002110,0.003032,0.001263,0.05,-0.32,9.76,33.97,0.021306,0.030893,0.001065
309612994,-0.001045,0.001967,0.000198,0.05,-0.29,9.74,33.96,0.022371,0.031958,0.000000
309614008,0.000021,0.000901,-0.000868,0.03,-0.31,9.79,33.94,0.023436,0.033024,-0.001065
309615011,0.000021,0.003032,0.000198,0.03,-0.33,9.82,33.93,0.021306,0.033024,0.000000
309616040,0.001086,0.005163,0.000198,0.05,-0.31,9.78,33.95,0.019175,0.034089,0.000000
309617035,0.002151,0.001967,-0.000868,0.04,-0.31,9.78,33.96,0.022371,0.035154,-0.001065
309618043,0.003216,-0.001229,-0.000868,0.04,-0.31,9.80,33.99,0.025567,0.036220,-0.001065
309619068,0.003216,-0.002294,0.000198,0.02,-0.32,9.83,33.97,0.026632,0.036220,0.000000
309620070,0.003216,-0.000164,0.001263,0.03,-0.34,9.81,33.97,0.024501,0.036220,0.001065
309621076,0.002151,0.000901,0.002328,0.06,-0.33,9.84,33.98,0.023436,0.035154,0.002131
309622101,0.003216,0.000901,0.002328,0.04,-0.32,9.89,33.93,0.023436,0.036220,0.002131
309623090,0.002151,-0.000164,0.001263,0.00,-0.31,9.87,33.92,0.024501,0.035154,0.001065
309624114,-0.001045,-0.002294,0.002328,-0.01,-0.32,9.87,33.94,0.026632,0.031958,0.002131
309625115,-0.002110,-0.002294,0.002328,-0.01,-0.33,9.85,33.92,0.026632,0.030893,0.002131
309626138,-0.002110,-0.001229,0.002328,-0.01,-0.32,9.82,33.96,0.025567,0.030893,0.002131
309627139,-0.002110,-0.000164,0.003394,0.01,-0.32,9.81,33.95,0.024501,0.030893,0.003196
309628139,-0.004241,-0.002294,0.001263,0.03,-0.32,9.77,33.93,0.026632,0.028763,0.001065
309629155,-0.003175,-0.003360,-0.000868,0.04,-0.32,9.78,33.90,0.027697,0.029828,-0.001065
309630161,-0.001045,-0.003360,0.000198,0.05,-0.32,9.83,33.89,0.027697,0.031958,0.000000
309631181,0.000021,-0.002294,0.000198,0.04,-0.33,9.82,33.91,0.026632,0.033024,0.000000
309632186,0.000021,-0.002294,-0.000868,0.01,-0.30,9.77,33.92,0.026632,0.033024,-0.001065
309633188,0.000021,-0.000164,-0.001933,0.01,-0.29,9.74,33.92,0.024501,0.033024,-0.002131
309634207,0.000021,0.001967,-0.000868,0.00,-0.35,9.79,33.93,0.022371,0.033024,-0.001065
309635207,0.000021,0.001967,-0.000868,0.00,-0.36,9.82,33.95,0.022371,0.033024,-0.001065
309636232,-0.001045,0.000901,-0.000868,0.02,-0.32,9.80,33.95,0.023436,0.031958,-0.001065
309637225,-0.001045,-0.000164,-0.001933,0.04,-0.30,9.81,33.95,0.024501,0.031958,-0.002131
309638235,0.003216,-0.001229,-0.001933,0.04,-0.31,9.79,33.93,0.025567,0.036220,-0.002131
309639253,0.002151,-0.000164,-0.002998,0.04,-0.32,9.83,33.93,0.024501,0.035154,-0.003196
309640255,0.002151,-0.000164,-0.000868,0.02,-0.31,9.88,33.97,0.024501,0.035154,-0.001065
309641265,0.002151,-0.001229,0.000198,0.01,-0.30,9.84,33.95,0.025567,0.035154,0.000000
309642288,0.002151,0.000901,0.000198,0.02,-0.32,9.79,33.94,0.023436,0.035154,0.000000
309643285,0.001086,0.001967,0.001263,0.04,-0.31,9.80,33.94,0.022371,0.034089,0.001065
309644304,-0.002110,0.000901,0.002328,0.05,-0.28,9.82,33.92,0.023436,0.030893,0.002131
309645305,-0.003175,0.001967,0.002328,0.04,-0.30,9.87,33.92,0.022371,0.029828,0.002131
309646329,0.000021,0.001967,0.002328,0.04,-0.32,9.84,33.95,0.022371,0.033024,0.002131
309647324,0.002151,0.000901,0.002328,0.04,-0.34,9.83,33.94,0.023436,0.035154,0.002131
309648334,0.001086,0.001967,0.000198,0.02,-0.33,9.86,33.93,0.022371,0.034089,0.000000
309649350,0.000021,0.001967,0.000198,0.00,-0.29,9.82,33.96,0.022371,0.033024,0.000000
309650354,-0.001045,0.001967,0.000198,-0.01,-0.30,9.82,33.94,0.022371,0.031958,0.000000
309651364,-0.001045,0.000901,-0.001933,0.00,-0.32,9.82,33.94,0.023436,0.031958,-0.002131
309652385,-0.001045,-0.001229,-0.002998,0.00,-0.32,9.82,33.96,0.025567,0.031958,-0.003196
309653384,-0.001045,-0.003360,-0.001933,-0.01,-0.31,9.85,33.97,0.027697,0.031958,-0.002131
309654403,0.000021,-0.003360,-0.000868,-0.01,-0.32,9.84,33.98,0.027697,0.033024,-0.001065
309655404,0.000021,-0.002294,0.000198,0.01,-0.34,9.81,33.94,0.026632,0.033024,0.000000
309656430,0.000021,-0.001229,0.001263,0.03,-0.35,9.78,33.96,0.025567,0.033024,0.001065
309657425,0.001086,0.000901,0.001263,-0.01,-0.33,9.78,33.92,0.023436,0.034089,0.001065
309658435,0.002151,0.001967,0.000198,-0.01,-0.29,9.83,33.91,0.022371,0.035154,0.000000
309659453,0.000021,0.003032,0.000198,0.03,-0.31,9.85,33.90,0.021306,0.033024,0.000000
309660455,-0.001045,0.001967,0.001263,0.03,-0.30,9.82,33.92,0.022371,0.031958,0.001065
309661465,-0.002110,0.000901,0.000198,0.04,-0.30,9.81,33.92,0.023436,0.030893,0.000000
309662488,-0.001045,-0.001229,-0.000868,0.02,-0.34,9.80,33.95,0.025567,0.031958,-0.001065
309663485,-0.001045,-0.001229,-0.001933,0.01,-0.30,9.82,33.96,0.025567,0.031958,-0.002131
309664504,-0.001045,-0.000164,-0.002998,0.05,-0.28,9.83,33.94,0.024501,0.031958,-0.003196
309665505,0.002151,-0.000164,-0.002998,0.03,-0.28,9.81,33.95,0.024501,0.035154,-0.003196
309666529,0.004282,0.000901,-0.000868,-0.02,-0.28,9.79,33.91,0.023436,0.037285,-0.001065
309667524,0.002151,0.001967,0.000198,0.00,-0.30,9.77,33.93,0.022371,0.035154,0.000000
309668534,0.000021,-0.000164,0.000198,0.02,-0.33,9.81,33.93,0.024501,0.033024,0.000000
309669550,0.001086,-0.004425,0.001263,0.01,-0.34,9.86,33.96,0.028763,0.034089,0.001065
309670554,0.001086,-0.004425,0.002328,0.02,-0.33,9.89,33.95,0.028763,0.034089,0.002131
309671564,0.002151,-0.001229,0.002328,0.04,-0.33,9.84,33.94,0.025567,0.035154,0.002131
309672585,0.003216,0.004097,0.001263,0.03,-0.30,9.80,33.93,0.020240,0.036220,0.001065
309673584,0.003216,0.004097,-0.000868,0.02,-0.30,9.76,33.95,0.020240,0.036220,-0.001065
309674603,0.001086,-0.000164,-0.000868,0.04,-0.32,9.74,33.94,0.024501,0.034089,-0.001065
309675604,0.000021,-0.002294,0.001263,0.04,-0.29,9.80,33.98,0.026632,0.033024,0.001065
309676630,-0.001045,-0.002294,0.001263,0.03,-0.28,9.82,33.97,0.026632,0.031958,0.001065
309677625,-0.001045,-0.001229,0.000198,0.06,-0.30,9.78,33.98,0.025567,0.031958,0.000000
309678635,0.000021,-0.001229,0.000198,0.04,-0.31,9.79,34.01,0.025567,0.033024,0.000000
309679653,-0.002110,-0.001229,-0.001933,-0.01,-0.32,9.83,33.96,0.025567,0.030893,-0.002131
309680655,-0.003175,-0.000164,-0.002998,0.01,-0.32,9.81,33.98,0.024501,0.029828,-0.003196
309681678,-0.003175,0.001967,-0.004063,0.01,-0.31,9.81,33.98,0.022371,0.029828,-0.004261
309682675,0.000021,0.003032,-0.002998,0.01,-0.33,9.83,33.96,0.021306,0.033024,-0.003196
309683685,0.002151,0.001967,-0.001933,0.02,-0.34,9.83,33.92,0.022371,0.035154,-0.002131
309684704,0.002151,0.000901,-0.001933,0.04,-0.33,9.84,33.94,0.023436,0.035154,-0.002131
309685705,0.001086,-0.000164,-0.001933,0.03,-0.30,9.82,33.95,0.024501,0.034089,-0.002131
309686729,-0.001045,-0.000164,-0.000868,0.03,-0.27,9.78,33.92,0.024501,0.031958,-0.001065
309687724,-0.002110,0.000901,0.001263,0.01,-0.29,9.76,33.93,0.023436,0.030893,0.001065
309688734,0.001086,0.001967,0.001263,-0.01,-0.32,9.78,33.94,0.022371,0.034089,0.001065
309689750,0.003216,0.000901,0.000198,0.00,-0.30,9.80,33.91,0.023436,0.036220,0.000000
309690754,0.002151,0.000901,0.001263,-0.01,-0.33,9.81,33.91,0.023436,0.035154,0.001065
309691774,0.001086,-0.001229,0.001263,-0.01,-0.33,9.80,33.92,0.025567,0.034089,0.001065
309692774,0.003216,-0.002294,0.000198,0.00,-0.33,9.80,33.95,0.026632,0.036220,0.000000
309693784,0.002151,-0.000164,0.000198,-0.01,-0.33,9.84,33.95,0.024501,0.035154,0.000000
309694815,-0.002110,0.001967,0.000198,-0.01,-0.28,9.84,33.93,0.022371,0.030893,0.000000
309695906,-0.004241,0.003032,0.002328,0.01,-0.28,9.80,33.92,0.021306,0.028763,0.002131
309696849,-0.004241,0.000901,0.003394,0.01,-0.30,9.83,33.92,0.023436,0.028763,0.003196
309697825,-0.003175,-0.002294,0.001263,0.00,-0.29,9.86,33.97,0.026632,0.029828,0.001065
309698835,-0.001045,-0.002294,0.000198,0.00,-0.29,9.84,33.91,0.026632,0.031958,0.000000
309699853,0.001086,-0.001229,0.000198,0.01,-0.34,9.79,33.97,0.025567,0.034089,0.000000
309700855,0.001086,-0.001229,0.001263,0.00,-0.34,9.77,33.96,0.025567,0.034089,0.001065
309701878,0.000021,-0.000164,0.001263,0.00,-0.31,9.78,33.95,0.024501,0.033024,0.001065
309702875,0.000021,-0.001229,-0.000868,0.02,-0.30,9.78,33.97,0.025567,0.033024,-0.001065
309703885,0.002151,-0.003360,-0.002998,0.03,-0.33,9.78,33.95,0.027697,0.035154,-0.003196
309704904,0.002151,-0.003360,-0.002998,0.00,-0.36,9.83,33.94,0.027697,0.035154,-0.003196
309705905,0.002151,-0.001229,-0.001933,-0.02,-0.34,9.90,33.90,0.025567,0.035154,-0.002131
309706915,0.001086,-0.000164,-0.000868,0.00,-0.33,9.86,33.94,0.024501,0.034089,-0.001065
309707925,0.000021,0.000901,0.000198,0.02,-0.32,9.77,33.96,0.023436,0.033024,0.000000
309708935,-0.001045,0.000901,0.002328,0.03,-0.31,9.78,33.95,0.023436,0.031958,0.002131
309709952,0.000021,-0.000164,0.003394,0.01,-0.28,9.81,33.93,0.024501,0.033024,0.003196
309710956,-0.001045,-0.002294,0.001263,-0.02,-0.29,9.78,33.89,0.026632,0.031958,0.001065
309711980,-0.001045,-0.002294,0.000198,-0.02,-0.29,9.81,33.89,0.026632,0.031958,0.000000
309712976,-0.002110,-0.000164,-0.000868,-0.01,-0.30,9.85,33.95,0.024501,0.030893,-0.001065
309713993,-0.002110,-0.000164,-0.002998,0.00,-0.30,9.83,33.92,0.024501,0.030893,-0.003196
309715010,-0.001045,-0.000164,-0.004063,0.00,-0.27,9.80,33.90,0.024501,0.031958,-0.004261
309716011,0.002151,-0.000164,-0.001933,0.00,-0.27,9.79,33.90,0.024501,0.035154,-0.002131
309717030,0.004282,-0.000164,0.002328,0.00,-0.30,9.85,33.92,0.024501,0.037285,0.002131
309718034,0.001086,-0.001229,0.002328,0.01,-0.32,9.86,33.91,0.025567,0.034089,0.002131
309719041,-0.001045,-0.000164,0.001263,0.00,-0.28,9.85,33.95,0.024501,0.031958,0.001065
309720067,-0.002110,0.001967,0.000198,0.02,-0.28,9.86,33.92,0.022371,0.030893,0.000000
309721069,0.000021,0.001967,0.000198,0.05,-0.29,9.81,33.91,0.022371,0.033024,0.000000
309722086,0.002151,0.000901,0.001263,0.01,-0.31,9.79,33.92,0.023436,0.035154,0.001065
309723088,0.001086,-0.000164,0.002328,-0.02,-0.33,9.82,33.93,0.024501,0.034089,0.002131
309724095,-0.001045,0.000901,0.000198,-0.02,-0.32,9.83,33.93,0.023436,0.031958,0.000000
309725115,-0.002110,0.000901,-0.001933,-0.02,-0.33,9.80,33.94,0.023436,0.030893,-0.002131
309726138,-0.002132,-0.001245,-0.001958,0.00,-0.31,9.79,33.94,0.025567,0.030893,-0.002131
309727130,-0.001067,-0.002311,-0.000892,0.02,-0.28,9.78,33.94,0.026632,0.031958,-0.001065
309728137,-0.000002,-0.001245,0.001238,0.01,-0.30,9.76,33.96,0.025567,0.033024,0.001065
309729141,-0.002132,-0.000180,0.001238,0.03,-0.31,9.77,33.95,0.024501,0.030893,0.001065
309730163,-0.001067,0.000885,0.000173,0.03,-0.32,9.84,33.94,0.023436,0.031958,0.000000
309731160,0.001063,0.000885,-0.000892,0.00,-0.34,9.82,33.93,0.023436,0.034089,-0.001065
309732178,0.002129,-0.000180,-0.001958,0.00,-0.32,9.77,33.91,0.024501,0.035154,-0.002131
309733175,0.004259,-0.000180,-0.000892,0.04,-0.29,9.78,33.91,0.024501,0.037285,-0.001065
309734189,0.002129,-0.000180,-0.000892,0.05,-0.32,9.82,33.92,0.024501,0.035154,-0.001065
309735209,-0.000002,0.000885,-0.001958,0.04,-0.30,9.81,33.95,0.023436,0.033024,-0.002131
309736208,-0.000002,0.000885,-0.000892,0.01,-0.29,9.78,33.91,0.023436,0.033024,-0.001065
309737227,0.001063,-0.000180,-0.000892,0.01,-0.33,9.83,33.92,0.024501,0.034089,-0.001065
309738225,-0.000002,0.001950,-0.001958,0.06,-0.31,9.81,33.95,0.022371,0.033024,-0.002131
309739235,-0.000002,-0.004441,-0.000892,0.03,-0.32,9.78,33.89,0.028763,0.033024,-0.001065
309740299,0.001063,-0.005507,-0.003023,0.01,-0.31,9.82,33.93,0.029828,0.034089,-0.003196
309741255,0.001063,-0.003376,-0.004088,-0.01,-0.31,9.83,33.92,0.027697,0.034089,-0.004261
309742275,0.001063,-0.001245,-0.000892,0.00,-0.32,9.77,33.96,0.025567,0.034089,-0.001065
309743275,0.003194,0.000885,0.001238,0.02,-0.32,9.78,33.95,0.023436,0.036220,0.001065
309744285,0.003194,0.000885,0.002304,0.02,-0.31,9.78,33.96,0.023436,0.036220,0.002131
309745304,0.001063,-0.000180,0.002304,0.02,-0.35,9.81,33.95,0.024501,0.034089,0.002131
309746305,-0.000002,-0.000180,0.001238,0.00,-0.34,9.87,33.96,0.024501,0.033024,0.001065
309747315,-0.002132,0.000885,0.001238,0.02,-0.30,9.83,33.97,0.023436,0.030893,0.001065
309748325,-0.003198,0.000885,0.001238,0.02,-0.32,9.81,33.95,0.023436,0.029828,0.001065
309749335,-0.002132,-0.001245,0.000173,0.00,-0.30,9.83,33.95,0.025567,0.030893,0.000000
309750351,-0.001067,-0.002311,-0.000892,0.00,-0.30,9.80,33.96,0.026632,0.031958,-0.001065
309751355,-0.000002,-0.001245,-0.001958,0.01,-0.31,9.81,33.95,0.025567,0.033024,-0.002131
309752374,0.001063,-0.000180,0.000173,0.02,-0.28,9.88,33.98,0.024501,0.034089,0.000000
309753375,-0.000002,-0.001245,0.002304,0.01,-0.29,9.87,33.94,0.025567,0.033024,0.002131
309754385,0.001063,-0.002311,0.002304,0.02,-0.33,9.82,33.93,0.026632,0.034089,0.002131
309755404,0.003194,-0.001245,-0.000892,0.00,-0.31,9.81,33.95,0.025567,0.036220,-0.001065
309756405,0.002129,-0.001245,-0.001958,-0.02,-0.28,9.81,33.93,0.025567,0.035154,-0.002131
309757415,0.001063,-0.001245,0.000173,0.00,-0.27,9.82,33.92,0.025567,0.034089,0.000000
309758425,-0.001067,0.000885,0.001238,0.02,-0.28,9.79,33.92,0.023436,0.031958,0.001065
309759435,-0.000002,0.001950,0.001238,0.02,-0.31,9.71,33.92,0.022371,0.033024,0.001065
309760453,-0.001067,0.000885,0.001238,0.02,-0.30,9.79,33.92,0.023436,0.031958,0.001065
309761455,-0.001067,-0.001245,0.002304,0.03,-0.31,9.87,33.91,0.025567,0.031958,0.002131
309762475,-0.001067,-0.002311,0.001238,0.04,-0.33,9.84,33.96,0.026632,0.031958,0.001065
309763475,0.001063,-0.002311,0.001238,0.04,-0.31,9.83,33.92,0.026632,0.034089,0.001065
309764485,0.003194,-0.001245,0.002304,0.04,-0.31,9.86,33.89,0.025567,0.036220,0.002131
309765504,0.001063,-0.000180,0.003369,0.03,-0.31,9.86,33.93,0.024501,0.034089,0.003196
309766505,0.001063,0.003016,0.004434,0.01,-0.30,9.79,33.91,0.021306,0.034089,0.004261
309767515,0.001063,0.004081,0.003369,0.02,-0.34,9.75,33.95,0.020240,0.034089,0.003196
309768525,-0.001067,0.000885,0.003369,0.03,-0.33,9.81,33.93,0.023436,0.031958,0.003196
309769535,-0.000002,-0.000180,0.001238,0.02,-0.29,9.88,33.91,0.024501,0.033024,0.001065
309770551,0.003194,-0.000180,0.000173,0.00,-0.32,9.86,33.90,0.024501,0.036220,0.000000
309771555,0.003194,0.000885,0.000173,0.00,-0.32,9.83,33.94,0.023436,0.036220,0.000000
309772574,0.001063,0.001950,-0.000892,0.00,-0.29,9.84,33.94,0.022371,0.034089,-0.001065
309773575,-0.001067,0.003016,-0.001958,0.02,-0.31,9.85,33.94,0.021306,0.031958,-0.002131
309774585,-0.002132,0.003016,-0.000892,0.00,-0.32,9.84,33.97,0.021306,0.030893,-0.001065
309775604,-0.000002,0.003016,0.000173,-0.02,-0.33,9.79,33.98,0.021306,0.033024,0.000000
309776605,0.001063,0.001950,0.001238,0.03,-0.32,9.76,33.94,0.022371,0.034089,0.001065
309777615,0.003194,0.000885,0.001238,0.05,-0.31,9.78,33.95,0.023436,0.036220,0.001065
309778625,0.004259,0.001950,-0.000892,0.05,-0.31,9.81,33.96,0.022371,0.037285,-0.001065
309779635,0.003194,0.001950,-0.003023,0.04,-0.31,9.82,33.94,0.022371,0.036220,-0.003196
309780653,0.002129,0.001950,-0.003023,0.04,-0.32,9.80,33.94,0.022371,0.035154,-0.003196
309781665,0.001063,0.000885,0.000173,0.02,-0.32,9.80,33.95,0.023436,0.034089,0.000000
309782665,-0.000002,-0.002311,0.002304,0.00,-0.30,9.81,33.93,0.026632,0.033024,0.002131
309783675,-0.001067,-0.002311,0.003369,0.02,-0.28,9.78,33.93,0.026632,0.031958,0.003196
309784685,-0.002132,-0.000180,0.001238,0.02,-0.29,9.83,33.94,0.024501,0.030893,0.001065
309785704,-0.001067,-0.000180,0.000173,0.02,-0.30,9.85,33.93,0.024501,0.031958,0.000000
309786705,-0.000002,-0.001245,0.001238,0.03,-0.32,9.83,33.90,0.025567,0.033024,0.001065
309787715,-0.000002,-0.002311,0.002304,0.03,-0.33,9.84,33.92,0.026632,0.033024,0.002131
309788725,0.002129,-0.003376,0.002304,0.05,-0.31,9.86,33.92,0.027697,0.035154,0.002131
309789735,0.002129,-0.001245,0.000173,0.08,-0.32,9.83,33.90,0.025567,0.035154,0.000000
309790751,0.001063,-0.001245,-0.000892,0.06,-0.34,9.78,33.93,0.025567,0.034089,-0.001065
309791764,0.001063,-0.000180,-0.000892,0.02,-0.32,9.80,33.96,0.024501,0.034089,-0.001065
309792765,0.001063,0.001950,0.000173,0.02,-0.29,9.81,33.96,0.022371,0.034089,0.000000
309793775,-0.000002,0.003016,0.001238,0.03,-0.30,9.84,33.96,0.021306,0.033024,0.001065
309794785,-0.000002,-0.000180,0.001238,0.03,-0.31,9.84,33.94,0.024501,0.033024,0.001065
309795804,-0.001067,0.000885,0.002304,0.03,-0.31,9.79,33.94,0.023436,0.031958,0.002131
309796805,-0.002132,0.003016,0.002304,0.03,-0.32,9.77,33.90,0.021306,0.030893,0.002131
309797815,-0.003198,0.003016,0.000173,0.03,-0.31,9.80,33.94,0.021306,0.029828,0.000000
309798825,-0.001067,0.003016,-0.003023,0.01,-0.33,9.82,33.97,0.021306,0.031958,-0.003196
309799835,0.001063,0.001950,-0.004088,0.00,-0.33,9.78,33.94,0.022371,0.034089,-0.004261
309800853,0.002129,0.001950,-0.004088,0.01,-0.29,9.82,33.91,0.022371,0.035154,-0.004261
309801865,0.001063,-0.000180,-0.003023,0.01,-0.32,9.83,33.93,0.024501,0.034089,-0.003196
309802865,0.001063,-0.002311,-0.001958,0.02,-0.31,9.82,33.94,0.026632,0.034089,-0.002131
309803875,0.001063,-0.002311,0.000173,0.03,-0.30,9.86,33.95,0.026632,0.034089,0.000000
309804885,0.001063,-0.000180,0.000173,0.04,-0.32,9.83,33.98,0.024501,0.034089,0.000000
309805904,-0.000002,0.001950,0.000173,0.02,-0.32,9.80,33.98,0.022371,0.033024,0.000000
309806905,0.001063,0.004081,-0.000892,0.03,-0.33,9.81,33.98,0.020240,0.034089,-0.001065
309807915,0.002129,0.003016,-0.000892,0.04,-0.35,9.84,33.95,0.021306,0.035154,-0.001065
309808925,-0.000002,-0.000180,0.000173,0.03,-0.34,9.82,33.92,0.024501,0.033024,0.000000
309809935,-0.002132,-0.001245,0.000173,0.00,-0.31,9.81,33.93,0.025567,0.030893,0.000000
309810952,-0.002132,0.000885,-0.000892,0.01,-0.32,9.80,33.92,0.023436,0.030893,-0.001065
309811967,-0.003198,0.001950,0.000173,0.03,-0.33,9.82,33.95,0.022371,0.029828,0.000000
309812966,-0.000002,0.000885,0.000173,0.03,-0.34,9.79,33.91,0.023436,0.033024,0.000000
309813978,0.003194,-0.000180,-0.000892,0.02,-0.33,9.80,33.92,0.024501,0.036220,-0.001065
309814994,0.002129,0.003016,-0.000892,0.03,-0.31,9.81,33.91,0.021306,0.035154,-0.001065
309816012,-0.000002,0.003016,0.001238,0.04,-0.29,9.80,33.90,0.021306,0.033024,0.001065
309817012,-0.001067,0.001950,0.000173,0.03,-0.30,9.81,33.92,0.022371,0.031958,0.000000
309818022,-0.000002,-0.000180,-0.000892,0.01,-0.34,9.79,33.92,0.024501,0.033024,-0.001065
309819035,-0.000002,-0.001245,-0.001958,0.00,-0.35,9.83,33.91,0.025567,0.033024,-0.002131
309820045,-0.000002,-0.002311,-0.000892,-0.01,-0.32,9.82,33.89,0.026632,0.033024,-0.001065
309821067,-0.000002,-0.000180,0.001238,0.02,-0.30,9.81,33.93,0.024501,0.033024,0.001065
309822081,0.001063,0.000885,0.002304,0.05,-0.33,9.81,33.89,0.023436,0.034089,0.002131
309823073,0.002129,-0.000180,0.002304,0.04,-0.33,9.82,33.89,0.024501,0.035154,0.002131
309824088,0.001063,-0.001245,0.000173,0.02,-0.29,9.80,33.94,0.025567,0.034089,0.000000
309825089,-0.000002,-0.001245,0.001238,0.04,-0.28,9.80,33.97,0.025567,0.033024,0.001065
309826114,-0.000002,-0.000180,0.000173,0.03,-0.29,9.89,33.92,0.024501,0.033024,0.000000
309827118,-0.002132,0.001950,-0.001958,-0.02,-0.29,9.86,33.94,0.022371,0.030893,-0.002131
309828125,-0.002132,0.000885,-0.003023,-0.01,-0.28,9.81,33.92,0.023436,0.030893,-0.003196
309829138,-0.002132,-0.000180,-0.003023,0.04,-0.27,9.85,33.95,0.024501,0.030893,-0.003196
309830145,-0.000002,-0.000180,-0.005153,0.01,-0.25,9.90,33.96,0.024501,0.033024,-0.005326
309831158,0.002129,-0.000180,-0.004088,-0.05,-0.30,9.86,33.94,0.024501,0.035154,-0.004261
309832168,0.004259,-0.001245,-0.000892,-0.01,-0.32,9.77,33.92,0.025567,0.037285,-0.001065
309833168,0.004259,-0.001245,0.002304,0.04,-0.30,9.78,33.91,0.025567,0.037285,0.002131
309834175,0.004259,-0.001245,0.003369,0.04,-0.32,9.79,33.93,0.025567,0.037285,0.003196
309835189,0.003194,-0.000180,0.001238,0.04,-0.32,9.79,33.94,0.024501,0.036220,0.001065
309836209,0.002129,-0.000180,-0.001958,0.06,-0.34,9.81,33.96,0.024501,0.035154,-0.002131
309837208,0.002129,0.000885,-0.003023,0.05,-0.34,9.83,33.96,0.023436,0.035154,-0.003196
309838217,-0.001067,0.000885,-0.000892,0.01,-0.34,9.87,33.92,0.023436,0.031958,-0.001065
309839225,-0.002132,-0.001245,0.001238,0.01,-0.32,9.85,33.92,0.025567,0.030893,0.001065
309840235,0.002129,-0.001245,0.001238,0.02,-0.33,9.75,33.95,0.025567,0.035154,0.001065
309841253,0.002129,-0.001245,0.000173,0.02,-0.30,9.76,33.94,0.025567,0.035154,0.000000
309842311,-0.000002,-0.000180,0.000173,0.00,-0.30,9.76,33.97,0.024501,0.033024,0.000000
309843265,-0.001067,-0.000180,0.000173,0.03,-0.31,9.75,33.99,0.024501,0.031958,0.000000
309844275,-0.000002,-0.002311,0.000173,0.02,-0.31,9.74,33.96,0.026632,0.033024,0.000000
309845285,-0.000002,-0.001245,-0.000892,0.00,-0.32,9.75,33.96,0.025567,0.033024,-0.001065
309846304,0.002129,0.000885,-0.000892,0.03,-0.32,9.78,33.95,0.023436,0.035154,-0.001065
309847305,0.002129,0.003016,0.000173,0.06,-0.32,9.82,33.95,0.021306,0.035154,0.000000
309848315,0.002129,0.005146,0.001238,0.05,-0.31,9.80,33.96,0.019175,0.035154,0.001065
309849325,0.001063,0.003016,0.000173,0.02,-0.30,9.76,33.98,0.021306,0.034089,0.000000
309850335,0.001063,0.001950,0.000173,0.04,-0.30,9.82,33.99,0.022371,0.034089,0.000000
309851351,-0.000002,0.000885,0.000173,0.00,-0.33,9.81,33.94,0.023436,0.033024,0.000000
309852364,-0.000002,0.001950,-0.000892,-0.01,-0.34,9.77,33.95,0.022371,0.033024,-0.001065
309853365,0.001063,-0.000180,-0.000892,0.02,-0.32,9.78,33.88,0.024501,0.034089,-0.001065
309854375,0.002129,-0.001245,-0.000892,-0.02,-0.31,9.77,33.92,0.025567,0.035154,-0.001065
309855409,-0.000071,-0.000202,0.000174,-0.02,-0.31,9.73,33.94,0.024501,0.033024,0.000000
309856404,-0.001136,0.001929,0.000174,-0.01,-0.31,9.76,33.95,0.022371,0.031958,0.000000
309857405,-0.000071,0.000864,-0.000891,0.01,-0.31,9.80,33.95,0.023436,0.033024,-0.001065
309858415,-0.000071,-0.000202,-0.001956,0.03,-0.32,9.79,33.92,0.024501,0.033024,-0.002131
309859425,0.000994,-0.002332,-0.001956,0.02,-0.30,9.78,33.93,0.026632,0.034089,-0.002131
309860435,-0.000071,-0.004463,0.001239,0.03,-0.30,9.72,33.96,0.028763,0.033024,0.001065
309861453,-0.000071,-0.004463,0.003370,0.06,-0.30,9.76,33.95,0.028763,0.033024,0.003196
309862465,-0.001136,-0.001267,0.003370,0.05,-0.30,9.82,33.95,0.025567,0.031958,0.003196
309863465,-0.003267,0.000864,0.002305,0.05,-0.29,9.79,33.93,0.023436,0.029828,0.002131
309864475,-0.003267,0.001929,0.001239,0.05,-0.28,9.77,33.96,0.022371,0.029828,0.001065
309865485,-0.003267,0.001929,-0.000891,0.03,-0.28,9.80,33.93,0.022371,0.029828,-0.001065
309866504,-0.003267,0.000864,-0.001956,0.03,-0.28,9.80,33.94,0.023436,0.029828,-0.002131
309867505,-0.000071,-0.000202,-0.000891,0.01,-0.30,9.81,33.92,0.024501,0.033024,-0.001065
309868515,0.004190,0.000864,0.000174,0.01,-0.33,9.79,33.94,0.023436,0.037285,0.000000
309869525,0.006321,0.000864,0.000174,0.05,-0.35,9.77,33.93,0.023436,0.039415,0.000000
309870535,0.005256,0.000864,-0.001956,0.04,-0.33,9.78,33.96,0.023436,0.038350,-0.002131
309871551,0.002060,0.001929,-0.000891,0.04,-0.32,9.78,33.99,0.022371,0.035154,-0.001065
309872564,-0.001136,0.000864,0.001239,0.01,-0.33,9.84,33.97,0.023436,0.031958,0.001065
309873565,-0.003267,-0.000202,0.001239,-0.02,-0.30,9.83,33.94,0.024501,0.029828,0.001065
309874575,-0.002201,-0.002332,0.000174,-0.01,-0.28,9.78,33.92,0.026632,0.030893,0.000000
309875585,-0.000071,-0.003397,0.000174,0.00,-0.28,9.75,33.92,0.027697,0.033024,0.000000
309876604,-0.000071,-0.003397,0.000174,0.02,-0.29,9.77,33.92,0.027697,0.033024,0.000000
309877605,-0.001136,-0.004463,0.000174,0.02,-0.34,9.84,33.94,0.028763,0.031958,0.000000
309878615,-0.001136,-0.003397,0.000174,-0.01,-0.33,9.83,33.95,0.027697,0.031958,0.000000
309879625,-0.000071,-0.001267,-0.000891,-0.02,-0.33,9.79,33.96,0.025567,0.033024,-0.001065
309880635,-0.000071,-0.000202,-0.001956,-0.02,-0.34,9.80,33.96,0.024501,0.033024,-0.002131
309881662,0.000994,-0.000202,-0.001956,0.02,-0.32,9.81,33.94,0.024501,0.034089,-0.002131
309882655,0.003125,-0.000202,-0.001956,0.01,-0.32,9.82,33.94,0.024501,0.036220,-0.002131
309883665,0.003125,0.001929,-0.003022,0.00,-0.32,9.83,33.96,0.022371,0.036220,-0.003196
309884675,-0.001136,0.000864,-0.005152,0.02,-0.30,9.84,33.92,0.023436,0.031958,-0.005326
309885685,-0.003267,-0.000202,-0.003022,0.01,-0.29,9.78,33.91,0.024501,0.029828,-0.003196
309886704,-0.000071,-0.000202,0.001239,0.01,-0.29,9.79,33.92,0.024501,0.033024,0.001065
309887705,0.002060,0.000864,0.002305,0.01,-0.31,9.87,33.90,0.023436,0.035154,0.002131
309888715,0.002060,0.001929,0.000174,-0.01,-0.31,9.87,33.92,0.022371,0.035154,0.000000
309889725,-0.000071,0.000864,0.000174,-0.01,-0.32,9.81,33.95,0.023436,0.033024,0.000000
309890735,-0.002201,-0.001267,0.001239,-0.03,-0.33,9.78,33.98,0.025567,0.030893,0.001065
309891759,-0.000071,-0.002332,0.000174,-0.02,-0.30,9.82,33.97,0.026632,0.033024,0.000000
309892755,0.002060,-0.001267,-0.000891,0.00,-0.31,9.82,33.92,0.025567,0.035154,-0.001065
309893765,0.004190,-0.002332,-0.001956,0.00,-0.30,9.83,33.91,0.026632,0.037285,-0.002131
309894775,0.004190,-0.001267,-0.000891,0.02,-0.29,9.80,33.91,0.025567,0.037285,-0.001065
309895785,0.002060,0.001929,-0.000891,0.01,-0.30,9.81,33.89,0.022371,0.035154,-0.001065
309896804,0.000994,0.004060,-0.001956,0.00,-0.29,9.85,33.92,0.020240,0.034089,-0.002131
309897805,0.002060,0.001929,-0.000891,0.02,-0.30,9.83,33.93,0.022371,0.035154,-0.001065
309898815,-0.000071,0.000864,-0.000891,0.04,-0.31,9.79,33.95,0.023436,0.033024,-0.001065
309899825,-0.000071,-0.000202,-0.000891,0.04,-0.32,9.76,33.98,0.024501,0.033024,-0.001065
309900835,0.000994,0.002994,0.000174,0.03,-0.33,9.79,33.95,0.021306,0.034089,0.000000
309901862,-0.000071,0.002994,0.000174,0.02,-0.34,9.84,33.94,0.021306,0.033024,0.000000
309902855,-0.001136,0.004060,0.000174,-0.02,-0.34,9.83,33.95,0.020240,0.031958,0.000000
309903865,-0.002201,0.004060,-0.001956,-0.01,-0.33,9.82,33.95,0.020240,0.030893,-0.002131
309904875,-0.002201,0.002994,-0.000891,0.04,-0.33,9.82,33.94,0.021306,0.030893,-0.001065
309905885,-0.001136,0.000864,0.001239,0.04,-0.29,9.83,33.92,0.023436,0.031958,0.001065
309906904,-0.001136,-0.001267,0.002305,0.01,-0.30,9.83,33.92,0.025567,0.031958,0.002131
309907905,-0.000071,-0.001267,0.002305,0.03,-0.31,9.80,33.92,0.025567,0.033024,0.002131
309908915,0.002060,-0.001267,-0.000891,0.00,-0.30,9.83,33.95,0.025567,0.035154,-0.001065
309909925,0.003125,-0.000202,-0.001956,0.02,-0.31,9.88,33.95,0.024501,0.036220,-0.002131
309910935,0.003125,0.001929,-0.001956,0.05,-0.30,9.86,33.97,0.022371,0.036220,-0.002131
309911963,-0.000071,0.001929,0.000174,0.02,-0.30,9.88,33.92,0.022371,0.033024,0.000000
309912956,-0.002201,-0.000202,0.001239,0.02,-0.31,9.89,33.92,0.024501,0.030893,0.001065
309913966,-0.002201,-0.000202,0.001239,0.05,-0.31,9.85,33.95,0.024501,0.030893,0.001065
309914976,-0.001136,0.001929,0.001239,0.04,-0.30,9.79,33.97,0.022371,0.031958,0.001065
309915993,0.000994,0.001929,0.001239,0.02,-0.27,9.81,33.98,0.022371,0.034089,0.001065
309917010,0.000994,-0.000202,0.001239,0.01,-0.28,9.81,33.97,0.024501,0.034089,0.001065
309918011,0.000994,-0.000202,0.000174,-0.01,-0.32,9.82,33.93,0.024501,0.034089,0.000000
309919030,0.000994,0.002994,-0.003022,0.02,-0.33,9.82,33.94,0.021306,0.034089,-0.003196
309920034,-0.000071,0.002994,-0.001956,0.03,-0.30,9.82,33.97,0.021306,0.033024,-0.002131
309921041,-0.002201,0.001929,-0.000891,0.03,-0.27,9.85,33.98,0.022371,0.030893,-0.001065
309922073,-0.002201,0.004060,0.001239,0.06,-0.27,9.82,33.96,0.020240,0.030893,0.001065
309923069,-0.002201,0.002994,0.002305,0.02,-0.29,9.80,33.98,0.021306,0.030893,0.002131
309924075,-0.001136,0.001929,0.000174,0.01,-0.30,9.77,33.97,0.022371,0.031958,0.000000
309925088,0.000994,0.000864,-0.000891,0.01,-0.30,9.75,33.94,0.023436,0.034089,-0.001065
309926095,0.000994,-0.000202,-0.000891,0.00,-0.31,9.79,33.96,0.024501,0.034089,-0.001065
309927122,-0.000071,-0.002332,-0.000891,0.05,-0.30,9.82,33.92,0.026632,0.033024,-0.001065
309928115,-0.001136,-0.001267,-0.001956,0.04,-0.30,9.82,33.91,0.025567,0.031958,-0.002131
309929126,0.000994,-0.000202,-0.003022,0.00,-0.30,9.80,33.94,0.024501,0.034089,-0.003196
309930133,0.000994,0.000864,-0.001956,0.03,-0.30,9.83,33.94,0.023436,0.034089,-0.002131
309931141,0.000994,0.000864,-0.000891,0.03,-0.29,9.81,33.97,0.023436,0.034089,-0.001065
309932164,-0.001136,0.000864,0.000174,0.01,-0.30,9.80,34.02,0.023436,0.031958,0.000000
309933158,-0.000071,-0.001267,0.002305,-0.01,-0.30,9.81,33.96,0.025567,0.033024,0.002131
309934168,0.002060,-0.003397,0.002305,0.00,-0.28,9.76,33.98,0.027697,0.035154,0.002131
309935175,0.002060,-0.003397,0.000174,-0.01,-0.29,9.78,33.94,0.027697,0.035154,0.000000
309936189,-0.001136,-0.000202,-0.003022,-0.02,-0.30,9.82,33.95,0.024501,0.031958,-0.003196
309937209,-0.001136,0.000864,0.000174,0.02,-0.28,9.80,33.97,0.023436,0.031958,0.000000
309938233,-0.000071,0.001929,0.002305,0.02,-0.31,9.78,33.95,0.022371,0.033024,0.002131
309939273,0.002060,0.001929,-0.000891,0.02,-0.31,9.78,33.93,0.022371,0.035154,-0.001065
309940225,0.002060,0.001929,-0.000891,0.02,-0.31,9.78,33.93,0.022371,0.035154,-0.001065
309941235,-0.000071,-0.000202,0.001239,0.02,-0.28,9.75,33.97,0.024501,0.033024,0.001065
309942262,-0.002201,-0.003397,0.000174,0.02,-0.29,9.78,33.92,0.027697,0.030893,0.000000
309943255,-0.003267,-0.004463,-0.001956,0.02,-0.28,9.78,33.91,0.028763,0.029828,-0.002131
309944265,-0.003267,-0.003397,-0.003022,0.01,-0.29,9.84,33.92,0.027697,0.029828,-0.003196
309945286,-0.003267,-0.000202,-0.001956,0.01,-0.33,9.86,33.91,0.024501,0.029828,-0.002131
309946285,-0.002201,-0.000202,-0.000891,0.01,-0.33,9.85,33.93,0.024501,0.030893,-0.001065
309947304,-0.000071,-0.000202,-0.000891,0.00,-0.31,9.78,33.91,0.024501,0.033024,-0.001065
309948305,-0.000071,0.000864,0.000174,0.03,-0.30,9.77,33.95,0.023436,0.033024,0.000000
309949315,-0.001136,-0.000202,0.001239,0.04,-0.28,9.83,33.94,0.024501,0.031958,0.001065
309950325,-0.002201,-0.000202,0.000174,0.04,-0.29,9.82,33.93,0.024501,0.030893,0.000000
309951335,-0.002201,0.000864,0.000174,0.02,-0.34,9.76,33.93,0.023436,0.030893,0.000000
309952359,-0.002201,0.001929,-0.000891,0.01,-0.32,9.77,33.93,0.022371,0.030893,-0.001065
309953355,-0.001136,0.001929,-0.001956,0.01,-0.31,9.83,33.94,0.022371,0.031958,-0.002131
309954365,-0.002201,0.000864,-0.003022,0.01,-0.31,9.84,33.93,0.023436,0.030893,-0.003196
309955375,-0.003267,-0.000202,-0.003022,0.01,-0.28,9.85,33.94,0.024501,0.029828,-0.003196
309956385,-0.003267,-0.002332,-0.001956,0.00,-0.29,9.86,34.00,0.026632,0.029828,-0.002131
309957404,-0.002201,-0.003397,0.000174,0.00,-0.31,9.87,34.04,0.027697,0.030893,0.000000
309958405,-0.002201,-0.005528,-0.000891,0.01,-0.34,9.88,33.97,0.029828,0.030893,-0.001065
309959415,-0.001136,-0.006593,-0.000891,0.02,-0.36,9.85,33.94,0.030893,0.031958,-0.001065
309960425,-0.000071,-0.004463,0.000174,0.01,-0.31,9.84,33.92,0.028763,0.033024,0.000000
309961435,-0.001136,-0.002332,0.002305,-0.01,-0.29,9.81,33.92,0.026632,0.031958,0.002131
309962464,-0.001136,-0.000202,0.002305,0.00,-0.29,9.81,33.92,0.024501,0.031958,0.002131
309963455,-0.000071,-0.001267,0.001239,-0.03,-0.30,9.81,33.93,0.025567,0.033024,0.001065
309964465,-0.001136,0.000864,0.000174,-0.01,-0.31,9.80,33.92,0.023436,0.031958,0.000000
309965475,-0.000071,0.002994,-0.000891,0.03,-0.29,9.83,33.93,0.021306,0.033024,-0.001065
309966485,-0.000071,0.002994,-0.000891,-0.01,-0.29,9.85,33.93,0.021306,0.033024,-0.001065
309967504,-0.001136,-0.000202,-0.000891,0.00,-0.29,9.79,33.95,0.024501,0.031958,-0.001065
309968505,-0.001136,-0.000202,-0.000891,0.03,-0.28,9.77,33.97,0.024501,0.031958,-0.001065
309969515,-0.001136,0.000864,0.002305,0.03,-0.31,9.77,33.97,0.023436,0.031958,0.002131
309970525,-0.002201,-0.000202,0.002305,0.04,-0.33,9.78,33.97,0.024501,0.030893,0.002131
309971535,-0.002201,-0.000202,0.000174,0.05,-0.32,9.86,33.92,0.024501,0.030893,0.000000
309972558,-0.002201,0.004060,0.000174,0.04,-0.30,9.85,33.95,0.020240,0.030893,0.000000
309973555,-0.001136,0.006190,0.000174,0.02,-0.27,9.82,33.99,0.018110,0.031958,0.000000
309974565,0.000994,0.002994,0.001239,0.02,-0.26,9.83,33.99,0.021306,0.034089,0.001065
309975575,0.003125,0.001929,0.001239,0.06,-0.28,9.81,33.98,0.022371,0.036220,0.001065
309976585,0.004190,0.000864,-0.000891,0.04,-0.30,9.80,33.95,0.023436,0.037285,-0.001065
309977604,0.002060,-0.000202,-0.004087,0.00,-0.28,9.80,33.94,0.024501,0.035154,-0.004261
309978605,-0.000071,-0.001267,-0.004087,0.01,-0.28,9.77,33.91,0.025567,0.033024,-0.004261
309979615,0.002060,-0.001267,-0.003022,0.03,-0.30,9.80,33.95,0.025567,0.035154,-0.003196
309980625,0.003125,-0.000202,-0.001956,0.06,-0.31,9.83,33.94,0.024501,0.036220,-0.002131
309981647,0.003125,-0.000202,0.000174,0.04,-0.32,9.81,33.92,0.024501,0.036220,0.000000
309982654,0.005256,-0.000202,0.002305,0.00,-0.30,9.80,33.94,0.024501,0.038350,0.002131
309983655,0.005256,-0.001267,0.002305,0.04,-0.30,9.78,33.91,0.025567,0.038350,0.002131
309984689,0.002066,-0.000210,0.001276,0.06,-0.30,9.83,33.93,0.024501,0.035154,0.001065
309985675,-0.000064,0.000855,0.000210,0.04,-0.28,9.85,33.95,0.023436,0.033024,0.000000
309986685,-0.001130,0.000855,0.000210,0.02,-0.29,9.83,33.94,0.023436,0.031958,0.000000
309987703,-0.001130,0.000855,-0.000855,0.01,-0.33,9.83,33.92,0.023436,0.031958,-0.001065
309988705,-0.000064,-0.001276,-0.001920,0.00,-0.30,9.78,33.89,0.025567,0.033024,-0.002131
309989715,-0.000064,-0.002341,-0.001920,0.00,-0.26,9.78,33.89,0.026632,0.033024,-0.002131
309990725,-0.000064,-0.002341,-0.000855,0.02,-0.28,9.80,33.91,0.026632,0.033024,-0.001065
309991743,-0.000064,-0.001276,0.001276,-0.02,-0.30,9.79,33.95,0.025567,0.033024,0.001065
309992752,-0.000064,0.001920,0.002341,-0.03,-0.34,9.83,33.93,0.022371,0.033024,0.002131
309993755,-0.001130,0.002985,0.002341,0.01,-0.32,9.88,33.93,0.021306,0.031958,0.002131
309994765,-0.001130,0.001920,0.001276,0.01,-0.32,9.85,33.95,0.022371,0.031958,0.001065
309995775,0.001001,-0.000210,0.001276,-0.01,-0.31,9.80,33.94,0.024501,0.034089,0.001065
309996785,0.004197,-0.001276,-0.000855,-0.02,-0.31,9.78,33.98,0.025567,0.037285,-0.001065
309997803,0.004197,-0.002341,0.000210,0.00,-0.32,9.76,33.98,0.026632,0.037285,0.000000
309998805,0.002066,-0.000210,0.001276,0.02,-0.31,9.77,33.93,0.024501,0.035154,0.001065
309999815,-0.001130,-0.000210,0.000210,0.03,-0.31,9.75,33.96,0.024501,0.031958,0.000000
310000839,-0.002195,-0.000210,-0.001920,0.01,-0.30,9.76,33.97,0.024501,0.030893,-0.002131
310001851,-0.000064,-0.000210,-0.002986,0.01,-0.32,9.80,33.96,0.024501,0.033024,-0.003196
310002854,-0.000064,0.000855,-0.002986,0.03,-0.34,9.81,33.94,0.023436,0.033024,-0.003196
310003855,-0.000064,-0.000210,-0.001920,0.04,-0.34,9.81,33.95,0.024501,0.033024,-0.002131
310004865,0.001001,-0.001276,-0.000855,0.03,-0.28,9.81,33.94,0.025567,0.034089,-0.001065
310005875,0.002066,-0.000210,0.001276,0.01,-0.27,9.82,33.99,0.024501,0.035154,0.001065
310006885,0.002066,0.000855,0.002341,0.00,-0.28,9.85,33.96,0.023436,0.035154,0.002131
310007903,0.001001,0.002985,0.002341,0.00,-0.29,9.86,33.95,0.021306,0.034089,0.002131
310008905,-0.000064,0.002985,0.000210,0.03,-0.29,9.84,33.96,0.021306,0.033024,0.000000
310009915,-0.000064,0.001920,-0.000855,0.02,-0.26,9.85,33.98,0.022371,0.033024,-0.001065
310010925,-0.000064,0.000855,-0.000855,0.02,-0.26,9.86,33.98,0.023436,0.033024,-0.001065
310011943,0.001001,-0.001276,0.000210,0.03,-0.28,9.84,33.98,0.025567,0.034089,0.000000
310012952,0.002066,-0.001276,0.001276,0.05,-0.30,9.84,33.97,0.025567,0.035154,0.001065
310013957,0.003132,-0.000210,-0.000855,0.00,-0.30,9.83,33.95,0.024501,0.036220,-0.001065
310014966,0.001001,0.000855,-0.004051,0.00,-0.30,9.78,33.94,0.023436,0.034089,-0.004261
310015978,-0.002195,0.002985,-0.001920,0.05,-0.30,9.81,33.97,0.021306,0.030893,-0.002131
310016994,-0.003260,0.002985,0.000210,0.05,-0.28,9.83,33.93,0.021306,0.029828,0.000000
310018008,-0.001130,0.000855,0.001276,0.06,-0.28,9.83,33.89,0.023436,0.031958,0.001065
310019012,-0.002195,-0.001276,0.001276,0.06,-0.32,9.83,33.95,0.025567,0.030893,0.001065
310020022,-0.003260,-0.003406,0.001276,0.01,-0.30,9.80,33.98,0.027697,0.029828,0.001065
310021035,-0.003260,-0.004471,0.001276,-0.01,-0.28,9.80,33.98,0.028763,0.029828,0.001065
310022056,-0.000064,-0.003406,0.000210,0.03,-0.29,9.82,33.96,0.027697,0.033024,0.000000
310023068,0.001001,-0.000210,0.000210,0.01,-0.30,9.84,33.94,0.024501,0.034089,0.000000
310024069,-0.000064,0.001920,0.001276,0.02,-0.30,9.81,33.94,0.022371,0.033024,0.001065
310025076,-0.001130,0.001920,-0.001920,0.01,-0.31,9.78,33.96,0.022371,0.031958,-0.002131
310026086,-0.000064,-0.000210,-0.004051,0.03,-0.33,9.79,33.99,0.024501,0.033024,-0.004261
310027106,-0.002195,-0.002341,-0.004051,0.08,-0.34,9.80,33.98,0.026632,0.030893,-0.004261
310028113,-0.003260,-0.003406,-0.002986,0.06,-0.31,9.80,33.97,0.027697,0.029828,-0.003196
310029115,-0.001130,-0.004471,-0.001920,0.04,-0.27,9.85,33.95,0.028763,0.031958,-0.002131
310030128,0.001001,-0.003406,0.001276,0.04,-0.29,9.80,33.93,0.027697,0.034089,0.001065
310031139,-0.000064,-0.002341,0.003406,0.01,-0.27,9.74,33.91,0.026632,0.033024,0.003196
310032149,-0.000064,-0.002341,0.001276,0.03,-0.28,9.79,33.92,0.026632,0.033024,0.001065
310033158,0.002066,-0.002341,-0.001920,0.07,-0.35,9.83,33.95,0.026632,0.035154,-0.002131
310034158,0.003132,-0.002341,-0.002986,0.05,-0.36,9.84,33.93,0.026632,0.036220,-0.003196
310035168,-0.001130,-0.002341,0.001276,0.01,-0.34,9.81,33.93,0.026632,0.031958,0.001065
310036175,-0.002195,-0.001276,0.003406,0.00,-0.31,9.84,33.93,0.025567,0.030893,0.003196
310037189,0.001001,-0.000210,0.002341,-0.01,-0.31,9.81,33.95,0.024501,0.034089,0.002131
310038207,0.003132,0.000855,-0.000855,-0.01,-0.35,9.80,33.96,0.023436,0.036220,-0.001065
310039208,0.003132,0.001920,-0.001920,0.01,-0.35,9.84,33.92,0.022371,0.036220,-0.002131
310040217,0.002066,0.001920,-0.000855,0.01,-0.33,9.82,33.91,0.022371,0.035154,-0.001065
310041225,0.001001,0.002985,0.001276,0.00,-0.33,9.82,33.94,0.021306,0.034089,0.001065
310042247,-0.000064,0.000855,-0.001920,0.00,-0.30,9.84,33.96,0.023436,0.033024,-0.002131
310043254,-0.001130,-0.000210,-0.002986,0.02,-0.30,9.86,33.97,0.024501,0.031958,-0.003196
310044255,-0.002195,-0.000210,-0.002986,0.00,-0.29,9.85,33.98,0.024501,0.030893,-0.003196
310045265,-0.003260,0.000855,-0.000855,0.01,-0.30,9.85,33.98,0.023436,0.029828,-0.001065
310046275,-0.001130,0.000855,-0.000855,0.02,-0.32,9.83,33.93,0.023436,0.031958,-0.001065
310047318,-0.000064,0.001920,-0.002986,0.00,-0.33,9.82,33.91,0.022371,0.033024,-0.003196
310048303,0.001001,-0.000210,-0.002986,0.00,-0.36,9.79,33.93,0.024501,0.034089,-0.003196
310049305,0.001001,-0.000210,-0.001920,0.02,-0.35,9.81,33.98,0.024501,0.034089,-0.002131
310050315,0.002066,0.000855,0.000210,0.02,-0.32,9.88,33.97,0.023436,0.035154,0.000000
310051325,-0.000064,0.000855,0.003406,0.03,-0.34,9.86,33.95,0.023436,0.033024,0.003196
310052343,-0.002195,0.000855,0.003406,0.05,-0.32,9.85,33.93,0.023436,0.030893,0.003196
310053352,-0.001130,0.000855,-0.001920,0.03,-0.31,9.83,33.95,0.023436,0.031958,-0.002131
310054355,0.001001,-0.000210,-0.002986,0.01,-0.32,9.83,33.92,0.024501,0.034089,-0.003196
310055365,0.002066,-0.000210,-0.000855,0.01,-0.34,9.83,33.91,0.024501,0.035154,-0.001065
310056375,0.003132,-0.002341,0.000210,0.00,-0.33,9.79,33.97,0.026632,0.036220,0.000000
310057385,0.002066,-0.002341,0.000210,0.00,-0.31,9.82,34.00,0.026632,0.035154,0.000000
310058403,0.002066,0.000855,0.000210,0.04,-0.29,9.80,33.97,0.023436,0.035154,0.000000
310059405,0.003132,0.000855,0.000210,0.05,-0.29,9.79,33.95,0.023436,0.036220,0.000000
310060415,0.004197,-0.000210,0.001276,0.04,-0.30,9.84,33.97,0.024501,0.037285,0.001065
310061425,0.004197,-0.002341,0.002341,0.01,-0.29,9.82,33.96,0.026632,0.037285,0.002131
310062447,0.001001,-0.002341,0.001276,0.00,-0.31,9.78,33.94,0.026632,0.034089,0.001065
310063454,-0.001130,-0.000210,0.000210,0.03,-0.34,9.84,33.94,0.024501,0.031958,0.000000
310064455,-0.000064,0.001920,0.001276,0.04,-0.32,9.86,33.95,0.022371,0.033024,0.001065
310065465,0.001001,0.002985,0.002341,0.04,-0.30,9.80,33.98,0.021306,0.034089,0.002131
310066475,-0.000064,-0.000210,0.003406,0.04,-0.31,9.83,33.95,0.024501,0.033024,0.003196
310067485,-0.002195,-0.002341,0.000210,0.04,-0.31,9.84,33.95,0.026632,0.030893,0.000000
310068503,-0.001130,-0.000210,0.000210,0.03,-0.30,9.81,33.96,0.024501,0.031958,0.000000
310069505,-0.000064,-0.001276,0.001276,0.00,-0.30,9.79,33.95,0.025567,0.033024,0.001065
310070515,0.001001,-0.002341,0.001276,-0.01,-0.33,9.80,33.96,0.026632,0.034089,0.001065
310071525,-0.000064,0.000855,0.000210,0.04,-0.33,9.83,33.96,0.023436,0.033024,0.000000
310072544,-0.000064,0.001920,-0.000855,0.03,-0.29,9.82,33.95,0.022371,0.033024,-0.001065
310073552,0.001001,-0.000210,-0.001920,-0.01,-0.30,9.78,33.94,0.024501,0.034089,-0.002131
310074555,0.003132,-0.000210,-0.001920,0.00,-0.34,9.78,33.95,0.024501,0.036220,-0.002131
310075565,0.001001,-0.002341,-0.001920,0.04,-0.34,9.79,33.96,0.026632,0.034089,-0.002131
310076575,-0.002195,-0.003406,-0.001920,0.02,-0.32,9.81,33.95,0.027697,0.030893,-0.002131
310077585,-0.001130,-0.002341,-0.000855,0.01,-0.29,9.81,33.94,0.026632,0.031958,-0.001065
310078603,0.001001,-0.001276,-0.001920,0.03,-0.31,9.82,33.95,0.025567,0.034089,-0.002131
310079605,0.002066,-0.000210,-0.001920,0.03,-0.33,9.80,33.93,0.024501,0.035154,-0.002131
310080615,0.001001,-0.000210,-0.000855,0.06,-0.32,9.79,33.92,0.024501,0.034089,-0.001065
310081635,-0.000064,-0.002341,-0.000855,0.05,-0.33,9.82,33.95,0.026632,0.033024,-0.001065
310082635,-0.001130,-0.002341,-0.000855,0.01,-0.34,9.82,33.93,0.026632,0.031958,-0.001065
310083654,0.001001,-0.002341,-0.000855,0.01,-0.33,9.81,33.93,0.026632,0.034089,-0.001065
310084655,0.003132,-0.002341,0.000210,0.06,-0.32,9.83,33.95,0.026632,0.036220,0.000000
310085665,0.002066,-0.002341,0.001276,0.03,-0.32,9.81,33.93,0.026632,0.035154,0.001065
310086675,-0.001130,-0.002341,0.001276,0.01,-0.30,9.82,33.91,0.026632,0.031958,0.001065
310087685,-0.003260,-0.002341,0.002341,0.04,-0.29,9.85,33.96,0.026632,0.029828,0.002131
310088703,-0.002195,-0.001276,0.002341,0.03,-0.31,9.86,33.97,0.025567,0.030893,0.002131
310089705,-0.001130,-0.000210,0.001276,0.00,-0.31,9.80,33.98,0.024501,0.031958,0.001065
310090715,-0.001130,-0.000210,0.001276,0.02,-0.31,9.77,33.94,0.024501,0.031958,0.001065
310091734,-0.002195,-0.001276,0.003406,0.02,-0.31,9.85,33.98,0.025567,0.030893,0.003196
310092735,-0.004325,-0.003406,0.003406,-0.01,-0.33,9.87,33.99,0.027697,0.028763,0.003196
310093752,-0.005391,-0.002341,0.002341,0.00,-0.35,9.85,33.96,0.026632,0.027697,0.002131
310094755,-0.004325,-0.001276,0.001276,0.02,-0.33,9.84,33.96,0.025567,0.028763,0.001065
310095765,-0.002195,-0.000210,0.000210,0.01,-0.31,9.82,33.89,0.024501,0.030893,0.000000
310096775,-0.001130,0.001920,0.000210,0.03,-0.29,9.84,33.95,0.022371,0.031958,0.000000
310097785,-0.001130,0.004051,0.000210,0.01,-0.33,9.82,33.93,0.020240,0.031958,0.000000
310098803,-0.002195,0.004051,-0.000855,-0.02,-0.35,9.82,33.95,0.020240,0.030893,-0.001065
310099805,-0.001130,0.001920,-0.000855,0.01,-0.30,9.85,33.95,0.022371,0.031958,-0.001065
310100815,-0.000064,-0.000210,-0.000855,-0.02,-0.29,9.80,33.93,0.024501,0.033024,-0.001065
310101837,0.001001,-0.000210,0.000210,-0.02,-0.30,9.76,33.93,0.024501,0.034089,0.000000
310102835,0.001001,0.000855,0.001276,-0.01,-0.30,9.77,33.94,0.023436,0.034089,0.001065
310103854,-0.002195,0.001920,0.002341,0.00,-0.34,9.77,33.95,0.022371,0.030893,0.002131
310104855,-0.004325,0.001920,0.000210,0.00,-0.31,9.77,33.98,0.022371,0.028763,0.000000
310105865,-0.004325,0.004051,-0.000855,0.00,-0.25,9.82,33.99,0.020240,0.028763,-0.001065
310106875,-0.002195,0.001920,-0.001920,0.02,-0.25,9.84,34.00,0.022371,0.030893,-0.002131
310107885,-0.001130,-0.000210,-0.001920,0.01,-0.28,9.84,33.98,0.024501,0.031958,-0.002131
310108903,-0.000064,-0.000210,-0.000855,0.01,-0.29,9.82,33.98,0.024501,0.033024,-0.001065
310109905,0.002066,0.001920,-0.000855,-0.02,-0.28,9.83,33.99,0.022371,0.035154,-0.001065
310110915,0.001001,0.000855,0.000210,-0.01,-0.29,9.85,33.96,0.023436,0.034089,0.000000
310111933,-0.001130,-0.000210,0.000210,0.03,-0.31,9.82,33.93,0.024501,0.031958,0.000000
310112935,-0.004325,-0.002341,0.000210,0.03,-0.31,9.84,33.93,0.026632,0.028763,0.000000
310113981,-0.006434,-0.003373,-0.000845,0.01,-0.31,9.82,33.95,0.027697,0.026632,-0.001065
310114956,-0.003238,-0.002308,-0.001911,0.02,-0.32,9.81,33.95,0.026632,0.029828,-0.002131
310115966,-0.000043,-0.000177,-0.001911,0.01,-0.33,9.81,33.95,0.024501,0.033024,-0.002131
310116976,0.001023,0.004084,0.001285,-0.02,-0.34,9.79,33.94,0.020240,0.034089,0.001065
310117993,0.002088,0.005149,0.001285,-0.02,-0.32,9.80,33.93,0.019175,0.035154,0.001065
310119010,0.001023,0.003019,0.001285,-0.01,-0.29,9.79,33.96,0.021306,0.034089,0.001065
310120011,-0.000043,0.001954,0.000220,0.01,-0.29,9.79,33.98,0.022371,0.033024,0.000000
310121030,-0.000043,-0.000177,0.001285,0.01,-0.30,9.79,33.97,0.024501,0.033024,0.001065
310122046,0.001023,-0.002308,0.002351,0.03,-0.28,9.79,34.01,0.026632,0.034089,0.002131
310123041,-0.000043,-0.001242,0.002351,0.02,-0.28,9.80,33.97,0.025567,0.033024,0.002131
310124066,-0.002173,0.000888,0.000220,0.02,-0.31,9.78,33.96,0.023436,0.030893,0.000000
310125069,-0.003238,0.000888,-0.001911,0.02,-0.34,9.81,33.96,0.023436,0.029828,-0.002131
310126075,-0.002173,-0.000177,-0.001911,0.01,-0.34,9.81,33.97,0.024501,0.030893,-0.002131
310127090,-0.001108,-0.002308,-0.001911,0.03,-0.34,9.79,33.93,0.026632,0.031958,-0.002131
310128095,-0.003238,-0.003373,-0.001911,0.03,-0.33,9.83,33.97,0.027697,0.029828,-0.002131
310129114,-0.003238,-0.002308,0.000220,0.01,-0.33,9.88,33.98,0.026632,0.029828,0.000000
310130118,-0.002173,-0.001242,0.000220,0.01,-0.33,9.85,33.98,0.025567,0.030893,0.000000
310131126,-0.001108,-0.001242,-0.001911,0.01,-0.31,9.82,33.95,0.025567,0.031958,-0.002131
310132145,0.001023,-0.000177,-0.001911,0.02,-0.31,9.89,33.97,0.024501,0.034089,-0.002131
310133141,0.002088,0.000888,-0.000845,0.01,-0.31,9.84,33.99,0.023436,0.035154,-0.001065
310134157,0.004219,0.000888,0.000220,0.01,-0.29,9.78,33.98,0.023436,0.037285,0.000000
310135158,0.004219,0.003019,0.000220,0.01,-0.30,9.85,33.96,0.021306,0.037285,0.000000
310136168,0.003153,0.003019,0.000220,0.01,-0.29,9.86,33.96,0.021306,0.036220,0.000000
310137175,0.002088,0.001954,0.001285,0.01,-0.28,9.82,33.99,0.022371,0.035154,0.001065
310138189,0.002088,0.000888,0.003416,-0.01,-0.33,9.80,33.94,0.023436,0.035154,0.003196
310139207,0.002088,-0.000177,0.003416,0.01,-0.38,9.82,33.95,0.024501,0.035154,0.003196
310140208,0.002088,0.000888,0.001285,0.03,-0.35,9.81,33.96,0.023436,0.035154,0.001065
310141217,-0.000043,0.003019,0.000220,0.02,-0.32,9.84,34.00,0.021306,0.033024,0.000000
310142237,0.002088,-0.000177,0.000220,0.02,-0.33,9.86,33.98,0.024501,0.035154,0.000000
310143236,0.003153,-0.001242,0.000220,0.04,-0.29,9.82,33.96,0.025567,0.036220,0.000000
310144254,0.002088,-0.001242,0.000220,0.05,-0.30,9.83,33.96,0.025567,0.035154,0.000000
310145255,-0.002173,-0.001242,0.000220,0.03,-0.32,9.84,33.96,0.025567,0.030893,0.000000
310146265,-0.003238,-0.002308,0.001285,0.01,-0.30,9.82,33.98,0.026632,0.029828,0.001065
310147275,-0.002173,-0.005503,0.002351,0.02,-0.29,9.82,33.99,0.029828,0.030893,0.002131
310148285,-0.001108,-0.004438,0.001285,0.01,-0.30,9.84,33.98,0.028763,0.031958,0.001065
310149330,-0.001108,-0.002308,-0.000845,-0.01,-0.30,9.82,33.97,0.026632,0.031958,-0.001065
310150305,-0.000043,-0.002308,-0.000845,0.01,-0.31,9.77,33.95,0.026632,0.033024,-0.001065
310151315,0.001023,-0.001242,0.000220,0.03,-0.30,9.74,33.93,0.025567,0.034089,0.000000
310152333,-0.000043,-0.001242,0.000220,0.01,-0.31,9.79,33.97,0.025567,0.033024,0.000000
310153335,-0.000043,-0.002308,0.001285,-0.01,-0.32,9.81,33.95,0.026632,0.033024,0.001065
310154352,-0.001108,-0.000177,0.002351,0.01,-0.31,9.77,33.97,0.024501,0.031958,0.002131
310155355,-0.001108,0.003019,0.004481,0.02,-0.30,9.77,33.97,0.021306,0.031958,0.004261
310156365,-0.002173,0.003019,0.003416,0.01,-0.32,9.83,33.98,0.021306,0.030893,0.003196
310157375,-0.001108,-0.000177,0.002351,0.01,-0.32,9.86,33.95,0.024501,0.031958,0.002131
310158385,-0.002173,-0.001242,0.003416,0.03,-0.32,9.82,33.90,0.025567,0.030893,0.003196
310159403,-0.003238,-0.000177,0.004481,0.05,-0.30,9.82,33.95,0.024501,0.029828,0.004261
310160405,-0.005369,0.000888,0.002351,0.03,-0.31,9.80,33.95,0.023436,0.027697,0.002131
310161415,-0.005369,0.001954,-0.000845,0.02,-0.32,9.79,33.97,0.022371,0.027697,-0.001065
310162437,-0.004304,0.001954,-0.002976,0.00,-0.30,9.81,33.94,0.022371,0.028763,-0.003196
310163435,-0.002173,0.000888,-0.002976,0.01,-0.30,9.82,33.93,0.023436,0.030893,-0.003196
310164454,-0.002173,-0.001242,-0.000845,0.03,-0.31,9.80,33.95,0.025567,0.030893,-0.001065
310165455,-0.001108,-0.001242,0.001285,0.03,-0.31,9.78,33.94,0.025567,0.031958,0.001065
310166465,-0.001108,-0.000177,0.001285,0.02,-0.30,9.80,33.92,0.024501,0.031958,0.001065
310167475,-0.000043,-0.000177,0.001285,0.02,-0.31,9.82,33.94,0.024501,0.033024,0.001065
310168485,0.001023,-0.002308,-0.000845,0.03,-0.29,9.82,33.96,0.026632,0.034089,-0.001065
310169503,-0.000043,-0.002308,-0.000845,0.04,-0.30,9.83,33.99,0.026632,0.033024,-0.001065
310170505,-0.000043,-0.000177,0.000220,0.06,-0.31,9.80,34.00,0.024501,0.033024,0.000000
310171515,-0.000043,0.000888,0.002351,0.03,-0.31,9.79,33.94,0.023436,0.033024,0.002131
310172534,-0.001108,-0.000177,0.001285,0.01,-0.31,9.83,33.92,0.024501,0.031958,0.001065
310173535,-0.002173,-0.001242,-0.000845,0.04,-0.30,9.86,33.94,0.025567,0.030893,-0.001065
310174552,-0.002173,-0.000177,-0.001911,0.01,-0.29,9.86,33.95,0.024501,0.030893,-0.002131
310175555,-0.001108,0.001954,-0.000845,-0.02,-0.31,9.86,33.95,0.022371,0.031958,-0.001065
310176565,-0.000043,0.001954,-0.000845,-0.01,-0.32,9.87,33.95,0.022371,0.033024,-0.001065
310177575,-0.000043,0.000888,-0.000845,0.01,-0.30,9.84,33.92,0.023436,0.033024,-0.001065
310178585,-0.001108,0.000888,-0.000845,0.03,-0.33,9.77,33.96,0.023436,0.031958,-0.001065
310179603,-0.002173,0.000888,0.000220,0.00,-0.34,9.76,33.95,0.023436,0.030893,0.000000
310180605,-0.001108,0.000888,0.001285,0.01,-0.30,9.74,33.93,0.023436,0.031958,0.001065
310181615,-0.001108,0.000888,0.000220,0.05,-0.27,9.75,33.93,0.023436,0.031958,0.000000
310182635,-0.002173,0.000888,0.001285,0.03,-0.28,9.76,33.95,0.023436,0.030893,0.001065
310183635,-0.001108,0.000888,0.000220,0.02,-0.26,9.78,33.95,0.023436,0.031958,0.000000
310184654,-0.001108,0.000888,0.000220,0.01,-0.25,9.82,33.96,0.023436,0.031958,0.000000
310185655,0.001023,0.001954,0.000220,0.03,-0.31,9.78,33.95,0.022371,0.034089,0.000000
310186665,0.003153,0.000888,0.000220,0.04,-0.30,9.79,33.96,0.023436,0.036220,0.000000
310187675,0.002088,0.000888,0.000220,0.01,-0.30,9.83,33.92,0.023436,0.035154,0.000000
310188685,0.001023,0.000888,0.000220,0.00,-0.30,9.85,33.93,0.023436,0.034089,0.000000
310189703,-0.000043,-0.000177,0.000220,0.02,-0.30,9.83,33.95,0.024501,0.033024,0.000000
310190705,-0.000043,-0.001242,0.000220,0.03,-0.32,9.83,33.95,0.025567,0.033024,0.000000
310191724,-0.000043,-0.000177,-0.000845,0.01,-0.29,9.83,33.96,0.024501,0.033024,-0.001065
310192725,-0.001108,0.001954,-0.000845,-0.01,-0.30,9.81,33.96,0.022371,0.031958,-0.001065
310193735,-0.000043,0.000888,-0.000845,-0.01,-0.30,9.80,33.96,0.023436,0.033024,-0.001065
310194752,-0.000043,-0.000177,-0.001911,0.04,-0.28,9.80,33.97,0.024501,0.033024,-0.002131
310195755,-0.000043,-0.000177,-0.000845,0.03,-0.31,9.81,33.92,0.024501,0.033024,-0.001065
310196779,-0.000043,-0.000177,-0.000845,0.03,-0.33,9.80,33.96,0.024501,0.033024,-0.001065
310197774,-0.000043,-0.000177,0.000220,0.04,-0.32,9.86,33.98,0.024501,0.033024,0.000000
310198784,0.001023,0.001954,0.000220,0.02,-0.30,9.91,33.98,0.022371,0.034089,0.000000
310199831,-0.000043,0.001954,0.000220,0.00,-0.29,9.84,34.00,0.022371,0.033024,0.000000
310200830,-0.001108,-0.001242,0.001285,0.00,-0.31,9.82,33.97,0.025567,0.031958,0.001065
310201824,-0.001108,-0.002308,0.001285,0.02,-0.33,9.86,33.95,0.026632,0.031958,0.001065
310202824,0.001023,-0.001242,-0.000845,0.01,-0.32,9.84,33.94,0.025567,0.034089,-0.001065
310203834,0.002088,-0.000177,-0.001911,-0.01,-0.30,9.83,33.88,0.024501,0.035154,-0.002131
310204853,0.002088,0.000888,-0.001911,-0.02,-0.28,9.80,33.88,0.023436,0.035154,-0.002131
310205870,0.001023,0.000888,-0.000845,-0.02,-0.29,9.77,33.91,0.023436,0.034089,-0.001065
310206865,-0.001108,0.000888,-0.000845,0.00,-0.32,9.79,33.92,0.023436,0.031958,-0.001065
310207875,-0.001108,0.000888,-0.001911,-0.02,-0.31,9.81,33.95,0.023436,0.031958,-0.002131
310208885,-0.000043,0.000888,-0.000845,-0.02,-0.32,9.85,33.91,0.023436,0.033024,-0.001065
310209903,-0.001108,0.000888,0.001285,0.02,-0.34,9.84,33.95,0.023436,0.031958,0.001065
310210905,-0.001108,0.001954,0.002351,0.04,-0.35,9.81,33.95,0.022371,0.031958,0.002131
310211925,-0.000043,0.003019,0.001285,0.02,-0.35,9.82,33.96,0.021306,0.033024,0.001065
310212925,-0.000043,0.000888,-0.000845,0.01,-0.32,9.83,33.94,0.023436,0.033024,-0.001065
310213935,-0.001108,-0.001242,-0.001911,0.01,-0.29,9.82,33.95,0.025567,0.031958,-0.002131
310214952,-0.003238,-0.000177,-0.000845,0.01,-0.28,9.79,33.96,0.024501,0.029828,-0.001065
310215969,-0.003238,0.000888,0.001285,0.01,-0.30,9.84,33.94,0.023436,0.029828,0.001065
310216966,-0.002173,0.000888,0.001285,0.03,-0.31,9.85,33.95,0.023436,0.030893,0.001065
310217978,-0.001108,-0.002308,0.000220,0.03,-0.31,9.81,33.94,0.026632,0.031958,0.000000
310218994,-0.001108,-0.003373,0.000220,0.01,-0.33,9.78,33.93,0.027697,0.031958,0.000000
310220008,-0.002173,-0.002308,0.000220,0.00,-0.31,9.75,33.94,0.026632,0.030893,0.000000
310221011,-0.002173,-0.000177,0.000220,0.01,-0.27,9.78,33.98,0.024501,0.030893,0.000000
310222038,-0.001108,0.001954,0.000220,0.01,-0.28,9.86,33.99,0.022371,0.031958,0.000000
310223034,0.001023,0.000888,0.001285,-0.01,-0.30,9.90,33.96,0.023436,0.034089,0.001065
310224041,0.002088,-0.000177,0.000220,-0.01,-0.31,9.90,33.91,0.024501,0.035154,0.000000
310225066,0.001023,-0.000177,-0.001911,0.01,-0.32,9.87,33.92,0.024501,0.034089,-0.002131
310226086,-0.001108,-0.000177,-0.001911,0.02,-0.30,9.82,33.93,0.024501,0.031958,-0.002131
310227080,-0.002173,-0.000177,0.000220,0.03,-0.30,9.79,33.95,0.024501,0.030893,0.000000
310228088,-0.002173,-0.001242,0.001285,0.03,-0.31,9.80,33.96,0.025567,0.030893,0.001065
310229089,-0.000043,-0.000177,0.001285,0.04,-0.32,9.86,33.90,0.024501,0.033024,0.001065
310230118,0.001023,-0.000177,0.000220,0.04,-0.33,9.92,33.89,0.024501,0.034089,0.000000
310231115,-0.000043,-0.001242,-0.001911,0.00,-0.31,9.85,33.91,0.025567,0.033024,-0.002131
310232135,-0.000043,-0.002308,-0.002976,0.00,-0.30,9.86,33.98,0.026632,0.033024,-0.003196
310233138,-0.001108,-0.000177,-0.002976,0.00,-0.29,9.83,33.96,0.024501,0.031958,-0.003196
310234141,-0.001108,0.000888,-0.000845,0.04,-0.30,9.78,33.95,0.023436,0.031958,-0.001065
310235158,-0.001108,-0.000177,0.000220,0.08,-0.32,9.78,33.95,0.024501,0.031958,0.000000
310236173,-0.001108,-0.001242,0.002351,0.09,-0.29,9.80,33.98,0.025567,0.031958,0.002131
310237190,-0.001108,-0.003373,0.004481,0.08,-0.28,9.81,33.98,0.027697,0.031958,0.004261
310238174,-0.001108,-0.003373,0.003416,0.05,-0.28,9.78,33.95,0.027697,0.031958,0.003196
310239188,-0.001108,-0.001242,0.002351,0.04,-0.27,9.74,33.98,0.025567,0.031958,0.002131
310240206,0.001023,0.000888,0.001285,0.03,-0.29,9.73,33.99,0.023436,0.034089,0.001065
310241207,0.002088,0.000888,0.000220,0.04,-0.31,9.75,33.96,0.023436,0.035154,0.000000
310242226,-0.000043,-0.000177,0.000220,0.04,-0.31,9.77,33.94,0.024501,0.033024,0.000000
310243246,-0.002115,-0.000175,-0.000873,0.04,-0.29,9.79,33.98,0.024501,0.030893,-0.001065
310244234,0.000016,0.000891,-0.003003,0.04,-0.31,9.80,33.95,0.023436,0.033024,-0.003196
310245265,0.001081,-0.000175,-0.003003,0.04,-0.30,9.83,33.94,0.024501,0.034089,-0.003196
310246270,0.000016,-0.002305,-0.004069,0.02,-0.29,9.84,33.95,0.026632,0.033024,-0.004261
310247265,0.000016,-0.002305,-0.005134,0.01,-0.32,9.82,33.98,0.026632,0.033024,-0.005326
310248275,0.000016,-0.000175,-0.004069,0.00,-0.32,9.78,33.96,0.024501,0.033024,-0.004261
310249285,0.001081,-0.000175,-0.003003,-0.02,-0.29,9.82,33.96,0.024501,0.034089,-0.003196
310250303,-0.001050,-0.000175,0.000193,0.01,-0.29,9.84,33.96,0.024501,0.031958,0.000000
310251305,-0.002115,-0.001240,0.002323,0.05,-0.29,9.85,33.96,0.025567,0.030893,0.002131
310252368,0.000016,-0.001240,0.002323,0.00,-0.28,9.88,33.94,0.025567,0.033024,0.002131
310253360,0.002146,-0.001240,0.001258,-0.02,-0.29,9.84,33.96,0.025567,0.035154,0.001065
310254335,0.000016,-0.002305,0.000193,-0.01,-0.31,9.84,33.98,0.026632,0.033024,0.000000
310255352,-0.002115,-0.001240,-0.000873,-0.02,-0.31,9.83,33.94,0.025567,0.030893,-0.001065
310256369,-0.002115,-0.000175,0.001258,0.00,-0.30,9.80,33.98,0.024501,0.030893,0.001065
310257364,-0.001050,0.000891,0.003388,0.03,-0.30,9.80,33.97,0.023436,0.031958,0.003196
310258374,-0.001050,-0.000175,0.002323,0.05,-0.29,9.82,33.97,0.024501,0.031958,0.002131
310259384,-0.001050,0.000891,0.001258,0.02,-0.30,9.81,33.95,0.023436,0.031958,0.001065
310260402,-0.002115,0.001956,0.000193,-0.02,-0.28,9.79,33.95,0.022371,0.030893,0.000000
310261404,-0.002115,0.004086,0.001258,0.01,-0.29,9.77,33.93,0.020240,0.030893,0.001065
310262424,-0.001050,0.004086,0.001258,0.02,-0.33,9.76,33.91,0.020240,0.031958,0.001065
310263424,-0.001050,0.004086,0.000193,0.00,-0.32,9.78,33.91,0.020240,0.031958,0.000000
310264434,-0.001050,0.001956,0.000193,0.00,-0.32,9.78,33.89,0.022371,0.031958,0.000000
310265453,-0.001050,-0.001240,0.000193,0.03,-0.31,9.76,33.90,0.025567,0.031958,0.000000
310266470,-0.001050,-0.002305,0.001258,0.04,-0.27,9.81,33.94,0.026632,0.031958,0.001065
310267465,-0.002115,-0.001240,0.003388,0.02,-0.31,9.82,33.96,0.025567,0.030893,0.003196
310268475,-0.004245,0.000891,0.003388,0.00,-0.32,9.79,33.93,0.023436,0.028763,0.003196
310269485,-0.002115,-0.000175,-0.000873,0.00,-0.33,9.77,33.96,0.024501,0.030893,-0.001065
310270503,0.001081,-0.001240,-0.005134,0.02,-0.34,9.76,33.96,0.025567,0.034089,-0.005326
310271505,0.002146,-0.000175,-0.005134,0.02,-0.30,9.78,33.97,0.024501,0.035154,-0.005326
310272524,0.002146,0.003021,-0.003003,0.02,-0.30,9.86,33.97,0.021306,0.035154,-0.003196
310273525,0.000016,0.004086,-0.000873,0.03,-0.32,9.90,33.97,0.020240,0.033024,-0.001065
310274535,-0.001050,0.003021,0.001258,0.01,-0.31,9.82,33.95,0.021306,0.031958,0.001065
310275552,-0.001050,0.003021,0.000193,0.01,-0.29,9.80,33.96,0.021306,0.031958,0.000000
310276569,0.000016,0.001956,-0.001938,0.01,-0.32,9.81,34.02,0.022371,0.033024,-0.002131
310277564,0.000016,-0.002305,-0.001938,0.01,-0.34,9.86,33.99,0.026632,0.033024,-0.002131
310278574,-0.002115,-0.003371,-0.001938,0.01,-0.33,9.87,33.97,0.027697,0.030893,-0.002131
310279584,-0.004245,-0.002305,0.000193,0.00,-0.32,9.79,33.94,0.026632,0.028763,0.000000
310280602,-0.003180,-0.000175,0.001258,0.01,-0.31,9.79,33.94,0.024501,0.029828,0.001065
310281615,0.001081,-0.002305,0.000193,-0.02,-0.29,9.80,33.93,0.026632,0.034089,0.000000
310282614,0.001081,-0.002305,-0.001938,-0.02,-0.33,9.83,33.93,0.026632,0.034089,-0.002131
310283624,0.000016,-0.002305,-0.001938,0.00,-0.32,9.86,33.96,0.026632,0.033024,-0.002131
310284634,-0.001050,-0.001240,-0.001938,0.01,-0.30,9.82,33.97,0.025567,0.031958,-0.002131
310285653,-0.002115,0.000891,-0.001938,0.01,-0.30,9.80,33.94,0.023436,0.030893,-0.002131
310286670,-0.002115,0.003021,0.000193,0.01,-0.30,9.83,33.96,0.021306,0.030893,0.000000
310287665,-0.002115,0.000891,-0.000873,0.03,-0.31,9.84,33.90,0.023436,0.030893,-0.001065
310288675,0.000016,-0.001240,-0.001938,0.04,-0.28,9.83,33.91,0.025567,0.033024,-0.002131
310289685,0.000016,-0.001240,-0.001938,0.00,-0.28,9.82,33.91,0.025567,0.033024,-0.002131
310290703,-0.001050,-0.002305,-0.001938,0.00,-0.31,9.81,33.90,0.026632,0.031958,-0.002131
310291715,-0.001050,-0.001240,0.000193,0.01,-0.33,9.80,33.91,0.025567,0.031958,0.000000
310292715,-0.001050,-0.000175,0.001258,-0.04,-0.31,9.83,33.94,0.024501,0.031958,0.001065
310293725,0.001081,0.000891,0.000193,0.00,-0.30,9.87,33.94,0.023436,0.034089,0.000000
310294735,0.002146,0.000891,-0.001938,0.05,-0.29,9.84,33.95,0.023436,0.035154,-0.002131
310295752,0.002146,0.001956,-0.001938,0.01,-0.28,9.77,33.95,0.022371,0.035154,-0.002131
310296769,0.001081,0.004086,-0.000873,0.01,-0.30,9.77,33.98,0.020240,0.034089,-0.001065
310297764,-0.002115,0.003021,0.000193,0.01,-0.31,9.82,33.96,0.021306,0.030893,0.000000
310298774,-0.003180,0.001956,0.002323,0.02,-0.32,9.79,33.97,0.022371,0.029828,0.002131
310299784,-0.004245,-0.000175,0.003388,0.02,-0.31,9.80,33.97,0.024501,0.028763,0.003196
310300802,-0.004245,-0.003371,0.001258,0.00,-0.31,9.85,33.93,0.027697,0.028763,0.001065
310301815,-0.002115,-0.003371,0.000193,0.04,-0.29,9.82,33.95,0.027697,0.030893,0.000000
310302814,-0.001050,0.000891,0.000193,0.06,-0.29,9.82,33.93,0.023436,0.031958,0.000000
310303824,-0.001050,0.001956,-0.000873,0.04,-0.33,9.82,33.95,0.022371,0.031958,-0.001065
310304834,0.000016,0.000891,0.000193,0.05,-0.31,9.81,33.96,0.023436,0.033024,0.000000
310305853,-0.001050,-0.001240,0.003388,0.05,-0.28,9.83,33.97,0.025567,0.031958,0.003196
310306870,-0.003180,-0.001240,0.004454,0.00,-0.28,9.82,33.92,0.025567,0.029828,0.004261
310307865,-0.002115,0.001956,0.002323,0.00,-0.31,9.82,33.93,0.022371,0.030893,0.002131
310308875,-0.002115,0.005152,0.001258,-0.01,-0.32,9.86,33.95,0.019175,0.030893,0.001065
310309885,-0.002115,0.003021,0.000193,-0.02,-0.28,9.87,33.94,0.021306,0.030893,0.000000
310310903,-0.001050,-0.000175,0.000193,0.01,-0.29,9.85,33.95,0.024501,0.031958,0.000000
310311914,-0.001050,-0.002305,0.001258,0.01,-0.31,9.83,33.98,0.026632,0.031958,0.001065
310312915,-0.002115,-0.001240,0.002323,0.00,-0.28,9.82,33.94,0.025567,0.030893,0.002131
310313925,-0.002115,-0.000175,0.004454,0.02,-0.28,9.83,33.96,0.024501,0.030893,0.004261
310314935,-0.002115,0.000891,0.004454,0.04,-0.30,9.76,33.95,0.023436,0.030893,0.004261
310315952,0.000016,0.000891,0.002323,0.04,-0.30,9.78,33.95,0.023436,0.033024,0.002131
310316969,0.001081,-0.000175,0.001258,0.00,-0.28,9.84,33.97,0.024501,0.034089,0.001065
310317966,0.001081,-0.000175,0.001258,-0.02,-0.27,9.82,33.95,0.024501,0.034089,0.001065
310318978,0.000016,0.000891,0.001258,-0.01,-0.31,9.84,33.94,0.023436,0.033024,0.001065
310319994,-0.002115,0.003021,-0.000873,0.01,-0.31,9.82,33.95,0.021306,0.030893,-0.001065
310321008,-0.003180,0.004086,-0.001938,0.02,-0.29,9.78,33.96,0.020240,0.029828,-0.002131
310322024,-0.001050,0.003021,-0.001938,0.05,-0.28,9.87,33.98,0.021306,0.031958,-0.002131
310323023,0.000016,0.000891,-0.001938,0.04,-0.29,9.88,33.97,0.023436,0.033024,-0.002131
310324034,0.000016,-0.000175,-0.003003,0.02,-0.31,9.84,33.92,0.024501,0.033024,-0.003196
310325041,0.002146,-0.001240,-0.004069,0.01,-0.32,9.85,33.98,0.025567,0.035154,-0.004261
310326066,0.004277,-0.001240,-0.003003,0.02,-0.32,9.82,33.96,0.025567,0.037285,-0.003196
310327086,0.004277,-0.002305,-0.000873,0.01,-0.31,9.82,33.96,0.026632,0.037285,-0.001065
310328080,0.002146,-0.001240,0.000193,0.02,-0.27,9.86,33.94,0.025567,0.035154,0.000000
310329086,0.001081,0.000891,0.000193,0.03,-0.27,9.86,33.93,0.023436,0.034089,0.000000
310330099,-0.001050,0.001956,-0.000873,0.03,-0.30,9.82,33.96,0.022371,0.031958,-0.001065
310331113,-0.003180,0.004086,-0.000873,0.02,-0.32,9.84,33.92,0.020240,0.029828,-0.001065
310332126,-0.004245,0.004086,0.000193,0.02,-0.34,9.82,33.94,0.020240,0.028763,0.000000
310333125,-0.002115,-0.000175,0.001258,0.02,-0.33,9.85,33.97,0.024501,0.030893,0.001065
310334138,0.000016,-0.003371,0.000193,0.01,-0.31,9.85,33.98,0.027697,0.033024,0.000000
310335141,0.002146,-0.001240,-0.003003,0.01,-0.32,9.77,33.95,0.025567,0.035154,-0.003196
310336158,0.001081,0.003021,-0.001938,0.01,-0.31,9.77,33.96,0.021306,0.034089,-0.002131
310337173,0.002146,0.003021,0.000193,0.02,-0.31,9.87,33.98,0.021306,0.035154,0.000000
310338168,0.001081,-0.000175,0.000193,0.01,-0.31,9.90,33.95,0.024501,0.034089,0.000000
310339174,0.001081,-0.002305,-0.000873,0.00,-0.30,9.87,33.97,0.026632,0.034089,-0.001065
310340188,0.002146,-0.000175,-0.001938,0.02,-0.31,9.90,33.97,0.024501,0.035154,-0.002131
310341206,0.000016,0.001956,-0.000873,0.06,-0.32,9.86,33.97,0.022371,0.033024,-0.001065
310342218,-0.003180,0.001956,0.000193,0.06,-0.33,9.81,33.98,0.022371,0.029828,0.000000
