time_us,gyro_x_rad_s,gyro_y_rad_s,gyro_z_rad_s,acc_x_m_s2,acc_y_m_s2,acc_z_m_s2,temperature_c,gyro_sensor_uncorrected_x_rad_s,gyro_sensor_uncorrected_y_rad_s,gyro_sensor_uncorrected_z_rad_s
578910498,0.000314,-0.001591,-0.000496,-0.02,-0.21,9.78,37.90,0.026632,0.033024,-0.001065
578911239,0.002444,-0.000525,0.000570,0.00,-0.23,9.83,37.90,0.025567,0.035154,0.000000
578912179,0.002444,-0.000525,0.001635,0.00,-0.25,9.82,37.88,0.025567,0.035154,0.001065
578913157,0.002444,-0.001591,0.001635,-0.01,-0.26,9.79,37.90,0.026632,0.035154,0.001065
578914148,0.001379,-0.001591,-0.000496,-0.02,-0.23,9.83,37.89,0.026632,0.034089,-0.001065
578915155,0.001379,-0.000525,-0.000496,-0.04,-0.23,9.86,37.90,0.025567,0.034089,-0.001065
578916165,0.002444,-0.001591,0.000570,-0.02,-0.26,9.82,37.89,0.026632,0.035154,0.000000
578917175,0.002444,-0.002656,0.001635,0.03,-0.27,9.77,37.91,0.027697,0.035154,0.001065
578918142,-0.000751,-0.000525,0.001635,0.03,-0.26,9.76,37.91,0.025567,0.031958,0.001065
578919143,-0.003947,-0.001591,0.000570,0.00,-0.25,9.76,37.90,0.026632,0.028763,0.000000
578920153,-0.005013,-0.001591,-0.000496,-0.02,-0.25,9.78,37.87,0.026632,0.027697,-0.001065
578921163,-0.003947,-0.003721,-0.000496,-0.02,-0.24,9.82,37.89,0.028763,0.028763,-0.001065
578922173,-0.000751,-0.002656,0.001635,-0.01,-0.25,9.83,37.94,0.027697,0.031958,0.001065
578923146,-0.000751,-0.002656,0.001635,-0.01,-0.25,9.83,37.94,0.027697,0.031958,0.001065
578924148,0.002444,-0.001591,0.001635,-0.07,-0.21,9.79,37.91,0.026632,0.035154,0.001065
578925149,0.003510,0.000540,0.001635,0.00,-0.23,9.79,37.93,0.024501,0.036220,0.001065
578926159,0.001379,0.000540,0.001635,0.00,-0.22,9.84,37.93,0.024501,0.034089,0.001065
578927169,0.001379,0.000540,0.001635,0.00,-0.21,9.90,37.92,0.024501,0.034089,0.001065
578928179,0.003510,0.000540,0.000570,0.01,-0.25,9.86,37.90,0.024501,0.036220,0.000000
578929193,0.003510,-0.001591,-0.000496,-0.02,-0.26,9.79,37.93,0.026632,0.036220,-0.001065
578930143,0.003510,-0.001591,-0.000496,-0.02,-0.26,9.79,37.93,0.026632,0.036220,-0.001065
578931153,-0.000751,0.003736,0.001635,-0.02,-0.18,9.80,37.91,0.021306,0.031958,0.001065
578932163,0.000314,0.003736,0.000570,-0.04,-0.21,9.77,37.88,0.021306,0.033024,0.000000
578933194,0.002444,0.002670,-0.002626,-0.04,-0.24,9.83,37.88,0.022371,0.035154,-0.003196
578934194,0.002444,0.000540,-0.002626,-0.03,-0.23,9.83,37.88,0.024501,0.035154,-0.003196
578935195,0.001379,-0.002656,-0.002626,-0.01,-0.22,9.81,37.87,0.027697,0.034089,-0.003196
578936205,0.000314,-0.004787,-0.001561,0.01,-0.23,9.82,37.88,0.029828,0.033024,-0.002131
578937215,0.001379,-0.002656,-0.000496,0.04,-0.23,9.84,37.89,0.027697,0.034089,-0.001065
578938225,0.001379,-0.001591,-0.000496,0.01,-0.22,9.86,37.88,0.026632,0.034089,-0.001065
578939242,0.001379,-0.001591,-0.001561,-0.01,-0.19,9.82,37.91,0.026632,0.034089,-0.002131
578940245,0.002444,-0.001591,0.000570,0.01,-0.21,9.80,37.88,0.026632,0.035154,0.000000
578941255,0.002444,-0.000525,0.002700,-0.01,-0.22,9.82,37.89,0.025567,0.035154,0.002131
578942265,0.002444,0.001605,0.003766,-0.01,-0.23,9.86,37.86,0.023436,0.035154,0.003196
578943293,0.000314,0.002670,0.001635,0.02,-0.25,9.88,37.89,0.022371,0.033024,0.001065
578944291,-0.000751,0.001605,-0.000496,0.02,-0.23,9.88,37.87,0.023436,0.031958,-0.001065
578945293,-0.001817,0.000540,0.000570,0.00,-0.22,9.88,37.90,0.024501,0.030893,0.000000
578946303,-0.000751,0.000540,0.002700,-0.02,-0.22,9.85,37.88,0.024501,0.031958,0.002131
578947313,-0.000751,0.001605,0.002700,0.00,-0.24,9.84,37.87,0.023436,0.031958,0.002131
578948323,-0.001817,-0.000525,0.001635,0.02,-0.24,9.86,37.88,0.025567,0.030893,0.001065
578949337,-0.003947,-0.001591,0.001635,0.01,-0.22,9.82,37.90,0.026632,0.028763,0.001065
578950343,-0.002882,-0.000525,0.002700,0.01,-0.22,9.79,37.90,0.025567,0.029828,0.002131
578951353,-0.001817,0.001605,0.002700,0.02,-0.23,9.77,37.89,0.023436,0.030893,0.002131
578952363,-0.000751,0.001605,0.000570,0.05,-0.24,9.77,37.87,0.023436,0.031958,0.000000
578953395,0.000314,0.001605,-0.001561,0.01,-0.25,9.80,37.89,0.023436,0.033024,-0.002131
578954393,0.001379,0.002670,-0.003691,-0.02,-0.25,9.78,37.89,0.022371,0.034089,-0.004261
578955395,0.000314,0.003736,-0.003691,-0.01,-0.24,9.80,37.88,0.021306,0.033024,-0.004261
578956405,0.000314,0.003736,-0.003691,0.00,-0.24,9.80,37.90,0.021306,0.033024,-0.004261
578957415,0.000314,0.001605,-0.001561,0.02,-0.25,9.77,37.92,0.023436,0.033024,-0.002131
578958425,0.000314,-0.001591,-0.000496,0.05,-0.22,9.79,37.93,0.026632,0.033024,-0.001065
578959443,-0.001817,-0.001591,-0.000496,0.04,-0.22,9.81,37.90,0.026632,0.030893,-0.001065
578960445,-0.001817,0.000540,-0.000496,0.03,-0.25,9.82,37.92,0.024501,0.030893,-0.001065
578961455,-0.001817,0.000540,-0.000496,0.03,-0.25,9.82,37.92,0.024501,0.030893,-0.001065
578962481,-0.000751,-0.000525,0.000570,0.02,-0.27,9.82,37.93,0.025567,0.031958,0.000000
578963476,-0.000751,-0.001591,0.001635,0.02,-0.23,9.84,37.88,0.026632,0.031958,0.001065
578964488,-0.000751,-0.001591,0.001635,0.02,-0.16,9.84,37.87,0.026632,0.031958,0.001065
578965493,-0.000751,-0.000525,0.002700,0.00,-0.18,9.85,37.87,0.025567,0.031958,0.002131
578966503,0.000314,-0.002656,0.001635,0.00,-0.25,9.82,37.88,0.027697,0.033024,0.001065
578967544,0.002421,-0.003726,-0.000504,0.01,-0.29,9.81,37.90,0.028763,0.035154,-0.001065
578968523,0.002421,-0.002661,-0.000504,-0.01,-0.25,9.81,37.89,0.027697,0.035154,-0.001065
578969537,0.000290,0.000535,0.000561,-0.02,-0.23,9.84,37.92,0.024501,0.033024,0.000000
578970543,-0.001840,0.000535,0.001626,-0.04,-0.23,9.83,37.87,0.024501,0.030893,0.001065
578971553,-0.000775,0.000535,0.002692,-0.04,-0.21,9.75,37.87,0.024501,0.031958,0.002131
578972584,0.000290,-0.000530,0.001626,0.01,-0.21,9.74,37.87,0.025567,0.033024,0.001065
578973578,0.001355,-0.001596,0.001626,0.02,-0.20,9.77,37.91,0.026632,0.034089,0.001065
578974591,0.000290,-0.000530,0.001626,0.01,-0.19,9.82,37.90,0.025567,0.033024,0.001065
578975595,-0.000775,0.000535,0.002692,0.00,-0.18,9.86,37.93,0.024501,0.031958,0.002131
578976605,0.001355,-0.000530,0.003757,-0.01,-0.22,9.85,37.92,0.025567,0.034089,0.003196
578977615,0.002421,0.000535,0.003757,-0.02,-0.26,9.81,37.90,0.024501,0.035154,0.003196
578978625,0.003486,0.002666,0.002692,-0.03,-0.26,9.81,37.87,0.022371,0.036220,0.002131
578979642,0.002421,0.002666,0.000561,-0.06,-0.25,9.80,37.91,0.022371,0.035154,0.000000
578980645,0.001355,0.001600,0.000561,-0.05,-0.23,9.82,37.92,0.023436,0.034089,0.000000
578981655,0.001355,0.000535,-0.000504,-0.02,-0.21,9.85,37.94,0.024501,0.034089,-0.001065
578982684,-0.000775,-0.000530,0.000561,-0.02,-0.22,9.81,37.93,0.025567,0.031958,0.000000
578983683,0.000290,-0.000530,0.001626,0.00,-0.22,9.79,37.89,0.025567,0.033024,0.001065
578984690,0.001355,0.001600,0.001626,0.03,-0.22,9.81,37.89,0.023436,0.034089,0.001065
578985698,0.000290,0.001600,0.001626,0.01,-0.20,9.85,37.89,0.023436,0.033024,0.001065
578986710,-0.000775,-0.000530,0.001626,0.00,-0.22,9.90,37.89,0.025567,0.031958,0.001065
578987722,-0.000775,-0.001596,-0.000504,0.02,-0.25,9.86,37.87,0.026632,0.031958,-0.001065
578988732,-0.000775,-0.001596,-0.001569,0.02,-0.23,9.80,37.87,0.026632,0.031958,-0.002131
578989748,-0.001840,-0.001596,-0.001569,-0.02,-0.23,9.81,37.87,0.026632,0.030893,-0.002131
578990752,-0.000775,-0.000530,-0.000504,-0.04,-0.24,9.79,37.85,0.025567,0.031958,-0.001065
578991772,0.000290,-0.000530,0.001626,-0.02,-0.24,9.80,37.86,0.025567,0.033024,0.001065
578992802,0.001355,0.000535,0.002692,0.00,-0.24,9.81,37.87,0.024501,0.034089,0.002131
578993790,0.001355,0.001600,0.003757,-0.01,-0.26,9.81,37.84,0.023436,0.034089,0.003196
578994807,0.001355,0.001600,0.003757,0.02,-0.27,9.82,37.86,0.023436,0.034089,0.003196
578995801,0.000290,0.000535,0.000561,0.02,-0.23,9.78,37.84,0.024501,0.033024,0.000000
578996818,-0.000775,-0.000530,-0.001569,-0.01,-0.22,9.79,37.82,0.025567,0.031958,-0.002131
578997823,0.000290,-0.001596,-0.001569,-0.02,-0.21,9.79,37.85,0.026632,0.033024,-0.002131
578998834,-0.000775,-0.001596,-0.000504,-0.03,-0.20,9.80,37.84,0.026632,0.031958,-0.001065
578999889,-0.000775,0.000535,-0.000504,-0.02,-0.21,9.86,37.87,0.024501,0.031958,-0.001065
579000856,0.000290,0.001600,-0.001569,-0.02,-0.21,9.86,37.86,0.023436,0.033024,-0.002131
579001860,0.001355,0.000535,-0.000504,-0.02,-0.21,9.80,37.84,0.024501,0.034089,-0.001065
579002886,-0.000775,-0.001596,0.000561,-0.03,-0.26,9.79,37.86,0.026632,0.031958,0.000000
579003880,-0.001840,-0.001596,0.001626,-0.03,-0.24,9.85,37.89,0.026632,0.030893,0.001065
579004896,-0.001840,0.001600,0.000561,-0.01,-0.24,9.85,37.85,0.023436,0.030893,0.000000
579005896,0.000290,0.002666,-0.000504,0.02,-0.27,9.83,37.85,0.022371,0.033024,-0.001065
579006907,-0.000775,0.002666,-0.000504,0.02,-0.24,9.86,37.91,0.022371,0.031958,-0.001065
579007916,-0.001840,0.002666,0.000561,0.01,-0.20,9.84,37.89,0.022371,0.030893,0.000000
579008925,-0.002906,0.000535,0.001626,-0.01,-0.19,9.84,37.89,0.024501,0.029828,0.001065
579009937,-0.002906,-0.002661,0.002692,-0.03,-0.22,9.84,37.87,0.027697,0.029828,0.002131
579010943,-0.001840,-0.002661,0.003757,-0.01,-0.24,9.80,37.87,0.027697,0.030893,0.003196
579011953,-0.000775,-0.000530,0.000561,0.00,-0.24,9.83,37.88,0.025567,0.031958,0.000000
579012984,0.000290,0.002666,-0.002635,0.02,-0.24,9.85,37.92,0.022371,0.033024,-0.003196
579013978,-0.000775,0.002666,-0.003700,0.03,-0.23,9.84,37.90,0.022371,0.031958,-0.004261
579014991,-0.001840,0.002666,-0.001569,-0.02,-0.25,9.83,37.91,0.022371,0.030893,-0.002131
579015995,-0.000775,0.003731,-0.000504,-0.01,-0.24,9.78,37.88,0.021306,0.031958,-0.001065
579017005,-0.000775,0.004796,-0.000504,-0.02,-0.22,9.80,37.89,0.020240,0.031958,-0.001065
579018015,-0.000775,0.004796,-0.001569,-0.05,-0.22,9.82,37.87,0.020240,0.031958,-0.002131
579019025,-0.000775,0.003731,-0.000504,-0.03,-0.23,9.80,37.88,0.021306,0.031958,-0.001065
579020042,-0.000775,0.003731,0.000561,0.00,-0.24,9.83,37.90,0.021306,0.031958,0.000000
579021045,-0.000775,0.004796,0.000561,0.02,-0.22,9.83,37.90,0.020240,0.031958,0.000000
579022055,-0.001840,0.002666,0.000561,0.02,-0.22,9.83,37.92,0.022371,0.030893,0.000000
579023083,-0.002906,0.000535,0.001626,0.00,-0.21,9.83,37.88,0.024501,0.029828,0.001065
579024076,-0.001840,0.003731,0.001626,0.00,-0.22,9.80,37.87,0.021306,0.030893,0.001065
579025087,0.000290,0.002666,0.000561,0.02,-0.23,9.81,37.87,0.022371,0.033024,0.000000
579026093,0.002421,-0.001596,0.000561,0.04,-0.25,9.86,37.87,0.026632,0.035154,0.000000
579027103,0.002421,-0.003726,-0.000504,-0.02,-0.28,9.86,37.86,0.028763,0.035154,-0.001065
579028113,0.002421,-0.001596,-0.001569,-0.02,-0.28,9.87,37.85,0.026632,0.035154,-0.002131
579029123,-0.000775,0.000535,-0.002635,0.03,-0.29,9.83,37.86,0.024501,0.031958,-0.003196
579030137,-0.000775,0.002666,-0.000504,0.01,-0.25,9.78,37.88,0.022371,0.031958,-0.001065
579031143,0.000290,0.001600,-0.000504,-0.03,-0.21,9.76,37.88,0.023436,0.033024,-0.001065
579032153,0.001355,0.000535,-0.002635,-0.03,-0.26,9.81,37.87,0.024501,0.034089,-0.003196
579033185,0.000290,0.001600,-0.001569,0.03,-0.20,9.79,37.88,0.023436,0.033024,-0.002131
579034178,-0.000775,0.001600,0.000561,0.03,-0.23,9.85,37.86,0.023436,0.031958,0.000000
579035190,0.000290,-0.000530,0.001626,0.00,-0.23,9.87,37.87,0.025567,0.033024,0.001065
579036195,0.001355,-0.003726,0.003757,0.01,-0.22,9.84,37.86,0.028763,0.034089,0.003196
579037205,0.001355,-0.005857,0.004822,0.04,-0.23,9.82,37.88,0.030893,0.034089,0.004261
579038215,-0.000775,-0.003726,0.003757,0.05,-0.22,9.86,37.85,0.028763,0.031958,0.003196
579039225,-0.001840,-0.001596,0.001626,0.02,-0.20,9.84,37.88,0.026632,0.030893,0.001065
579040243,0.000290,0.000535,0.001626,-0.01,-0.21,9.80,37.83,0.024501,0.033024,0.001065
579041245,0.001355,0.001600,0.001626,-0.04,-0.21,9.81,37.85,0.023436,0.034089,0.001065
579042255,0.002421,-0.000530,0.002692,-0.03,-0.20,9.81,37.87,0.025567,0.035154,0.002131
579043281,0.000290,-0.002661,0.003757,0.00,-0.22,9.78,37.89,0.027697,0.033024,0.003196
579044276,0.000290,-0.000530,0.002692,-0.02,-0.23,9.77,37.91,0.025567,0.033024,0.002131
579045288,0.002421,0.000535,-0.000504,-0.01,-0.23,9.80,37.89,0.024501,0.035154,-0.001065
579046293,0.003486,0.000535,-0.000504,-0.02,-0.26,9.81,37.92,0.024501,0.036220,-0.001065
579047303,0.003486,-0.001596,0.001626,-0.02,-0.24,9.81,37.90,0.026632,0.036220,0.001065
579048313,0.000290,-0.003726,0.002692,-0.01,-0.25,9.79,37.89,0.028763,0.033024,0.002131
579049323,-0.001840,-0.004791,0.002692,0.00,-0.27,9.77,37.91,0.029828,0.030893,0.002131
579050337,0.000290,-0.003726,-0.000504,0.01,-0.24,9.84,37.88,0.028763,0.033024,-0.001065
579051343,0.001355,-0.001596,-0.001569,0.00,-0.25,9.85,37.88,0.026632,0.034089,-0.002131
579052353,0.001355,-0.000530,-0.000504,0.00,-0.26,9.83,37.89,0.025567,0.034089,-0.001065
579053384,0.000290,-0.001596,0.001626,-0.04,-0.23,9.80,37.91,0.026632,0.033024,0.001065
579054378,-0.001840,0.000535,0.000561,-0.05,-0.18,9.77,37.90,0.024501,0.030893,0.000000
579055391,-0.000775,0.000535,-0.001569,-0.02,-0.22,9.84,37.90,0.024501,0.031958,-0.002131
579056395,0.003486,-0.000530,-0.002635,0.01,-0.24,9.80,37.90,0.025567,0.036220,-0.003196
579057405,0.004551,-0.000530,-0.002635,0.02,-0.20,9.79,37.91,0.025567,0.037285,-0.003196
579058415,0.000290,-0.000530,-0.000504,0.03,-0.23,9.79,37.89,0.025567,0.033024,-0.001065
579059425,-0.001840,0.000535,0.000561,0.00,-0.25,9.80,37.90,0.024501,0.030893,0.000000
579060442,-0.000775,0.001600,-0.000504,-0.03,-0.25,9.79,37.92,0.023436,0.031958,-0.001065
579061445,-0.000775,0.003731,0.000561,0.00,-0.25,9.76,37.93,0.021306,0.031958,0.000000
579062473,-0.001840,0.003731,0.001626,0.01,-0.26,9.78,37.92,0.021306,0.030893,0.001065
579063466,-0.002906,0.000535,0.000561,-0.01,-0.27,9.80,37.91,0.024501,0.029828,0.000000
579064473,-0.001840,0.000535,-0.001569,0.01,-0.26,9.81,37.92,0.024501,0.030893,-0.002131
579065487,-0.000775,0.000535,-0.001569,-0.01,-0.24,9.79,37.88,0.024501,0.031958,-0.002131
579066493,0.001355,0.001600,-0.000504,-0.02,-0.23,9.77,37.88,0.023436,0.034089,-0.001065
579067503,0.000290,0.002666,0.000561,0.00,-0.24,9.80,37.92,0.022371,0.033024,0.000000
579068513,0.000290,0.001600,-0.000504,-0.03,-0.28,9.78,37.91,0.023436,0.033024,-0.001065
579069523,0.000290,-0.001596,-0.001569,-0.02,-0.27,9.82,37.85,0.026632,0.033024,-0.002131
579070537,0.000290,-0.002661,-0.000504,0.00,-0.24,9.90,37.87,0.027697,0.033024,-0.001065
579071543,0.001355,-0.001596,0.001626,0.02,-0.23,9.86,37.89,0.026632,0.034089,0.001065
579072575,0.000290,0.000535,0.000561,0.03,-0.24,9.79,37.87,0.024501,0.033024,0.000000
579073568,-0.001840,0.002666,-0.000504,0.02,-0.25,9.79,37.88,0.022371,0.030893,-0.001065
579074575,-0.001840,0.002666,-0.000504,0.02,-0.22,9.80,37.92,0.022371,0.030893,-0.001065
579075590,-0.000775,-0.000530,-0.002635,0.01,-0.20,9.80,37.91,0.025567,0.031958,-0.003196
579076595,0.000290,-0.004791,-0.003700,0.02,-0.22,9.80,37.90,0.029828,0.033024,-0.004261
579077605,-0.000775,-0.004791,-0.002635,0.01,-0.24,9.82,37.92,0.029828,0.031958,-0.003196
579078615,-0.000775,-0.002661,-0.001569,-0.01,-0.22,9.79,37.89,0.027697,0.031958,-0.002131
579079625,0.000290,-0.001596,-0.002635,0.01,-0.20,9.78,37.90,0.026632,0.033024,-0.003196
579080643,0.000290,-0.001596,-0.004765,0.02,-0.21,9.79,37.91,0.026632,0.033024,-0.005326
579081645,0.001355,0.000535,-0.004765,0.02,-0.23,9.80,37.91,0.024501,0.034089,-0.005326
579082673,0.003486,0.000535,-0.002635,-0.01,-0.25,9.83,37.91,0.024501,0.036220,-0.003196
579083667,0.002421,-0.000530,-0.001569,-0.03,-0.23,9.82,37.90,0.025567,0.035154,-0.002131
579084674,0.001355,-0.000530,-0.001569,0.01,-0.23,9.82,37.89,0.025567,0.034089,-0.002131
579085691,0.003486,-0.000530,0.000561,0.02,-0.23,9.82,37.91,0.025567,0.036220,0.000000
579086697,0.004551,-0.001596,0.001626,-0.03,-0.22,9.81,37.90,0.026632,0.037285,0.001065
579087710,0.003486,-0.002661,0.000561,-0.01,-0.25,9.84,37.89,0.027697,0.036220,0.000000
579088721,0.000290,-0.002661,0.000561,0.02,-0.23,9.83,37.88,0.027697,0.033024,0.000000
579089732,-0.001840,-0.002661,0.000561,-0.03,-0.21,9.81,37.90,0.027697,0.030893,0.000000
579090749,0.001355,-0.001596,0.000561,-0.01,-0.23,9.80,37.92,0.026632,0.034089,0.000000
579091751,0.001355,-0.000530,0.001626,0.03,-0.22,9.81,37.89,0.025567,0.034089,0.001065
579092781,0.000290,0.000535,0.002692,0.01,-0.22,9.84,37.89,0.024501,0.033024,0.002131
579093774,-0.001840,0.000535,0.002692,-0.01,-0.22,9.86,37.93,0.024501,0.030893,0.002131
579094788,0.000290,0.002666,0.001626,0.03,-0.22,9.87,37.92,0.022371,0.033024,0.001065
579095819,0.002421,0.002666,0.000561,0.06,-0.21,9.83,37.92,0.022371,0.035154,0.000000
579096839,0.002395,0.000525,0.001589,0.04,-0.22,9.80,37.88,0.024501,0.035154,0.001065
579097818,0.000264,-0.001606,0.000524,0.04,-0.25,9.79,37.90,0.026632,0.033024,0.000000
579098824,-0.000801,0.000525,-0.000542,0.03,-0.26,9.83,37.90,0.024501,0.031958,-0.001065
579099833,-0.000801,0.001590,-0.001607,-0.01,-0.22,9.84,37.92,0.023436,0.031958,-0.002131
579100853,-0.000801,-0.000541,-0.001607,-0.03,-0.22,9.84,37.89,0.025567,0.031958,-0.002131
579101853,-0.000801,-0.004802,0.000524,0.00,-0.24,9.84,37.85,0.029828,0.031958,0.000000
579102877,0.000264,-0.003736,-0.000542,0.03,-0.22,9.79,37.88,0.028763,0.033024,-0.001065
579103870,-0.001866,-0.000541,-0.001607,0.00,-0.20,9.74,37.92,0.025567,0.030893,-0.002131
579104878,-0.000801,0.001590,-0.001607,-0.05,-0.22,9.73,37.89,0.023436,0.031958,-0.002131
579105888,0.001329,0.000525,-0.000542,-0.06,-0.23,9.73,37.90,0.024501,0.034089,-0.001065
579106896,0.003460,-0.000541,-0.000542,-0.04,-0.22,9.77,37.90,0.025567,0.036220,-0.001065
579107907,0.003460,-0.002671,0.000524,-0.03,-0.21,9.80,37.87,0.027697,0.036220,0.000000
579108935,0.000264,-0.003736,-0.000542,0.01,-0.20,9.80,37.89,0.028763,0.033024,-0.001065
579109925,-0.003997,-0.004802,-0.001607,0.01,-0.20,9.83,37.87,0.029828,0.028763,-0.002131
579110937,-0.003997,-0.002671,-0.000542,-0.01,-0.23,9.85,37.89,0.027697,0.028763,-0.001065
579111943,-0.002932,-0.001606,-0.001607,-0.02,-0.24,9.83,37.90,0.026632,0.029828,-0.002131
579112975,-0.001866,-0.000541,-0.003737,-0.02,-0.23,9.82,37.89,0.025567,0.030893,-0.004261
579113968,-0.001866,-0.000541,-0.004803,0.01,-0.23,9.83,37.88,0.025567,0.030893,-0.005326
579114975,-0.003997,0.000525,-0.002672,0.05,-0.25,9.80,37.90,0.024501,0.028763,-0.003196
579115990,-0.001866,0.001590,-0.001607,0.04,-0.27,9.80,37.90,0.023436,0.030893,-0.002131
579116995,0.000264,0.001590,-0.003737,0.04,-0.25,9.80,37.87,0.023436,0.033024,-0.004261
579118005,0.001329,0.002655,-0.002672,0.01,-0.23,9.76,37.87,0.022371,0.034089,-0.003196
579119015,0.000264,0.003720,0.000524,-0.03,-0.25,9.77,37.87,0.021306,0.033024,0.000000
579120025,-0.001866,0.002655,0.001589,0.00,-0.28,9.76,37.87,0.022371,0.030893,0.001065
579121043,-0.001866,0.001590,0.000524,0.01,-0.25,9.79,37.88,0.023436,0.030893,0.000000
579122045,0.000264,-0.000541,-0.001607,0.00,-0.24,9.84,37.87,0.025567,0.033024,-0.002131
579123071,0.000264,-0.002671,-0.001607,0.04,-0.26,9.82,37.88,0.027697,0.033024,-0.002131
579124066,-0.000801,-0.001606,-0.000542,0.03,-0.25,9.78,37.92,0.026632,0.031958,-0.001065
579125073,-0.000801,0.001590,-0.002672,0.01,-0.25,9.81,37.92,0.023436,0.031958,-0.003196
579126088,-0.002932,0.002655,-0.003737,0.02,-0.23,9.80,37.92,0.022371,0.029828,-0.004261
579127093,-0.001866,0.001590,-0.001607,0.01,-0.23,9.80,37.88,0.023436,0.030893,-0.002131
579128103,0.000264,0.000525,-0.001607,-0.01,-0.23,9.79,37.89,0.024501,0.033024,-0.002131
579129113,0.001329,-0.000541,-0.001607,-0.02,-0.26,9.81,37.89,0.025567,0.034089,-0.002131
579130123,0.001329,-0.002671,-0.001607,-0.01,-0.27,9.86,37.88,0.027697,0.034089,-0.002131
579131137,0.001329,-0.000541,-0.001607,0.04,-0.24,9.79,37.88,0.025567,0.034089,-0.002131
579132143,0.001329,0.000525,-0.000542,0.01,-0.21,9.76,37.87,0.024501,0.034089,-0.001065
579133174,0.002395,0.000525,-0.000542,-0.04,-0.23,9.79,37.90,0.024501,0.035154,-0.001065
579134168,0.000264,0.000525,-0.001607,-0.02,-0.26,9.80,37.86,0.024501,0.033024,-0.002131
579135175,-0.001866,-0.000541,-0.002672,0.01,-0.20,9.77,37.87,0.025567,0.030893,-0.003196
579136191,-0.000801,-0.002671,-0.000542,-0.02,-0.22,9.80,37.89,0.027697,0.031958,-0.001065
579137195,-0.000801,-0.003736,0.001589,-0.02,-0.22,9.82,37.92,0.028763,0.031958,0.001065
579138205,-0.000801,-0.003736,0.001589,0.01,-0.24,9.80,37.90,0.028763,0.031958,0.001065
579139215,-0.001866,0.000525,0.002654,0.00,-0.23,9.82,37.85,0.024501,0.030893,0.002131
579140225,-0.001866,0.002655,0.001589,-0.02,-0.21,9.84,37.88,0.022371,0.030893,0.001065
579141242,-0.000801,0.000525,0.000524,-0.02,-0.22,9.79,37.89,0.024501,0.031958,0.000000
579142245,-0.000801,-0.002671,-0.001607,-0.02,-0.21,9.74,37.88,0.027697,0.031958,-0.002131
579143273,-0.001866,-0.003736,-0.000542,0.01,-0.22,9.78,37.90,0.028763,0.030893,-0.001065
579144266,-0.000801,-0.004802,0.000524,0.00,-0.23,9.82,37.90,0.029828,0.031958,0.000000
579145273,0.000264,-0.001606,0.001589,-0.02,-0.22,9.84,37.89,0.026632,0.033024,0.001065
579146328,0.000264,0.001590,0.001589,0.02,-0.23,9.86,37.88,0.023436,0.033024,0.001065
579147293,0.001329,0.000525,0.000524,0.00,-0.24,9.84,37.89,0.024501,0.034089,0.000000
579148303,0.001329,-0.001606,-0.001607,-0.02,-0.22,9.76,37.88,0.026632,0.034089,-0.002131
579149313,0.000264,-0.001606,-0.001607,0.00,-0.23,9.73,37.90,0.026632,0.033024,-0.002131
579150323,-0.000801,-0.000541,-0.001607,-0.02,-0.24,9.78,37.90,0.025567,0.031958,-0.002131
579151338,-0.000801,0.001590,-0.001607,-0.03,-0.21,9.78,37.87,0.023436,0.031958,-0.002131
579152343,0.000264,0.000525,-0.000542,-0.01,-0.22,9.78,37.84,0.024501,0.033024,-0.001065
579153375,0.001329,0.000525,-0.000542,-0.01,-0.24,9.84,37.87,0.024501,0.034089,-0.001065
579154368,0.001329,0.001590,0.000524,-0.03,-0.26,9.82,37.87,0.023436,0.034089,0.000000
579155375,-0.000801,0.001590,0.000524,-0.03,-0.27,9.82,37.90,0.023436,0.031958,0.000000
579156391,-0.001866,-0.001606,0.002654,-0.01,-0.28,9.85,37.89,0.026632,0.030893,0.002131
579157395,-0.000801,-0.004802,0.003720,-0.02,-0.27,9.80,37.89,0.029828,0.031958,0.003196
579158405,0.000264,-0.004802,0.002654,-0.01,-0.25,9.80,37.88,0.029828,0.033024,0.002131
579159416,-0.000801,-0.002671,0.001589,-0.02,-0.23,9.79,37.86,0.027697,0.031958,0.001065
579160425,-0.001866,-0.000541,0.000524,-0.01,-0.23,9.78,37.86,0.025567,0.030893,0.000000
579161442,0.000264,-0.000541,-0.000542,0.01,-0.23,9.81,37.90,0.025567,0.033024,-0.001065
579162463,0.000264,-0.000541,-0.000542,-0.02,-0.24,9.78,37.91,0.025567,0.033024,-0.001065
579163456,0.000264,0.000525,0.001589,-0.01,-0.26,9.78,37.92,0.024501,0.033024,0.001065
579164463,-0.000801,0.001590,0.001589,0.02,-0.25,9.77,37.91,0.023436,0.031958,0.001065
579165473,-0.000801,0.000525,0.000524,0.01,-0.25,9.77,37.87,0.024501,0.031958,0.000000
579166487,-0.001866,0.001590,-0.000542,0.00,-0.26,9.79,37.87,0.023436,0.030893,-0.001065
579167500,-0.000801,0.002655,-0.001607,0.00,-0.27,9.82,37.89,0.022371,0.031958,-0.002131
579168503,-0.000801,0.000525,-0.001607,0.01,-0.26,9.82,37.87,0.024501,0.031958,-0.002131
579169513,0.000264,-0.000541,-0.001607,-0.01,-0.26,9.82,37.89,0.025567,0.033024,-0.002131
579170523,0.001329,-0.001606,-0.001607,-0.01,-0.24,9.85,37.87,0.026632,0.034089,-0.002131
579171537,0.000264,-0.003736,-0.000542,0.01,-0.19,9.83,37.89,0.028763,0.033024,-0.001065
579172565,-0.000801,-0.003736,0.000524,-0.01,-0.20,9.80,37.92,0.028763,0.031958,0.000000
579173558,-0.000801,-0.000541,0.000524,-0.01,-0.25,9.77,37.90,0.025567,0.031958,0.000000
579174565,-0.002932,0.000525,0.000524,-0.01,-0.24,9.82,37.88,0.024501,0.029828,0.000000
579175575,-0.002932,0.000525,0.000524,-0.02,-0.24,9.87,37.86,0.024501,0.029828,0.000000
579176590,-0.001866,0.000525,0.000524,-0.01,-0.23,9.88,37.90,0.024501,0.030893,0.000000
579177595,-0.001866,0.000525,0.000524,-0.01,-0.20,9.82,37.93,0.024501,0.030893,0.000000
579178605,0.000264,0.000525,0.001589,0.03,-0.23,9.83,37.87,0.024501,0.033024,0.001065
579179615,0.001329,-0.000541,0.000524,0.02,-0.25,9.85,37.87,0.025567,0.034089,0.000000
579180625,0.000264,-0.002671,-0.000542,0.02,-0.24,9.82,37.90,0.027697,0.033024,-0.001065
579181643,-0.001866,-0.000541,-0.000542,0.00,-0.23,9.80,37.90,0.025567,0.030893,-0.001065
579182661,-0.000801,0.001590,-0.000542,-0.04,-0.23,9.82,37.92,0.023436,0.031958,-0.001065
579183656,0.001329,0.003720,-0.000542,-0.04,-0.23,9.85,37.94,0.021306,0.034089,-0.001065
579184663,0.001329,0.002655,-0.002672,-0.03,-0.23,9.81,37.90,0.022371,0.034089,-0.003196
579185675,0.001329,0.000525,-0.003737,-0.01,-0.23,9.78,37.87,0.024501,0.034089,-0.004261
579186692,0.003460,-0.001606,-0.001607,-0.02,-0.23,9.79,37.87,0.026632,0.036220,-0.002131
579187698,0.003460,-0.002671,0.001589,-0.02,-0.22,9.87,37.85,0.027697,0.036220,0.001065
579188710,0.001329,-0.002671,0.002654,0.02,-0.25,9.85,37.93,0.027697,0.034089,0.002131
579189722,-0.000801,-0.001606,0.001589,0.01,-0.28,9.80,37.89,0.026632,0.031958,0.001065
579190732,-0.000801,-0.000541,-0.000542,0.01,-0.28,9.84,37.87,0.025567,0.031958,-0.001065
579191748,-0.000801,0.000525,-0.002672,-0.01,-0.27,9.81,37.91,0.024501,0.031958,-0.003196
579192772,-0.001866,0.002655,-0.002672,-0.03,-0.24,9.78,37.91,0.022371,0.030893,-0.003196
579193771,-0.002932,0.003720,-0.001607,-0.03,-0.24,9.75,37.93,0.021306,0.029828,-0.002131
579194777,-0.001866,0.002655,-0.000542,-0.02,-0.21,9.74,37.91,0.022371,0.030893,-0.001065
579195789,0.000264,0.002655,-0.000542,-0.01,-0.19,9.78,37.93,0.022371,0.033024,-0.001065
579196799,0.000264,0.001590,-0.000542,-0.02,-0.21,9.78,37.92,0.023436,0.033024,-0.001065
579197802,0.001329,-0.000541,-0.001607,-0.02,-0.22,9.80,37.91,0.025567,0.034089,-0.002131
579198822,0.002395,-0.001606,-0.000542,-0.01,-0.23,9.81,37.93,0.026632,0.035154,-0.001065
579199822,0.002395,-0.001606,0.001589,0.04,-0.25,9.83,37.95,0.026632,0.035154,0.001065
579200834,-0.000801,-0.000541,0.001589,0.04,-0.24,9.83,37.93,0.025567,0.031958,0.001065
579201853,-0.000801,0.001590,0.000524,0.00,-0.26,9.79,37.88,0.023436,0.031958,0.000000
579202870,0.001329,0.003720,0.001589,-0.02,-0.26,9.78,37.88,0.021306,0.034089,0.001065
579203861,0.002395,0.001590,0.002654,-0.03,-0.22,9.81,37.89,0.023436,0.035154,0.002131
579204908,0.002395,-0.002671,0.000524,0.00,-0.21,9.81,37.87,0.027697,0.035154,0.000000
579205877,0.001329,-0.002671,-0.000542,0.01,-0.22,9.78,37.91,0.027697,0.034089,-0.001065
579206888,-0.001866,-0.000541,-0.000542,0.01,-0.23,9.76,37.87,0.025567,0.030893,-0.001065
579207896,-0.002932,-0.000541,-0.000542,0.03,-0.25,9.75,37.89,0.025567,0.029828,-0.001065
579208907,-0.000801,-0.001606,0.000524,0.01,-0.28,9.79,37.91,0.026632,0.031958,0.000000
579209916,0.000264,-0.000541,0.001589,0.01,-0.27,9.84,37.90,0.025567,0.033024,0.001065
579210925,-0.001866,0.001590,0.001589,0.02,-0.26,9.86,37.90,0.023436,0.030893,0.001065
579211937,-0.001866,0.003720,-0.000542,0.00,-0.22,9.87,37.87,0.021306,0.030893,-0.001065
579212965,-0.002932,0.004786,-0.002672,-0.01,-0.22,9.84,37.85,0.020240,0.029828,-0.003196
579213958,-0.002932,0.003720,-0.002672,0.00,-0.23,9.80,37.87,0.021306,0.029828,-0.003196
579214965,-0.001866,0.001590,-0.001607,-0.02,-0.24,9.76,37.93,0.023436,0.030893,-0.002131
579215975,0.000264,-0.000541,-0.000542,-0.01,-0.22,9.78,37.88,0.025567,0.033024,-0.001065
579216990,0.002395,-0.000541,0.000524,0.01,-0.20,9.84,37.87,0.025567,0.035154,0.000000
579217995,0.001329,0.000525,-0.001607,0.00,-0.23,9.82,37.89,0.024501,0.034089,-0.002131
579219005,-0.000801,0.001590,-0.001607,0.01,-0.23,9.82,37.89,0.023436,0.031958,-0.002131
579220015,-0.001866,0.001590,-0.000542,0.01,-0.23,9.82,37.89,0.023436,0.030893,-0.001065
579221025,0.000264,0.000525,0.001589,-0.02,-0.23,9.83,37.86,0.024501,0.033024,0.001065
579222043,0.001329,-0.000541,0.000524,-0.02,-0.24,9.86,37.89,0.025567,0.034089,0.000000
579223061,0.002395,0.000525,0.000524,-0.01,-0.21,9.85,37.89,0.024501,0.035154,0.000000
579224056,0.001329,0.000525,0.002654,-0.02,-0.23,9.83,37.90,0.024501,0.034089,0.002131
579225063,0.000264,-0.000541,0.002654,-0.04,-0.26,9.85,37.87,0.025567,0.033024,0.002131
579226101,0.000301,-0.001586,0.001630,-0.02,-0.24,9.83,37.88,0.026632,0.033024,0.001065
579227088,0.000301,-0.001586,0.001630,-0.01,-0.23,9.80,37.90,0.026632,0.033024,0.001065
579228093,0.001366,-0.001586,0.002695,0.00,-0.27,9.80,37.87,0.026632,0.034089,0.002131
579229103,0.000301,-0.000521,0.002695,-0.02,-0.27,9.82,37.86,0.025567,0.033024,0.002131
579230113,-0.000765,-0.001586,0.000565,0.00,-0.24,9.79,37.89,0.026632,0.031958,0.000000
579231123,-0.000765,-0.001586,-0.001566,0.00,-0.25,9.77,37.87,0.026632,0.031958,-0.002131
579232137,-0.000765,-0.001586,-0.001566,-0.01,-0.27,9.79,37.90,0.026632,0.031958,-0.002131
579233164,-0.000765,-0.001586,-0.001566,0.02,-0.26,9.76,37.88,0.026632,0.031958,-0.002131
579234158,0.000301,-0.001586,-0.001566,0.00,-0.24,9.76,37.87,0.026632,0.033024,-0.002131
579235165,-0.000765,-0.001586,-0.000500,0.00,-0.22,9.79,37.88,0.026632,0.031958,-0.001065
579236175,-0.001830,-0.000521,0.000565,0.00,-0.23,9.81,37.92,0.025567,0.030893,0.000000
579237191,0.001366,0.000545,-0.000500,0.01,-0.20,9.86,37.89,0.024501,0.034089,-0.001065
579238195,0.000301,-0.000521,-0.000500,-0.02,-0.17,9.84,37.82,0.025567,0.033024,-0.001065
579239205,0.000301,-0.001586,-0.000500,-0.03,-0.18,9.81,37.85,0.026632,0.033024,-0.001065
579240215,0.002431,0.000545,0.000565,0.00,-0.22,9.82,37.90,0.024501,0.035154,0.000000
579241225,0.002431,0.002675,0.000565,0.02,-0.24,9.82,37.93,0.022371,0.035154,0.000000
579242242,0.001366,0.001610,0.000565,0.02,-0.24,9.83,37.88,0.023436,0.034089,0.000000
579243263,0.001366,0.001610,0.000565,0.02,-0.26,9.87,37.86,0.023436,0.034089,0.000000
579244256,-0.000765,0.002675,0.002695,0.02,-0.26,9.82,37.90,0.022371,0.031958,0.002131
579245263,-0.000765,0.001610,0.001630,0.03,-0.24,9.76,37.93,0.023436,0.031958,0.001065
579246273,0.001366,-0.000521,-0.000500,0.01,-0.24,9.80,37.92,0.025567,0.034089,-0.001065
579247287,0.001366,0.000545,-0.000500,-0.01,-0.25,9.80,37.91,0.024501,0.034089,-0.001065
579248293,0.001366,0.001610,0.000565,-0.04,-0.27,9.79,37.91,0.023436,0.034089,0.000000
579249303,0.000301,0.002675,0.001630,-0.02,-0.27,9.79,37.87,0.022371,0.033024,0.001065
579250313,-0.000765,0.002675,0.001630,0.02,-0.25,9.78,37.90,0.022371,0.031958,0.001065
579251323,-0.001830,0.002675,0.000565,0.01,-0.25,9.78,37.91,0.022371,0.030893,0.000000
579252337,-0.001830,-0.000521,-0.000500,0.02,-0.22,9.81,37.87,0.025567,0.030893,-0.001065
579253365,-0.000765,-0.002651,0.000565,-0.02,-0.20,9.83,37.87,0.027697,0.031958,0.000000
579254358,-0.001830,-0.001586,0.001630,-0.03,-0.23,9.83,37.90,0.026632,0.030893,0.001065
579255365,-0.001830,0.000545,0.003761,-0.02,-0.23,9.82,37.89,0.024501,0.030893,0.003196
579256375,-0.000765,0.001610,0.004826,-0.02,-0.23,9.80,37.90,0.023436,0.031958,0.004261
579257390,-0.000765,0.000545,0.002695,0.00,-0.25,9.75,37.93,0.024501,0.031958,0.002131
579258395,-0.001830,-0.001586,0.000565,0.00,-0.27,9.73,37.89,0.026632,0.030893,0.000000
579259405,-0.000765,-0.003716,-0.000500,-0.01,-0.25,9.74,37.91,0.028763,0.031958,-0.001065
579260415,-0.000765,-0.003716,-0.000500,0.00,-0.25,9.74,37.93,0.028763,0.031958,-0.001065
579261425,-0.000765,-0.002651,0.000565,0.02,-0.24,9.80,37.92,0.027697,0.031958,0.000000
579262455,0.000301,-0.002651,0.001630,-0.01,-0.20,9.80,37.91,0.027697,0.033024,0.001065
579263446,0.001366,-0.001586,0.000565,0.01,-0.20,9.75,37.94,0.026632,0.034089,0.000000
579264453,0.001366,-0.000521,0.000565,0.02,-0.23,9.75,37.88,0.025567,0.034089,0.000000
579265463,0.001366,0.000545,0.002695,0.00,-0.24,9.74,37.87,0.024501,0.034089,0.002131
579266473,0.000301,0.001610,0.001630,0.00,-0.25,9.78,37.85,0.023436,0.033024,0.001065
579267487,-0.000765,0.001610,-0.000500,0.02,-0.26,9.84,37.87,0.023436,0.031958,-0.001065
579268493,-0.000765,-0.000521,-0.000500,0.04,-0.23,9.82,37.86,0.025567,0.031958,-0.001065
579269503,0.000301,-0.000521,0.001630,0.03,-0.21,9.82,37.88,0.025567,0.033024,0.001065
579270513,-0.000765,0.001610,0.002695,0.00,-0.23,9.83,37.91,0.023436,0.031958,0.002131
579271523,-0.002895,0.000545,0.002695,-0.02,-0.23,9.81,37.89,0.024501,0.029828,0.002131
579272555,-0.002895,-0.000521,0.002695,-0.03,-0.22,9.77,37.89,0.025567,0.029828,0.002131
579273548,-0.001830,-0.002651,0.001630,-0.02,-0.24,9.79,37.87,0.027697,0.030893,0.001065
579274555,-0.000765,-0.002651,-0.000500,0.00,-0.26,9.79,37.85,0.027697,0.031958,-0.001065
579275565,0.000301,-0.002651,-0.000500,-0.01,-0.23,9.74,37.86,0.027697,0.033024,-0.001065
579276575,0.000301,-0.001586,0.000565,0.00,-0.22,9.78,37.85,0.026632,0.033024,0.000000
579277590,-0.000765,0.000545,-0.001566,0.01,-0.23,9.83,37.87,0.024501,0.031958,-0.002131
579278595,-0.001830,0.001610,-0.002631,0.04,-0.23,9.86,37.90,0.023436,0.030893,-0.003196
579279605,-0.001830,0.000545,-0.001566,0.03,-0.23,9.84,37.90,0.024501,0.030893,-0.002131
579280615,0.000301,-0.000521,0.000565,0.00,-0.23,9.79,37.92,0.025567,0.033024,0.000000
579281625,0.001366,0.000545,0.000565,0.01,-0.24,9.80,37.90,0.024501,0.034089,0.000000
579282655,0.000301,0.001610,0.000565,0.01,-0.24,9.80,37.93,0.023436,0.033024,0.000000
579283646,-0.002895,0.001610,0.000565,0.00,-0.23,9.80,37.94,0.023436,0.029828,0.000000
579284653,-0.002895,0.000545,0.000565,-0.01,-0.20,9.84,37.90,0.024501,0.029828,0.000000
579285663,-0.000765,-0.000521,0.001630,-0.02,-0.20,9.82,37.90,0.025567,0.031958,0.001065
579286675,0.000301,-0.001586,0.001630,0.01,-0.21,9.81,37.85,0.026632,0.033024,0.001065
579287690,-0.000765,-0.002651,0.000565,0.01,-0.20,9.80,37.88,0.027697,0.031958,0.000000
579288697,-0.000765,-0.003716,-0.001566,0.00,-0.23,9.79,37.90,0.028763,0.031958,-0.002131
579289710,0.000301,-0.003716,-0.002631,-0.02,-0.24,9.83,37.90,0.028763,0.033024,-0.003196
579290721,0.001366,-0.003716,-0.001566,0.00,-0.23,9.84,37.92,0.028763,0.034089,-0.002131
579291732,0.000301,-0.001586,0.001630,0.01,-0.23,9.82,37.91,0.026632,0.033024,0.001065
579292767,-0.000765,0.000545,0.002695,-0.02,-0.22,9.84,37.90,0.024501,0.031958,0.002131
579293757,-0.002895,0.001610,-0.000500,-0.03,-0.23,9.84,37.91,0.023436,0.029828,-0.001065
579294776,-0.002895,0.000545,-0.001566,-0.01,-0.27,9.82,37.91,0.024501,0.029828,-0.002131
579295773,-0.003961,0.000545,0.000565,0.01,-0.28,9.82,37.90,0.024501,0.028763,0.000000
579296789,-0.001830,0.002675,0.001630,-0.03,-0.24,9.86,37.88,0.022371,0.030893,0.001065
579297799,-0.000765,0.003740,0.000565,-0.06,-0.21,9.87,37.90,0.021306,0.031958,0.000000
579298803,0.000301,0.002675,-0.002631,-0.03,-0.21,9.82,37.92,0.022371,0.033024,-0.003196
579299818,0.000301,0.002675,-0.002631,-0.02,-0.23,9.81,37.89,0.022371,0.033024,-0.003196
579300825,0.001366,0.001610,-0.000500,-0.02,-0.27,9.82,37.89,0.023436,0.034089,-0.001065
579301833,0.001366,0.000545,0.001630,0.01,-0.28,9.78,37.90,0.024501,0.034089,0.001065
579302872,-0.000765,0.001610,0.000565,0.02,-0.24,9.74,37.92,0.023436,0.031958,0.000000
579303853,-0.003961,0.002675,-0.003696,0.01,-0.26,9.75,37.90,0.022371,0.028763,-0.004261
579304863,-0.003961,0.001610,-0.003696,0.03,-0.26,9.77,37.89,0.023436,0.028763,-0.004261
579305866,-0.001830,-0.001586,-0.001566,0.03,-0.22,9.80,37.90,0.026632,0.030893,-0.002131
579306877,-0.000765,-0.001586,0.000565,0.00,-0.22,9.80,37.90,0.026632,0.031958,0.000000
579307927,-0.000765,0.000545,0.000565,0.00,-0.21,9.76,37.85,0.024501,0.031958,0.000000
579308904,0.001366,0.002675,0.000565,0.01,-0.23,9.76,37.89,0.022371,0.034089,0.000000
579309907,0.002431,0.000545,0.000565,-0.03,-0.22,9.78,37.90,0.024501,0.035154,0.000000
579310916,0.002431,-0.001586,0.001630,-0.02,-0.22,9.80,37.89,0.026632,0.035154,0.001065
579311925,0.000301,-0.001586,0.001630,0.03,-0.23,9.79,37.87,0.026632,0.033024,0.001065
579312955,-0.000765,0.000545,0.002695,0.02,-0.22,9.79,37.86,0.024501,0.031958,0.002131
579313948,-0.000765,0.000545,0.002695,-0.01,-0.23,9.81,37.86,0.024501,0.031958,0.002131
579314955,-0.000765,-0.000521,0.001630,-0.01,-0.25,9.83,37.87,0.025567,0.031958,0.001065
579315965,-0.000765,0.000545,0.000565,0.00,-0.23,9.82,37.87,0.024501,0.031958,0.000000
579316975,0.001366,-0.000521,-0.000500,0.01,-0.22,9.80,37.88,0.025567,0.034089,-0.001065
579317990,0.001366,-0.002651,-0.000500,0.02,-0.23,9.81,37.89,0.027697,0.034089,-0.001065
579318995,-0.000765,-0.001586,-0.000500,0.01,-0.27,9.80,37.87,0.026632,0.031958,-0.001065
579320005,-0.000765,0.000545,0.000565,-0.02,-0.28,9.83,37.90,0.024501,0.031958,0.000000
579321015,-0.000765,0.000545,0.001630,-0.02,-0.24,9.82,37.88,0.024501,0.031958,0.001065
579322025,-0.000765,0.000545,0.002695,-0.01,-0.22,9.82,37.90,0.024501,0.031958,0.002131
579323055,-0.000765,-0.000521,0.002695,-0.01,-0.23,9.87,37.92,0.025567,0.031958,0.002131
579324057,0.001366,-0.000521,0.001630,0.01,-0.23,9.83,37.91,0.025567,0.034089,0.001065
579325054,0.002431,-0.000521,0.000565,-0.01,-0.23,9.80,37.89,0.025567,0.035154,0.000000
579326064,0.000301,0.001610,-0.002631,-0.02,-0.22,9.80,37.88,0.023436,0.033024,-0.003196
579327074,-0.001830,0.001610,-0.002631,-0.01,-0.23,9.78,37.88,0.023436,0.030893,-0.003196
579328088,-0.000765,0.001610,-0.000500,-0.03,-0.24,9.76,37.87,0.023436,0.031958,-0.001065
579329094,0.000301,-0.000521,0.001630,-0.02,-0.25,9.80,37.90,0.025567,0.033024,0.001065
579330104,0.001366,-0.001586,0.001630,0.01,-0.27,9.84,37.87,0.026632,0.034089,0.001065
579331114,0.000301,0.000545,-0.000500,0.00,-0.24,9.78,37.90,0.024501,0.033024,-0.001065
579332124,0.000301,0.000545,-0.003696,0.01,-0.23,9.76,37.90,0.024501,0.033024,-0.004261
579333160,0.000301,-0.000521,-0.001566,0.00,-0.23,9.82,37.91,0.025567,0.033024,-0.002131
579334158,-0.000765,-0.000521,0.001630,-0.03,-0.23,9.85,37.89,0.025567,0.031958,0.001065
579335155,-0.000765,0.001610,0.003761,0.01,-0.24,9.82,37.89,0.023436,0.031958,0.003196
579336165,0.001366,0.002675,0.004826,0.02,-0.24,9.82,37.91,0.022371,0.034089,0.004261
579337175,0.003496,0.000545,0.003761,-0.01,-0.26,9.83,37.89,0.024501,0.036220,0.003196
579338190,0.001366,-0.002651,0.002695,0.01,-0.24,9.81,37.90,0.027697,0.034089,0.002131
579339195,-0.006091,-0.002651,0.001630,-0.02,-0.21,9.80,37.92,0.027697,0.026632,0.001065
579340205,-0.005026,-0.002651,0.001630,-0.03,-0.22,9.81,37.90,0.027697,0.027697,0.001065
579341215,-0.002895,-0.002651,-0.000500,-0.01,-0.22,9.85,37.89,0.027697,0.029828,-0.001065
579342225,0.001366,-0.001586,-0.001566,0.01,-0.26,9.84,37.86,0.026632,0.034089,-0.002131
579343261,0.001366,0.000545,-0.000500,0.02,-0.26,9.81,37.89,0.024501,0.034089,-0.001065
579344257,0.000301,-0.000521,0.000565,0.00,-0.26,9.80,37.91,0.025567,0.033024,0.000000
579345254,0.001366,-0.000521,-0.001566,-0.02,-0.27,9.83,37.92,0.025567,0.034089,-0.002131
579346264,0.003496,-0.000521,-0.002631,-0.02,-0.22,9.84,37.90,0.025567,0.036220,-0.003196
579347274,0.003496,-0.002651,-0.001566,-0.01,-0.18,9.84,37.89,0.027697,0.036220,-0.002131
579348288,0.002431,-0.003716,-0.001566,-0.01,-0.17,9.81,37.88,0.028763,0.035154,-0.002131
579349294,0.001366,-0.002651,-0.000500,-0.01,-0.21,9.78,37.90,0.027697,0.034089,-0.001065
579350304,0.002431,-0.001586,0.001630,0.00,-0.24,9.79,37.88,0.026632,0.035154,0.001065
579351314,0.001366,-0.001586,-0.000500,-0.03,-0.23,9.79,37.91,0.026632,0.034089,-0.001065
579352324,0.000301,-0.002651,-0.001566,-0.02,-0.24,9.78,37.93,0.027697,0.033024,-0.002131
579353360,-0.001830,-0.001586,-0.002631,0.02,-0.22,9.77,37.89,0.026632,0.030893,-0.003196
579354358,-0.001830,0.000545,-0.003696,0.01,-0.20,9.83,37.90,0.024501,0.030893,-0.004261
579355387,-0.000738,0.000576,-0.001606,-0.01,-0.23,9.86,37.88,0.024501,0.031958,-0.002131
579356365,0.000327,-0.001554,0.001590,-0.01,-0.26,9.83,37.89,0.026632,0.033024,0.001065
579357375,-0.000738,-0.000489,0.001590,-0.03,-0.25,9.79,37.88,0.025567,0.031958,0.001065
579358390,-0.000738,0.001642,0.001590,-0.03,-0.25,9.82,37.90,0.023436,0.031958,0.001065
579359395,0.000327,0.004837,0.000525,-0.03,-0.25,9.87,37.91,0.020240,0.033024,0.000000
579360405,0.000327,0.004837,0.001590,-0.01,-0.25,9.87,37.92,0.020240,0.033024,0.001065
579361415,0.000327,0.002707,0.003721,0.01,-0.24,9.86,37.91,0.022371,0.033024,0.003196
579362447,0.000327,0.000576,0.004786,0.02,-0.22,9.83,37.91,0.024501,0.033024,0.004261
579363444,0.000327,0.000576,0.004786,-0.01,-0.23,9.84,37.93,0.024501,0.033024,0.004261
579364457,0.001393,0.000576,0.002655,-0.02,-0.25,9.85,37.90,0.024501,0.034089,0.002131
579365454,-0.000738,-0.000489,-0.000540,0.02,-0.25,9.81,37.90,0.025567,0.031958,-0.001065
579366464,-0.002868,-0.000489,-0.000540,0.00,-0.23,9.80,37.88,0.025567,0.029828,-0.001065
579367474,-0.002868,0.000576,-0.001606,-0.01,-0.26,9.82,37.87,0.024501,0.029828,-0.002131
579368490,-0.001803,0.002707,-0.000540,0.01,-0.27,9.79,37.89,0.022371,0.030893,-0.001065
579369494,-0.000738,0.001642,-0.000540,-0.02,-0.23,9.74,37.88,0.023436,0.031958,-0.001065
579370504,-0.000738,0.001642,-0.000540,-0.04,-0.20,9.76,37.90,0.023436,0.031958,-0.001065
579371514,0.000327,0.001642,-0.002671,-0.04,-0.18,9.78,37.93,0.023436,0.033024,-0.003196
579372549,0.000327,0.001642,-0.000540,-0.03,-0.21,9.80,37.94,0.023436,0.033024,-0.001065
579373543,-0.000738,0.002707,0.001590,-0.02,-0.27,9.79,37.88,0.022371,0.031958,0.001065
579374558,-0.000738,0.001642,0.003721,0.00,-0.28,9.80,37.87,0.023436,0.031958,0.003196
579375555,-0.002868,0.000576,0.003721,-0.01,-0.28,9.85,37.90,0.024501,0.029828,0.003196
579376565,-0.002868,-0.000489,0.000525,0.00,-0.24,9.82,37.90,0.025567,0.029828,0.000000
579377575,-0.002868,-0.000489,-0.000540,0.00,-0.24,9.82,37.91,0.025567,0.029828,-0.001065
579378590,-0.002868,-0.000489,-0.001606,0.00,-0.24,9.85,37.90,0.025567,0.029828,-0.002131
579379595,-0.001803,-0.000489,-0.000540,0.02,-0.21,9.83,37.86,0.025567,0.030893,-0.001065
579380605,-0.000738,-0.000489,0.000525,0.01,-0.19,9.85,37.89,0.025567,0.031958,0.000000
579381615,0.001393,-0.000489,0.002655,-0.02,-0.19,9.85,37.88,0.025567,0.034089,0.002131
579382646,0.001393,-0.000489,0.002655,-0.01,-0.22,9.83,37.89,0.025567,0.034089,0.002131
579383646,-0.001803,-0.001554,0.001590,0.02,-0.23,9.82,37.88,0.026632,0.030893,0.001065
579384657,-0.003934,-0.000489,-0.000540,0.03,-0.21,9.76,37.87,0.025567,0.028763,-0.001065
579385654,-0.001803,-0.000489,-0.002671,0.00,-0.21,9.77,37.90,0.025567,0.030893,-0.003196
579386664,0.000327,-0.000489,-0.001606,-0.01,-0.25,9.77,37.95,0.025567,0.033024,-0.002131
579387679,-0.000738,0.000576,-0.001606,-0.01,-0.26,9.74,37.92,0.024501,0.031958,-0.002131
579388692,-0.001803,0.001642,-0.001606,0.00,-0.24,9.77,37.92,0.023436,0.030893,-0.002131
579389704,-0.001803,0.003772,-0.000540,0.00,-0.21,9.80,37.90,0.021306,0.030893,-0.001065
579390718,-0.000738,0.004837,-0.000540,-0.02,-0.20,9.80,37.91,0.020240,0.031958,-0.001065
579391723,0.001393,0.004837,0.000525,-0.03,-0.22,9.82,37.92,0.020240,0.034089,0.000000
579392757,0.001393,0.000576,0.003721,-0.03,-0.25,9.84,37.91,0.024501,0.034089,0.003196
579393749,0.001393,-0.000489,0.003721,0.02,-0.25,9.82,37.91,0.025567,0.034089,0.003196
579394771,0.002458,-0.000489,0.002655,0.02,-0.22,9.79,37.88,0.025567,0.035154,0.002131
579395772,0.002458,-0.001554,0.002655,0.00,-0.22,9.81,37.89,0.026632,0.035154,0.002131
579396775,0.002458,-0.001554,0.001590,0.02,-0.25,9.82,37.92,0.026632,0.035154,0.001065
579397789,0.002458,-0.001554,0.000525,0.01,-0.25,9.80,37.93,0.026632,0.035154,0.000000
579398799,0.001393,-0.002620,-0.000540,-0.03,-0.25,9.81,37.94,0.027697,0.034089,-0.001065
579399802,-0.000738,-0.001554,-0.000540,-0.01,-0.27,9.86,37.93,0.026632,0.031958,-0.001065
579400817,-0.000738,-0.000489,0.001590,0.01,-0.25,9.83,37.92,0.025567,0.031958,0.001065
579401823,-0.000738,-0.000489,0.001590,0.00,-0.24,9.79,37.92,0.025567,0.031958,0.001065
579402861,-0.000738,-0.002620,0.000525,0.02,-0.26,9.81,37.89,0.027697,0.031958,0.000000
579403868,-0.001803,-0.004750,-0.000540,0.03,-0.25,9.83,37.88,0.029828,0.030893,-0.001065
579404854,-0.002868,-0.005815,-0.001606,0.00,-0.24,9.83,37.87,0.030893,0.029828,-0.002131
579405859,-0.003934,-0.003685,-0.002671,0.00,-0.24,9.82,37.88,0.028763,0.028763,-0.003196
579406867,-0.001803,0.000576,-0.000540,0.01,-0.24,9.75,37.88,0.024501,0.030893,-0.001065
579407878,0.001393,0.003772,0.000525,0.02,-0.22,9.74,37.87,0.021306,0.034089,0.000000
579408899,0.002458,0.002707,0.000525,0.01,-0.22,9.81,37.89,0.022371,0.035154,0.000000
579409898,0.001393,-0.000489,-0.000540,0.01,-0.25,9.81,37.87,0.025567,0.034089,-0.001065
579410908,-0.000738,-0.000489,-0.001606,0.03,-0.26,9.79,37.89,0.025567,0.031958,-0.002131
579411917,-0.001803,-0.000489,-0.000540,0.01,-0.22,9.80,37.90,0.025567,0.030893,-0.001065
579412995,0.000327,-0.002620,0.000525,-0.02,-0.21,9.81,37.92,0.027697,0.033024,0.000000
579413990,0.000327,-0.002620,0.000525,-0.03,-0.21,9.78,37.89,0.027697,0.033024,0.000000
579414944,0.000327,-0.000489,-0.000540,-0.03,-0.22,9.81,37.89,0.025567,0.033024,-0.001065
579415954,0.000327,0.001642,-0.000540,-0.02,-0.22,9.86,37.90,0.023436,0.033024,-0.001065
579416964,-0.001803,0.000576,0.000525,-0.02,-0.20,9.86,37.88,0.024501,0.030893,0.000000
579417974,-0.002868,-0.000489,0.001590,-0.02,-0.21,9.85,37.89,0.025567,0.029828,0.001065
579418984,-0.001803,0.000576,0.000525,-0.02,-0.22,9.84,37.87,0.024501,0.030893,0.000000
579419998,0.001393,0.001642,0.001590,-0.02,-0.23,9.84,37.89,0.023436,0.034089,0.001065
579421004,0.002458,0.003772,0.002655,0.01,-0.20,9.81,37.91,0.021306,0.035154,0.002131
579422014,0.001393,0.003772,0.001590,0.00,-0.21,9.83,37.90,0.021306,0.034089,0.001065
579423047,0.000327,0.003772,-0.000540,-0.03,-0.22,9.80,37.90,0.021306,0.033024,-0.001065
579424046,0.001393,0.003772,-0.002671,-0.01,-0.22,9.74,37.89,0.021306,0.034089,-0.003196
579425052,0.000327,0.004837,-0.000540,-0.01,-0.25,9.75,37.85,0.020240,0.033024,-0.001065
579426053,0.001393,0.004837,0.001590,-0.01,-0.22,9.81,37.90,0.020240,0.034089,0.001065
579427063,0.002458,0.001642,0.003721,0.03,-0.20,9.81,37.91,0.023436,0.035154,0.003196
579428073,0.001393,-0.000489,0.001590,0.01,-0.20,9.79,37.90,0.025567,0.034089,0.001065
579429083,0.001393,0.000576,-0.000540,-0.03,-0.22,9.86,37.90,0.024501,0.034089,-0.001065
579430097,0.000327,0.000576,-0.002671,-0.01,-0.25,9.86,37.91,0.024501,0.033024,-0.003196
579431103,-0.000738,0.000576,-0.003736,0.03,-0.24,9.81,37.88,0.024501,0.031958,-0.004261
579432113,-0.000738,0.000576,-0.001606,0.01,-0.23,9.78,37.87,0.024501,0.031958,-0.002131
579433151,0.000327,-0.000489,0.000525,0.00,-0.21,9.74,37.87,0.025567,0.033024,0.000000
579434147,0.001393,-0.000489,0.000525,0.01,-0.20,9.79,37.92,0.025567,0.034089,0.000000
579435148,0.002458,-0.000489,-0.001606,-0.03,-0.22,9.85,37.95,0.025567,0.035154,-0.002131
579436154,0.002458,0.000576,-0.003736,-0.02,-0.22,9.83,37.92,0.024501,0.035154,-0.004261
579437164,0.001393,-0.001554,-0.002671,0.00,-0.24,9.86,37.91,0.026632,0.034089,-0.003196
579438174,-0.001803,-0.001554,0.000525,-0.02,-0.25,9.82,37.88,0.026632,0.030893,0.000000
579439184,-0.001803,-0.000489,0.002655,-0.02,-0.25,9.73,37.91,0.025567,0.030893,0.002131
579440198,0.000327,0.000576,0.000525,-0.02,-0.22,9.72,37.89,0.024501,0.033024,0.000000
579441204,-0.000738,-0.002620,-0.003736,0.02,-0.23,9.80,37.91,0.027697,0.031958,-0.004261
579442214,-0.001803,0.000576,-0.002671,0.02,-0.26,9.82,37.91,0.024501,0.030893,-0.003196
579443249,-0.000738,0.001642,-0.000540,0.00,-0.24,9.78,37.90,0.023436,0.031958,-0.001065
579444246,0.000327,0.000576,-0.001606,-0.03,-0.22,9.80,37.87,0.024501,0.033024,-0.002131
579445251,0.000327,0.000576,-0.001606,0.00,-0.22,9.80,37.87,0.024501,0.033024,-0.002131
579446253,-0.000738,-0.000489,-0.001606,0.00,-0.23,9.79,37.87,0.025567,0.031958,-0.002131
579447263,-0.001803,-0.001554,-0.000540,-0.01,-0.23,9.82,37.86,0.026632,0.030893,-0.001065
579448273,-0.002868,-0.001554,0.000525,0.01,-0.23,9.79,37.86,0.026632,0.029828,0.000000
579449283,-0.001803,-0.000489,-0.000540,0.00,-0.24,9.82,37.87,0.025567,0.030893,-0.001065
579450298,-0.000738,0.000576,-0.003736,-0.02,-0.23,9.86,37.87,0.024501,0.031958,-0.004261
579451303,0.001393,0.000576,-0.002671,-0.02,-0.24,9.83,37.88,0.024501,0.034089,-0.003196
579452313,0.000327,-0.000489,-0.000540,-0.02,-0.24,9.80,37.90,0.025567,0.033024,-0.001065
579453350,0.001393,-0.001554,-0.000540,0.00,-0.23,9.79,37.90,0.026632,0.034089,-0.001065
579454347,0.001393,-0.000489,-0.001606,0.02,-0.25,9.83,37.87,0.025567,0.034089,-0.002131
579455350,0.000327,0.000576,-0.001606,-0.01,-0.24,9.79,37.86,0.024501,0.033024,-0.002131
579456354,-0.001803,0.001642,-0.000540,-0.01,-0.23,9.78,37.85,0.023436,0.030893,-0.001065
579457364,-0.001803,0.004837,-0.001606,0.01,-0.21,9.79,37.86,0.020240,0.030893,-0.002131
579458374,-0.001803,0.005903,-0.002671,-0.02,-0.21,9.80,37.90,0.019175,0.030893,-0.003196
579459384,-0.001803,0.004837,-0.001606,-0.01,-0.22,9.85,37.90,0.020240,0.030893,-0.002131
579460398,-0.001803,0.003772,-0.002671,0.01,-0.23,9.86,37.87,0.021306,0.030893,-0.003196
579461404,0.001393,0.001642,-0.001606,-0.01,-0.22,9.85,37.87,0.023436,0.034089,-0.002131
579462437,0.001393,-0.000489,-0.000540,-0.01,-0.17,9.81,37.87,0.025567,0.034089,-0.001065
579463427,0.001393,-0.000489,-0.000540,-0.01,-0.18,9.78,37.84,0.025567,0.034089,-0.001065
579464446,-0.000738,-0.000489,0.000525,0.01,-0.21,9.76,37.89,0.025567,0.031958,0.000000
579465452,-0.002868,0.000576,0.001590,0.02,-0.23,9.78,37.87,0.024501,0.029828,0.001065
579466453,-0.003934,0.001642,0.000525,-0.04,-0.25,9.82,37.85,0.023436,0.028763,0.000000
579467463,-0.002868,0.001642,-0.000540,-0.05,-0.22,9.78,37.87,0.023436,0.029828,-0.001065
579468473,-0.001803,0.001642,-0.000540,-0.02,-0.23,9.79,37.84,0.023436,0.030893,-0.001065
579469483,-0.001803,0.001642,0.000525,-0.02,-0.25,9.80,37.87,0.023436,0.030893,0.000000
579470497,-0.000738,0.002707,0.001590,-0.04,-0.23,9.74,37.88,0.022371,0.031958,0.001065
579471503,-0.001803,0.001642,0.002655,-0.03,-0.22,9.83,37.90,0.023436,0.030893,0.002131
579472541,-0.003934,-0.000489,0.002655,-0.04,-0.26,9.87,37.87,0.025567,0.028763,0.002131
579473528,-0.002868,-0.002620,0.000525,-0.01,-0.27,9.79,37.91,0.027697,0.029828,0.000000
579474547,-0.000738,-0.000489,-0.001606,0.01,-0.23,9.79,37.88,0.025567,0.031958,-0.002131
579475548,0.001393,0.000576,-0.002671,-0.02,-0.23,9.79,37.90,0.024501,0.034089,-0.003196
579476554,0.002458,0.000576,-0.001606,-0.01,-0.23,9.82,37.92,0.024501,0.035154,-0.002131
579477564,0.002458,0.001642,0.001590,-0.01,-0.24,9.84,37.93,0.023436,0.035154,0.001065
579478574,0.000327,-0.000489,0.003721,0.00,-0.25,9.85,37.86,0.025567,0.033024,0.003196
579479584,-0.001803,-0.002620,0.003721,-0.01,-0.27,9.83,37.85,0.027697,0.030893,0.003196
579480598,-0.002868,-0.001554,0.001590,-0.03,-0.27,9.82,37.85,0.026632,0.029828,0.001065
579481604,-0.000738,-0.000489,0.000525,-0.03,-0.25,9.82,37.88,0.025567,0.031958,0.000000
579482639,0.003523,0.000576,0.000525,-0.04,-0.24,9.75,37.89,0.024501,0.036220,0.000000
579483627,0.002458,0.001642,0.001590,-0.04,-0.23,9.74,37.89,0.023436,0.035154,0.001065
579484667,-0.001761,0.002645,0.002640,0.00,-0.22,9.80,37.91,0.022371,0.030893,0.002131
579485652,-0.003892,0.002645,0.002640,-0.01,-0.22,9.78,37.87,0.022371,0.028763,0.002131
579486654,-0.001761,0.001580,0.002640,-0.03,-0.23,9.79,37.89,0.023436,0.030893,0.002131
579487664,0.000369,0.001580,0.002640,-0.01,-0.23,9.83,37.88,0.023436,0.033024,0.002131
579488679,-0.001761,0.001580,0.001575,0.01,-0.21,9.81,37.88,0.023436,0.030893,0.001065
579489684,-0.002827,0.001580,-0.000555,0.01,-0.22,9.82,37.88,0.023436,0.029828,-0.001065
579490711,-0.002827,0.000515,-0.000555,0.01,-0.21,9.82,37.88,0.024501,0.029828,-0.001065
579491712,-0.001761,0.001580,-0.000555,0.01,-0.18,9.83,37.88,0.023436,0.030893,-0.001065
579492748,-0.000696,0.002645,-0.001621,0.02,-0.20,9.79,37.89,0.022371,0.031958,-0.002131
579493737,0.002500,0.001580,-0.001621,0.01,-0.24,9.77,37.89,0.023436,0.035154,-0.002131
579494745,0.003565,-0.000550,-0.001621,0.00,-0.24,9.82,37.90,0.025567,0.036220,-0.002131
579495760,0.002500,-0.000550,-0.001621,0.01,-0.24,9.78,37.95,0.025567,0.035154,-0.002131
579496773,-0.000696,-0.000550,-0.002686,0.01,-0.25,9.76,37.92,0.025567,0.031958,-0.003196
579497773,-0.001761,0.000515,-0.001621,0.00,-0.24,9.78,37.88,0.024501,0.030893,-0.002131
579498787,0.000369,-0.001616,0.000510,0.01,-0.24,9.78,37.88,0.026632,0.033024,0.000000
579499795,0.000369,-0.004811,0.000510,0.00,-0.25,9.84,37.92,0.029828,0.033024,0.000000
579500805,-0.000696,-0.002681,0.000510,-0.02,-0.23,9.82,37.91,0.027697,0.031958,0.000000
579501817,-0.001761,-0.000550,0.001575,-0.03,-0.20,9.81,37.88,0.025567,0.030893,0.001065
579502841,-0.000696,-0.000550,0.002640,-0.01,-0.23,9.83,37.88,0.025567,0.031958,0.002131
579503836,-0.000696,0.000515,0.001575,0.00,-0.24,9.83,37.87,0.024501,0.031958,0.001065
579504846,-0.001761,0.001580,-0.000555,0.00,-0.24,9.83,37.89,0.023436,0.030893,-0.001065
579505862,-0.001761,0.000515,-0.002686,0.00,-0.23,9.79,37.87,0.024501,0.030893,-0.003196
579506863,-0.000696,0.000515,-0.002686,0.01,-0.22,9.77,37.89,0.024501,0.031958,-0.003196
579507867,-0.000696,-0.000550,-0.001621,0.01,-0.21,9.77,37.88,0.025567,0.031958,-0.002131
579508880,0.000369,-0.004811,0.000510,0.00,-0.25,9.79,37.88,0.029828,0.033024,0.000000
579509884,0.000369,-0.006942,0.001575,-0.01,-0.26,9.82,37.92,0.031958,0.033024,0.001065
579510902,-0.000696,-0.004811,0.000510,-0.03,-0.26,9.83,37.92,0.029828,0.031958,0.000000
579511908,-0.000696,-0.000550,-0.000555,0.00,-0.25,9.80,37.94,0.025567,0.031958,-0.001065
579512938,-0.000696,0.001580,-0.000555,0.01,-0.22,9.79,37.92,0.023436,0.031958,-0.001065
579513930,0.000369,0.000515,0.001575,-0.01,-0.22,9.80,37.92,0.024501,0.033024,0.001065
579514934,0.000369,0.000515,0.001575,-0.01,-0.23,9.82,37.92,0.024501,0.033024,0.001065
579515948,0.001434,0.002645,0.002640,0.00,-0.24,9.86,37.89,0.022371,0.034089,0.002131
579516954,0.002500,0.001580,0.002640,0.02,-0.23,9.82,37.88,0.023436,0.035154,0.002131
579517964,0.000369,-0.000550,0.001575,0.02,-0.26,9.77,37.91,0.025567,0.033024,0.001065
579518974,0.000369,-0.000550,-0.000555,0.00,-0.25,9.80,37.88,0.025567,0.033024,-0.001065
579519987,0.000369,0.003711,-0.000555,-0.02,-0.21,9.81,37.90,0.021306,0.033024,-0.001065
579520998,0.000369,0.005841,-0.000555,0.00,-0.20,9.81,37.88,0.019175,0.033024,-0.001065
579522004,-0.000696,0.002645,-0.003751,0.02,-0.21,9.82,37.89,0.022371,0.031958,-0.004261
579523033,0.000369,0.000515,-0.004817,-0.02,-0.22,9.82,37.89,0.024501,0.033024,-0.005326
579524027,0.001434,0.000515,-0.001621,-0.06,-0.21,9.81,37.88,0.024501,0.034089,-0.002131
579525034,0.000369,-0.000550,0.001575,-0.02,-0.19,9.80,37.90,0.025567,0.033024,0.001065
579526052,0.000369,-0.000550,0.000510,0.00,-0.20,9.81,37.91,0.025567,0.033024,0.000000
579527054,0.000369,-0.001616,-0.001621,-0.01,-0.20,9.86,37.88,0.026632,0.033024,-0.002131
579528064,-0.000696,-0.002681,-0.001621,-0.04,-0.23,9.85,37.88,0.027697,0.031958,-0.002131
579529074,-0.000696,-0.001616,-0.001621,-0.04,-0.27,9.82,37.88,0.026632,0.031958,-0.002131
579530084,-0.000696,0.000515,-0.001621,0.00,-0.28,9.78,37.90,0.024501,0.031958,-0.002131
579531100,0.000369,0.003711,-0.001621,0.01,-0.24,9.78,37.90,0.021306,0.033024,-0.002131
579532104,0.001434,0.001580,0.000510,0.00,-0.20,9.85,37.89,0.023436,0.034089,0.000000
579533133,0.001434,-0.001616,0.000510,0.01,-0.22,9.84,37.92,0.026632,0.034089,0.000000
579534127,-0.001761,-0.001616,0.000510,0.02,-0.23,9.81,37.90,0.026632,0.030893,0.000000
579535134,-0.000696,-0.000550,0.000510,-0.01,-0.22,9.82,37.91,0.025567,0.031958,0.000000
579536150,0.002500,0.000515,-0.000555,-0.02,-0.21,9.85,37.90,0.024501,0.035154,-0.001065
579537154,0.003565,0.001580,0.000510,-0.01,-0.20,9.87,37.86,0.023436,0.036220,0.000000
579538164,0.002500,-0.000550,0.001575,-0.03,-0.24,9.86,37.90,0.025567,0.035154,0.001065
579539174,0.002500,-0.002681,0.001575,-0.02,-0.25,9.77,37.88,0.027697,0.035154,0.001065
579540184,0.002500,-0.000550,-0.000555,-0.01,-0.21,9.70,37.90,0.025567,0.035154,-0.001065
579541198,0.002500,0.000515,-0.001621,-0.03,-0.22,9.75,37.91,0.024501,0.035154,-0.002131
579542204,0.002500,0.000515,-0.001621,-0.02,-0.23,9.80,37.89,0.024501,0.035154,-0.002131
579543231,0.001434,-0.003746,-0.000555,-0.01,-0.25,9.77,37.90,0.028763,0.034089,-0.001065
579544227,0.001434,-0.002681,0.001575,0.01,-0.28,9.79,37.87,0.027697,0.034089,0.001065
579545234,-0.000696,-0.002681,0.001575,-0.01,-0.25,9.77,37.88,0.027697,0.031958,0.001065
579546253,-0.003892,-0.004811,-0.000555,-0.02,-0.23,9.77,37.87,0.029828,0.028763,-0.001065
579547254,-0.001761,-0.003746,-0.001621,0.00,-0.23,9.79,37.86,0.028763,0.030893,-0.002131
579548264,-0.000696,-0.000550,0.000510,0.01,-0.24,9.84,37.86,0.025567,0.031958,0.000000
579549274,-0.001761,0.000515,0.001575,-0.01,-0.24,9.84,37.87,0.024501,0.030893,0.001065
579550284,-0.001761,0.001580,0.001575,-0.02,-0.25,9.81,37.92,0.023436,0.030893,0.001065
579551298,0.000369,0.001580,0.002640,-0.01,-0.27,9.79,37.89,0.023436,0.033024,0.002131
579552304,0.001434,-0.000550,0.003706,-0.02,-0.23,9.80,37.88,0.025567,0.034089,0.003196
579553334,0.000369,-0.000550,0.002640,-0.03,-0.24,9.82,37.85,0.025567,0.033024,0.002131
579554327,0.001434,0.000515,0.000510,0.00,-0.24,9.79,37.88,0.024501,0.034089,0.000000
579555334,0.001434,0.003711,-0.000555,0.00,-0.24,9.78,37.87,0.021306,0.034089,-0.001065
579556348,0.000369,0.002645,-0.000555,-0.02,-0.29,9.85,37.84,0.022371,0.033024,-0.001065
579557354,0.000369,0.000515,-0.001621,0.01,-0.26,9.86,37.81,0.024501,0.033024,-0.002131
579558364,0.000369,-0.000550,-0.001621,0.02,-0.21,9.83,37.85,0.025567,0.033024,-0.002131
579559374,-0.000696,0.001580,-0.001621,0.02,-0.20,9.81,37.86,0.023436,0.031958,-0.002131
579560384,-0.001761,0.002645,-0.001621,0.01,-0.19,9.79,37.87,0.022371,0.030893,-0.002131
579561398,0.000369,0.001580,-0.002686,-0.01,-0.20,9.78,37.87,0.023436,0.033024,-0.003196
579562423,0.002500,0.000515,-0.003751,-0.01,-0.21,9.82,37.91,0.024501,0.035154,-0.004261
579563417,0.001434,-0.000550,-0.004817,-0.04,-0.19,9.84,37.87,0.025567,0.034089,-0.005326
579564424,0.001434,-0.000550,-0.004817,-0.05,-0.18,9.75,37.86,0.025567,0.034089,-0.005326
579565434,0.000369,-0.000550,-0.003751,-0.01,-0.22,9.74,37.88,0.025567,0.033024,-0.004261
579566452,0.000369,-0.000550,-0.001621,0.02,-0.21,9.84,37.89,0.025567,0.033024,-0.002131
579567454,-0.000696,-0.001616,-0.000555,0.01,-0.20,9.88,37.89,0.026632,0.031958,-0.001065
579568464,-0.000696,-0.000550,-0.000555,0.02,-0.20,9.87,37.92,0.025567,0.031958,-0.001065
579569474,0.000369,0.000515,0.000510,0.02,-0.25,9.86,37.92,0.024501,0.033024,0.000000
579570484,0.001434,0.001580,0.001575,0.01,-0.25,9.83,37.90,0.023436,0.034089,0.001065
579571500,0.001434,0.001580,0.002640,0.01,-0.21,9.82,37.90,0.023436,0.034089,0.002131
579572523,0.001434,0.001580,0.000510,-0.02,-0.21,9.83,37.89,0.023436,0.034089,0.000000
579573517,0.001434,0.001580,-0.001621,-0.05,-0.22,9.80,37.90,0.023436,0.034089,-0.002131
579574524,0.003565,-0.001616,-0.001621,-0.04,-0.22,9.78,37.90,0.026632,0.036220,-0.002131
579575534,0.004630,-0.003746,-0.001621,0.00,-0.22,9.80,37.90,0.028763,0.037285,-0.002131
579576550,0.003565,-0.002681,-0.002686,0.00,-0.23,9.85,37.89,0.027697,0.036220,-0.003196
579577554,0.001434,-0.000550,0.000510,-0.01,-0.23,9.86,37.88,0.025567,0.034089,0.000000
579578564,0.000369,-0.001616,0.001575,-0.02,-0.22,9.85,37.88,0.026632,0.033024,0.001065
579579574,0.000369,-0.001616,-0.000555,-0.04,-0.23,9.83,37.90,0.026632,0.033024,-0.001065
579580584,0.001434,-0.001616,-0.001621,-0.03,-0.25,9.83,37.90,0.026632,0.034089,-0.002131
579581598,0.001434,-0.001616,-0.000555,0.04,-0.23,9.81,37.91,0.026632,0.034089,-0.001065
579582621,0.001434,-0.001616,0.001575,0.02,-0.23,9.81,37.89,0.026632,0.034089,0.001065
579583617,0.001434,-0.000550,0.003706,-0.01,-0.24,9.83,37.87,0.025567,0.034089,0.003196
579584624,0.002500,0.000515,0.004771,0.02,-0.26,9.83,37.87,0.024501,0.035154,0.004261
579585634,0.001434,0.001580,0.003706,0.01,-0.24,9.83,37.87,0.023436,0.034089,0.003196
579586653,0.001434,0.001580,0.002640,0.01,-0.21,9.78,37.84,0.023436,0.034089,0.002131
579587654,0.001434,0.000515,0.002640,0.02,-0.21,9.77,37.87,0.024501,0.034089,0.002131
579588664,0.001434,-0.000550,0.001575,0.00,-0.22,9.81,37.90,0.025567,0.034089,0.001065
579589679,0.000369,-0.001616,-0.000555,-0.02,-0.25,9.80,37.90,0.026632,0.033024,-0.001065
579590684,-0.000696,-0.000550,-0.001621,0.00,-0.28,9.77,37.90,0.025567,0.031958,-0.002131
579591704,0.000369,0.001580,-0.001621,0.02,-0.28,9.79,37.89,0.023436,0.033024,-0.002131
579592728,0.000369,0.001580,-0.001621,0.00,-0.28,9.76,37.89,0.023436,0.033024,-0.002131
579593723,0.000369,0.001580,-0.003751,-0.01,-0.27,9.75,37.88,0.023436,0.033024,-0.004261
579594733,0.000369,0.000515,-0.003751,0.04,-0.25,9.78,37.91,0.024501,0.033024,-0.004261
579595740,0.001434,-0.000550,-0.001621,0.02,-0.26,9.80,37.90,0.025567,0.034089,-0.002131
579596756,0.001434,0.000515,-0.000555,-0.01,-0.25,9.82,37.89,0.024501,0.034089,-0.001065
579597771,-0.000696,0.000515,0.001575,-0.02,-0.23,9.84,37.88,0.024501,0.031958,0.001065
579598775,-0.000696,-0.000550,0.001575,-0.02,-0.22,9.86,37.88,0.025567,0.031958,0.001065
579599787,0.000369,-0.001616,0.000510,-0.02,-0.19,9.82,37.92,0.026632,0.033024,0.000000
579600797,0.001434,0.000515,-0.001621,-0.01,-0.22,9.83,37.91,0.024501,0.034089,-0.002131
579601806,0.001434,0.001580,-0.001621,-0.01,-0.23,9.87,37.92,0.023436,0.034089,-0.002131
579602833,-0.001761,-0.000550,-0.000555,0.00,-0.22,9.86,37.87,0.025567,0.030893,-0.001065
579603825,-0.002827,-0.000550,-0.001621,-0.01,-0.17,9.84,37.86,0.025567,0.029828,-0.002131
579604834,-0.001761,-0.000550,-0.000555,-0.04,-0.17,9.82,37.86,0.025567,0.030893,-0.001065
579605847,-0.000696,0.000515,0.000510,-0.04,-0.23,9.82,37.87,0.024501,0.031958,0.000000
579606858,-0.000696,-0.000550,-0.000555,-0.05,-0.26,9.80,37.85,0.025567,0.031958,-0.001065
579607892,-0.000696,-0.001616,0.001575,-0.01,-0.22,9.85,37.88,0.026632,0.031958,0.001065
579608876,0.000369,-0.000550,0.002640,0.00,-0.19,9.82,37.86,0.025567,0.033024,0.002131
579609878,0.003565,0.000515,0.003706,-0.02,-0.23,9.76,37.87,0.024501,0.036220,0.003196
579610884,0.005696,0.002645,0.004771,-0.02,-0.25,9.80,37.86,0.022371,0.038350,0.004261
579611904,0.002500,0.001580,0.003706,0.00,-0.23,9.79,37.84,0.023436,0.035154,0.003196
579612926,0.002500,0.001580,0.000510,0.01,-0.24,9.80,37.91,0.023436,0.035154,0.000000
579613950,0.002446,0.002648,-0.000548,-0.01,-0.24,9.87,37.93,0.022371,0.035154,-0.001065
579614926,0.001381,0.003713,-0.000548,-0.04,-0.26,9.85,37.92,0.021306,0.034089,-0.001065
579615934,0.002446,0.003713,-0.000548,0.00,-0.28,9.82,37.90,0.021306,0.035154,-0.001065
579616950,0.002446,0.001582,-0.000548,0.01,-0.24,9.78,37.90,0.023436,0.035154,-0.001065
579617954,0.002446,-0.000548,-0.001613,0.00,-0.20,9.76,37.89,0.025567,0.035154,-0.002131
579618964,0.001381,-0.001614,-0.002678,-0.02,-0.23,9.80,37.90,0.026632,0.034089,-0.003196
579619974,0.001381,0.000517,-0.001613,-0.04,-0.29,9.82,37.89,0.024501,0.034089,-0.002131
579620984,0.001381,-0.000548,0.001583,0.00,-0.27,9.86,37.87,0.025567,0.034089,0.001065
579621998,0.002446,-0.001614,0.003713,0.02,-0.22,9.87,37.86,0.026632,0.035154,0.003196
579623021,0.002446,-0.002679,0.002648,-0.01,-0.20,9.82,37.89,0.027697,0.035154,0.002131
579624017,0.003512,-0.001614,0.000518,-0.02,-0.21,9.77,37.91,0.026632,0.036220,0.000000
579625024,0.000316,-0.001614,0.000518,-0.02,-0.19,9.78,37.91,0.026632,0.033024,0.000000
579626034,-0.002880,-0.000548,0.000518,0.01,-0.17,9.83,37.90,0.025567,0.029828,0.000000
579627053,-0.000750,0.001582,0.001583,-0.01,-0.20,9.81,37.90,0.023436,0.031958,0.001065
579628054,0.002446,0.001582,0.001583,-0.04,-0.23,9.81,37.88,0.023436,0.035154,0.001065
579629064,0.004577,0.001582,-0.001613,-0.04,-0.25,9.81,37.84,0.023436,0.037285,-0.002131
579630074,0.004577,0.001582,-0.004809,-0.05,-0.22,9.78,37.86,0.023436,0.037285,-0.005326
579631084,0.000316,0.001582,-0.002678,-0.02,-0.23,9.77,37.87,0.023436,0.033024,-0.003196
579632098,-0.002880,0.000517,0.000518,-0.01,-0.24,9.80,37.86,0.024501,0.029828,0.000000
579633124,-0.003945,0.001582,0.001583,0.02,-0.22,9.81,37.92,0.023436,0.028763,0.001065
579634117,-0.000750,0.001582,0.000518,0.02,-0.23,9.78,37.95,0.023436,0.031958,0.000000
579635124,0.001381,0.002648,-0.000548,-0.04,-0.24,9.81,37.96,0.022371,0.034089,-0.001065
579636134,0.000316,0.003713,-0.000548,-0.05,-0.24,9.82,37.91,0.021306,0.033024,-0.001065
579637148,-0.000750,0.001582,0.000518,0.01,-0.19,9.79,37.90,0.023436,0.031958,0.000000
579638154,0.000316,0.001582,0.000518,0.00,-0.21,9.81,37.89,0.023436,0.033024,0.000000
579639164,0.000316,0.001582,0.001583,-0.01,-0.27,9.83,37.91,0.023436,0.033024,0.001065
579640174,-0.000750,0.001582,0.003713,0.03,-0.25,9.83,37.93,0.023436,0.031958,0.003196
579641184,-0.000750,0.002648,0.003713,0.01,-0.23,9.85,37.90,0.022371,0.031958,0.003196
579642244,-0.000750,0.003713,0.001583,0.00,-0.24,9.87,37.93,0.021306,0.031958,0.001065
579643248,-0.000750,0.000517,-0.001613,0.01,-0.24,9.84,37.92,0.024501,0.031958,-0.002131
579644217,-0.000750,0.000517,-0.001613,0.01,-0.24,9.84,37.92,0.024501,0.031958,-0.002131
579645224,0.001381,0.002648,-0.000548,-0.01,-0.24,9.78,37.90,0.022371,0.034089,-0.001065
579646234,0.002446,0.002648,0.001583,-0.02,-0.24,9.84,37.90,0.022371,0.035154,0.001065
579647252,0.002446,0.003713,0.002648,-0.02,-0.23,9.90,37.88,0.021306,0.035154,0.002131
579648254,0.000316,0.003713,0.001583,-0.01,-0.24,9.87,37.88,0.021306,0.033024,0.001065
579649264,-0.001815,0.002648,0.001583,-0.01,-0.23,9.85,37.90,0.022371,0.030893,0.001065
579650274,-0.001815,0.001582,0.001583,0.01,-0.23,9.83,37.87,0.023436,0.030893,0.001065
579651284,-0.001815,0.000517,0.000518,-0.01,-0.21,9.82,37.86,0.024501,0.030893,0.000000
579652298,-0.000750,-0.000548,0.001583,-0.03,-0.22,9.81,37.89,0.025567,0.031958,0.001065
579653324,0.001381,-0.001614,0.001583,-0.02,-0.24,9.81,37.88,0.026632,0.034089,0.001065
579654317,0.003512,-0.001614,-0.000548,-0.01,-0.26,9.81,37.88,0.026632,0.036220,-0.001065
579655324,0.003512,-0.001614,-0.000548,-0.01,-0.23,9.81,37.87,0.026632,0.036220,-0.001065
579656334,0.002446,0.000517,0.000518,-0.02,-0.22,9.84,37.87,0.024501,0.035154,0.000000
579657348,0.000316,0.002648,-0.000548,0.00,-0.24,9.83,37.92,0.022371,0.033024,-0.001065
579658354,0.000316,0.001582,-0.000548,-0.01,-0.25,9.82,37.89,0.023436,0.033024,-0.001065
579659364,0.000316,-0.000548,-0.000548,-0.04,-0.24,9.82,37.91,0.025567,0.033024,-0.001065
579660374,0.002446,-0.000548,-0.000548,-0.01,-0.22,9.81,37.90,0.025567,0.035154,-0.001065
579661384,0.001381,0.001582,-0.001613,0.02,-0.23,9.81,37.93,0.023436,0.034089,-0.002131
579662413,-0.000750,0.002648,-0.000548,-0.01,-0.25,9.81,37.91,0.022371,0.031958,-0.001065
579663407,-0.000750,0.000517,0.000518,-0.01,-0.26,9.80,37.90,0.024501,0.031958,0.000000
579664414,0.000316,0.001582,0.000518,0.01,-0.28,9.79,37.90,0.023436,0.033024,0.000000
579665424,-0.000750,0.002648,0.000518,0.00,-0.26,9.79,37.87,0.022371,0.031958,0.000000
579666434,-0.001815,0.001582,0.000518,0.02,-0.24,9.79,37.91,0.023436,0.030893,0.000000
579667451,0.000316,-0.000548,0.000518,0.04,-0.24,9.80,37.91,0.025567,0.033024,0.000000
579668454,0.001381,-0.002679,-0.001613,0.02,-0.22,9.83,37.89,0.027697,0.034089,-0.002131
579669464,0.001381,-0.003744,-0.001613,-0.01,-0.26,9.82,37.91,0.028763,0.034089,-0.002131
579670474,0.001381,-0.001614,-0.000548,-0.04,-0.26,9.79,37.89,0.026632,0.034089,-0.001065
579671484,0.001381,0.000517,-0.001613,-0.06,-0.23,9.78,37.85,0.024501,0.034089,-0.002131
579672514,0.002446,0.000517,-0.001613,-0.03,-0.23,9.77,37.88,0.024501,0.035154,-0.002131
579673507,0.004577,0.001582,-0.000548,0.01,-0.22,9.83,37.88,0.023436,0.037285,-0.001065
579674514,0.002446,0.002648,-0.000548,0.02,-0.20,9.86,37.91,0.022371,0.035154,-0.001065
579675524,-0.002880,0.001582,-0.002678,0.01,-0.19,9.85,37.92,0.023436,0.029828,-0.003196
579676534,-0.006076,-0.001614,-0.001613,0.01,-0.21,9.83,37.91,0.026632,0.026632,-0.002131
579677548,-0.003945,-0.004809,0.000518,-0.02,-0.23,9.82,37.90,0.029828,0.028763,0.000000
579678554,-0.001815,-0.004809,0.000518,-0.02,-0.24,9.82,37.88,0.029828,0.030893,0.000000
579679564,0.000316,-0.004809,0.001583,0.00,-0.23,9.84,37.89,0.029828,0.033024,0.001065
579680574,0.001381,-0.004809,0.001583,0.00,-0.22,9.84,37.90,0.029828,0.034089,0.001065
579681584,0.000316,-0.002679,-0.000548,0.02,-0.22,9.83,37.91,0.027697,0.033024,-0.001065
579682613,0.000316,-0.000548,-0.000548,0.01,-0.22,9.82,37.90,0.025567,0.033024,-0.001065
579683607,-0.000750,0.000517,0.000518,-0.02,-0.25,9.74,37.89,0.024501,0.031958,0.000000
579684614,-0.000750,0.002648,0.000518,0.00,-0.27,9.73,37.87,0.022371,0.031958,0.000000
579685624,0.000316,0.003713,0.000518,0.05,-0.24,9.76,37.89,0.021306,0.033024,0.000000
579686634,0.002446,0.000517,0.000518,0.05,-0.25,9.77,37.91,0.024501,0.035154,0.000000
579687651,0.002446,-0.000548,0.000518,0.04,-0.26,9.73,37.86,0.025567,0.035154,0.000000
579688654,0.002446,-0.000548,0.002648,0.02,-0.25,9.73,37.91,0.025567,0.035154,0.002131
579689664,0.002446,-0.000548,0.001583,0.02,-0.20,9.76,37.90,0.025567,0.035154,0.001065
579690679,0.000316,-0.001614,0.001583,0.00,-0.21,9.78,37.87,0.026632,0.033024,0.001065
579691684,-0.000750,-0.001614,0.002648,-0.02,-0.24,9.80,37.90,0.026632,0.031958,0.002131
579692722,-0.000750,0.000517,0.003713,-0.01,-0.23,9.79,37.87,0.024501,0.031958,0.003196
579693711,0.001381,0.001582,0.002648,0.03,-0.22,9.79,37.92,0.023436,0.034089,0.002131
579694723,0.002446,0.000517,0.002648,0.03,-0.21,9.79,37.92,0.024501,0.035154,0.002131
579695733,0.002446,-0.002679,0.001583,-0.01,-0.22,9.81,37.93,0.027697,0.035154,0.001065
579696740,0.001381,-0.001614,0.000518,0.01,-0.24,9.81,37.93,0.026632,0.034089,0.000000
579697756,0.002446,0.002648,0.000518,0.01,-0.22,9.81,37.91,0.022371,0.035154,0.000000
579698772,0.003512,0.002648,-0.000548,-0.02,-0.21,9.83,37.87,0.022371,0.036220,-0.001065
579699775,0.001381,-0.000548,0.001583,0.00,-0.23,9.86,37.87,0.025567,0.034089,0.001065
579700786,-0.000750,-0.000548,0.001583,-0.01,-0.25,9.86,37.89,0.025567,0.031958,0.001065
579701797,-0.000750,0.001582,0.000518,-0.04,-0.27,9.84,37.88,0.023436,0.031958,0.000000
579702826,0.000316,0.002648,-0.000548,-0.03,-0.26,9.77,37.90,0.022371,0.033024,-0.001065
579703820,0.002446,0.001582,-0.000548,-0.01,-0.25,9.75,37.92,0.023436,0.035154,-0.001065
579704826,-0.000750,-0.000548,-0.001613,0.00,-0.26,9.78,37.87,0.025567,0.031958,-0.002131
579705833,-0.002880,-0.001614,-0.001613,0.00,-0.22,9.82,37.87,0.026632,0.029828,-0.002131
579706845,0.000316,-0.000548,-0.001613,0.01,-0.21,9.83,37.87,0.025567,0.033024,-0.002131
579707857,0.002446,0.000517,-0.000548,-0.01,-0.24,9.84,37.89,0.024501,0.035154,-0.001065
579708861,0.003512,0.001582,-0.000548,-0.04,-0.24,9.81,37.89,0.023436,0.036220,-0.001065
579709867,0.001381,0.002648,0.001583,-0.05,-0.26,9.73,37.88,0.022371,0.034089,0.001065
579710879,0.001381,0.000517,0.004779,0.01,-0.29,9.74,37.91,0.024501,0.034089,0.004261
579711884,0.001381,-0.000548,0.005844,0.05,-0.24,9.80,37.87,0.025567,0.034089,0.005326
579712917,0.000316,0.000517,0.002648,0.02,-0.22,9.83,37.88,0.024501,0.033024,0.002131
579713911,-0.000750,0.000517,0.000518,0.02,-0.24,9.85,37.87,0.024501,0.031958,0.000000
579714918,-0.000750,0.000517,0.000518,0.02,-0.25,9.81,37.87,0.024501,0.031958,0.000000
579715926,0.000316,0.000517,-0.000548,0.03,-0.24,9.77,37.87,0.024501,0.033024,-0.001065
579716966,-0.000750,0.000517,-0.000548,0.03,-0.23,9.75,37.87,0.024501,0.031958,-0.001065
579717948,-0.000750,0.000517,0.000518,0.03,-0.24,9.78,37.91,0.024501,0.031958,0.000000
579718954,0.000316,-0.001614,0.001583,0.03,-0.25,9.80,37.92,0.026632,0.033024,0.001065
579719964,0.001381,-0.001614,0.000518,0.00,-0.24,9.80,37.89,0.026632,0.034089,0.000000
579720974,0.002446,0.000517,0.001583,-0.02,-0.22,9.81,37.89,0.024501,0.035154,0.001065
579721984,0.001381,0.000517,0.003713,-0.01,-0.23,9.81,37.89,0.024501,0.034089,0.003196
579723013,0.001381,-0.001614,0.003713,-0.02,-0.23,9.81,37.88,0.026632,0.034089,0.003196
579724007,-0.000750,-0.002679,0.000518,-0.02,-0.22,9.82,37.89,0.027697,0.031958,0.000000
579725014,-0.001815,-0.000548,-0.001613,0.01,-0.22,9.84,37.93,0.025567,0.030893,-0.002131
579726024,-0.001815,-0.000548,-0.001613,0.01,-0.24,9.85,37.93,0.025567,0.030893,-0.002131
579727034,0.001381,-0.001614,0.000518,0.00,-0.23,9.87,37.90,0.026632,0.034089,0.000000
579728051,0.003512,0.000517,0.001583,0.02,-0.22,9.86,37.93,0.024501,0.036220,0.001065
579729054,0.002446,0.004778,0.001583,0.00,-0.23,9.81,37.92,0.020240,0.035154,0.001065
579730064,-0.000750,0.005843,-0.000548,-0.04,-0.23,9.76,37.92,0.019175,0.031958,-0.001065
579731074,-0.001815,0.002648,-0.000548,-0.03,-0.23,9.75,37.93,0.022371,0.030893,-0.001065
579732084,0.000316,-0.000548,0.000518,-0.02,-0.23,9.81,37.89,0.025567,0.033024,0.000000
579733114,0.001381,-0.001614,0.000518,0.01,-0.22,9.86,37.86,0.026632,0.034089,0.000000
579734107,0.000316,-0.001614,-0.000548,-0.01,-0.24,9.83,37.91,0.026632,0.033024,-0.001065
579735114,-0.001815,-0.001614,-0.002678,-0.01,-0.23,9.77,37.88,0.026632,0.030893,-0.003196
579736124,-0.003945,-0.002679,-0.002678,0.02,-0.22,9.80,37.87,0.027697,0.028763,-0.003196
579737134,-0.002880,-0.001614,-0.001613,0.03,-0.23,9.81,37.87,0.026632,0.029828,-0.002131
579738148,-0.001815,-0.000548,0.000518,0.02,-0.23,9.79,37.90,0.025567,0.030893,0.000000
579739154,-0.002880,-0.001614,0.000518,-0.01,-0.23,9.84,37.87,0.026632,0.029828,0.000000
579740164,-0.002880,-0.001614,-0.000548,0.03,-0.23,9.84,37.89,0.026632,0.029828,-0.001065
579741174,-0.002880,-0.000548,-0.000548,0.04,-0.23,9.82,37.89,0.025567,0.029828,-0.001065
579742184,-0.001815,-0.000548,-0.000548,0.00,-0.21,9.83,37.86,0.025567,0.030893,-0.001065
579743245,-0.000798,-0.001647,-0.000589,0.02,-0.25,9.86,37.90,0.026632,0.031958,-0.001065
579744207,0.001333,-0.000581,-0.000589,0.02,-0.25,9.86,37.88,0.025567,0.034089,-0.001065
579745214,0.003464,0.002614,-0.000589,0.00,-0.22,9.81,37.88,0.022371,0.036220,-0.001065
579746224,0.002398,0.001549,0.000476,-0.02,-0.23,9.74,37.90,0.023436,0.035154,0.000000
579747234,0.000268,-0.000581,0.002607,0.05,-0.20,9.83,37.89,0.025567,0.033024,0.002131
579748251,0.001333,-0.002712,0.000476,0.04,-0.22,9.77,37.90,0.027697,0.034089,0.000000
579749254,0.002398,-0.002712,-0.001654,0.00,-0.23,9.78,37.92,0.027697,0.035154,-0.002131
579750264,0.001333,-0.001647,-0.000589,-0.01,-0.24,9.82,37.91,0.026632,0.034089,-0.001065
579751274,0.000268,0.001549,0.000476,0.01,-0.24,9.79,37.90,0.023436,0.033024,0.000000
579752284,0.000268,0.003680,-0.001654,0.03,-0.25,9.81,37.88,0.021306,0.033024,-0.002131
579753314,-0.000798,0.003680,-0.002720,0.02,-0.24,9.81,37.89,0.021306,0.031958,-0.003196
579754307,-0.001863,0.001549,-0.000589,0.01,-0.23,9.78,37.85,0.023436,0.030893,-0.001065
579755314,-0.002928,0.000484,0.001542,0.00,-0.21,9.77,37.87,0.024501,0.029828,0.001065
579756324,-0.001863,0.000484,0.001542,-0.05,-0.21,9.81,37.91,0.024501,0.030893,0.001065
579757334,0.000268,-0.000581,0.000476,-0.06,-0.24,9.82,37.90,0.025567,0.033024,0.000000
579758348,0.000268,0.000484,-0.001654,-0.02,-0.23,9.80,37.91,0.024501,0.033024,-0.002131
579759354,0.001333,0.002614,-0.001654,-0.01,-0.20,9.84,37.90,0.022371,0.034089,-0.002131
579760364,0.001333,0.002614,-0.001654,0.01,-0.18,9.84,37.90,0.022371,0.034089,-0.002131
579761374,0.000268,0.002614,-0.000589,0.01,-0.20,9.81,37.90,0.022371,0.033024,-0.001065
579762384,-0.001863,0.001549,-0.001654,-0.02,-0.22,9.77,37.89,0.023436,0.030893,-0.002131
579763413,-0.000798,-0.000581,-0.001654,-0.03,-0.22,9.77,37.88,0.025567,0.031958,-0.002131
579764407,0.003464,-0.001647,0.000476,-0.02,-0.22,9.85,37.90,0.026632,0.036220,0.000000
579765414,0.003464,-0.002712,0.002607,0.00,-0.18,9.85,37.93,0.027697,0.036220,0.002131
579766424,0.002398,-0.003777,0.001542,-0.04,-0.21,9.81,37.94,0.028763,0.035154,0.001065
579767434,0.000268,-0.004843,-0.001654,-0.06,-0.25,9.81,37.91,0.029828,0.033024,-0.002131
579768451,0.001333,-0.003777,-0.001654,-0.02,-0.22,9.82,37.89,0.028763,0.034089,-0.002131
579769454,0.002398,-0.000581,-0.001654,0.01,-0.21,9.81,37.89,0.025567,0.035154,-0.002131
579770464,0.003464,0.001549,-0.001654,-0.01,-0.21,9.80,37.88,0.023436,0.036220,-0.002131
579771474,0.002398,-0.001647,0.000476,-0.02,-0.23,9.83,37.91,0.026632,0.035154,0.000000
579772505,-0.000798,-0.004843,-0.000589,-0.04,-0.25,9.84,37.91,0.029828,0.031958,-0.001065
579773502,-0.001863,-0.003777,-0.001654,-0.01,-0.23,9.84,37.87,0.028763,0.030893,-0.002131
579774504,-0.001863,-0.001647,-0.001654,-0.01,-0.23,9.81,37.87,0.026632,0.030893,-0.002131
579775514,-0.000798,-0.001647,-0.001654,-0.02,-0.26,9.82,37.85,0.026632,0.031958,-0.002131
579776524,0.002398,-0.001647,-0.000589,0.02,-0.25,9.84,37.88,0.026632,0.035154,-0.001065
579777534,0.003464,0.000484,-0.000589,0.02,-0.22,9.77,37.89,0.024501,0.036220,-0.001065
579778548,0.001333,0.001549,-0.001654,0.02,-0.21,9.76,37.88,0.023436,0.034089,-0.002131
579779554,0.001333,0.002614,-0.000589,0.01,-0.20,9.83,37.89,0.022371,0.034089,-0.001065
579780564,0.000268,0.001549,0.001542,-0.04,-0.21,9.83,37.93,0.023436,0.033024,0.001065
579781574,0.000268,0.001549,0.000476,-0.04,-0.23,9.78,37.88,0.023436,0.033024,0.000000
579782603,0.000268,0.001549,-0.000589,-0.02,-0.24,9.79,37.93,0.023436,0.033024,-0.001065
579783602,0.000268,0.000484,0.000476,-0.03,-0.22,9.80,37.88,0.024501,0.033024,0.000000
579784604,-0.000798,0.001549,0.000476,-0.04,-0.21,9.79,37.87,0.023436,0.031958,0.000000
579785614,-0.000798,0.002614,-0.000589,-0.03,-0.23,9.86,37.87,0.022371,0.031958,-0.001065
579786624,-0.000798,0.000484,-0.001654,0.01,-0.23,9.84,37.87,0.024501,0.031958,-0.002131
579787634,0.000268,-0.001647,0.000476,-0.01,-0.27,9.80,37.87,0.026632,0.033024,0.000000
579788652,0.000268,-0.001647,0.003672,-0.01,-0.28,9.83,37.88,0.026632,0.033024,0.003196
579789654,-0.001863,0.001549,0.002607,-0.01,-0.24,9.85,37.91,0.023436,0.030893,0.002131
579790664,-0.001863,0.003680,0.001542,-0.01,-0.21,9.80,37.90,0.021306,0.030893,0.001065
579791679,0.000268,0.002614,0.000476,0.01,-0.21,9.75,37.90,0.022371,0.033024,0.000000
579792710,0.000268,-0.002712,-0.000589,0.03,-0.22,9.80,37.89,0.027697,0.033024,-0.001065
579793710,0.002398,-0.002712,0.000476,0.04,-0.18,9.81,37.88,0.027697,0.035154,0.000000
579794709,0.000268,-0.000581,0.001542,-0.01,-0.21,9.76,37.90,0.025567,0.033024,0.001065
579795722,-0.000798,0.001549,0.000476,-0.04,-0.23,9.77,37.91,0.023436,0.031958,0.000000
579796735,-0.000798,-0.000581,-0.001654,-0.03,-0.22,9.83,37.89,0.025567,0.031958,-0.002131
579797745,-0.002928,-0.004843,-0.001654,-0.01,-0.22,9.83,37.89,0.029828,0.029828,-0.002131
579798759,-0.003993,-0.004843,-0.000589,0.01,-0.22,9.82,37.90,0.029828,0.028763,-0.001065
579799773,-0.002928,-0.002712,-0.001654,0.00,-0.23,9.82,37.91,0.027697,0.029828,-0.002131
579800776,-0.000798,0.001549,-0.001654,0.01,-0.22,9.82,37.90,0.023436,0.031958,-0.002131
579801787,0.001333,0.003680,-0.002720,0.02,-0.20,9.82,37.91,0.021306,0.034089,-0.003196
579802815,0.001333,0.002614,-0.002720,-0.02,-0.23,9.79,37.89,0.022371,0.034089,-0.003196
579803814,0.001333,0.002614,-0.001654,-0.01,-0.23,9.77,37.87,0.022371,0.034089,-0.002131
579804819,0.001333,0.002614,-0.002720,0.02,-0.22,9.75,37.89,0.022371,0.034089,-0.003196
579805823,0.000268,-0.000581,-0.001654,0.03,-0.22,9.77,37.90,0.025567,0.033024,-0.002131
579806832,0.000268,-0.003777,-0.000589,0.02,-0.19,9.81,37.92,0.028763,0.033024,-0.001065
579807847,0.000268,-0.004843,0.000476,0.02,-0.18,9.79,37.92,0.029828,0.033024,0.000000
579808865,0.000268,-0.002712,-0.000589,0.03,-0.21,9.80,37.91,0.027697,0.033024,-0.001065
579809860,0.001333,-0.000581,-0.001654,0.01,-0.23,9.77,37.89,0.025567,0.034089,-0.002131
579810867,-0.000798,0.001549,-0.003785,0.02,-0.24,9.78,37.90,0.023436,0.031958,-0.004261
579811878,-0.003993,0.002614,-0.003785,0.03,-0.23,9.82,37.89,0.022371,0.028763,-0.004261
579812908,-0.005059,0.000484,0.000476,0.00,-0.23,9.86,37.88,0.024501,0.027697,0.000000
579813905,-0.000798,-0.001647,0.000476,0.00,-0.23,9.85,37.88,0.026632,0.031958,0.000000
579814908,0.002398,-0.001647,-0.001654,0.00,-0.22,9.81,37.88,0.026632,0.035154,-0.002131
579815918,0.002398,-0.001647,-0.000589,0.01,-0.22,9.81,37.88,0.026632,0.035154,-0.001065
579816926,0.002398,-0.001647,-0.002720,0.00,-0.22,9.78,37.89,0.026632,0.035154,-0.003196
579817934,0.002398,-0.003777,-0.002720,0.00,-0.21,9.79,37.88,0.028763,0.035154,-0.003196
579818980,0.002398,-0.004843,-0.000589,0.02,-0.22,9.82,37.90,0.029828,0.035154,-0.001065
579819954,0.000268,-0.002712,0.000476,0.01,-0.24,9.83,37.91,0.027697,0.033024,0.000000
579820964,-0.001863,0.000484,-0.000589,-0.01,-0.25,9.85,37.91,0.024501,0.030893,-0.001065
579821974,-0.000798,0.000484,-0.001654,-0.01,-0.25,9.87,37.89,0.024501,0.031958,-0.002131
579823003,0.000268,-0.001647,-0.000589,-0.01,-0.24,9.88,37.90,0.026632,0.033024,-0.001065
579824002,-0.000798,-0.002712,0.000476,-0.01,-0.23,9.80,37.87,0.027697,0.031958,0.000000
579825004,-0.001863,-0.000581,0.000476,-0.01,-0.20,9.79,37.86,0.025567,0.030893,0.000000
579826014,0.000268,0.002614,0.000476,-0.01,-0.22,9.81,37.86,0.022371,0.033024,0.000000
579827024,0.000268,0.004745,0.001542,0.00,-0.25,9.77,37.88,0.020240,0.033024,0.001065
579828034,0.000268,0.003680,0.001542,-0.01,-0.23,9.75,37.88,0.021306,0.033024,0.001065
579829052,-0.000798,0.003680,-0.001654,-0.02,-0.23,9.81,37.88,0.021306,0.031958,-0.002131
579830054,-0.001863,0.002614,-0.002720,-0.02,-0.26,9.83,37.90,0.022371,0.030893,-0.003196
579831064,0.001333,-0.000581,-0.002720,-0.01,-0.23,9.80,37.90,0.025567,0.034089,-0.003196
579832074,0.001333,-0.002712,-0.002720,-0.02,-0.21,9.78,37.88,0.027697,0.034089,-0.003196
579833104,-0.000798,-0.002712,-0.002720,-0.04,-0.24,9.82,37.89,0.027697,0.031958,-0.003196
579834103,-0.000798,-0.001647,-0.001654,-0.02,-0.25,9.82,37.91,0.026632,0.031958,-0.002131
579835104,-0.000798,0.000484,-0.000589,0.00,-0.23,9.78,37.92,0.024501,0.031958,-0.001065
579836114,-0.002928,0.003680,0.000476,0.00,-0.21,9.81,37.93,0.021306,0.029828,0.000000
579837124,-0.002928,0.004745,0.000476,0.01,-0.23,9.83,37.89,0.020240,0.029828,0.000000
579838134,-0.001863,0.005810,0.001542,0.02,-0.24,9.81,37.89,0.019175,0.030893,0.001065
579839148,-0.001863,0.004745,0.001542,0.01,-0.21,9.78,37.87,0.020240,0.030893,0.001065
579840154,-0.002928,0.002614,0.002607,0.01,-0.24,9.80,37.87,0.022371,0.029828,0.002131
579841164,-0.000798,0.000484,0.003672,0.01,-0.25,9.86,37.91,0.024501,0.031958,0.003196
579842174,0.000268,-0.000581,0.002607,-0.02,-0.22,9.83,37.92,0.025567,0.033024,0.002131
579843201,0.000268,-0.000581,0.000476,-0.02,-0.23,9.81,37.89,0.025567,0.033024,0.000000
579844203,0.001333,0.000484,-0.002720,-0.03,-0.25,9.82,37.90,0.024501,0.034089,-0.003196
579845204,0.001333,0.000484,-0.000589,-0.03,-0.24,9.79,37.91,0.024501,0.034089,-0.001065
579846214,0.000268,0.000484,0.000476,0.00,-0.22,9.76,37.87,0.024501,0.033024,0.000000
579847224,0.000268,-0.000581,-0.000589,0.01,-0.24,9.77,37.87,0.025567,0.033024,-0.001065
579848234,0.000268,-0.002712,0.000476,0.00,-0.25,9.83,37.90,0.027697,0.033024,0.000000
579849251,0.000268,-0.001647,-0.000589,-0.01,-0.21,9.82,37.93,0.026632,0.033024,-0.001065
579850254,0.000268,0.001549,-0.002720,0.00,-0.22,9.82,37.91,0.023436,0.033024,-0.003196
579851264,-0.001863,0.000484,-0.001654,-0.01,-0.26,9.83,37.90,0.024501,0.030893,-0.002131
579852274,-0.000798,-0.001647,-0.000589,-0.01,-0.28,9.85,37.89,0.026632,0.031958,-0.001065
579853305,0.001333,-0.000581,0.001542,0.00,-0.28,9.86,37.89,0.025567,0.034089,0.001065
579854302,0.001333,-0.000581,0.002607,0.01,-0.26,9.81,37.91,0.025567,0.034089,0.002131
579855304,-0.000798,-0.001647,0.001542,0.02,-0.23,9.78,37.91,0.026632,0.031958,0.001065
579856314,0.000268,-0.000581,0.001542,0.03,-0.24,9.83,37.89,0.025567,0.033024,0.001065
579857324,0.000268,0.000484,0.000476,0.01,-0.25,9.83,37.85,0.024501,0.033024,0.000000
579858334,0.001333,0.000484,-0.001654,0.00,-0.26,9.76,37.84,0.024501,0.034089,-0.002131
579859348,0.002398,-0.000581,-0.000589,0.04,-0.23,9.77,37.83,0.025567,0.035154,-0.001065
579860354,0.001333,0.000484,0.001542,0.03,-0.21,9.82,37.85,0.024501,0.034089,0.001065
579861364,-0.000798,0.001549,0.002607,0.00,-0.24,9.83,37.84,0.023436,0.031958,0.002131
579862374,-0.001863,0.001549,0.002607,0.01,-0.23,9.80,37.91,0.023436,0.030893,0.002131
579863403,-0.001863,0.000484,0.001542,0.00,-0.21,9.83,37.89,0.024501,0.030893,0.001065
579864402,0.000268,0.001549,0.000476,-0.02,-0.23,9.88,37.87,0.023436,0.033024,0.000000
579865404,0.003464,0.004745,0.000476,-0.02,-0.23,9.85,37.90,0.020240,0.036220,0.000000
579866414,0.002398,0.006876,0.002607,0.00,-0.23,9.79,37.87,0.018110,0.035154,0.002131
579867424,0.002398,0.004745,0.002607,-0.02,-0.24,9.83,37.87,0.020240,0.035154,0.002131
579868434,0.001333,0.000484,0.001542,-0.05,-0.25,9.85,37.90,0.024501,0.034089,0.001065
579869452,0.001333,-0.002712,0.000476,-0.02,-0.24,9.82,37.87,0.027697,0.034089,0.000000
579870454,0.000268,-0.003777,0.000476,0.00,-0.21,9.84,37.86,0.028763,0.033024,0.000000
579871464,-0.000798,-0.002712,-0.000589,-0.01,-0.20,9.83,37.93,0.027697,0.031958,-0.001065
579872526,-0.000816,0.000476,-0.001623,-0.01,-0.21,9.81,37.88,0.024501,0.031958,-0.002131
579873487,-0.000816,0.001541,-0.002689,0.01,-0.23,9.84,37.87,0.023436,0.031958,-0.003196
579874500,-0.000816,0.001541,-0.002689,-0.01,-0.24,9.84,37.88,0.023436,0.031958,-0.003196
579875504,-0.000816,0.002606,-0.001623,-0.02,-0.24,9.83,37.87,0.022371,0.031958,-0.002131
579876514,0.000250,-0.000590,-0.000558,0.00,-0.24,9.80,37.88,0.025567,0.033024,-0.001065
579877524,0.001315,-0.004851,0.000507,-0.01,-0.23,9.78,37.91,0.029828,0.034089,0.000000
579878534,0.000250,-0.002720,0.000507,0.00,-0.21,9.78,37.93,0.027697,0.033024,0.000000
579879548,-0.000816,0.002606,0.001572,0.03,-0.23,9.83,37.92,0.022371,0.031958,0.001065
579880554,-0.000816,0.003672,0.000507,0.05,-0.28,9.86,37.89,0.021306,0.031958,0.000000
579881564,0.000250,0.002606,-0.000558,0.04,-0.24,9.83,37.88,0.022371,0.033024,-0.001065
579882591,-0.002946,0.000476,0.000507,0.01,-0.22,9.82,37.90,0.024501,0.029828,0.000000
579883587,-0.004012,0.000476,-0.000558,-0.02,-0.26,9.85,37.88,0.024501,0.028763,-0.001065
579884600,-0.002946,0.001541,-0.000558,-0.03,-0.25,9.81,37.91,0.023436,0.029828,-0.001065
579885604,-0.000816,0.002606,-0.001623,0.01,-0.23,9.72,37.90,0.022371,0.031958,-0.002131
579886614,-0.000816,0.003672,-0.001623,-0.01,-0.21,9.77,37.88,0.021306,0.031958,-0.002131
579887624,-0.001881,0.002606,-0.001623,-0.05,-0.20,9.85,37.88,0.022371,0.030893,-0.002131
579888634,-0.001881,0.001541,-0.003754,-0.01,-0.21,9.83,37.87,0.023436,0.030893,-0.004261
579889651,0.001315,0.001541,-0.002689,0.01,-0.22,9.83,37.92,0.023436,0.034089,-0.003196
579890654,0.002380,0.001541,0.001572,0.00,-0.24,9.82,37.92,0.023436,0.035154,0.001065
579891664,0.001315,0.001541,0.003703,0.01,-0.23,9.79,37.94,0.023436,0.034089,0.003196
579892705,0.000250,0.001541,0.002638,-0.01,-0.24,9.79,37.90,0.023436,0.033024,0.002131
579893690,0.000250,0.000476,0.000507,-0.04,-0.26,9.79,37.88,0.024501,0.033024,0.000000
579894710,-0.001881,0.001541,-0.000558,-0.04,-0.24,9.78,37.89,0.023436,0.030893,-0.001065
579895709,-0.002946,0.000476,-0.000558,-0.03,-0.23,9.78,37.93,0.024501,0.029828,-0.001065
579896723,-0.004012,0.000476,0.000507,0.00,-0.24,9.78,37.93,0.024501,0.028763,0.000000
579897733,-0.002946,0.001541,-0.000558,0.00,-0.25,9.77,37.88,0.023436,0.029828,-0.001065
579898740,-0.001881,0.001541,-0.001623,-0.01,-0.23,9.80,37.86,0.023436,0.030893,-0.002131
579899756,-0.005077,0.001541,-0.002689,0.00,-0.24,9.80,37.87,0.023436,0.027697,-0.003196
579900772,-0.004012,0.000476,-0.002689,0.00,-0.24,9.81,37.86,0.024501,0.028763,-0.003196
579901775,-0.000816,-0.002720,-0.000558,0.00,-0.23,9.81,37.89,0.027697,0.031958,-0.001065
579902803,-0.000816,-0.002720,0.000507,0.01,-0.23,9.78,37.89,0.027697,0.031958,0.000000
579903799,-0.001881,-0.000590,0.001572,0.00,-0.23,9.74,37.86,0.025567,0.030893,0.001065
579904814,-0.000816,0.003672,0.001572,0.01,-0.22,9.70,37.88,0.021306,0.031958,0.001065
579905818,0.000250,0.005802,0.001572,0.02,-0.21,9.76,37.90,0.019175,0.033024,0.001065
579906822,-0.000816,0.003672,-0.000558,0.02,-0.23,9.80,37.91,0.021306,0.031958,-0.001065
579907833,-0.000816,0.002606,-0.002689,0.00,-0.24,9.82,37.88,0.022371,0.031958,-0.003196
579908848,0.000250,0.002606,-0.002689,-0.02,-0.23,9.82,37.89,0.022371,0.033024,-0.003196
579909858,0.001315,0.001541,-0.000558,-0.03,-0.23,9.79,37.92,0.023436,0.034089,-0.001065
579910859,0.000250,0.000476,0.002638,-0.02,-0.23,9.76,37.92,0.024501,0.033024,0.002131
579911867,-0.000816,0.000476,0.001572,0.00,-0.25,9.80,37.94,0.024501,0.031958,0.001065
579912894,-0.001881,0.000476,-0.000558,0.00,-0.23,9.82,37.94,0.024501,0.030893,-0.001065
579913887,-0.000816,0.000476,-0.001623,-0.01,-0.20,9.76,37.91,0.024501,0.031958,-0.002131
579914927,-0.001881,-0.001655,0.000507,0.00,-0.22,9.76,37.92,0.026632,0.030893,0.000000
579915908,-0.002946,-0.001655,0.000507,0.02,-0.23,9.78,37.87,0.026632,0.029828,0.000000
579916918,-0.000816,0.000476,-0.000558,0.03,-0.24,9.79,37.87,0.024501,0.031958,-0.001065
579917926,0.003445,-0.000590,0.000507,0.02,-0.23,9.82,37.88,0.025567,0.036220,0.000000
579918934,0.003445,-0.002720,0.001572,-0.01,-0.21,9.77,37.87,0.027697,0.036220,0.001065
579919948,0.000250,-0.001655,0.000507,-0.05,-0.22,9.78,37.90,0.026632,0.033024,0.000000
579920954,-0.001881,0.000476,-0.001623,-0.03,-0.23,9.83,37.91,0.024501,0.030893,-0.002131
579921964,-0.002946,0.000476,-0.001623,-0.02,-0.23,9.82,37.88,0.024501,0.029828,-0.002131
579923039,-0.001881,-0.003785,0.000507,-0.04,-0.25,9.85,37.88,0.028763,0.030893,0.000000
579923987,0.001315,-0.003785,0.000507,-0.02,-0.22,9.85,37.88,0.028763,0.034089,0.000000
579925000,0.002380,0.000476,-0.000558,0.02,-0.21,9.84,37.91,0.024501,0.035154,-0.001065
579926004,0.001315,0.001541,-0.000558,0.03,-0.22,9.83,37.94,0.023436,0.034089,-0.001065
579927014,-0.000816,-0.001655,-0.000558,0.03,-0.23,9.81,37.93,0.026632,0.031958,-0.001065
579928024,-0.002946,-0.002720,0.000507,0.02,-0.27,9.84,37.91,0.027697,0.029828,0.000000
579929034,-0.000816,-0.001655,0.000507,-0.01,-0.26,9.90,37.90,0.026632,0.031958,0.000000
579930051,0.001315,0.001541,0.000507,-0.03,-0.23,9.86,37.90,0.023436,0.034089,0.000000
579931054,0.000250,0.001541,0.000507,0.00,-0.21,9.81,37.89,0.023436,0.033024,0.000000
579932064,0.000250,-0.000590,-0.000558,0.00,-0.23,9.83,37.86,0.025567,0.033024,-0.001065
579933095,-0.000816,-0.002720,-0.000558,-0.03,-0.24,9.83,37.87,0.027697,0.031958,-0.001065
579934087,-0.000816,-0.000590,-0.001623,-0.03,-0.23,9.74,37.90,0.025567,0.031958,-0.002131
579935098,0.001315,0.001541,-0.002689,0.01,-0.25,9.75,37.88,0.023436,0.034089,-0.003196
579936104,0.000250,0.000476,-0.000558,0.02,-0.25,9.82,37.88,0.024501,0.033024,-0.001065
579937114,0.001315,-0.000590,0.000507,-0.01,-0.22,9.85,37.88,0.025567,0.034089,0.000000
579938124,0.001315,-0.001655,-0.000558,0.00,-0.20,9.82,37.88,0.026632,0.034089,-0.001065
579939134,0.001315,-0.001655,-0.000558,0.01,-0.21,9.78,37.94,0.026632,0.034089,-0.001065
579940148,0.001315,0.000476,0.000507,0.00,-0.22,9.81,37.87,0.024501,0.034089,0.000000
579941154,-0.001881,0.000476,0.000507,0.00,-0.23,9.80,37.85,0.024501,0.030893,0.000000
579942164,-0.000816,-0.000590,0.000507,0.00,-0.22,9.76,37.87,0.025567,0.031958,0.000000
579943193,0.001315,-0.001655,0.000507,0.00,-0.22,9.79,37.88,0.026632,0.034089,0.000000
