time_us,gyro_x_rad_s,gyro_y_rad_s,gyro_z_rad_s,acc_x_m_s2,acc_y_m_s2,acc_z_m_s2,temperature_c,gyro_sensor_uncorrected_x_rad_s,gyro_sensor_uncorrected_y_rad_s,gyro_sensor_uncorrected_z_rad_s
27468266,-0.000855,0.002046,-0.001866,0.03,-0.29,9.79,35.17,0.022371,0.031958,-0.002131
27469065,0.000211,0.002046,0.000265,0.02,-0.30,9.81,35.12,0.022371,0.033024,0.000000
27469710,0.001276,-0.000084,0.002396,0.02,-0.27,9.82,35.17,0.024501,0.034089,0.002131
27470498,0.000211,-0.002215,0.000265,0.02,-0.23,9.82,35.21,0.026632,0.033024,0.000000
27471514,0.000211,-0.002215,0.001330,0.02,-0.26,9.78,35.21,0.026632,0.033024,0.001065
27472529,-0.000855,-0.000084,0.003461,0.02,-0.29,9.79,35.16,0.024501,0.031958,0.003196
27473527,-0.002985,0.000981,0.004526,0.03,-0.29,9.81,35.13,0.023436,0.029828,0.004261
27474538,-0.000855,0.000981,0.002396,0.04,-0.28,9.82,35.13,0.023436,0.031958,0.002131
27475547,0.000211,-0.000084,0.000265,0.02,-0.28,9.84,35.12,0.024501,0.033024,0.000000
27476568,0.003406,-0.001150,0.001330,0.00,-0.29,9.88,35.19,0.025567,0.036220,0.001065
27477582,0.005537,-0.003280,0.001330,0.01,-0.29,9.88,35.19,0.027697,0.038350,0.001065
27478577,0.003406,-0.002215,0.000265,0.02,-0.29,9.81,35.14,0.026632,0.036220,0.000000
27479586,0.000211,-0.001150,0.001330,0.01,-0.28,9.78,35.16,0.025567,0.033024,0.001065
27480597,-0.001920,0.000981,0.003461,-0.01,-0.27,9.79,35.16,0.023436,0.030893,0.003196
27481625,-0.004051,0.000981,0.003461,0.00,-0.27,9.81,35.14,0.023436,0.028763,0.003196
27482617,-0.004051,0.000981,0.002396,0.01,-0.28,9.80,35.14,0.023436,0.028763,0.002131
27483626,0.000211,-0.000084,0.001330,0.01,-0.29,9.79,35.18,0.024501,0.033024,0.001065
27484637,0.003406,-0.002215,-0.000800,-0.02,-0.29,9.80,35.13,0.026632,0.036220,-0.001065
27485646,0.004472,-0.003280,-0.002931,-0.02,-0.28,9.79,35.10,0.027697,0.037285,-0.003196
27486667,0.001276,-0.002215,-0.003996,0.00,-0.30,9.79,35.13,0.026632,0.034089,-0.004261
27487679,-0.000855,0.000981,-0.000800,0.00,-0.32,9.82,35.11,0.023436,0.031958,-0.001065
27488675,-0.000855,0.002046,0.001330,0.00,-0.32,9.84,35.12,0.022371,0.031958,0.001065
27489684,-0.000855,0.002046,0.002396,0.01,-0.30,9.83,35.08,0.022371,0.031958,0.002131
27490695,0.001276,0.000981,0.002396,0.03,-0.28,9.82,35.12,0.023436,0.034089,0.002131
27491717,0.003406,-0.000084,-0.000800,0.02,-0.30,9.78,35.16,0.024501,0.036220,-0.001065
27492715,0.001276,-0.000084,-0.001866,0.03,-0.32,9.78,35.18,0.024501,0.034089,-0.002131
27493724,0.000211,-0.001150,-0.001866,0.03,-0.31,9.77,35.14,0.025567,0.033024,-0.002131
27494735,0.000211,-0.001150,-0.000800,0.03,-0.30,9.82,35.14,0.025567,0.033024,-0.001065
27495744,0.003406,-0.002215,0.001330,0.04,-0.29,9.92,35.15,0.026632,0.036220,0.001065
27496764,0.004472,-0.001150,0.001330,0.04,-0.29,9.90,35.14,0.025567,0.037285,0.001065
27497778,0.003406,0.000981,0.001330,0.01,-0.29,9.83,35.09,0.023436,0.036220,0.001065
27498774,0.002341,0.000981,0.001330,0.02,-0.29,9.77,35.11,0.023436,0.035154,0.001065
27499782,0.001276,-0.001150,-0.000800,0.01,-0.31,9.78,35.10,0.025567,0.034089,-0.001065
27500794,0.000211,-0.001150,-0.002931,0.02,-0.31,9.82,35.13,0.025567,0.033024,-0.003196
27501819,0.000211,0.002046,-0.002931,0.01,-0.30,9.83,35.12,0.022371,0.033024,-0.003196
27502814,-0.000855,0.004177,-0.002931,0.00,-0.28,9.85,35.19,0.020240,0.031958,-0.003196
27503822,-0.000855,-0.000084,-0.001866,-0.01,-0.29,9.84,35.16,0.024501,0.031958,-0.002131
27504834,0.000211,-0.003280,0.000265,0.00,-0.31,9.78,35.16,0.027697,0.033024,0.000000
27505871,0.001255,-0.002253,0.000247,0.01,-0.29,9.80,35.16,0.026632,0.034089,0.000000
27506878,0.002320,-0.001188,0.000247,-0.01,-0.29,9.84,35.17,0.025567,0.035154,0.000000
27507864,0.002320,-0.000122,0.001312,0.02,-0.31,9.82,35.16,0.024501,0.035154,0.001065
27508875,0.000189,-0.003318,0.003443,0.06,-0.30,9.79,35.16,0.027697,0.033024,0.003196
27509884,-0.000876,-0.005449,0.003443,0.04,-0.28,9.80,35.14,0.029828,0.031958,0.003196
27510895,-0.000876,-0.004383,0.000247,0.03,-0.28,9.82,35.18,0.028763,0.031958,0.000000
27511917,-0.000876,-0.001188,-0.001883,0.01,-0.28,9.79,35.17,0.025567,0.031958,-0.002131
27512915,-0.003007,0.000943,-0.000818,0.01,-0.28,9.83,35.12,0.023436,0.029828,-0.001065
27513924,-0.003007,0.002008,-0.000818,0.01,-0.28,9.84,35.16,0.022371,0.029828,-0.001065
27514935,-0.003007,0.003074,-0.000818,0.03,-0.28,9.78,35.13,0.021306,0.029828,-0.001065
27515944,0.000189,0.000943,-0.001883,0.03,-0.28,9.80,35.10,0.023436,0.033024,-0.002131
27516978,0.001255,-0.001188,-0.001883,-0.02,-0.25,9.83,35.08,0.025567,0.034089,-0.002131
27517966,0.001255,-0.000122,-0.000818,0.00,-0.27,9.83,35.09,0.024501,0.034089,-0.001065
27518975,0.002320,-0.000122,-0.000818,0.02,-0.28,9.86,35.15,0.024501,0.035154,-0.001065
27519994,0.002320,-0.000122,0.001312,0.04,-0.28,9.84,35.14,0.024501,0.035154,0.001065
27521000,0.001255,-0.001188,0.002378,0.06,-0.29,9.83,35.13,0.025567,0.034089,0.002131
27522033,0.000189,-0.002253,0.002378,0.04,-0.28,9.80,35.12,0.026632,0.033024,0.002131
27523031,-0.000876,-0.002253,0.001312,0.02,-0.31,9.82,35.13,0.026632,0.031958,0.001065
27524034,0.000189,-0.003318,0.002378,0.02,-0.33,9.86,35.13,0.027697,0.033024,0.002131
27525044,-0.000876,-0.003318,0.002378,0.02,-0.31,9.83,35.14,0.027697,0.031958,0.002131
27526060,-0.000876,-0.002253,0.002378,0.01,-0.30,9.78,35.18,0.026632,0.031958,0.002131
27527129,-0.000876,-0.001188,0.000247,0.01,-0.28,9.79,35.14,0.025567,0.031958,0.000000
27528079,-0.001941,-0.001188,0.000247,0.02,-0.28,9.82,35.13,0.025567,0.030893,0.000000
27529086,-0.000876,-0.000122,0.001312,0.03,-0.32,9.81,35.17,0.024501,0.031958,0.001065
27530097,0.000189,-0.000122,0.000247,0.05,-0.36,9.80,35.16,0.024501,0.033024,0.000000
27531105,-0.000876,-0.001188,0.000247,0.04,-0.33,9.78,35.13,0.025567,0.031958,0.000000
27532124,-0.003007,-0.000122,0.000247,0.03,-0.31,9.79,35.14,0.024501,0.029828,0.000000
27533128,-0.004072,0.003074,0.000247,0.02,-0.29,9.81,35.20,0.021306,0.028763,0.000000
27534132,-0.001941,0.003074,0.000247,0.02,-0.28,9.81,35.16,0.021306,0.030893,0.000000
27535143,-0.000876,0.002008,-0.000818,0.03,-0.31,9.79,35.13,0.022371,0.031958,-0.001065
27536151,0.000189,0.000943,-0.001883,0.05,-0.29,9.80,35.14,0.023436,0.033024,-0.002131
27537182,-0.000876,-0.000122,-0.001883,0.02,-0.26,9.82,35.12,0.024501,0.031958,-0.002131
27538166,-0.000876,-0.001188,-0.002949,0.00,-0.28,9.84,35.13,0.025567,0.031958,-0.003196
27539174,-0.000876,-0.002253,-0.004014,0.03,-0.30,9.87,35.15,0.026632,0.031958,-0.004261
27540186,0.001255,-0.000122,0.000247,0.05,-0.30,9.86,35.16,0.024501,0.034089,0.000000
27541198,0.002320,0.000943,0.002378,0.03,-0.32,9.80,35.18,0.023436,0.035154,0.002131
27542223,0.001255,-0.000122,0.001312,-0.01,-0.33,9.77,35.17,0.024501,0.034089,0.001065
27543216,0.000189,-0.002253,-0.000818,-0.01,-0.33,9.82,35.14,0.026632,0.033024,-0.001065
27544222,-0.000876,-0.004383,0.000247,-0.01,-0.31,9.84,35.10,0.028763,0.031958,0.000000
27545234,-0.000876,-0.003318,0.000247,0.00,-0.27,9.80,35.13,0.027697,0.031958,0.000000
27546242,-0.000876,-0.001188,0.000247,-0.01,-0.27,9.79,35.10,0.025567,0.031958,0.000000
27547278,-0.001941,0.000943,0.001312,-0.02,-0.29,9.86,35.10,0.023436,0.030893,0.001065
27548264,0.000189,-0.000122,0.001312,-0.01,-0.29,9.90,35.13,0.024501,0.033024,0.001065
27549275,0.001255,-0.001188,-0.000818,-0.01,-0.30,9.89,35.14,0.025567,0.034089,-0.001065
27550284,0.000189,-0.001188,-0.000818,-0.01,-0.28,9.84,35.11,0.025567,0.033024,-0.001065
27551295,-0.000876,-0.000122,0.000247,-0.02,-0.25,9.80,35.14,0.024501,0.031958,0.000000
27552318,-0.000876,-0.002253,-0.000818,0.01,-0.25,9.80,35.12,0.026632,0.031958,-0.001065
27553315,0.000189,-0.001188,-0.000818,0.01,-0.29,9.81,35.14,0.025567,0.033024,-0.001065
27554324,0.002320,-0.000122,0.000247,0.00,-0.29,9.83,35.17,0.024501,0.035154,0.000000
27555335,0.003385,0.000943,0.000247,0.00,-0.29,9.82,35.12,0.023436,0.036220,0.000000
27556344,0.000189,0.002008,0.000247,0.01,-0.29,9.88,35.11,0.022371,0.033024,0.000000
27557364,-0.001941,0.000943,0.000247,0.04,-0.28,9.84,35.16,0.023436,0.030893,0.000000
27558364,0.000189,-0.001188,0.000247,0.03,-0.29,9.77,35.13,0.025567,0.033024,0.000000
27559375,0.000189,-0.000122,0.000247,0.05,-0.29,9.78,35.12,0.024501,0.033024,0.000000
27560384,0.000189,-0.000122,0.000247,0.02,-0.28,9.74,35.14,0.024501,0.033024,0.000000
27561395,-0.001941,-0.000122,-0.000818,0.00,-0.28,9.77,35.12,0.024501,0.030893,-0.001065
27562422,-0.000876,-0.001188,-0.004014,0.02,-0.28,9.85,35.11,0.025567,0.031958,-0.004261
27563415,0.000189,-0.001188,-0.006145,0.05,-0.29,9.89,35.13,0.025567,0.033024,-0.006392
27564424,0.000189,-0.001188,-0.004014,0.04,-0.30,9.87,35.15,0.025567,0.033024,-0.004261
27565435,-0.001941,-0.000122,-0.000818,0.04,-0.31,9.81,35.19,0.024501,0.030893,-0.001065
27566444,0.000189,0.003074,0.000247,0.04,-0.29,9.81,35.19,0.021306,0.033024,0.000000
27567464,0.003385,0.003074,0.001312,0.04,-0.28,9.79,35.12,0.021306,0.036220,0.001065
27568464,0.003385,0.002008,0.001312,0.05,-0.31,9.78,35.11,0.022371,0.036220,0.001065
27569475,0.002320,0.000943,0.002378,0.02,-0.33,9.82,35.12,0.023436,0.035154,0.002131
27570484,0.003385,0.000943,0.002378,-0.01,-0.33,9.79,35.15,0.023436,0.036220,0.002131
27571495,0.002320,0.002008,0.001312,-0.02,-0.32,9.77,35.09,0.022371,0.035154,0.001065
27572517,0.002320,0.002008,0.000247,0.00,-0.28,9.82,35.13,0.022371,0.035154,0.000000
27573515,0.001255,0.002008,-0.001883,0.05,-0.26,9.83,35.12,0.022371,0.034089,-0.002131
27574524,0.000189,0.003074,-0.001883,0.05,-0.29,9.78,35.13,0.021306,0.033024,-0.002131
27575535,0.000189,0.002008,0.000247,0.01,-0.29,9.75,35.15,0.022371,0.033024,0.000000
27576544,0.000189,-0.000122,0.001312,0.01,-0.28,9.77,35.16,0.024501,0.033024,0.001065
27577564,0.000189,0.000943,0.000247,0.01,-0.28,9.81,35.13,0.023436,0.033024,0.000000
27578564,0.000189,-0.000122,-0.001883,0.00,-0.28,9.80,35.08,0.024501,0.033024,-0.002131
27579575,-0.000876,-0.000122,-0.001883,0.01,-0.31,9.77,35.11,0.024501,0.031958,-0.002131
27580584,-0.000876,0.000943,-0.002949,0.02,-0.31,9.75,35.15,0.023436,0.031958,-0.003196
27581595,-0.001941,0.000943,-0.002949,0.00,-0.31,9.76,35.16,0.023436,0.030893,-0.003196
27582622,-0.001941,-0.000122,-0.000818,-0.02,-0.34,9.81,35.14,0.024501,0.030893,-0.001065
27583615,-0.000876,-0.001188,0.000247,0.03,-0.33,9.81,35.18,0.025567,0.031958,0.000000
27584624,-0.000876,-0.002253,0.000247,0.03,-0.31,9.80,35.16,0.026632,0.031958,0.000000
27585635,0.000189,-0.003318,-0.000818,-0.01,-0.29,9.79,35.13,0.027697,0.033024,-0.001065
27586644,-0.000876,-0.002253,0.000247,0.00,-0.27,9.80,35.13,0.026632,0.031958,0.000000
27587664,-0.000876,0.000943,-0.000818,-0.01,-0.30,9.80,35.12,0.023436,0.031958,-0.001065
27588664,-0.000876,0.002008,-0.004014,0.00,-0.32,9.80,35.16,0.022371,0.031958,-0.004261
27589675,-0.000876,0.000943,-0.005079,0.01,-0.28,9.83,35.16,0.023436,0.031958,-0.005326
27590684,0.000189,-0.002253,-0.005079,0.04,-0.30,9.85,35.15,0.026632,0.033024,-0.005326
27591703,0.001255,-0.002253,-0.005079,0.01,-0.30,9.84,35.14,0.026632,0.034089,-0.005326
27592711,0.001255,-0.003318,-0.002949,-0.01,-0.28,9.85,35.13,0.027697,0.034089,-0.003196
27593715,0.001255,-0.001188,-0.001883,0.01,-0.27,9.86,35.12,0.025567,0.034089,-0.002131
27594724,0.001255,-0.002253,0.000247,0.03,-0.30,9.83,35.13,0.026632,0.034089,0.000000
27595735,0.001255,-0.002253,0.001312,0.03,-0.31,9.79,35.08,0.026632,0.034089,0.001065
27596744,0.001255,-0.002253,0.002378,0.01,-0.28,9.82,35.11,0.026632,0.034089,0.002131
27597763,-0.001941,-0.002253,0.001312,0.02,-0.31,9.80,35.13,0.026632,0.030893,0.001065
27598764,-0.004072,-0.000122,0.000247,0.03,-0.32,9.82,35.15,0.024501,0.028763,0.000000
27599775,-0.005137,0.000943,-0.001883,0.04,-0.32,9.83,35.13,0.023436,0.027697,-0.002131
27600784,-0.003007,-0.000122,-0.004014,0.02,-0.31,9.80,35.13,0.024501,0.029828,-0.004261
27601807,0.000189,-0.001188,-0.001883,0.02,-0.30,9.79,35.15,0.025567,0.033024,-0.002131
27602813,0.002320,-0.001188,-0.000818,0.03,-0.31,9.78,35.13,0.025567,0.035154,-0.001065
27603815,0.000189,-0.002253,-0.000818,0.00,-0.34,9.83,35.13,0.026632,0.033024,-0.001065
27604824,-0.000876,-0.003318,-0.001883,0.01,-0.35,9.84,35.10,0.027697,0.031958,-0.002131
27605835,0.000189,-0.002253,-0.001883,0.01,-0.34,9.82,35.08,0.026632,0.033024,-0.002131
27606844,-0.000876,-0.002253,-0.000818,-0.02,-0.33,9.79,35.11,0.026632,0.031958,-0.001065
27607863,-0.000876,-0.000122,-0.002949,-0.02,-0.32,9.84,35.08,0.024501,0.031958,-0.003196
27608864,-0.000876,0.002008,-0.002949,0.01,-0.33,9.86,35.11,0.022371,0.031958,-0.003196
27609875,0.001255,0.002008,-0.001883,0.00,-0.32,9.82,35.15,0.022371,0.034089,-0.002131
27610884,0.002320,0.002008,-0.002949,0.00,-0.32,9.84,35.10,0.022371,0.035154,-0.003196
27611903,0.002320,-0.000122,-0.002949,0.02,-0.31,9.82,35.17,0.024501,0.035154,-0.003196
27612911,-0.001941,-0.001188,-0.002949,0.02,-0.30,9.82,35.13,0.025567,0.030893,-0.003196
27613915,-0.003007,-0.000122,-0.002949,0.04,-0.32,9.85,35.14,0.024501,0.029828,-0.003196
27614924,-0.003007,0.000943,-0.001883,0.04,-0.32,9.81,35.13,0.023436,0.029828,-0.002131
27615935,-0.000876,0.000943,0.001312,0.01,-0.30,9.78,35.12,0.023436,0.031958,0.001065
27616944,0.001255,-0.001188,0.003443,-0.01,-0.30,9.80,35.09,0.025567,0.034089,0.003196
27617967,0.001255,-0.001188,0.003443,-0.01,-0.32,9.85,35.11,0.025567,0.034089,0.003196
27618967,0.000189,-0.001188,0.000247,0.01,-0.34,9.82,35.12,0.025567,0.033024,0.000000
27619976,-0.001941,-0.001188,-0.001883,0.01,-0.30,9.78,35.12,0.025567,0.030893,-0.002131
27620988,-0.000876,-0.001188,-0.001883,0.03,-0.28,9.82,35.10,0.025567,0.031958,-0.002131
27622018,-0.000876,-0.000122,-0.000818,0.07,-0.27,9.83,35.08,0.024501,0.031958,-0.001065
27623032,-0.000876,0.000943,0.000247,0.09,-0.28,9.82,35.12,0.023436,0.031958,0.000000
27624028,-0.000876,0.000943,0.000247,0.04,-0.29,9.82,35.13,0.023436,0.031958,0.000000
27625030,-0.000876,-0.001188,-0.001883,0.02,-0.28,9.82,35.15,0.025567,0.031958,-0.002131
27626043,-0.000876,-0.001188,-0.002949,0.03,-0.28,9.78,35.15,0.025567,0.031958,-0.003196
27627055,0.000189,-0.002253,-0.004014,0.03,-0.29,9.76,35.13,0.026632,0.033024,-0.004261
27628080,0.000189,-0.003318,-0.001883,0.05,-0.28,9.82,35.17,0.027697,0.033024,-0.002131
27629109,-0.001941,-0.002253,0.000247,0.06,-0.28,9.82,35.11,0.026632,0.030893,0.000000
27630090,-0.003007,-0.001188,0.000247,0.00,-0.29,9.84,35.13,0.025567,0.029828,0.000000
27631097,-0.003007,-0.000122,-0.000818,-0.01,-0.26,9.86,35.12,0.024501,0.029828,-0.001065
27632119,-0.001941,0.000943,0.000247,0.04,-0.28,9.86,35.17,0.023436,0.030893,0.000000
27633126,0.000189,-0.000122,0.000247,0.04,-0.30,9.84,35.13,0.024501,0.033024,0.000000
27634122,0.001255,-0.002253,-0.000818,0.03,-0.29,9.81,35.14,0.026632,0.034089,-0.001065
27635155,0.000218,-0.001128,0.000314,0.03,-0.27,9.77,35.18,0.025567,0.033024,0.000000
27636144,0.001283,0.002068,0.000314,0.03,-0.26,9.79,35.15,0.022371,0.034089,0.000000
27637147,0.001283,0.002068,-0.000752,0.00,-0.27,9.82,35.15,0.022371,0.034089,-0.001065
27638199,-0.001913,0.002068,-0.000752,0.00,-0.29,9.80,35.10,0.022371,0.030893,-0.001065
27639203,-0.001913,-0.000063,-0.000752,0.02,-0.31,9.81,35.09,0.024501,0.030893,-0.001065
27640205,-0.000848,-0.002193,0.000314,0.01,-0.32,9.82,35.12,0.026632,0.031958,0.000000
27641214,-0.001913,-0.001128,-0.000752,0.01,-0.32,9.79,35.16,0.025567,0.030893,-0.001065
27642210,-0.001913,0.001003,-0.002882,0.01,-0.31,9.82,35.12,0.023436,0.030893,-0.003196
27643217,-0.000848,0.001003,-0.002882,0.03,-0.31,9.80,35.12,0.023436,0.031958,-0.003196
27644217,-0.000848,-0.000063,-0.001817,0.04,-0.29,9.71,35.13,0.024501,0.031958,-0.002131
27645224,0.000218,-0.002193,-0.000752,0.04,-0.28,9.73,35.13,0.026632,0.033024,-0.001065
27646235,0.000218,-0.004324,-0.000752,0.05,-0.31,9.80,35.15,0.028763,0.033024,-0.001065
27647244,-0.000848,-0.003258,-0.000752,0.02,-0.33,9.83,35.14,0.027697,0.031958,-0.001065
27648263,0.000218,-0.000063,0.000314,0.02,-0.31,9.83,35.15,0.024501,0.033024,0.000000
27649264,0.000218,-0.001128,0.000314,0.03,-0.28,9.81,35.13,0.025567,0.033024,0.000000
27650275,0.000218,-0.004324,-0.000752,0.02,-0.27,9.81,35.11,0.028763,0.033024,-0.001065
27651284,0.001283,-0.004324,-0.001817,0.01,-0.29,9.83,35.14,0.028763,0.034089,-0.002131
27652303,-0.000848,-0.002193,-0.002882,0.04,-0.26,9.79,35.16,0.026632,0.031958,-0.003196
27653311,-0.001913,-0.000063,-0.002882,0.03,-0.28,9.80,35.16,0.024501,0.030893,-0.003196
27654315,-0.001913,0.001003,-0.000752,0.02,-0.29,9.81,35.13,0.023436,0.030893,-0.001065
27655324,-0.000848,-0.000063,0.001379,0.03,-0.27,9.77,35.10,0.024501,0.031958,0.001065
27656335,-0.000848,-0.000063,0.001379,0.01,-0.28,9.79,35.16,0.024501,0.031958,0.001065
27657344,0.000218,-0.000063,0.000314,0.01,-0.28,9.80,35.20,0.024501,0.033024,0.000000
27658363,0.001283,0.001003,-0.000752,0.01,-0.30,9.82,35.15,0.023436,0.034089,-0.001065
27659364,0.000218,-0.001128,-0.001817,0.04,-0.30,9.86,35.16,0.025567,0.033024,-0.002131
27660375,0.000218,-0.003258,-0.001817,0.05,-0.30,9.82,35.16,0.027697,0.033024,-0.002131
27661384,0.000218,-0.002193,-0.000752,0.04,-0.31,9.78,35.12,0.026632,0.033024,-0.001065
27662404,0.001283,-0.000063,-0.000752,0.01,-0.28,9.78,35.14,0.024501,0.034089,-0.001065
27663413,0.002348,-0.000063,-0.000752,0.01,-0.28,9.76,35.16,0.024501,0.035154,-0.001065
27664415,0.002348,0.001003,-0.000752,0.04,-0.27,9.78,35.13,0.023436,0.035154,-0.001065
27665424,0.001283,0.002068,-0.001817,0.04,-0.25,9.78,35.13,0.022371,0.034089,-0.002131
27666435,0.000218,0.002068,-0.000752,0.03,-0.27,9.77,35.14,0.022371,0.033024,-0.001065
27667444,-0.000848,0.002068,0.000314,0.02,-0.31,9.80,35.17,0.022371,0.031958,0.000000
27668463,-0.000848,0.002068,0.001379,0.01,-0.30,9.82,35.15,0.022371,0.031958,0.001065
27669464,0.000218,-0.000063,0.001379,-0.01,-0.30,9.82,35.13,0.024501,0.033024,0.001065
27670475,0.000218,-0.000063,0.001379,-0.02,-0.28,9.81,35.12,0.024501,0.033024,0.001065
27671484,-0.000848,0.002068,0.001379,-0.01,-0.29,9.79,35.13,0.022371,0.031958,0.001065
27672503,-0.000848,0.002068,0.002444,0.04,-0.32,9.83,35.13,0.022371,0.031958,0.002131
27673511,0.000218,0.002068,0.002444,0.04,-0.30,9.87,35.13,0.022371,0.033024,0.002131
27674515,0.000218,-0.000063,0.001379,0.01,-0.29,9.86,35.14,0.024501,0.033024,0.001065
27675524,0.000218,-0.002193,-0.000752,0.00,-0.27,9.79,35.17,0.026632,0.033024,-0.001065
27676535,0.000218,-0.002193,-0.000752,0.04,-0.28,9.78,35.16,0.026632,0.033024,-0.001065
27677544,-0.001913,-0.000063,0.000314,0.06,-0.31,9.84,35.15,0.024501,0.030893,0.000000
27678563,-0.002978,-0.000063,0.000314,0.05,-0.31,9.87,35.13,0.024501,0.029828,0.000000
27679564,-0.000848,-0.000063,0.001379,0.02,-0.26,9.87,35.16,0.024501,0.031958,0.001065
27680575,-0.000848,0.001003,0.001379,0.03,-0.25,9.83,35.11,0.023436,0.031958,0.001065
27681584,-0.000848,0.003133,0.000314,0.04,-0.29,9.78,35.11,0.021306,0.031958,0.000000
27682604,-0.001913,0.003133,0.000314,0.00,-0.31,9.75,35.06,0.021306,0.030893,0.000000
27683613,-0.000848,0.003133,-0.000752,0.03,-0.30,9.82,35.11,0.021306,0.031958,-0.001065
27684615,-0.000848,0.003133,0.000314,0.02,-0.28,9.83,35.13,0.021306,0.031958,0.000000
27685624,0.000218,0.004199,0.000314,0.00,-0.29,9.81,35.11,0.020240,0.033024,0.000000
27686635,0.001283,0.004199,0.000314,0.02,-0.30,9.83,35.12,0.020240,0.034089,0.000000
27687644,0.002348,0.003133,-0.001817,0.03,-0.30,9.81,35.14,0.021306,0.035154,-0.002131
27688663,0.002348,0.002068,-0.001817,0.01,-0.30,9.82,35.15,0.022371,0.035154,-0.002131
27689664,0.001283,0.001003,0.002444,-0.01,-0.30,9.82,35.12,0.023436,0.034089,0.002131
27690675,-0.000848,-0.000063,0.004575,-0.02,-0.29,9.81,35.10,0.024501,0.031958,0.004261
27691692,-0.001913,-0.000063,0.004575,-0.02,-0.29,9.86,35.12,0.024501,0.030893,0.004261
27692695,-0.002978,-0.001128,0.003509,0.00,-0.28,9.91,35.09,0.025567,0.029828,0.003196
27693711,-0.000848,-0.003258,0.002444,0.02,-0.29,9.87,35.11,0.027697,0.031958,0.002131
27694715,0.001283,-0.002193,0.001379,0.00,-0.29,9.82,35.13,0.026632,0.034089,0.001065
27695724,0.001283,0.001003,0.001379,-0.01,-0.28,9.79,35.11,0.023436,0.034089,0.001065
27696735,0.000218,0.001003,0.001379,0.00,-0.31,9.80,35.14,0.023436,0.033024,0.001065
27697744,-0.000848,-0.000063,0.000314,0.02,-0.32,9.83,35.16,0.024501,0.031958,0.000000
27698763,-0.001913,-0.002193,0.001379,0.04,-0.27,9.83,35.15,0.026632,0.030893,0.001065
27699764,-0.002978,-0.004324,0.001379,0.03,-0.27,9.84,35.13,0.028763,0.029828,0.001065
27700775,-0.001913,-0.003258,0.000314,0.00,-0.30,9.84,35.11,0.027697,0.030893,0.000000
27701793,-0.000848,-0.002193,0.000314,-0.02,-0.31,9.82,35.12,0.026632,0.031958,0.000000
27702795,0.001283,-0.004324,-0.000752,0.00,-0.29,9.83,35.15,0.028763,0.034089,-0.001065
27703813,0.001283,-0.004324,-0.000752,0.01,-0.31,9.80,35.13,0.028763,0.034089,-0.001065
27704815,0.000218,-0.001128,-0.000752,-0.01,-0.34,9.77,35.14,0.025567,0.033024,-0.001065
27705824,0.000218,0.001003,-0.000752,-0.02,-0.32,9.80,35.16,0.023436,0.033024,-0.001065
27706835,0.002348,-0.000063,-0.001817,-0.01,-0.32,9.79,35.15,0.024501,0.035154,-0.002131
27707844,0.003413,-0.000063,-0.002882,-0.02,-0.30,9.78,35.14,0.024501,0.036220,-0.003196
27708863,0.001283,-0.000063,-0.002882,-0.04,-0.29,9.80,35.14,0.024501,0.034089,-0.003196
27709864,0.000218,-0.000063,-0.001817,-0.03,-0.29,9.81,35.12,0.024501,0.033024,-0.002131
27710875,0.000218,0.001003,0.000314,-0.02,-0.29,9.82,35.09,0.023436,0.033024,0.000000
27711892,0.000218,-0.000063,0.002444,0.02,-0.29,9.84,35.13,0.024501,0.033024,0.002131
27712895,-0.001913,-0.002193,0.001379,0.04,-0.27,9.79,35.16,0.026632,0.030893,0.001065
27713911,-0.000848,-0.001128,-0.000752,0.03,-0.28,9.79,35.16,0.025567,0.031958,-0.001065
27714915,0.001283,-0.001128,-0.001817,0.02,-0.28,9.86,35.12,0.025567,0.034089,-0.002131
27715924,0.002348,-0.002193,-0.000752,0.04,-0.24,9.85,35.16,0.026632,0.035154,-0.001065
27716935,0.000218,-0.002193,-0.000752,0.06,-0.26,9.81,35.15,0.026632,0.033024,-0.001065
27717944,-0.001913,-0.000063,0.000314,0.05,-0.27,9.79,35.16,0.024501,0.030893,0.000000
27718968,-0.001913,-0.001128,-0.000752,0.05,-0.28,9.80,35.17,0.025567,0.030893,-0.001065
27719966,0.001283,-0.000063,-0.001817,0.01,-0.29,9.83,35.10,0.024501,0.034089,-0.002131
27720978,0.002348,0.001003,-0.001817,-0.02,-0.29,9.85,35.14,0.023436,0.035154,-0.002131
27722003,0.001283,-0.000063,-0.002882,-0.01,-0.30,9.83,35.13,0.024501,0.034089,-0.003196
27723001,0.000218,-0.002193,-0.003948,-0.01,-0.29,9.82,35.17,0.026632,0.033024,-0.004261
27724024,-0.000848,-0.001128,-0.003948,0.00,-0.29,9.82,35.16,0.025567,0.031958,-0.004261
27725034,0.000218,-0.000063,-0.002882,0.01,-0.30,9.82,35.13,0.024501,0.033024,-0.003196
27726034,0.000218,0.002068,-0.000752,0.02,-0.32,9.86,35.09,0.022371,0.033024,-0.001065
27727043,-0.001913,0.001003,0.000314,0.01,-0.32,9.85,35.13,0.023436,0.030893,0.000000
27728060,-0.002978,-0.000063,-0.001817,0.03,-0.31,9.74,35.14,0.024501,0.029828,-0.002131
27729075,-0.002978,0.001003,-0.005013,0.03,-0.29,9.78,35.13,0.023436,0.029828,-0.005326
27730075,-0.001913,0.002068,-0.005013,0.01,-0.28,9.88,35.13,0.022371,0.030893,-0.005326
27731119,-0.000848,0.001003,-0.002882,0.03,-0.28,9.85,35.13,0.023436,0.031958,-0.003196
27732115,-0.001913,-0.001128,-0.001817,0.04,-0.28,9.83,35.12,0.025567,0.030893,-0.002131
27733117,-0.002978,-0.002193,-0.001817,0.02,-0.29,9.82,35.15,0.026632,0.029828,-0.002131
27734122,-0.002978,-0.002193,0.000314,0.01,-0.31,9.82,35.16,0.026632,0.029828,0.000000
27735126,-0.001913,-0.000063,0.001379,0.01,-0.29,9.84,35.14,0.024501,0.030893,0.001065
27736138,-0.001913,0.002068,0.000314,0.00,-0.30,9.83,35.11,0.022371,0.030893,0.000000
27737140,-0.002978,0.001003,-0.001817,0.00,-0.31,9.84,35.14,0.023436,0.029828,-0.002131
27738151,-0.002978,-0.001128,-0.001817,0.00,-0.29,9.79,35.13,0.025567,0.029828,-0.002131
27739167,-0.001913,-0.001128,-0.003948,0.05,-0.29,9.78,35.13,0.025567,0.030893,-0.004261
27740168,-0.001913,-0.001128,-0.003948,0.05,-0.29,9.79,35.17,0.025567,0.030893,-0.004261
27741175,0.000218,-0.001128,-0.001817,0.00,-0.31,9.78,35.13,0.025567,0.033024,-0.002131
27742197,0.000218,-0.002193,-0.001817,0.02,-0.28,9.82,35.10,0.026632,0.033024,-0.002131
27743199,0.000218,-0.000063,-0.001817,0.01,-0.27,9.82,35.11,0.024501,0.033024,-0.002131
27744217,0.003413,0.001003,-0.002882,0.04,-0.30,9.81,35.11,0.023436,0.036220,-0.003196
27745217,0.005544,0.001003,-0.002882,0.05,-0.29,9.77,35.10,0.023436,0.038350,-0.003196
27746224,0.003413,0.002068,-0.000752,0.01,-0.30,9.80,35.13,0.022371,0.036220,-0.001065
27747235,0.000218,0.002068,0.000314,0.00,-0.34,9.83,35.10,0.022371,0.033024,0.000000
27748244,-0.001913,0.002068,0.002444,0.02,-0.29,9.83,35.16,0.022371,0.030893,0.002131
27749263,-0.000848,0.002068,0.002444,0.02,-0.28,9.81,35.13,0.022371,0.031958,0.002131
27750264,-0.000848,0.001003,0.000314,-0.02,-0.30,9.77,35.11,0.023436,0.031958,0.000000
27751275,0.001283,-0.000063,-0.001817,-0.01,-0.31,9.78,35.13,0.024501,0.034089,-0.002131
27752291,0.001283,0.002068,-0.005013,0.03,-0.33,9.78,35.14,0.022371,0.034089,-0.005326
27753295,0.000218,0.004199,-0.006078,0.03,-0.33,9.81,35.11,0.020240,0.033024,-0.006392
27754311,0.000218,0.003133,-0.003948,0.02,-0.30,9.87,35.15,0.021306,0.033024,-0.004261
27755315,-0.000848,-0.001128,-0.001817,0.00,-0.29,9.86,35.15,0.025567,0.031958,-0.002131
27756324,-0.001913,-0.002193,0.000314,-0.01,-0.33,9.80,35.14,0.026632,0.030893,0.000000
27757335,-0.000848,-0.001128,0.001379,-0.01,-0.27,9.79,35.10,0.025567,0.031958,0.001065
27758344,0.001283,-0.001128,0.000314,-0.02,-0.26,9.81,35.15,0.025567,0.034089,0.000000
27759363,-0.002978,0.003133,-0.001817,0.03,-0.31,9.78,35.14,0.021306,0.029828,-0.002131
27760364,-0.000848,0.001003,0.000314,0.03,-0.32,9.86,35.16,0.023436,0.031958,0.000000
27761375,0.000218,-0.002193,0.001379,0.02,-0.32,9.88,35.14,0.026632,0.033024,0.001065
27762394,-0.001913,-0.002193,0.000314,0.01,-0.29,9.87,35.13,0.026632,0.030893,0.000000
27763395,-0.001913,0.001003,-0.000752,0.02,-0.27,9.78,35.18,0.023436,0.030893,-0.001065
27764435,-0.001876,0.002073,-0.000682,0.04,-0.26,9.76,35.18,0.022371,0.030893,-0.001065
27765415,-0.002941,0.002073,-0.000682,0.04,-0.29,9.83,35.14,0.022371,0.029828,-0.001065
27766424,-0.005072,0.002073,-0.001748,0.05,-0.28,9.81,35.14,0.022371,0.027697,-0.002131
27767435,-0.001876,0.003138,-0.000682,0.02,-0.26,9.83,35.13,0.021306,0.030893,-0.001065
27768444,0.000254,0.002073,-0.001748,0.00,-0.31,9.86,35.14,0.022371,0.033024,-0.002131
27769463,0.000254,0.001007,-0.003878,0.03,-0.32,9.86,35.16,0.023436,0.033024,-0.004261
27770464,-0.000811,-0.001123,-0.006009,0.03,-0.31,9.86,35.12,0.025567,0.031958,-0.006392
27771475,-0.000811,-0.002189,-0.006009,0.04,-0.33,9.79,35.13,0.026632,0.031958,-0.006392
27772490,-0.001876,-0.003254,-0.003878,0.05,-0.33,9.81,35.16,0.027697,0.030893,-0.004261
27773495,-0.002941,-0.000058,-0.002813,0.03,-0.32,9.88,35.12,0.024501,0.029828,-0.003196
27774511,-0.000811,0.002073,-0.000682,0.05,-0.30,9.83,35.12,0.022371,0.031958,-0.001065
27775515,0.001320,0.001007,-0.000682,0.05,-0.28,9.77,35.18,0.023436,0.034089,-0.001065
27776524,0.001320,-0.001123,-0.000682,0.03,-0.31,9.82,35.22,0.025567,0.034089,-0.001065
27777535,0.000254,-0.002189,-0.000682,0.06,-0.32,9.85,35.17,0.026632,0.033024,-0.001065
27778544,0.000254,-0.004319,0.000383,0.05,-0.30,9.77,35.10,0.028763,0.033024,0.000000
27779563,0.002385,-0.006450,0.000383,0.00,-0.29,9.73,35.12,0.030893,0.035154,0.000000
27780564,0.001320,-0.005384,-0.002813,0.00,-0.28,9.76,35.17,0.029828,0.034089,-0.003196
27781575,-0.000811,-0.005384,-0.003878,0.02,-0.32,9.77,35.18,0.029828,0.031958,-0.004261
27782593,-0.000811,-0.004319,-0.001748,0.01,-0.31,9.82,35.14,0.028763,0.031958,-0.002131
27783595,-0.000811,-0.001123,-0.000682,0.00,-0.27,9.87,35.17,0.025567,0.031958,-0.001065
27784613,0.000254,0.002073,-0.001748,0.00,-0.28,9.84,35.16,0.022371,0.033024,-0.002131
27785615,0.000254,0.003138,-0.001748,0.00,-0.30,9.78,35.15,0.021306,0.033024,-0.002131
27786624,0.001320,0.001007,0.000383,0.01,-0.30,9.78,35.14,0.023436,0.034089,0.000000
27787635,0.002385,-0.002189,0.002514,0.04,-0.27,9.83,35.13,0.026632,0.035154,0.002131
27788644,0.002385,-0.001123,0.003579,0.04,-0.27,9.85,35.13,0.025567,0.035154,0.003196
27789663,0.002385,-0.000058,0.003579,0.01,-0.28,9.84,35.10,0.024501,0.035154,0.003196
27790664,-0.000811,-0.000058,0.003579,0.00,-0.29,9.84,35.13,0.024501,0.031958,0.003196
27791681,-0.001876,-0.000058,0.002514,0.02,-0.31,9.88,35.13,0.024501,0.030893,0.002131
27792684,-0.002941,-0.000058,0.002514,0.01,-0.27,9.87,35.12,0.024501,0.029828,0.002131
27793695,-0.001876,-0.001123,0.002514,0.00,-0.27,9.83,35.16,0.025567,0.030893,0.002131
27794711,-0.000811,-0.003254,0.000383,0.04,-0.34,9.81,35.19,0.027697,0.031958,0.000000
27795715,-0.000811,-0.003254,-0.000682,0.01,-0.34,9.81,35.15,0.027697,0.031958,-0.001065
27796724,-0.000811,-0.001123,-0.000682,0.01,-0.31,9.77,35.15,0.025567,0.031958,-0.001065
27797735,0.000254,-0.001123,0.000383,0.05,-0.29,9.81,35.16,0.025567,0.033024,0.000000
27798744,0.000254,-0.000058,0.000383,0.06,-0.28,9.85,35.15,0.024501,0.033024,0.000000
27799763,0.000254,0.002073,-0.000682,0.06,-0.27,9.81,35.14,0.022371,0.033024,-0.001065
27800764,-0.000811,0.002073,-0.000682,0.04,-0.29,9.80,35.15,0.022371,0.031958,-0.001065
27801784,0.000254,-0.000058,0.000383,0.00,-0.30,9.78,35.16,0.024501,0.033024,0.000000
27802784,0.001320,-0.000058,-0.000682,0.01,-0.28,9.81,35.17,0.024501,0.034089,-0.001065
27803795,0.000254,-0.000058,-0.001748,0.03,-0.27,9.81,35.14,0.024501,0.033024,-0.002131
27804813,-0.000811,-0.002189,-0.001748,0.01,-0.30,9.78,35.10,0.026632,0.031958,-0.002131
27805815,-0.001876,-0.001123,0.000383,-0.01,-0.30,9.78,35.07,0.025567,0.030893,0.000000
27806824,0.000254,0.001007,0.000383,-0.01,-0.25,9.79,35.12,0.023436,0.033024,0.000000
27807835,0.002385,0.002073,0.000383,-0.01,-0.26,9.80,35.15,0.022371,0.035154,0.000000
27808844,0.003450,0.002073,0.000383,0.01,-0.31,9.80,35.16,0.022371,0.036220,0.000000
27809863,0.003450,-0.000058,0.000383,0.01,-0.33,9.82,35.13,0.024501,0.036220,0.000000
27810864,0.002385,-0.001123,0.000383,0.00,-0.34,9.81,35.14,0.025567,0.035154,0.000000
27811881,0.001320,-0.000058,-0.000682,0.02,-0.34,9.85,35.16,0.024501,0.034089,-0.001065
27812884,-0.000811,0.001007,0.000383,0.02,-0.30,9.85,35.18,0.023436,0.031958,0.000000
27813895,-0.001876,-0.001123,0.000383,0.02,-0.29,9.84,35.16,0.025567,0.030893,0.000000
27814911,-0.002941,-0.003254,0.000383,0.00,-0.31,9.83,35.10,0.027697,0.029828,0.000000
27815915,-0.001876,-0.002189,0.000383,-0.01,-0.29,9.79,35.17,0.026632,0.030893,0.000000
27816924,0.000254,-0.001123,0.001448,0.00,-0.25,9.80,35.19,0.025567,0.033024,0.001065
27817935,0.001320,-0.001123,0.002514,0.00,-0.23,9.78,35.20,0.025567,0.034089,0.002131
27818944,0.001320,-0.001123,0.002514,-0.01,-0.23,9.79,35.21,0.025567,0.034089,0.002131
27819968,0.001320,-0.001123,0.001448,0.00,-0.28,9.84,35.20,0.025567,0.034089,0.001065
27820966,0.000254,-0.000058,0.002514,0.02,-0.30,9.83,35.15,0.024501,0.033024,0.002131
27821990,-0.000811,-0.001123,0.002514,0.03,-0.30,9.78,35.10,0.025567,0.031958,0.002131
27822989,-0.001876,-0.002189,0.001448,0.01,-0.29,9.78,35.12,0.026632,0.030893,0.001065
27824002,-0.001876,-0.002189,0.001448,-0.01,-0.26,9.79,35.16,0.026632,0.030893,0.001065
27825024,-0.000811,0.001007,0.001448,0.02,-0.28,9.82,35.13,0.023436,0.031958,0.001065
27826024,0.000254,0.003138,0.001448,0.04,-0.30,9.87,35.14,0.021306,0.033024,0.001065
27827053,0.001320,-0.000058,0.001448,-0.01,-0.32,9.87,35.11,0.024501,0.034089,0.001065
27828042,0.003450,-0.004319,-0.000682,0.03,-0.33,9.84,35.11,0.028763,0.036220,-0.001065
27829059,0.004516,-0.004319,-0.002813,0.05,-0.29,9.82,35.15,0.028763,0.037285,-0.003196
27830075,0.003450,-0.003254,-0.003878,0.02,-0.27,9.79,35.16,0.027697,0.036220,-0.004261
27831075,0.001320,-0.002189,-0.002813,0.01,-0.27,9.77,35.13,0.026632,0.034089,-0.003196
27832099,-0.002941,-0.001123,-0.001748,-0.02,-0.26,9.81,35.10,0.025567,0.029828,-0.002131
27833107,-0.001876,-0.001123,-0.002813,0.01,-0.30,9.81,35.13,0.025567,0.030893,-0.003196
27834129,-0.000811,-0.002189,-0.002813,0.04,-0.32,9.81,35.13,0.026632,0.031958,-0.003196
27835122,-0.002941,-0.002189,-0.000682,0.02,-0.26,9.82,35.14,0.026632,0.029828,-0.001065
27836125,-0.002941,-0.002189,-0.000682,0.01,-0.27,9.79,35.12,0.026632,0.029828,-0.001065
27837137,-0.000811,-0.001123,-0.002813,0.02,-0.31,9.74,35.13,0.025567,0.031958,-0.003196
27838140,-0.000811,0.001007,-0.002813,-0.02,-0.31,9.74,35.17,0.023436,0.031958,-0.003196
27839151,-0.001876,0.002073,-0.002813,-0.02,-0.31,9.75,35.15,0.022371,0.030893,-0.003196
27840167,-0.000811,0.002073,-0.000682,0.04,-0.32,9.73,35.14,0.022371,0.031958,-0.001065
27841168,-0.001876,0.002073,-0.000682,0.05,-0.32,9.76,35.18,0.022371,0.030893,-0.001065
27842184,-0.005072,0.001007,0.000383,0.01,-0.28,9.83,35.15,0.023436,0.027697,0.000000
27843189,-0.002941,0.001007,0.001448,0.00,-0.29,9.85,35.13,0.023436,0.029828,0.001065
27844199,0.000254,0.001007,0.000383,-0.01,-0.33,9.85,35.16,0.023436,0.033024,0.000000
27845217,0.001320,-0.000058,-0.000682,-0.04,-0.33,9.85,35.14,0.024501,0.034089,-0.001065
27846217,0.001320,0.002073,-0.001748,-0.02,-0.28,9.81,35.17,0.022371,0.034089,-0.002131
27847224,0.001320,0.004203,-0.000682,0.05,-0.27,9.79,35.13,0.020240,0.034089,-0.001065
27848235,0.000254,0.003138,0.000383,0.05,-0.29,9.82,35.10,0.021306,0.033024,0.000000
27849244,-0.000811,0.001007,0.002514,0.02,-0.29,9.80,35.13,0.023436,0.031958,0.002131
27850263,-0.000811,-0.000058,0.003579,0.03,-0.28,9.82,35.15,0.024501,0.031958,0.003196
27851264,0.000254,-0.000058,0.003579,0.02,-0.30,9.86,35.19,0.024501,0.033024,0.003196
27852281,0.001320,0.003138,0.001448,0.02,-0.31,9.84,35.17,0.021306,0.034089,0.001065
27853284,0.001320,0.003138,0.001448,0.03,-0.30,9.84,35.16,0.021306,0.034089,0.001065
27854295,0.001320,0.001007,0.001448,0.03,-0.31,9.83,35.13,0.023436,0.034089,0.001065
27855311,0.001320,0.001007,0.000383,0.02,-0.28,9.80,35.12,0.023436,0.034089,0.000000
27856315,0.001320,0.001007,0.000383,0.00,-0.26,9.83,35.16,0.023436,0.034089,0.000000
27857324,0.001320,0.001007,0.000383,0.01,-0.28,9.86,35.12,0.023436,0.034089,0.000000
27858335,0.003450,0.002073,-0.001748,0.03,-0.28,9.85,35.14,0.022371,0.036220,-0.002131
27859344,0.004516,0.002073,-0.001748,0.05,-0.28,9.84,35.16,0.022371,0.037285,-0.002131
27860363,0.001320,0.001007,0.000383,0.04,-0.26,9.83,35.14,0.023436,0.034089,0.000000
27861364,-0.000811,0.002073,0.001448,0.00,-0.26,9.80,35.09,0.022371,0.031958,0.001065
27862384,-0.000811,0.002073,0.000383,-0.02,-0.27,9.78,35.12,0.022371,0.031958,0.000000
27863384,0.000254,-0.000058,-0.000682,-0.01,-0.29,9.77,35.11,0.024501,0.033024,-0.001065
27864395,-0.000811,-0.002189,0.002514,0.04,-0.31,9.75,35.10,0.026632,0.031958,0.002131
27865413,-0.000811,-0.002189,0.001448,0.02,-0.27,9.79,35.10,0.026632,0.031958,0.001065
27866415,-0.000811,0.001007,-0.000682,0.00,-0.29,9.79,35.10,0.023436,0.031958,-0.001065
27867424,0.001320,0.003138,-0.000682,-0.01,-0.32,9.85,35.10,0.021306,0.034089,-0.001065
27868435,0.003450,0.004203,0.000383,-0.01,-0.30,9.85,35.09,0.020240,0.036220,0.000000
27869444,0.000254,0.003138,0.000383,0.02,-0.30,9.78,35.12,0.021306,0.033024,0.000000
27870463,0.000254,-0.000058,0.001448,0.00,-0.31,9.77,35.13,0.024501,0.033024,0.001065
27871464,0.002385,-0.002189,0.001448,-0.01,-0.33,9.81,35.15,0.026632,0.035154,0.001065
27872481,0.003450,-0.003254,0.000383,0.01,-0.30,9.87,35.17,0.027697,0.036220,0.000000
27873484,0.002385,-0.003254,-0.001748,0.01,-0.28,9.80,35.17,0.027697,0.035154,-0.002131
27874495,0.000254,-0.002189,-0.002813,0.03,-0.29,9.77,35.14,0.026632,0.033024,-0.003196
27875511,0.000254,0.001007,-0.001748,0.04,-0.28,9.74,35.12,0.023436,0.033024,-0.002131
27876515,0.000254,0.001007,0.000383,0.00,-0.27,9.77,35.15,0.023436,0.033024,0.000000
27877524,0.000254,-0.001123,0.001448,-0.02,-0.27,9.84,35.15,0.025567,0.033024,0.001065
27878535,0.001320,-0.001123,0.001448,0.02,-0.27,9.83,35.13,0.025567,0.034089,0.001065
27879544,0.001320,0.001007,0.000383,0.02,-0.29,9.80,35.19,0.023436,0.034089,0.000000
27880563,0.000254,0.005268,-0.000682,0.02,-0.30,9.81,35.19,0.019175,0.033024,-0.001065
27881564,-0.000811,0.005268,-0.000682,0.00,-0.28,9.83,35.17,0.019175,0.031958,-0.001065
27882584,-0.002941,0.002073,-0.000682,0.00,-0.31,9.80,35.15,0.022371,0.029828,-0.001065
27883584,-0.002941,0.001007,0.000383,0.02,-0.32,9.80,35.14,0.023436,0.029828,0.000000
27884595,0.000254,-0.000058,0.001448,0.02,-0.27,9.82,35.12,0.024501,0.033024,0.001065
27885613,0.001320,-0.000058,-0.000682,0.03,-0.28,9.84,35.13,0.024501,0.034089,-0.001065
27886615,0.001320,-0.001123,-0.001748,-0.01,-0.27,9.85,35.13,0.025567,0.034089,-0.002131
27887624,-0.000811,-0.000058,-0.001748,0.00,-0.27,9.82,35.13,0.024501,0.031958,-0.002131
27888635,-0.000811,0.003138,-0.000682,0.01,-0.31,9.83,35.15,0.021306,0.031958,-0.001065
27889644,-0.000811,0.003138,-0.000682,0.01,-0.34,9.87,35.14,0.021306,0.031958,-0.001065
27890663,-0.000811,-0.000058,0.000383,0.02,-0.31,9.88,35.13,0.024501,0.031958,0.000000
27891669,-0.000811,-0.002189,0.001448,0.02,-0.26,9.87,35.11,0.026632,0.031958,0.001065
27892675,0.000254,-0.002189,0.000383,0.03,-0.28,9.84,35.09,0.026632,0.033024,0.000000
27893709,0.003442,-0.001112,0.000400,0.01,-0.29,9.80,35.13,0.025567,0.036220,0.000000
27894695,0.004507,-0.000047,0.001465,0.01,-0.29,9.84,35.13,0.024501,0.037285,0.001065
27895711,0.002376,-0.001112,0.002531,0.01,-0.31,9.86,35.13,0.025567,0.035154,0.002131
27896715,-0.000819,-0.002178,0.001465,0.00,-0.31,9.82,35.13,0.026632,0.031958,0.001065
27897724,0.000246,-0.002178,-0.000665,-0.02,-0.28,9.85,35.13,0.026632,0.033024,-0.001065
27898735,0.004507,-0.002178,-0.000665,-0.02,-0.29,9.83,35.14,0.026632,0.037285,-0.001065
27899744,0.004507,-0.003243,-0.000665,0.00,-0.29,9.79,35.14,0.027697,0.037285,-0.001065
27900763,0.002376,-0.003243,0.000400,0.00,-0.26,9.80,35.15,0.027697,0.035154,0.000000
27901773,0.000246,-0.004308,0.001465,-0.02,-0.26,9.78,35.21,0.028763,0.033024,0.001065
27902775,-0.000819,-0.004308,0.000400,0.01,-0.28,9.76,35.22,0.028763,0.031958,0.000000
27903784,0.000246,-0.003243,-0.001731,0.05,-0.31,9.79,35.19,0.027697,0.033024,-0.002131
27904795,0.000246,-0.002178,-0.001731,0.05,-0.31,9.82,35.13,0.026632,0.033024,-0.002131
27905813,0.000246,-0.002178,-0.000665,0.04,-0.28,9.82,35.13,0.026632,0.033024,-0.001065
27906815,0.000246,-0.002178,-0.000665,0.03,-0.31,9.85,35.11,0.026632,0.033024,-0.001065
27907824,-0.000819,-0.001112,-0.002796,0.02,-0.31,9.83,35.16,0.025567,0.031958,-0.003196
27908835,-0.000819,-0.001112,-0.003861,0.01,-0.28,9.78,35.14,0.025567,0.031958,-0.004261
27909844,0.000246,-0.002178,-0.002796,0.04,-0.29,9.78,35.10,0.026632,0.033024,-0.003196
27910863,0.000246,0.001018,-0.001731,0.04,-0.31,9.80,35.12,0.023436,0.033024,-0.002131
27911869,0.002376,0.001018,0.000400,0.02,-0.30,9.81,35.16,0.023436,0.035154,0.000000
27912875,0.001311,-0.000047,0.001465,0.01,-0.29,9.83,35.16,0.024501,0.034089,0.001065
27913884,0.000246,-0.001112,0.001465,0.00,-0.29,9.86,35.11,0.025567,0.033024,0.001065
27914895,0.000246,-0.001112,0.002531,0.01,-0.30,9.82,35.13,0.025567,0.033024,0.002131
27915911,-0.000819,-0.000047,0.000400,0.01,-0.33,9.82,35.13,0.024501,0.031958,0.000000
27916915,-0.000819,0.001018,-0.000665,0.01,-0.30,9.81,35.13,0.023436,0.031958,-0.001065
27917924,0.000246,0.001018,-0.001731,0.01,-0.28,9.83,35.13,0.023436,0.033024,-0.002131
27918935,0.000246,-0.000047,-0.002796,0.02,-0.26,9.87,35.17,0.024501,0.033024,-0.003196
27919944,-0.000819,-0.000047,-0.003861,0.02,-0.29,9.84,35.15,0.024501,0.031958,-0.004261
27920967,-0.000819,-0.001112,-0.002796,0.01,-0.30,9.85,35.17,0.025567,0.031958,-0.003196
27921977,-0.000819,-0.001112,-0.000665,0.01,-0.24,9.85,35.16,0.025567,0.031958,-0.001065
27922980,0.001311,-0.001112,0.001465,0.03,-0.24,9.85,35.13,0.025567,0.034089,0.001065
27923989,0.002376,-0.000047,0.001465,0.03,-0.28,9.82,35.12,0.024501,0.035154,0.001065
27925002,0.001311,0.001018,0.000400,0.03,-0.29,9.80,35.17,0.023436,0.034089,0.000000
27926022,0.000246,0.002084,0.001465,0.08,-0.28,9.84,35.16,0.022371,0.033024,0.001065
27927024,-0.000819,0.002084,0.002531,0.06,-0.28,9.83,35.18,0.022371,0.031958,0.002131
27928035,0.000246,0.002084,0.002531,0.03,-0.30,9.81,35.16,0.022371,0.033024,0.002131
27929041,0.001311,-0.000047,0.002531,0.04,-0.32,9.82,35.17,0.024501,0.034089,0.002131
27930071,0.001311,-0.002178,0.003596,0.04,-0.32,9.79,35.14,0.026632,0.034089,0.003196
27931077,0.000246,-0.002178,0.002531,0.01,-0.32,9.81,35.12,0.026632,0.033024,0.002131
27932085,-0.000819,-0.001112,0.002531,-0.02,-0.34,9.81,35.17,0.025567,0.031958,0.002131
27933091,0.000246,-0.000047,0.003596,-0.02,-0.35,9.82,35.13,0.024501,0.033024,0.003196
27934090,0.000246,0.001018,0.003596,0.00,-0.33,9.82,35.10,0.023436,0.033024,0.003196
27935108,-0.000819,0.001018,0.002531,0.05,-0.29,9.84,35.13,0.023436,0.031958,0.002131
27936152,-0.001885,-0.000047,0.000400,0.03,-0.28,9.84,35.10,0.024501,0.030893,0.000000
27937126,0.000246,-0.000047,-0.000665,0.00,-0.27,9.80,35.11,0.024501,0.033024,-0.001065
27938132,0.000246,-0.000047,0.000400,-0.03,-0.28,9.79,35.13,0.024501,0.033024,0.000000
27939144,-0.000819,-0.001112,0.000400,-0.02,-0.32,9.82,35.14,0.025567,0.031958,0.000000
27940147,-0.000819,-0.000047,-0.001731,0.02,-0.32,9.85,35.14,0.024501,0.031958,-0.002131
27941167,-0.000819,-0.000047,-0.002796,0.02,-0.30,9.81,35.13,0.024501,0.031958,-0.003196
27942177,0.001311,-0.000047,-0.002796,0.03,-0.28,9.79,35.14,0.024501,0.034089,-0.003196
27943185,0.000246,-0.000047,0.000400,0.04,-0.29,9.81,35.12,0.024501,0.033024,0.000000
27944188,0.000246,-0.000047,0.002531,0.05,-0.30,9.81,35.13,0.024501,0.033024,0.002131
27945199,0.001311,0.001018,0.001465,0.03,-0.33,9.77,35.10,0.023436,0.034089,0.001065
27946217,0.001311,0.002084,0.000400,0.00,-0.31,9.77,35.09,0.022371,0.034089,0.000000
27947217,0.000246,0.001018,-0.001731,0.04,-0.29,9.83,35.11,0.023436,0.033024,-0.002131
27948224,0.000246,-0.000047,-0.003861,0.04,-0.32,9.83,35.11,0.024501,0.033024,-0.004261
27949235,0.000246,-0.000047,-0.004926,0.02,-0.33,9.81,35.15,0.024501,0.033024,-0.005326
27950244,0.001311,0.001018,-0.002796,0.02,-0.32,9.82,35.15,0.023436,0.034089,-0.003196
27951263,0.000246,0.003149,-0.001731,0.02,-0.32,9.82,35.10,0.021306,0.033024,-0.002131
27952269,-0.001885,0.002084,-0.001731,0.01,-0.32,9.80,35.10,0.022371,0.030893,-0.002131
27953275,-0.002950,0.001018,-0.001731,0.03,-0.30,9.79,35.14,0.023436,0.029828,-0.002131
27954284,-0.002950,0.001018,-0.000665,0.04,-0.29,9.78,35.12,0.023436,0.029828,-0.001065
27955295,-0.000819,0.002084,0.000400,0.02,-0.27,9.84,35.13,0.022371,0.031958,0.000000
27956311,-0.000819,0.002084,0.000400,0.02,-0.26,9.84,35.15,0.022371,0.031958,0.000000
27957315,-0.001885,0.001018,-0.000665,0.02,-0.27,9.81,35.17,0.023436,0.030893,-0.001065
27958324,-0.001885,-0.002178,-0.000665,0.02,-0.30,9.83,35.13,0.026632,0.030893,-0.001065
27959335,0.000246,-0.004308,-0.000665,0.03,-0.30,9.80,35.11,0.028763,0.033024,-0.001065
27960344,0.000246,-0.002178,-0.001731,0.03,-0.31,9.83,35.08,0.026632,0.033024,-0.002131
27961363,-0.000819,0.002084,0.001465,0.01,-0.30,9.75,35.13,0.022371,0.031958,0.001065
27962373,-0.001885,0.002084,0.001465,0.01,-0.29,9.79,35.17,0.022371,0.030893,0.001065
27963375,-0.002950,0.002084,0.001465,0.00,-0.29,9.83,35.19,0.022371,0.029828,0.001065
27964384,-0.001885,0.002084,0.002531,0.01,-0.29,9.87,35.15,0.022371,0.030893,0.002131
27965395,0.000246,0.004214,0.003596,0.02,-0.28,9.89,35.12,0.020240,0.033024,0.003196
27966413,0.001311,0.003149,0.003596,0.04,-0.28,9.82,35.11,0.021306,0.034089,0.003196
27967415,0.001311,0.001018,0.001465,0.03,-0.28,9.76,35.10,0.023436,0.034089,0.001065
27968424,0.001311,-0.000047,-0.000665,0.02,-0.28,9.77,35.12,0.024501,0.034089,-0.001065
27969435,0.002376,-0.000047,-0.001731,0.02,-0.30,9.78,35.14,0.024501,0.035154,-0.002131
27970444,0.002376,-0.000047,-0.001731,0.01,-0.30,9.82,35.14,0.024501,0.035154,-0.002131
27971463,-0.000819,0.001018,0.000400,0.01,-0.29,9.83,35.12,0.023436,0.031958,0.000000
27972469,-0.001885,0.003149,0.000400,0.01,-0.28,9.80,35.09,0.021306,0.030893,0.000000
27973475,-0.001885,0.004214,0.000400,0.00,-0.28,9.82,35.14,0.020240,0.030893,0.000000
27974484,-0.000819,0.002084,0.001465,-0.01,-0.30,9.82,35.18,0.022371,0.031958,0.001065
27975495,-0.000819,-0.001112,0.001465,0.01,-0.30,9.78,35.15,0.025567,0.031958,0.001065
27976511,-0.000819,-0.003243,0.001465,0.04,-0.31,9.79,35.14,0.027697,0.031958,0.001065
27977515,-0.000819,-0.004308,0.000400,0.04,-0.33,9.79,35.15,0.028763,0.031958,0.000000
27978524,0.001311,-0.004308,-0.000665,0.03,-0.32,9.77,35.13,0.028763,0.034089,-0.001065
27979535,0.002376,0.001018,0.000400,0.03,-0.28,9.83,35.14,0.023436,0.035154,0.000000
27980544,0.002376,0.003149,0.001465,0.02,-0.29,9.83,35.11,0.021306,0.035154,0.001065
27981563,0.001311,-0.000047,0.001465,0.01,-0.30,9.81,35.12,0.024501,0.034089,0.001065
27982573,0.001311,-0.002178,0.001465,0.02,-0.28,9.83,35.12,0.026632,0.034089,0.001065
27983575,0.000246,-0.002178,0.000400,0.01,-0.29,9.83,35.10,0.026632,0.033024,0.000000
27984584,0.000246,-0.001112,0.000400,0.01,-0.31,9.83,35.13,0.025567,0.033024,0.000000
27985595,0.000246,0.001018,-0.000665,-0.02,-0.30,9.82,35.15,0.023436,0.033024,-0.001065
27986613,0.000246,0.002084,-0.000665,-0.02,-0.30,9.78,35.15,0.022371,0.033024,-0.001065
27987615,0.001311,0.003149,-0.000665,0.02,-0.28,9.79,35.15,0.021306,0.034089,-0.001065
27988624,0.003442,0.003149,-0.000665,0.01,-0.29,9.80,35.15,0.021306,0.036220,-0.001065
27989635,0.003442,0.002084,-0.000665,-0.01,-0.31,9.76,35.17,0.022371,0.036220,-0.001065
27990644,0.002376,0.001018,-0.001731,0.00,-0.29,9.77,35.15,0.023436,0.035154,-0.002131
27991669,0.002376,-0.001112,-0.002796,0.00,-0.29,9.82,35.11,0.025567,0.035154,-0.003196
27992664,0.002376,-0.002178,-0.001731,-0.02,-0.31,9.85,35.10,0.026632,0.035154,-0.002131
27993675,0.000246,-0.002178,-0.000665,0.01,-0.30,9.77,35.13,0.026632,0.033024,-0.001065
27994684,-0.000819,-0.001112,0.000400,0.03,-0.31,9.74,35.10,0.025567,0.031958,0.000000
27995695,-0.001885,-0.001112,0.000400,0.02,-0.31,9.83,35.14,0.025567,0.030893,0.000000
27996711,-0.000819,-0.001112,0.000400,0.02,-0.27,9.89,35.14,0.025567,0.031958,0.000000
27997715,0.000246,0.001018,-0.000665,0.04,-0.28,9.82,35.14,0.023436,0.033024,-0.001065
27998724,0.000246,0.003149,-0.000665,0.06,-0.28,9.78,35.16,0.021306,0.033024,-0.001065
27999735,0.000246,0.003149,-0.000665,0.05,-0.24,9.81,35.15,0.021306,0.033024,-0.001065
28000744,-0.001885,-0.001112,0.000400,0.04,-0.26,9.80,35.11,0.025567,0.030893,0.000000
28001770,-0.001885,-0.003243,0.000400,0.02,-0.29,9.79,35.10,0.027697,0.030893,0.000000
28002764,-0.000819,-0.003243,0.001465,0.00,-0.28,9.79,35.11,0.027697,0.031958,0.001065
28003775,0.000246,-0.003243,0.004661,0.00,-0.30,9.78,35.12,0.027697,0.033024,0.004261
28004784,0.001311,-0.004308,0.002531,0.02,-0.29,9.79,35.17,0.028763,0.034089,0.002131
28005795,0.003442,-0.003243,0.000400,0.03,-0.27,9.84,35.16,0.027697,0.036220,0.000000
28006813,0.004507,-0.002178,0.000400,0.01,-0.29,9.82,35.16,0.026632,0.037285,0.000000
28007815,0.001311,-0.001112,0.001465,0.03,-0.31,9.81,35.13,0.025567,0.034089,0.001065
28008824,-0.001885,-0.001112,0.003596,0.03,-0.31,9.82,35.13,0.025567,0.030893,0.003196
28009835,-0.001885,-0.001112,0.004661,0.02,-0.28,9.82,35.15,0.025567,0.030893,0.004261
28010844,0.001311,-0.003243,0.002531,0.02,-0.27,9.82,35.10,0.027697,0.034089,0.002131
28011869,0.004507,-0.004308,0.001465,0.02,-0.27,9.82,35.10,0.028763,0.037285,0.001065
28012864,0.004507,-0.002178,-0.000665,0.02,-0.28,9.82,35.14,0.026632,0.037285,-0.001065
28013875,0.004507,-0.001112,-0.000665,0.00,-0.28,9.78,35.09,0.025567,0.037285,-0.001065
28014884,0.001311,-0.001112,-0.001731,0.01,-0.29,9.80,35.10,0.025567,0.034089,-0.002131
28015895,-0.002950,-0.000047,-0.001731,-0.01,-0.29,9.81,35.13,0.024501,0.029828,-0.002131
28016911,-0.005081,-0.000047,-0.000665,0.02,-0.28,9.83,35.12,0.024501,0.027697,-0.001065
28017915,-0.002950,-0.000047,0.000400,0.04,-0.29,9.82,35.10,0.024501,0.029828,0.000000
28018924,0.001311,0.001018,0.001465,0.02,-0.26,9.79,35.10,0.023436,0.034089,0.001065
28019935,0.002376,0.001018,0.000400,0.03,-0.25,9.84,35.11,0.023436,0.035154,0.000000
28020944,0.001311,0.001018,-0.001731,0.04,-0.28,9.86,35.13,0.023436,0.034089,-0.002131
28021971,0.000246,-0.001112,-0.003861,0.01,-0.30,9.83,35.13,0.025567,0.033024,-0.004261
28022994,-0.001923,-0.002140,-0.004937,0.02,-0.29,9.79,35.15,0.026632,0.030893,-0.005326
28023977,-0.002989,-0.002140,-0.001742,0.02,-0.29,9.80,35.14,0.026632,0.029828,-0.002131
28024990,-0.000858,-0.001075,0.001454,0.02,-0.29,9.83,35.11,0.025567,0.031958,0.001065
28026003,0.002338,0.002121,0.001454,0.02,-0.28,9.80,35.10,0.022371,0.035154,0.001065
28027024,0.005534,0.002121,-0.000676,0.01,-0.30,9.75,35.09,0.022371,0.038350,-0.001065
28028027,0.005534,0.002121,-0.002807,0.04,-0.28,9.78,35.13,0.022371,0.038350,-0.003196
28029035,0.002338,0.001056,-0.001742,0.02,-0.28,9.80,35.12,0.023436,0.035154,-0.002131
28030045,0.001273,-0.002140,-0.002807,0.00,-0.31,9.79,35.14,0.026632,0.034089,-0.003196
28031060,0.000207,-0.002140,-0.003872,-0.01,-0.30,9.82,35.15,0.026632,0.033024,-0.004261
28032090,0.000207,-0.000009,-0.000676,-0.04,-0.29,9.80,35.14,0.024501,0.033024,-0.001065
28033078,0.002338,0.003187,0.002519,-0.03,-0.30,9.77,35.15,0.021306,0.035154,0.002131
28034086,0.003403,0.002121,0.002519,0.00,-0.28,9.78,35.11,0.022371,0.036220,0.002131
28035097,0.002338,-0.001075,0.000389,0.00,-0.27,9.82,35.11,0.025567,0.035154,0.000000
28036105,-0.001923,-0.003205,-0.000676,0.02,-0.31,9.83,35.10,0.027697,0.030893,-0.001065
28037118,-0.004054,-0.001075,0.000389,0.01,-0.33,9.82,35.13,0.025567,0.028763,0.000000
28038148,-0.002989,-0.001075,0.003585,-0.02,-0.29,9.82,35.13,0.025567,0.029828,0.003196
28039145,-0.000858,-0.002140,0.003585,-0.01,-0.31,9.81,35.12,0.026632,0.031958,0.003196
28040142,-0.001923,-0.002140,0.001454,0.00,-0.30,9.82,35.14,0.026632,0.030893,0.001065
28041153,-0.000858,-0.002140,-0.000676,0.03,-0.28,9.83,35.18,0.026632,0.031958,-0.001065
28042174,-0.000858,-0.001075,-0.001742,0.04,-0.33,9.83,35.16,0.025567,0.031958,-0.002131
28043173,-0.001923,-0.000009,0.000389,0.04,-0.32,9.77,35.16,0.024501,0.030893,0.000000
28044175,-0.005119,-0.000009,0.003585,0.02,-0.28,9.73,35.17,0.024501,0.027697,0.003196
28045188,-0.002989,-0.001075,0.002519,0.02,-0.30,9.79,35.16,0.025567,0.029828,0.002131
28046199,0.000207,-0.002140,0.000389,0.00,-0.31,9.82,35.15,0.026632,0.033024,0.000000
28047230,0.002338,-0.000009,0.000389,0.00,-0.29,9.81,35.14,0.024501,0.035154,0.000000
28048216,0.001273,0.001056,0.001454,0.04,-0.32,9.84,35.09,0.023436,0.034089,0.001065
28049222,0.000207,0.001056,-0.000676,0.05,-0.33,9.85,35.06,0.023436,0.033024,-0.001065
28050234,-0.000858,0.002121,-0.001742,0.05,-0.31,9.89,35.08,0.022371,0.031958,-0.002131
28051242,-0.000858,-0.001075,0.000389,0.01,-0.29,9.85,35.11,0.025567,0.031958,0.000000
28052270,0.000207,-0.004270,0.002519,0.00,-0.28,9.81,35.16,0.028763,0.033024,0.002131
28053262,0.001273,-0.004270,0.002519,0.00,-0.29,9.80,35.16,0.028763,0.034089,0.002131
28054274,0.000207,-0.002140,0.003585,0.00,-0.27,9.80,35.17,0.026632,0.033024,0.003196
28055282,0.000207,0.001056,0.003585,0.02,-0.27,9.82,35.13,0.023436,0.033024,0.003196
28056294,0.000207,-0.000009,0.002519,0.03,-0.30,9.80,35.15,0.024501,0.033024,0.002131
28057325,0.001273,-0.003205,0.000389,0.01,-0.29,9.81,35.10,0.027697,0.034089,0.000000
28058315,0.003403,-0.004270,0.000389,-0.02,-0.31,9.83,35.13,0.028763,0.036220,0.000000
28059324,0.002338,-0.003205,0.000389,0.02,-0.33,9.83,35.11,0.027697,0.035154,0.000000
28060335,-0.000858,-0.002140,0.001454,0.04,-0.30,9.86,35.08,0.026632,0.031958,0.001065
28061344,-0.000858,-0.001075,0.002519,0.03,-0.28,9.82,35.07,0.025567,0.031958,0.002131
28062374,-0.000858,-0.001075,0.000389,0.02,-0.28,9.80,35.07,0.025567,0.031958,0.000000
28063364,-0.004054,0.001056,0.000389,0.02,-0.30,9.76,35.13,0.023436,0.028763,0.000000
28064375,-0.006184,-0.000009,-0.001742,0.01,-0.29,9.81,35.13,0.024501,0.026632,-0.002131
28065384,-0.001923,0.001056,-0.002807,0.00,-0.28,9.86,35.13,0.023436,0.030893,-0.003196
28066395,0.002338,0.002121,-0.001742,0.03,-0.33,9.85,35.15,0.022371,0.035154,-0.002131
28067426,0.004468,0.001056,0.000389,0.04,-0.35,9.84,35.15,0.023436,0.037285,0.000000
28068414,0.005534,-0.002140,0.002519,0.02,-0.32,9.83,35.13,0.026632,0.038350,0.002131
28069422,0.003403,-0.002140,0.002519,0.01,-0.31,9.76,35.12,0.026632,0.036220,0.002131
28070434,0.000207,-0.002140,0.000389,-0.01,-0.29,9.74,35.07,0.026632,0.033024,0.000000
28071442,-0.002989,-0.004270,-0.000676,-0.02,-0.27,9.79,35.13,0.028763,0.029828,-0.001065
28072471,-0.002989,-0.004270,-0.001742,0.00,-0.28,9.80,35.09,0.028763,0.029828,-0.002131
28073462,0.001273,-0.001075,-0.000676,0.03,-0.30,9.79,35.10,0.025567,0.034089,-0.001065
28074474,0.002338,0.001056,0.000389,0.04,-0.29,9.83,35.13,0.023436,0.035154,0.000000
28075482,0.000207,-0.001075,0.000389,0.04,-0.25,9.84,35.17,0.025567,0.033024,0.000000
28076494,-0.001923,-0.002140,0.000389,0.02,-0.26,9.80,35.14,0.026632,0.030893,0.000000
28077525,-0.001923,-0.003205,0.000389,0.01,-0.30,9.78,35.13,0.027697,0.030893,0.000000
28078515,0.001273,-0.003205,0.000389,0.02,-0.31,9.83,35.10,0.027697,0.034089,0.000000
28079524,0.002338,-0.002140,0.001454,-0.02,-0.32,9.85,35.08,0.026632,0.035154,0.001065
28080535,0.001273,-0.000009,0.003585,-0.03,-0.30,9.81,35.08,0.024501,0.034089,0.003196
28081544,-0.001923,0.002121,0.004650,0.02,-0.28,9.79,35.12,0.022371,0.030893,0.004261
28082574,-0.004054,-0.000009,0.003585,0.02,-0.31,9.79,35.13,0.024501,0.028763,0.003196
28083564,-0.002989,-0.002140,0.002519,0.00,-0.33,9.81,35.13,0.026632,0.029828,0.002131
28084575,-0.001923,-0.003205,0.001454,0.01,-0.31,9.80,35.16,0.027697,0.030893,0.001065
28085584,-0.000858,-0.003205,0.001454,0.00,-0.30,9.78,35.14,0.027697,0.031958,0.001065
28086595,0.000207,-0.002140,0.000389,-0.02,-0.31,9.80,35.15,0.026632,0.033024,0.000000
28087626,0.000207,-0.001075,-0.001742,0.02,-0.31,9.84,35.15,0.025567,0.033024,-0.002131
28088614,0.001273,0.002121,-0.001742,0.04,-0.30,9.83,35.16,0.022371,0.034089,-0.002131
28089622,0.003403,0.002121,-0.000676,0.03,-0.29,9.77,35.13,0.022371,0.036220,-0.001065
28090634,0.001273,0.001056,0.001454,0.01,-0.30,9.75,35.14,0.023436,0.034089,0.001065
28091653,-0.000858,0.002121,0.001454,-0.02,-0.30,9.77,35.13,0.022371,0.031958,0.001065
28092663,-0.000858,-0.001075,-0.000676,0.00,-0.27,9.77,35.14,0.025567,0.031958,-0.001065
28093662,0.001273,-0.004270,-0.001742,0.02,-0.25,9.81,35.11,0.028763,0.034089,-0.002131
28094674,0.001273,-0.003205,-0.000676,0.01,-0.30,9.84,35.11,0.027697,0.034089,-0.001065
28095682,-0.000858,-0.003205,0.001454,-0.01,-0.31,9.81,35.14,0.027697,0.031958,0.001065
28096694,-0.001923,-0.003205,0.002519,-0.01,-0.29,9.79,35.12,0.027697,0.030893,0.002131
28097724,-0.000858,-0.002140,0.001454,0.00,-0.31,9.80,35.08,0.026632,0.031958,0.001065
28098715,0.001273,-0.000009,0.000389,0.01,-0.34,9.82,35.11,0.024501,0.034089,0.000000
28099724,0.001273,-0.000009,-0.000676,0.03,-0.31,9.81,35.08,0.024501,0.034089,-0.001065
28100735,0.001273,-0.000009,-0.000676,0.02,-0.30,9.81,35.10,0.024501,0.034089,-0.001065
28101755,0.000207,-0.001075,-0.000676,0.02,-0.32,9.85,35.11,0.025567,0.033024,-0.001065
28102764,-0.000858,-0.001075,0.000389,0.00,-0.33,9.84,35.15,0.025567,0.031958,0.000000
28103764,-0.000858,-0.001075,0.001454,-0.02,-0.34,9.79,35.18,0.025567,0.031958,0.001065
28104775,0.000207,-0.002140,0.001454,-0.01,-0.33,9.77,35.16,0.026632,0.033024,0.001065
28105784,-0.000858,-0.003205,-0.000676,0.00,-0.29,9.78,35.15,0.027697,0.031958,-0.001065
28106795,-0.004054,-0.002140,-0.000676,0.02,-0.28,9.79,35.16,0.026632,0.028763,-0.001065
28107825,-0.002989,-0.002140,-0.000676,0.03,-0.31,9.77,35.13,0.026632,0.029828,-0.001065
28108814,0.001273,-0.001075,-0.000676,0.02,-0.31,9.77,35.15,0.025567,0.034089,-0.001065
28109822,0.003403,-0.000009,-0.000676,0.04,-0.30,9.82,35.19,0.024501,0.036220,-0.001065
28110834,0.000207,0.001056,0.000389,0.03,-0.32,9.88,35.21,0.023436,0.033024,0.000000
28111853,-0.001923,0.001056,0.000389,0.04,-0.30,9.87,35.13,0.023436,0.030893,0.000000
28112863,-0.001923,-0.001075,0.000389,0.05,-0.32,9.80,35.12,0.025567,0.030893,0.000000
28113862,-0.001923,-0.002140,-0.000676,0.02,-0.31,9.78,35.12,0.026632,0.030893,-0.001065
28114874,-0.000858,-0.000009,-0.000676,-0.01,-0.27,9.82,35.13,0.024501,0.031958,-0.001065
28115882,0.000207,-0.000009,0.000389,-0.01,-0.30,9.80,35.15,0.024501,0.033024,0.000000
28116910,0.001273,-0.003205,0.001454,0.00,-0.29,9.83,35.12,0.027697,0.034089,0.001065
28117910,0.001273,-0.005336,0.000389,-0.02,-0.28,9.91,35.10,0.029828,0.034089,0.000000
28118915,0.001273,-0.003205,-0.000676,-0.01,-0.31,9.87,35.15,0.027697,0.034089,-0.001065
28119924,0.000207,0.001056,0.001454,0.01,-0.29,9.83,35.21,0.023436,0.033024,0.001065
28120935,0.000207,0.002121,0.002519,-0.01,-0.27,9.86,35.19,0.022371,0.033024,0.002131
28121956,0.000207,0.003187,0.002519,0.02,-0.28,9.86,35.15,0.021306,0.033024,0.002131
28122970,-0.001923,0.004252,0.000389,0.03,-0.31,9.82,35.12,0.020240,0.030893,0.000000
28123967,-0.001923,0.003187,-0.000676,-0.01,-0.29,9.82,35.14,0.021306,0.030893,-0.001065
28124976,0.000207,0.001056,0.001454,-0.02,-0.29,9.82,35.16,0.023436,0.033024,0.001065
28125988,0.002338,-0.000009,0.002519,0.01,-0.31,9.82,35.16,0.024501,0.035154,0.002131
28127023,0.003403,-0.002140,0.000389,0.03,-0.29,9.81,35.12,0.026632,0.036220,0.000000
28128021,0.000207,-0.001075,-0.001742,0.04,-0.28,9.76,35.10,0.025567,0.033024,-0.002131
28129026,-0.002989,-0.000009,-0.002807,0.02,-0.28,9.72,35.15,0.024501,0.029828,-0.003196
28130030,-0.001923,0.001056,-0.001742,0.02,-0.30,9.78,35.14,0.023436,0.030893,-0.002131
28131043,-0.000858,0.002121,-0.000676,0.03,-0.29,9.84,35.12,0.022371,0.031958,-0.001065
28132065,0.000207,0.001056,0.000389,-0.02,-0.28,9.86,35.12,0.023436,0.033024,0.000000
28133081,0.000207,-0.000009,0.000389,0.00,-0.33,9.88,35.16,0.024501,0.033024,0.000000
28134080,-0.000858,-0.001075,0.000389,0.04,-0.32,9.88,35.18,0.025567,0.031958,0.000000
28135097,0.000207,-0.000009,-0.000676,0.01,-0.29,9.84,35.19,0.024501,0.033024,-0.001065
28136091,0.001273,0.001056,-0.001742,0.02,-0.29,9.82,35.14,0.023436,0.034089,-0.002131
28137120,0.002338,0.001056,-0.002807,0.02,-0.27,9.82,35.12,0.023436,0.035154,-0.003196
28138118,0.001273,-0.000009,-0.001742,0.00,-0.28,9.87,35.15,0.024501,0.034089,-0.002131
28139122,0.001273,-0.000009,0.002519,0.02,-0.31,9.84,35.14,0.024501,0.034089,0.002131
28140132,0.000207,-0.001075,0.003585,-0.01,-0.31,9.82,35.12,0.025567,0.033024,0.003196
28141160,-0.001923,-0.002140,0.001454,0.01,-0.30,9.84,35.13,0.026632,0.030893,0.001065
28142161,-0.001923,-0.001075,-0.000676,0.02,-0.29,9.81,35.19,0.025567,0.030893,-0.001065
28143214,-0.000858,-0.001075,-0.000676,0.03,-0.28,9.81,35.18,0.025567,0.031958,-0.001065
28144195,-0.000858,-0.001075,0.000389,0.04,-0.30,9.83,35.15,0.025567,0.031958,0.000000
28145206,-0.002989,-0.000009,0.003585,0.03,-0.28,9.82,35.16,0.024501,0.029828,0.003196
28146188,-0.002989,0.001056,0.003585,0.03,-0.26,9.77,35.14,0.023436,0.029828,0.003196
28147211,-0.000858,0.002121,0.001454,0.02,-0.28,9.80,35.11,0.022371,0.031958,0.001065
28148214,0.002338,0.003187,-0.000676,0.03,-0.29,9.84,35.14,0.021306,0.035154,-0.001065
28149216,0.002338,0.002121,-0.000676,0.01,-0.28,9.84,35.16,0.022371,0.035154,-0.001065
28150222,-0.000858,-0.000009,0.001454,-0.01,-0.26,9.81,35.13,0.024501,0.031958,0.001065
28151234,-0.001923,-0.002140,0.000389,0.00,-0.26,9.78,35.13,0.026632,0.030893,0.000000
28152279,0.001280,-0.000994,-0.000731,0.03,-0.29,9.80,35.17,0.025567,0.034089,-0.001065
28153263,0.002345,-0.000994,-0.002862,0.05,-0.32,9.85,35.13,0.025567,0.035154,-0.003196
28154262,0.000214,0.000071,-0.002862,0.04,-0.31,9.85,35.13,0.024501,0.033024,-0.003196
28155274,-0.001916,-0.000994,-0.002862,0.04,-0.29,9.80,35.17,0.025567,0.030893,-0.003196
28156282,-0.001916,-0.002060,-0.002862,0.04,-0.31,9.80,35.13,0.026632,0.030893,-0.003196
28157310,-0.000851,-0.002060,-0.001796,0.01,-0.31,9.82,35.11,0.026632,0.031958,-0.002131
28158310,0.000214,-0.000994,0.000334,0.01,-0.30,9.81,35.12,0.025567,0.033024,0.000000
28159315,0.001280,0.001136,-0.000731,0.03,-0.29,9.78,35.13,0.023436,0.034089,-0.001065
28160324,0.002345,0.001136,-0.000731,0.02,-0.28,9.82,35.13,0.023436,0.035154,-0.001065
28161335,0.004476,-0.000994,0.000334,-0.02,-0.29,9.86,35.11,0.025567,0.037285,0.000000
28162354,0.004476,-0.000994,-0.000731,-0.04,-0.30,9.84,35.10,0.025567,0.037285,-0.001065
28163364,0.004476,-0.002060,-0.001796,-0.03,-0.27,9.81,35.10,0.026632,0.037285,-0.002131
28164364,0.001280,0.000071,-0.002862,0.02,-0.31,9.86,35.13,0.024501,0.034089,-0.003196
28165375,0.000214,0.001136,0.000334,0.02,-0.28,9.82,35.11,0.023436,0.033024,0.000000
28166384,0.000214,0.001136,0.002465,0.00,-0.25,9.78,35.16,0.023436,0.033024,0.002131
28167409,0.000214,0.000071,0.001399,-0.01,-0.24,9.76,35.16,0.024501,0.033024,0.001065
28168411,0.001280,0.000071,-0.000731,-0.02,-0.26,9.77,35.14,0.024501,0.034089,-0.001065
28169414,0.001280,0.002202,-0.001796,0.01,-0.29,9.78,35.13,0.022371,0.034089,-0.002131
28170422,0.001280,-0.000994,-0.000731,0.03,-0.27,9.78,35.13,0.025567,0.034089,-0.001065
28171434,0.001280,-0.000994,-0.000731,0.02,-0.26,9.76,35.13,0.025567,0.034089,-0.001065
28172452,0.002345,0.000071,-0.001796,0.03,-0.28,9.77,35.09,0.024501,0.035154,-0.002131
28173463,0.002345,0.002202,-0.000731,0.04,-0.28,9.82,35.09,0.022371,0.035154,-0.001065
28174462,0.001280,0.001136,0.000334,0.01,-0.27,9.83,35.12,0.023436,0.034089,0.000000
28175474,0.000214,0.000071,0.000334,-0.02,-0.28,9.82,35.13,0.024501,0.033024,0.000000
28176482,0.000214,0.000071,-0.002862,-0.01,-0.34,9.77,35.13,0.024501,0.033024,-0.003196
28177510,0.000214,0.000071,-0.003927,-0.01,-0.35,9.80,35.14,0.024501,0.033024,-0.004261
28178510,-0.000851,0.000071,-0.000731,-0.01,-0.31,9.80,35.18,0.024501,0.031958,-0.001065
28179515,-0.000851,0.000071,0.002465,0.03,-0.27,9.78,35.15,0.024501,0.031958,0.002131
28180524,0.000214,0.000071,0.003530,0.00,-0.28,9.84,35.13,0.024501,0.033024,0.003196
28181535,0.000214,0.000071,0.002465,-0.02,-0.32,9.85,35.15,0.024501,0.033024,0.002131
28182554,0.001280,0.000071,0.001399,0.00,-0.33,9.82,35.15,0.024501,0.034089,0.001065
28183564,0.002345,0.000071,0.001399,0.00,-0.30,9.83,35.10,0.024501,0.035154,0.001065
28184564,0.001280,0.000071,-0.000731,-0.03,-0.27,9.85,35.15,0.024501,0.034089,-0.001065
28185575,-0.001916,0.000071,-0.001796,-0.03,-0.28,9.85,35.16,0.024501,0.030893,-0.002131
28186584,-0.001916,0.000071,-0.000731,0.01,-0.31,9.82,35.15,0.024501,0.030893,-0.001065
28187609,-0.002981,-0.000994,-0.000731,0.05,-0.31,9.77,35.14,0.025567,0.029828,-0.001065
28188611,-0.002981,-0.000994,-0.001796,0.04,-0.30,9.80,35.15,0.025567,0.029828,-0.002131
28189614,-0.000851,-0.002060,-0.003927,0.00,-0.32,9.82,35.14,0.026632,0.031958,-0.004261
28190622,-0.000851,-0.004190,-0.001796,0.03,-0.32,9.81,35.08,0.028763,0.031958,-0.002131
28191643,0.000214,-0.002060,-0.000731,0.03,-0.32,9.80,35.06,0.026632,0.033024,-0.001065
28192642,0.000214,-0.000994,-0.001796,0.01,-0.29,9.83,35.12,0.025567,0.033024,-0.002131
28193663,-0.000851,-0.000994,-0.002862,0.02,-0.28,9.78,35.12,0.025567,0.031958,-0.003196
28194662,-0.000851,-0.000994,-0.000731,0.03,-0.29,9.75,35.14,0.025567,0.031958,-0.001065
28195674,-0.000851,0.000071,0.002465,0.03,-0.30,9.76,35.12,0.024501,0.031958,0.002131
28196682,-0.000851,0.000071,0.002465,0.01,-0.32,9.79,35.13,0.024501,0.031958,0.002131
28197710,-0.001916,0.000071,0.000334,0.00,-0.33,9.81,35.13,0.024501,0.030893,0.000000
28198710,-0.001916,0.000071,-0.000731,-0.02,-0.28,9.81,35.15,0.024501,0.030893,-0.001065
28199715,-0.000851,-0.000994,-0.000731,0.01,-0.26,9.81,35.12,0.025567,0.031958,-0.001065
28200724,0.002345,-0.002060,0.001399,0.03,-0.27,9.81,35.09,0.026632,0.035154,0.001065
28201747,0.002345,-0.000994,0.003530,0.01,-0.30,9.79,35.13,0.025567,0.035154,0.003196
28202744,0.000214,-0.000994,0.002465,0.01,-0.29,9.78,35.14,0.025567,0.033024,0.002131
28203764,0.000214,-0.000994,0.002465,0.04,-0.27,9.81,35.13,0.025567,0.033024,0.002131
28204764,-0.000851,-0.000994,0.000334,0.03,-0.30,9.82,35.18,0.025567,0.031958,0.000000
28205775,0.001280,0.001136,-0.000731,0.01,-0.32,9.77,35.20,0.023436,0.034089,-0.001065
28206784,0.004476,0.002202,-0.000731,0.02,-0.29,9.78,35.15,0.022371,0.037285,-0.001065
28207795,0.004476,0.000071,0.001399,0.02,-0.31,9.84,35.13,0.024501,0.037285,0.001065
28208812,0.002345,-0.002060,0.001399,0.04,-0.34,9.81,35.13,0.026632,0.035154,0.001065
28209815,0.001280,-0.000994,0.002465,0.02,-0.34,9.79,35.13,0.025567,0.034089,0.002131
28210824,0.001280,-0.000994,0.001399,-0.01,-0.33,9.86,35.13,0.025567,0.034089,0.001065
28211843,0.001280,-0.000994,0.000334,0.00,-0.30,9.86,35.13,0.025567,0.034089,0.000000
28212844,0.002345,0.001136,-0.000731,-0.01,-0.29,9.81,35.13,0.023436,0.035154,-0.001065
28213864,0.001280,0.002202,-0.000731,0.00,-0.28,9.78,35.08,0.022371,0.034089,-0.001065
28214864,0.000214,0.002202,-0.000731,0.02,-0.29,9.79,35.09,0.022371,0.033024,-0.001065
28215875,0.000214,0.003267,-0.000731,0.01,-0.29,9.80,35.12,0.021306,0.033024,-0.001065
28216884,0.001280,0.003267,-0.000731,0.04,-0.28,9.81,35.13,0.021306,0.034089,-0.001065
28217895,0.002345,0.000071,0.000334,0.05,-0.28,9.82,35.13,0.024501,0.035154,0.000000
28218910,0.002345,-0.000994,0.000334,0.04,-0.29,9.78,35.16,0.025567,0.035154,0.000000
28219915,0.000214,-0.000994,0.000334,0.02,-0.29,9.75,35.15,0.025567,0.033024,0.000000
28220924,-0.001916,0.000071,0.000334,0.01,-0.26,9.77,35.12,0.024501,0.030893,0.000000
28221947,-0.001916,0.000071,0.000334,0.00,-0.25,9.82,35.11,0.024501,0.030893,0.000000
28222944,0.001280,0.001136,-0.000731,0.00,-0.28,9.85,35.11,0.023436,0.034089,-0.001065
28223967,0.001280,0.001136,-0.001796,0.03,-0.29,9.83,35.17,0.023436,0.034089,-0.002131
28224966,-0.001916,0.000071,-0.001796,0.05,-0.29,9.84,35.20,0.024501,0.030893,-0.002131
28225977,-0.001916,0.000071,-0.002862,0.04,-0.33,9.85,35.15,0.024501,0.030893,-0.003196
28226990,-0.001916,0.000071,-0.001796,0.03,-0.34,9.84,35.14,0.024501,0.030893,-0.002131
28228003,0.000214,0.001136,-0.000731,0.01,-0.30,9.82,35.12,0.023436,0.033024,-0.001065
28229025,0.002345,0.001136,-0.000731,0.00,-0.28,9.78,35.14,0.023436,0.035154,-0.001065
28230027,0.001280,-0.002060,0.000334,0.01,-0.32,9.77,35.13,0.026632,0.034089,0.000000
28231035,0.001280,-0.002060,-0.000731,0.01,-0.32,9.82,35.13,0.026632,0.034089,-0.001065
28232052,0.000214,-0.000994,-0.000731,0.02,-0.28,9.84,35.14,0.025567,0.033024,-0.001065
28233059,-0.000851,0.001136,0.000334,0.00,-0.31,9.80,35.15,0.023436,0.031958,0.000000
28234076,0.000214,0.003267,0.002465,0.00,-0.29,9.76,35.14,0.021306,0.033024,0.002131
28235077,0.000214,0.003267,0.003530,0.02,-0.26,9.80,35.14,0.021306,0.033024,0.003196
28236089,0.000214,0.000071,0.002465,0.02,-0.30,9.83,35.15,0.024501,0.033024,0.002131
28237106,0.000214,-0.002060,-0.000731,0.03,-0.30,9.85,35.10,0.026632,0.033024,-0.001065
28238105,0.001280,-0.000994,-0.001796,0.03,-0.29,9.82,35.11,0.025567,0.034089,-0.002131
28239116,0.001280,-0.002060,-0.003927,0.01,-0.29,9.84,35.12,0.026632,0.034089,-0.004261
28240122,0.001280,-0.002060,-0.002862,-0.01,-0.30,9.85,35.13,0.026632,0.034089,-0.003196
28241132,0.001280,0.000071,-0.000731,0.01,-0.31,9.76,35.17,0.024501,0.034089,-0.001065
28242154,0.001280,0.001136,0.001399,0.02,-0.29,9.79,35.14,0.023436,0.034089,0.001065
28243192,0.004476,0.001136,0.001399,0.04,-0.29,9.83,35.11,0.023436,0.037285,0.001065
28244175,0.004476,0.000071,0.001399,0.06,-0.32,9.82,35.11,0.024501,0.037285,0.001065
28245168,0.001280,-0.000994,0.002465,0.03,-0.32,9.83,35.12,0.025567,0.034089,0.002131
28246175,0.000214,-0.002060,0.002465,0.01,-0.31,9.83,35.09,0.026632,0.033024,0.002131
28247188,-0.000851,-0.003125,0.002465,0.01,-0.29,9.79,35.14,0.027697,0.031958,0.002131
28248199,-0.001916,-0.002060,0.001399,-0.01,-0.28,9.81,35.16,0.026632,0.030893,0.001065
28249207,-0.000851,0.000071,-0.000731,-0.01,-0.28,9.89,35.14,0.024501,0.031958,-0.001065
28250225,-0.000851,0.001136,-0.001796,0.03,-0.30,9.84,35.08,0.023436,0.031958,-0.002131
28251224,0.000214,0.000071,-0.002862,0.03,-0.28,9.78,35.08,0.024501,0.033024,-0.003196
28252244,0.001280,-0.000994,-0.001796,0.00,-0.28,9.76,35.12,0.025567,0.034089,-0.002131
28253244,0.000214,-0.003125,0.001399,-0.01,-0.30,9.78,35.12,0.027697,0.033024,0.001065
28254255,0.000214,-0.002060,0.002465,0.00,-0.31,9.81,35.13,0.026632,0.033024,0.002131
28255273,0.002345,-0.000994,0.001399,0.01,-0.31,9.77,35.12,0.025567,0.035154,0.001065
28256275,0.003410,-0.000994,0.002465,0.03,-0.30,9.80,35.09,0.025567,0.036220,0.002131
28257284,0.002345,0.000071,0.003530,0.04,-0.31,9.80,35.08,0.024501,0.035154,0.003196
28258295,-0.000851,0.000071,0.002465,0.04,-0.30,9.78,35.13,0.024501,0.031958,0.002131
28259304,-0.000851,-0.002060,0.002465,0.02,-0.30,9.78,35.18,0.026632,0.031958,0.002131
28260321,0.001280,-0.003125,0.000334,0.01,-0.33,9.77,35.16,0.027697,0.034089,0.000000
28261324,0.001280,-0.002060,0.000334,0.03,-0.31,9.82,35.10,0.026632,0.034089,0.000000
28262360,0.001280,0.000071,0.000334,0.03,-0.29,9.81,35.10,0.024501,0.034089,0.000000
28263344,0.003410,0.000071,0.000334,0.02,-0.29,9.82,35.12,0.024501,0.036220,0.000000
28264355,0.003410,-0.000994,-0.000731,0.01,-0.29,9.84,35.15,0.025567,0.036220,-0.001065
28265373,0.002345,-0.000994,0.000334,0.00,-0.30,9.85,35.13,0.025567,0.035154,0.000000
28266375,0.001280,0.001136,0.001399,0.02,-0.36,9.84,35.15,0.023436,0.034089,0.001065
28267384,0.000214,0.001136,-0.000731,0.01,-0.32,9.78,35.16,0.023436,0.033024,-0.001065
28268395,0.000214,0.002202,-0.000731,0.01,-0.31,9.82,35.13,0.022371,0.033024,-0.001065
28269404,0.002345,0.002202,-0.001796,0.04,-0.34,9.84,35.15,0.022371,0.035154,-0.002131
28270423,0.002345,0.002202,-0.001796,0.02,-0.28,9.82,35.16,0.022371,0.035154,-0.002131
28271424,0.002345,0.001136,-0.001796,0.02,-0.29,9.82,35.11,0.023436,0.035154,-0.002131
28272444,0.002345,0.000071,0.000334,0.03,-0.30,9.79,35.13,0.024501,0.035154,0.000000
28273444,0.002345,-0.000994,0.001399,0.01,-0.29,9.80,35.13,0.025567,0.035154,0.001065
28274455,0.002345,-0.003125,0.002465,0.02,-0.31,9.81,35.12,0.027697,0.035154,0.002131
28275473,0.001280,-0.003125,0.004595,0.03,-0.33,9.81,35.07,0.027697,0.034089,0.004261
28276475,-0.000851,-0.003125,0.003530,0.02,-0.30,9.80,35.07,0.027697,0.031958,0.003196
28277484,-0.000851,-0.000994,0.000334,0.02,-0.27,9.79,35.11,0.025567,0.031958,0.000000
28278495,0.002345,0.001136,-0.000731,0.04,-0.29,9.87,35.13,0.023436,0.035154,-0.001065
28279504,0.002345,0.000071,-0.000731,0.06,-0.30,9.87,35.11,0.024501,0.035154,-0.001065
28280521,-0.000851,-0.004190,-0.000731,0.05,-0.31,9.78,35.08,0.028763,0.031958,-0.001065
28281547,-0.000940,-0.006278,-0.001793,0.04,-0.33,9.77,35.11,0.030893,0.031958,-0.002131
28282544,-0.000940,-0.005213,-0.002858,0.06,-0.30,9.81,35.14,0.029828,0.031958,-0.003196
28283544,0.000125,-0.003082,-0.002858,0.03,-0.28,9.85,35.13,0.027697,0.033024,-0.003196
28284555,0.001191,0.002244,-0.001793,0.00,-0.31,9.86,35.10,0.022371,0.034089,-0.002131
28285573,0.001191,0.003309,-0.000727,0.00,-0.30,9.85,35.14,0.021306,0.034089,-0.001065
28286575,-0.000940,0.002244,-0.000727,0.01,-0.29,9.84,35.15,0.022371,0.031958,-0.001065
28287584,-0.002005,0.001179,0.000338,0.02,-0.31,9.86,35.13,0.023436,0.030893,0.000000
28288595,-0.002005,0.001179,0.002469,0.05,-0.27,9.85,35.10,0.023436,0.030893,0.002131
28289604,0.001191,0.001179,0.002469,0.02,-0.26,9.81,35.11,0.023436,0.034089,0.002131
28290623,0.003321,0.000113,0.001403,-0.01,-0.27,9.82,35.10,0.024501,0.036220,0.001065
28291632,0.001191,0.000113,0.000338,0.02,-0.27,9.78,35.12,0.024501,0.034089,0.000000
28292635,-0.002005,0.000113,0.000338,0.04,-0.29,9.81,35.14,0.024501,0.030893,0.000000
28293644,-0.000940,0.001179,-0.000727,0.03,-0.29,9.85,35.15,0.023436,0.031958,-0.001065
28294655,0.000125,0.001179,-0.000727,-0.01,-0.25,9.81,35.16,0.023436,0.033024,-0.001065
28295673,-0.000940,0.000113,-0.001793,-0.02,-0.23,9.79,35.13,0.024501,0.031958,-0.002131
28296675,-0.000940,0.001179,-0.000727,0.01,-0.25,9.77,35.12,0.023436,0.031958,-0.001065
28297684,0.000125,0.000113,0.000338,0.03,-0.28,9.77,35.12,0.024501,0.033024,0.000000
28298695,-0.000940,0.000113,-0.000727,0.03,-0.31,9.84,35.16,0.024501,0.031958,-0.001065
28299704,0.000125,0.001179,-0.001793,0.03,-0.29,9.87,35.12,0.023436,0.033024,-0.002131
28300721,0.000125,0.000113,-0.001793,0.04,-0.32,9.83,35.14,0.024501,0.033024,-0.002131
28301733,0.001191,-0.000952,-0.001793,0.02,-0.33,9.80,35.10,0.025567,0.034089,-0.002131
28302735,0.004387,0.001179,-0.000727,0.01,-0.31,9.80,35.14,0.023436,0.037285,-0.001065
28303744,0.004387,0.002244,0.000338,0.02,-0.30,9.82,35.13,0.022371,0.037285,0.000000
28304755,0.001191,0.002244,0.001403,0.02,-0.29,9.83,35.12,0.022371,0.034089,0.001065
28305773,0.000125,0.002244,-0.000727,0.02,-0.28,9.82,35.08,0.022371,0.033024,-0.001065
28306775,-0.000940,0.002244,-0.002858,0.04,-0.28,9.81,35.09,0.022371,0.031958,-0.003196
28307784,-0.000940,0.002244,-0.003923,0.04,-0.26,9.82,35.16,0.022371,0.031958,-0.004261
28308795,-0.002005,0.000113,-0.001793,0.02,-0.28,9.83,35.16,0.024501,0.030893,-0.002131
28309804,-0.004136,-0.000952,0.001403,0.00,-0.31,9.85,35.14,0.025567,0.028763,0.001065
28310823,-0.003070,0.000113,0.001403,-0.01,-0.31,9.82,35.15,0.024501,0.029828,0.001065
28311832,-0.002005,0.000113,0.001403,0.00,-0.31,9.78,35.17,0.024501,0.030893,0.001065
28312835,-0.000940,-0.000952,0.001403,-0.01,-0.32,9.78,35.18,0.025567,0.031958,0.001065
28313844,0.002256,-0.004148,0.001403,-0.02,-0.27,9.81,35.14,0.028763,0.035154,0.001065
28314855,0.002256,-0.003082,0.001403,0.01,-0.26,9.84,35.09,0.027697,0.035154,0.001065
28315873,-0.000940,-0.002017,0.002469,0.03,-0.29,9.86,35.07,0.026632,0.031958,0.002131
28316875,0.000125,0.000113,0.000338,0.00,-0.28,9.85,35.13,0.024501,0.033024,0.000000
28317884,0.003321,0.003309,0.000338,-0.02,-0.27,9.83,35.14,0.021306,0.036220,0.000000
28318895,0.004387,0.003309,0.001403,0.00,-0.26,9.79,35.20,0.021306,0.037285,0.001065
28319904,0.002256,0.001179,0.001403,0.02,-0.27,9.77,35.17,0.023436,0.035154,0.001065
28320921,0.001191,-0.000952,0.000338,0.01,-0.28,9.78,35.15,0.025567,0.034089,0.000000
28321933,0.000125,-0.002017,-0.001793,0.02,-0.28,9.79,35.12,0.026632,0.033024,-0.002131
28322935,-0.002005,-0.000952,-0.001793,0.05,-0.30,9.79,35.11,0.025567,0.030893,-0.002131
28323944,0.000125,0.000113,0.001403,0.06,-0.32,9.78,35.17,0.024501,0.033024,0.001065
28324956,0.001191,0.003309,0.002469,0.04,-0.30,9.78,35.16,0.021306,0.034089,0.002131
28325976,0.002256,0.002244,0.000338,0.03,-0.30,9.78,35.16,0.022371,0.035154,0.000000
28326976,0.001191,-0.000952,-0.000727,0.04,-0.31,9.78,35.16,0.025567,0.034089,-0.001065
28327989,-0.002005,-0.003082,-0.000727,0.02,-0.31,9.76,35.14,0.027697,0.030893,-0.001065
28329002,-0.003070,-0.003082,-0.000727,0.01,-0.30,9.78,35.15,0.027697,0.029828,-0.001065
28330010,-0.003070,-0.003082,0.001403,0.02,-0.30,9.82,35.16,0.027697,0.029828,0.001065
28331035,-0.002005,-0.002017,0.001403,0.02,-0.26,9.80,35.14,0.026632,0.030893,0.001065
28332041,-0.002005,-0.003082,0.000338,0.01,-0.25,9.79,35.14,0.027697,0.030893,0.000000
28333044,-0.002005,-0.004148,0.000338,0.00,-0.28,9.82,35.15,0.028763,0.030893,0.000000
28334065,-0.000940,-0.000952,0.000338,-0.01,-0.31,9.81,35.12,0.025567,0.031958,0.000000
28335070,-0.002005,0.003309,0.001403,-0.03,-0.32,9.78,35.13,0.021306,0.030893,0.001065
28336086,-0.002005,0.004375,0.002469,-0.02,-0.29,9.79,35.13,0.020240,0.030893,0.002131
28337089,-0.000940,0.003309,0.001403,0.01,-0.28,9.81,35.13,0.021306,0.031958,0.001065
28338091,-0.000940,0.001179,0.001403,0.02,-0.28,9.81,35.12,0.023436,0.031958,0.001065
28339123,-0.000940,-0.000952,0.000338,0.01,-0.28,9.79,35.18,0.025567,0.031958,0.000000
28340115,0.001191,-0.000952,-0.002858,-0.01,-0.27,9.79,35.19,0.025567,0.034089,-0.003196
28341133,0.002256,0.001179,-0.002858,0.01,-0.30,9.83,35.19,0.023436,0.035154,-0.003196
28342145,0.001191,0.000113,-0.001793,0.00,-0.31,9.79,35.19,0.024501,0.034089,-0.002131
28343146,0.000125,-0.000952,0.001403,0.01,-0.28,9.79,35.19,0.025567,0.033024,0.001065
28344151,-0.000940,-0.000952,0.002469,0.03,-0.28,9.82,35.16,0.025567,0.031958,0.002131
28345160,0.001191,-0.000952,0.001403,0.04,-0.29,9.82,35.15,0.025567,0.034089,0.001065
28346193,0.003321,0.000113,0.001403,0.03,-0.31,9.82,35.14,0.024501,0.036220,0.001065
28347175,0.001191,0.000113,0.001403,0.02,-0.32,9.81,35.16,0.024501,0.034089,0.001065
28348188,-0.002005,0.001179,0.000338,0.04,-0.31,9.81,35.16,0.023436,0.030893,0.000000
28349199,-0.003070,0.001179,0.000338,0.04,-0.32,9.85,35.14,0.023436,0.029828,0.000000
28350207,-0.003070,-0.002017,0.000338,0.02,-0.33,9.84,35.14,0.026632,0.029828,0.000000
28351225,-0.002005,-0.004148,-0.000727,0.02,-0.32,9.78,35.16,0.028763,0.030893,-0.001065
28352232,0.002256,-0.000952,-0.001793,0.02,-0.35,9.80,35.12,0.025567,0.035154,-0.002131
28353235,0.003321,0.002244,-0.001793,0.01,-0.30,9.80,35.13,0.022371,0.036220,-0.002131
28354244,0.002256,0.002244,0.000338,0.01,-0.28,9.79,35.14,0.022371,0.035154,0.000000
28355255,0.002256,0.001179,0.002469,0.03,-0.30,9.81,35.17,0.023436,0.035154,0.002131
28356273,0.001191,-0.000952,0.002469,0.03,-0.30,9.82,35.14,0.025567,0.034089,0.002131
28357275,0.001191,-0.002017,0.000338,0.04,-0.30,9.80,35.11,0.026632,0.034089,0.000000
28358284,0.003321,-0.000952,-0.000727,0.07,-0.27,9.82,35.10,0.025567,0.036220,-0.001065
28359295,0.003321,0.000113,0.000338,0.06,-0.27,9.84,35.12,0.024501,0.036220,0.000000
28360304,0.000125,0.000113,0.002469,0.01,-0.30,9.80,35.11,0.024501,0.033024,0.002131
28361321,-0.002005,-0.002017,0.002469,-0.02,-0.32,9.78,35.10,0.026632,0.030893,0.002131
28362333,-0.002005,-0.004148,0.000338,0.02,-0.27,9.79,35.10,0.028763,0.030893,0.000000
28363335,-0.000940,-0.004148,-0.000727,0.02,-0.27,9.79,35.16,0.028763,0.031958,-0.001065
28364344,0.000125,-0.000952,-0.001793,0.00,-0.32,9.80,35.15,0.025567,0.033024,-0.002131
28365355,0.000125,0.001179,-0.000727,0.00,-0.31,9.83,35.15,0.023436,0.033024,-0.001065
28366373,0.001191,0.002244,0.002469,0.00,-0.28,9.87,35.14,0.022371,0.034089,0.002131
28367375,0.000125,0.001179,0.000338,0.01,-0.28,9.86,35.18,0.023436,0.033024,0.000000
28368384,-0.002005,0.001179,-0.001793,0.00,-0.31,9.81,35.14,0.023436,0.030893,-0.002131
28369395,-0.002005,0.001179,-0.001793,0.02,-0.31,9.77,35.14,0.023436,0.030893,-0.002131
28370404,-0.000940,0.001179,-0.000727,0.02,-0.30,9.78,35.16,0.023436,0.031958,-0.001065
28371423,-0.000940,0.001179,0.000338,0.04,-0.29,9.84,35.12,0.023436,0.031958,0.000000
28372432,0.000125,0.002244,0.000338,0.03,-0.29,9.81,35.13,0.022371,0.033024,0.000000
28373435,0.001191,0.000113,-0.000727,-0.01,-0.29,9.78,35.14,0.024501,0.034089,-0.001065
28374444,0.001191,-0.000952,-0.000727,0.02,-0.33,9.82,35.14,0.025567,0.034089,-0.001065
28375455,0.002256,0.000113,-0.000727,0.05,-0.34,9.86,35.14,0.024501,0.035154,-0.001065
28376473,0.003321,0.001179,-0.000727,0.04,-0.32,9.85,35.14,0.023436,0.036220,-0.001065
28377475,0.001191,0.000113,-0.000727,0.01,-0.29,9.82,35.15,0.024501,0.034089,-0.001065
28378484,-0.000940,-0.000952,0.000338,0.01,-0.28,9.83,35.17,0.025567,0.031958,0.000000
28379495,-0.003070,0.000113,-0.000727,0.02,-0.28,9.80,35.22,0.024501,0.029828,-0.001065
28380504,-0.003070,0.000113,-0.000727,0.03,-0.27,9.78,35.23,0.024501,0.029828,-0.001065
28381521,-0.002005,0.000113,-0.001793,0.03,-0.28,9.83,35.20,0.024501,0.030893,-0.002131
28382533,-0.000940,0.000113,-0.001793,0.02,-0.29,9.85,35.15,0.024501,0.031958,-0.002131
28383535,-0.000940,0.002244,-0.000727,0.02,-0.30,9.82,35.13,0.022371,0.031958,-0.001065
28384544,-0.000940,0.003309,0.000338,0.00,-0.29,9.81,35.15,0.021306,0.031958,0.000000
28385555,-0.002005,0.001179,-0.000727,0.01,-0.30,9.81,35.12,0.023436,0.030893,-0.001065
28386573,-0.003070,0.002244,-0.002858,0.01,-0.30,9.81,35.14,0.022371,0.029828,-0.003196
28387575,-0.002005,0.003309,-0.002858,0.02,-0.28,9.81,35.15,0.021306,0.030893,-0.003196
28388584,-0.000940,0.001179,-0.000727,0.00,-0.31,9.79,35.16,0.023436,0.031958,-0.001065
28389595,-0.000940,-0.000952,0.001403,0.00,-0.30,9.82,35.19,0.025567,0.031958,0.001065
28390604,0.000125,-0.002017,0.001403,0.02,-0.28,9.85,35.13,0.026632,0.033024,0.001065
28391630,0.001191,-0.004148,0.000338,0.03,-0.30,9.83,35.12,0.028763,0.034089,0.000000
28392624,0.002256,-0.004148,0.000338,0.03,-0.29,9.79,35.11,0.028763,0.035154,0.000000
28393635,0.000125,-0.004148,0.000338,0.01,-0.29,9.80,35.13,0.028763,0.033024,0.000000
28394644,-0.000940,-0.003082,0.000338,0.01,-0.32,9.86,35.14,0.027697,0.031958,0.000000
28395655,-0.000940,-0.002017,0.000338,0.01,-0.33,9.84,35.13,0.026632,0.031958,0.000000
28396673,-0.000940,-0.000952,0.000338,0.01,-0.31,9.83,35.14,0.025567,0.031958,0.000000
28397675,-0.000940,0.000113,0.000338,0.01,-0.32,9.82,35.15,0.024501,0.031958,0.000000
28398684,-0.000940,0.000113,0.000338,0.01,-0.32,9.79,35.14,0.024501,0.031958,0.000000
28399695,0.000125,0.001179,0.001403,0.01,-0.34,9.80,35.13,0.023436,0.033024,0.001065
28400704,0.000125,0.003309,0.002469,0.00,-0.32,9.84,35.09,0.021306,0.033024,0.002131
28401730,-0.000940,0.002244,0.001403,0.01,-0.29,9.84,35.11,0.022371,0.031958,0.001065
28402724,-0.002005,-0.000952,0.001403,0.02,-0.29,9.81,35.14,0.025567,0.030893,0.001065
28403735,-0.003070,-0.003082,0.002469,0.03,-0.29,9.83,35.16,0.027697,0.029828,0.002131
28404744,-0.003070,-0.003082,0.001403,0.00,-0.30,9.83,35.12,0.027697,0.029828,0.001065
28405755,0.000125,-0.000952,0.000338,0.00,-0.31,9.82,35.14,0.025567,0.033024,0.000000
28406773,0.002256,-0.000952,0.001403,0.04,-0.29,9.84,35.14,0.025567,0.035154,0.001065
28407775,0.002256,-0.002017,0.002469,0.04,-0.30,9.78,35.13,0.026632,0.035154,0.002131
28408784,0.002256,-0.003082,-0.001793,0.00,-0.30,9.75,35.16,0.027697,0.035154,-0.002131
28409795,0.000125,-0.003082,-0.002858,0.01,-0.29,9.80,35.11,0.027697,0.033024,-0.003196
28410829,-0.000925,-0.000938,-0.000734,0.04,-0.28,9.83,35.13,0.025567,0.031958,-0.001065
28411829,0.000140,0.000127,0.000331,0.03,-0.28,9.82,35.13,0.024501,0.033024,0.000000
28412824,0.000140,-0.002004,-0.000734,0.01,-0.27,9.80,35.11,0.026632,0.033024,-0.001065
28413835,0.000140,-0.003069,-0.000734,-0.01,-0.27,9.77,35.14,0.027697,0.033024,-0.001065
28414844,0.000140,-0.002004,-0.002865,0.00,-0.27,9.84,35.17,0.026632,0.033024,-0.003196
28415855,0.001206,0.000127,-0.002865,0.03,-0.28,9.84,35.15,0.024501,0.034089,-0.003196
28416873,-0.000925,0.000127,-0.003930,0.03,-0.29,9.78,35.13,0.024501,0.031958,-0.004261
28417875,-0.000925,0.001192,-0.001799,0.02,-0.29,9.76,35.16,0.023436,0.031958,-0.002131
28418884,-0.000925,0.000127,-0.000734,0.00,-0.28,9.76,35.16,0.024501,0.031958,-0.001065
28419895,-0.001990,-0.003069,-0.000734,0.01,-0.28,9.82,35.16,0.027697,0.030893,-0.001065
28420904,-0.000925,-0.004134,-0.000734,0.02,-0.29,9.85,35.13,0.028763,0.031958,-0.001065
28421930,0.001206,-0.003069,0.000331,-0.01,-0.29,9.84,35.16,0.027697,0.034089,0.000000
28422924,0.002271,-0.000938,0.003527,0.00,-0.28,9.82,35.12,0.025567,0.035154,0.003196
28423935,0.002271,-0.000938,0.003527,0.03,-0.29,9.82,35.16,0.025567,0.035154,0.003196
28424944,0.002271,0.002257,0.003527,0.03,-0.31,9.82,35.18,0.022371,0.035154,0.003196
28425957,-0.000925,0.002257,0.001397,0.02,-0.31,9.79,35.14,0.022371,0.031958,0.001065
28426975,-0.001990,0.000127,0.001397,0.03,-0.32,9.81,35.16,0.024501,0.030893,0.001065
28427978,-0.000925,-0.002004,0.002462,0.00,-0.32,9.84,35.17,0.026632,0.031958,0.002131
28428989,0.001206,-0.003069,0.001397,0.00,-0.30,9.83,35.21,0.027697,0.034089,0.001065
28430002,0.001206,-0.002004,0.000331,-0.01,-0.29,9.82,35.22,0.026632,0.034089,0.000000
28431008,0.000140,-0.000938,-0.001799,-0.01,-0.27,9.83,35.23,0.025567,0.033024,-0.002131
28432042,0.001206,0.000127,-0.000734,0.01,-0.28,9.82,35.19,0.024501,0.034089,-0.001065
28433030,0.004402,0.000127,0.000331,-0.01,-0.31,9.78,35.18,0.024501,0.037285,0.000000
28434042,0.006532,0.001192,0.000331,0.02,-0.31,9.81,35.12,0.023436,0.039415,0.000000
28435059,0.003336,0.000127,0.000331,0.03,-0.29,9.86,35.08,0.024501,0.036220,0.000000
28436070,0.001206,-0.002004,-0.000734,0.01,-0.30,9.85,35.10,0.026632,0.034089,-0.001065
28437085,0.000140,-0.000938,-0.001799,0.04,-0.32,9.80,35.13,0.025567,0.033024,-0.002131
28438087,0.000140,0.001192,-0.001799,0.04,-0.31,9.79,35.13,0.023436,0.033024,-0.002131
28439091,-0.000925,0.002257,-0.002865,0.04,-0.31,9.83,35.13,0.022371,0.031958,-0.003196
28440108,-0.003055,0.002257,-0.002865,0.03,-0.29,9.84,35.14,0.022371,0.029828,-0.003196
28441115,-0.003055,0.002257,-0.000734,0.02,-0.28,9.83,35.13,0.022371,0.029828,-0.001065
28442142,-0.001990,0.002257,0.000331,0.03,-0.28,9.83,35.11,0.022371,0.030893,0.000000
28443134,0.000140,0.002257,0.001397,0.04,-0.28,9.83,35.14,0.022371,0.033024,0.001065
28444142,0.001206,0.002257,-0.000734,0.01,-0.28,9.83,35.12,0.022371,0.034089,-0.001065
28445152,0.001206,0.003323,-0.000734,-0.01,-0.30,9.82,35.12,0.021306,0.034089,-0.001065
28446158,0.001206,0.003323,0.000331,-0.01,-0.30,9.82,35.12,0.021306,0.034089,0.000000
28447173,0.001206,0.002257,0.001397,0.02,-0.29,9.84,35.13,0.022371,0.034089,0.001065
28448202,-0.001990,0.000127,0.000331,0.04,-0.30,9.90,35.10,0.024501,0.030893,0.000000
28449188,-0.001990,-0.004134,-0.001799,0.03,-0.32,9.89,35.12,0.028763,0.030893,-0.002131
28450199,-0.001990,-0.003069,-0.001799,0.02,-0.31,9.86,35.17,0.027697,0.030893,-0.002131
28451207,-0.000925,0.000127,-0.000734,0.01,-0.30,9.85,35.13,0.024501,0.031958,-0.001065
28452231,-0.000925,0.001192,0.000331,0.01,-0.28,9.85,35.16,0.023436,0.031958,0.000000
28453224,0.001206,0.002257,-0.001799,0.05,-0.27,9.86,35.19,0.022371,0.034089,-0.002131
28454235,0.002271,0.002257,-0.002865,0.07,-0.28,9.83,35.16,0.022371,0.035154,-0.003196
28455244,0.003336,0.001192,-0.000734,0.03,-0.27,9.82,35.16,0.023436,0.036220,-0.001065
28456255,0.004402,-0.002004,0.002462,0.02,-0.27,9.86,35.15,0.026632,0.037285,0.002131
28457273,0.003336,-0.004134,0.003527,0.03,-0.29,9.85,35.17,0.028763,0.036220,0.003196
28458275,0.000140,-0.003069,0.005658,0.02,-0.32,9.87,35.14,0.027697,0.033024,0.005326
28459284,-0.001990,0.000127,0.003527,0.00,-0.31,9.86,35.14,0.024501,0.030893,0.003196
28460295,-0.000925,0.001192,0.000331,-0.03,-0.26,9.80,35.15,0.023436,0.031958,0.000000
28461304,-0.000925,0.001192,-0.002865,0.00,-0.27,9.83,35.14,0.023436,0.031958,-0.003196
28462330,0.000140,0.000127,-0.002865,0.03,-0.30,9.82,35.17,0.024501,0.033024,-0.003196
28463324,0.002271,0.001192,-0.002865,-0.01,-0.30,9.83,35.10,0.023436,0.035154,-0.003196
28464335,0.001206,0.001192,-0.001799,0.00,-0.29,9.84,35.10,0.023436,0.034089,-0.002131
28465344,0.000140,-0.002004,0.000331,0.00,-0.28,9.82,35.16,0.026632,0.033024,0.000000
28466355,0.000140,-0.003069,0.000331,-0.01,-0.28,9.86,35.17,0.027697,0.033024,0.000000
28467373,0.000140,-0.000938,-0.000734,-0.01,-0.30,9.80,35.13,0.025567,0.033024,-0.001065
28468375,-0.001990,0.000127,-0.001799,0.01,-0.28,9.81,35.16,0.024501,0.030893,-0.002131
28469384,-0.001990,0.001192,-0.001799,-0.01,-0.28,9.77,35.14,0.023436,0.030893,-0.002131
28470395,-0.001990,0.002257,-0.000734,0.02,-0.28,9.78,35.11,0.022371,0.030893,-0.001065
28471404,-0.001990,0.002257,-0.002865,0.02,-0.29,9.85,35.07,0.022371,0.030893,-0.003196
28472429,-0.004121,0.002257,-0.002865,-0.01,-0.29,9.84,35.10,0.022371,0.028763,-0.003196
28473424,-0.004121,0.001192,-0.000734,-0.02,-0.29,9.80,35.08,0.023436,0.028763,-0.001065
28474435,-0.001990,0.001192,0.003527,0.01,-0.30,9.79,35.09,0.023436,0.030893,0.003196
28475444,-0.000925,-0.002004,0.002462,0.05,-0.31,9.80,35.12,0.026632,0.031958,0.002131
28476455,0.000140,-0.002004,0.000331,0.06,-0.28,9.78,35.14,0.026632,0.033024,0.000000
28477473,-0.001990,-0.003069,-0.000734,0.06,-0.25,9.77,35.18,0.027697,0.030893,-0.001065
28478475,-0.000925,-0.003069,-0.000734,0.05,-0.28,9.81,35.15,0.027697,0.031958,-0.001065
28479484,0.001206,-0.000938,-0.000734,0.02,-0.29,9.82,35.10,0.025567,0.034089,-0.001065
28480495,0.001206,0.001192,0.000331,0.00,-0.27,9.83,35.10,0.023436,0.034089,0.000000
28481504,0.001206,0.002257,0.001397,0.03,-0.26,9.83,35.09,0.022371,0.034089,0.001065
28482530,-0.000925,0.001192,0.000331,0.01,-0.30,9.82,35.12,0.023436,0.031958,0.000000
28483524,-0.000925,0.000127,-0.000734,0.00,-0.31,9.78,35.16,0.024501,0.031958,-0.001065
28484535,0.001206,0.002257,-0.000734,0.00,-0.30,9.76,35.13,0.022371,0.034089,-0.001065
28485544,0.002271,0.004388,-0.000734,0.01,-0.34,9.81,35.13,0.020240,0.035154,-0.001065
28486555,0.001206,0.002257,0.000331,0.07,-0.34,9.82,35.13,0.022371,0.034089,0.000000
28487573,0.001206,0.000127,0.000331,0.09,-0.32,9.75,35.11,0.024501,0.034089,0.000000
28488575,-0.000925,-0.000938,0.000331,0.04,-0.34,9.75,35.12,0.025567,0.031958,0.000000
28489584,0.000140,-0.000938,0.000331,0.02,-0.30,9.83,35.11,0.025567,0.033024,0.000000
28490595,0.001206,0.000127,0.002462,0.03,-0.27,9.86,35.19,0.024501,0.034089,0.002131
28491604,0.001206,-0.000938,0.003527,0.00,-0.29,9.83,35.16,0.025567,0.034089,0.003196
28492629,0.001206,0.000127,0.002462,0.00,-0.30,9.81,35.11,0.024501,0.034089,0.002131
28493624,0.001206,-0.000938,0.000331,0.02,-0.32,9.83,35.14,0.025567,0.034089,0.000000
28494635,0.001206,-0.002004,-0.001799,-0.02,-0.31,9.80,35.12,0.026632,0.034089,-0.002131
28495644,0.000140,-0.000938,-0.003930,-0.03,-0.29,9.81,35.12,0.025567,0.033024,-0.004261
28496655,0.000140,-0.000938,-0.003930,-0.01,-0.28,9.85,35.18,0.025567,0.033024,-0.004261
28497673,0.000140,-0.002004,-0.001799,0.02,-0.31,9.88,35.16,0.026632,0.033024,-0.002131
28498675,0.000140,-0.002004,0.000331,0.03,-0.32,9.85,35.12,0.026632,0.033024,0.000000
28499684,0.000140,-0.003069,0.000331,0.01,-0.31,9.81,35.10,0.027697,0.033024,0.000000
28500695,0.000140,-0.003069,0.000331,0.02,-0.31,9.82,35.08,0.027697,0.033024,0.000000
