time_us,gyro_x_rad_s,gyro_y_rad_s,gyro_z_rad_s,acc_x_m_s2,acc_y_m_s2,acc_z_m_s2,temperature_c,gyro_sensor_uncorrected_x_rad_s,gyro_sensor_uncorrected_y_rad_s,gyro_sensor_uncorrected_z_rad_s
549313842,0.002099,0.003072,0.003370,-0.03,-0.29,9.81,33.65,0.021306,0.035154,0.003196
549314935,0.003165,0.002006,0.002304,0.00,-0.28,9.81,33.68,0.022371,0.036220,0.002131
549315655,0.003165,0.002006,0.002304,0.03,-0.26,9.83,33.71,0.022371,0.036220,0.002131
549317281,0.002099,0.000941,0.002304,0.00,-0.27,9.83,33.71,0.023436,0.035154,0.002131
549318309,0.002099,0.002006,0.002304,0.01,-0.31,9.84,33.68,0.022371,0.035154,0.002131
549319315,0.004230,0.002006,0.001239,0.01,-0.32,9.83,33.64,0.022371,0.037285,0.001065
549320325,0.005295,0.002006,0.000174,0.00,-0.31,9.84,33.68,0.022371,0.038350,0.000000
549321343,0.004230,0.000941,-0.000892,0.02,-0.30,9.82,33.70,0.023436,0.037285,-0.001065
549322355,0.001034,0.000941,-0.000892,0.01,-0.31,9.79,33.68,0.023436,0.034089,-0.001065
549323355,-0.001096,0.000941,-0.000892,0.02,-0.32,9.79,33.67,0.023436,0.031958,-0.001065
549324365,-0.004292,-0.000124,0.000174,0.01,-0.30,9.82,33.67,0.024501,0.028763,0.000000
549325375,-0.005358,-0.001190,0.002304,0.00,-0.28,9.81,33.67,0.025567,0.027697,0.002131
549326391,-0.005358,-0.001190,0.002304,-0.01,-0.27,9.78,33.64,0.025567,0.027697,0.002131
549327395,-0.003227,-0.001190,0.001239,-0.02,-0.27,9.78,33.66,0.025567,0.029828,0.001065
549328405,-0.000031,-0.001190,0.001239,-0.01,-0.25,9.82,33.65,0.025567,0.033024,0.001065
549329415,0.002099,-0.000124,0.002304,0.00,-0.26,9.83,33.65,0.024501,0.035154,0.002131
549330425,0.002099,0.000941,0.003370,0.00,-0.29,9.82,33.66,0.023436,0.035154,0.003196
549331443,0.003165,0.000941,0.002304,-0.01,-0.30,9.83,33.65,0.023436,0.036220,0.002131
549332459,0.003165,-0.001190,0.001239,0.00,-0.27,9.83,33.63,0.025567,0.036220,0.001065
549333455,0.002099,-0.002255,0.000174,0.01,-0.28,9.85,33.66,0.026632,0.035154,0.000000
549334465,-0.000031,-0.001190,0.000174,0.01,-0.30,9.84,33.64,0.025567,0.033024,0.000000
549335475,-0.002162,-0.001190,-0.000892,0.03,-0.27,9.77,33.66,0.025567,0.030893,-0.001065
549336493,-0.001096,-0.000124,-0.000892,0.04,-0.25,9.74,33.65,0.024501,0.031958,-0.001065
549337495,0.001034,0.003072,0.001239,0.03,-0.25,9.78,33.62,0.021306,0.034089,0.001065
549338505,-0.001096,0.003072,0.002304,0.02,-0.28,9.82,33.64,0.021306,0.031958,0.002131
549339515,-0.003227,0.002006,0.001239,0.02,-0.29,9.83,33.68,0.022371,0.029828,0.001065
549340525,-0.002162,0.002006,0.000174,0.01,-0.26,9.82,33.66,0.022371,0.030893,0.000000
549341543,-0.002162,0.002006,-0.003022,-0.01,-0.28,9.82,33.66,0.022371,0.030893,-0.003196
549342555,0.001034,0.000941,-0.004087,-0.01,-0.31,9.83,33.68,0.023436,0.034089,-0.004261
549343555,0.001034,-0.000124,-0.003022,0.01,-0.30,9.86,33.68,0.024501,0.034089,-0.003196
549344565,-0.000031,-0.000124,-0.000892,0.01,-0.28,9.81,33.67,0.024501,0.033024,-0.001065
549345575,-0.001096,-0.001190,0.001239,0.02,-0.27,9.79,33.68,0.025567,0.031958,0.001065
549346591,-0.000031,-0.003320,-0.000892,0.01,-0.28,9.82,33.68,0.027697,0.033024,-0.001065
549347595,-0.000031,-0.003320,-0.003022,-0.02,-0.28,9.80,33.64,0.027697,0.033024,-0.003196
549348627,0.001034,-0.000124,-0.003022,0.01,-0.27,9.81,33.63,0.024501,0.034089,-0.003196
549349615,0.002099,0.002006,-0.001957,0.01,-0.30,9.83,33.64,0.022371,0.035154,-0.002131
549350625,0.001034,0.000941,0.000174,0.02,-0.31,9.84,33.68,0.023436,0.034089,0.000000
549351656,-0.000031,0.000941,0.002304,0.06,-0.28,9.87,33.69,0.023436,0.033024,0.002131
549352645,0.001034,0.003072,0.001239,0.02,-0.28,9.83,33.71,0.021306,0.034089,0.001065
549353655,0.001034,0.003072,0.000174,0.02,-0.30,9.80,33.65,0.021306,0.034089,0.000000
549354665,-0.000031,0.003072,0.001239,0.01,-0.30,9.79,33.63,0.021306,0.033024,0.001065
549355713,-0.003227,0.003072,0.000174,0.02,-0.31,9.82,33.62,0.021306,0.029828,0.000000
549356693,-0.003227,0.002006,-0.001957,0.01,-0.27,9.81,33.63,0.022371,0.029828,-0.002131
549357695,-0.001096,0.000941,-0.000892,0.00,-0.28,9.83,33.63,0.023436,0.031958,-0.001065
549358705,0.001034,-0.001190,0.000174,0.02,-0.30,9.79,33.65,0.025567,0.034089,0.000000
549359715,0.001034,-0.002255,0.001239,0.03,-0.27,9.75,33.65,0.026632,0.034089,0.001065
549360725,0.002099,-0.002255,0.001239,0.01,-0.29,9.78,33.63,0.026632,0.035154,0.001065
549361752,0.002099,-0.003320,0.001239,0.01,-0.30,9.77,33.64,0.027697,0.035154,0.001065
549362745,0.002099,-0.003320,-0.000892,0.04,-0.28,9.80,33.67,0.027697,0.035154,-0.001065
549363755,0.001034,-0.001190,-0.000892,0.02,-0.29,9.85,33.65,0.025567,0.034089,-0.001065
549364765,-0.001096,0.000941,0.000174,-0.02,-0.29,9.80,33.65,0.023436,0.031958,0.000000
549365775,-0.002162,0.000941,0.001239,0.01,-0.29,9.78,33.67,0.023436,0.030893,0.001065
549366791,0.001034,-0.000124,-0.000892,0.04,-0.30,9.78,33.64,0.024501,0.034089,-0.001065
549367795,0.003165,-0.002255,-0.003022,0.04,-0.29,9.82,33.65,0.026632,0.036220,-0.003196
549368805,0.001034,-0.002255,-0.003022,0.02,-0.27,9.86,33.66,0.026632,0.034089,-0.003196
549369815,-0.002162,-0.000124,-0.001957,-0.02,-0.27,9.85,33.62,0.024501,0.030893,-0.002131
549370825,-0.002162,-0.000124,0.000174,-0.01,-0.28,9.84,33.62,0.024501,0.030893,0.000000
549371856,-0.000031,-0.001190,0.000174,-0.01,-0.30,9.84,33.64,0.025567,0.033024,0.000000
549372845,0.002099,-0.001190,0.000174,-0.01,-0.32,9.87,33.68,0.025567,0.035154,0.000000
549373855,0.002099,0.000941,0.001239,0.04,-0.31,9.89,33.69,0.023436,0.035154,0.001065
549374865,0.002099,0.002006,0.000174,0.04,-0.28,9.86,33.68,0.022371,0.035154,0.000000
549375875,0.001034,-0.000124,-0.000892,0.01,-0.25,9.80,33.68,0.024501,0.034089,-0.001065
549376893,0.001034,-0.002255,-0.000892,-0.01,-0.25,9.78,33.68,0.026632,0.034089,-0.001065
549377895,0.002099,-0.001190,-0.000892,-0.02,-0.29,9.82,33.59,0.025567,0.035154,-0.001065
549378905,-0.000031,-0.000124,-0.000892,-0.04,-0.30,9.83,33.60,0.024501,0.033024,-0.001065
549379915,-0.002162,-0.000124,-0.000892,-0.05,-0.31,9.79,33.62,0.024501,0.030893,-0.001065
549380925,-0.001096,-0.001190,-0.000892,-0.02,-0.31,9.83,33.60,0.025567,0.031958,-0.001065
549381953,-0.000031,-0.001190,-0.000892,-0.02,-0.29,9.84,33.63,0.025567,0.033024,-0.001065
549382945,-0.000031,-0.000124,0.000174,0.01,-0.29,9.81,33.65,0.024501,0.033024,0.000000
549383957,-0.000031,0.002006,0.001239,0.04,-0.29,9.77,33.63,0.022371,0.033024,0.001065
549384966,-0.001096,0.002006,-0.000892,0.02,-0.31,9.76,33.67,0.022371,0.031958,-0.001065
549385976,-0.000031,-0.002255,-0.000892,0.04,-0.31,9.80,33.70,0.026632,0.033024,-0.001065
549387000,0.001034,-0.003320,0.001239,0.05,-0.29,9.82,33.66,0.027697,0.034089,0.001065
549388004,0.001034,-0.002255,0.001239,-0.02,-0.29,9.83,33.68,0.026632,0.034089,0.001065
549389010,-0.000031,-0.001190,0.000174,-0.02,-0.30,9.83,33.68,0.025567,0.033024,0.000000
549390025,0.002099,-0.001190,-0.000892,0.00,-0.28,9.80,33.65,0.025567,0.035154,-0.001065
549391032,0.002099,-0.002255,-0.000892,0.01,-0.29,9.80,33.66,0.026632,0.035154,-0.001065
549392069,-0.000031,-0.002255,0.000174,0.03,-0.32,9.76,33.65,0.026632,0.033024,0.000000
549393060,-0.000031,-0.000124,0.002304,0.02,-0.27,9.72,33.64,0.024501,0.033024,0.002131
549394071,-0.000031,-0.000124,0.001239,0.02,-0.29,9.75,33.63,0.024501,0.033024,0.001065
549395076,0.002099,-0.001190,0.001239,0.02,-0.31,9.78,33.62,0.025567,0.035154,0.001065
549396091,0.003165,-0.002255,0.000174,-0.03,-0.27,9.79,33.61,0.026632,0.036220,0.000000
549397105,0.003165,-0.000124,-0.000892,-0.03,-0.29,9.80,33.65,0.024501,0.036220,-0.001065
549398112,0.001034,0.000941,0.000174,0.01,-0.30,9.77,33.64,0.023436,0.034089,0.000000
549399114,-0.000031,0.003072,0.000174,0.01,-0.28,9.78,33.61,0.021306,0.033024,0.000000
549400122,-0.000031,0.004137,0.000174,-0.01,-0.29,9.80,33.63,0.020240,0.033024,0.000000
549401138,-0.002162,0.003072,0.002304,-0.01,-0.31,9.80,33.65,0.021306,0.030893,0.002131
549402160,-0.002162,0.002006,0.003370,0.02,-0.30,9.79,33.66,0.022371,0.030893,0.003196
549403149,-0.001096,0.002006,0.003370,0.00,-0.27,9.78,33.66,0.022371,0.031958,0.003196
549404158,0.001034,-0.000124,0.003370,0.02,-0.25,9.79,33.63,0.024501,0.034089,0.003196
549405168,0.002099,-0.003320,0.002304,0.04,-0.26,9.81,33.60,0.027697,0.035154,0.002131
549406175,0.001034,-0.002255,-0.000892,0.02,-0.28,9.84,33.65,0.026632,0.034089,-0.001065
549407194,-0.000031,0.000941,-0.001957,0.03,-0.28,9.86,33.66,0.023436,0.033024,-0.002131
549408199,-0.000031,0.003072,-0.000892,0.06,-0.27,9.83,33.63,0.021306,0.033024,-0.001065
549409208,-0.001096,-0.001190,0.000174,0.03,-0.27,9.82,33.64,0.025567,0.031958,0.000000
549410217,-0.001096,-0.004385,0.001239,-0.02,-0.29,9.82,33.65,0.028763,0.031958,0.001065
549411225,-0.002162,-0.001190,0.002304,-0.02,-0.30,9.82,33.62,0.025567,0.030893,0.002131
549412256,-0.002162,-0.000124,0.001239,0.04,-0.27,9.86,33.65,0.024501,0.030893,0.001065
549413245,-0.002162,0.000941,0.000174,0.05,-0.27,9.85,33.66,0.023436,0.030893,0.000000
549414255,-0.001096,0.000941,-0.000892,0.07,-0.29,9.83,33.65,0.023436,0.031958,-0.001065
549415265,0.001034,0.002006,-0.000892,0.06,-0.27,9.84,33.64,0.022371,0.034089,-0.001065
549416275,0.003165,0.000941,0.000174,0.02,-0.25,9.83,33.66,0.023436,0.036220,0.000000
549417293,0.004230,-0.000124,0.000174,0.04,-0.24,9.83,33.68,0.024501,0.037285,0.000000
549418295,0.003165,-0.001190,-0.001957,0.02,-0.26,9.84,33.65,0.025567,0.036220,-0.002131
549419305,0.003165,-0.002255,-0.001957,0.01,-0.27,9.84,33.66,0.026632,0.036220,-0.002131
549420315,0.002099,-0.003320,-0.000892,0.01,-0.28,9.84,33.65,0.027697,0.035154,-0.001065
549421325,0.001034,-0.001190,-0.000892,0.00,-0.31,9.90,33.67,0.025567,0.034089,-0.001065
549422352,0.001034,-0.000124,-0.001957,0.01,-0.30,9.83,33.65,0.024501,0.034089,-0.002131
549423345,0.001034,0.000941,-0.003022,0.00,-0.28,9.78,33.64,0.023436,0.034089,-0.003196
549424355,-0.000031,0.002006,-0.000892,-0.01,-0.30,9.80,33.62,0.022371,0.033024,-0.001065
549425365,-0.003227,0.000941,-0.000892,-0.01,-0.29,9.83,33.65,0.023436,0.029828,-0.001065
549426375,-0.005358,0.000941,-0.001957,-0.01,-0.29,9.82,33.67,0.023436,0.027697,-0.002131
549427391,-0.004292,-0.000124,-0.001957,-0.01,-0.30,9.77,33.64,0.024501,0.028763,-0.002131
549428395,-0.003227,-0.000124,-0.001957,0.00,-0.30,9.79,33.64,0.024501,0.029828,-0.002131
549429405,-0.001096,-0.000124,-0.000892,-0.01,-0.27,9.80,33.64,0.024501,0.031958,-0.001065
549430415,0.001034,-0.001190,0.000174,0.00,-0.27,9.79,33.66,0.025567,0.034089,0.000000
549431425,-0.000031,-0.002255,0.000174,0.01,-0.30,9.78,33.64,0.026632,0.033024,0.000000
549432456,-0.001096,-0.002255,-0.000892,0.00,-0.31,9.78,33.67,0.026632,0.031958,-0.001065
549433472,-0.003251,-0.001173,-0.003034,0.00,-0.31,9.79,33.66,0.025567,0.029828,-0.003196
549434455,-0.004317,-0.000107,-0.001969,0.00,-0.28,9.78,33.66,0.024501,0.028763,-0.002131
549435465,-0.003251,-0.000107,0.000162,0.01,-0.26,9.79,33.64,0.024501,0.029828,0.000000
549436475,-0.002186,0.000958,-0.000903,0.03,-0.29,9.79,33.65,0.023436,0.030893,-0.001065
549437493,-0.003251,0.002023,-0.001969,0.01,-0.30,9.75,33.65,0.022371,0.029828,-0.002131
549438495,-0.004317,0.002023,-0.000903,0.01,-0.27,9.74,33.67,0.022371,0.028763,-0.001065
549439505,-0.003251,0.003088,0.000162,0.03,-0.28,9.82,33.65,0.021306,0.029828,0.000000
549440515,-0.003251,0.003088,0.001227,0.02,-0.30,9.85,33.67,0.021306,0.029828,0.001065
549441525,-0.001121,0.002023,0.001227,0.01,-0.28,9.84,33.64,0.022371,0.031958,0.001065
549442551,-0.001121,-0.000107,0.001227,-0.01,-0.27,9.83,33.65,0.024501,0.031958,0.001065
549443545,-0.002186,-0.001173,0.003358,-0.02,-0.30,9.78,33.65,0.025567,0.030893,0.003196
549444555,-0.002186,-0.001173,0.004423,0.01,-0.31,9.75,33.65,0.025567,0.030893,0.004261
549445565,0.001010,0.002023,0.003358,0.03,-0.31,9.80,33.65,0.022371,0.034089,0.003196
549446575,0.005271,0.003088,0.001227,0.04,-0.31,9.84,33.65,0.021306,0.038350,0.001065
549447591,0.004206,0.000958,0.000162,0.05,-0.28,9.82,33.69,0.023436,0.037285,0.000000
549448595,-0.000055,-0.000107,0.000162,0.01,-0.27,9.79,33.70,0.024501,0.033024,0.000000
549449605,-0.002186,-0.000107,-0.000903,0.01,-0.30,9.82,33.69,0.024501,0.030893,-0.001065
549450615,-0.001121,-0.001173,-0.001969,0.02,-0.34,9.82,33.66,0.025567,0.031958,-0.002131
549451637,-0.001121,-0.001173,-0.003034,0.00,-0.30,9.85,33.68,0.025567,0.031958,-0.003196
549452643,-0.000055,-0.002238,0.000162,0.00,-0.26,9.87,33.65,0.026632,0.033024,0.000000
549453645,-0.000055,-0.001173,0.001227,0.04,-0.25,9.81,33.68,0.025567,0.033024,0.001065
549454655,-0.001121,0.002023,0.000162,0.04,-0.27,9.81,33.67,0.022371,0.031958,0.000000
549455665,-0.002186,0.003088,-0.000903,0.01,-0.28,9.82,33.68,0.021306,0.030893,-0.001065
549456675,-0.001121,0.002023,0.000162,-0.03,-0.30,9.83,33.66,0.022371,0.031958,0.000000
549457693,0.003140,0.000958,0.002292,-0.02,-0.28,9.83,33.66,0.023436,0.036220,0.002131
549458695,0.005271,0.000958,0.002292,0.01,-0.28,9.79,33.65,0.023436,0.038350,0.002131
549459705,0.004206,-0.000107,0.000162,-0.01,-0.31,9.82,33.63,0.024501,0.037285,0.000000
549460715,0.002075,-0.000107,-0.000903,0.02,-0.30,9.82,33.65,0.024501,0.035154,-0.001065
549461747,0.001010,-0.000107,0.001227,0.01,-0.29,9.84,33.66,0.024501,0.034089,0.001065
549462822,-0.000055,-0.001173,0.001227,-0.03,-0.28,9.82,33.64,0.025567,0.033024,0.001065
549463744,0.001010,-0.002238,0.000162,-0.01,-0.30,9.76,33.63,0.026632,0.034089,0.000000
549464754,0.003140,-0.001173,-0.000903,0.02,-0.28,9.81,33.62,0.025567,0.036220,-0.001065
549465764,0.002075,0.002023,0.000162,0.04,-0.28,9.87,33.65,0.022371,0.035154,0.000000
549466774,-0.000055,0.002023,0.002292,0.03,-0.32,9.86,33.67,0.022371,0.033024,0.002131
549467790,-0.000055,-0.000107,0.003358,0.00,-0.32,9.84,33.67,0.024501,0.033024,0.003196
549468794,-0.000055,-0.002238,0.002292,0.02,-0.30,9.84,33.65,0.026632,0.033024,0.002131
549469804,0.002075,-0.004368,-0.000903,0.03,-0.28,9.82,33.65,0.028763,0.035154,-0.001065
549470814,-0.001121,-0.002238,-0.000903,0.00,-0.27,9.74,33.64,0.026632,0.031958,-0.001065
549471837,-0.004317,0.002023,0.001227,0.00,-0.29,9.72,33.65,0.022371,0.028763,0.001065
549472842,-0.005382,0.004154,0.002292,0.01,-0.28,9.74,33.65,0.020240,0.027697,0.002131
549473859,-0.003251,0.004154,0.003358,0.00,-0.29,9.77,33.68,0.020240,0.029828,0.003196
549474855,-0.004317,0.000958,0.002292,-0.01,-0.32,9.79,33.65,0.023436,0.028763,0.002131
549475865,-0.003251,-0.001173,0.000162,-0.02,-0.31,9.80,33.66,0.025567,0.029828,0.000000
549476875,-0.001121,-0.002238,-0.000903,0.00,-0.32,9.78,33.67,0.026632,0.031958,-0.001065
549477893,-0.000055,-0.001173,0.000162,0.01,-0.30,9.75,33.69,0.025567,0.033024,0.000000
549478895,-0.000055,-0.001173,0.000162,-0.01,-0.28,9.76,33.70,0.025567,0.033024,0.000000
549479905,-0.000055,-0.001173,-0.000903,0.01,-0.28,9.79,33.71,0.025567,0.033024,-0.001065
549480915,-0.000055,-0.001173,-0.001969,0.00,-0.27,9.82,33.64,0.025567,0.033024,-0.002131
549481937,-0.001121,-0.001173,-0.000903,-0.03,-0.30,9.89,33.65,0.025567,0.031958,-0.001065
549482943,-0.000055,-0.002238,0.000162,-0.02,-0.31,9.86,33.66,0.026632,0.033024,0.000000
549483962,-0.000055,-0.002238,0.001227,0.01,-0.29,9.78,33.68,0.026632,0.033024,0.001065
549484954,-0.001121,-0.003303,0.002292,0.01,-0.29,9.82,33.69,0.027697,0.031958,0.002131
549485968,-0.001121,-0.003303,0.002292,0.00,-0.27,9.86,33.69,0.027697,0.031958,0.002131
549486975,0.001010,-0.002238,0.001227,0.01,-0.26,9.85,33.71,0.026632,0.034089,0.001065
549488001,0.002075,-0.000107,0.000162,0.03,-0.30,9.86,33.69,0.024501,0.035154,0.000000
549489002,-0.001121,-0.000107,-0.000903,0.02,-0.30,9.89,33.68,0.024501,0.031958,-0.001065
549490012,-0.003251,-0.000107,0.000162,0.01,-0.27,9.86,33.65,0.024501,0.029828,0.000000
549491027,-0.002186,-0.000107,0.000162,0.04,-0.27,9.85,33.64,0.024501,0.030893,0.000000
549492052,-0.000055,0.000958,0.001227,0.04,-0.29,9.86,33.64,0.023436,0.033024,0.001065
549493054,0.002075,-0.001173,0.000162,0.02,-0.30,9.83,33.64,0.025567,0.035154,0.000000
549494070,0.002075,-0.004368,-0.000903,0.02,-0.31,9.79,33.63,0.028763,0.035154,-0.001065
549495066,0.001010,-0.003303,0.000162,0.03,-0.29,9.79,33.65,0.027697,0.034089,0.000000
549496076,0.001010,-0.001173,0.002292,0.00,-0.27,9.78,33.65,0.025567,0.034089,0.002131
549497087,0.001010,-0.001173,0.002292,-0.01,-0.27,9.79,33.65,0.025567,0.034089,0.002131
549498108,0.001010,-0.001173,0.001227,0.00,-0.31,9.79,33.64,0.025567,0.034089,0.001065
549499105,0.001010,-0.000107,0.003358,-0.02,-0.32,9.79,33.63,0.024501,0.034089,0.003196
549500115,-0.000055,-0.000107,0.003358,-0.01,-0.29,9.79,33.65,0.024501,0.033024,0.003196
549501122,-0.000055,-0.001173,0.002292,0.02,-0.30,9.79,33.65,0.025567,0.033024,0.002131
549502146,-0.001121,-0.001173,0.000162,0.03,-0.31,9.81,33.62,0.025567,0.031958,0.000000
549503151,-0.000055,0.000958,-0.000903,0.04,-0.30,9.82,33.62,0.023436,0.033024,-0.001065
549504166,0.002075,-0.000107,-0.000903,0.02,-0.28,9.80,33.62,0.024501,0.035154,-0.001065
549505157,0.003140,-0.000107,0.001227,0.00,-0.28,9.81,33.62,0.024501,0.036220,0.001065
549506168,0.001010,0.000958,0.001227,0.01,-0.28,9.85,33.62,0.023436,0.034089,0.001065
549507174,-0.000055,-0.000107,0.001227,0.00,-0.28,9.87,33.62,0.024501,0.033024,0.001065
549508192,-0.000055,-0.000107,0.001227,0.01,-0.30,9.86,33.62,0.024501,0.033024,0.001065
549509198,0.002075,-0.001173,0.000162,0.02,-0.29,9.82,33.67,0.025567,0.035154,0.000000
549510207,0.002075,-0.004368,0.000162,0.01,-0.30,9.80,33.68,0.028763,0.035154,0.000000
549511216,-0.000055,-0.002238,0.000162,0.01,-0.33,9.84,33.68,0.026632,0.033024,0.000000
549512237,-0.002186,-0.000107,0.001227,-0.02,-0.33,9.86,33.67,0.024501,0.030893,0.001065
549513242,-0.002186,-0.000107,0.000162,-0.02,-0.29,9.86,33.62,0.024501,0.030893,0.000000
549514259,-0.000055,0.000958,-0.001969,0.01,-0.27,9.84,33.63,0.023436,0.033024,-0.002131
549515255,-0.001121,-0.000107,-0.003034,0.02,-0.30,9.79,33.63,0.024501,0.031958,-0.003196
549516265,-0.002186,-0.002238,-0.003034,0.00,-0.31,9.82,33.62,0.026632,0.030893,-0.003196
549517275,-0.001121,-0.003303,-0.001969,0.00,-0.29,9.86,33.66,0.027697,0.031958,-0.002131
549518293,0.001010,-0.002238,-0.001969,0.02,-0.29,9.81,33.65,0.026632,0.034089,-0.002131
549519295,0.002075,-0.001173,-0.003034,0.03,-0.28,9.81,33.62,0.025567,0.035154,-0.003196
549520305,0.001010,0.002023,-0.001969,0.03,-0.26,9.86,33.62,0.022371,0.034089,-0.002131
549521315,-0.000055,0.003088,-0.001969,0.03,-0.25,9.89,33.63,0.021306,0.033024,-0.002131
549522337,0.002075,-0.000107,-0.003034,0.04,-0.26,9.87,33.64,0.024501,0.035154,-0.003196
549523343,0.003140,-0.003303,-0.003034,0.04,-0.25,9.83,33.66,0.027697,0.036220,-0.003196
549524358,0.003140,-0.002238,-0.000903,0.03,-0.26,9.83,33.67,0.026632,0.036220,-0.001065
549525354,0.001010,0.000958,0.001227,0.02,-0.27,9.82,33.63,0.023436,0.034089,0.001065
549526364,-0.001121,0.003088,0.000162,0.02,-0.28,9.78,33.63,0.021306,0.031958,0.000000
549527374,-0.003251,0.005219,-0.000903,0.03,-0.29,9.78,33.62,0.019175,0.029828,-0.001065
549528390,-0.005382,0.004154,0.000162,0.02,-0.30,9.81,33.59,0.020240,0.027697,0.000000
549529394,-0.003251,-0.000107,0.001227,0.02,-0.31,9.78,33.62,0.024501,0.029828,0.001065
549530404,-0.000055,-0.002238,0.001227,0.02,-0.29,9.74,33.60,0.026632,0.033024,0.001065
549531414,0.002075,-0.002238,0.002292,0.02,-0.28,9.75,33.63,0.026632,0.035154,0.002131
549532437,0.005271,-0.001173,0.001227,0.00,-0.29,9.82,33.66,0.025567,0.038350,0.001065
549533442,0.005271,-0.002238,0.001227,0.00,-0.29,9.84,33.65,0.026632,0.038350,0.001065
549534459,0.003140,-0.002238,0.002292,0.02,-0.28,9.86,33.64,0.026632,0.036220,0.002131
549535455,-0.000055,-0.001173,0.003358,0.02,-0.26,9.88,33.65,0.025567,0.033024,0.003196
549536465,-0.000055,0.000958,0.003358,0.02,-0.29,9.81,33.65,0.023436,0.033024,0.003196
549537475,-0.000055,0.002023,0.000162,0.00,-0.30,9.78,33.66,0.022371,0.033024,0.000000
549538493,0.001010,0.003088,-0.001969,-0.01,-0.28,9.79,33.66,0.021306,0.034089,-0.002131
549539495,0.001010,0.002023,-0.001969,0.03,-0.29,9.79,33.67,0.022371,0.034089,-0.002131
549540505,0.002075,0.002023,-0.001969,0.05,-0.29,9.80,33.69,0.022371,0.035154,-0.002131
549541515,0.001010,0.000958,0.001227,0.04,-0.28,9.82,33.67,0.023436,0.034089,0.001065
549542537,-0.002186,-0.001173,0.002292,0.04,-0.28,9.78,33.69,0.025567,0.030893,0.002131
549543543,-0.003251,-0.001173,0.000162,0.02,-0.28,9.83,33.70,0.025567,0.029828,0.000000
549544558,-0.000055,0.003088,-0.001969,0.02,-0.27,9.90,33.67,0.021306,0.033024,-0.002131
549545554,0.002075,0.003088,-0.001969,0.03,-0.27,9.87,33.67,0.021306,0.035154,-0.002131
549546564,-0.000055,-0.001173,-0.000903,0.01,-0.29,9.85,33.71,0.025567,0.033024,-0.001065
549547574,-0.002186,-0.004368,0.000162,0.01,-0.31,9.81,33.65,0.028763,0.030893,0.000000
549548590,-0.002186,-0.003303,0.000162,0.02,-0.31,9.76,33.63,0.027697,0.030893,0.000000
549549594,-0.001121,-0.001173,0.001227,0.01,-0.29,9.81,33.66,0.025567,0.031958,0.001065
549550604,-0.002186,0.000958,0.002292,0.02,-0.31,9.86,33.68,0.023436,0.030893,0.002131
549551614,-0.003251,0.002023,0.001227,0.04,-0.32,9.79,33.63,0.022371,0.029828,0.001065
549552637,-0.002186,0.002023,-0.001969,0.01,-0.27,9.83,33.64,0.022371,0.030893,-0.002131
549553645,-0.000055,0.000958,0.000162,0.02,-0.27,9.85,33.65,0.023436,0.033024,0.000000
549554659,0.002075,-0.000107,0.000162,0.04,-0.28,9.83,33.61,0.024501,0.035154,0.000000
549555655,0.002075,-0.001173,-0.001969,0.04,-0.29,9.84,33.58,0.025567,0.035154,-0.002131
549556665,0.001010,-0.001173,-0.000903,0.03,-0.27,9.84,33.58,0.025567,0.034089,-0.001065
549557675,-0.000055,-0.002238,0.000162,0.03,-0.28,9.84,33.61,0.026632,0.033024,0.000000
549558693,-0.002186,-0.001173,0.001227,0.02,-0.29,9.83,33.64,0.025567,0.030893,0.001065
549559695,-0.003251,-0.001173,0.003358,0.03,-0.30,9.79,33.65,0.025567,0.029828,0.003196
549560731,-0.002186,-0.001173,0.002292,0.06,-0.33,9.79,33.65,0.025567,0.030893,0.002131
549561727,-0.000055,-0.000107,0.001227,0.02,-0.33,9.79,33.67,0.024501,0.033024,0.001065
549562748,0.002096,0.000982,0.000121,-0.01,-0.31,9.78,33.65,0.023436,0.035154,0.000000
549563743,0.005292,0.002047,-0.002009,0.02,-0.31,9.78,33.65,0.022371,0.038350,-0.002131
549564758,0.004226,0.004178,-0.000944,0.04,-0.29,9.82,33.59,0.020240,0.037285,-0.001065
549565754,0.003161,0.004178,0.000121,0.02,-0.30,9.82,33.62,0.020240,0.036220,0.000000
549566764,0.003161,0.003112,0.000121,0.01,-0.31,9.78,33.65,0.021306,0.036220,0.000000
549567774,0.002096,0.002047,0.001187,0.02,-0.30,9.76,33.65,0.022371,0.035154,0.001065
549568790,0.002096,-0.000083,0.001187,0.03,-0.32,9.78,33.65,0.024501,0.035154,0.001065
549569794,-0.000035,-0.001149,0.001187,0.00,-0.30,9.86,33.65,0.025567,0.033024,0.001065
549570804,-0.002165,-0.001149,0.001187,0.02,-0.30,9.89,33.69,0.025567,0.030893,0.001065
549571827,-0.000035,-0.001149,-0.000944,0.04,-0.30,9.89,33.69,0.025567,0.033024,-0.001065
549572824,0.001031,-0.001149,-0.002009,0.00,-0.28,9.84,33.65,0.025567,0.034089,-0.002131
549573856,-0.000035,-0.001149,-0.002009,0.01,-0.28,9.82,33.64,0.025567,0.033024,-0.002131
549574845,-0.001100,-0.000083,-0.002009,0.03,-0.29,9.80,33.65,0.024501,0.031958,-0.002131
549575855,-0.001100,-0.001149,-0.002009,0.00,-0.30,9.78,33.70,0.025567,0.031958,-0.002131
549576865,0.001031,-0.003279,0.000121,-0.01,-0.31,9.78,33.63,0.027697,0.034089,0.000000
549577875,0.001031,-0.004345,-0.000944,0.00,-0.30,9.79,33.60,0.028763,0.034089,-0.001065
549578893,-0.000035,-0.003279,-0.003075,0.01,-0.26,9.80,33.64,0.027697,0.033024,-0.003196
549579895,-0.001100,-0.002214,-0.002009,-0.01,-0.25,9.78,33.61,0.026632,0.031958,-0.002131
549580905,-0.001100,-0.000083,0.000121,-0.02,-0.27,9.80,33.59,0.024501,0.031958,0.000000
549581927,-0.001100,0.002047,0.000121,-0.02,-0.29,9.79,33.59,0.022371,0.031958,0.000000
549582925,-0.000035,0.000982,-0.000944,-0.01,-0.31,9.78,33.62,0.023436,0.033024,-0.001065
549583956,-0.000035,0.000982,-0.000944,0.03,-0.29,9.79,33.68,0.023436,0.033024,-0.001065
549584944,-0.002165,0.002047,0.000121,0.05,-0.28,9.82,33.72,0.022371,0.030893,0.000000
549585955,-0.003231,0.002047,0.001187,0.03,-0.32,9.82,33.72,0.022371,0.029828,0.001065
549586967,-0.003231,0.002047,0.001187,0.05,-0.31,9.80,33.66,0.022371,0.029828,0.001065
549587976,-0.001100,0.000982,0.001187,0.06,-0.30,9.83,33.68,0.023436,0.031958,0.001065
549589000,-0.000035,0.000982,0.000121,0.04,-0.28,9.82,33.65,0.023436,0.033024,0.000000
549590004,-0.000035,0.000982,0.000121,0.00,-0.28,9.80,33.66,0.023436,0.033024,0.000000
549591011,-0.000035,0.002047,0.000121,0.02,-0.29,9.82,33.70,0.022371,0.033024,0.000000
549592039,-0.000035,0.002047,0.000121,0.04,-0.28,9.81,33.70,0.022371,0.033024,0.000000
549593034,-0.000035,0.000982,0.001187,0.03,-0.26,9.84,33.71,0.023436,0.033024,0.001065
549594069,-0.000035,0.000982,0.000121,0.02,-0.28,9.82,33.68,0.023436,0.033024,0.000000
549595056,-0.000035,-0.000083,0.000121,0.01,-0.27,9.78,33.68,0.024501,0.033024,0.000000
549596071,-0.000035,0.000982,-0.000944,0.01,-0.26,9.79,33.68,0.023436,0.033024,-0.001065
549597076,0.002096,0.000982,-0.000944,0.00,-0.28,9.80,33.65,0.023436,0.035154,-0.001065
549598091,0.004226,-0.000083,-0.000944,-0.02,-0.28,9.78,33.63,0.024501,0.037285,-0.001065
549599105,0.004226,-0.002214,0.000121,0.00,-0.29,9.79,33.65,0.026632,0.037285,0.000000
549600112,0.002096,-0.001149,0.000121,0.02,-0.32,9.83,33.64,0.025567,0.035154,0.000000
549601114,0.001031,0.000982,0.000121,0.03,-0.30,9.83,33.59,0.023436,0.034089,0.000000
549602134,-0.000035,0.002047,-0.002009,0.03,-0.27,9.83,33.60,0.022371,0.033024,-0.002131
549603138,-0.000035,-0.000083,-0.002009,0.02,-0.28,9.80,33.61,0.024501,0.033024,-0.002131
549604163,-0.000035,-0.001149,-0.000944,0.00,-0.30,9.84,33.59,0.025567,0.033024,-0.001065
549605149,-0.002165,-0.000083,-0.002009,-0.01,-0.32,9.83,33.62,0.024501,0.030893,-0.002131
549606157,-0.002165,-0.000083,-0.003075,0.00,-0.31,9.85,33.62,0.024501,0.030893,-0.003196
549607168,-0.003231,0.000982,-0.003075,0.04,-0.28,9.86,33.60,0.023436,0.029828,-0.003196
549608174,-0.003231,0.002047,-0.000944,0.06,-0.27,9.80,33.64,0.022371,0.029828,-0.001065
549609192,-0.002165,-0.000083,0.001187,0.03,-0.29,9.78,33.66,0.024501,0.030893,0.001065
549610198,-0.002165,-0.004345,0.000121,0.01,-0.28,9.81,33.65,0.028763,0.030893,0.000000
549611207,-0.001100,-0.007540,0.000121,0.01,-0.29,9.84,33.62,0.031958,0.031958,0.000000
549612229,0.001031,-0.006475,0.000121,0.00,-0.30,9.89,33.62,0.030893,0.034089,0.000000
549613224,0.001031,-0.003279,0.000121,0.00,-0.29,9.84,33.64,0.027697,0.034089,0.000000
549614256,-0.000035,-0.001149,-0.000944,-0.01,-0.27,9.78,33.68,0.025567,0.033024,-0.001065
549615245,-0.001100,-0.001149,-0.000944,0.03,-0.29,9.82,33.64,0.025567,0.031958,-0.001065
549616255,-0.000035,-0.002214,-0.000944,0.04,-0.31,9.85,33.66,0.026632,0.033024,-0.001065
549617265,0.001031,-0.002214,-0.000944,0.04,-0.28,9.82,33.68,0.026632,0.034089,-0.001065
549618275,0.001031,-0.002214,0.001187,0.02,-0.27,9.83,33.68,0.026632,0.034089,0.001065
549619293,-0.001100,-0.001149,0.002252,0.00,-0.27,9.84,33.68,0.025567,0.031958,0.002131
549620295,-0.002165,-0.000083,0.000121,0.00,-0.28,9.80,33.68,0.024501,0.030893,0.000000
549621305,-0.002165,-0.000083,0.000121,0.00,-0.31,9.79,33.65,0.024501,0.030893,0.000000
549622327,-0.001100,-0.002214,0.001187,0.03,-0.31,9.79,33.68,0.026632,0.031958,0.001065
549623325,0.001031,-0.003279,0.001187,0.02,-0.33,9.81,33.69,0.027697,0.034089,0.001065
549624343,0.002096,-0.001149,0.003317,0.01,-0.30,9.78,33.67,0.025567,0.035154,0.003196
549625345,0.001031,-0.000083,0.003317,0.01,-0.25,9.81,33.65,0.024501,0.034089,0.003196
549626355,-0.000035,-0.000083,0.002252,0.02,-0.27,9.84,33.65,0.024501,0.033024,0.002131
549627365,-0.001100,-0.000083,0.002252,0.04,-0.29,9.80,33.65,0.024501,0.031958,0.002131
549628375,-0.001100,-0.002214,0.002252,0.04,-0.28,9.82,33.66,0.026632,0.031958,0.002131
549629391,-0.000035,-0.004345,0.001187,0.04,-0.30,9.84,33.67,0.028763,0.033024,0.001065
549630395,-0.000035,-0.001149,0.000121,0.04,-0.31,9.78,33.65,0.025567,0.033024,0.000000
549631405,-0.000035,0.000982,-0.002009,0.02,-0.29,9.77,33.65,0.023436,0.033024,-0.002131
549632427,-0.000035,0.002047,-0.005205,0.02,-0.29,9.79,33.67,0.022371,0.033024,-0.005326
549633425,-0.002165,0.002047,-0.004140,0.03,-0.28,9.81,33.68,0.022371,0.030893,-0.004261
549634443,-0.001100,-0.000083,-0.000944,0.03,-0.30,9.80,33.67,0.024501,0.031958,-0.001065
549635445,0.001031,-0.000083,0.001187,0.01,-0.31,9.77,33.64,0.024501,0.034089,0.001065
549636455,0.002096,0.000982,0.001187,0.00,-0.28,9.81,33.63,0.023436,0.035154,0.001065
549637465,0.001031,0.003112,-0.002009,0.01,-0.26,9.83,33.64,0.021306,0.034089,-0.002131
549638475,-0.001100,0.004178,-0.002009,0.02,-0.26,9.82,33.68,0.020240,0.031958,-0.002131
549639493,-0.003231,0.002047,0.000121,0.02,-0.28,9.80,33.64,0.022371,0.029828,0.000000
549640495,-0.004296,-0.001149,0.001187,0.02,-0.30,9.78,33.65,0.025567,0.028763,0.001065
549641505,-0.002165,-0.003279,0.001187,0.02,-0.29,9.78,33.62,0.027697,0.030893,0.001065
549642525,-0.000035,-0.004345,-0.000944,0.04,-0.31,9.78,33.64,0.028763,0.033024,-0.001065
549643525,0.002096,-0.003279,0.000121,0.04,-0.31,9.83,33.66,0.027697,0.035154,0.000000
549644543,0.001031,-0.000083,0.001187,0.03,-0.27,9.86,33.68,0.024501,0.034089,0.001065
549645545,-0.000035,-0.000083,0.000121,0.04,-0.29,9.84,33.68,0.024501,0.033024,0.000000
549646555,-0.002165,-0.000083,0.001187,0.03,-0.30,9.86,33.66,0.024501,0.030893,0.001065
549647565,-0.001100,-0.000083,0.002252,-0.01,-0.30,9.80,33.62,0.024501,0.031958,0.002131
549648575,-0.002165,-0.001149,0.000121,-0.02,-0.33,9.79,33.63,0.025567,0.030893,0.000000
549649591,-0.001100,-0.002214,0.000121,0.00,-0.33,9.85,33.65,0.026632,0.031958,0.000000
549650595,0.001031,-0.002214,0.000121,0.01,-0.30,9.83,33.65,0.026632,0.034089,0.000000
549651605,-0.000035,-0.001149,0.000121,0.02,-0.28,9.84,33.65,0.025567,0.033024,0.000000
549652627,0.001031,-0.001149,0.000121,0.04,-0.28,9.85,33.66,0.025567,0.034089,0.000000
549653625,0.002096,-0.000083,-0.000944,0.04,-0.29,9.78,33.63,0.024501,0.035154,-0.001065
549654643,-0.002165,0.003112,-0.004140,0.02,-0.31,9.80,33.66,0.021306,0.030893,-0.004261
549655645,-0.002165,0.004178,-0.003075,0.01,-0.31,9.80,33.65,0.020240,0.030893,-0.003196
549656655,-0.000035,0.003112,-0.002009,-0.02,-0.30,9.83,33.63,0.021306,0.033024,-0.002131
549657665,0.004226,0.002047,-0.000944,-0.02,-0.31,9.84,33.63,0.022371,0.037285,-0.001065
549658675,0.005292,-0.000083,-0.000944,0.01,-0.32,9.82,33.61,0.024501,0.038350,-0.001065
549659693,0.003161,-0.001149,0.000121,0.01,-0.30,9.82,33.64,0.025567,0.036220,0.000000
549660695,-0.001100,-0.000083,0.000121,0.02,-0.27,9.84,33.67,0.024501,0.031958,0.000000
549661715,-0.003231,-0.000083,0.002252,0.01,-0.28,9.81,33.66,0.024501,0.029828,0.002131
549662715,-0.001100,-0.002214,0.001187,-0.01,-0.30,9.77,33.66,0.026632,0.031958,0.001065
549663725,-0.000035,-0.002214,-0.000944,0.00,-0.29,9.78,33.61,0.026632,0.033024,-0.001065
549664743,-0.000035,-0.000083,0.000121,0.01,-0.26,9.81,33.63,0.024501,0.033024,0.000000
549665745,0.001031,0.002047,0.001187,0.00,-0.26,9.83,33.65,0.022371,0.034089,0.001065
549666755,-0.000035,0.002047,0.001187,0.00,-0.28,9.81,33.68,0.022371,0.033024,0.001065
549667765,0.001031,-0.001149,0.000121,0.00,-0.29,9.76,33.64,0.025567,0.034089,0.000000
549668775,0.002096,-0.002214,0.001187,-0.01,-0.29,9.79,33.66,0.026632,0.035154,0.001065
549669791,0.004226,-0.000083,0.001187,-0.01,-0.28,9.79,33.66,0.024501,0.037285,0.001065
549670795,0.002096,0.003112,0.000121,0.00,-0.28,9.74,33.67,0.021306,0.035154,0.000000
549671817,-0.002165,0.003112,-0.002009,0.03,-0.28,9.79,33.64,0.021306,0.030893,-0.002131
549672815,-0.004296,0.002047,-0.003075,0.02,-0.28,9.83,33.66,0.022371,0.028763,-0.003196
549673825,-0.002165,0.000982,-0.002009,0.01,-0.26,9.83,33.66,0.023436,0.030893,-0.002131
549674843,0.001031,-0.000083,-0.002009,0.00,-0.24,9.82,33.68,0.024501,0.034089,-0.002131
549675845,0.002096,-0.000083,-0.003075,0.00,-0.26,9.81,33.66,0.024501,0.035154,-0.003196
549676855,0.001031,-0.000083,-0.000944,0.02,-0.27,9.81,33.68,0.024501,0.034089,-0.001065
549677865,-0.000035,0.000982,0.002252,0.03,-0.30,9.85,33.67,0.023436,0.033024,0.002131
549678875,-0.002165,0.004178,0.002252,0.03,-0.32,9.86,33.69,0.020240,0.030893,0.002131
549679893,-0.001100,0.002047,0.001187,0.04,-0.31,9.80,33.65,0.022371,0.031958,0.001065
549680895,-0.000035,0.000982,-0.000944,0.03,-0.28,9.81,33.64,0.023436,0.033024,-0.001065
549681915,0.001031,-0.000083,-0.000944,0.03,-0.28,9.86,33.64,0.024501,0.034089,-0.001065
549682915,-0.000035,-0.000083,0.000121,0.04,-0.28,9.84,33.58,0.024501,0.033024,0.000000
549683925,-0.000035,0.000982,0.001187,0.02,-0.30,9.83,33.59,0.023436,0.033024,0.001065
549684943,-0.000035,0.003112,0.000121,0.01,-0.29,9.84,33.61,0.021306,0.033024,0.000000
549685945,-0.002165,0.003112,-0.000944,0.02,-0.29,9.83,33.62,0.021306,0.030893,-0.001065
549686955,-0.004296,0.003112,-0.003075,0.02,-0.29,9.78,33.64,0.021306,0.028763,-0.003196
549687966,-0.003231,0.000982,-0.000944,-0.02,-0.29,9.77,33.63,0.023436,0.029828,-0.001065
549688977,-0.003231,-0.002214,-0.000944,-0.05,-0.29,9.75,33.67,0.026632,0.029828,-0.001065
549690001,-0.002165,-0.003279,-0.003075,-0.02,-0.28,9.78,33.68,0.027697,0.030893,-0.003196
549691003,-0.001100,-0.000083,-0.004140,0.03,-0.28,9.86,33.65,0.024501,0.031958,-0.004261
549692053,-0.000018,0.002049,-0.003035,0.04,-0.29,9.82,33.65,0.022371,0.033024,-0.003196
549693026,-0.000018,0.003114,-0.003035,0.04,-0.28,9.81,33.64,0.021306,0.033024,-0.003196
549694033,-0.001083,0.002049,-0.001970,0.04,-0.26,9.83,33.65,0.022371,0.031958,-0.002131
549695055,-0.002148,-0.000081,0.001226,0.04,-0.29,9.82,33.67,0.024501,0.030893,0.001065
549696060,-0.002148,-0.002212,0.003357,0.04,-0.32,9.78,33.65,0.026632,0.030893,0.003196
549697066,-0.001083,-0.002212,0.003357,0.04,-0.31,9.79,33.63,0.026632,0.031958,0.003196
549698076,0.001048,-0.003277,0.001226,0.00,-0.29,9.83,33.62,0.027697,0.034089,0.001065
549699087,0.003178,-0.002212,0.001226,0.00,-0.27,9.83,33.63,0.026632,0.036220,0.001065
549700108,0.002113,-0.000081,0.000161,0.01,-0.25,9.82,33.60,0.024501,0.035154,0.000000
549701105,-0.002148,0.000984,-0.001970,0.00,-0.28,9.80,33.62,0.023436,0.030893,-0.002131
549702125,-0.003213,0.000984,-0.003035,0.01,-0.30,9.81,33.60,0.023436,0.029828,-0.003196
549703122,-0.002148,-0.000081,-0.001970,0.02,-0.28,9.81,33.67,0.024501,0.030893,-0.002131
549704135,-0.002148,-0.001147,-0.000904,0.02,-0.26,9.81,33.68,0.025567,0.030893,-0.001065
549705151,-0.002148,-0.001147,0.001226,-0.01,-0.27,9.81,33.64,0.025567,0.030893,0.001065
549706152,-0.002148,-0.001147,0.001226,-0.02,-0.27,9.81,33.62,0.025567,0.030893,0.001065
549707158,-0.001083,-0.002212,0.001226,-0.01,-0.30,9.81,33.62,0.026632,0.031958,0.001065
549708168,-0.000018,-0.003277,0.001226,0.04,-0.35,9.81,33.63,0.027697,0.033024,0.001065
549709175,0.001048,-0.001147,0.002291,0.04,-0.32,9.80,33.62,0.025567,0.034089,0.002131
549710194,0.002113,0.000984,0.001226,0.04,-0.29,9.84,33.62,0.023436,0.035154,0.001065
549711199,0.002113,0.002049,0.000161,0.04,-0.28,9.85,33.65,0.022371,0.035154,0.000000
549712220,0.001048,0.002049,0.000161,0.00,-0.28,9.83,33.62,0.022371,0.034089,0.000000
549713217,-0.001083,0.002049,0.002291,0.00,-0.28,9.81,33.63,0.022371,0.031958,0.002131
549714225,-0.003213,0.002049,0.004422,-0.01,-0.30,9.80,33.65,0.022371,0.029828,0.004261
549715243,-0.003213,0.002049,0.004422,0.00,-0.30,9.81,33.62,0.022371,0.029828,0.004261
549716245,-0.001083,0.000984,0.003357,0.03,-0.28,9.79,33.64,0.023436,0.031958,0.003196
549717255,-0.000018,0.003114,0.002291,0.01,-0.26,9.80,33.67,0.021306,0.033024,0.002131
549718265,-0.000018,0.004180,-0.000904,0.01,-0.28,9.84,33.68,0.020240,0.033024,-0.001065
549719275,-0.001083,0.002049,0.001226,0.03,-0.31,9.85,33.64,0.022371,0.031958,0.001065
549720293,-0.002148,0.000984,0.002291,0.03,-0.31,9.83,33.63,0.023436,0.030893,0.002131
549721295,-0.002148,-0.001147,0.002291,0.02,-0.29,9.80,33.63,0.025567,0.030893,0.002131
549722313,-0.001083,-0.002212,0.001226,0.01,-0.27,9.77,33.66,0.026632,0.031958,0.001065
549723315,-0.000018,-0.002212,-0.001970,0.01,-0.27,9.82,33.63,0.026632,0.033024,-0.002131
549724325,0.001048,-0.001147,-0.003035,-0.02,-0.28,9.85,33.66,0.025567,0.034089,-0.003196
549725343,0.002113,0.000984,-0.003035,-0.02,-0.26,9.84,33.67,0.023436,0.035154,-0.003196
549726345,0.001048,0.002049,-0.003035,-0.01,-0.26,9.83,33.69,0.022371,0.034089,-0.003196
549727355,-0.000018,0.002049,-0.003035,0.01,-0.28,9.82,33.66,0.022371,0.033024,-0.003196
549728365,-0.002148,0.002049,-0.004100,0.03,-0.30,9.83,33.63,0.022371,0.030893,-0.004261
549729375,-0.002148,0.000984,-0.006231,0.06,-0.30,9.84,33.62,0.023436,0.030893,-0.006392
549730391,0.002113,-0.000081,-0.005166,0.04,-0.29,9.85,33.64,0.024501,0.035154,-0.005326
549731395,0.004244,0.000984,-0.000904,-0.02,-0.27,9.88,33.69,0.023436,0.037285,-0.001065
549732417,0.002113,-0.000081,0.001226,0.00,-0.31,9.88,33.65,0.024501,0.035154,0.001065
549733415,-0.000018,0.000984,0.002291,0.02,-0.34,9.86,33.65,0.023436,0.033024,0.002131
549734425,-0.000018,0.000984,0.003357,0.00,-0.28,9.84,33.65,0.023436,0.033024,0.003196
549735443,0.001048,-0.000081,0.002291,0.01,-0.27,9.81,33.62,0.024501,0.034089,0.002131
549736445,0.002113,0.000984,0.000161,0.04,-0.32,9.82,33.63,0.023436,0.035154,0.000000
549737455,-0.000018,-0.000081,-0.000904,0.05,-0.34,9.82,33.62,0.024501,0.033024,-0.001065
549738465,-0.002148,-0.001147,0.000161,0.02,-0.33,9.86,33.64,0.025567,0.030893,0.000000
549739475,-0.003213,-0.001147,0.000161,0.02,-0.32,9.87,33.65,0.025567,0.029828,0.000000
549740493,-0.003213,-0.000081,0.000161,0.05,-0.33,9.85,33.59,0.024501,0.029828,0.000000
549741495,-0.003213,0.002049,0.000161,0.04,-0.33,9.83,33.58,0.022371,0.029828,0.000000
549742514,-0.002148,0.003114,-0.000904,0.02,-0.32,9.84,33.62,0.021306,0.030893,-0.001065
549743515,-0.000018,0.002049,-0.001970,-0.01,-0.32,9.88,33.66,0.022371,0.033024,-0.002131
549744525,0.003178,0.000984,-0.000904,-0.01,-0.28,9.84,33.69,0.023436,0.036220,-0.001065
549745543,0.003178,-0.002212,0.001226,-0.03,-0.26,9.80,33.66,0.026632,0.036220,0.001065
549746545,0.001048,-0.002212,0.000161,-0.01,-0.27,9.84,33.63,0.026632,0.034089,0.000000
549747555,-0.002148,-0.001147,0.000161,0.04,-0.27,9.83,33.66,0.025567,0.030893,0.000000
549748565,-0.001083,-0.000081,-0.000904,0.05,-0.28,9.81,33.63,0.024501,0.031958,-0.001065
549749575,0.002113,-0.001147,-0.000904,0.06,-0.28,9.82,33.66,0.025567,0.035154,-0.001065
549750591,0.002113,-0.002212,-0.000904,0.03,-0.30,9.77,33.66,0.026632,0.035154,-0.001065
549751595,0.003178,-0.003277,-0.000904,0.03,-0.34,9.76,33.63,0.027697,0.036220,-0.001065
549752615,0.002113,-0.003277,-0.000904,0.04,-0.31,9.78,33.66,0.027697,0.035154,-0.001065
549753615,0.001048,-0.001147,-0.000904,0.00,-0.29,9.83,33.64,0.025567,0.034089,-0.001065
549754625,0.001048,-0.000081,-0.000904,-0.01,-0.32,9.80,33.65,0.024501,0.034089,-0.001065
549755643,0.001048,0.002049,-0.000904,-0.02,-0.29,9.78,33.67,0.022371,0.034089,-0.001065
549756645,0.003178,0.004180,0.001226,-0.01,-0.24,9.82,33.69,0.020240,0.036220,0.001065
549757655,0.004244,0.005245,0.002291,0.00,-0.25,9.86,33.67,0.019175,0.037285,0.002131
549758665,0.003178,0.003114,0.001226,-0.01,-0.27,9.84,33.70,0.021306,0.036220,0.001065
549759675,0.002113,-0.002212,0.002291,0.00,-0.30,9.82,33.73,0.026632,0.035154,0.002131
549760693,0.001048,-0.004343,0.002291,-0.01,-0.32,9.79,33.70,0.028763,0.034089,0.002131
549761704,0.001048,-0.003277,0.001226,0.01,-0.29,9.82,33.67,0.027697,0.034089,0.001065
549762705,0.003178,-0.002212,0.000161,0.04,-0.27,9.84,33.66,0.026632,0.036220,0.000000
549763715,0.005309,-0.002212,0.000161,0.02,-0.28,9.83,33.67,0.026632,0.038350,0.000000
549764766,0.003178,-0.002212,0.000161,0.00,-0.31,9.77,33.68,0.026632,0.036220,0.000000
549765743,0.001048,-0.002212,-0.000904,0.00,-0.33,9.75,33.65,0.026632,0.034089,-0.001065
549766745,0.001048,-0.001147,-0.000904,0.01,-0.33,9.79,33.67,0.025567,0.034089,-0.001065
549767755,0.001048,-0.001147,-0.000904,0.02,-0.31,9.82,33.66,0.025567,0.034089,-0.001065
549768765,0.001048,-0.001147,-0.000904,0.02,-0.28,9.80,33.64,0.025567,0.034089,-0.001065
549769775,-0.000018,-0.002212,-0.001970,-0.01,-0.32,9.78,33.65,0.026632,0.033024,-0.002131
549770791,-0.001083,-0.002212,-0.003035,0.01,-0.31,9.81,33.65,0.026632,0.031958,-0.003196
549771805,-0.001083,-0.002212,-0.000904,0.02,-0.31,9.85,33.64,0.026632,0.031958,-0.001065
549772805,0.001048,-0.001147,-0.000904,0.00,-0.34,9.86,33.65,0.025567,0.034089,-0.001065
549773815,0.002113,-0.001147,-0.001970,0.03,-0.29,9.82,33.65,0.025567,0.035154,-0.002131
549774825,0.002113,-0.002212,-0.004100,0.08,-0.27,9.80,33.65,0.026632,0.035154,-0.004261
549775881,-0.000018,-0.001147,-0.004100,0.06,-0.31,9.85,33.65,0.025567,0.033024,-0.004261
549776866,-0.000018,0.000984,-0.003035,0.00,-0.31,9.84,33.63,0.023436,0.033024,-0.003196
549777855,-0.000018,0.000984,-0.000904,0.00,-0.31,9.81,33.64,0.023436,0.033024,-0.001065
549778865,0.002113,-0.000081,0.001226,0.04,-0.30,9.84,33.66,0.024501,0.035154,0.001065
549779875,0.002113,-0.002212,-0.000904,0.03,-0.27,9.81,33.64,0.026632,0.035154,-0.001065
549780893,0.001048,-0.002212,-0.001970,-0.01,-0.26,9.82,33.64,0.026632,0.034089,-0.002131
549781904,-0.001083,-0.002212,-0.000904,0.01,-0.29,9.82,33.66,0.026632,0.031958,-0.001065
549782905,-0.000018,-0.002212,0.000161,0.04,-0.32,9.81,33.65,0.026632,0.033024,0.000000
549783915,0.002113,-0.003277,0.000161,0.02,-0.31,9.85,33.62,0.027697,0.035154,0.000000
549784925,0.001048,-0.001147,-0.000904,0.01,-0.31,9.85,33.64,0.025567,0.034089,-0.001065
549785943,-0.002148,-0.001147,-0.000904,0.02,-0.34,9.83,33.65,0.025567,0.030893,-0.001065
549786945,-0.003213,-0.003277,-0.001970,0.01,-0.31,9.80,33.66,0.027697,0.029828,-0.002131
549787955,-0.003213,-0.005408,-0.000904,0.02,-0.28,9.83,33.66,0.029828,0.029828,-0.001065
549788966,-0.001083,-0.005408,0.000161,0.03,-0.28,9.84,33.62,0.029828,0.031958,0.000000
549789977,-0.001083,-0.004343,0.002291,0.02,-0.26,9.79,33.65,0.028763,0.031958,0.002131
549791001,-0.002148,-0.001147,0.003357,0.02,-0.30,9.79,33.67,0.025567,0.030893,0.003196
549792018,-0.002148,0.002049,0.002291,0.00,-0.30,9.83,33.67,0.022371,0.030893,0.002131
549793014,-0.001083,0.002049,0.002291,0.00,-0.31,9.85,33.70,0.022371,0.031958,0.002131
549794026,-0.000018,0.002049,0.003357,0.02,-0.32,9.84,33.70,0.022371,0.033024,0.003196
549795033,0.003178,-0.000081,0.004422,0.03,-0.31,9.81,33.62,0.024501,0.036220,0.004261
549796055,0.004244,-0.000081,0.002291,0.01,-0.27,9.78,33.65,0.024501,0.037285,0.002131
549797060,0.002113,-0.001147,0.000161,0.02,-0.28,9.79,33.65,0.025567,0.035154,0.000000
549798066,-0.001083,-0.003277,-0.001970,0.03,-0.29,9.84,33.66,0.027697,0.031958,-0.002131
549799076,-0.002148,-0.006473,0.000161,0.00,-0.30,9.86,33.63,0.030893,0.030893,0.000000
549800087,-0.001083,-0.005408,0.002291,0.03,-0.30,9.85,33.63,0.029828,0.031958,0.002131
549801108,0.001048,-0.003277,0.003357,0.06,-0.29,9.83,33.65,0.027697,0.034089,0.003196
549802114,-0.000018,-0.002212,0.002291,0.03,-0.29,9.81,33.67,0.026632,0.033024,0.002131
549803115,-0.001083,-0.001147,0.001226,0.01,-0.28,9.86,33.62,0.025567,0.031958,0.001065
549804122,-0.000018,0.000984,0.000161,-0.02,-0.28,9.84,33.63,0.023436,0.033024,0.000000
549805135,-0.000018,0.002049,0.000161,-0.02,-0.26,9.81,33.67,0.022371,0.033024,0.000000
549806151,-0.001083,0.000984,-0.000904,0.01,-0.26,9.78,33.65,0.023436,0.031958,-0.001065
549807152,-0.001083,-0.001147,0.000161,0.01,-0.27,9.81,33.67,0.025567,0.031958,0.000000
549808158,-0.000018,-0.003277,-0.000904,-0.01,-0.29,9.86,33.66,0.027697,0.033024,-0.001065
549809168,-0.001083,-0.002212,-0.000904,-0.03,-0.29,9.87,33.67,0.026632,0.031958,-0.001065
549810175,-0.000018,-0.001147,-0.000904,-0.01,-0.29,9.87,33.68,0.025567,0.033024,-0.001065
549811201,0.001048,-0.000081,-0.000904,0.02,-0.29,9.83,33.68,0.024501,0.034089,-0.001065
549812211,-0.000018,-0.000081,-0.000904,0.03,-0.27,9.80,33.69,0.024501,0.033024,-0.001065
549813208,-0.000018,-0.000081,-0.000904,0.01,-0.26,9.78,33.68,0.024501,0.033024,-0.001065
549814217,-0.000018,-0.001147,-0.001970,-0.02,-0.23,9.80,33.64,0.025567,0.033024,-0.002131
549815225,-0.001083,-0.000081,-0.000904,0.02,-0.27,9.80,33.65,0.024501,0.031958,-0.001065
549816243,-0.002148,0.000984,-0.000904,0.04,-0.31,9.80,33.65,0.023436,0.030893,-0.001065
549817245,-0.001083,0.000984,-0.000904,0.04,-0.28,9.82,33.65,0.023436,0.031958,-0.001065
549818255,0.001048,-0.000081,-0.000904,0.04,-0.27,9.81,33.60,0.024501,0.034089,-0.001065
549819265,-0.001083,-0.003277,0.000161,0.00,-0.30,9.81,33.65,0.027697,0.031958,0.000000
549820275,-0.002148,-0.003277,-0.000904,-0.01,-0.32,9.82,33.66,0.027697,0.030893,-0.001065
549821313,-0.003221,-0.002139,-0.003026,-0.01,-0.30,9.84,33.64,0.026632,0.029828,-0.003196
549822302,-0.004287,-0.002139,-0.001961,-0.01,-0.29,9.80,33.64,0.026632,0.028763,-0.002131
549823305,-0.002156,-0.002139,0.000169,0.01,-0.30,9.77,33.59,0.026632,0.030893,0.000000
549824315,-0.000025,-0.002139,0.001235,0.05,-0.27,9.76,33.63,0.026632,0.033024,0.001065
549825325,0.001040,-0.002139,0.000169,0.04,-0.27,9.77,33.68,0.026632,0.034089,0.000000
549826343,-0.000025,-0.001074,-0.001961,0.04,-0.28,9.85,33.66,0.025567,0.033024,-0.002131
549827345,-0.001091,-0.001074,-0.000896,0.02,-0.30,9.86,33.65,0.025567,0.031958,-0.001065
549828355,-0.001091,-0.000008,0.001235,0.01,-0.31,9.80,33.64,0.024501,0.031958,0.001065
549829365,0.001040,-0.001074,0.002300,0.01,-0.28,9.78,33.63,0.025567,0.034089,0.002131
549830375,-0.000025,-0.001074,0.003365,0.01,-0.26,9.81,33.65,0.025567,0.033024,0.003196
549831391,-0.000025,-0.001074,0.001235,0.01,-0.28,9.81,33.65,0.025567,0.033024,0.001065
549832405,-0.000025,-0.001074,0.000169,-0.01,-0.31,9.78,33.64,0.025567,0.033024,0.000000
549833405,-0.000025,-0.000008,0.000169,-0.03,-0.32,9.79,33.62,0.024501,0.033024,0.000000
549834415,-0.000025,0.001057,0.000169,0.00,-0.28,9.81,33.60,0.023436,0.033024,0.000000
549835425,0.001040,0.001057,0.000169,0.01,-0.28,9.84,33.62,0.023436,0.034089,0.000000
549836443,0.001040,0.001057,0.000169,0.02,-0.28,9.86,33.65,0.023436,0.034089,0.000000
549837445,-0.000025,-0.001074,0.001235,0.04,-0.27,9.84,33.63,0.025567,0.033024,0.001065
549838455,-0.001091,-0.001074,0.001235,0.04,-0.27,9.83,33.68,0.025567,0.031958,0.001065
549839465,-0.001091,-0.000008,0.001235,0.02,-0.25,9.83,33.65,0.024501,0.031958,0.001065
549840475,-0.002156,-0.000008,0.001235,0.02,-0.28,9.83,33.64,0.024501,0.030893,0.001065
549841493,-0.001091,-0.000008,0.001235,0.05,-0.30,9.80,33.64,0.024501,0.031958,0.001065
549842503,0.001040,-0.000008,0.000169,0.03,-0.31,9.80,33.66,0.024501,0.034089,0.000000
549843505,-0.001091,-0.000008,-0.001961,0.02,-0.29,9.81,33.64,0.024501,0.031958,-0.002131
549844515,-0.003221,-0.003204,-0.001961,0.04,-0.26,9.83,33.64,0.027697,0.029828,-0.002131
549845525,-0.002156,-0.002139,0.000169,0.03,-0.28,9.84,33.66,0.026632,0.030893,0.000000
549846543,0.001040,-0.000008,0.000169,0.03,-0.28,9.83,33.62,0.024501,0.034089,0.000000
549847545,0.002105,0.003187,0.001235,0.02,-0.29,9.82,33.65,0.021306,0.035154,0.001065
549848555,0.003170,0.001057,0.001235,-0.01,-0.29,9.80,33.63,0.023436,0.036220,0.001065
549849565,0.002105,-0.001074,0.002300,-0.01,-0.27,9.81,33.66,0.025567,0.035154,0.002131
549850575,-0.000025,-0.000008,0.003365,0.01,-0.27,9.85,33.62,0.024501,0.033024,0.003196
549851591,0.001040,0.003187,0.003365,0.00,-0.26,9.86,33.63,0.021306,0.034089,0.003196
549852604,0.002105,0.004253,0.003365,-0.02,-0.28,9.79,33.61,0.020240,0.035154,0.003196
549853605,0.002105,0.002122,0.002300,-0.03,-0.29,9.75,33.61,0.022371,0.035154,0.002131
549854615,-0.001091,-0.000008,0.000169,-0.02,-0.27,9.79,33.61,0.024501,0.031958,0.000000
549855625,-0.002156,-0.003204,-0.000896,0.02,-0.23,9.86,33.63,0.027697,0.030893,-0.001065
549856643,-0.001091,-0.003204,-0.000896,0.03,-0.24,9.86,33.67,0.027697,0.031958,-0.001065
549857645,-0.000025,-0.004270,0.000169,0.01,-0.27,9.85,33.70,0.028763,0.033024,0.000000
549858655,0.003170,-0.000008,0.001235,-0.01,-0.32,9.80,33.65,0.024501,0.036220,0.001065
549859665,0.004236,0.004253,-0.000896,0.07,-0.32,9.82,33.61,0.020240,0.037285,-0.001065
549860712,0.003170,0.004253,-0.003026,0.07,-0.31,9.83,33.63,0.020240,0.036220,-0.003196
549861700,0.002105,0.003187,-0.001961,0.04,-0.30,9.81,33.62,0.021306,0.035154,-0.002131
549862695,0.001040,0.003187,0.000169,0.03,-0.30,9.82,33.62,0.021306,0.034089,0.000000
549863705,-0.000025,0.003187,0.002300,0.01,-0.32,9.86,33.63,0.021306,0.033024,0.002131
549864715,-0.001091,0.002122,0.001235,0.00,-0.30,9.85,33.64,0.022371,0.031958,0.001065
549865725,-0.001091,-0.000008,-0.000896,0.01,-0.31,9.85,33.64,0.024501,0.031958,-0.001065
549866743,0.001040,-0.000008,-0.001961,0.02,-0.30,9.87,33.63,0.024501,0.034089,-0.002131
549867782,0.003170,-0.000008,-0.001961,0.02,-0.29,9.82,33.64,0.024501,0.036220,-0.002131
549868755,0.003170,0.001057,-0.000896,-0.03,-0.29,9.81,33.66,0.023436,0.036220,-0.001065
549869765,0.001040,-0.000008,0.000169,-0.02,-0.32,9.79,33.65,0.024501,0.034089,0.000000
549870775,0.001040,-0.001074,0.000169,0.02,-0.32,9.83,33.66,0.025567,0.034089,0.000000
549871799,-0.001091,-0.001074,-0.000896,0.00,-0.29,9.84,33.63,0.025567,0.031958,-0.001065
549872795,-0.003221,-0.001074,-0.000896,-0.02,-0.30,9.81,33.65,0.025567,0.029828,-0.001065
549873805,-0.002156,-0.000008,0.000169,0.01,-0.31,9.81,33.67,0.024501,0.030893,0.000000
549874815,-0.000025,-0.000008,-0.000896,0.02,-0.32,9.84,33.67,0.024501,0.033024,-0.001065
549875825,0.001040,0.001057,-0.001961,0.02,-0.29,9.87,33.65,0.023436,0.034089,-0.002131
549876843,0.001040,0.003187,0.000169,0.04,-0.27,9.83,33.63,0.021306,0.034089,0.000000
549877845,0.001040,0.002122,0.001235,0.03,-0.28,9.82,33.68,0.022371,0.034089,0.001065
549878855,-0.000025,-0.001074,0.002300,-0.01,-0.31,9.82,33.67,0.025567,0.033024,0.002131
549879865,-0.001091,-0.003204,0.003365,0.01,-0.31,9.77,33.68,0.027697,0.031958,0.003196
549880875,0.001040,0.001057,0.004431,0.01,-0.30,9.71,33.68,0.023436,0.034089,0.004261
549881900,0.003170,0.003187,0.002300,0.02,-0.32,9.76,33.65,0.021306,0.036220,0.002131
549882895,0.003170,0.002122,0.001235,0.03,-0.32,9.83,33.63,0.022371,0.036220,0.001065
549883905,0.003170,0.001057,0.000169,0.01,-0.30,9.84,33.63,0.023436,0.036220,0.000000
549884915,0.001040,-0.001074,-0.000896,0.00,-0.31,9.81,33.62,0.025567,0.034089,-0.001065
549885925,-0.001091,-0.002139,-0.000896,0.00,-0.30,9.80,33.66,0.026632,0.031958,-0.001065
549886943,-0.000025,-0.001074,-0.000896,0.01,-0.30,9.84,33.65,0.025567,0.033024,-0.001065
549887945,-0.000025,-0.002139,-0.003026,0.01,-0.30,9.83,33.70,0.026632,0.033024,-0.003196
549888955,-0.001091,-0.004270,-0.003026,0.03,-0.30,9.81,33.68,0.028763,0.031958,-0.003196
549889966,-0.000025,-0.002139,-0.001961,0.01,-0.29,9.77,33.69,0.026632,0.033024,-0.002131
549890976,0.001040,-0.000008,0.000169,0.00,-0.27,9.74,33.71,0.024501,0.034089,0.000000
549892007,0.001040,-0.001074,0.001235,0.04,-0.29,9.74,33.70,0.025567,0.034089,0.001065
549893001,0.003170,-0.000008,0.000169,0.04,-0.28,9.78,33.66,0.024501,0.036220,0.000000
549894013,0.002105,0.001057,0.000169,0.00,-0.25,9.81,33.63,0.023436,0.035154,0.000000
549895028,-0.000025,0.001057,0.000169,0.01,-0.27,9.79,33.61,0.023436,0.033024,0.000000
549896033,0.001040,0.001057,0.000169,0.05,-0.31,9.77,33.63,0.023436,0.034089,0.000000
549897056,0.004236,0.001057,-0.000896,0.04,-0.31,9.84,33.65,0.023436,0.037285,-0.001065
549898062,0.004236,0.002122,-0.000896,0.03,-0.30,9.85,33.65,0.022371,0.037285,-0.001065
549899065,0.003170,0.002122,0.000169,0.02,-0.30,9.80,33.62,0.022371,0.036220,0.000000
549900081,0.002105,0.001057,0.000169,0.00,-0.28,9.81,33.60,0.023436,0.035154,0.000000
549901086,0.003170,-0.000008,0.000169,0.01,-0.28,9.84,33.65,0.024501,0.036220,0.000000
549902115,0.003170,-0.003204,0.000169,0.00,-0.28,9.85,33.68,0.027697,0.036220,0.000000
549903106,0.001040,-0.003204,0.000169,0.02,-0.28,9.82,33.67,0.027697,0.034089,0.000000
549904115,-0.001091,-0.001074,0.000169,0.04,-0.27,9.80,33.67,0.025567,0.031958,0.000000
549905123,-0.003221,0.001057,0.001235,0.02,-0.27,9.82,33.66,0.023436,0.029828,0.001065
549906138,-0.002156,0.001057,0.001235,0.02,-0.28,9.87,33.66,0.023436,0.030893,0.001065
549907148,-0.000025,0.001057,0.000169,0.03,-0.26,9.87,33.66,0.023436,0.033024,0.000000
549908149,-0.000025,-0.000008,-0.000896,0.04,-0.26,9.80,33.63,0.024501,0.033024,-0.001065
549909158,-0.001091,-0.000008,-0.000896,0.03,-0.27,9.80,33.65,0.024501,0.031958,-0.001065
549910168,-0.001091,-0.000008,0.000169,0.02,-0.29,9.82,33.65,0.024501,0.031958,0.000000
549911184,-0.001091,0.001057,0.000169,0.04,-0.31,9.81,33.65,0.023436,0.031958,0.000000
549912202,-0.001091,0.001057,0.001235,0.03,-0.30,9.77,33.66,0.023436,0.031958,0.001065
549913199,-0.001091,0.001057,0.002300,0.00,-0.28,9.79,33.65,0.023436,0.031958,0.002131
549914208,-0.001091,0.002122,0.000169,0.00,-0.27,9.84,33.68,0.022371,0.031958,0.000000
549915217,-0.000025,0.002122,-0.001961,0.02,-0.28,9.79,33.65,0.022371,0.033024,-0.002131
549916225,-0.001091,0.002122,-0.005157,0.01,-0.33,9.81,33.66,0.022371,0.031958,-0.005326
549917243,-0.002156,0.002122,-0.005157,-0.01,-0.30,9.83,33.67,0.022371,0.030893,-0.005326
549918245,-0.002156,0.002122,-0.001961,-0.02,-0.26,9.82,33.70,0.022371,0.030893,-0.002131
549919255,-0.001091,0.001057,0.001235,-0.02,-0.29,9.89,33.68,0.023436,0.031958,0.001065
549920265,0.002105,-0.000008,0.002300,-0.01,-0.30,9.89,33.68,0.024501,0.035154,0.002131
549921275,0.003170,0.001057,0.001235,-0.01,-0.31,9.83,33.68,0.023436,0.036220,0.001065
549922300,0.003170,0.003187,-0.001961,-0.02,-0.33,9.80,33.63,0.021306,0.036220,-0.002131
549923295,0.002105,0.003187,-0.000896,-0.01,-0.33,9.82,33.63,0.021306,0.035154,-0.001065
549924305,-0.001091,0.002122,0.001235,-0.03,-0.33,9.82,33.62,0.022371,0.031958,0.001065
549925315,-0.002156,0.001057,0.001235,-0.01,-0.31,9.83,33.62,0.023436,0.030893,0.001065
549926325,-0.001091,-0.000008,-0.000896,-0.02,-0.29,9.87,33.60,0.024501,0.031958,-0.001065
549927343,-0.002156,-0.000008,-0.000896,-0.04,-0.27,9.89,33.59,0.024501,0.030893,-0.001065
549928345,-0.001091,-0.000008,0.000169,0.01,-0.26,9.82,33.63,0.024501,0.031958,0.000000
549929355,-0.001091,-0.001074,0.001235,0.03,-0.28,9.75,33.65,0.025567,0.031958,0.001065
549930365,-0.001091,-0.000008,0.001235,0.01,-0.30,9.75,33.65,0.024501,0.031958,0.001065
549931375,-0.000025,-0.000008,0.000169,0.01,-0.32,9.77,33.62,0.024501,0.033024,0.000000
549932399,-0.001091,-0.000008,0.001235,0.03,-0.33,9.78,33.64,0.024501,0.031958,0.001065
549933395,-0.001091,-0.000008,0.002300,0.02,-0.33,9.78,33.67,0.024501,0.031958,0.002131
549934405,-0.000025,-0.000008,0.000169,0.01,-0.32,9.77,33.64,0.024501,0.033024,0.000000
549935415,-0.001091,-0.000008,-0.000896,0.05,-0.32,9.82,33.65,0.024501,0.031958,-0.001065
549936425,-0.002156,-0.001074,0.000169,0.03,-0.29,9.82,33.65,0.025567,0.030893,0.000000
549937443,-0.001091,-0.003204,-0.000896,0.01,-0.29,9.81,33.63,0.027697,0.031958,-0.001065
549938445,0.001040,-0.002139,0.000169,0.01,-0.27,9.82,33.59,0.026632,0.034089,0.000000
549939455,-0.000025,-0.000008,0.001235,-0.01,-0.27,9.78,33.64,0.024501,0.033024,0.001065
549940465,-0.001091,0.001057,0.002300,0.01,-0.28,9.80,33.67,0.023436,0.031958,0.002131
549941475,0.001040,0.001057,0.004431,0.01,-0.27,9.83,33.68,0.023436,0.034089,0.004261
549942500,0.003170,-0.000008,0.005496,0.00,-0.25,9.82,33.67,0.024501,0.036220,0.005326
549943495,0.002105,-0.003204,0.004431,0.02,-0.23,9.78,33.65,0.027697,0.035154,0.004261
549944505,-0.000025,-0.003204,0.001235,0.01,-0.25,9.79,33.64,0.027697,0.033024,0.001065
549945515,-0.000025,-0.001074,-0.000896,-0.02,-0.29,9.82,33.66,0.025567,0.033024,-0.001065
549946525,-0.000025,-0.000008,-0.001961,0.00,-0.31,9.81,33.63,0.024501,0.033024,-0.002131
549947543,0.001040,-0.000008,-0.000896,0.03,-0.30,9.78,33.62,0.024501,0.034089,-0.001065
549948545,0.002105,-0.000008,0.001235,0.04,-0.28,9.75,33.63,0.024501,0.035154,0.001065
549949555,0.003170,-0.002139,0.003365,0.06,-0.28,9.78,33.65,0.026632,0.036220,0.003196
549950589,0.002069,-0.002148,0.004391,0.04,-0.28,9.82,33.64,0.026632,0.035154,0.004261
549951575,0.001004,-0.001083,0.002261,0.02,-0.26,9.83,33.60,0.025567,0.034089,0.002131
549952599,0.002069,-0.001083,0.000130,-0.04,-0.25,9.82,33.61,0.025567,0.035154,0.000000
549953595,0.002069,-0.002148,-0.000935,-0.03,-0.26,9.81,33.63,0.026632,0.035154,-0.001065
549954605,-0.000061,-0.003213,-0.000935,0.03,-0.29,9.82,33.65,0.027697,0.033024,-0.001065
549955615,-0.000061,-0.004279,0.000130,0.04,-0.29,9.81,33.65,0.028763,0.033024,0.000000
549956625,-0.000061,-0.003213,-0.002001,0.02,-0.28,9.85,33.59,0.027697,0.033024,-0.002131
549957643,-0.001127,-0.002148,-0.002001,0.02,-0.29,9.83,33.60,0.026632,0.031958,-0.002131
549958645,-0.001127,-0.002148,0.000130,0.05,-0.31,9.82,33.62,0.026632,0.031958,0.000000
549959655,-0.000061,-0.001083,-0.000935,0.05,-0.32,9.81,33.62,0.025567,0.033024,-0.001065
549960665,-0.000061,-0.000017,-0.002001,0.03,-0.27,9.80,33.61,0.024501,0.033024,-0.002131
549961683,-0.001127,0.001048,-0.002001,0.02,-0.26,9.79,33.65,0.023436,0.031958,-0.002131
549962693,-0.002192,-0.000017,0.000130,0.02,-0.29,9.78,33.68,0.024501,0.030893,0.000000
549963695,-0.002192,-0.001083,0.001195,0.02,-0.29,9.78,33.65,0.025567,0.030893,0.001065
549964705,-0.002192,-0.002148,0.002261,0.01,-0.28,9.78,33.62,0.026632,0.030893,0.002131
549965715,-0.001127,-0.001083,0.002261,-0.01,-0.31,9.78,33.65,0.025567,0.031958,0.002131
549966725,0.001004,-0.000017,0.003326,-0.01,-0.29,9.80,33.66,0.024501,0.034089,0.003196
549967743,0.003134,-0.000017,0.002261,0.00,-0.28,9.80,33.62,0.024501,0.036220,0.002131
549968745,0.004200,0.001048,0.000130,0.01,-0.31,9.81,33.61,0.023436,0.037285,0.000000
549969786,0.002069,0.001048,-0.000935,0.03,-0.30,9.80,33.63,0.023436,0.035154,-0.001065
549970765,-0.001127,-0.000017,0.000130,0.04,-0.28,9.78,33.62,0.024501,0.031958,0.000000
549971784,-0.001127,-0.001083,0.000130,0.04,-0.28,9.79,33.63,0.025567,0.031958,0.000000
549972791,-0.000061,0.001048,-0.000935,0.04,-0.27,9.84,33.64,0.023436,0.033024,-0.001065
549973795,0.001004,0.001048,-0.000935,0.04,-0.27,9.81,33.63,0.023436,0.034089,-0.001065
549974805,0.001004,0.001048,0.000130,0.02,-0.29,9.81,33.63,0.023436,0.034089,0.000000
549975815,0.001004,0.002113,0.000130,0.00,-0.29,9.83,33.63,0.022371,0.034089,0.000000
549976825,0.001004,0.003178,-0.000935,0.00,-0.26,9.79,33.67,0.021306,0.034089,-0.001065
549977843,0.002069,0.001048,0.000130,0.01,-0.28,9.76,33.66,0.023436,0.035154,0.000000
549978845,0.002069,-0.001083,0.001195,0.00,-0.30,9.77,33.66,0.025567,0.035154,0.001065
549979855,-0.000061,-0.000017,0.001195,-0.02,-0.28,9.81,33.66,0.024501,0.033024,0.001065
549980865,-0.001127,0.001048,0.002261,0.01,-0.25,9.82,33.66,0.023436,0.031958,0.002131
549981883,-0.001127,0.003178,0.003326,0.02,-0.23,9.83,33.63,0.021306,0.031958,0.003196
549982893,-0.001127,0.004244,0.001195,0.02,-0.27,9.83,33.63,0.020240,0.031958,0.001065
549983895,-0.001127,0.001048,-0.000935,-0.01,-0.30,9.82,33.65,0.023436,0.031958,-0.001065
549984905,-0.001127,-0.002148,-0.003066,-0.02,-0.29,9.83,33.66,0.026632,0.031958,-0.003196
549985915,-0.001127,-0.003213,-0.003066,-0.01,-0.28,9.81,33.63,0.027697,0.031958,-0.003196
549986925,-0.001127,-0.003213,0.001195,-0.01,-0.27,9.78,33.67,0.027697,0.031958,0.001065
549987943,-0.001127,-0.003213,0.002261,0.01,-0.25,9.78,33.68,0.027697,0.031958,0.002131
549988945,-0.001127,-0.001083,0.001195,0.03,-0.25,9.78,33.65,0.025567,0.031958,0.001065
549989957,-0.002192,-0.000017,0.000130,0.02,-0.28,9.82,33.66,0.024501,0.030893,0.000000
549990966,-0.003257,-0.000017,0.000130,0.02,-0.30,9.81,33.66,0.024501,0.029828,0.000000
549991995,-0.001127,-0.002148,0.001195,0.03,-0.29,9.85,33.66,0.026632,0.031958,0.001065
549992998,0.001004,-0.003213,0.001195,0.01,-0.29,9.85,33.66,0.027697,0.034089,0.001065
549994002,0.001004,-0.002148,-0.002001,0.01,-0.34,9.79,33.65,0.026632,0.034089,-0.002131
549995012,-0.000061,-0.002148,-0.003066,0.00,-0.28,9.78,33.69,0.026632,0.033024,-0.003196
549996022,-0.001127,-0.001083,-0.002001,-0.01,-0.25,9.81,33.68,0.025567,0.031958,-0.002131
549997035,-0.000061,-0.000017,-0.000935,0.03,-0.28,9.85,33.66,0.024501,0.033024,-0.001065
549998059,0.001004,-0.000017,-0.000935,0.05,-0.26,9.80,33.62,0.024501,0.034089,-0.001065
549999058,-0.000061,-0.001083,-0.003066,0.02,-0.28,9.82,33.65,0.025567,0.033024,-0.003196
550000070,-0.001127,-0.002148,-0.004131,0.00,-0.30,9.90,33.64,0.026632,0.031958,-0.004261
550001091,-0.000061,-0.000017,-0.003066,0.00,-0.28,9.90,33.65,0.024501,0.033024,-0.003196
550002103,-0.000061,0.001048,-0.000935,0.00,-0.28,9.84,33.67,0.023436,0.033024,-0.001065
550003103,-0.000061,0.001048,-0.000935,0.02,-0.29,9.79,33.68,0.023436,0.033024,-0.001065
550004108,-0.000061,0.002113,-0.000935,0.04,-0.30,9.79,33.67,0.022371,0.033024,-0.001065
550005115,-0.000061,0.004244,0.001195,0.04,-0.30,9.82,33.65,0.020240,0.033024,0.001065
550006125,-0.000061,0.003178,0.003326,0.01,-0.31,9.77,33.65,0.021306,0.033024,0.003196
550007138,0.001004,0.002113,0.002261,0.00,-0.31,9.76,33.65,0.022371,0.034089,0.002131
550008148,-0.001127,0.002113,0.001195,0.00,-0.29,9.81,33.66,0.022371,0.031958,0.001065
550009151,-0.003257,0.002113,-0.000935,0.00,-0.28,9.85,33.67,0.022371,0.029828,-0.001065
550010158,-0.001127,0.001048,-0.003066,0.00,-0.27,9.86,33.67,0.023436,0.031958,-0.003196
550011173,-0.000061,-0.001083,-0.004131,0.01,-0.29,9.84,33.63,0.025567,0.033024,-0.004261
550012184,-0.002192,-0.001083,-0.003066,0.02,-0.29,9.82,33.59,0.025567,0.030893,-0.003196
550013194,-0.005388,-0.000017,-0.003066,0.01,-0.29,9.81,33.62,0.024501,0.027697,-0.003196
550014199,-0.004323,-0.000017,-0.004131,0.02,-0.30,9.78,33.62,0.024501,0.028763,-0.004261
550015208,-0.001127,-0.002148,-0.005196,0.02,-0.28,9.81,33.65,0.026632,0.031958,-0.005326
550016217,0.002069,-0.003213,-0.003066,0.02,-0.26,9.82,33.65,0.027697,0.035154,-0.003196
550017225,0.002069,-0.002148,0.000130,0.01,-0.28,9.76,33.65,0.026632,0.035154,0.000000
550018243,0.001004,-0.001083,0.003326,0.03,-0.30,9.80,33.68,0.025567,0.034089,0.003196
550019245,-0.001127,-0.002148,0.003326,0.05,-0.32,9.83,33.65,0.026632,0.031958,0.003196
550020255,-0.003257,-0.001083,0.001195,0.03,-0.32,9.84,33.63,0.025567,0.029828,0.001065
550021265,-0.003257,-0.001083,-0.000935,0.04,-0.28,9.85,33.64,0.025567,0.029828,-0.001065
550022282,-0.001127,-0.000017,-0.002001,0.04,-0.28,9.84,33.66,0.024501,0.031958,-0.002131
550023293,-0.000061,0.001048,-0.002001,0.04,-0.30,9.82,33.65,0.023436,0.033024,-0.002131
550024295,-0.000061,0.002113,-0.002001,0.03,-0.25,9.82,33.65,0.022371,0.033024,-0.002131
550025305,0.001004,0.002113,-0.002001,0.02,-0.26,9.82,33.66,0.022371,0.034089,-0.002131
550026315,0.003134,0.002113,-0.002001,0.01,-0.29,9.82,33.64,0.022371,0.036220,-0.002131
550027325,0.003134,0.001048,0.000130,0.02,-0.27,9.82,33.63,0.023436,0.036220,0.000000
550028343,-0.001127,-0.000017,0.001195,0.02,-0.32,9.82,33.63,0.024501,0.031958,0.001065
550029345,-0.002192,-0.001083,0.001195,0.00,-0.34,9.81,33.60,0.025567,0.030893,0.001065
550030355,-0.000061,-0.002148,0.001195,0.01,-0.29,9.83,33.65,0.026632,0.033024,0.001065
550031365,0.001004,-0.003213,0.000130,0.04,-0.27,9.84,33.65,0.027697,0.034089,0.000000
550032385,0.001004,-0.001083,-0.000935,0.03,-0.27,9.79,33.65,0.025567,0.034089,-0.001065
550033391,0.001004,0.001048,-0.000935,0.03,-0.27,9.80,33.66,0.023436,0.034089,-0.001065
550034395,-0.001127,0.001048,0.000130,0.04,-0.27,9.83,33.68,0.023436,0.031958,0.000000
550035405,-0.003257,-0.000017,-0.002001,0.02,-0.29,9.84,33.66,0.024501,0.029828,-0.002131
550036415,-0.004323,0.001048,-0.003066,0.01,-0.28,9.81,33.64,0.023436,0.028763,-0.003196
550037425,-0.004323,0.002113,-0.003066,0.02,-0.29,9.79,33.64,0.022371,0.028763,-0.003196
550038443,-0.003257,0.002113,-0.000935,0.03,-0.31,9.81,33.64,0.022371,0.029828,-0.001065
550039445,-0.000061,-0.000017,0.000130,0.02,-0.29,9.82,33.63,0.024501,0.033024,0.000000
550040455,-0.000061,-0.003213,0.000130,0.03,-0.30,9.85,33.59,0.027697,0.033024,0.000000
550041465,0.001004,-0.003213,0.000130,0.03,-0.32,9.86,33.64,0.027697,0.034089,0.000000
550042482,0.002069,-0.001083,0.000130,0.01,-0.31,9.80,33.65,0.025567,0.035154,0.000000
550043493,-0.000061,-0.000017,0.001195,0.00,-0.30,9.85,33.62,0.024501,0.033024,0.001065
550044495,-0.002192,-0.000017,0.001195,0.01,-0.29,9.88,33.65,0.024501,0.030893,0.001065
550045505,-0.002192,-0.001083,0.001195,0.00,-0.30,9.85,33.64,0.025567,0.030893,0.001065
550046515,0.001004,-0.002148,0.001195,-0.02,-0.30,9.84,33.63,0.026632,0.034089,0.001065
550047525,0.002069,-0.001083,0.001195,0.01,-0.27,9.80,33.61,0.025567,0.035154,0.001065
550048543,0.001004,0.002113,0.000130,0.02,-0.27,9.80,33.60,0.022371,0.034089,0.000000
550049545,0.002069,-0.000017,0.000130,0.01,-0.27,9.87,33.62,0.024501,0.035154,0.000000
550050555,0.002069,-0.002148,0.000130,0.03,-0.29,9.88,33.63,0.026632,0.035154,0.000000
550051565,-0.001127,-0.000017,0.000130,0.04,-0.29,9.81,33.62,0.024501,0.031958,0.000000
550052585,-0.000061,0.002113,0.000130,0.02,-0.29,9.82,33.61,0.022371,0.033024,0.000000
550053591,0.001004,0.003178,-0.000935,0.02,-0.30,9.83,33.62,0.021306,0.034089,-0.001065
550054595,0.001004,0.001048,-0.000935,0.02,-0.30,9.80,33.62,0.023436,0.034089,-0.001065
550055605,0.002069,-0.001083,-0.002001,-0.01,-0.29,9.81,33.64,0.025567,0.035154,-0.002131
550056615,-0.000061,0.002113,-0.000935,0.00,-0.29,9.83,33.64,0.022371,0.033024,-0.001065
550057625,-0.000061,0.002113,-0.000935,-0.01,-0.32,9.82,33.64,0.022371,0.033024,-0.001065
550058643,0.001004,0.001048,-0.002001,0.00,-0.28,9.79,33.65,0.023436,0.034089,-0.002131
550059645,-0.000061,-0.001083,-0.000935,0.01,-0.27,9.77,33.65,0.025567,0.033024,-0.001065
550060655,0.001004,-0.000017,-0.000935,-0.01,-0.27,9.80,33.68,0.024501,0.034089,-0.001065
550061672,0.002069,-0.000017,0.000130,-0.01,-0.26,9.79,33.67,0.024501,0.035154,0.000000
550062675,0.002069,-0.000017,0.002261,0.01,-0.28,9.74,33.71,0.024501,0.035154,0.002131
550063693,0.001004,-0.001083,0.002261,0.00,-0.28,9.77,33.68,0.025567,0.034089,0.002131
550064695,0.001004,-0.003213,0.001195,-0.02,-0.28,9.77,33.66,0.027697,0.034089,0.001065
550065705,-0.000061,-0.003213,0.000130,0.01,-0.30,9.77,33.65,0.027697,0.033024,0.000000
550066715,-0.002192,-0.000017,0.001195,0.02,-0.29,9.77,33.69,0.024501,0.030893,0.001065
550067725,-0.002192,0.002113,0.002261,-0.01,-0.30,9.74,33.70,0.022371,0.030893,0.002131
550068743,-0.000061,0.001048,0.001195,0.00,-0.31,9.77,33.64,0.023436,0.033024,0.001065
550069745,0.002069,-0.000017,0.000130,0.01,-0.32,9.79,33.61,0.024501,0.035154,0.000000
550070755,0.002069,-0.001083,0.000130,0.00,-0.32,9.84,33.65,0.025567,0.035154,0.000000
550071775,0.001004,-0.000017,-0.000935,0.00,-0.29,9.81,33.65,0.024501,0.034089,-0.001065
550072775,-0.000061,0.002113,-0.002001,-0.01,-0.28,9.78,33.63,0.022371,0.033024,-0.002131
550073791,-0.001127,0.001048,-0.002001,-0.01,-0.29,9.81,33.64,0.023436,0.031958,-0.002131
550074810,-0.001127,-0.001083,-0.002001,0.00,-0.28,9.79,33.66,0.025567,0.031958,-0.002131
550075805,-0.000061,-0.000017,0.000130,0.01,-0.28,9.81,33.64,0.024501,0.033024,0.000000
550076815,0.001004,0.001048,0.003326,0.04,-0.27,9.82,33.64,0.023436,0.034089,0.003196
550077825,0.002069,0.002113,0.003326,0.05,-0.30,9.77,33.65,0.022371,0.035154,0.003196
550078884,0.001004,0.001048,-0.000935,0.04,-0.34,9.75,33.62,0.023436,0.034089,-0.001065
550079870,-0.000045,0.000003,-0.001967,-0.01,-0.30,9.78,33.62,0.024501,0.033024,-0.002131
550080855,-0.001110,-0.001063,-0.001967,-0.02,-0.27,9.77,33.65,0.025567,0.031958,-0.002131
550081872,-0.000045,0.000003,-0.000902,0.01,-0.31,9.78,33.67,0.024501,0.033024,-0.001065
550082875,-0.000045,0.001068,0.000163,0.03,-0.30,9.78,33.65,0.023436,0.033024,0.000000
550083893,-0.000045,-0.001063,0.000163,0.02,-0.25,9.79,33.62,0.025567,0.033024,0.000000
550084895,-0.001110,-0.002128,0.000163,-0.01,-0.26,9.83,33.64,0.026632,0.031958,0.000000
550085905,-0.000045,-0.002128,0.000163,-0.02,-0.27,9.82,33.63,0.026632,0.033024,0.000000
550086915,0.002086,-0.002128,0.000163,0.01,-0.28,9.83,33.64,0.026632,0.035154,0.000000
550087925,0.004216,-0.001063,0.001229,0.02,-0.30,9.79,33.64,0.025567,0.037285,0.001065
550088943,0.005281,0.000003,0.003359,0.00,-0.29,9.77,33.65,0.024501,0.038350,0.003196
550089945,0.004216,0.001068,0.002294,0.00,-0.31,9.81,33.69,0.023436,0.037285,0.002131
550090956,0.001020,0.000003,0.001229,0.00,-0.33,9.81,33.61,0.024501,0.034089,0.001065
550091980,-0.001110,-0.001063,0.000163,-0.02,-0.30,9.84,33.62,0.025567,0.031958,0.000000
550092984,-0.001110,0.002133,0.000163,0.01,-0.29,9.84,33.59,0.022371,0.031958,0.000000
550093997,0.002086,0.002133,0.001229,0.03,-0.29,9.82,33.59,0.022371,0.035154,0.001065
550095002,0.003151,0.001068,0.000163,0.03,-0.28,9.82,33.63,0.023436,0.036220,0.000000
550096011,0.002086,0.001068,-0.003032,0.02,-0.30,9.79,33.62,0.023436,0.035154,-0.003196
550097030,0.001020,0.002133,-0.004098,0.03,-0.30,9.76,33.64,0.022371,0.034089,-0.004261
550098034,0.001020,0.000003,-0.003032,0.05,-0.28,9.77,33.63,0.024501,0.034089,-0.003196
550099059,-0.000045,-0.004258,-0.001967,0.04,-0.26,9.84,33.62,0.028763,0.033024,-0.002131
550100063,-0.000045,-0.005324,-0.003032,-0.01,-0.28,9.88,33.60,0.029828,0.033024,-0.003196
550101069,-0.002176,-0.003193,-0.001967,-0.04,-0.30,9.83,33.58,0.027697,0.030893,-0.002131
550102085,-0.002176,-0.001063,-0.000902,-0.02,-0.28,9.78,33.60,0.025567,0.030893,-0.001065
550103088,-0.000045,0.000003,-0.000902,0.00,-0.29,9.78,33.63,0.024501,0.033024,-0.001065
550104106,-0.000045,0.001068,0.000163,0.03,-0.30,9.83,33.61,0.023436,0.033024,0.000000
550105108,0.001020,0.002133,0.000163,0.03,-0.27,9.85,33.63,0.022371,0.034089,0.000000
550106115,0.001020,0.000003,0.001229,0.01,-0.29,9.86,33.62,0.024501,0.034089,0.001065
550107126,0.001020,-0.003193,0.002294,-0.01,-0.29,9.83,33.59,0.027697,0.034089,0.002131
550108137,-0.000045,-0.002128,0.001229,-0.03,-0.26,9.79,33.59,0.026632,0.033024,0.001065
550109148,-0.002176,0.000003,0.000163,-0.01,-0.28,9.78,33.64,0.024501,0.030893,0.000000
550110151,-0.003241,0.001068,0.000163,0.00,-0.28,9.78,33.65,0.023436,0.029828,0.000000
550111165,-0.003241,0.002133,0.000163,0.01,-0.31,9.78,33.64,0.022371,0.029828,0.000000
550112179,-0.001110,0.000003,0.000163,0.02,-0.34,9.80,33.60,0.024501,0.031958,0.000000
550113175,-0.001110,0.000003,0.000163,0.00,-0.32,9.79,33.59,0.024501,0.031958,0.000000
550114206,-0.001110,0.000003,0.001229,0.02,-0.31,9.76,33.60,0.024501,0.031958,0.001065
550115198,-0.001110,-0.001063,0.002294,0.03,-0.31,9.83,33.62,0.025567,0.031958,0.002131
550116217,-0.001110,-0.003193,0.003359,0.01,-0.27,9.85,33.63,0.027697,0.031958,0.003196
550117216,-0.000045,-0.002128,0.002294,0.01,-0.25,9.81,33.65,0.026632,0.033024,0.002131
550118224,-0.000045,0.001068,0.001229,0.00,-0.30,9.79,33.65,0.023436,0.033024,0.001065
550119242,-0.000045,0.002133,-0.000902,0.00,-0.33,9.82,33.65,0.022371,0.033024,-0.001065
550120244,-0.000045,0.001068,0.000163,-0.03,-0.32,9.82,33.66,0.023436,0.033024,0.000000
550121254,-0.001110,0.001068,0.001229,-0.05,-0.31,9.81,33.64,0.023436,0.031958,0.001065
550122277,-0.000045,0.004264,-0.000902,-0.03,-0.31,9.80,33.62,0.020240,0.033024,-0.001065
550123274,0.002086,0.005329,-0.004098,-0.01,-0.31,9.79,33.64,0.019175,0.035154,-0.004261
550124306,0.002086,0.002133,-0.005163,-0.02,-0.32,9.80,33.66,0.022371,0.035154,-0.005326
550125295,0.002086,-0.002128,-0.004098,-0.04,-0.32,9.81,33.62,0.026632,0.035154,-0.004261
550126305,0.002086,-0.004258,-0.000902,0.00,-0.31,9.80,33.64,0.028763,0.035154,-0.001065
550127315,0.002086,-0.004258,-0.000902,0.03,-0.27,9.83,33.67,0.028763,0.035154,-0.001065
550128325,0.001020,-0.003193,0.000163,0.00,-0.25,9.89,33.67,0.027697,0.034089,0.000000
550129343,-0.000045,-0.004258,-0.000902,0.01,-0.27,9.87,33.66,0.028763,0.033024,-0.001065
550130345,-0.000045,-0.003193,-0.000902,0.03,-0.29,9.86,33.67,0.027697,0.033024,-0.001065
550131355,0.001020,-0.002128,-0.000902,0.03,-0.29,9.82,33.64,0.026632,0.034089,-0.001065
550132379,0.001020,-0.002128,-0.000902,0.04,-0.28,9.81,33.65,0.026632,0.034089,-0.001065
550133375,-0.000045,-0.002128,-0.001967,0.02,-0.27,9.85,33.65,0.026632,0.033024,-0.002131
550134402,0.001020,-0.003193,-0.000902,0.00,-0.28,9.85,33.63,0.027697,0.034089,-0.001065
550135394,0.002086,-0.003193,0.000163,0.03,-0.30,9.82,33.63,0.027697,0.035154,0.000000
550136404,0.002086,0.000003,0.000163,0.03,-0.31,9.78,33.64,0.024501,0.035154,0.000000
550137414,0.002086,0.001068,-0.000902,0.04,-0.30,9.77,33.61,0.023436,0.035154,-0.001065
550138424,0.002086,0.001068,-0.000902,0.04,-0.29,9.77,33.65,0.023436,0.035154,-0.001065
550139442,0.002086,0.002133,0.000163,0.04,-0.27,9.75,33.65,0.022371,0.035154,0.000000
550140444,0.001020,0.002133,-0.000902,-0.03,-0.30,9.80,33.65,0.022371,0.034089,-0.001065
550141454,-0.001110,0.002133,-0.001967,-0.05,-0.29,9.85,33.64,0.022371,0.031958,-0.002131
550142477,-0.003241,0.002133,-0.003032,0.02,-0.27,9.78,33.68,0.022371,0.029828,-0.003196
550143474,-0.004306,0.003198,-0.001967,0.04,-0.28,9.76,33.68,0.021306,0.028763,-0.002131
550144506,-0.002176,0.003198,-0.001967,0.02,-0.28,9.80,33.62,0.021306,0.030893,-0.002131
550145495,-0.000045,0.003198,0.000163,0.03,-0.28,9.86,33.65,0.021306,0.033024,0.000000
550146505,0.002086,-0.001063,0.001229,0.03,-0.29,9.91,33.65,0.025567,0.035154,0.001065
550147515,0.002086,-0.002128,0.002294,0.01,-0.29,9.86,33.67,0.026632,0.035154,0.002131
550148525,0.002086,-0.001063,0.003359,0.02,-0.32,9.78,33.66,0.025567,0.035154,0.003196
550149543,0.002086,0.002133,0.000163,0.01,-0.30,9.78,33.64,0.022371,0.035154,0.000000
550150545,0.002086,0.001068,-0.001967,0.01,-0.27,9.79,33.65,0.023436,0.035154,-0.002131
550151555,0.002086,0.001068,-0.000902,0.02,-0.29,9.79,33.64,0.023436,0.035154,-0.001065
550152578,0.001020,0.002133,-0.000902,-0.01,-0.31,9.80,33.62,0.022371,0.034089,-0.001065
550153575,0.001020,0.003198,-0.000902,-0.01,-0.28,9.78,33.61,0.021306,0.034089,-0.001065
550154602,-0.000045,0.003198,-0.000902,0.01,-0.28,9.78,33.62,0.021306,0.033024,-0.001065
550155594,-0.000045,0.003198,-0.000902,0.01,-0.30,9.82,33.65,0.021306,0.033024,-0.001065
550156604,-0.000045,0.002133,-0.000902,0.00,-0.27,9.83,33.65,0.022371,0.033024,-0.001065
550157614,-0.000045,-0.001063,-0.003032,-0.02,-0.28,9.82,33.61,0.025567,0.033024,-0.003196
550158624,0.001020,-0.001063,0.000163,0.00,-0.28,9.78,33.65,0.025567,0.034089,0.000000
550159642,0.003151,0.000003,0.001229,0.03,-0.28,9.84,33.63,0.024501,0.036220,0.001065
550160644,0.003151,0.000003,0.002294,0.04,-0.28,9.84,33.64,0.024501,0.036220,0.002131
550161665,0.004216,-0.001063,0.001229,0.02,-0.28,9.80,33.64,0.025567,0.037285,0.001065
550162664,0.003151,0.000003,0.001229,0.01,-0.30,9.80,33.65,0.024501,0.036220,0.001065
550163674,0.001020,0.001068,0.001229,0.02,-0.33,9.84,33.63,0.023436,0.034089,0.001065
550164706,-0.000045,0.002133,0.002294,0.01,-0.30,9.82,33.64,0.022371,0.033024,0.002131
550165696,-0.001110,0.001068,0.001229,-0.02,-0.28,9.79,33.66,0.023436,0.031958,0.001065
550166705,-0.002176,0.001068,0.000163,-0.02,-0.29,9.81,33.65,0.023436,0.030893,0.000000
550167727,-0.000045,0.003198,0.001229,0.01,-0.29,9.80,33.64,0.021306,0.033024,0.001065
550168725,0.003151,0.001068,0.002294,0.02,-0.28,9.79,33.63,0.023436,0.036220,0.002131
550169743,0.003151,0.000003,0.002294,0.05,-0.28,9.81,33.65,0.024501,0.036220,0.002131
550170745,0.002086,-0.001063,0.000163,0.02,-0.28,9.81,33.65,0.025567,0.035154,0.000000
550171768,0.002086,-0.002128,0.000163,-0.02,-0.27,9.82,33.66,0.026632,0.035154,0.000000
550172765,0.001020,0.000003,0.002294,-0.01,-0.26,9.80,33.68,0.024501,0.034089,0.002131
550173775,0.001020,0.003198,0.003359,0.01,-0.28,9.75,33.60,0.021306,0.034089,0.003196
550174802,0.001020,0.003198,0.003359,0.04,-0.28,9.73,33.62,0.021306,0.034089,0.003196
550175794,-0.000045,0.000003,0.001229,0.03,-0.29,9.78,33.59,0.024501,0.033024,0.001065
550176804,0.001020,-0.002128,0.000163,0.02,-0.30,9.84,33.63,0.026632,0.034089,0.000000
550177814,0.001020,0.000003,0.000163,0.02,-0.32,9.82,33.64,0.024501,0.034089,0.000000
550178829,0.001020,0.002133,-0.000902,0.04,-0.32,9.79,33.65,0.022371,0.034089,-0.001065
550179842,-0.000045,0.002133,0.000163,0.03,-0.31,9.77,33.66,0.022371,0.033024,0.000000
550180844,-0.001110,0.000003,0.001229,0.01,-0.28,9.79,33.66,0.024501,0.031958,0.001065
550181865,-0.001110,0.000003,0.002294,0.00,-0.26,9.86,33.65,0.024501,0.031958,0.002131
550182864,-0.000045,-0.001063,0.003359,0.01,-0.24,9.87,33.64,0.025567,0.033024,0.003196
550183889,0.001020,-0.001063,0.002294,0.03,-0.28,9.83,33.64,0.025567,0.034089,0.002131
550184893,-0.000045,-0.003193,-0.000902,0.02,-0.33,9.80,33.60,0.027697,0.033024,-0.001065
550185895,0.001020,-0.002128,-0.003032,0.00,-0.30,9.77,33.61,0.026632,0.034089,-0.003196
550186905,0.003151,0.002133,-0.001967,0.02,-0.31,9.77,33.60,0.022371,0.036220,-0.002131
550187915,0.004216,0.002133,-0.001967,0.04,-0.30,9.82,33.65,0.022371,0.037285,-0.002131
550188925,0.004216,0.000003,-0.000902,0.04,-0.29,9.82,33.71,0.024501,0.037285,-0.001065
550189943,0.001020,-0.002128,0.000163,0.01,-0.30,9.83,33.69,0.026632,0.034089,0.000000
550190945,-0.002176,0.000003,0.000163,-0.02,-0.28,9.85,33.65,0.024501,0.030893,0.000000
550191968,-0.002176,0.001068,0.000163,0.00,-0.27,9.78,33.68,0.023436,0.030893,0.000000
550192974,-0.001110,0.000003,0.001229,0.01,-0.28,9.78,33.66,0.024501,0.031958,0.001065
550193994,-0.000045,0.000003,0.002294,0.01,-0.29,9.82,33.64,0.024501,0.033024,0.002131
550195001,-0.000045,0.000003,0.000163,0.04,-0.29,9.79,33.62,0.024501,0.033024,0.000000
550196002,-0.000045,-0.001063,-0.000902,0.00,-0.26,9.82,33.63,0.025567,0.033024,-0.001065
550197011,0.001020,0.000003,-0.000902,-0.04,-0.27,9.89,33.64,0.024501,0.034089,-0.001065
550198022,-0.000045,0.000003,0.000163,-0.02,-0.32,9.90,33.66,0.024501,0.033024,0.000000
550199034,-0.000045,0.002133,0.001229,0.00,-0.31,9.83,33.62,0.022371,0.033024,0.001065
550200060,-0.001110,0.002133,0.000163,0.00,-0.32,9.78,33.64,0.022371,0.031958,0.000000
550201058,-0.000045,0.001068,-0.000902,0.00,-0.32,9.76,33.63,0.023436,0.033024,-0.001065
550202081,-0.001110,0.002133,0.000163,0.02,-0.31,9.76,33.66,0.022371,0.031958,0.000000
550203073,-0.001110,0.003198,0.001229,0.02,-0.30,9.78,33.65,0.021306,0.031958,0.001065
550204103,-0.001110,0.003198,0.002294,0.03,-0.28,9.80,33.65,0.021306,0.031958,0.002131
550205103,-0.000045,0.000003,0.002294,0.02,-0.28,9.84,33.67,0.024501,0.033024,0.002131
550206108,0.001020,-0.003193,0.002294,0.00,-0.28,9.85,33.68,0.027697,0.034089,0.002131
550207115,0.001020,-0.002128,0.002294,0.02,-0.28,9.82,33.66,0.026632,0.034089,0.002131
550208125,0.001020,0.000003,0.001229,0.03,-0.28,9.81,33.65,0.024501,0.034089,0.001065
550209161,-0.000110,0.001055,0.000153,0.01,-0.28,9.81,33.63,0.023436,0.033024,0.000000
550210148,0.000956,-0.000011,-0.000912,-0.02,-0.29,9.81,33.61,0.024501,0.034089,-0.001065
550211152,0.002021,0.001055,-0.004108,-0.02,-0.28,9.82,33.59,0.023436,0.035154,-0.004261
550212170,0.002021,0.001055,-0.005174,0.02,-0.27,9.82,33.62,0.023436,0.035154,-0.005326
550213168,0.000956,-0.001076,-0.004108,0.03,-0.28,9.78,33.64,0.025567,0.034089,-0.004261
550214188,-0.000110,-0.001076,-0.001978,0.02,-0.29,9.77,33.68,0.025567,0.033024,-0.002131
550215192,-0.001175,-0.001076,0.001218,0.02,-0.27,9.76,33.66,0.025567,0.031958,0.001065
550216198,-0.004371,0.001055,0.003349,0.01,-0.26,9.79,33.66,0.023436,0.028763,0.003196
550217207,-0.004371,0.002120,0.005479,0.02,-0.29,9.87,33.64,0.022371,0.028763,0.005326
550218216,-0.001175,0.001055,0.003349,0.04,-0.32,9.85,33.63,0.023436,0.031958,0.003196
550219224,0.003086,-0.000011,-0.000912,0.04,-0.31,9.82,33.63,0.024501,0.036220,-0.001065
550220242,0.005217,-0.000011,-0.003043,0.06,-0.27,9.84,33.64,0.024501,0.038350,-0.003196
550221244,0.003086,-0.001076,-0.000912,0.07,-0.25,9.83,33.64,0.025567,0.036220,-0.001065
550222265,-0.000110,-0.001076,0.001218,0.04,-0.28,9.84,33.62,0.025567,0.033024,0.001065
550223264,-0.001175,-0.001076,0.002283,0.03,-0.33,9.80,33.62,0.025567,0.031958,0.002131
550224289,-0.002240,-0.001076,0.001218,0.02,-0.31,9.77,33.65,0.025567,0.030893,0.001065
550225293,-0.003306,-0.001076,0.000153,0.01,-0.30,9.80,33.64,0.025567,0.029828,0.000000
550226295,-0.003306,0.001055,-0.000912,-0.01,-0.32,9.81,33.68,0.023436,0.029828,-0.001065
550227305,-0.001175,0.001055,-0.000912,0.01,-0.29,9.79,33.67,0.023436,0.031958,-0.001065
550228315,0.000956,-0.002141,-0.001978,0.03,-0.28,9.81,33.64,0.026632,0.034089,-0.002131
550229325,0.002021,-0.004272,-0.003043,0.03,-0.31,9.86,33.60,0.028763,0.035154,-0.003196
550230343,0.003086,-0.002141,-0.001978,0.03,-0.31,9.87,33.59,0.026632,0.036220,-0.002131
550231345,-0.000110,-0.000011,-0.001978,0.01,-0.31,9.87,33.59,0.024501,0.033024,-0.002131
550232368,-0.001175,0.001055,-0.000912,0.02,-0.32,9.85,33.65,0.023436,0.031958,-0.001065
550233365,-0.002240,-0.001076,-0.000912,0.04,-0.32,9.82,33.63,0.025567,0.030893,-0.001065
550234388,-0.001175,-0.003207,-0.000912,0.06,-0.33,9.77,33.65,0.027697,0.031958,-0.001065
550235390,0.000956,-0.003207,0.000153,0.05,-0.29,9.78,33.63,0.027697,0.034089,0.000000
550236394,0.000956,-0.003207,0.000153,0.03,-0.28,9.84,33.63,0.027697,0.034089,0.000000
550237404,-0.000110,-0.001076,0.000153,0.05,-0.31,9.83,33.66,0.025567,0.033024,0.000000
550238414,-0.002240,-0.000011,0.001218,0.04,-0.29,9.82,33.68,0.024501,0.030893,0.001065
550239424,-0.002240,-0.001076,0.002283,0.02,-0.30,9.80,33.68,0.025567,0.030893,0.002131
550240442,-0.000110,-0.001076,0.001218,0.02,-0.31,9.79,33.65,0.025567,0.033024,0.001065
550241444,-0.000110,-0.000011,0.001218,0.00,-0.30,9.78,33.63,0.024501,0.033024,0.001065
550242465,0.002021,-0.001076,0.002283,0.01,-0.31,9.77,33.63,0.025567,0.035154,0.002131
550243464,0.000956,-0.002141,0.003349,0.04,-0.29,9.79,33.60,0.026632,0.034089,0.003196
550244489,-0.001175,-0.004272,0.001218,0.01,-0.28,9.80,33.65,0.028763,0.031958,0.001065
550245493,-0.001175,-0.003207,-0.000912,0.01,-0.31,9.81,33.67,0.027697,0.031958,-0.001065
550246495,-0.000110,-0.000011,-0.000912,0.03,-0.28,9.86,33.64,0.024501,0.033024,-0.001065
550247505,-0.000110,-0.000011,0.000153,0.01,-0.26,9.88,33.65,0.024501,0.033024,0.000000
550248515,-0.000110,0.001055,0.000153,0.02,-0.29,9.82,33.64,0.023436,0.033024,0.000000
550249525,-0.001175,0.001055,0.001218,0.03,-0.30,9.77,33.63,0.023436,0.031958,0.001065
550250543,-0.002240,0.001055,0.001218,0.01,-0.29,9.76,33.66,0.023436,0.030893,0.001065
550251545,-0.000110,0.001055,0.000153,0.01,-0.30,9.76,33.64,0.023436,0.033024,0.000000
550252568,0.003086,0.002120,-0.000912,0.03,-0.29,9.79,33.62,0.022371,0.036220,-0.001065
550253565,0.002021,0.003185,-0.000912,0.01,-0.23,9.82,33.61,0.021306,0.035154,-0.001065
550254588,-0.001175,0.002120,-0.000912,0.01,-0.24,9.82,33.63,0.022371,0.031958,-0.001065
550255590,-0.003306,0.001055,-0.003043,0.01,-0.25,9.83,33.64,0.023436,0.029828,-0.003196
550256594,-0.000110,-0.001076,-0.001978,0.02,-0.27,9.84,33.65,0.025567,0.033024,-0.002131
550257604,0.003086,-0.001076,-0.001978,0.05,-0.29,9.85,33.63,0.025567,0.036220,-0.002131
550258614,0.000956,-0.002141,-0.003043,0.02,-0.29,9.81,33.65,0.026632,0.034089,-0.003196
550259624,0.000956,-0.003207,-0.000912,0.02,-0.29,9.87,33.64,0.027697,0.034089,-0.001065
550260642,0.000956,-0.000011,0.002283,0.01,-0.30,9.84,33.64,0.024501,0.034089,0.002131
550261655,0.000956,0.002120,0.002283,0.02,-0.30,9.78,33.63,0.022371,0.034089,0.002131
550262654,0.002021,0.001055,-0.000912,0.02,-0.29,9.82,33.62,0.023436,0.035154,-0.001065
550263664,-0.000110,-0.001076,-0.001978,0.00,-0.31,9.84,33.63,0.025567,0.033024,-0.002131
550264689,-0.001175,-0.002141,0.000153,0.00,-0.29,9.79,33.65,0.026632,0.031958,0.000000
550265693,-0.001175,-0.001076,0.001218,-0.02,-0.28,9.83,33.64,0.025567,0.031958,0.001065
550266695,0.000956,-0.001076,0.000153,0.00,-0.32,9.86,33.62,0.025567,0.034089,0.000000
550267705,-0.000110,-0.001076,0.000153,0.02,-0.28,9.82,33.61,0.025567,0.033024,0.000000
550268715,-0.001175,0.001055,0.001218,0.02,-0.27,9.80,33.64,0.023436,0.031958,0.001065
550269725,-0.001175,0.002120,0.001218,0.02,-0.30,9.82,33.63,0.022371,0.031958,0.001065
550270743,0.000956,0.002120,0.001218,0.00,-0.29,9.83,33.63,0.022371,0.034089,0.001065
550271759,0.002021,-0.001076,0.001218,0.02,-0.30,9.82,33.62,0.025567,0.035154,0.001065
550272755,0.002021,-0.002141,0.001218,0.03,-0.28,9.83,33.64,0.026632,0.035154,0.001065
550273765,-0.001175,-0.001076,0.001218,0.03,-0.29,9.84,33.65,0.025567,0.031958,0.001065
550274775,-0.001175,-0.002141,0.000153,0.02,-0.32,9.80,33.67,0.026632,0.031958,0.000000
550275791,-0.000110,-0.003207,-0.000912,0.04,-0.31,9.76,33.68,0.027697,0.033024,-0.001065
550276831,0.002021,-0.001076,0.000153,0.05,-0.30,9.81,33.69,0.025567,0.035154,0.000000
550277805,0.002021,0.001055,0.001218,0.01,-0.30,9.82,33.67,0.023436,0.035154,0.001065
550278815,-0.001175,0.002120,0.002283,0.00,-0.29,9.80,33.67,0.022371,0.031958,0.002131
550279825,-0.003306,0.001055,0.001218,0.04,-0.31,9.81,33.66,0.023436,0.029828,0.001065
550280878,-0.003306,0.001055,-0.000912,0.06,-0.32,9.84,33.66,0.023436,0.029828,-0.001065
550281859,-0.001175,-0.000011,0.001218,0.04,-0.31,9.84,33.60,0.024501,0.031958,0.001065
550282855,-0.001175,-0.001076,0.004414,-0.01,-0.29,9.84,33.62,0.025567,0.031958,0.004261
550283865,-0.002240,-0.001076,0.003349,0.01,-0.30,9.86,33.62,0.025567,0.030893,0.003196
550284875,-0.002240,0.001055,0.000153,0.04,-0.32,9.80,33.60,0.023436,0.030893,0.000000
550285893,-0.001175,0.004250,-0.000912,0.02,-0.33,9.76,33.62,0.020240,0.031958,-0.001065
550286895,-0.002240,0.002120,-0.000912,0.00,-0.32,9.80,33.59,0.022371,0.030893,-0.001065
550287905,-0.001175,-0.001076,-0.001978,0.00,-0.30,9.83,33.59,0.025567,0.031958,-0.002131
550288915,0.000956,-0.002141,-0.001978,0.03,-0.28,9.84,33.60,0.026632,0.034089,-0.002131
550289925,0.000956,-0.001076,-0.000912,0.00,-0.28,9.82,33.63,0.025567,0.034089,-0.001065
550290943,-0.000110,0.002120,-0.000912,-0.02,-0.28,9.79,33.63,0.022371,0.033024,-0.001065
550291960,-0.000110,0.003185,-0.000912,0.00,-0.25,9.83,33.62,0.021306,0.033024,-0.001065
550292957,-0.000110,0.001055,-0.001978,0.02,-0.25,9.89,33.64,0.023436,0.033024,-0.002131
550293966,0.000956,-0.002141,-0.001978,0.04,-0.28,9.89,33.65,0.026632,0.034089,-0.002131
550294976,0.002021,-0.002141,-0.000912,0.00,-0.28,9.89,33.66,0.026632,0.035154,-0.001065
550295997,0.000956,-0.001076,-0.001978,0.00,-0.25,9.85,33.67,0.025567,0.034089,-0.002131
550297002,-0.000110,-0.000011,-0.001978,-0.01,-0.27,9.82,33.64,0.024501,0.033024,-0.002131
550298011,-0.001175,0.003185,-0.001978,-0.02,-0.29,9.85,33.62,0.021306,0.031958,-0.002131
550299030,-0.000110,0.004250,-0.000912,0.00,-0.28,9.87,33.68,0.020240,0.033024,-0.001065
550300034,0.000956,0.002120,-0.000912,0.03,-0.27,9.87,33.68,0.022371,0.034089,-0.001065
550301059,0.002021,-0.000011,-0.000912,0.05,-0.27,9.83,33.66,0.024501,0.035154,-0.001065
550302067,0.000956,-0.002141,-0.000912,0.03,-0.30,9.82,33.61,0.026632,0.034089,-0.001065
550303069,0.000956,-0.003207,-0.001978,0.02,-0.29,9.84,33.59,0.027697,0.034089,-0.002131
550304075,0.002021,-0.003207,-0.003043,0.03,-0.28,9.86,33.61,0.027697,0.035154,-0.003196
550305088,0.003086,-0.003207,-0.001978,0.04,-0.30,9.87,33.65,0.027697,0.036220,-0.002131
550306106,0.003086,-0.003207,-0.001978,0.01,-0.31,9.84,33.64,0.027697,0.036220,-0.002131
550307108,0.002021,-0.003207,-0.003043,-0.01,-0.31,9.78,33.65,0.027697,0.035154,-0.003196
550308115,-0.001175,-0.002141,-0.001978,-0.01,-0.32,9.79,33.59,0.026632,0.031958,-0.002131
550309126,-0.002240,-0.000011,0.001218,0.00,-0.33,9.79,33.64,0.024501,0.030893,0.001065
550310137,-0.001175,0.001055,0.003349,0.01,-0.30,9.76,33.64,0.023436,0.031958,0.003196
550311157,-0.002240,-0.000011,0.004414,0.01,-0.29,9.81,33.61,0.024501,0.030893,0.004261
550312162,-0.001175,-0.000011,0.003349,0.02,-0.30,9.85,33.61,0.024501,0.031958,0.003196
550313163,0.000956,0.001055,0.001218,0.02,-0.30,9.86,33.62,0.023436,0.034089,0.001065
550314168,-0.000110,0.002120,0.000153,-0.01,-0.29,9.85,33.62,0.022371,0.033024,0.000000
550315175,-0.001175,0.003185,0.000153,-0.02,-0.29,9.80,33.60,0.021306,0.031958,0.000000
550316194,-0.003306,0.001055,-0.000912,0.01,-0.29,9.80,33.62,0.023436,0.029828,-0.001065
550317199,-0.003306,-0.001076,-0.000912,0.01,-0.28,9.78,33.63,0.025567,0.029828,-0.001065
550318208,-0.002240,-0.001076,0.000153,0.05,-0.33,9.73,33.65,0.025567,0.030893,0.000000
550319217,-0.002240,0.001055,0.000153,0.08,-0.32,9.77,33.64,0.023436,0.030893,0.000000
550320225,-0.003306,0.003185,0.001218,0.05,-0.29,9.82,33.63,0.021306,0.029828,0.001065
550321243,-0.004371,0.004250,0.002283,0.02,-0.29,9.80,33.66,0.020240,0.028763,0.002131
550322253,-0.004371,0.002120,-0.000912,0.01,-0.29,9.76,33.66,0.022371,0.028763,-0.001065
550323255,-0.002240,0.001055,-0.003043,0.00,-0.28,9.77,33.62,0.023436,0.030893,-0.003196
550324265,-0.001175,-0.000011,-0.003043,0.01,-0.25,9.81,33.63,0.024501,0.031958,-0.003196
550325275,-0.002240,-0.000011,-0.000912,-0.01,-0.27,9.85,33.69,0.024501,0.030893,-0.001065
550326293,-0.001175,-0.001076,0.002283,-0.02,-0.28,9.81,33.68,0.025567,0.031958,0.002131
550327295,-0.000110,-0.002141,0.001218,0.02,-0.30,9.75,33.67,0.026632,0.033024,0.001065
550328305,-0.001175,-0.001076,0.002283,0.07,-0.33,9.74,33.66,0.025567,0.031958,0.002131
550329315,-0.002240,-0.001076,0.002283,0.06,-0.31,9.76,33.66,0.025567,0.030893,0.002131
550330325,-0.000110,-0.000011,0.003349,0.02,-0.31,9.80,33.65,0.024501,0.033024,0.003196
550331343,0.002021,-0.000011,0.002283,0.03,-0.33,9.82,33.59,0.024501,0.035154,0.002131
550332357,0.002021,-0.001076,0.000153,0.03,-0.30,9.81,33.61,0.025567,0.035154,0.000000
550333355,0.000956,-0.001076,-0.003043,0.03,-0.27,9.83,33.62,0.025567,0.034089,-0.003196
550334365,0.000956,-0.001076,-0.003043,0.00,-0.28,9.78,33.64,0.025567,0.034089,-0.003196
550335375,-0.000110,-0.002141,-0.003043,-0.01,-0.31,9.77,33.67,0.026632,0.033024,-0.003196
550336391,-0.001175,-0.001076,-0.000912,0.01,-0.31,9.79,33.67,0.025567,0.031958,-0.001065
550337395,-0.001175,-0.000011,-0.000912,-0.01,-0.30,9.80,33.67,0.024501,0.031958,-0.001065
550338428,-0.002204,0.000021,0.000170,-0.01,-0.29,9.82,33.66,0.024501,0.030893,0.000000
550339415,-0.005400,0.000021,0.001236,-0.02,-0.29,9.79,33.63,0.024501,0.027697,0.001065
550340425,-0.005400,0.001086,0.001236,-0.02,-0.27,9.82,33.60,0.023436,0.027697,0.001065
550341443,-0.004335,0.001086,-0.000895,0.02,-0.26,9.79,33.63,0.023436,0.028763,-0.001065
550342452,-0.002204,0.001086,-0.001960,0.01,-0.26,9.75,33.60,0.023436,0.030893,-0.002131
550343455,-0.002204,0.003216,-0.000895,0.00,-0.25,9.85,33.62,0.021306,0.030893,-0.001065
550344465,-0.001139,0.003216,-0.000895,-0.01,-0.26,9.84,33.64,0.021306,0.031958,-0.001065
550345475,-0.000073,0.001086,0.000170,-0.01,-0.27,9.79,33.62,0.023436,0.033024,0.000000
550346493,-0.000073,-0.002110,0.001236,-0.01,-0.28,9.81,33.58,0.026632,0.033024,0.001065
550347495,-0.000073,-0.003175,0.001236,0.00,-0.28,9.79,33.63,0.027697,0.033024,0.001065
