time_us,gyro_x_rad_s,gyro_y_rad_s,gyro_z_rad_s,acc_x_m_s2,acc_y_m_s2,acc_z_m_s2,temperature_c,gyro_sensor_uncorrected_x_rad_s,gyro_sensor_uncorrected_y_rad_s,gyro_sensor_uncorrected_z_rad_s
369314673,0.001206,0.002203,-0.000781,0.00,-0.34,9.86,33.81,0.022371,0.034089,-0.001065
369315754,0.003336,0.002203,0.003480,-0.03,-0.31,9.83,33.77,0.022371,0.036220,0.003196
369317107,0.000140,0.000072,0.003480,0.01,-0.28,9.77,33.73,0.024501,0.033024,0.003196
369318143,-0.003056,0.000072,0.002415,0.03,-0.27,9.78,33.75,0.024501,0.029828,0.002131
369319142,-0.001990,0.002203,0.001350,0.01,-0.28,9.81,33.75,0.022371,0.030893,0.001065
369320151,0.000140,0.002203,-0.000781,0.02,-0.31,9.81,33.78,0.022371,0.033024,-0.001065
369321157,0.001206,0.002203,-0.002912,0.04,-0.31,9.86,33.77,0.022371,0.034089,-0.003196
369322178,0.002271,0.001138,-0.003977,0.05,-0.30,9.87,33.80,0.023436,0.035154,-0.004261
369323186,0.001206,0.000072,-0.001846,0.07,-0.32,9.82,33.77,0.024501,0.034089,-0.002131
369324188,0.001206,0.000072,0.000284,0.06,-0.33,9.79,33.80,0.024501,0.034089,0.000000
369325198,0.003336,-0.000993,0.000284,0.04,-0.34,9.81,33.79,0.025567,0.036220,0.000000
369326207,0.002271,-0.000993,0.001350,0.04,-0.35,9.83,33.76,0.025567,0.035154,0.001065
369327244,0.000122,-0.001017,0.001341,0.03,-0.32,9.79,33.78,0.025567,0.033024,0.001065
369328232,0.000122,-0.001017,0.000276,-0.01,-0.32,9.83,33.80,0.025567,0.033024,0.000000
369329234,0.000122,-0.001017,-0.001854,-0.02,-0.31,9.84,33.81,0.025567,0.033024,-0.002131
369330249,-0.002008,0.000049,-0.001854,-0.01,-0.30,9.79,33.78,0.024501,0.030893,-0.002131
369331254,-0.002008,0.000049,-0.000789,0.02,-0.32,9.79,33.76,0.024501,0.030893,-0.001065
369332277,-0.000943,0.000049,0.001341,0.02,-0.31,9.83,33.77,0.024501,0.031958,0.001065
369333279,0.000122,-0.001017,0.003472,0.03,-0.31,9.79,33.78,0.025567,0.033024,0.003196
369334284,0.001188,0.001114,0.002407,0.01,-0.33,9.78,33.80,0.023436,0.034089,0.002131
369335294,0.001188,0.003244,0.001341,-0.01,-0.33,9.84,33.79,0.021306,0.034089,0.001065
369336322,0.000122,0.002179,0.001341,0.01,-0.29,9.86,33.75,0.022371,0.033024,0.001065
369337314,0.000122,0.001114,0.001341,0.06,-0.30,9.83,33.79,0.023436,0.033024,0.001065
369338332,0.001188,0.000049,0.000276,0.08,-0.33,9.79,33.80,0.024501,0.034089,0.000000
369339334,0.002253,-0.002082,-0.000789,0.02,-0.30,9.82,33.74,0.026632,0.035154,-0.001065
369340344,0.002253,-0.004213,-0.001854,-0.04,-0.31,9.88,33.80,0.028763,0.035154,-0.002131
369341354,0.002253,-0.002082,-0.001854,-0.04,-0.30,9.85,33.82,0.026632,0.035154,-0.002131
369342373,0.000122,0.000049,-0.000789,0.03,-0.31,9.83,33.83,0.024501,0.033024,-0.001065
369343382,-0.002008,-0.001017,0.000276,0.05,-0.32,9.84,33.82,0.025567,0.030893,0.000000
369344384,-0.000943,-0.002082,0.000276,0.04,-0.32,9.85,33.84,0.026632,0.031958,0.000000
369345394,-0.000943,0.000049,0.000276,0.04,-0.31,9.86,33.78,0.024501,0.031958,0.000000
369346404,-0.000943,0.001114,0.000276,0.04,-0.29,9.83,33.74,0.023436,0.031958,0.000000
369347414,-0.002008,0.000049,-0.000789,0.01,-0.31,9.82,33.80,0.024501,0.030893,-0.001065
369348432,-0.003073,-0.002082,0.000276,0.01,-0.32,9.83,33.80,0.026632,0.029828,0.000000
369349434,0.001188,-0.002082,0.002407,0.04,-0.30,9.81,33.79,0.026632,0.034089,0.002131
369350444,0.002253,-0.003147,0.002407,0.03,-0.29,9.79,33.79,0.027697,0.035154,0.002131
369351454,0.002253,-0.004213,0.000276,0.01,-0.29,9.78,33.79,0.028763,0.035154,0.000000
369352477,-0.000943,-0.002082,0.001341,0.01,-0.29,9.82,33.78,0.026632,0.031958,0.001065
369353495,-0.003073,0.000049,0.003472,0.02,-0.33,9.86,33.78,0.024501,0.029828,0.003196
369354482,-0.000943,-0.001017,0.002407,0.00,-0.33,9.89,33.77,0.025567,0.031958,0.002131
369355492,0.002253,0.000049,0.000276,0.01,-0.33,9.89,33.80,0.024501,0.035154,0.000000
369356502,0.002253,0.003244,-0.000789,0.01,-0.32,9.83,33.78,0.021306,0.035154,-0.001065
369357512,0.002253,0.004310,0.000276,0.01,-0.28,9.80,33.77,0.020240,0.035154,0.000000
369358531,0.002253,0.002179,0.001341,0.03,-0.28,9.83,33.75,0.022371,0.035154,0.001065
369359532,0.002253,0.000049,0.001341,0.02,-0.31,9.81,33.74,0.024501,0.035154,0.001065
369360542,0.000122,-0.001017,-0.000789,0.01,-0.32,9.78,33.79,0.025567,0.033024,-0.001065
369361552,-0.002008,-0.003147,0.000276,0.02,-0.30,9.81,33.79,0.027697,0.030893,0.000000
369362575,-0.000943,-0.003147,0.001341,0.00,-0.31,9.85,33.80,0.027697,0.031958,0.001065
369363596,-0.000943,-0.003147,0.000276,0.00,-0.33,9.79,33.79,0.027697,0.031958,0.000000
369364584,-0.000943,-0.002082,-0.000789,0.03,-0.34,9.77,33.79,0.026632,0.031958,-0.001065
369365594,0.000122,-0.001017,0.000276,0.02,-0.33,9.85,33.76,0.025567,0.033024,0.000000
369366604,0.000122,0.001114,-0.000789,0.04,-0.32,9.82,33.79,0.023436,0.033024,-0.001065
369367614,0.000122,0.001114,-0.001854,0.04,-0.32,9.76,33.79,0.023436,0.033024,-0.002131
369368632,0.000122,0.001114,-0.001854,0.00,-0.29,9.84,33.79,0.023436,0.033024,-0.002131
369369634,0.002253,0.000049,-0.000789,0.04,-0.30,9.89,33.74,0.024501,0.035154,-0.001065
369370644,0.001188,0.000049,-0.000789,0.04,-0.30,9.83,33.72,0.024501,0.034089,-0.001065
369371668,0.000122,0.001114,0.000276,0.03,-0.30,9.81,33.74,0.023436,0.033024,0.000000
369372664,-0.000943,0.003244,0.001341,0.02,-0.30,9.79,33.83,0.021306,0.031958,0.001065
369373692,0.000122,0.006440,0.001341,0.02,-0.28,9.79,33.79,0.018110,0.033024,0.001065
369374682,0.001188,0.005375,0.001341,-0.01,-0.27,9.83,33.80,0.019175,0.034089,0.001065
369375692,0.001188,0.002179,0.000276,-0.02,-0.29,9.84,33.79,0.022371,0.034089,0.000000
369376702,0.001188,0.002179,-0.000789,-0.01,-0.28,9.83,33.80,0.022371,0.034089,-0.001065
369377712,0.002253,0.002179,0.000276,-0.01,-0.24,9.83,33.81,0.022371,0.035154,0.000000
369378731,0.001188,0.000049,0.002407,0.01,-0.27,9.84,33.83,0.024501,0.034089,0.002131
369379732,0.000122,-0.002082,0.002407,0.05,-0.28,9.86,33.81,0.026632,0.033024,0.002131
369380742,0.000122,0.000049,0.001341,0.04,-0.29,9.84,33.81,0.024501,0.033024,0.001065
369381765,0.001188,0.002179,0.000276,0.01,-0.28,9.79,33.83,0.022371,0.034089,0.000000
369382762,0.003318,0.002179,-0.000789,-0.01,-0.30,9.83,33.79,0.022371,0.036220,-0.001065
369383796,0.002253,0.000049,0.000276,0.01,-0.30,9.85,33.77,0.024501,0.035154,0.000000
369384784,0.000122,-0.001017,0.001341,0.03,-0.31,9.83,33.82,0.025567,0.033024,0.001065
369385794,-0.000943,0.000049,0.000276,0.04,-0.33,9.82,33.76,0.024501,0.031958,0.000000
369386804,-0.000943,0.001114,0.000276,0.04,-0.32,9.81,33.73,0.023436,0.031958,0.000000
369387814,-0.000943,0.002179,0.003472,0.03,-0.31,9.81,33.80,0.022371,0.031958,0.003196
369388832,0.000122,0.002179,0.005603,0.01,-0.28,9.85,33.80,0.022371,0.033024,0.005326
369389834,0.000122,0.002179,0.004537,-0.01,-0.32,9.87,33.78,0.022371,0.033024,0.004261
369390844,0.001188,0.001114,0.000276,0.00,-0.35,9.81,33.76,0.023436,0.034089,0.000000
369391868,0.000122,0.001114,-0.001854,0.01,-0.30,9.79,33.79,0.023436,0.033024,-0.002131
369392878,0.000122,0.000049,-0.000789,0.04,-0.32,9.79,33.80,0.024501,0.033024,-0.001065
369393878,0.000122,-0.001017,0.002407,0.05,-0.32,9.76,33.83,0.025567,0.033024,0.002131
369394882,0.001188,0.000049,0.002407,0.00,-0.30,9.77,33.81,0.024501,0.034089,0.002131
369395892,0.001188,0.000049,0.000276,-0.04,-0.34,9.78,33.78,0.024501,0.034089,0.000000
369396902,0.000122,-0.001017,0.000276,0.00,-0.32,9.78,33.75,0.025567,0.033024,0.000000
369397912,-0.000943,-0.001017,0.001341,0.05,-0.28,9.79,33.79,0.025567,0.031958,0.001065
369398931,-0.002008,-0.002082,0.001341,0.04,-0.29,9.83,33.76,0.026632,0.030893,0.001065
369399932,-0.002008,-0.002082,0.000276,0.03,-0.27,9.86,33.75,0.026632,0.030893,0.000000
369400942,-0.002008,0.000049,-0.000789,0.02,-0.24,9.89,33.75,0.024501,0.030893,-0.001065
369401968,-0.002008,0.000049,-0.000789,0.02,-0.30,9.88,33.73,0.024501,0.030893,-0.001065
369402981,-0.000943,0.000049,-0.000789,0.07,-0.34,9.83,33.80,0.024501,0.031958,-0.001065
369403985,0.000122,0.001114,-0.000789,0.08,-0.33,9.83,33.83,0.023436,0.033024,-0.001065
369404995,0.001188,0.001114,-0.000789,0.03,-0.29,9.84,33.81,0.023436,0.034089,-0.001065
369405999,0.001188,-0.001017,0.000276,0.01,-0.25,9.85,33.79,0.025567,0.034089,0.000000
369407011,0.001188,-0.002082,0.001341,0.01,-0.30,9.78,33.76,0.026632,0.034089,0.001065
369408024,0.000122,-0.005278,0.000276,0.01,-0.35,9.78,33.71,0.029828,0.033024,0.000000
369409039,0.000122,-0.005278,0.002407,0.00,-0.34,9.83,33.71,0.029828,0.033024,0.002131
369410044,-0.000943,-0.002082,0.001341,0.04,-0.35,9.80,33.74,0.026632,0.031958,0.001065
369411052,-0.002008,0.002179,0.001341,0.06,-0.30,9.78,33.76,0.022371,0.030893,0.001065
369412091,-0.000943,0.004310,0.001341,0.03,-0.28,9.75,33.74,0.020240,0.031958,0.001065
369413085,0.000122,0.002179,-0.000789,0.02,-0.32,9.75,33.77,0.022371,0.033024,-0.001065
369414098,0.001188,-0.001017,-0.003985,0.02,-0.31,9.78,33.80,0.025567,0.034089,-0.004261
369415088,0.001188,-0.004213,-0.002920,0.03,-0.29,9.81,33.80,0.028763,0.034089,-0.003196
369416108,0.001188,-0.004213,0.000276,0.03,-0.30,9.81,33.77,0.028763,0.034089,0.000000
369417112,0.002253,-0.001017,0.000276,0.03,-0.31,9.82,33.75,0.025567,0.035154,0.000000
369418119,0.004384,0.000049,-0.000789,0.04,-0.28,9.82,33.76,0.024501,0.037285,-0.001065
369419144,0.001188,0.000049,-0.000789,0.04,-0.28,9.83,33.78,0.024501,0.034089,-0.001065
369420142,0.000122,0.000049,0.000276,0.01,-0.30,9.85,33.76,0.024501,0.033024,0.000000
369421146,0.001188,-0.002082,0.001341,0.00,-0.28,9.83,33.75,0.026632,0.034089,0.001065
369422169,0.001188,-0.002082,0.002407,0.02,-0.28,9.83,33.80,0.026632,0.034089,0.002131
369423179,0.001188,-0.003147,0.002407,0.04,-0.28,9.81,33.81,0.027697,0.034089,0.002131
369424186,0.001188,-0.004213,0.001341,0.02,-0.31,9.77,33.75,0.028763,0.034089,0.001065
369425188,0.000122,-0.004213,0.000276,0.01,-0.34,9.76,33.75,0.028763,0.033024,0.000000
369426198,-0.000943,-0.003147,-0.001854,0.00,-0.29,9.80,33.77,0.027697,0.031958,-0.002131
369427207,0.001188,0.000049,-0.001854,-0.01,-0.29,9.82,33.78,0.024501,0.034089,-0.002131
369428216,0.001188,0.000049,-0.000789,0.01,-0.30,9.80,33.77,0.024501,0.034089,-0.001065
369429232,-0.002008,0.001114,0.001341,0.01,-0.30,9.85,33.77,0.023436,0.030893,0.001065
369430234,-0.004139,0.001114,0.000276,0.00,-0.32,9.84,33.77,0.023436,0.028763,0.000000
369431244,-0.004139,0.002179,0.000276,0.01,-0.32,9.81,33.78,0.022371,0.028763,0.000000
369432285,-0.003073,0.002179,0.000276,0.03,-0.33,9.83,33.76,0.022371,0.029828,0.000000
369433278,-0.002008,0.003244,0.000276,0.04,-0.34,9.82,33.81,0.021306,0.030893,0.000000
369434278,-0.002008,0.002179,-0.001854,0.02,-0.31,9.77,33.83,0.022371,0.030893,-0.002131
369435282,-0.000943,0.000049,-0.002920,0.00,-0.28,9.77,33.78,0.024501,0.031958,-0.003196
369436292,0.000122,0.001114,-0.002920,0.01,-0.30,9.81,33.79,0.023436,0.033024,-0.003196
369437302,0.000122,0.001114,-0.000789,0.02,-0.35,9.82,33.77,0.023436,0.033024,-0.001065
369438312,0.001188,0.000049,0.001341,0.03,-0.32,9.78,33.79,0.024501,0.034089,0.001065
369439355,0.001188,-0.002082,0.001341,0.04,-0.29,9.80,33.81,0.026632,0.034089,0.001065
369440332,0.001188,-0.001017,0.000276,0.02,-0.31,9.87,33.79,0.025567,0.034089,0.000000
369441342,0.002253,0.000049,0.000276,-0.01,-0.33,9.84,33.78,0.024501,0.035154,0.000000
369442365,0.002253,-0.002082,0.000276,0.01,-0.32,9.78,33.79,0.026632,0.035154,0.000000
369443379,0.000122,-0.004213,0.000276,0.03,-0.27,9.78,33.80,0.028763,0.033024,0.000000
369444382,0.000122,-0.004213,-0.000789,0.02,-0.26,9.80,33.77,0.028763,0.033024,-0.001065
369445384,0.000122,-0.002082,-0.000789,0.01,-0.30,9.83,33.76,0.026632,0.033024,-0.001065
369446394,-0.000943,0.001114,-0.000789,0.01,-0.32,9.88,33.78,0.023436,0.031958,-0.001065
369447404,-0.002008,0.003244,-0.001854,-0.01,-0.32,9.90,33.78,0.021306,0.030893,-0.002131
369448414,-0.000943,0.003244,-0.000789,0.00,-0.32,9.90,33.74,0.021306,0.031958,-0.001065
369449432,-0.000943,0.001114,0.000276,0.03,-0.32,9.81,33.77,0.023436,0.031958,0.000000
369450434,-0.000943,0.000049,0.001341,0.02,-0.30,9.75,33.81,0.024501,0.031958,0.001065
369451444,0.000122,0.001114,0.000276,0.02,-0.28,9.80,33.79,0.023436,0.033024,0.000000
369452468,-0.000943,0.000049,0.001341,0.03,-0.30,9.86,33.80,0.024501,0.031958,0.001065
369453478,-0.000943,-0.001017,0.003472,0.03,-0.31,9.86,33.80,0.025567,0.031958,0.003196
369454478,0.000122,0.001114,0.003472,0.04,-0.31,9.80,33.78,0.023436,0.033024,0.003196
369455482,0.001188,0.003244,0.001341,0.04,-0.32,9.82,33.77,0.021306,0.034089,0.001065
369456516,-0.000956,0.003256,0.001296,0.04,-0.32,9.86,33.75,0.021306,0.031958,0.001065
369457502,-0.002021,-0.001006,0.001296,0.04,-0.31,9.88,33.77,0.025567,0.030893,0.001065
369458512,-0.000956,0.000060,0.001296,0.00,-0.33,9.87,33.78,0.024501,0.031958,0.001065
369459531,-0.000956,0.002190,0.000231,-0.02,-0.34,9.82,33.80,0.022371,0.031958,0.000000
369460532,0.000110,0.000060,-0.000834,-0.01,-0.31,9.82,33.84,0.024501,0.033024,-0.001065
369461542,0.001175,-0.002071,-0.000834,0.00,-0.29,9.82,33.80,0.026632,0.034089,-0.001065
369462564,0.002240,-0.002071,0.001296,0.04,-0.28,9.81,33.79,0.026632,0.035154,0.001065
369463579,0.002240,-0.001006,0.000231,0.05,-0.28,9.81,33.80,0.025567,0.035154,0.000000
369464582,0.001175,0.000060,-0.000834,0.03,-0.32,9.79,33.79,0.024501,0.034089,-0.001065
369465584,0.000110,-0.001006,-0.002965,0.02,-0.33,9.82,33.79,0.025567,0.033024,-0.003196
369466594,0.001175,-0.002071,-0.004030,0.00,-0.30,9.88,33.76,0.026632,0.034089,-0.004261
369467604,0.001175,-0.002071,-0.001900,-0.01,-0.32,9.86,33.79,0.026632,0.034089,-0.002131
369468614,-0.003086,0.001125,-0.000834,-0.02,-0.33,9.79,33.80,0.023436,0.029828,-0.001065
369469632,-0.006282,0.001125,0.000231,0.02,-0.30,9.78,33.78,0.023436,0.026632,0.000000
369470634,-0.004151,0.001125,0.001296,0.04,-0.29,9.83,33.78,0.023436,0.028763,0.001065
369471658,0.000110,0.002190,0.001296,-0.01,-0.29,9.85,33.77,0.022371,0.033024,0.001065
369472654,0.002240,0.004321,0.000231,0.01,-0.30,9.80,33.80,0.020240,0.035154,0.000000
369473678,-0.000956,0.004321,0.000231,0.04,-0.31,9.74,33.81,0.020240,0.031958,0.000000
369474678,-0.002021,0.003256,0.001296,0.03,-0.31,9.77,33.80,0.021306,0.030893,0.001065
369475682,0.000110,-0.002071,0.000231,0.02,-0.32,9.77,33.79,0.026632,0.033024,0.000000
369476692,0.000110,-0.002071,0.000231,0.00,-0.32,9.79,33.77,0.026632,0.033024,0.000000
369477702,0.000110,0.000060,0.000231,-0.02,-0.32,9.75,33.76,0.024501,0.033024,0.000000
369478712,0.001175,0.001125,0.001296,0.00,-0.31,9.76,33.76,0.023436,0.034089,0.001065
369479731,0.001175,0.000060,0.001296,0.03,-0.30,9.81,33.77,0.024501,0.034089,0.001065
369480732,0.000110,-0.002071,0.000231,0.02,-0.31,9.82,33.77,0.026632,0.033024,0.000000
369481755,-0.000956,-0.003136,-0.000834,0.03,-0.29,9.80,33.81,0.027697,0.031958,-0.001065
369482752,0.000110,-0.002071,-0.001900,0.03,-0.29,9.79,33.80,0.026632,0.033024,-0.002131
369483779,0.000110,-0.002071,-0.001900,0.03,-0.30,9.81,33.76,0.026632,0.033024,-0.002131
369484782,0.000110,-0.001006,-0.000834,0.01,-0.28,9.79,33.80,0.025567,0.033024,-0.001065
369485784,0.001175,-0.001006,0.000231,0.00,-0.30,9.79,33.80,0.025567,0.034089,0.000000
369486794,0.003306,-0.001006,0.001296,0.00,-0.32,9.87,33.79,0.025567,0.036220,0.001065
369487804,0.003306,0.000060,0.000231,-0.02,-0.31,9.90,33.78,0.024501,0.036220,0.000000
369488814,0.001175,0.002190,0.000231,0.00,-0.33,9.85,33.76,0.022371,0.034089,0.000000
369489832,-0.002021,0.003256,0.001296,0.04,-0.35,9.78,33.78,0.021306,0.030893,0.001065
369490834,-0.000956,0.000060,0.002361,0.02,-0.34,9.77,33.77,0.024501,0.031958,0.002131
369491857,0.000110,-0.003136,0.000231,0.01,-0.32,9.78,33.79,0.027697,0.033024,0.000000
369492868,0.000110,-0.003136,-0.002965,0.01,-0.31,9.77,33.78,0.027697,0.033024,-0.003196
369493862,-0.002021,0.001125,-0.004030,0.03,-0.31,9.79,33.78,0.023436,0.030893,-0.004261
369494878,-0.002021,0.002190,-0.002965,0.05,-0.34,9.80,33.77,0.022371,0.030893,-0.003196
369495882,0.000110,0.003256,-0.000834,0.03,-0.33,9.82,33.78,0.021306,0.033024,-0.001065
369496892,0.002240,0.005386,-0.001900,-0.01,-0.31,9.86,33.77,0.019175,0.035154,-0.002131
369497902,0.003306,0.003256,-0.004030,0.03,-0.31,9.86,33.78,0.021306,0.036220,-0.004261
369498912,0.002240,0.000060,-0.002965,0.06,-0.32,9.82,33.74,0.024501,0.035154,-0.003196
369499931,0.000110,-0.002071,-0.000834,0.01,-0.31,9.86,33.72,0.026632,0.033024,-0.001065
369500932,-0.003086,-0.003136,0.000231,-0.02,-0.30,9.87,33.74,0.027697,0.029828,0.000000
369501955,-0.002021,-0.003136,0.000231,0.02,-0.32,9.86,33.76,0.027697,0.030893,0.000000
369502970,0.000110,-0.003136,0.000231,0.03,-0.30,9.86,33.79,0.027697,0.033024,0.000000
369503966,0.002240,-0.001006,0.002361,0.05,-0.34,9.83,33.77,0.025567,0.035154,0.002131
369504985,0.001175,0.001125,0.001296,0.05,-0.35,9.84,33.79,0.023436,0.034089,0.001065
369505995,0.000110,0.001125,-0.000834,0.02,-0.31,9.85,33.82,0.023436,0.033024,-0.001065
369507003,-0.000956,0.002190,-0.000834,0.05,-0.33,9.82,33.82,0.022371,0.031958,-0.001065
369508009,-0.002021,0.002190,-0.000834,0.05,-0.31,9.82,33.82,0.022371,0.030893,-0.001065
369509026,-0.002021,0.001125,0.000231,0.00,-0.28,9.86,33.77,0.023436,0.030893,0.000000
369510040,0.000110,0.003256,-0.000834,0.04,-0.30,9.84,33.82,0.021306,0.033024,-0.001065
369511044,0.001175,0.005386,-0.001900,0.06,-0.31,9.80,33.84,0.019175,0.034089,-0.002131
369512081,0.001175,0.004321,-0.000834,0.03,-0.32,9.85,33.80,0.020240,0.034089,-0.001065
369513064,0.002240,0.002190,0.000231,0.04,-0.33,9.85,33.79,0.022371,0.035154,0.000000
369514076,0.000110,0.000060,-0.000834,0.04,-0.30,9.83,33.80,0.024501,0.033024,-0.001065
369515089,0.001175,-0.002071,0.000231,0.03,-0.28,9.83,33.78,0.026632,0.034089,0.000000
369516095,0.003306,-0.003136,0.001296,0.05,-0.32,9.82,33.77,0.027697,0.036220,0.001065
369517104,0.003306,-0.002071,0.000231,0.04,-0.32,9.83,33.78,0.026632,0.036220,0.000000
369518114,0.003306,-0.001006,-0.000834,0.01,-0.31,9.84,33.78,0.025567,0.036220,-0.001065
369519122,0.003306,-0.003136,0.000231,0.00,-0.32,9.81,33.79,0.027697,0.036220,0.000000
369520143,0.002240,-0.004201,0.001296,0.01,-0.31,9.85,33.82,0.028763,0.035154,0.001065
369521142,-0.000956,-0.003136,0.001296,0.02,-0.28,9.88,33.82,0.027697,0.031958,0.001065
369522164,-0.003086,-0.002071,0.002361,0.00,-0.31,9.78,33.80,0.026632,0.029828,0.002131
369523157,-0.002021,0.000060,0.003427,0.00,-0.32,9.75,33.81,0.024501,0.030893,0.003196
369524167,0.001175,0.001125,0.002361,0.01,-0.29,9.81,33.79,0.023436,0.034089,0.002131
369525186,0.003306,0.002190,0.000231,0.01,-0.29,9.78,33.78,0.022371,0.036220,0.000000
369526188,0.001175,0.002190,0.000231,0.02,-0.28,9.74,33.79,0.022371,0.034089,0.000000
369527198,-0.003086,0.001125,0.001296,0.02,-0.29,9.76,33.76,0.023436,0.029828,0.001065
369528207,-0.004151,0.000060,0.001296,0.03,-0.30,9.81,33.77,0.024501,0.028763,0.001065
369529216,-0.002021,0.000060,0.001296,0.03,-0.32,9.85,33.77,0.024501,0.030893,0.001065
369530232,-0.002021,-0.001006,0.002361,-0.01,-0.30,9.85,33.77,0.025567,0.030893,0.002131
369531234,-0.002021,0.000060,0.003427,-0.02,-0.29,9.83,33.82,0.024501,0.030893,0.003196
369532258,-0.002021,0.002190,0.002361,0.02,-0.32,9.82,33.82,0.022371,0.030893,0.002131
369533254,0.001175,0.000060,0.002361,0.05,-0.33,9.83,33.82,0.024501,0.034089,0.002131
369534264,0.002240,-0.002071,0.002361,0.07,-0.36,9.84,33.77,0.026632,0.035154,0.002131
369535279,0.002240,-0.002071,-0.000834,0.07,-0.35,9.82,33.80,0.026632,0.035154,-0.001065
369536284,0.000110,-0.002071,-0.002965,0.05,-0.31,9.81,33.77,0.026632,0.033024,-0.003196
369537294,-0.003086,-0.002071,-0.002965,0.05,-0.31,9.80,33.77,0.026632,0.029828,-0.003196
369538304,-0.002021,-0.001006,-0.001900,0.04,-0.31,9.83,33.79,0.025567,0.030893,-0.002131
369539314,0.000110,0.000060,0.000231,0.00,-0.30,9.81,33.84,0.024501,0.033024,0.000000
369540332,0.001175,-0.001006,0.001296,-0.01,-0.29,9.78,33.81,0.025567,0.034089,0.001065
369541368,0.000110,-0.001006,0.000231,-0.02,-0.29,9.82,33.80,0.025567,0.033024,0.000000
369542354,0.000110,0.000060,-0.000834,0.00,-0.27,9.84,33.83,0.024501,0.033024,-0.001065
369543354,0.001175,0.001125,-0.001900,0.01,-0.28,9.86,33.76,0.023436,0.034089,-0.002131
369544364,0.002240,0.003256,-0.001900,0.01,-0.30,9.85,33.78,0.021306,0.035154,-0.002131
369545382,0.003306,0.002190,0.000231,0.04,-0.28,9.81,33.76,0.022371,0.036220,0.000000
369546384,0.003306,0.000060,0.000231,0.06,-0.31,9.79,33.80,0.024501,0.036220,0.000000
369547394,0.002240,-0.003136,0.001296,0.03,-0.32,9.76,33.78,0.027697,0.035154,0.001065
369548404,0.002240,-0.004201,0.000231,0.01,-0.33,9.78,33.76,0.028763,0.035154,0.000000
369549414,0.001175,-0.001006,-0.001900,0.03,-0.34,9.85,33.73,0.025567,0.034089,-0.002131
369550432,0.001175,0.002190,-0.000834,0.03,-0.31,9.87,33.74,0.022371,0.034089,-0.001065
369551434,0.000110,0.005386,-0.000834,0.03,-0.31,9.84,33.76,0.019175,0.033024,-0.001065
369552458,-0.000956,0.004321,-0.002965,0.03,-0.33,9.78,33.80,0.020240,0.031958,-0.003196
369553454,-0.000956,0.000060,-0.002965,0.00,-0.32,9.74,33.77,0.024501,0.031958,-0.003196
369554464,0.000110,-0.002071,-0.000834,0.04,-0.31,9.78,33.79,0.026632,0.033024,-0.001065
369555479,0.000110,-0.002071,0.000231,0.06,-0.33,9.83,33.77,0.026632,0.033024,0.000000
369556484,0.000110,-0.001006,-0.000834,0.05,-0.31,9.82,33.77,0.025567,0.033024,-0.001065
369557494,0.000110,-0.001006,-0.000834,0.03,-0.29,9.81,33.77,0.025567,0.033024,-0.001065
369558504,0.000110,0.001125,-0.000834,-0.01,-0.29,9.81,33.79,0.023436,0.033024,-0.001065
369559514,-0.002021,0.002190,0.000231,-0.01,-0.29,9.81,33.80,0.022371,0.030893,0.000000
369560532,-0.002021,0.000060,0.000231,0.00,-0.30,9.81,33.76,0.024501,0.030893,0.000000
369561534,-0.000956,-0.002071,-0.002965,0.00,-0.30,9.80,33.77,0.026632,0.031958,-0.003196
369562554,0.001175,-0.001006,-0.004030,0.00,-0.28,9.82,33.76,0.025567,0.034089,-0.004261
369563554,0.001175,0.001125,-0.001900,0.00,-0.28,9.85,33.77,0.023436,0.034089,-0.002131
369564564,-0.000956,0.002190,-0.000834,0.01,-0.30,9.89,33.77,0.022371,0.031958,-0.001065
369565582,-0.000956,0.001125,-0.000834,0.02,-0.31,9.83,33.77,0.023436,0.031958,-0.001065
369566584,-0.000956,-0.001006,-0.001900,-0.01,-0.30,9.75,33.75,0.025567,0.031958,-0.002131
369567594,-0.000956,-0.003136,-0.001900,-0.02,-0.28,9.80,33.75,0.027697,0.031958,-0.002131
369568604,0.000110,-0.001006,0.000231,0.00,-0.31,9.86,33.74,0.025567,0.033024,0.000000
369569614,0.001175,0.002190,0.001296,0.05,-0.32,9.89,33.80,0.022371,0.034089,0.001065
369570632,0.002240,0.002190,0.001296,0.07,-0.28,9.85,33.81,0.022371,0.035154,0.001065
369571648,0.003306,0.001125,0.001296,0.05,-0.29,9.79,33.79,0.023436,0.036220,0.001065
369572644,0.002240,0.001125,0.001296,0.03,-0.31,9.78,33.81,0.023436,0.035154,0.001065
369573654,0.001175,0.000060,0.000231,0.02,-0.32,9.82,33.80,0.024501,0.034089,0.000000
369574664,-0.000956,0.001125,-0.001900,0.03,-0.30,9.84,33.78,0.023436,0.031958,-0.002131
369575679,-0.000956,0.000060,-0.002965,0.02,-0.28,9.85,33.77,0.024501,0.031958,-0.003196
369576684,-0.003086,0.002190,-0.000834,0.01,-0.32,9.85,33.80,0.022371,0.029828,-0.001065
369577694,-0.004151,0.001125,0.001296,0.01,-0.31,9.81,33.79,0.023436,0.028763,0.001065
369578704,-0.003086,-0.001006,-0.001900,0.04,-0.29,9.79,33.74,0.025567,0.029828,-0.002131
369579714,-0.002021,-0.001006,-0.002965,0.02,-0.29,9.86,33.73,0.025567,0.030893,-0.003196
369580732,-0.003086,0.000060,-0.000834,-0.03,-0.30,9.87,33.80,0.024501,0.029828,-0.001065
369581744,-0.002021,0.000060,0.001296,-0.01,-0.30,9.84,33.80,0.024501,0.030893,0.001065
369582744,-0.000956,0.001125,0.001296,0.03,-0.31,9.81,33.78,0.023436,0.031958,0.001065
369583754,-0.000956,0.002190,0.000231,0.03,-0.31,9.82,33.81,0.022371,0.031958,0.000000
369584764,0.000110,0.001125,0.000231,0.06,-0.29,9.86,33.79,0.023436,0.033024,0.000000
369585803,-0.000958,0.000049,0.001323,0.09,-0.30,9.84,33.77,0.024501,0.031958,0.001065
369586784,-0.000958,-0.001017,0.002389,0.02,-0.33,9.79,33.75,0.025567,0.031958,0.002131
369587794,0.000107,-0.002082,0.002389,-0.01,-0.33,9.78,33.79,0.026632,0.033024,0.002131
369588804,0.002238,-0.002082,0.002389,0.01,-0.33,9.81,33.79,0.026632,0.035154,0.002131
369589814,0.002238,0.000049,0.002389,0.01,-0.33,9.82,33.77,0.024501,0.035154,0.002131
369590832,-0.000958,0.002179,0.002389,0.04,-0.33,9.80,33.78,0.022371,0.031958,0.002131
369591847,-0.004154,0.002179,0.001323,0.05,-0.30,9.80,33.76,0.022371,0.028763,0.001065
369592844,-0.000958,0.002179,0.000258,0.06,-0.27,9.81,33.81,0.022371,0.031958,0.000000
369593854,0.002238,0.002179,0.000258,0.07,-0.28,9.85,33.79,0.022371,0.035154,0.000000
369594864,0.002238,0.002179,0.001323,0.06,-0.32,9.84,33.76,0.022371,0.035154,0.001065
369595879,0.001173,0.001114,0.000258,0.03,-0.33,9.77,33.77,0.023436,0.034089,0.000000
369596884,0.001173,-0.001017,0.000258,0.02,-0.29,9.74,33.79,0.025567,0.034089,0.000000
369597894,0.002238,-0.001017,0.001323,0.00,-0.30,9.80,33.79,0.025567,0.035154,0.001065
369598904,0.001173,-0.001017,0.001323,-0.01,-0.34,9.83,33.83,0.025567,0.034089,0.001065
369599914,-0.002023,0.000049,0.001323,0.03,-0.33,9.83,33.84,0.024501,0.030893,0.001065
369600932,-0.002023,-0.001017,0.000258,0.04,-0.31,9.82,33.79,0.025567,0.030893,0.000000
369601943,-0.000958,-0.002082,-0.001872,0.04,-0.30,9.76,33.79,0.026632,0.031958,-0.002131
369602944,-0.002023,-0.004213,-0.001872,0.04,-0.30,9.76,33.79,0.028763,0.030893,-0.002131
369603955,-0.002023,-0.004213,0.000258,0.06,-0.32,9.77,33.78,0.028763,0.030893,0.000000
369604967,0.000107,-0.002082,-0.000807,0.07,-0.28,9.81,33.78,0.026632,0.033024,-0.001065
369605985,0.000107,-0.001017,0.000258,0.03,-0.29,9.81,33.81,0.025567,0.033024,0.000000
369606995,0.001173,0.002179,0.001323,0.00,-0.31,9.77,33.77,0.022371,0.034089,0.001065
369608004,0.003303,0.003244,0.001323,0.01,-0.32,9.77,33.81,0.021306,0.036220,0.001065
369609011,0.003303,0.003244,0.000258,0.00,-0.34,9.78,33.78,0.021306,0.036220,0.000000
369610024,0.002238,0.002179,-0.000807,0.00,-0.32,9.80,33.75,0.022371,0.035154,-0.001065
369611039,0.000107,0.001114,-0.001872,0.05,-0.28,9.82,33.77,0.023436,0.033024,-0.002131
369612056,0.000107,0.001114,-0.001872,0.03,-0.30,9.81,33.77,0.023436,0.033024,-0.002131
369613056,0.002238,0.001114,0.000258,0.00,-0.30,9.79,33.76,0.023436,0.035154,0.000000
369614070,0.002238,-0.001017,-0.000807,0.00,-0.28,9.78,33.80,0.025567,0.035154,-0.001065
369615077,0.000107,-0.003147,-0.002938,-0.02,-0.30,9.79,33.81,0.027697,0.033024,-0.003196
369616099,-0.004154,-0.002082,-0.004003,-0.01,-0.28,9.85,33.79,0.026632,0.028763,-0.004261
369617089,-0.006284,-0.002082,-0.001872,0.02,-0.30,9.83,33.79,0.026632,0.026632,-0.002131
369618110,-0.004154,-0.002082,0.001323,0.01,-0.33,9.77,33.80,0.026632,0.028763,0.001065
369619113,0.001173,0.000049,0.002389,0.00,-0.31,9.76,33.80,0.024501,0.034089,0.002131
369620121,0.005434,-0.001017,0.001323,0.00,-0.32,9.75,33.77,0.025567,0.038350,0.001065
369621145,0.003303,-0.003147,0.000258,0.01,-0.34,9.78,33.78,0.027697,0.036220,0.000000
369622151,-0.000958,-0.003147,0.000258,0.03,-0.32,9.77,33.78,0.027697,0.031958,0.000000
369623149,-0.004154,0.000049,-0.000807,0.02,-0.30,9.78,33.79,0.024501,0.028763,-0.001065
369624157,-0.004154,0.001114,-0.000807,0.03,-0.31,9.80,33.78,0.023436,0.028763,-0.001065
369625167,-0.002023,0.003244,-0.000807,0.04,-0.34,9.81,33.80,0.021306,0.030893,-0.001065
369626186,0.000107,0.004310,0.001323,0.01,-0.32,9.80,33.79,0.020240,0.033024,0.001065
369627188,0.003303,0.002179,0.001323,0.01,-0.28,9.77,33.78,0.022371,0.036220,0.001065
369628198,0.003303,0.000049,0.000258,0.03,-0.28,9.80,33.76,0.024501,0.036220,0.000000
369629207,-0.000958,0.001114,0.000258,0.04,-0.31,9.86,33.80,0.023436,0.031958,0.000000
369630216,0.000107,0.001114,-0.000807,0.02,-0.33,9.86,33.83,0.023436,0.033024,-0.001065
369631232,0.001173,-0.002082,0.001323,0.02,-0.32,9.84,33.82,0.026632,0.034089,0.001065
369632247,0.000107,-0.003147,0.004519,0.04,-0.29,9.86,33.79,0.027697,0.033024,0.004261
369633244,-0.000958,-0.002082,0.005585,0.02,-0.31,9.85,33.80,0.026632,0.031958,0.005326
369634254,0.002238,-0.001017,0.003454,0.02,-0.31,9.80,33.77,0.025567,0.035154,0.003196
369635264,0.003303,-0.001017,0.001323,0.03,-0.28,9.86,33.77,0.025567,0.036220,0.001065
369636279,0.003303,-0.002082,-0.000807,0.03,-0.26,9.84,33.75,0.026632,0.036220,-0.001065
369637301,0.001173,-0.002082,-0.001872,0.02,-0.28,9.81,33.77,0.026632,0.034089,-0.002131
369638294,-0.000958,-0.001017,-0.001872,0.02,-0.32,9.81,33.79,0.025567,0.031958,-0.002131
369639304,-0.000958,0.000049,-0.001872,0.00,-0.30,9.83,33.76,0.024501,0.031958,-0.002131
369640314,-0.000958,0.001114,-0.001872,0.02,-0.31,9.83,33.77,0.023436,0.031958,-0.002131
369641332,0.000107,0.000049,0.000258,0.04,-0.33,9.82,33.81,0.024501,0.033024,0.000000
369642343,0.001173,0.000049,0.000258,0.01,-0.34,9.81,33.81,0.024501,0.034089,0.000000
369643344,0.002238,0.001114,-0.000807,0.02,-0.32,9.76,33.77,0.023436,0.035154,-0.001065
369644354,0.000107,0.000049,-0.000807,0.01,-0.32,9.75,33.78,0.024501,0.033024,-0.001065
369645364,-0.002023,0.000049,0.001323,0.01,-0.29,9.76,33.77,0.024501,0.030893,0.001065
369646382,-0.002023,0.000049,0.001323,0.00,-0.30,9.81,33.74,0.024501,0.030893,0.001065
369647384,-0.002023,-0.001017,0.000258,0.01,-0.33,9.86,33.79,0.025567,0.030893,0.000000
369648394,-0.000958,-0.002082,0.001323,0.01,-0.32,9.86,33.83,0.026632,0.031958,0.001065
369649404,0.000107,-0.001017,0.004519,0.00,-0.33,9.79,33.81,0.025567,0.033024,0.004261
369650414,0.001173,0.001114,0.002389,-0.02,-0.32,9.80,33.78,0.023436,0.034089,0.002131
369651432,0.000107,0.000049,-0.000807,-0.01,-0.30,9.85,33.83,0.024501,0.033024,-0.001065
369652447,0.000107,-0.001017,-0.001872,0.03,-0.31,9.83,33.77,0.025567,0.033024,-0.002131
369653444,0.000107,-0.001017,-0.001872,0.00,-0.31,9.84,33.74,0.025567,0.033024,-0.002131
369654454,0.002238,0.000049,-0.002938,-0.01,-0.28,9.83,33.77,0.024501,0.035154,-0.003196
369655464,0.001173,0.003244,-0.001872,0.00,-0.30,9.83,33.79,0.021306,0.034089,-0.002131
369656479,-0.002023,0.002179,0.001323,0.02,-0.34,9.82,33.79,0.022371,0.030893,0.001065
369657484,-0.003088,0.000049,0.000258,0.02,-0.34,9.81,33.79,0.024501,0.029828,0.000000
369658494,-0.003088,0.000049,0.000258,-0.02,-0.29,9.82,33.80,0.024501,0.029828,0.000000
369659504,-0.004154,0.000049,-0.001872,-0.01,-0.29,9.82,33.80,0.024501,0.028763,-0.002131
369660514,-0.004154,0.001114,-0.001872,0.03,-0.31,9.80,33.79,0.023436,0.028763,-0.002131
369661532,-0.003088,0.002179,-0.000807,0.01,-0.33,9.79,33.80,0.022371,0.029828,-0.001065
369662543,-0.000958,0.001114,0.000258,0.01,-0.35,9.81,33.80,0.023436,0.031958,0.000000
369663544,0.003303,-0.003147,0.002389,0.04,-0.33,9.76,33.77,0.027697,0.036220,0.002131
369664554,0.003303,-0.003147,0.002389,0.02,-0.30,9.78,33.78,0.027697,0.036220,0.002131
369665564,0.000107,0.000049,0.000258,-0.02,-0.30,9.80,33.79,0.024501,0.033024,0.000000
369666582,-0.004154,0.002179,-0.001872,0.03,-0.29,9.79,33.78,0.022371,0.028763,-0.002131
369667584,-0.004154,0.003244,0.000258,0.05,-0.27,9.78,33.81,0.021306,0.028763,0.000000
369668594,-0.003088,0.002179,0.002389,0.02,-0.31,9.76,33.81,0.022371,0.029828,0.002131
369669604,-0.002023,0.001114,0.001323,-0.01,-0.32,9.81,33.79,0.023436,0.030893,0.001065
369670614,0.000107,-0.002082,0.001323,0.00,-0.30,9.82,33.79,0.026632,0.033024,0.001065
369671644,0.000107,-0.003147,0.002389,0.01,-0.30,9.82,33.75,0.027697,0.033024,0.002131
369672634,0.000107,-0.002082,0.003454,0.02,-0.28,9.86,33.76,0.026632,0.033024,0.003196
369673644,-0.000958,0.002179,0.001323,0.04,-0.27,9.84,33.80,0.022371,0.031958,0.001065
369674654,-0.004154,0.004310,0.000258,0.07,-0.25,9.80,33.78,0.020240,0.028763,0.000000
369675664,-0.004154,0.002179,-0.000807,0.06,-0.27,9.82,33.80,0.022371,0.028763,-0.001065
369676679,0.002238,-0.003147,-0.001872,0.02,-0.30,9.83,33.75,0.027697,0.035154,-0.002131
369677684,0.003303,-0.001017,-0.004003,0.03,-0.31,9.78,33.71,0.025567,0.036220,-0.004261
369678694,0.002238,0.001114,-0.001872,0.02,-0.33,9.80,33.74,0.023436,0.035154,-0.002131
369679704,0.001173,0.001114,0.001323,0.03,-0.31,9.81,33.74,0.023436,0.034089,0.001065
369680714,0.001173,0.001114,0.003454,0.04,-0.28,9.79,33.76,0.023436,0.034089,0.003196
369681740,-0.000958,0.000049,0.004519,0.01,-0.26,9.80,33.81,0.024501,0.031958,0.004261
369682734,-0.000958,0.000049,0.001323,0.00,-0.28,9.82,33.77,0.024501,0.031958,0.001065
369683744,-0.000958,0.001114,-0.000807,0.03,-0.31,9.77,33.72,0.023436,0.031958,-0.001065
369684754,-0.002023,0.000049,-0.001872,0.01,-0.32,9.72,33.72,0.024501,0.030893,-0.002131
369685764,-0.002023,-0.001017,-0.000807,0.02,-0.32,9.78,33.73,0.025567,0.030893,-0.001065
369686782,-0.000958,-0.002082,0.000258,0.05,-0.31,9.80,33.73,0.026632,0.031958,0.000000
369687784,0.001173,0.000049,0.001323,0.03,-0.30,9.82,33.76,0.024501,0.034089,0.001065
369688794,0.001173,0.001114,0.002389,0.01,-0.30,9.81,33.79,0.023436,0.034089,0.002131
369689804,0.000107,-0.001017,0.001323,0.02,-0.29,9.80,33.78,0.025567,0.033024,0.001065
369690814,0.000107,-0.003147,-0.000807,0.02,-0.29,9.82,33.81,0.027697,0.033024,-0.001065
369691844,0.002238,-0.002082,-0.002938,0.04,-0.32,9.80,33.79,0.026632,0.035154,-0.003196
369692834,0.001173,-0.002082,-0.002938,0.02,-0.34,9.83,33.73,0.026632,0.034089,-0.003196
369693844,0.000107,0.000049,-0.002938,-0.01,-0.34,9.81,33.77,0.024501,0.033024,-0.003196
369694854,-0.000958,0.001114,-0.004003,0.01,-0.34,9.83,33.77,0.023436,0.031958,-0.004261
369695864,0.000107,0.000049,-0.002938,0.03,-0.33,9.86,33.77,0.024501,0.033024,-0.003196
369696879,-0.000958,-0.002082,0.000258,0.01,-0.29,9.85,33.76,0.026632,0.031958,0.000000
369697884,-0.002023,-0.003147,0.000258,-0.01,-0.27,9.86,33.73,0.027697,0.030893,0.000000
369698894,-0.003088,-0.001017,0.001323,0.02,-0.28,9.88,33.73,0.025567,0.029828,0.001065
369699904,-0.002023,0.001114,0.000258,0.05,-0.33,9.87,33.79,0.023436,0.030893,0.000000
369700914,0.001173,0.002179,-0.001872,0.03,-0.34,9.82,33.79,0.022371,0.034089,-0.002131
369701975,0.002238,0.000049,-0.001872,0.05,-0.32,9.83,33.83,0.024501,0.035154,-0.002131
369702954,0.000107,-0.003147,0.000258,0.02,-0.29,9.82,33.78,0.027697,0.033024,0.000000
369703944,-0.000958,-0.003147,0.001323,-0.01,-0.29,9.81,33.78,0.027697,0.031958,0.001065
369704956,-0.000958,-0.003147,0.002389,0.00,-0.31,9.86,33.78,0.027697,0.031958,0.002131
369705971,0.000107,-0.001017,0.003454,0.00,-0.30,9.86,33.78,0.025567,0.033024,0.003196
369706985,0.001173,0.000049,0.002389,0.02,-0.30,9.80,33.76,0.024501,0.034089,0.002131
369707995,0.000107,0.001114,0.000258,0.03,-0.31,9.78,33.77,0.023436,0.033024,0.000000
369709004,0.000107,0.002179,0.001323,0.04,-0.30,9.82,33.81,0.022371,0.033024,0.001065
369710011,0.001173,0.003244,0.001323,0.05,-0.31,9.86,33.82,0.021306,0.034089,0.001065
369711024,-0.000958,0.002179,0.001323,0.01,-0.34,9.85,33.76,0.022371,0.031958,0.001065
369712059,-0.000958,0.001114,0.001323,0.05,-0.33,9.83,33.76,0.023436,0.031958,0.001065
369713043,0.000107,-0.001017,0.003454,0.06,-0.33,9.83,33.78,0.025567,0.033024,0.003196
369714055,0.000107,-0.002082,0.003454,0.01,-0.32,9.83,33.75,0.026632,0.033024,0.003196
369715097,-0.000937,-0.000998,0.000220,0.01,-0.29,9.79,33.77,0.025567,0.031958,0.000000
369716072,-0.002002,0.000068,-0.004041,0.00,-0.30,9.79,33.77,0.024501,0.030893,-0.004261
369717099,0.000129,0.000068,-0.005106,0.00,-0.32,9.83,33.81,0.024501,0.033024,-0.005326
369718089,0.000129,-0.000998,-0.001910,-0.01,-0.32,9.87,33.84,0.025567,0.033024,-0.002131
369719108,-0.000937,0.000068,0.001285,0.00,-0.31,9.86,33.83,0.024501,0.031958,0.001065
369720114,-0.000937,0.001133,0.000220,0.03,-0.30,9.80,33.79,0.023436,0.031958,0.000000
369721121,-0.002002,0.002198,-0.000845,0.03,-0.32,9.81,33.75,0.022371,0.030893,-0.001065
369722154,-0.002002,0.002198,-0.001910,0.05,-0.32,9.82,33.78,0.022371,0.030893,-0.002131
369723141,-0.000937,0.001133,-0.001910,0.06,-0.30,9.82,33.74,0.023436,0.031958,-0.002131
369724149,0.000129,-0.000998,0.000220,0.05,-0.30,9.81,33.78,0.025567,0.033024,0.000000
369725159,0.003324,-0.003128,0.002351,0.04,-0.30,9.80,33.78,0.027697,0.036220,0.002131
369726167,0.003324,-0.002063,0.002351,0.04,-0.32,9.82,33.78,0.026632,0.036220,0.002131
369727186,0.001194,-0.000998,0.003416,0.04,-0.33,9.85,33.80,0.025567,0.034089,0.003196
369728188,0.000129,-0.000998,0.003416,0.01,-0.30,9.84,33.76,0.025567,0.033024,0.003196
369729198,-0.000937,0.001133,0.003416,-0.01,-0.30,9.79,33.75,0.023436,0.031958,0.003196
369730207,-0.000937,0.003264,0.002351,-0.01,-0.28,9.78,33.76,0.021306,0.031958,0.002131
369731216,0.000129,0.003264,0.001285,0.00,-0.28,9.79,33.74,0.021306,0.033024,0.001065
369732244,-0.000937,0.002198,-0.000845,0.03,-0.32,9.78,33.76,0.022371,0.031958,-0.001065
369733234,0.000129,0.000068,-0.004041,0.04,-0.32,9.79,33.74,0.024501,0.033024,-0.004261
369734244,0.001194,-0.002063,-0.002976,0.03,-0.28,9.82,33.75,0.026632,0.034089,-0.003196
369735254,0.000129,-0.002063,0.000220,0.03,-0.28,9.83,33.79,0.026632,0.033024,0.000000
369736264,-0.000937,-0.002063,0.001285,0.02,-0.31,9.85,33.76,0.026632,0.031958,0.001065
369737283,-0.000937,0.000068,0.000220,0.01,-0.32,9.82,33.76,0.024501,0.031958,0.000000
369738284,0.001194,0.001133,-0.000845,0.02,-0.30,9.78,33.82,0.023436,0.034089,-0.001065
369739294,0.001194,0.000068,-0.000845,0.05,-0.28,9.80,33.83,0.024501,0.034089,-0.001065
369740304,0.000129,0.000068,-0.001910,0.04,-0.32,9.82,33.82,0.024501,0.033024,-0.002131
369741314,-0.002002,-0.002063,-0.001910,0.01,-0.34,9.83,33.79,0.026632,0.030893,-0.002131
369742340,-0.002002,0.000068,-0.001910,0.04,-0.32,9.81,33.77,0.024501,0.030893,-0.002131
369743334,-0.000937,0.001133,-0.000845,0.04,-0.31,9.77,33.77,0.023436,0.031958,-0.001065
369744344,0.001194,0.001133,-0.000845,0.04,-0.29,9.78,33.77,0.023436,0.034089,-0.001065
369745354,0.001194,0.000068,-0.001910,0.06,-0.30,9.80,33.83,0.024501,0.034089,-0.002131
369746402,0.000129,-0.002063,-0.001910,0.06,-0.33,9.81,33.80,0.026632,0.033024,-0.002131
369747382,-0.002002,-0.003128,-0.001910,0.02,-0.34,9.86,33.79,0.027697,0.030893,-0.002131
369748384,-0.003067,-0.002063,-0.001910,0.00,-0.32,9.90,33.79,0.026632,0.029828,-0.002131
369749394,-0.000937,-0.003128,-0.000845,-0.03,-0.30,9.83,33.81,0.027697,0.031958,-0.001065
369750404,0.001194,-0.003128,0.000220,-0.04,-0.29,9.80,33.81,0.027697,0.034089,0.000000
369751414,0.000129,-0.002063,0.000220,0.01,-0.30,9.84,33.82,0.026632,0.033024,0.000000
369752444,0.000129,-0.002063,0.000220,0.02,-0.29,9.80,33.77,0.026632,0.033024,0.000000
369753434,0.000129,-0.002063,0.000220,0.01,-0.28,9.79,33.77,0.026632,0.033024,0.000000
369754444,0.000129,-0.002063,0.001285,0.00,-0.28,9.78,33.75,0.026632,0.033024,0.001065
369755454,-0.000937,-0.000998,0.000220,-0.01,-0.28,9.78,33.75,0.025567,0.031958,0.000000
369756464,-0.002002,0.000068,0.000220,0.03,-0.30,9.81,33.78,0.024501,0.030893,0.000000
369757479,-0.000937,0.002198,0.000220,0.02,-0.31,9.81,33.80,0.022371,0.031958,0.000000
369758484,0.000129,0.002198,-0.000845,0.01,-0.34,9.83,33.79,0.022371,0.033024,-0.001065
369759494,0.000129,0.000068,-0.001910,0.02,-0.34,9.83,33.78,0.024501,0.033024,-0.002131
369760504,-0.003067,0.001133,-0.000845,0.03,-0.30,9.83,33.76,0.023436,0.029828,-0.001065
369761514,-0.004133,0.002198,0.001285,0.01,-0.30,9.85,33.77,0.022371,0.028763,0.001065
369762540,-0.002002,0.002198,0.003416,0.00,-0.31,9.85,33.72,0.022371,0.030893,0.003196
369763534,0.001194,0.001133,0.002351,-0.01,-0.32,9.84,33.76,0.023436,0.034089,0.002131
369764544,0.002259,0.000068,-0.001910,0.05,-0.31,9.86,33.77,0.024501,0.035154,-0.002131
369765554,0.000129,-0.002063,-0.001910,0.05,-0.26,9.84,33.78,0.026632,0.033024,-0.002131
369766564,-0.002002,-0.004193,0.000220,0.01,-0.28,9.82,33.79,0.028763,0.030893,0.000000
369767582,-0.000937,-0.002063,0.002351,0.01,-0.32,9.79,33.78,0.026632,0.031958,0.002131
369768584,0.002259,0.001133,0.001285,0.03,-0.29,9.80,33.74,0.023436,0.035154,0.001065
369769594,0.004390,0.002198,-0.000845,0.01,-0.27,9.82,33.80,0.022371,0.037285,-0.001065
369770604,0.004390,0.003264,-0.001910,-0.01,-0.29,9.82,33.80,0.021306,0.037285,-0.002131
369771614,0.001194,0.002198,-0.001910,0.03,-0.32,9.81,33.76,0.022371,0.034089,-0.002131
369772644,-0.000937,0.001133,0.000220,0.04,-0.33,9.79,33.77,0.023436,0.031958,0.000000
369773634,-0.000937,0.002198,0.002351,0.03,-0.32,9.84,33.80,0.022371,0.031958,0.002131
369774644,-0.003067,0.002198,0.001285,0.01,-0.27,9.87,33.80,0.022371,0.029828,0.001065
369775654,-0.002002,0.001133,-0.000845,-0.01,-0.27,9.81,33.79,0.023436,0.030893,-0.001065
369776664,-0.000937,-0.000998,0.000220,-0.01,-0.33,9.80,33.76,0.025567,0.031958,0.000000
369777679,0.000129,-0.003128,0.002351,0.01,-0.31,9.85,33.76,0.027697,0.033024,0.002131
369778684,0.001194,-0.003128,0.001285,0.03,-0.32,9.86,33.75,0.027697,0.034089,0.001065
369779694,0.000129,-0.004193,0.000220,0.04,-0.29,9.86,33.73,0.028763,0.033024,0.000000
369780704,0.000129,-0.002063,0.003416,-0.01,-0.28,9.90,33.77,0.026632,0.033024,0.003196
369781725,-0.000937,-0.000998,0.004481,-0.01,-0.31,9.91,33.81,0.025567,0.031958,0.004261
369782732,-0.002002,0.000068,0.003416,0.03,-0.33,9.87,33.77,0.024501,0.030893,0.003196
369783734,-0.002002,-0.000998,0.001285,0.03,-0.32,9.81,33.79,0.025567,0.030893,0.001065
369784744,-0.002002,0.000068,0.001285,0.04,-0.30,9.82,33.78,0.024501,0.030893,0.001065
369785754,-0.000937,0.000068,0.001285,0.04,-0.31,9.83,33.75,0.024501,0.031958,0.001065
369786764,0.001194,-0.002063,0.000220,0.03,-0.33,9.81,33.78,0.026632,0.034089,0.000000
369787782,0.002259,-0.000998,-0.001910,0.05,-0.34,9.82,33.77,0.025567,0.035154,-0.002131
369788784,0.001194,0.001133,-0.001910,0.02,-0.32,9.82,33.75,0.023436,0.034089,-0.002131
369789794,0.000129,0.001133,-0.001910,0.03,-0.29,9.81,33.75,0.023436,0.033024,-0.002131
369790804,0.000129,-0.002063,-0.001910,0.02,-0.26,9.77,33.75,0.026632,0.033024,-0.002131
369791825,0.000129,-0.003128,-0.001910,-0.02,-0.25,9.80,33.73,0.027697,0.033024,-0.002131
369792832,-0.002002,-0.000998,0.000220,-0.01,-0.28,9.86,33.74,0.025567,0.030893,0.000000
369793834,-0.002002,0.001133,0.001285,0.02,-0.33,9.83,33.75,0.023436,0.030893,0.001065
369794844,-0.002002,0.000068,0.001285,0.03,-0.33,9.84,33.77,0.024501,0.030893,0.001065
369795854,-0.003067,-0.002063,0.001285,0.01,-0.29,9.82,33.80,0.026632,0.029828,0.001065
369796864,-0.003067,-0.002063,0.001285,0.02,-0.28,9.76,33.81,0.026632,0.029828,0.001065
369797879,-0.002002,0.000068,0.000220,0.04,-0.31,9.75,33.77,0.024501,0.030893,0.000000
369798884,-0.000937,0.002198,0.000220,0.03,-0.33,9.78,33.78,0.022371,0.031958,0.000000
369799894,0.001194,0.004329,0.001285,0.02,-0.30,9.79,33.79,0.020240,0.034089,0.001065
369800904,0.003324,0.003264,0.002351,0.03,-0.29,9.81,33.79,0.021306,0.036220,0.002131
369801924,0.001194,0.002198,0.003416,0.01,-0.31,9.83,33.79,0.022371,0.034089,0.003196
369802932,-0.000937,0.000068,0.003416,0.02,-0.29,9.78,33.77,0.024501,0.031958,0.003196
369803934,-0.002002,0.000068,0.001285,0.04,-0.31,9.77,33.78,0.024501,0.030893,0.001065
369804944,-0.000937,0.001133,0.001285,0.03,-0.32,9.83,33.77,0.023436,0.031958,0.001065
369805954,-0.000937,0.001133,0.001285,0.03,-0.32,9.84,33.79,0.023436,0.031958,0.001065
369806966,0.000129,0.000068,0.001285,0.03,-0.32,9.82,33.79,0.024501,0.033024,0.001065
369807985,0.000129,-0.002063,0.004481,0.01,-0.32,9.82,33.77,0.026632,0.033024,0.004261
369808996,-0.002002,-0.004193,0.004481,-0.01,-0.31,9.81,33.80,0.028763,0.030893,0.004261
369810003,-0.003067,-0.003128,0.003416,0.00,-0.31,9.82,33.80,0.027697,0.029828,0.003196
369811009,-0.000937,-0.000998,0.001285,0.02,-0.33,9.82,33.76,0.025567,0.031958,0.001065
369812040,0.000129,0.000068,0.002351,0.03,-0.32,9.80,33.77,0.024501,0.033024,0.002131
369813041,0.000129,0.000068,0.003416,0.01,-0.29,9.80,33.74,0.024501,0.033024,0.003196
369814044,0.000129,0.000068,0.002351,0.01,-0.28,9.82,33.78,0.024501,0.033024,0.002131
369815061,0.000129,0.000068,0.002351,0.04,-0.28,9.84,33.79,0.024501,0.033024,0.002131
369816064,0.000129,-0.000998,0.002351,0.02,-0.29,9.83,33.74,0.025567,0.033024,0.002131
369817076,-0.000937,0.001133,0.002351,0.00,-0.33,9.84,33.79,0.023436,0.031958,0.002131
369818089,0.000129,0.001133,0.001285,0.01,-0.33,9.84,33.75,0.023436,0.033024,0.001065
369819095,0.002259,0.000068,0.000220,0.01,-0.29,9.80,33.76,0.024501,0.035154,0.000000
369820104,0.000129,0.000068,-0.000845,0.01,-0.31,9.79,33.78,0.024501,0.033024,-0.001065
369821114,-0.004133,0.002198,-0.000845,0.00,-0.31,9.79,33.75,0.022371,0.028763,-0.001065
369822130,-0.006263,0.001133,-0.000845,0.00,-0.29,9.80,33.74,0.023436,0.026632,-0.001065
369823143,-0.002002,-0.000998,0.000220,0.00,-0.29,9.86,33.80,0.025567,0.030893,0.000000
369824142,0.000129,-0.000998,0.000220,0.03,-0.29,9.87,33.80,0.025567,0.033024,0.000000
369825151,0.000129,0.000068,0.000220,0.03,-0.29,9.84,33.77,0.024501,0.033024,0.000000
369826157,-0.002002,0.001133,0.001285,-0.01,-0.31,9.80,33.79,0.023436,0.030893,0.001065
369827167,-0.003067,0.000068,0.001285,0.00,-0.29,9.77,33.80,0.024501,0.029828,0.001065
369828186,-0.002002,-0.002063,0.000220,0.00,-0.28,9.80,33.78,0.026632,0.030893,0.000000
369829188,-0.000937,-0.002063,-0.000845,0.01,-0.29,9.85,33.76,0.026632,0.031958,-0.001065
369830198,0.000129,0.000068,0.000220,0.04,-0.28,9.83,33.79,0.024501,0.033024,0.000000
369831207,0.001194,0.002198,0.001285,0.03,-0.31,9.78,33.79,0.022371,0.034089,0.001065
369832229,0.001194,0.002198,0.000220,0.04,-0.31,9.74,33.80,0.022371,0.034089,0.000000
369833232,0.000129,0.001133,-0.001910,0.07,-0.29,9.78,33.79,0.023436,0.033024,-0.002131
369834234,0.000129,0.000068,-0.002976,0.05,-0.32,9.77,33.79,0.024501,0.033024,-0.003196
369835244,0.000129,0.001133,-0.001910,0.01,-0.31,9.73,33.78,0.023436,0.033024,-0.002131
369836254,-0.000937,0.002198,0.000220,0.00,-0.33,9.79,33.80,0.022371,0.031958,0.000000
369837264,-0.000937,0.001133,0.001285,0.01,-0.33,9.83,33.77,0.023436,0.031958,0.001065
369838279,-0.002002,-0.000998,0.001285,-0.01,-0.29,9.82,33.77,0.025567,0.030893,0.001065
369839284,-0.000937,-0.000998,0.000220,0.01,-0.29,9.77,33.78,0.025567,0.031958,0.000000
369840294,0.000129,0.000068,-0.000845,0.04,-0.30,9.77,33.77,0.024501,0.033024,-0.001065
369841304,0.001194,0.001133,-0.000845,0.03,-0.30,9.79,33.81,0.023436,0.034089,-0.001065
369842327,0.004390,0.000068,-0.000845,0.00,-0.31,9.79,33.77,0.024501,0.037285,-0.001065
369843332,0.003324,-0.003128,-0.000845,0.00,-0.32,9.74,33.75,0.027697,0.036220,-0.001065
369844359,0.001238,-0.002046,-0.000884,0.01,-0.32,9.79,33.75,0.026632,0.034089,-0.001065
369845344,-0.000893,0.002215,0.000182,0.02,-0.30,9.86,33.75,0.022371,0.031958,0.000000
369846354,0.001238,0.003280,-0.000884,0.00,-0.31,9.84,33.78,0.021306,0.034089,-0.001065
369847364,0.000172,0.002215,-0.000884,0.02,-0.34,9.83,33.78,0.022371,0.033024,-0.001065
369848417,0.000172,-0.000981,0.000182,0.04,-0.34,9.80,33.80,0.025567,0.033024,0.000000
369849384,0.000172,0.000085,0.002312,0.01,-0.30,9.82,33.80,0.024501,0.033024,0.002131
369850394,0.000172,0.002215,0.002312,0.02,-0.28,9.84,33.81,0.022371,0.033024,0.002131
369851404,0.001238,0.002215,0.000182,0.05,-0.31,9.85,33.80,0.022371,0.034089,0.000000
369852427,0.002303,0.001150,-0.000884,0.06,-0.31,9.82,33.75,0.023436,0.035154,-0.001065
369853432,0.001238,0.001150,-0.001949,0.05,-0.31,9.83,33.77,0.023436,0.034089,-0.002131
369854434,0.000172,0.001150,-0.003014,0.04,-0.32,9.82,33.80,0.023436,0.033024,-0.003196
369855444,0.000172,0.001150,-0.004080,0.02,-0.34,9.79,33.81,0.023436,0.033024,-0.004261
369856454,0.001238,0.002215,-0.001949,0.01,-0.34,9.80,33.80,0.022371,0.034089,-0.002131
369857464,0.002303,0.001150,-0.000884,0.03,-0.30,9.85,33.80,0.023436,0.035154,-0.001065
369858479,0.001238,-0.003111,0.000182,0.03,-0.31,9.85,33.81,0.027697,0.034089,0.000000
369859484,0.001238,-0.002046,-0.000884,0.03,-0.33,9.82,33.80,0.026632,0.034089,-0.001065
369860494,0.001238,0.000085,-0.001949,0.05,-0.31,9.79,33.80,0.024501,0.034089,-0.002131
369861504,0.000172,0.000085,-0.001949,0.05,-0.31,9.78,33.78,0.024501,0.033024,-0.002131
369862523,-0.001958,-0.002046,-0.001949,-0.02,-0.32,9.86,33.78,0.026632,0.030893,-0.002131
369863532,-0.000893,-0.002046,0.000182,-0.02,-0.31,9.84,33.80,0.026632,0.031958,0.000000
369864534,-0.001958,-0.002046,0.002312,0.05,-0.31,9.77,33.79,0.026632,0.030893,0.002131
369865544,-0.001958,-0.002046,0.001247,0.04,-0.33,9.75,33.77,0.026632,0.030893,0.001065
369866554,-0.001958,0.000085,-0.000884,0.04,-0.33,9.76,33.76,0.024501,0.030893,-0.001065
369867564,-0.000893,0.002215,0.000182,0.04,-0.32,9.74,33.75,0.022371,0.031958,0.000000
369868582,-0.000893,0.002215,0.001247,0.01,-0.32,9.75,33.77,0.022371,0.031958,0.001065
369869584,-0.000893,0.001150,0.001247,0.01,-0.29,9.80,33.77,0.023436,0.031958,0.001065
369870594,-0.000893,0.000085,-0.001949,0.01,-0.31,9.81,33.75,0.024501,0.031958,-0.002131
369871604,-0.001958,-0.000981,-0.001949,0.00,-0.32,9.83,33.74,0.025567,0.030893,-0.002131
369872627,-0.004089,0.000085,-0.000884,0.00,-0.31,9.87,33.79,0.024501,0.028763,-0.001065
369873632,-0.003024,-0.000981,-0.000884,0.02,-0.30,9.85,33.79,0.025567,0.029828,-0.001065
369874634,-0.000893,0.000085,0.000182,0.04,-0.31,9.80,33.77,0.024501,0.031958,0.000000
369875644,0.001238,0.000085,0.001247,0.05,-0.31,9.79,33.79,0.024501,0.034089,0.001065
369876654,0.001238,-0.000981,0.000182,0.03,-0.30,9.82,33.81,0.025567,0.034089,0.000000
369877664,0.003368,-0.002046,-0.001949,0.01,-0.32,9.82,33.78,0.026632,0.036220,-0.002131
369878679,0.001238,-0.002046,0.000182,0.02,-0.33,9.80,33.79,0.026632,0.034089,0.000000
369879684,-0.001958,0.001150,0.000182,0.01,-0.30,9.81,33.74,0.023436,0.030893,0.000000
369880694,-0.003024,0.002215,0.000182,0.01,-0.31,9.84,33.76,0.022371,0.029828,0.000000
369881714,-0.001958,0.002215,0.000182,0.03,-0.34,9.85,33.76,0.022371,0.030893,0.000000
369882714,0.000172,0.000085,-0.000884,0.05,-0.33,9.84,33.76,0.024501,0.033024,-0.001065
369883732,0.000172,-0.003111,-0.000884,0.03,-0.32,9.80,33.73,0.027697,0.033024,-0.001065
369884734,0.001238,-0.004176,0.000182,0.03,-0.32,9.78,33.71,0.028763,0.034089,0.000000
369885744,0.002303,-0.003111,0.000182,0.03,-0.30,9.81,33.76,0.027697,0.035154,0.000000
369886754,0.001238,-0.000981,-0.000884,0.01,-0.31,9.82,33.78,0.025567,0.034089,-0.001065
369887764,-0.000893,0.001150,-0.000884,0.03,-0.31,9.77,33.77,0.023436,0.031958,-0.001065
369888782,-0.000893,0.003280,-0.000884,0.03,-0.32,9.82,33.79,0.021306,0.031958,-0.001065
369889784,-0.000893,0.003280,-0.000884,0.03,-0.30,9.83,33.79,0.021306,0.031958,-0.001065
369890794,0.001238,0.001150,-0.000884,0.02,-0.27,9.79,33.79,0.023436,0.034089,-0.001065
369891817,0.002303,0.000085,-0.001949,0.02,-0.30,9.84,33.77,0.024501,0.035154,-0.002131
369892814,0.001238,0.000085,-0.001949,0.04,-0.33,9.83,33.77,0.024501,0.034089,-0.002131
369893832,-0.001958,-0.000981,-0.000884,0.04,-0.30,9.81,33.80,0.025567,0.030893,-0.001065
369894834,-0.001958,-0.003111,-0.000884,0.04,-0.28,9.80,33.78,0.027697,0.030893,-0.001065
369895844,0.000172,-0.002046,0.000182,0.04,-0.31,9.86,33.74,0.026632,0.033024,0.000000
369896854,0.002303,0.001150,-0.000884,0.02,-0.34,9.87,33.79,0.023436,0.035154,-0.001065
369897864,0.002303,0.002215,-0.001949,0.02,-0.35,9.80,33.78,0.022371,0.035154,-0.002131
369898879,0.002303,0.001150,-0.000884,0.03,-0.35,9.78,33.76,0.023436,0.035154,-0.001065
369899884,-0.000893,0.000085,0.001247,0.02,-0.34,9.84,33.77,0.024501,0.031958,0.001065
369900894,-0.004089,-0.002046,0.001247,0.01,-0.32,9.87,33.77,0.026632,0.028763,0.001065
369901913,-0.004089,-0.003111,0.000182,0.02,-0.28,9.85,33.74,0.027697,0.028763,0.000000
369902914,0.000172,0.000085,0.000182,0.02,-0.31,9.81,33.76,0.024501,0.033024,0.000000
369903932,0.001238,0.002215,-0.000884,0.02,-0.31,9.77,33.80,0.022371,0.034089,-0.001065
369904934,0.000172,0.000085,-0.001949,0.02,-0.28,9.79,33.81,0.024501,0.033024,-0.002131
369905944,-0.000893,0.001150,-0.000884,0.01,-0.31,9.78,33.78,0.023436,0.031958,-0.001065
369906955,-0.001958,0.003280,0.001247,0.01,-0.32,9.76,33.77,0.021306,0.030893,0.001065
369907967,-0.003024,0.001150,0.001247,0.01,-0.29,9.81,33.77,0.023436,0.029828,0.001065
369908985,-0.000893,-0.000981,0.000182,0.03,-0.29,9.83,33.80,0.025567,0.031958,0.000000
369909995,0.002303,0.000085,-0.000884,0.03,-0.30,9.83,33.80,0.024501,0.035154,-0.001065
369911004,0.002303,0.000085,0.001247,0.01,-0.27,9.82,33.79,0.024501,0.035154,0.001065
369912027,0.002303,-0.002046,0.002312,0.03,-0.27,9.81,33.80,0.026632,0.035154,0.002131
369913024,0.000172,-0.003111,0.000182,0.04,-0.29,9.88,33.80,0.027697,0.033024,0.000000
369914039,-0.000893,-0.002046,-0.001949,0.02,-0.29,9.89,33.80,0.026632,0.031958,-0.002131
369915044,0.000172,0.000085,0.000182,0.01,-0.31,9.83,33.79,0.024501,0.033024,0.000000
369916056,0.000172,0.000085,0.002312,0.03,-0.31,9.83,33.75,0.024501,0.033024,0.002131
369917070,-0.000893,0.000085,0.001247,0.04,-0.29,9.83,33.79,0.024501,0.031958,0.001065
369918077,-0.000893,0.000085,0.000182,0.04,-0.31,9.84,33.78,0.024501,0.031958,0.000000
369919099,0.001238,0.000085,0.002312,0.03,-0.32,9.86,33.77,0.024501,0.034089,0.002131
369920089,0.002303,0.001150,0.001247,0.01,-0.32,9.82,33.72,0.023436,0.035154,0.001065
369921110,0.000172,0.001150,0.001247,0.01,-0.33,9.76,33.72,0.023436,0.033024,0.001065
369922122,-0.001958,0.001150,0.001247,0.03,-0.31,9.77,33.76,0.023436,0.030893,0.001065
369923121,-0.000893,0.000085,0.002312,0.04,-0.29,9.82,33.80,0.024501,0.031958,0.002131
369924145,0.000172,0.001150,0.002312,0.03,-0.29,9.78,33.81,0.023436,0.033024,0.002131
369925142,0.001238,0.003280,0.001247,0.03,-0.28,9.79,33.79,0.021306,0.034089,0.001065
369926149,0.000172,0.002215,-0.000884,0.01,-0.29,9.86,33.81,0.022371,0.033024,-0.001065
369927157,-0.001958,0.001150,-0.001949,0.03,-0.31,9.87,33.80,0.023436,0.030893,-0.002131
369928167,-0.001958,0.001150,-0.000884,0.06,-0.31,9.80,33.76,0.023436,0.030893,-0.001065
369929186,0.000172,-0.002046,-0.000884,0.04,-0.29,9.80,33.75,0.026632,0.033024,-0.001065
369930188,0.000172,-0.002046,0.001247,0.02,-0.31,9.82,33.77,0.026632,0.033024,0.001065
369931199,-0.000893,0.001150,0.001247,0.02,-0.34,9.82,33.74,0.023436,0.031958,0.001065
369932219,-0.001958,0.002215,0.000182,-0.01,-0.33,9.85,33.75,0.022371,0.030893,0.000000
369933216,-0.003024,0.001150,0.000182,0.02,-0.31,9.85,33.77,0.023436,0.029828,0.000000
369934232,-0.000893,0.000085,0.000182,0.03,-0.28,9.79,33.77,0.024501,0.031958,0.000000
369935234,0.001238,0.000085,0.001247,0.00,-0.28,9.82,33.78,0.024501,0.034089,0.001065
369936244,0.002303,0.002215,0.000182,0.02,-0.30,9.80,33.76,0.022371,0.035154,0.000000
369937254,0.001238,0.003280,0.000182,0.04,-0.30,9.79,33.78,0.021306,0.034089,0.000000
369938264,-0.000893,0.001150,0.002312,0.04,-0.30,9.79,33.77,0.023436,0.031958,0.002131
369939279,-0.000893,-0.000981,0.003377,0.01,-0.30,9.79,33.77,0.025567,0.031958,0.003196
369940284,-0.003024,-0.000981,0.001247,0.00,-0.32,9.85,33.75,0.025567,0.029828,0.001065
369941294,-0.001958,-0.000981,0.002312,0.03,-0.33,9.87,33.78,0.025567,0.030893,0.002131
369942313,0.000172,-0.002046,0.003377,0.03,-0.33,9.85,33.80,0.026632,0.033024,0.003196
369943314,0.002303,-0.003111,0.003377,0.01,-0.30,9.79,33.79,0.027697,0.035154,0.003196
369944353,0.002303,-0.003111,0.002312,0.01,-0.27,9.80,33.77,0.027697,0.035154,0.002131
369945334,0.002303,-0.002046,0.001247,0.00,-0.26,9.80,33.75,0.026632,0.035154,0.001065
369946344,0.001238,-0.000981,0.001247,0.01,-0.28,9.80,33.80,0.025567,0.034089,0.001065
369947354,0.003368,-0.000981,0.000182,0.01,-0.28,9.81,33.73,0.025567,0.036220,0.000000
369948364,0.005499,-0.000981,-0.001949,0.00,-0.29,9.78,33.81,0.025567,0.038350,-0.002131
369949382,0.004433,0.000085,-0.000884,0.02,-0.32,9.79,33.79,0.024501,0.037285,-0.001065
369950384,0.002303,0.000085,0.000182,0.02,-0.33,9.84,33.80,0.024501,0.035154,0.000000
369951405,0.000172,-0.000981,-0.000884,0.01,-0.32,9.86,33.78,0.025567,0.033024,-0.001065
369952417,-0.000893,-0.000981,-0.003014,0.03,-0.30,9.82,33.75,0.025567,0.031958,-0.003196
369953414,0.000172,-0.002046,-0.004080,0.01,-0.31,9.80,33.73,0.026632,0.033024,-0.004261
369954432,0.002303,-0.002046,-0.004080,-0.01,-0.31,9.87,33.78,0.026632,0.035154,-0.004261
369955434,0.002303,0.000085,-0.000884,0.01,-0.30,9.79,33.83,0.024501,0.035154,-0.001065
369956444,0.000172,-0.000981,0.001247,0.01,-0.29,9.76,33.82,0.025567,0.033024,0.001065
369957454,-0.001958,-0.003111,0.003377,0.02,-0.32,9.83,33.79,0.027697,0.030893,0.003196
369958464,-0.001958,-0.003111,0.002312,0.03,-0.35,9.80,33.81,0.027697,0.030893,0.002131
369959479,0.000172,-0.002046,-0.000884,0.03,-0.32,9.79,33.78,0.026632,0.033024,-0.001065
369960484,0.000172,0.000085,-0.003014,0.00,-0.28,9.78,33.79,0.024501,0.033024,-0.003196
369961494,-0.001958,0.002215,-0.001949,-0.04,-0.28,9.77,33.76,0.022371,0.030893,-0.002131
369962513,-0.003024,0.003280,0.000182,-0.01,-0.31,9.82,33.77,0.021306,0.029828,0.000000
369963514,-0.000893,0.002215,0.000182,0.01,-0.31,9.82,33.79,0.022371,0.031958,0.000000
369964532,0.000172,0.001150,0.000182,0.00,-0.31,9.83,33.78,0.023436,0.033024,0.000000
369965534,0.001238,0.000085,0.000182,0.00,-0.33,9.87,33.80,0.024501,0.034089,0.000000
369966544,0.001238,0.000085,0.000182,0.02,-0.30,9.83,33.78,0.024501,0.034089,0.000000
369967554,-0.000893,-0.000981,0.000182,0.03,-0.27,9.80,33.79,0.025567,0.031958,0.000000
369968564,-0.001958,-0.002046,0.001247,0.04,-0.29,9.78,33.82,0.026632,0.030893,0.001065
369969582,-0.001958,-0.000981,0.002312,0.05,-0.33,9.76,33.83,0.025567,0.030893,0.002131
369970584,0.000172,0.001150,0.003377,0.01,-0.32,9.79,33.78,0.023436,0.033024,0.003196
369971594,0.002303,0.002215,0.002312,0.01,-0.29,9.81,33.78,0.022371,0.035154,0.002131
369972617,0.002303,0.002215,0.001247,0.02,-0.29,9.82,33.77,0.022371,0.035154,0.001065
369973639,-0.000896,0.002212,-0.000889,0.03,-0.32,9.85,33.78,0.022371,0.031958,-0.001065
369974632,-0.004092,-0.000984,-0.000889,0.01,-0.34,9.83,33.79,0.025567,0.028763,-0.001065
369975634,-0.003026,-0.003114,0.000177,0.05,-0.32,9.82,33.74,0.027697,0.029828,0.000000
369976644,0.000170,-0.000984,0.000177,0.09,-0.33,9.88,33.73,0.025567,0.033024,0.000000
369977654,0.001235,-0.000984,0.001242,0.05,-0.32,9.87,33.75,0.025567,0.034089,0.001065
369978664,0.001235,0.000081,0.001242,0.06,-0.27,9.80,33.78,0.024501,0.034089,0.001065
369979679,-0.000896,0.001147,0.001242,0.01,-0.29,9.76,33.80,0.023436,0.031958,0.001065
369980684,-0.001961,-0.002049,0.000177,0.03,-0.27,9.80,33.81,0.026632,0.030893,0.000000
369981704,-0.001961,-0.003114,-0.001954,-0.01,-0.28,9.79,33.79,0.027697,0.030893,-0.002131
369982704,0.001235,-0.002049,-0.001954,-0.01,-0.31,9.77,33.77,0.026632,0.034089,-0.002131
369983714,0.002300,0.001147,-0.000889,0.03,-0.30,9.81,33.75,0.023436,0.035154,-0.001065
369984732,0.001235,0.002212,0.001242,0.06,-0.28,9.84,33.76,0.022371,0.034089,0.001065
369985734,0.000170,0.000081,-0.000889,0.04,-0.30,9.81,33.78,0.024501,0.033024,-0.001065
369986744,-0.003026,-0.002049,-0.001954,0.02,-0.32,9.81,33.75,0.026632,0.029828,-0.002131
369987754,-0.005157,-0.000984,-0.001954,-0.01,-0.33,9.78,33.73,0.025567,0.027697,-0.002131
369988764,-0.003026,0.000081,-0.003019,0.01,-0.32,9.80,33.77,0.024501,0.029828,-0.003196
369989782,0.000170,-0.000984,-0.003019,0.04,-0.33,9.86,33.82,0.025567,0.033024,-0.003196
369990784,0.000170,-0.000984,-0.001954,0.02,-0.33,9.88,33.81,0.025567,0.033024,-0.002131
369991807,-0.000896,-0.000984,0.001242,0.02,-0.32,9.87,33.80,0.025567,0.031958,0.001065
369992804,-0.000896,0.000081,0.002307,0.00,-0.32,9.80,33.77,0.024501,0.031958,0.002131
369993814,0.000170,0.000081,0.000177,0.02,-0.34,9.77,33.76,0.024501,0.033024,0.000000
369994832,-0.000896,0.000081,-0.001954,0.04,-0.33,9.79,33.80,0.024501,0.031958,-0.002131
369995834,-0.000896,0.001147,-0.001954,0.04,-0.33,9.80,33.79,0.023436,0.031958,-0.002131
369996844,-0.000896,0.000081,0.000177,0.04,-0.31,9.78,33.82,0.024501,0.031958,0.000000
369997854,0.000170,0.001147,0.001242,0.05,-0.30,9.73,33.81,0.023436,0.033024,0.001065
369998864,-0.000896,0.003277,0.002307,0.05,-0.33,9.73,33.79,0.021306,0.031958,0.002131
369999879,0.000170,0.004343,0.000177,0.04,-0.35,9.81,33.77,0.020240,0.033024,0.000000
370000898,0.002300,0.005408,-0.001954,0.05,-0.31,9.85,33.76,0.019175,0.035154,-0.002131
370001908,0.001235,0.004343,-0.000889,0.06,-0.30,9.84,33.76,0.020240,0.034089,-0.001065
370002918,0.001235,0.002212,0.000177,0.05,-0.30,9.84,33.73,0.022371,0.034089,0.000000
370003912,0.002300,0.000081,0.001242,0.00,-0.29,9.84,33.76,0.024501,0.035154,0.001065
370004931,0.000170,0.001147,0.002307,-0.02,-0.29,9.82,33.81,0.023436,0.033024,0.002131
370005932,-0.000896,0.003277,0.000177,0.02,-0.29,9.80,33.76,0.021306,0.031958,0.000000
370006942,0.001235,0.001147,-0.001954,0.01,-0.31,9.81,33.78,0.023436,0.034089,-0.002131
370007953,0.003365,-0.003114,-0.003019,0.02,-0.33,9.81,33.80,0.027697,0.036220,-0.003196
370008966,0.004431,-0.004180,-0.000889,0.04,-0.31,9.82,33.80,0.028763,0.037285,-0.001065
370009982,0.003365,-0.000984,0.000177,0.02,-0.31,9.81,33.77,0.025567,0.036220,0.000000
370010988,0.002300,0.002212,-0.001954,0.02,-0.32,9.77,33.77,0.022371,0.035154,-0.002131
370012010,0.001235,0.003277,-0.004084,0.02,-0.34,9.79,33.75,0.021306,0.034089,-0.004261
370013032,0.003365,0.001147,-0.003019,0.02,-0.35,9.80,33.77,0.023436,0.036220,-0.003196
370014026,0.003365,0.000081,-0.000889,0.03,-0.33,9.79,33.75,0.024501,0.036220,-0.001065
370015040,0.004431,-0.002049,0.001242,0.02,-0.33,9.80,33.76,0.026632,0.037285,0.001065
370016044,0.003365,-0.002049,0.003373,0.04,-0.32,9.80,33.77,0.026632,0.036220,0.003196
370017060,0.002300,0.000081,0.002307,0.02,-0.29,9.80,33.79,0.024501,0.035154,0.002131
370018064,-0.001961,0.001147,-0.000889,0.01,-0.30,9.81,33.79,0.023436,0.030893,-0.001065
370019076,-0.003026,0.001147,-0.003019,0.04,-0.33,9.82,33.77,0.023436,0.029828,-0.003196
370020089,-0.000896,0.002212,-0.001954,0.06,-0.30,9.78,33.76,0.022371,0.031958,-0.002131
370021095,0.002300,0.003277,-0.000889,0.03,-0.28,9.78,33.74,0.021306,0.035154,-0.001065
370022115,0.002300,0.003277,0.001242,0.00,-0.33,9.80,33.76,0.021306,0.035154,0.001065
370023129,0.003365,0.001147,0.001242,0.03,-0.31,9.83,33.77,0.023436,0.036220,0.001065
370024121,0.002300,-0.003114,-0.000889,0.04,-0.31,9.84,33.77,0.027697,0.035154,-0.001065
370025142,0.002300,-0.004180,-0.003019,0.04,-0.30,9.82,33.77,0.028763,0.035154,-0.003196
370026141,0.001235,-0.002049,-0.004084,0.04,-0.29,9.77,33.80,0.026632,0.034089,-0.004261
370027150,-0.000896,0.000081,-0.001954,0.01,-0.34,9.78,33.77,0.024501,0.031958,-0.002131
370028156,-0.000896,0.000081,0.000177,0.01,-0.32,9.84,33.81,0.024501,0.031958,0.000000
370029167,-0.001961,-0.002049,0.000177,0.01,-0.30,9.84,33.78,0.026632,0.030893,0.000000
370030185,-0.000896,-0.003114,0.001242,0.03,-0.32,9.83,33.74,0.027697,0.031958,0.001065
370031192,0.001235,-0.002049,0.001242,0.04,-0.34,9.83,33.78,0.026632,0.034089,0.001065
370032210,0.001235,-0.000984,0.001242,0.03,-0.34,9.83,33.77,0.025567,0.034089,0.001065
370033223,0.000170,-0.000984,0.001242,0.02,-0.29,9.83,33.74,0.025567,0.033024,0.001065
370034216,0.002300,0.000081,0.001242,0.02,-0.27,9.83,33.73,0.024501,0.035154,0.001065
370035232,0.003365,-0.000984,0.000177,0.04,-0.29,9.84,33.75,0.025567,0.036220,0.000000
370036234,0.002300,-0.000984,0.001242,0.03,-0.31,9.79,33.81,0.025567,0.035154,0.001065
370037244,0.000170,0.001147,0.003373,0.02,-0.29,9.76,33.79,0.023436,0.033024,0.003196
370038254,-0.000896,0.002212,0.003373,0.04,-0.30,9.82,33.80,0.022371,0.031958,0.003196
370039264,0.000170,0.001147,0.003373,0.06,-0.29,9.82,33.78,0.023436,0.033024,0.003196
370040279,0.001235,0.000081,0.002307,0.04,-0.29,9.81,33.78,0.024501,0.034089,0.002131
370041284,0.002300,0.001147,0.001242,0.03,-0.31,9.81,33.76,0.023436,0.035154,0.001065
370042305,0.002300,0.001147,0.001242,0.02,-0.31,9.80,33.75,0.023436,0.035154,0.001065
370043318,0.001235,0.001147,0.000177,0.03,-0.31,9.81,33.76,0.023436,0.034089,0.000000
370044312,0.000170,0.001147,0.000177,0.02,-0.32,9.85,33.80,0.023436,0.033024,0.000000
370045331,0.001235,0.000081,-0.000889,0.01,-0.33,9.81,33.77,0.024501,0.034089,-0.001065
370046332,0.001235,-0.002049,0.001242,0.04,-0.32,9.77,33.74,0.026632,0.034089,0.001065
370047342,0.001235,-0.003114,0.002307,0.05,-0.29,9.81,33.71,0.027697,0.034089,0.002131
370048352,0.001235,0.001147,0.002307,0.03,-0.31,9.84,33.77,0.023436,0.034089,0.002131
370049362,0.001235,0.002212,0.003373,0.03,-0.31,9.80,33.77,0.022371,0.034089,0.003196
370050381,0.001235,0.000081,0.002307,0.02,-0.30,9.78,33.73,0.024501,0.034089,0.002131
370051382,0.001235,-0.000984,0.001242,0.02,-0.32,9.82,33.72,0.025567,0.034089,0.001065
370052405,0.000170,0.000081,-0.000889,0.05,-0.31,9.85,33.72,0.024501,0.033024,-0.001065
370053462,0.000170,-0.000984,-0.000889,0.04,-0.29,9.83,33.77,0.025567,0.033024,-0.001065
370054414,0.001235,-0.000984,0.000177,0.02,-0.28,9.83,33.79,0.025567,0.034089,0.000000
370055432,0.001235,-0.000984,0.000177,-0.01,-0.30,9.82,33.79,0.025567,0.034089,0.000000
370056434,-0.000896,0.002212,-0.000889,-0.01,-0.32,9.78,33.77,0.022371,0.031958,-0.001065
370057444,-0.001961,0.002212,-0.001954,0.01,-0.31,9.83,33.77,0.022371,0.030893,-0.002131
370058454,-0.001961,-0.000984,-0.000889,0.02,-0.31,9.86,33.76,0.025567,0.030893,-0.001065
370059464,-0.000896,-0.003114,0.002307,0.02,-0.34,9.82,33.77,0.027697,0.031958,0.002131
370060479,-0.001961,-0.002049,0.001242,0.02,-0.33,9.82,33.83,0.026632,0.030893,0.001065
370061484,-0.001961,0.000081,-0.003019,0.00,-0.30,9.85,33.80,0.024501,0.030893,-0.003196
370062505,-0.000896,0.002212,-0.005150,0.06,-0.30,9.85,33.76,0.022371,0.031958,-0.005326
370063518,0.000170,0.001147,-0.001954,0.07,-0.31,9.85,33.77,0.023436,0.033024,-0.002131
370064512,0.001235,-0.000984,-0.000889,0.02,-0.31,9.84,33.80,0.025567,0.034089,-0.001065
370065531,-0.000896,-0.000984,-0.000889,0.03,-0.27,9.83,33.77,0.025567,0.031958,-0.001065
370066532,-0.003026,0.001147,-0.000889,0.01,-0.28,9.84,33.74,0.023436,0.029828,-0.001065
370067542,-0.003026,0.002212,-0.000889,-0.02,-0.32,9.86,33.77,0.022371,0.029828,-0.001065
370068552,-0.001961,0.001147,0.000177,0.00,-0.34,9.85,33.79,0.023436,0.030893,0.000000
370069562,0.002300,0.000081,0.000177,0.03,-0.35,9.80,33.78,0.024501,0.035154,0.000000
370070581,0.002300,0.001147,-0.000889,0.01,-0.36,9.82,33.76,0.023436,0.035154,-0.001065
370071582,-0.000896,0.002212,-0.001954,0.00,-0.34,9.75,33.77,0.022371,0.031958,-0.002131
370072605,-0.003026,0.002212,-0.000889,0.01,-0.31,9.79,33.78,0.022371,0.029828,-0.001065
370073619,-0.003026,0.001147,-0.001954,0.01,-0.33,9.87,33.77,0.023436,0.029828,-0.002131
370074614,-0.001961,0.000081,-0.001954,0.02,-0.34,9.83,33.80,0.024501,0.030893,-0.002131
370075632,0.000170,-0.000984,0.000177,0.05,-0.31,9.80,33.79,0.025567,0.033024,0.000000
370076634,0.001235,-0.000984,0.001242,0.03,-0.29,9.78,33.76,0.025567,0.034089,0.001065
370077644,0.001235,0.000081,0.001242,0.00,-0.28,9.82,33.75,0.024501,0.034089,0.001065
370078654,0.000170,0.001147,0.001242,0.01,-0.31,9.81,33.80,0.023436,0.033024,0.001065
370079664,0.000170,-0.002049,0.000177,0.03,-0.29,9.81,33.77,0.026632,0.033024,0.000000
370080679,0.000170,-0.002049,0.000177,-0.02,-0.31,9.81,33.78,0.026632,0.033024,0.000000
370081695,-0.001961,-0.002049,0.001242,-0.01,-0.32,9.79,33.77,0.026632,0.030893,0.001065
370082694,-0.001961,-0.000984,0.003373,0.02,-0.34,9.80,33.75,0.025567,0.030893,0.003196
370083718,0.000170,0.000081,0.002307,0.00,-0.34,9.82,33.80,0.024501,0.033024,0.002131
370084712,-0.000896,0.000081,0.001242,0.00,-0.31,9.80,33.82,0.024501,0.031958,0.001065
370085731,-0.001961,-0.000984,0.001242,0.01,-0.32,9.82,33.79,0.025567,0.030893,0.001065
370086732,-0.000896,-0.000984,0.000177,0.00,-0.33,9.84,33.73,0.025567,0.031958,0.000000
370087742,-0.001961,-0.000984,-0.000889,0.01,-0.30,9.78,33.73,0.025567,0.030893,-0.001065
370088752,-0.003026,0.000081,-0.001954,0.00,-0.32,9.80,33.77,0.024501,0.029828,-0.002131
370089762,-0.000896,0.000081,-0.001954,0.01,-0.33,9.82,33.79,0.024501,0.031958,-0.002131
370090781,0.001235,-0.000984,-0.000889,0.03,-0.30,9.74,33.76,0.025567,0.034089,-0.001065
370091795,0.000170,-0.000984,0.000177,0.03,-0.32,9.75,33.74,0.025567,0.033024,0.000000
370092792,-0.001961,-0.000984,-0.001954,0.04,-0.32,9.79,33.74,0.025567,0.030893,-0.002131
370093819,-0.003026,-0.000984,-0.000889,0.04,-0.31,9.77,33.76,0.025567,0.029828,-0.001065
370094814,-0.003026,-0.002049,-0.000889,0.03,-0.34,9.76,33.73,0.026632,0.029828,-0.001065
370095832,-0.001961,-0.000984,-0.000889,0.04,-0.34,9.79,33.74,0.025567,0.030893,-0.001065
370096834,0.001235,0.001147,0.001242,0.02,-0.33,9.82,33.76,0.023436,0.034089,0.001065
370097844,0.002300,0.003277,-0.000889,0.01,-0.29,9.82,33.76,0.021306,0.035154,-0.001065
370098854,0.000170,0.001147,-0.000889,0.03,-0.28,9.84,33.82,0.023436,0.033024,-0.001065
370099864,0.000170,-0.000984,0.001242,0.03,-0.29,9.85,33.79,0.025567,0.033024,0.001065
370100879,0.001235,-0.002049,0.001242,0.01,-0.28,9.81,33.77,0.026632,0.034089,0.001065
370101895,0.002300,-0.002049,0.002307,0.00,-0.30,9.76,33.75,0.026632,0.035154,0.002131
370102934,0.002282,0.000084,0.002315,0.02,-0.29,9.76,33.78,0.024501,0.035154,0.002131
370103902,0.000151,0.000084,0.001250,0.00,-0.30,9.78,33.80,0.024501,0.033024,0.001065
370104912,-0.001979,0.000084,-0.000881,-0.02,-0.34,9.80,33.81,0.024501,0.030893,-0.001065
370105931,-0.001979,0.000084,-0.003011,-0.02,-0.32,9.82,33.78,0.024501,0.030893,-0.003196
370106932,-0.000914,0.001149,-0.001946,-0.01,-0.28,9.80,33.76,0.023436,0.031958,-0.002131
370107942,0.001216,0.001149,-0.001946,0.01,-0.31,9.80,33.77,0.023436,0.034089,-0.002131
370108953,0.003347,0.001149,-0.001946,0.05,-0.33,9.81,33.74,0.023436,0.036220,-0.002131
370109967,0.001216,-0.000982,-0.003011,0.06,-0.31,9.82,33.77,0.025567,0.034089,-0.003196
370110985,0.000151,-0.000982,-0.001946,0.01,-0.30,9.79,33.74,0.025567,0.033024,-0.002131
370112000,0.002282,0.000084,-0.000881,0.00,-0.31,9.80,33.76,0.024501,0.035154,-0.001065
370113019,0.002282,0.001149,0.000185,0.03,-0.30,9.85,33.76,0.023436,0.035154,0.000000
370114012,0.001216,0.002214,0.001250,0.03,-0.29,9.86,33.79,0.022371,0.034089,0.001065
370115025,0.000151,0.000084,0.001250,0.02,-0.31,9.82,33.79,0.024501,0.033024,0.001065
370116042,-0.001979,-0.000982,0.000185,0.00,-0.32,9.83,33.77,0.025567,0.030893,0.000000
370117042,-0.001979,-0.000982,0.000185,-0.01,-0.30,9.87,33.79,0.025567,0.030893,0.000000
370118054,0.000151,-0.000982,-0.001946,0.01,-0.29,9.86,33.78,0.025567,0.033024,-0.002131
370119067,0.001216,-0.003112,-0.001946,0.01,-0.30,9.84,33.79,0.027697,0.034089,-0.002131
370120072,0.003347,-0.005243,-0.001946,0.02,-0.32,9.81,33.79,0.029828,0.036220,-0.002131
370121097,0.001216,-0.004177,-0.000881,0.00,-0.32,9.79,33.78,0.028763,0.034089,-0.001065
370122105,-0.000914,0.000084,-0.000881,0.00,-0.33,9.81,33.78,0.024501,0.031958,-0.001065
370123118,-0.000914,0.002214,-0.000881,0.00,-0.32,9.78,33.77,0.022371,0.031958,-0.001065
370124112,-0.000914,0.000084,-0.000881,0.01,-0.33,9.81,33.77,0.024501,0.031958,-0.001065
370125119,-0.001979,0.000084,0.001250,0.03,-0.32,9.84,33.76,0.024501,0.030893,0.001065
370126140,-0.001979,0.001149,0.002315,0.01,-0.31,9.82,33.78,0.023436,0.030893,0.002131
370127139,0.000151,0.001149,0.000185,0.00,-0.30,9.84,33.79,0.023436,0.033024,0.000000
370128148,0.000151,0.000084,0.000185,-0.01,-0.30,9.82,33.79,0.024501,0.033024,0.000000
370129156,-0.000914,0.002214,0.001250,-0.01,-0.31,9.80,33.79,0.022371,0.031958,0.001065
370130167,-0.000914,0.003280,0.001250,-0.02,-0.27,9.81,33.76,0.021306,0.031958,0.001065
370131191,0.000151,0.002214,0.000185,0.00,-0.31,9.80,33.77,0.022371,0.033024,0.000000
370132198,-0.001979,0.000084,-0.000881,0.03,-0.33,9.81,33.79,0.024501,0.030893,-0.001065
370133212,-0.004110,0.000084,-0.001946,0.03,-0.28,9.81,33.79,0.024501,0.028763,-0.002131
370134207,-0.003045,-0.002047,-0.000881,0.01,-0.28,9.77,33.75,0.026632,0.029828,-0.001065
370135216,-0.001979,-0.002047,-0.001946,0.01,-0.28,9.76,33.74,0.026632,0.030893,-0.002131
370136232,0.000151,-0.000982,-0.003011,0.02,-0.30,9.82,33.73,0.025567,0.033024,-0.003196
370137234,0.001216,0.003280,-0.001946,0.03,-0.34,9.84,33.74,0.021306,0.034089,-0.002131
370138244,0.000151,0.004345,0.000185,0.05,-0.34,9.81,33.78,0.020240,0.033024,0.000000
370139254,0.000151,0.002214,0.001250,0.05,-0.29,9.83,33.77,0.022371,0.033024,0.001065
370140264,0.000151,-0.003112,0.000185,0.04,-0.30,9.84,33.76,0.027697,0.033024,0.000000
370141279,-0.000914,-0.004177,-0.000881,0.01,-0.32,9.81,33.78,0.028763,0.031958,-0.001065
370142294,0.000151,-0.002047,-0.000881,-0.01,-0.32,9.81,33.76,0.026632,0.033024,-0.001065
370143308,0.000151,0.001149,0.000185,0.02,-0.32,9.85,33.77,0.023436,0.033024,0.000000
370144302,-0.000914,0.000084,-0.000881,0.02,-0.29,9.85,33.76,0.024501,0.031958,-0.001065
370145312,-0.001979,0.001149,-0.001946,0.00,-0.31,9.83,33.78,0.023436,0.030893,-0.002131
370146331,-0.001979,0.002214,0.000185,0.01,-0.31,9.81,33.80,0.022371,0.030893,0.000000
370147332,-0.000914,0.003280,0.002315,0.04,-0.31,9.81,33.79,0.021306,0.031958,0.002131
370148342,0.000151,0.001149,0.002315,0.07,-0.31,9.84,33.76,0.023436,0.033024,0.002131
370149368,-0.000914,-0.000982,0.002315,0.07,-0.33,9.80,33.76,0.025567,0.031958,0.002131
370150362,-0.000914,0.001149,0.003380,0.06,-0.33,9.78,33.79,0.023436,0.031958,0.003196
370151381,0.001216,0.003280,0.004446,0.03,-0.32,9.79,33.77,0.021306,0.034089,0.004261
370152395,0.001216,0.003280,0.004446,0.04,-0.34,9.80,33.78,0.021306,0.034089,0.004261
370153409,0.001216,0.003280,0.002315,0.06,-0.32,9.78,33.80,0.021306,0.034089,0.002131
370154404,0.001216,0.001149,0.001250,0.02,-0.32,9.80,33.80,0.023436,0.034089,0.001065
370155414,0.000151,-0.000982,0.000185,-0.02,-0.33,9.86,33.80,0.025567,0.033024,0.000000
370156447,0.001216,-0.002047,-0.000881,-0.01,-0.32,9.84,33.79,0.026632,0.034089,-0.001065
370157434,0.001216,-0.000982,-0.001946,-0.01,-0.31,9.80,33.75,0.025567,0.034089,-0.002131
370158444,0.000151,-0.002047,-0.000881,0.00,-0.28,9.79,33.77,0.026632,0.033024,-0.001065
370159454,0.000151,-0.003112,0.001250,0.02,-0.26,9.75,33.77,0.027697,0.033024,0.001065
370160464,0.001216,-0.004177,0.000185,0.02,-0.27,9.80,33.80,0.028763,0.034089,0.000000
370161479,0.003347,-0.002047,0.000185,0.04,-0.26,9.85,33.84,0.026632,0.036220,0.000000
370162497,0.002282,-0.000982,-0.000881,0.04,-0.28,9.86,33.79,0.025567,0.035154,-0.001065
370163494,0.000151,0.000084,0.000185,0.03,-0.30,9.88,33.77,0.024501,0.033024,0.000000
370164504,-0.001979,0.000084,0.000185,0.02,-0.28,9.86,33.73,0.024501,0.030893,0.000000
370165514,-0.000914,0.000084,0.000185,0.02,-0.28,9.81,33.78,0.024501,0.031958,0.000000
370166532,0.001216,0.001149,-0.000881,-0.01,-0.29,9.83,33.75,0.023436,0.034089,-0.001065
370167534,0.002282,0.001149,-0.003011,-0.02,-0.31,9.89,33.74,0.023436,0.035154,-0.003196
370168544,0.003347,0.000084,-0.004077,-0.02,-0.31,9.88,33.79,0.024501,0.036220,-0.004261
370169554,0.001216,0.000084,-0.003011,0.01,-0.32,9.84,33.79,0.024501,0.034089,-0.003196
370170564,-0.001979,0.001149,-0.001946,0.04,-0.33,9.79,33.78,0.023436,0.030893,-0.002131
370171582,-0.001979,0.001149,-0.001946,0.03,-0.32,9.81,33.79,0.023436,0.030893,-0.002131
370172597,0.000151,-0.000982,-0.000881,0.04,-0.31,9.80,33.77,0.025567,0.033024,-0.001065
370173594,0.002282,0.000084,0.001250,0.04,-0.30,9.79,33.73,0.024501,0.035154,0.001065
370174604,0.002282,0.001149,0.003380,0.01,-0.33,9.81,33.73,0.023436,0.035154,0.003196
370175614,-0.000914,0.002214,0.004446,0.02,-0.33,9.82,33.73,0.022371,0.031958,0.004261
370176632,-0.001979,0.002214,0.002315,0.05,-0.33,9.79,33.72,0.022371,0.030893,0.002131
370177634,0.001216,0.001149,-0.000881,0.08,-0.33,9.79,33.73,0.023436,0.034089,-0.001065
370178644,0.003347,-0.000982,-0.001946,0.07,-0.31,9.81,33.73,0.025567,0.036220,-0.002131
370179654,0.003347,-0.002047,0.000185,0.04,-0.29,9.82,33.78,0.026632,0.036220,0.000000
370180664,-0.000914,0.002214,0.000185,0.05,-0.31,9.82,33.73,0.022371,0.031958,0.000000
370181689,-0.001979,0.005410,-0.000881,0.06,-0.28,9.83,33.76,0.019175,0.030893,-0.001065
370182684,-0.000914,0.005410,0.000185,0.00,-0.28,9.86,33.75,0.019175,0.031958,0.000000
370183694,0.000151,0.004345,0.000185,0.00,-0.31,9.81,33.75,0.020240,0.033024,0.000000
370184704,0.000151,0.003280,0.001250,0.04,-0.30,9.76,33.79,0.021306,0.033024,0.001065
370185714,-0.000914,0.001149,0.001250,0.03,-0.28,9.77,33.82,0.023436,0.031958,0.001065
370186732,0.001216,-0.002047,0.001250,0.04,-0.30,9.75,33.79,0.026632,0.034089,0.001065
370187734,0.003347,-0.000982,0.000185,0.05,-0.32,9.79,33.77,0.025567,0.036220,0.000000
370188744,0.003347,0.002214,0.000185,0.03,-0.30,9.83,33.77,0.022371,0.036220,0.000000
370189754,0.002282,0.004345,0.002315,0.00,-0.31,9.80,33.77,0.020240,0.035154,0.002131
370190764,0.002282,0.005410,0.002315,0.00,-0.31,9.78,33.74,0.019175,0.035154,0.002131
370191795,0.000151,0.002214,0.000185,0.01,-0.34,9.79,33.73,0.022371,0.033024,0.000000
370192784,-0.000914,-0.002047,-0.001946,0.02,-0.34,9.79,33.74,0.026632,0.031958,-0.002131
370193794,0.001216,-0.000982,-0.001946,0.03,-0.30,9.79,33.73,0.025567,0.034089,-0.002131
370194804,0.002282,0.001149,-0.000881,0.02,-0.30,9.82,33.74,0.023436,0.035154,-0.001065
370195814,0.001216,0.002214,0.000185,0.03,-0.30,9.80,33.76,0.022371,0.034089,0.000000
370196832,0.001216,0.001149,0.001250,0.02,-0.30,9.82,33.76,0.023436,0.034089,0.001065
370197834,0.000151,0.001149,0.000185,0.00,-0.28,9.83,33.73,0.023436,0.033024,0.000000
370198844,0.000151,0.002214,0.001250,0.02,-0.30,9.80,33.73,0.022371,0.033024,0.001065
370199854,0.001216,0.004345,0.003380,0.03,-0.30,9.82,33.75,0.020240,0.034089,0.003196
370200864,0.000151,0.002214,0.001250,0.03,-0.30,9.80,33.77,0.022371,0.033024,0.001065
370201889,-0.001979,-0.000982,-0.001946,0.00,-0.33,9.76,33.78,0.025567,0.030893,-0.002131
370202884,-0.003045,-0.000982,-0.001946,0.00,-0.32,9.77,33.77,0.025567,0.029828,-0.002131
370203894,-0.000914,0.000084,-0.000881,0.01,-0.31,9.83,33.74,0.024501,0.031958,-0.001065
370204904,0.000151,0.003280,0.000185,0.00,-0.30,9.84,33.77,0.021306,0.033024,0.000000
370205914,0.001216,0.003280,0.002315,-0.03,-0.32,9.80,33.75,0.021306,0.034089,0.002131
370206960,0.001216,0.002214,0.003380,-0.01,-0.34,9.80,33.76,0.022371,0.034089,0.003196
370207957,0.001216,0.000084,0.002315,-0.01,-0.30,9.81,33.77,0.024501,0.034089,0.002131
370208945,0.000151,-0.002047,0.002315,-0.01,-0.30,9.79,33.74,0.026632,0.033024,0.002131
370209969,0.000151,-0.002047,0.001250,0.02,-0.31,9.82,33.78,0.026632,0.033024,0.001065
370210967,-0.003045,-0.000982,0.000185,0.03,-0.31,9.87,33.78,0.025567,0.029828,0.000000
370212013,-0.004110,-0.000982,-0.000881,0.03,-0.31,9.83,33.79,0.025567,0.028763,-0.001065
370212994,-0.003045,-0.000982,-0.000881,0.02,-0.31,9.78,33.75,0.025567,0.029828,-0.001065
370214002,-0.001979,0.001149,0.000185,0.04,-0.33,9.84,33.76,0.023436,0.030893,0.000000
370215011,-0.000914,0.002214,0.001250,0.03,-0.30,9.85,33.78,0.022371,0.031958,0.001065
370216022,0.000151,0.002214,0.002315,-0.02,-0.29,9.80,33.80,0.022371,0.033024,0.002131
370217042,-0.000914,0.001149,0.002315,-0.01,-0.34,9.83,33.78,0.023436,0.031958,0.002131
370218040,-0.000914,-0.000982,0.001250,0.02,-0.35,9.85,33.78,0.025567,0.031958,0.001065
370219062,-0.000914,-0.002047,0.000185,0.04,-0.33,9.87,33.79,0.026632,0.031958,0.000000
370220069,-0.003045,-0.002047,-0.001946,0.02,-0.33,9.83,33.78,0.026632,0.029828,-0.002131
370221073,-0.003045,-0.000982,-0.003011,0.03,-0.32,9.78,33.77,0.025567,0.029828,-0.003196
370222105,-0.000914,-0.000982,-0.000881,0.04,-0.31,9.85,33.81,0.025567,0.031958,-0.001065
370223090,0.000151,-0.002047,0.001250,0.05,-0.31,9.88,33.80,0.026632,0.033024,0.001065
370224107,0.000151,-0.002047,0.000185,0.07,-0.28,9.82,33.75,0.026632,0.033024,0.000000
370225115,-0.000914,-0.000982,-0.001946,0.07,-0.29,9.78,33.80,0.025567,0.031958,-0.002131
370226125,-0.000914,0.001149,-0.000881,0.03,-0.31,9.81,33.77,0.023436,0.031958,-0.001065
370227145,-0.000914,-0.000982,0.001250,-0.02,-0.30,9.81,33.78,0.025567,0.031958,0.001065
370228140,-0.000914,0.000084,0.001250,0.00,-0.29,9.82,33.77,0.024501,0.031958,0.001065
370229150,-0.000914,0.002214,0.001250,0.04,-0.29,9.84,33.75,0.022371,0.031958,0.001065
370230157,-0.000914,0.003280,0.000185,0.03,-0.29,9.80,33.73,0.021306,0.031958,0.000000
370231169,-0.000914,0.001149,0.000185,0.02,-0.32,9.77,33.77,0.023436,0.031958,0.000000
370232224,0.001221,0.000032,0.001242,0.04,-0.34,9.77,33.72,0.024501,0.034089,0.001065
370233188,0.003352,-0.001034,0.001242,0.03,-0.34,9.74,33.74,0.025567,0.036220,0.001065
370234198,0.002287,-0.001034,0.000176,-0.01,-0.33,9.79,33.78,0.025567,0.035154,0.000000
370235207,0.002287,-0.001034,-0.000889,0.00,-0.33,9.86,33.79,0.025567,0.035154,-0.001065
370236216,0.001221,0.000032,-0.000889,0.01,-0.32,9.82,33.81,0.024501,0.034089,-0.001065
370237246,-0.000909,-0.001034,-0.001954,0.03,-0.31,9.82,33.80,0.025567,0.031958,-0.002131
370238234,-0.001975,0.000032,-0.000889,0.04,-0.31,9.86,33.80,0.024501,0.030893,-0.001065
370239244,-0.000909,0.001097,0.002307,0.03,-0.34,9.83,33.77,0.023436,0.031958,0.002131
370240254,-0.000909,0.002162,0.002307,0.01,-0.33,9.82,33.77,0.022371,0.031958,0.002131
370241264,-0.000909,0.000032,0.001242,0.01,-0.28,9.81,33.75,0.024501,0.031958,0.001065
370242287,-0.000909,-0.003164,0.000176,0.02,-0.29,9.82,33.80,0.027697,0.031958,0.000000
370243284,-0.001975,-0.004230,-0.000889,0.02,-0.31,9.83,33.79,0.028763,0.030893,-0.001065
370244294,0.000156,-0.003164,-0.001954,0.03,-0.29,9.78,33.80,0.027697,0.033024,-0.002131
370245304,0.001221,-0.001034,-0.001954,0.02,-0.31,9.76,33.77,0.025567,0.034089,-0.002131
370246314,0.001221,0.001097,-0.000889,0.00,-0.32,9.78,33.78,0.023436,0.034089,-0.001065
370247332,0.000156,0.002162,-0.000889,0.00,-0.30,9.83,33.80,0.022371,0.033024,-0.001065
370248334,0.000156,0.002162,-0.000889,0.01,-0.28,9.85,33.80,0.022371,0.033024,-0.001065
370249344,0.001221,0.002162,-0.001954,0.02,-0.29,9.83,33.82,0.022371,0.034089,-0.002131
370250354,0.003352,0.002162,-0.000889,0.02,-0.29,9.82,33.80,0.022371,0.036220,-0.001065
370251364,0.004417,0.000032,0.000176,0.03,-0.31,9.85,33.79,0.024501,0.037285,0.000000
370252391,0.002287,0.001097,-0.000889,0.04,-0.34,9.83,33.77,0.023436,0.035154,-0.001065
370253384,0.000156,0.002162,-0.001954,0.03,-0.34,9.81,33.77,0.022371,0.033024,-0.002131
370254394,0.000156,0.002162,-0.000889,0.02,-0.33,9.87,33.78,0.022371,0.033024,-0.001065
370255404,0.000156,0.001097,0.000176,-0.01,-0.32,9.83,33.81,0.023436,0.033024,0.000000
370256414,-0.001975,0.000032,-0.000889,0.02,-0.31,9.80,33.76,0.024501,0.030893,-0.001065
370257432,-0.003040,0.001097,-0.000889,0.05,-0.33,9.82,33.77,0.023436,0.029828,-0.001065
370258469,-0.003040,0.001097,0.000176,0.04,-0.35,9.83,33.77,0.023436,0.029828,0.000000
370259444,0.000156,-0.001034,0.002307,0.02,-0.33,9.84,33.76,0.025567,0.033024,0.002131
370260454,0.002287,0.000032,0.003372,0.03,-0.33,9.81,33.79,0.024501,0.035154,0.003196
370261464,0.002287,0.002162,0.001242,0.04,-0.33,9.82,33.77,0.022371,0.035154,0.001065
370262487,-0.001975,0.003227,-0.000889,0.01,-0.30,9.82,33.78,0.021306,0.030893,-0.001065
370263484,-0.003040,0.003227,-0.001954,-0.02,-0.28,9.83,33.80,0.021306,0.029828,-0.002131
370264494,-0.003040,0.000032,-0.003019,-0.01,-0.30,9.83,33.78,0.024501,0.029828,-0.003196
370265504,-0.001975,-0.003164,-0.001954,0.02,-0.34,9.80,33.76,0.027697,0.030893,-0.002131
370266514,-0.001975,-0.005295,0.001242,0.04,-0.34,9.82,33.78,0.029828,0.030893,0.001065
370267532,-0.001975,-0.004230,0.003372,0.05,-0.31,9.81,33.77,0.028763,0.030893,0.003196
370268534,-0.001975,-0.003164,0.003372,0.00,-0.31,9.82,33.79,0.027697,0.030893,0.003196
370269544,-0.001975,-0.001034,0.000176,0.01,-0.33,9.81,33.79,0.025567,0.030893,0.000000
370270554,0.000156,-0.001034,-0.000889,0.02,-0.33,9.80,33.76,0.025567,0.033024,-0.001065
370271564,0.000156,-0.002099,0.000176,0.01,-0.28,9.82,33.77,0.026632,0.033024,0.000000
370272592,-0.001975,-0.003164,0.000176,0.03,-0.27,9.80,33.74,0.027697,0.030893,0.000000
370273584,-0.004105,-0.003164,0.000176,0.03,-0.28,9.79,33.77,0.027697,0.028763,0.000000
370274594,-0.005170,-0.001034,0.000176,0.04,-0.31,9.82,33.76,0.025567,0.027697,0.000000
370275604,-0.001975,0.000032,0.002307,0.04,-0.32,9.86,33.80,0.024501,0.030893,0.002131
370276614,0.003352,0.002162,0.000176,0.01,-0.29,9.84,33.77,0.022371,0.036220,0.000000
370277632,0.003352,0.002162,-0.003019,0.00,-0.30,9.79,33.80,0.022371,0.036220,-0.003196
370278634,0.001221,0.001097,-0.001954,0.02,-0.30,9.78,33.77,0.023436,0.034089,-0.002131
370279644,0.001221,-0.001034,0.001242,0.03,-0.29,9.84,33.76,0.025567,0.034089,0.001065
370280654,0.001221,0.000032,0.003372,0.02,-0.28,9.83,33.81,0.024501,0.034089,0.003196
370281672,-0.001975,0.002162,0.002307,0.03,-0.34,9.83,33.77,0.022371,0.030893,0.002131
370282679,-0.000909,0.002162,0.001242,0.01,-0.32,9.85,33.77,0.022371,0.031958,0.001065
370283684,0.001221,0.001097,0.000176,0.03,-0.32,9.88,33.79,0.023436,0.034089,0.000000
370284694,0.003352,-0.001034,-0.003019,0.03,-0.33,9.83,33.82,0.025567,0.036220,-0.003196
370285704,0.005482,0.002162,-0.003019,0.01,-0.31,9.80,33.82,0.022371,0.038350,-0.003196
370286714,0.004417,0.004293,-0.003019,-0.03,-0.28,9.81,33.79,0.020240,0.037285,-0.003196
370287732,0.002287,0.002162,-0.001954,-0.02,-0.28,9.80,33.81,0.022371,0.035154,-0.002131
370288734,0.001221,-0.001034,0.001242,0.00,-0.31,9.82,33.80,0.025567,0.034089,0.001065
370289744,-0.001975,-0.002099,0.002307,0.02,-0.30,9.85,33.80,0.026632,0.030893,0.002131
370290754,-0.001975,-0.003164,0.002307,0.05,-0.30,9.86,33.78,0.027697,0.030893,0.002131
370291775,0.000156,-0.003164,0.001242,0.04,-0.33,9.85,33.77,0.027697,0.033024,0.001065
370292782,0.000156,-0.003164,-0.000889,0.00,-0.35,9.84,33.78,0.027697,0.033024,-0.001065
370293784,-0.001975,-0.001034,-0.001954,0.01,-0.29,9.79,33.80,0.025567,0.030893,-0.002131
370294794,-0.000909,0.001097,0.001242,0.03,-0.26,9.74,33.82,0.023436,0.031958,0.001065
370295804,0.001221,0.000032,0.001242,0.01,-0.28,9.82,33.78,0.024501,0.034089,0.001065
370296814,0.000156,-0.002099,0.000176,0.01,-0.32,9.84,33.76,0.026632,0.033024,0.000000
370297832,-0.000909,0.000032,-0.001954,0.00,-0.33,9.77,33.75,0.024501,0.031958,-0.002131
370298834,0.001221,0.001097,-0.003019,0.01,-0.30,9.81,33.74,0.023436,0.034089,-0.003196
370299844,0.003352,0.000032,-0.001954,0.01,-0.30,9.85,33.72,0.024501,0.036220,-0.002131
370300854,0.003352,0.000032,0.000176,0.02,-0.34,9.89,33.73,0.024501,0.036220,0.000000
370301873,0.002287,0.000032,0.001242,0.02,-0.32,9.85,33.79,0.024501,0.035154,0.001065
370302879,-0.000909,0.000032,0.001242,0.03,-0.29,9.80,33.82,0.024501,0.031958,0.001065
370303884,0.001221,-0.001034,-0.001954,0.04,-0.34,9.85,33.77,0.025567,0.034089,-0.002131
370304894,0.002287,0.000032,-0.001954,0.03,-0.34,9.85,33.76,0.024501,0.035154,-0.002131
370305904,0.002287,0.001097,-0.000889,0.02,-0.29,9.86,33.73,0.023436,0.035154,-0.001065
370306914,0.000156,0.002162,0.001242,0.00,-0.28,9.88,33.75,0.022371,0.033024,0.001065
370307932,-0.000909,0.002162,0.002307,0.01,-0.27,9.86,33.76,0.022371,0.031958,0.002131
370308934,-0.000909,0.000032,0.003372,0.02,-0.26,9.85,33.77,0.024501,0.031958,0.003196
370309944,0.000156,-0.002099,0.002307,0.03,-0.27,9.85,33.77,0.026632,0.033024,0.002131
370310955,0.002287,-0.002099,0.002307,0.04,-0.27,9.83,33.77,0.026632,0.035154,0.002131
370311977,0.001221,-0.001034,0.001242,0.01,-0.26,9.87,33.80,0.025567,0.034089,0.001065
370312987,0.002287,0.000032,-0.000889,-0.03,-0.30,9.85,33.80,0.024501,0.035154,-0.001065
370313994,0.002287,0.000032,-0.000889,-0.01,-0.31,9.81,33.77,0.024501,0.035154,-0.001065
370315002,0.004417,0.000032,0.001242,0.03,-0.34,9.83,33.76,0.024501,0.037285,0.001065
370316009,0.003352,0.001097,0.002307,0.03,-0.34,9.83,33.73,0.023436,0.036220,0.002131
370317022,0.001221,0.000032,0.001242,0.01,-0.33,9.78,33.75,0.024501,0.034089,0.001065
370318041,-0.001975,-0.001034,0.000176,0.03,-0.35,9.76,33.74,0.025567,0.030893,0.000000
370319041,-0.001975,0.001097,-0.001954,0.03,-0.32,9.80,33.75,0.023436,0.030893,-0.002131
370320058,0.000156,0.002162,-0.004085,0.03,-0.28,9.84,33.78,0.022371,0.033024,-0.004261
370321069,0.001221,0.001097,-0.004085,0.02,-0.28,9.84,33.81,0.023436,0.034089,-0.004261
370322085,0.002287,-0.002099,-0.001954,0.01,-0.32,9.81,33.76,0.026632,0.035154,-0.002131
370323088,0.002287,-0.004230,-0.000889,0.01,-0.34,9.84,33.78,0.028763,0.035154,-0.001065
370324088,0.002287,-0.002099,-0.001954,0.03,-0.34,9.84,33.76,0.026632,0.035154,-0.002131
370325107,0.002287,0.001097,-0.001954,0.04,-0.34,9.79,33.79,0.023436,0.035154,-0.002131
370326115,0.003352,0.001097,-0.003019,0.02,-0.31,9.80,33.79,0.023436,0.036220,-0.003196
370327123,0.001221,0.001097,-0.003019,0.01,-0.30,9.86,33.77,0.023436,0.034089,-0.003196
370328145,-0.001975,0.001097,-0.004085,0.02,-0.30,9.88,33.77,0.023436,0.030893,-0.004261
370329139,-0.001975,0.002162,-0.003019,0.04,-0.30,9.83,33.77,0.022371,0.030893,-0.003196
370330150,-0.000909,0.002162,-0.003019,0.03,-0.29,9.76,33.81,0.022371,0.031958,-0.003196
370331163,0.000156,0.001097,-0.001954,-0.02,-0.30,9.71,33.80,0.023436,0.033024,-0.002131
370332180,-0.000909,0.000032,0.002307,0.01,-0.33,9.75,33.78,0.024501,0.031958,0.002131
370333186,-0.001975,0.000032,0.003372,0.02,-0.34,9.82,33.78,0.024501,0.030893,0.003196
370334188,0.001221,0.000032,0.001242,-0.02,-0.34,9.84,33.77,0.024501,0.034089,0.001065
370335198,0.002287,-0.001034,0.000176,0.02,-0.33,9.79,33.80,0.025567,0.035154,0.000000
370336207,0.001221,-0.002099,0.001242,0.02,-0.29,9.76,33.77,0.026632,0.034089,0.001065
370337216,0.001221,-0.001034,0.002307,0.02,-0.30,9.82,33.83,0.025567,0.034089,0.002131
370338232,0.001221,0.000032,0.000176,0.03,-0.30,9.89,33.81,0.024501,0.034089,0.000000
370339234,0.001221,0.000032,-0.000889,0.02,-0.28,9.87,33.80,0.024501,0.034089,-0.001065
370340244,-0.000909,-0.001034,-0.001954,0.03,-0.32,9.82,33.79,0.025567,0.031958,-0.002131
370341254,-0.000909,0.000032,-0.004085,0.04,-0.30,9.81,33.80,0.024501,0.031958,-0.004261
370342272,0.002287,0.000032,-0.001954,0.04,-0.33,9.78,33.78,0.024501,0.035154,-0.002131
370343279,0.005482,0.000032,0.000176,0.05,-0.35,9.77,33.78,0.024501,0.038350,0.000000
370344284,0.005482,-0.001034,0.001242,0.04,-0.29,9.82,33.75,0.025567,0.038350,0.001065
370345294,0.002287,-0.001034,0.003372,-0.01,-0.28,9.79,33.75,0.025567,0.035154,0.003196
370346304,0.000156,-0.001034,0.003372,0.00,-0.30,9.82,33.74,0.025567,0.033024,0.003196
370347314,0.000156,-0.001034,0.003372,0.05,-0.31,9.86,33.73,0.025567,0.033024,0.003196
370348332,0.002287,-0.002099,0.002307,0.05,-0.29,9.82,33.74,0.026632,0.035154,0.002131
