time_us,gyro_x_rad_s,gyro_y_rad_s,gyro_z_rad_s,acc_x_m_s2,acc_y_m_s2,acc_z_m_s2,temperature_c,gyro_sensor_uncorrected_x_rad_s,gyro_sensor_uncorrected_y_rad_s,gyro_sensor_uncorrected_z_rad_s
592080854,0.000248,0.000599,0.000602,-0.04,-0.24,9.81,37.94,0.024501,0.033024,0.000000
592081566,0.000248,0.000599,0.001667,-0.02,-0.22,9.82,37.94,0.024501,0.033024,0.001065
592082494,0.001313,-0.001532,0.000602,-0.04,-0.20,9.79,37.90,0.026632,0.034089,0.000000
592083493,0.000248,-0.004727,-0.001529,-0.05,-0.24,9.82,37.88,0.029828,0.033024,-0.002131
592084495,-0.000817,-0.004727,-0.001529,-0.02,-0.24,9.81,37.88,0.029828,0.031958,-0.002131
592085505,-0.002948,-0.002597,0.000602,0.01,-0.25,9.79,37.93,0.027697,0.029828,0.000000
592086463,-0.002948,0.000599,0.000602,0.02,-0.23,9.75,37.92,0.024501,0.029828,0.000000
592087474,-0.004013,-0.000466,0.000602,-0.02,-0.21,9.77,37.86,0.025567,0.028763,0.000000
592088483,-0.004013,-0.002597,-0.000463,-0.02,-0.23,9.84,37.91,0.027697,0.028763,-0.001065
592089497,-0.004013,-0.002597,-0.000463,0.01,-0.22,9.80,37.92,0.027697,0.028763,-0.001065
592090503,-0.002948,-0.002597,-0.001529,0.00,-0.19,9.77,37.90,0.027697,0.029828,-0.002131
592091514,0.000248,0.000599,-0.001529,-0.02,-0.20,9.79,37.89,0.024501,0.033024,-0.002131
592092481,0.001313,0.002730,0.000602,-0.01,-0.18,9.78,37.94,0.022371,0.034089,0.000000
592093474,0.000248,0.000599,-0.000463,-0.01,-0.20,9.75,37.93,0.024501,0.033024,-0.001065
592094483,0.002379,-0.001532,-0.001529,-0.02,-0.23,9.74,37.90,0.026632,0.035154,-0.002131
592095503,0.001313,-0.000466,-0.001529,-0.01,-0.24,9.77,37.88,0.025567,0.034089,-0.002131
592096503,-0.000817,0.000599,-0.000463,-0.02,-0.23,9.80,37.90,0.024501,0.031958,-0.001065
592097513,0.000248,0.000599,0.000602,-0.03,-0.25,9.83,37.87,0.024501,0.033024,0.000000
592098523,0.001313,-0.000466,0.000602,-0.02,-0.27,9.86,37.84,0.025567,0.034089,0.000000
592099533,0.002379,-0.000466,-0.000463,-0.01,-0.24,9.82,37.89,0.025567,0.035154,-0.001065
592100561,0.001313,-0.000466,-0.000463,0.00,-0.23,9.75,37.90,0.025567,0.034089,-0.001065
592101553,0.001313,0.000599,0.000602,0.00,-0.24,9.78,37.90,0.024501,0.034089,0.000000
592102584,0.001313,0.000599,0.000602,-0.01,-0.23,9.84,37.92,0.024501,0.034089,0.000000
592103578,0.002379,-0.000466,0.001667,0.01,-0.22,9.88,37.92,0.025567,0.035154,0.001065
592104587,0.002379,0.000599,0.000602,0.02,-0.23,9.85,37.94,0.024501,0.035154,0.000000
592105606,0.000248,0.000599,-0.000463,0.01,-0.25,9.82,37.95,0.024501,0.033024,-0.001065
592106607,-0.000817,0.000599,-0.000463,0.02,-0.22,9.81,37.93,0.024501,0.031958,-0.001065
592107617,0.000248,0.001664,-0.000463,0.02,-0.21,9.83,37.91,0.023436,0.033024,-0.001065
592108627,0.000248,0.002730,0.000602,-0.02,-0.23,9.85,37.92,0.022371,0.033024,0.000000
592109637,0.000248,0.000599,0.000602,-0.02,-0.24,9.83,37.93,0.024501,0.033024,0.000000
592110652,-0.000817,-0.001532,-0.000463,-0.01,-0.25,9.80,37.93,0.026632,0.031958,-0.001065
592111657,0.000248,-0.000466,-0.000463,-0.01,-0.25,9.78,37.92,0.025567,0.033024,-0.001065
592112685,0.000248,0.000599,-0.000463,-0.03,-0.23,9.79,37.88,0.024501,0.033024,-0.001065
592113679,0.000248,0.001664,0.000602,-0.01,-0.22,9.80,37.86,0.023436,0.033024,0.000000
592114683,-0.000817,0.000599,-0.000463,0.00,-0.23,9.81,37.87,0.024501,0.031958,-0.001065
592115712,-0.000817,0.001664,-0.001529,-0.03,-0.25,9.80,37.93,0.023436,0.031958,-0.002131
592116710,-0.000817,0.002730,-0.002594,0.00,-0.26,9.83,37.89,0.022371,0.031958,-0.003196
592117720,-0.001883,0.002730,-0.000463,0.03,-0.24,9.87,37.92,0.022371,0.030893,-0.001065
592118733,-0.001883,0.000599,0.001667,0.01,-0.20,9.88,37.91,0.024501,0.030893,0.001065
592119738,0.000248,-0.001532,0.002732,0.00,-0.20,9.82,37.90,0.026632,0.033024,0.002131
592120757,0.002379,-0.001532,0.001667,0.02,-0.20,9.80,37.88,0.026632,0.035154,0.001065
592121774,0.000248,-0.000466,0.001667,0.03,-0.22,9.79,37.88,0.025567,0.033024,0.001065
592122800,-0.002948,0.001664,0.000602,0.01,-0.24,9.76,37.88,0.023436,0.029828,0.000000
592123790,-0.001883,0.002730,-0.000463,0.00,-0.22,9.81,37.91,0.022371,0.030893,-0.001065
592124797,-0.000817,0.002730,-0.000463,0.00,-0.22,9.87,37.92,0.022371,0.031958,-0.001065
592125818,-0.002948,0.000599,-0.000463,0.02,-0.23,9.81,37.91,0.024501,0.029828,-0.001065
592126820,-0.002948,0.001664,-0.001529,0.00,-0.22,9.74,37.91,0.023436,0.029828,-0.002131
592127828,-0.001883,0.002730,-0.002594,0.01,-0.22,9.81,37.91,0.022371,0.030893,-0.003196
592128834,-0.000817,0.001664,-0.001529,0.01,-0.22,9.85,37.86,0.023436,0.031958,-0.002131
592129852,0.001313,0.000599,-0.000463,0.01,-0.22,9.80,37.88,0.024501,0.034089,-0.001065
592130859,0.001313,0.001664,0.000602,-0.01,-0.22,9.80,37.85,0.023436,0.034089,0.000000
592131862,0.000248,0.002730,-0.000463,-0.04,-0.24,9.82,37.88,0.022371,0.033024,-0.001065
592132886,-0.001883,-0.000466,-0.000463,-0.03,-0.23,9.82,37.88,0.025567,0.030893,-0.001065
592133878,-0.001883,-0.002597,0.000602,-0.04,-0.20,9.80,37.91,0.027697,0.030893,0.000000
592134888,-0.000817,-0.002597,0.001667,-0.01,-0.20,9.79,37.89,0.027697,0.031958,0.001065
592135906,0.000248,-0.000466,0.000602,-0.02,-0.24,9.81,37.86,0.025567,0.033024,0.000000
592136907,0.001313,0.000599,-0.000463,-0.03,-0.24,9.77,37.88,0.024501,0.034089,-0.001065
592137916,0.003444,0.001664,-0.000463,0.02,-0.26,9.76,37.90,0.023436,0.036220,-0.001065
592138925,0.002379,0.001664,-0.000463,0.02,-0.25,9.79,37.90,0.023436,0.035154,-0.001065
592139933,0.001313,0.000599,-0.000463,0.02,-0.25,9.80,37.89,0.024501,0.034089,-0.001065
592140948,-0.001883,-0.000466,-0.000463,-0.02,-0.24,9.84,37.89,0.025567,0.030893,-0.001065
592141953,-0.001883,-0.001532,-0.000463,-0.07,-0.23,9.83,37.89,0.026632,0.030893,-0.001065
592142984,-0.000817,-0.002597,-0.000463,-0.05,-0.25,9.80,37.91,0.027697,0.031958,-0.001065
592143979,-0.000817,-0.002597,-0.002594,-0.01,-0.24,9.83,37.87,0.027697,0.031958,-0.003196
592144987,0.001313,-0.000466,-0.003659,0.01,-0.24,9.89,37.89,0.025567,0.034089,-0.004261
592146006,0.002379,0.001664,-0.001529,0.01,-0.25,9.87,37.89,0.023436,0.035154,-0.002131
592147007,0.001313,0.002730,-0.001529,0.00,-0.23,9.81,37.92,0.022371,0.034089,-0.002131
592148017,-0.001883,0.001664,-0.000463,0.01,-0.21,9.82,37.94,0.023436,0.030893,-0.001065
592149027,-0.000817,-0.000466,0.001667,0.02,-0.21,9.86,37.91,0.025567,0.031958,0.001065
592150037,0.000248,-0.003662,0.000602,0.01,-0.22,9.85,37.90,0.028763,0.033024,0.000000
592151052,-0.000817,-0.001532,0.000602,0.01,-0.26,9.79,37.90,0.026632,0.031958,0.000000
592152057,-0.001883,0.000599,0.001667,-0.01,-0.26,9.81,37.91,0.024501,0.030893,0.001065
592153080,-0.001883,-0.000466,0.001667,-0.02,-0.21,9.82,37.90,0.025567,0.030893,0.001065
592154104,-0.001861,-0.001533,0.000605,-0.02,-0.18,9.81,37.89,0.026632,0.030893,0.000000
592155083,-0.001861,-0.002598,-0.000461,-0.02,-0.21,9.84,37.89,0.027697,0.030893,-0.001065
592156104,-0.002927,-0.000467,0.000605,0.00,-0.23,9.83,37.90,0.025567,0.029828,0.000000
592157103,-0.002927,0.001663,0.000605,0.02,-0.24,9.81,37.93,0.023436,0.029828,0.000000
592158113,-0.002927,0.000598,-0.000461,-0.02,-0.25,9.75,37.92,0.024501,0.029828,-0.001065
592159123,-0.003992,0.000598,-0.001526,-0.03,-0.23,9.75,37.91,0.024501,0.028763,-0.002131
592160133,-0.002927,0.000598,-0.000461,-0.01,-0.20,9.78,37.90,0.024501,0.029828,-0.001065
592161147,-0.000796,0.001663,0.002735,-0.01,-0.23,9.78,37.88,0.023436,0.031958,0.002131
592162153,-0.000796,0.002729,0.004866,0.02,-0.28,9.78,37.89,0.022371,0.031958,0.004261
592163185,0.000269,0.002729,0.002735,0.03,-0.26,9.81,37.91,0.022371,0.033024,0.002131
592164179,0.001335,0.000598,0.001670,0.00,-0.22,9.84,37.87,0.024501,0.034089,0.001065
592165187,0.001335,-0.000467,-0.000461,0.00,-0.22,9.81,37.84,0.025567,0.034089,-0.001065
592166204,0.000269,-0.000467,-0.002591,-0.02,-0.25,9.78,37.87,0.025567,0.033024,-0.003196
592167207,0.001335,0.000598,-0.001526,-0.05,-0.24,9.79,37.89,0.024501,0.034089,-0.002131
592168217,0.000269,0.000598,-0.000461,-0.02,-0.24,9.78,37.88,0.024501,0.033024,-0.001065
592169227,-0.000796,-0.000467,0.001670,0.03,-0.29,9.81,37.87,0.025567,0.031958,0.001065
592170237,-0.002927,0.000598,0.000605,0.01,-0.27,9.83,37.92,0.024501,0.029828,0.000000
592171252,-0.003992,0.000598,-0.000461,-0.03,-0.23,9.80,37.94,0.024501,0.028763,-0.001065
592172257,-0.000796,0.002729,-0.000461,-0.02,-0.21,9.83,37.95,0.022371,0.031958,-0.001065
592173281,0.002400,0.002729,-0.000461,0.03,-0.21,9.81,37.92,0.022371,0.035154,-0.001065
592174274,0.002400,0.003794,-0.001526,0.01,-0.24,9.78,37.87,0.021306,0.035154,-0.002131
592175283,0.001335,0.003794,-0.001526,0.00,-0.21,9.82,37.87,0.021306,0.034089,-0.002131
592176303,-0.000796,0.001663,-0.001526,0.00,-0.22,9.87,37.90,0.023436,0.031958,-0.002131
592177303,-0.001861,0.001663,-0.002591,0.00,-0.28,9.84,37.88,0.023436,0.030893,-0.003196
592178313,-0.002927,0.001663,-0.002591,-0.01,-0.28,9.77,37.91,0.023436,0.029828,-0.003196
592179323,-0.003992,0.000598,0.000605,-0.03,-0.24,9.77,37.92,0.024501,0.028763,0.000000
592180333,-0.002927,0.000598,0.002735,-0.02,-0.21,9.83,37.90,0.024501,0.029828,0.002131
592181348,0.000269,0.001663,0.000605,0.03,-0.22,9.83,37.93,0.023436,0.033024,0.000000
592182353,0.003465,0.001663,-0.000461,-0.01,-0.25,9.80,37.95,0.023436,0.036220,-0.001065
592183384,0.003465,0.000598,-0.000461,-0.03,-0.26,9.80,37.93,0.024501,0.036220,-0.001065
592184379,0.002400,-0.000467,0.002735,0.01,-0.23,9.81,37.90,0.025567,0.035154,0.002131
592185387,0.001335,-0.002598,0.002735,0.04,-0.20,9.77,37.89,0.027697,0.034089,0.002131
592186406,0.000269,-0.002598,-0.001526,0.01,-0.23,9.75,37.91,0.027697,0.033024,-0.002131
592187407,0.000269,-0.002598,-0.002591,0.01,-0.25,9.77,37.94,0.027697,0.033024,-0.003196
592188417,0.000269,0.000598,-0.002591,0.03,-0.24,9.79,37.91,0.024501,0.033024,-0.003196
592189427,0.000269,0.003794,-0.001526,-0.01,-0.25,9.84,37.90,0.021306,0.033024,-0.002131
592190437,-0.001861,0.003794,-0.001526,-0.04,-0.23,9.80,37.91,0.021306,0.030893,-0.002131
592191452,-0.003992,0.001663,-0.000461,-0.02,-0.23,9.78,37.87,0.023436,0.028763,-0.001065
592192470,-0.002927,0.000598,0.000605,0.00,-0.25,9.79,37.88,0.024501,0.029828,0.000000
592193464,-0.001861,0.001663,0.001670,0.01,-0.24,9.82,37.92,0.023436,0.030893,0.001065
592194473,-0.000796,0.003794,-0.000461,0.00,-0.26,9.80,37.87,0.021306,0.031958,-0.001065
592195483,0.001335,0.001663,-0.000461,0.00,-0.25,9.78,37.91,0.023436,0.034089,-0.001065
592196504,0.004530,-0.001533,0.000605,-0.03,-0.23,9.77,37.93,0.026632,0.037285,0.000000
592197503,0.004530,-0.002598,0.001670,-0.03,-0.23,9.79,37.92,0.027697,0.037285,0.001065
592198513,0.002400,-0.001533,0.001670,-0.03,-0.25,9.81,37.92,0.026632,0.035154,0.001065
592199523,-0.000796,-0.000467,-0.001526,-0.03,-0.23,9.78,37.90,0.025567,0.031958,-0.002131
592200533,-0.000796,-0.001533,-0.001526,0.00,-0.20,9.78,37.92,0.026632,0.031958,-0.002131
592201547,0.000269,-0.001533,-0.000461,-0.01,-0.23,9.80,37.90,0.026632,0.033024,-0.001065
592202575,-0.000796,0.000598,0.001670,-0.02,-0.23,9.79,37.88,0.024501,0.031958,0.001065
592203568,0.001335,0.000598,0.002735,0.00,-0.22,9.78,37.89,0.024501,0.034089,0.002131
592204577,0.002400,-0.002598,0.002735,-0.01,-0.23,9.77,37.91,0.027697,0.035154,0.002131
592205587,0.001335,-0.003663,0.001670,-0.03,-0.21,9.77,37.91,0.028763,0.034089,0.001065
592206604,-0.000796,-0.002598,0.001670,-0.01,-0.20,9.82,37.93,0.027697,0.031958,0.001065
592207607,-0.001861,-0.000467,0.002735,0.01,-0.19,9.83,37.90,0.025567,0.030893,0.002131
592208617,-0.003992,-0.001533,0.001670,0.02,-0.21,9.81,37.87,0.026632,0.028763,0.001065
592209635,-0.003992,-0.003663,0.000605,0.04,-0.26,9.79,37.89,0.028763,0.028763,0.000000
592210637,-0.000796,-0.002598,-0.000461,0.02,-0.28,9.74,37.90,0.027697,0.031958,-0.001065
592211652,0.001335,0.000598,-0.001526,-0.02,-0.23,9.81,37.90,0.024501,0.034089,-0.002131
592212672,0.000269,0.002729,-0.001526,-0.02,-0.23,9.87,37.93,0.022371,0.033024,-0.002131
592213664,-0.001861,0.003794,-0.002591,-0.01,-0.25,9.84,37.91,0.021306,0.030893,-0.003196
592214674,-0.001861,0.002729,-0.002591,-0.01,-0.26,9.82,37.91,0.022371,0.030893,-0.003196
592215683,-0.002927,0.001663,-0.001526,-0.02,-0.23,9.82,37.86,0.023436,0.029828,-0.002131
592216709,-0.000796,0.000598,-0.000461,-0.01,-0.24,9.80,37.90,0.024501,0.031958,-0.001065
592217710,0.002400,-0.000467,-0.001526,0.01,-0.28,9.75,37.94,0.025567,0.035154,-0.002131
592218720,0.003465,-0.000467,-0.000461,0.04,-0.23,9.75,37.90,0.025567,0.036220,-0.001065
592219731,0.001335,-0.000467,-0.000461,0.04,-0.21,9.77,37.93,0.025567,0.034089,-0.001065
592220739,0.000269,0.000598,-0.000461,-0.01,-0.22,9.82,37.92,0.024501,0.033024,-0.001065
592221790,0.000269,0.000598,0.001670,-0.05,-0.21,9.84,37.87,0.024501,0.033024,0.001065
592222797,-0.000796,-0.002598,0.002735,-0.02,-0.19,9.83,37.91,0.027697,0.031958,0.002131
592223800,-0.000796,-0.003663,0.002735,0.01,-0.24,9.80,37.88,0.028763,0.031958,0.002131
592224788,-0.000796,-0.002598,0.001670,0.01,-0.28,9.81,37.87,0.027697,0.031958,0.001065
592225805,0.000269,-0.002598,0.000605,0.01,-0.26,9.80,37.86,0.027697,0.033024,0.000000
592226817,0.001335,0.000598,-0.001526,0.00,-0.22,9.80,37.90,0.024501,0.034089,-0.002131
592227819,0.003465,0.001663,-0.002591,-0.01,-0.22,9.82,37.93,0.023436,0.036220,-0.003196
592228828,0.004530,-0.000467,-0.001526,0.02,-0.22,9.85,37.93,0.025567,0.037285,-0.002131
592229834,0.002400,-0.003663,0.000605,0.02,-0.23,9.85,37.94,0.028763,0.035154,0.000000
592230849,-0.001861,-0.002598,0.001670,0.02,-0.23,9.80,37.89,0.027697,0.030893,0.001065
592231861,-0.003992,-0.000467,0.001670,0.04,-0.19,9.84,37.88,0.025567,0.028763,0.001065
592232879,-0.005057,0.002729,-0.000461,0.03,-0.19,9.83,37.91,0.022371,0.027697,-0.001065
592233867,-0.003992,0.003794,-0.000461,0.02,-0.23,9.76,37.89,0.021306,0.028763,-0.001065
592234878,0.000269,0.001663,0.000605,0.02,-0.23,9.83,37.89,0.023436,0.033024,0.000000
592235883,0.002400,-0.000467,0.000605,0.03,-0.21,9.82,37.89,0.025567,0.035154,0.000000
592236906,0.001335,-0.000467,0.000605,0.04,-0.23,9.79,37.87,0.025567,0.034089,0.000000
592237907,-0.000796,-0.000467,-0.000461,-0.01,-0.25,9.86,37.90,0.025567,0.031958,-0.001065
592238916,-0.001861,-0.001533,-0.000461,-0.03,-0.28,9.88,37.93,0.026632,0.030893,-0.001065
592239925,-0.001861,-0.001533,0.000605,0.00,-0.28,9.80,37.90,0.026632,0.030893,0.000000
592240933,-0.000796,0.001663,0.000605,-0.01,-0.27,9.76,37.90,0.023436,0.031958,0.000000
592241948,0.001335,0.002729,-0.001526,-0.02,-0.29,9.79,37.90,0.022371,0.034089,-0.002131
592242974,0.002400,0.000598,-0.002591,-0.01,-0.27,9.85,37.89,0.024501,0.035154,-0.003196
592243968,0.002400,-0.000467,-0.002591,-0.02,-0.23,9.88,37.92,0.025567,0.035154,-0.003196
592244977,0.002400,0.000598,-0.002591,0.00,-0.23,9.87,37.93,0.024501,0.035154,-0.003196
592245987,0.002400,-0.000467,-0.002591,0.01,-0.24,9.86,37.93,0.025567,0.035154,-0.003196
592247006,0.002400,-0.001533,-0.001526,-0.01,-0.23,9.86,37.94,0.026632,0.035154,-0.002131
592248007,0.001335,-0.001533,-0.001526,-0.01,-0.22,9.83,37.93,0.026632,0.034089,-0.002131
592249017,-0.000796,-0.000467,-0.001526,0.02,-0.19,9.78,37.92,0.025567,0.031958,-0.002131
592250027,-0.000796,0.001663,-0.002591,0.03,-0.23,9.83,37.91,0.023436,0.031958,-0.003196
592251037,0.002400,0.002729,-0.002591,0.02,-0.25,9.92,37.90,0.022371,0.035154,-0.003196
592252052,0.002400,0.001663,-0.001526,0.02,-0.23,9.87,37.88,0.023436,0.035154,-0.002131
592253070,0.000269,0.000598,-0.000461,0.00,-0.23,9.81,37.89,0.024501,0.033024,-0.001065
592254064,-0.000796,-0.000467,-0.000461,-0.03,-0.22,9.80,37.88,0.025567,0.031958,-0.001065
592255073,0.000269,-0.001533,-0.000461,-0.01,-0.23,9.78,37.88,0.026632,0.033024,-0.001065
592256083,0.000269,-0.000467,0.000605,0.03,-0.26,9.77,37.87,0.025567,0.033024,0.000000
592257104,-0.001861,0.001663,0.000605,0.01,-0.23,9.80,37.88,0.023436,0.030893,0.000000
592258103,-0.000796,0.001663,-0.000461,0.02,-0.22,9.82,37.89,0.023436,0.031958,-0.001065
592259113,0.001335,0.000598,-0.001526,0.03,-0.25,9.78,37.93,0.024501,0.034089,-0.002131
592260131,0.002400,-0.000467,0.000605,0.00,-0.24,9.83,37.92,0.025567,0.035154,0.000000
592261133,0.001335,-0.000467,0.000605,0.01,-0.22,9.84,37.89,0.025567,0.034089,0.000000
592262147,0.002400,-0.000467,0.000605,0.02,-0.22,9.78,37.88,0.025567,0.035154,0.000000
592263175,0.002400,-0.000467,0.000605,0.00,-0.22,9.76,37.88,0.025567,0.035154,0.000000
592264169,0.001335,-0.000467,0.000605,-0.02,-0.23,9.77,37.88,0.025567,0.034089,0.000000
592265177,0.001335,0.000598,0.001670,-0.01,-0.23,9.81,37.90,0.024501,0.034089,0.001065
592266187,0.000269,0.001663,-0.000461,-0.01,-0.25,9.88,37.90,0.023436,0.033024,-0.001065
592267204,0.000269,0.001663,-0.001526,0.00,-0.24,9.83,37.93,0.023436,0.033024,-0.002131
592268207,0.001335,0.001663,-0.000461,0.00,-0.26,9.81,37.93,0.023436,0.034089,-0.001065
592269217,0.002400,0.000598,0.000605,0.01,-0.26,9.86,37.91,0.024501,0.035154,0.000000
592270227,0.001335,0.001663,0.001670,-0.01,-0.25,9.84,37.92,0.023436,0.034089,0.001065
592271237,0.000269,0.001663,0.001670,-0.01,-0.25,9.85,37.93,0.023436,0.033024,0.001065
592272252,0.000269,0.000598,0.000605,-0.02,-0.21,9.82,37.93,0.024501,0.033024,0.000000
592273271,0.000269,-0.000467,-0.000461,-0.03,-0.18,9.76,37.90,0.025567,0.033024,-0.001065
592274264,-0.000796,-0.000467,-0.000461,0.01,-0.21,9.78,37.92,0.025567,0.031958,-0.001065
592275273,-0.000796,0.000598,0.001670,-0.02,-0.24,9.80,37.90,0.024501,0.031958,0.001065
592276283,0.000269,-0.001533,0.001670,-0.02,-0.23,9.78,37.88,0.026632,0.033024,0.001065
592277303,0.002400,-0.002598,0.001670,0.00,-0.24,9.78,37.93,0.027697,0.035154,0.001065
592278303,0.002400,-0.000467,0.001670,0.01,-0.25,9.78,37.95,0.025567,0.035154,0.001065
592279313,0.001335,0.001663,-0.000461,-0.02,-0.26,9.83,37.95,0.023436,0.034089,-0.001065
592280323,-0.000796,0.003794,-0.001526,-0.06,-0.24,9.79,37.93,0.021306,0.031958,-0.002131
592281333,-0.001861,0.004859,-0.003657,-0.07,-0.24,9.71,37.92,0.020240,0.030893,-0.004261
592282348,-0.000796,0.003794,-0.003657,-0.06,-0.25,9.77,37.92,0.021306,0.031958,-0.004261
592283406,-0.001866,0.001622,-0.000446,-0.03,-0.23,9.79,37.93,0.023436,0.030893,-0.001065
592284369,-0.001866,0.000557,0.001684,-0.02,-0.25,9.79,37.90,0.024501,0.030893,0.001065
592285377,-0.000800,0.001622,0.001684,-0.01,-0.24,9.78,37.85,0.023436,0.031958,0.001065
592286387,0.000265,-0.000508,-0.001512,-0.03,-0.21,9.80,37.84,0.025567,0.033024,-0.002131
592287406,0.001330,-0.002639,-0.003642,-0.03,-0.23,9.84,37.87,0.027697,0.034089,-0.004261
592288407,0.003461,-0.002639,-0.003642,-0.02,-0.21,9.82,37.92,0.027697,0.036220,-0.004261
592289417,0.002395,0.000557,-0.001512,-0.03,-0.21,9.81,37.95,0.024501,0.035154,-0.002131
592290427,0.000265,0.001622,0.001684,-0.03,-0.24,9.86,37.93,0.023436,0.033024,0.001065
592291437,-0.001866,0.001622,0.002749,-0.03,-0.23,9.86,37.92,0.023436,0.030893,0.002131
592292460,-0.001866,0.002688,0.002749,0.01,-0.23,9.78,37.92,0.022371,0.030893,0.002131
592293454,0.000265,0.000557,0.000619,0.02,-0.20,9.78,37.92,0.024501,0.033024,0.000000
592294463,0.001330,-0.000508,-0.000446,0.00,-0.19,9.82,37.90,0.025567,0.034089,-0.001065
592295473,-0.000800,-0.000508,0.000619,0.00,-0.23,9.85,37.92,0.025567,0.031958,0.000000
592296483,-0.002931,-0.000508,0.000619,-0.01,-0.23,9.82,37.91,0.025567,0.029828,0.000000
592297503,-0.000800,-0.000508,0.000619,-0.01,-0.21,9.83,37.91,0.025567,0.031958,0.000000
592298503,0.001330,-0.000508,0.000619,0.01,-0.21,9.80,37.93,0.025567,0.034089,0.000000
592299513,0.000265,-0.000508,0.001684,0.04,-0.21,9.79,37.93,0.025567,0.033024,0.001065
592300523,-0.001866,0.000557,0.001684,0.02,-0.22,9.81,37.92,0.024501,0.030893,0.001065
592301533,-0.002931,0.000557,0.001684,-0.01,-0.25,9.79,37.92,0.024501,0.029828,0.001065
592302565,0.000265,0.000557,-0.000446,-0.02,-0.23,9.77,37.91,0.024501,0.033024,-0.001065
592303558,0.001330,0.000557,0.000619,-0.02,-0.23,9.82,37.93,0.024501,0.034089,0.000000
592304567,-0.001866,-0.000508,0.000619,-0.01,-0.27,9.83,37.87,0.025567,0.030893,0.000000
592305577,-0.005061,-0.000508,0.000619,0.03,-0.28,9.82,37.89,0.025567,0.027697,0.000000
592306587,-0.003996,0.000557,0.000619,0.04,-0.26,9.84,37.92,0.024501,0.028763,0.000000
592307604,-0.001866,0.000557,-0.001512,0.01,-0.23,9.83,37.90,0.024501,0.030893,-0.002131
592308607,-0.000800,0.000557,-0.001512,-0.01,-0.21,9.82,37.91,0.024501,0.031958,-0.002131
592309617,0.001330,0.000557,-0.001512,0.02,-0.24,9.84,37.91,0.024501,0.034089,-0.002131
592310627,0.000265,-0.001573,-0.002577,0.02,-0.23,9.85,37.89,0.026632,0.033024,-0.003196
592311666,-0.001866,-0.001573,-0.001512,0.00,-0.23,9.83,37.94,0.026632,0.030893,-0.002131
592312691,-0.001866,0.000557,-0.001512,0.01,-0.23,9.80,37.91,0.024501,0.030893,-0.002131
592313654,0.000265,0.000557,-0.001512,0.01,-0.23,9.73,37.92,0.024501,0.033024,-0.002131
592314663,0.001330,-0.001573,0.000619,-0.01,-0.20,9.73,37.90,0.026632,0.034089,0.000000
592315673,0.002395,-0.001573,0.001684,0.00,-0.21,9.77,37.90,0.026632,0.035154,0.001065
592316683,0.002395,0.000557,0.001684,0.01,-0.25,9.76,37.91,0.024501,0.035154,0.001065
592317709,0.002395,0.001622,0.001684,-0.02,-0.24,9.78,37.91,0.023436,0.035154,0.001065
592318710,0.001330,0.001622,0.001684,-0.04,-0.23,9.81,37.94,0.023436,0.034089,0.001065
592319720,0.001330,-0.000508,-0.000446,0.00,-0.21,9.82,37.93,0.025567,0.034089,-0.001065
592320731,0.000265,-0.001573,-0.001512,0.03,-0.21,9.84,37.89,0.026632,0.033024,-0.002131
592321743,0.000265,-0.000508,-0.001512,0.00,-0.24,9.86,37.87,0.025567,0.033024,-0.002131
592322771,-0.000800,-0.001573,-0.001512,-0.01,-0.27,9.85,37.88,0.026632,0.031958,-0.002131
592323769,-0.000800,-0.000508,-0.001512,0.00,-0.24,9.81,37.89,0.025567,0.031958,-0.002131
592324773,0.000265,0.000557,-0.000446,-0.01,-0.21,9.80,37.92,0.024501,0.033024,-0.001065
592325798,0.000265,0.001622,0.000619,0.00,-0.23,9.82,37.95,0.023436,0.033024,0.000000
592326796,-0.001866,0.001622,0.001684,0.01,-0.25,9.80,37.91,0.023436,0.030893,0.001065
592327819,-0.003996,0.000557,0.000619,-0.02,-0.22,9.84,37.89,0.024501,0.028763,0.000000
592328830,-0.003996,-0.000508,-0.000446,-0.02,-0.23,9.86,37.91,0.025567,0.028763,-0.001065
592329824,-0.000800,-0.001573,0.000619,-0.02,-0.27,9.80,37.92,0.026632,0.031958,0.000000
592330833,0.000265,-0.003704,0.001684,-0.03,-0.25,9.78,37.93,0.028763,0.033024,0.001065
592331846,0.001330,-0.002639,0.000619,-0.02,-0.24,9.77,37.90,0.027697,0.034089,0.000000
592332874,0.001330,0.000557,0.000619,-0.02,-0.24,9.80,37.90,0.024501,0.034089,0.000000
592333859,0.001330,0.002688,0.000619,-0.01,-0.24,9.83,37.88,0.022371,0.034089,0.000000
592334873,0.000265,0.001622,0.002749,0.01,-0.25,9.84,37.87,0.023436,0.033024,0.002131
592335877,-0.000800,-0.000508,0.000619,0.00,-0.25,9.81,37.85,0.025567,0.031958,0.000000
592336883,-0.000800,-0.001573,-0.000446,0.01,-0.24,9.80,37.86,0.026632,0.031958,-0.001065
592337921,-0.001866,-0.000508,0.001684,0.01,-0.24,9.81,37.89,0.025567,0.030893,0.001065
592338906,-0.002931,-0.000508,0.002749,0.01,-0.26,9.78,37.86,0.025567,0.029828,0.002131
592339915,-0.002931,0.001622,0.002749,0.03,-0.25,9.76,37.87,0.023436,0.029828,0.002131
592340924,-0.000800,0.002688,0.001684,0.02,-0.23,9.77,37.92,0.022371,0.031958,0.001065
592341931,0.002395,0.002688,0.000619,-0.01,-0.23,9.82,37.90,0.022371,0.035154,0.000000
592342967,0.002395,0.002688,-0.000446,0.00,-0.21,9.84,37.91,0.022371,0.035154,-0.001065
592343957,0.001330,0.001622,-0.000446,0.00,-0.22,9.83,37.92,0.023436,0.034089,-0.001065
592344966,0.001330,-0.001573,0.000619,0.00,-0.27,9.87,37.89,0.026632,0.034089,0.000000
592345976,0.000265,-0.002639,0.000619,-0.01,-0.23,9.86,37.89,0.027697,0.033024,0.000000
592346986,0.001330,0.000557,0.000619,-0.02,-0.21,9.83,37.90,0.024501,0.034089,0.000000
592348018,0.001330,0.002688,0.000619,0.01,-0.23,9.78,37.90,0.022371,0.034089,0.000000
592349005,0.002395,0.002688,0.000619,0.00,-0.20,9.78,37.93,0.022371,0.035154,0.000000
592350015,0.001330,0.000557,0.000619,-0.02,-0.21,9.82,37.92,0.024501,0.034089,0.000000
592351025,0.001330,-0.000508,0.002749,-0.01,-0.25,9.83,37.90,0.025567,0.034089,0.002131
592352035,0.002395,-0.000508,0.002749,-0.02,-0.26,9.78,37.93,0.025567,0.035154,0.002131
592353065,0.001330,0.000557,0.001684,-0.03,-0.25,9.78,37.91,0.024501,0.034089,0.001065
592354054,-0.000800,0.001622,-0.000446,0.00,-0.23,9.81,37.92,0.023436,0.031958,-0.001065
592355063,-0.000800,0.000557,-0.002577,0.03,-0.22,9.82,37.94,0.024501,0.031958,-0.003196
592356073,-0.001866,-0.000508,-0.001512,0.04,-0.25,9.83,37.93,0.025567,0.030893,-0.002131
592357083,-0.002931,-0.001573,-0.000446,0.04,-0.24,9.80,37.94,0.026632,0.029828,-0.001065
592358117,-0.001866,-0.002639,-0.001512,0.01,-0.22,9.83,37.93,0.027697,0.030893,-0.002131
592359101,0.001330,-0.000508,-0.001512,-0.02,-0.23,9.84,37.91,0.025567,0.034089,-0.002131
592360111,0.002395,0.001622,-0.002577,-0.01,-0.22,9.83,37.90,0.023436,0.035154,-0.003196
592361121,0.000265,0.001622,-0.000446,0.01,-0.24,9.80,37.90,0.023436,0.033024,-0.001065
592362131,-0.000800,0.001622,0.000619,-0.01,-0.26,9.79,37.91,0.023436,0.031958,0.000000
592363167,-0.000800,0.000557,0.000619,0.00,-0.25,9.79,37.90,0.024501,0.031958,0.000000
592364157,-0.000800,0.000557,0.001684,0.01,-0.28,9.76,37.87,0.024501,0.031958,0.001065
592365166,-0.000800,0.000557,0.001684,0.00,-0.28,9.73,37.90,0.024501,0.031958,0.001065
592366176,0.000265,0.001622,-0.000446,-0.01,-0.24,9.73,37.92,0.023436,0.033024,-0.001065
592367186,0.002395,0.001622,-0.001512,-0.02,-0.21,9.76,37.92,0.023436,0.035154,-0.002131
592368218,0.004526,-0.000508,-0.001512,0.00,-0.22,9.79,37.92,0.025567,0.037285,-0.002131
592369205,0.003461,-0.002639,-0.002577,-0.01,-0.23,9.81,37.92,0.027697,0.036220,-0.003196
592370215,0.003461,-0.001573,-0.003642,-0.01,-0.22,9.79,37.91,0.026632,0.036220,-0.004261
592371225,-0.000800,-0.001573,-0.002577,0.00,-0.20,9.85,37.87,0.026632,0.031958,-0.003196
592372235,-0.002931,-0.000508,-0.001512,-0.01,-0.23,9.85,37.87,0.025567,0.029828,-0.002131
592373265,-0.001866,0.000557,-0.000446,0.00,-0.28,9.79,37.89,0.024501,0.030893,-0.001065
592374254,-0.000800,0.002688,-0.001512,-0.02,-0.27,9.83,37.92,0.022371,0.031958,-0.002131
592375263,0.000265,0.000557,-0.001512,0.00,-0.24,9.85,37.93,0.024501,0.033024,-0.002131
592376273,0.001330,-0.000508,-0.001512,0.00,-0.23,9.82,37.93,0.025567,0.034089,-0.002131
592377283,0.000265,-0.000508,-0.002577,-0.01,-0.22,9.82,37.94,0.025567,0.033024,-0.003196
592378317,-0.000800,-0.000508,-0.004707,-0.01,-0.24,9.85,37.93,0.025567,0.031958,-0.005326
592379301,0.000265,-0.001573,-0.002577,-0.02,-0.28,9.85,37.90,0.026632,0.033024,-0.003196
592380311,0.000265,-0.004769,-0.000446,0.01,-0.26,9.84,37.90,0.029828,0.033024,-0.001065
592381321,-0.001866,-0.003704,0.000619,-0.01,-0.21,9.79,37.92,0.028763,0.030893,0.000000
592382331,0.000265,-0.000508,0.000619,-0.04,-0.20,9.79,37.91,0.025567,0.033024,0.000000
592383367,0.001330,0.001622,0.000619,0.01,-0.22,9.83,37.92,0.023436,0.034089,0.000000
592384357,0.003461,0.000557,-0.001512,0.01,-0.22,9.84,37.90,0.024501,0.036220,-0.002131
592385366,0.003461,0.001622,-0.002577,0.03,-0.23,9.84,37.88,0.023436,0.036220,-0.003196
592386376,0.002395,0.001622,-0.000446,0.04,-0.26,9.82,37.90,0.023436,0.035154,-0.001065
592387386,0.000265,0.002688,0.000619,0.04,-0.24,9.79,37.91,0.022371,0.033024,0.000000
592388418,0.001330,0.000557,0.002749,0.02,-0.23,9.77,37.86,0.024501,0.034089,0.002131
592389405,0.000265,-0.001573,0.003815,-0.05,-0.25,9.77,37.89,0.026632,0.033024,0.003196
592390415,-0.000800,-0.002639,0.003815,-0.05,-0.22,9.80,37.90,0.027697,0.031958,0.003196
592391425,-0.000800,-0.003704,0.003815,-0.02,-0.21,9.82,37.93,0.028763,0.031958,0.003196
592392455,-0.001866,-0.004769,0.003815,0.02,-0.24,9.82,37.92,0.029828,0.030893,0.003196
592393451,0.000265,-0.001573,0.001684,0.00,-0.23,9.81,37.87,0.026632,0.033024,0.001065
592394453,0.000265,-0.000508,-0.001512,-0.03,-0.23,9.78,37.85,0.025567,0.033024,-0.002131
592395463,0.000265,-0.000508,-0.002577,0.00,-0.25,9.83,37.90,0.025567,0.033024,-0.003196
592396473,0.000265,-0.002639,-0.001512,0.00,-0.24,9.86,37.91,0.027697,0.033024,-0.002131
592397483,-0.000800,-0.001573,0.000619,0.01,-0.20,9.80,37.93,0.026632,0.031958,0.000000
592398516,0.000265,-0.000508,0.000619,-0.02,-0.22,9.83,37.91,0.025567,0.033024,0.000000
592399501,0.000265,0.001622,-0.000446,-0.04,-0.21,9.76,37.91,0.023436,0.033024,-0.001065
592400511,0.000265,0.003753,-0.000446,0.00,-0.22,9.77,37.90,0.021306,0.033024,-0.001065
592401521,0.001330,0.003753,-0.000446,0.04,-0.21,9.82,37.88,0.021306,0.034089,-0.001065
592402557,0.001330,0.002688,0.000619,0.04,-0.22,9.76,37.90,0.022371,0.034089,0.000000
592403556,0.002395,0.001622,0.000619,0.03,-0.23,9.76,37.93,0.023436,0.035154,0.000000
592404556,0.003461,0.000557,-0.000446,-0.02,-0.20,9.81,37.88,0.024501,0.036220,-0.001065
592405566,0.001330,-0.001573,-0.000446,-0.05,-0.21,9.77,37.88,0.026632,0.034089,-0.001065
592406576,-0.000800,-0.000508,-0.002577,0.01,-0.22,9.79,37.92,0.025567,0.031958,-0.003196
592407594,0.000265,0.000557,-0.003642,0.03,-0.23,9.82,37.94,0.024501,0.033024,-0.004261
592408616,0.002395,0.002688,-0.002577,-0.02,-0.22,9.78,37.92,0.022371,0.035154,-0.003196
592409605,0.002395,0.002688,-0.000446,0.00,-0.22,9.80,37.90,0.022371,0.035154,-0.001065
592410615,0.001330,0.001622,0.001684,0.01,-0.24,9.80,37.89,0.023436,0.034089,0.001065
592411625,-0.000800,0.000557,0.000619,-0.01,-0.23,9.79,37.90,0.024501,0.031958,0.000000
592412692,-0.002947,0.001612,-0.000444,-0.01,-0.23,9.79,37.90,0.023436,0.029828,-0.001065
592413652,-0.002947,0.000547,-0.001509,0.01,-0.23,9.80,37.90,0.024501,0.029828,-0.002131
592414653,-0.001882,-0.001583,-0.001509,0.01,-0.23,9.78,37.89,0.026632,0.030893,-0.002131
592415663,0.000249,-0.002649,-0.000444,-0.01,-0.23,9.80,37.89,0.027697,0.033024,-0.001065
592416676,0.000249,-0.000518,0.001687,-0.01,-0.23,9.80,37.90,0.025567,0.033024,0.001065
592417683,0.000249,0.000547,0.003817,-0.01,-0.24,9.77,37.87,0.024501,0.033024,0.003196
592418711,-0.000816,-0.000518,0.002752,0.02,-0.24,9.79,37.88,0.025567,0.031958,0.002131
592419713,-0.000816,-0.002649,0.001687,0.05,-0.23,9.79,37.89,0.027697,0.031958,0.001065
592420718,0.000249,-0.002649,0.001687,0.03,-0.24,9.82,37.86,0.027697,0.033024,0.001065
592421731,0.001314,0.000547,0.000622,-0.01,-0.25,9.80,37.85,0.024501,0.034089,0.000000
592422772,0.001314,0.002678,-0.000444,-0.02,-0.23,9.78,37.90,0.022371,0.034089,-0.001065
592423756,0.001314,0.002678,-0.001509,-0.02,-0.24,9.81,37.93,0.022371,0.034089,-0.002131
592424771,0.001314,0.000547,-0.001509,-0.06,-0.26,9.78,37.93,0.024501,0.034089,-0.002131
592425779,0.001314,0.000547,-0.000444,-0.05,-0.23,9.82,37.93,0.024501,0.034089,-0.001065
592426790,0.001314,0.001612,-0.000444,-0.01,-0.21,9.84,37.91,0.023436,0.034089,-0.001065
592427797,0.001314,0.001612,-0.000444,-0.02,-0.24,9.80,37.92,0.023436,0.034089,-0.001065
592428824,0.002380,0.001612,-0.002574,-0.02,-0.27,9.81,37.93,0.023436,0.035154,-0.003196
592429819,0.002380,0.002678,-0.002574,0.01,-0.27,9.81,37.89,0.022371,0.035154,-0.003196
592430824,0.001314,0.002678,-0.003640,0.02,-0.27,9.80,37.86,0.022371,0.034089,-0.004261
592431833,0.001314,0.001612,-0.003640,0.01,-0.25,9.82,37.88,0.023436,0.034089,-0.004261
592432871,0.001314,-0.000518,-0.001509,-0.01,-0.26,9.79,37.91,0.025567,0.034089,-0.002131
592433851,0.000249,-0.001583,0.001687,0.00,-0.28,9.78,37.90,0.026632,0.033024,0.001065
592434869,-0.000816,0.001612,0.002752,0.01,-0.27,9.79,37.94,0.023436,0.031958,0.002131
592435866,-0.000816,0.002678,0.001687,0.01,-0.24,9.77,37.90,0.022371,0.031958,0.001065
592436877,-0.000816,0.001612,0.000622,-0.01,-0.24,9.83,37.89,0.023436,0.031958,0.000000
592437898,-0.002947,0.000547,-0.001509,-0.02,-0.23,9.91,37.89,0.024501,0.029828,-0.002131
592438895,-0.005077,0.000547,-0.002574,-0.01,-0.20,9.91,37.87,0.024501,0.027697,-0.003196
592439914,-0.005077,0.000547,-0.001509,-0.01,-0.20,9.85,37.93,0.024501,0.027697,-0.002131
592440915,-0.002947,0.001612,0.000622,-0.01,-0.23,9.83,37.95,0.023436,0.029828,0.000000
592441924,-0.000816,0.003743,0.000622,0.00,-0.23,9.84,37.92,0.021306,0.031958,0.000000
592442957,0.000249,0.004808,-0.000444,-0.01,-0.24,9.87,37.88,0.020240,0.033024,-0.001065
592443947,0.001314,0.003743,-0.000444,0.02,-0.26,9.82,37.90,0.021306,0.034089,-0.001065
592444964,0.003445,0.001612,-0.000444,0.02,-0.25,9.81,37.93,0.023436,0.036220,-0.001065
592445966,0.003445,-0.000518,-0.000444,0.00,-0.24,9.89,37.92,0.025567,0.036220,-0.001065
592446976,0.000249,0.000547,-0.000444,-0.01,-0.23,9.88,37.90,0.024501,0.033024,-0.001065
592448001,0.000249,0.001612,-0.001509,-0.01,-0.21,9.85,37.89,0.023436,0.033024,-0.002131
592448995,0.000249,0.000547,-0.000444,0.00,-0.24,9.84,37.90,0.024501,0.033024,-0.001065
592450010,0.001314,-0.000518,0.000622,0.00,-0.25,9.81,37.92,0.025567,0.034089,0.000000
592451015,0.003445,-0.000518,0.000622,-0.01,-0.23,9.79,37.92,0.025567,0.036220,0.000000
592452025,0.002380,0.000547,-0.001509,-0.01,-0.23,9.81,37.90,0.024501,0.035154,-0.002131
592453054,0.001314,0.000547,-0.001509,-0.02,-0.25,9.80,37.91,0.024501,0.034089,-0.002131
592454044,-0.001882,-0.001583,-0.001509,-0.02,-0.24,9.80,37.90,0.026632,0.030893,-0.002131
592455061,-0.004012,-0.002649,0.000622,0.05,-0.22,9.80,37.90,0.027697,0.028763,0.000000
592456063,-0.005077,0.000547,0.002752,0.07,-0.23,9.77,37.91,0.024501,0.027697,0.002131
592457073,-0.002947,0.000547,0.003817,0.04,-0.26,9.77,37.91,0.024501,0.029828,0.003196
592458098,-0.000816,-0.000518,0.000622,-0.03,-0.25,9.86,37.93,0.025567,0.031958,0.000000
592459091,0.000249,-0.000518,-0.000444,-0.04,-0.23,9.86,37.93,0.025567,0.033024,-0.001065
592460109,0.000249,0.000547,-0.001509,0.00,-0.23,9.82,37.94,0.024501,0.033024,-0.002131
592461111,0.001314,-0.000518,-0.002574,0.02,-0.25,9.81,37.94,0.025567,0.034089,-0.003196
592462121,0.002380,-0.001583,-0.002574,-0.02,-0.25,9.77,37.93,0.026632,0.035154,-0.003196
592463159,0.002380,-0.000518,-0.001509,-0.04,-0.22,9.79,37.89,0.025567,0.035154,-0.002131
592464147,0.000249,0.000547,-0.001509,0.00,-0.21,9.83,37.90,0.024501,0.033024,-0.002131
592465163,-0.001882,0.000547,-0.002574,0.00,-0.23,9.82,37.96,0.024501,0.030893,-0.003196
592466166,-0.001882,0.000547,-0.001509,-0.02,-0.23,9.80,37.93,0.024501,0.030893,-0.002131
592467176,-0.002947,0.000547,0.000622,0.01,-0.24,9.80,37.94,0.024501,0.029828,0.000000
592468201,-0.002947,0.000547,0.001687,0.01,-0.24,9.82,37.95,0.024501,0.029828,0.001065
592469195,-0.000816,0.001612,0.000622,0.00,-0.23,9.83,37.94,0.023436,0.031958,0.000000
592470210,0.000249,0.001612,0.001687,0.02,-0.22,9.82,37.91,0.023436,0.033024,0.001065
592471215,-0.001882,0.001612,0.002752,-0.03,-0.20,9.83,37.88,0.023436,0.030893,0.002131
592472225,-0.004012,0.002678,0.000622,-0.05,-0.21,9.79,37.88,0.022371,0.028763,0.000000
592473255,-0.002947,0.003743,-0.001509,-0.04,-0.23,9.79,37.95,0.021306,0.029828,-0.002131
592474244,0.000249,0.001612,-0.001509,-0.03,-0.24,9.82,37.92,0.023436,0.033024,-0.002131
592475260,0.002380,0.000547,0.000622,-0.03,-0.24,9.82,37.91,0.024501,0.035154,0.000000
592476263,0.001314,-0.000518,0.001687,-0.02,-0.24,9.82,37.87,0.025567,0.034089,0.001065
592477273,0.001314,0.000547,0.001687,-0.02,-0.20,9.77,37.87,0.024501,0.034089,0.001065
592478298,0.001314,0.002678,0.002752,-0.05,-0.20,9.80,37.89,0.022371,0.034089,0.002131
592479291,0.001314,-0.000518,0.001687,-0.02,-0.22,9.80,37.90,0.025567,0.034089,0.001065
592480310,0.000249,-0.002649,0.000622,0.01,-0.23,9.78,37.89,0.027697,0.033024,0.000000
592481311,-0.001882,-0.002649,0.000622,0.00,-0.26,9.78,37.91,0.027697,0.030893,0.000000
592482321,-0.000816,-0.001583,-0.000444,0.01,-0.26,9.76,37.93,0.026632,0.031958,-0.001065
592483357,-0.000816,-0.001583,-0.000444,0.02,-0.24,9.80,37.92,0.026632,0.031958,-0.001065
592484347,-0.001882,-0.001583,-0.000444,0.02,-0.24,9.81,37.88,0.026632,0.030893,-0.001065
592485364,-0.001882,-0.002649,-0.001509,0.00,-0.22,9.79,37.90,0.027697,0.030893,-0.002131
592486366,-0.000816,-0.001583,-0.002574,-0.02,-0.20,9.79,37.91,0.026632,0.031958,-0.003196
592487376,0.000249,-0.000518,-0.003640,0.01,-0.22,9.82,37.91,0.025567,0.033024,-0.004261
592488386,-0.000816,0.000547,-0.001509,0.03,-0.23,9.83,37.88,0.024501,0.031958,-0.002131
592489396,-0.000816,0.000547,0.001687,-0.02,-0.23,9.84,37.87,0.024501,0.031958,0.001065
592490411,0.001314,-0.000518,0.002752,-0.03,-0.25,9.86,37.89,0.025567,0.034089,0.002131
592491416,0.000249,-0.000518,0.000622,0.02,-0.25,9.79,37.92,0.025567,0.033024,0.000000
592492440,-0.000816,-0.000518,-0.001509,0.00,-0.23,9.76,37.90,0.025567,0.031958,-0.002131
592493433,-0.000816,-0.001583,-0.001509,0.00,-0.23,9.80,37.90,0.026632,0.031958,-0.002131
592494441,0.000249,-0.003714,0.000622,0.04,-0.21,9.79,37.91,0.028763,0.033024,0.000000
592495460,0.001314,-0.004779,0.001687,0.01,-0.20,9.82,37.92,0.029828,0.034089,0.001065
592496461,0.000249,-0.002649,0.001687,-0.03,-0.22,9.84,37.90,0.027697,0.033024,0.001065
592497471,-0.000816,0.002678,0.002752,-0.01,-0.22,9.83,37.90,0.022371,0.031958,0.002131
592498481,-0.000816,0.002678,0.002752,-0.02,-0.25,9.89,37.85,0.022371,0.031958,0.002131
592499491,0.000249,-0.000518,0.000622,-0.01,-0.27,9.85,37.88,0.025567,0.033024,0.000000
592500509,0.001314,-0.001583,-0.000444,0.02,-0.25,9.80,37.90,0.026632,0.034089,-0.001065
592501511,0.000249,-0.000518,0.001687,0.01,-0.24,9.80,37.90,0.025567,0.033024,0.001065
592502546,-0.000816,-0.001583,0.002752,0.00,-0.23,9.79,37.89,0.026632,0.031958,0.002131
592503537,-0.000816,-0.003714,0.000622,-0.01,-0.21,9.79,37.91,0.028763,0.031958,0.000000
592504546,0.000249,-0.002649,0.000622,-0.02,-0.21,9.81,37.89,0.027697,0.033024,0.000000
592505563,-0.000816,0.000547,-0.000444,-0.02,-0.24,9.80,37.90,0.024501,0.031958,-0.001065
592506566,-0.000816,0.000547,-0.000444,0.00,-0.24,9.81,37.93,0.024501,0.031958,-0.001065
592507576,-0.000816,-0.000518,-0.001509,0.01,-0.23,9.81,37.91,0.025567,0.031958,-0.002131
592508586,-0.001882,-0.000518,0.001687,-0.02,-0.23,9.78,37.93,0.025567,0.030893,0.001065
592509596,-0.001882,0.001612,0.003817,0.00,-0.25,9.75,37.90,0.023436,0.030893,0.003196
592510611,-0.001882,0.002678,0.001687,-0.01,-0.25,9.77,37.88,0.022371,0.030893,0.001065
592511616,-0.000816,0.000547,-0.000444,-0.03,-0.25,9.79,37.87,0.024501,0.031958,-0.001065
592512641,0.000249,-0.001583,-0.001509,0.01,-0.26,9.79,37.89,0.026632,0.033024,-0.002131
592513633,0.000249,-0.002649,-0.000444,0.00,-0.23,9.82,37.87,0.027697,0.033024,-0.001065
592514641,0.000249,-0.002649,0.001687,-0.01,-0.22,9.88,37.89,0.027697,0.033024,0.001065
592515658,0.000249,-0.001583,0.001687,0.02,-0.24,9.87,37.90,0.026632,0.033024,0.001065
592516683,0.000249,-0.002649,0.002752,0.01,-0.26,9.81,37.88,0.027697,0.033024,0.002131
592517674,0.001314,-0.001583,0.002752,0.00,-0.24,9.78,37.88,0.026632,0.034089,0.002131
592518684,0.002380,-0.000518,0.000622,-0.03,-0.23,9.77,37.88,0.025567,0.035154,0.000000
592519697,0.001314,-0.000518,-0.001509,-0.02,-0.24,9.78,37.87,0.025567,0.034089,-0.002131
592520713,0.000249,-0.001583,-0.001509,-0.02,-0.22,9.82,37.87,0.026632,0.033024,-0.002131
592521721,-0.000816,-0.000518,-0.000444,-0.02,-0.21,9.82,37.89,0.025567,0.031958,-0.001065
592522753,-0.000816,-0.000518,-0.000444,0.01,-0.21,9.78,37.93,0.025567,0.031958,-0.001065
592523748,0.001314,-0.002649,0.000622,0.00,-0.22,9.76,37.87,0.027697,0.034089,0.000000
592524756,0.002380,-0.003714,0.001687,0.00,-0.23,9.81,37.87,0.028763,0.035154,0.001065
592525782,0.002380,-0.002649,0.000622,0.01,-0.23,9.85,37.90,0.027697,0.035154,0.000000
592526775,0.001314,-0.000518,-0.000444,-0.02,-0.24,9.82,37.89,0.025567,0.034089,-0.001065
592527790,0.000249,0.003743,0.000622,-0.01,-0.25,9.79,37.92,0.021306,0.033024,0.000000
592528798,0.002380,0.003743,0.000622,0.02,-0.27,9.81,37.93,0.021306,0.035154,0.000000
592529802,0.003445,-0.000518,-0.000444,0.02,-0.24,9.78,37.93,0.025567,0.036220,-0.001065
592530822,0.000249,-0.004779,0.000622,0.02,-0.24,9.76,37.92,0.029828,0.033024,0.000000
592531824,-0.000816,-0.003714,0.000622,0.00,-0.27,9.78,37.92,0.028763,0.031958,0.000000
592532850,0.000249,0.001612,-0.001509,0.01,-0.24,9.79,37.88,0.023436,0.033024,-0.002131
592533844,0.001314,0.002678,-0.003640,0.00,-0.22,9.79,37.85,0.022371,0.034089,-0.004261
592534853,0.000249,0.001612,-0.003640,-0.02,-0.25,9.86,37.90,0.023436,0.033024,-0.004261
592535865,-0.001882,0.000547,-0.002574,-0.02,-0.25,9.89,37.90,0.024501,0.030893,-0.003196
592536865,-0.002947,-0.000518,-0.000444,0.00,-0.25,9.83,37.90,0.025567,0.029828,-0.001065
592537876,-0.002947,-0.000518,0.000622,0.01,-0.24,9.80,37.89,0.025567,0.029828,0.000000
592538882,-0.000816,0.001612,0.000622,0.04,-0.24,9.84,37.89,0.023436,0.031958,0.000000
592539895,0.000249,0.002678,0.000622,0.05,-0.25,9.84,37.89,0.022371,0.033024,0.000000
592540913,0.001314,0.002678,0.000622,0.00,-0.23,9.81,37.86,0.022371,0.034089,0.000000
592541948,0.002390,0.002674,0.001682,-0.02,-0.22,9.82,37.89,0.022371,0.035154,0.001065
592542948,0.003455,0.000543,0.000617,-0.01,-0.22,9.81,37.92,0.024501,0.036220,0.000000
592543937,0.003455,-0.000522,0.000617,0.00,-0.21,9.81,37.91,0.025567,0.036220,0.000000
592544946,0.002390,0.000543,0.000617,0.03,-0.23,9.81,37.90,0.024501,0.035154,0.000000
592545963,0.002390,0.002674,0.000617,-0.02,-0.24,9.82,37.91,0.022371,0.035154,0.000000
592546966,0.001324,-0.000522,0.000617,-0.04,-0.23,9.82,37.93,0.025567,0.034089,0.000000
592547976,0.000259,-0.004783,0.001682,-0.01,-0.23,9.83,37.92,0.029828,0.033024,0.001065
592548986,-0.001871,-0.005848,0.002747,-0.01,-0.23,9.87,37.90,0.030893,0.030893,0.002131
592549996,-0.000806,-0.003718,0.000617,0.01,-0.23,9.80,37.92,0.028763,0.031958,0.000000
592551011,0.000259,-0.001587,-0.000448,0.02,-0.24,9.79,37.91,0.026632,0.033024,-0.001065
592552016,0.000259,-0.001587,-0.001514,-0.01,-0.20,9.76,37.91,0.026632,0.033024,-0.002131
592553041,-0.000806,-0.001587,-0.000448,-0.02,-0.19,9.74,37.90,0.026632,0.031958,-0.001065
592554033,-0.000806,-0.000522,-0.000448,-0.02,-0.24,9.79,37.86,0.025567,0.031958,-0.001065
592555041,0.000259,0.001609,-0.000448,-0.01,-0.25,9.81,37.87,0.023436,0.033024,-0.001065
592556058,0.001324,0.000543,0.000617,0.00,-0.23,9.78,37.87,0.024501,0.034089,0.000000
592557061,0.003455,-0.001587,0.001682,0.01,-0.24,9.80,37.92,0.026632,0.036220,0.001065
592558071,0.002390,-0.001587,0.003813,0.01,-0.26,9.82,37.90,0.026632,0.035154,0.003196
592559081,0.000259,-0.000522,0.004878,0.01,-0.26,9.79,37.87,0.025567,0.033024,0.004261
592560091,-0.001871,0.000543,0.001682,-0.02,-0.25,9.80,37.90,0.024501,0.030893,0.001065
592561110,-0.002937,0.001609,-0.000448,-0.04,-0.24,9.81,37.93,0.023436,0.029828,-0.001065
592562111,-0.001871,0.001609,0.000617,0.01,-0.24,9.84,37.89,0.023436,0.030893,0.000000
592563145,-0.001871,0.001609,0.001682,0.02,-0.23,9.86,37.89,0.023436,0.030893,0.001065
592564137,-0.000806,0.002674,0.000617,-0.03,-0.22,9.87,37.90,0.022371,0.031958,0.000000
592565146,-0.000806,0.001609,-0.002579,-0.04,-0.22,9.90,37.92,0.023436,0.031958,-0.003196
592566164,0.000259,0.000543,-0.003644,-0.05,-0.23,9.87,37.90,0.024501,0.033024,-0.004261
592567166,0.001324,-0.000522,-0.001514,-0.03,-0.24,9.81,37.87,0.025567,0.034089,-0.002131
592568176,0.000259,0.001609,0.000617,-0.02,-0.23,9.80,37.85,0.023436,0.033024,0.000000
592569186,-0.000806,0.001609,0.000617,-0.02,-0.22,9.83,37.85,0.023436,0.031958,0.000000
592570196,0.000259,-0.000522,-0.001514,-0.01,-0.20,9.80,37.86,0.025567,0.033024,-0.002131
592571211,0.000259,-0.000522,-0.000448,0.01,-0.23,9.82,37.88,0.025567,0.033024,-0.001065
592572216,-0.000806,0.000543,0.002747,0.02,-0.26,9.81,37.90,0.024501,0.031958,0.002131
592573240,0.000259,0.001609,0.003813,-0.03,-0.24,9.74,37.89,0.023436,0.033024,0.003196
592574233,-0.001871,-0.000522,0.001682,-0.02,-0.24,9.78,37.90,0.025567,0.030893,0.001065
592575241,-0.004002,-0.001587,-0.000448,0.00,-0.25,9.83,37.87,0.026632,0.028763,-0.001065
592576260,-0.004002,0.000543,-0.001514,0.00,-0.26,9.82,37.87,0.024501,0.028763,-0.002131
592577261,0.000259,0.001609,-0.003644,-0.01,-0.24,9.78,37.87,0.023436,0.033024,-0.004261
592578271,0.001324,0.000543,-0.003644,0.00,-0.22,9.74,37.88,0.024501,0.034089,-0.004261
592579281,0.000259,-0.001587,-0.000448,0.04,-0.22,9.75,37.90,0.026632,0.033024,-0.001065
592580291,0.000259,-0.003718,0.001682,0.05,-0.21,9.77,37.91,0.028763,0.033024,0.001065
592581309,0.000259,-0.001587,0.000617,0.03,-0.22,9.77,37.89,0.026632,0.033024,0.000000
592582311,0.002390,0.000543,0.000617,0.00,-0.23,9.80,37.90,0.024501,0.035154,0.000000
592583346,0.003455,0.001609,0.000617,0.00,-0.23,9.84,37.91,0.023436,0.036220,0.000000
592584337,0.000259,0.001609,0.000617,0.00,-0.20,9.84,37.90,0.023436,0.033024,0.000000
592585346,0.000259,0.002674,0.000617,-0.03,-0.20,9.83,37.92,0.022371,0.033024,0.000000
592586363,0.000259,0.001609,-0.000448,-0.03,-0.22,9.84,37.91,0.023436,0.033024,-0.001065
592587366,-0.000806,-0.001587,-0.000448,-0.02,-0.24,9.84,37.91,0.026632,0.031958,-0.001065
592588376,-0.000806,-0.002652,-0.002579,-0.02,-0.23,9.80,37.91,0.027697,0.031958,-0.003196
592589386,0.001324,-0.000522,-0.001514,-0.01,-0.21,9.80,37.90,0.025567,0.034089,-0.002131
592590396,0.002390,0.001609,0.000617,-0.02,-0.24,9.83,37.91,0.023436,0.035154,0.000000
592591411,0.000259,0.002674,0.001682,-0.01,-0.28,9.81,37.89,0.022371,0.033024,0.001065
592592431,0.000259,0.003739,0.001682,0.01,-0.23,9.79,37.89,0.021306,0.033024,0.001065
592593423,0.001324,0.001609,0.001682,0.02,-0.19,9.83,37.88,0.023436,0.034089,0.001065
592594431,-0.000806,0.001609,-0.000448,0.00,-0.20,9.84,37.89,0.023436,0.031958,-0.001065
592595441,-0.001871,0.002674,-0.002579,0.00,-0.21,9.82,37.88,0.022371,0.030893,-0.003196
592596458,-0.001871,0.002674,-0.002579,0.00,-0.23,9.82,37.89,0.022371,0.030893,-0.003196
592597461,-0.001871,0.002674,-0.000448,-0.02,-0.24,9.78,37.89,0.022371,0.030893,-0.001065
592598471,-0.002937,0.001609,0.001682,0.00,-0.23,9.79,37.90,0.023436,0.029828,0.001065
592599481,-0.002937,-0.000522,0.000617,0.01,-0.26,9.79,37.89,0.025567,0.029828,0.000000
592600491,0.000259,-0.000522,-0.000448,0.00,-0.24,9.79,37.88,0.025567,0.033024,-0.001065
592601510,0.002390,-0.001587,-0.000448,0.00,-0.25,9.80,37.91,0.026632,0.035154,-0.001065
592602535,0.002390,-0.005848,-0.000448,-0.05,-0.21,9.82,37.88,0.030893,0.035154,-0.001065
592603527,0.000259,-0.004783,-0.000448,-0.07,-0.23,9.81,37.90,0.029828,0.033024,-0.001065
592604536,0.000259,-0.001587,0.001682,-0.01,-0.28,9.80,37.90,0.026632,0.033024,0.001065
592605546,0.001324,-0.000522,0.002747,0.01,-0.28,9.80,37.86,0.025567,0.034089,0.002131
592606564,0.000259,-0.000522,0.003813,-0.01,-0.25,9.80,37.88,0.025567,0.033024,0.003196
592607566,0.000259,-0.000522,0.003813,-0.02,-0.26,9.83,37.89,0.025567,0.033024,0.003196
592608576,0.002390,-0.001587,0.001682,0.01,-0.24,9.82,37.93,0.026632,0.035154,0.001065
592609586,0.002390,-0.000522,0.000617,0.01,-0.24,9.81,37.92,0.025567,0.035154,0.000000
592610596,0.000259,0.000543,-0.001514,-0.01,-0.27,9.85,37.93,0.024501,0.033024,-0.002131
592611611,-0.000806,0.000543,-0.001514,0.00,-0.26,9.83,37.91,0.024501,0.031958,-0.002131
592612642,0.000259,0.000543,-0.000448,-0.01,-0.25,9.79,37.89,0.024501,0.033024,-0.001065
592613623,0.003455,0.001609,0.001682,0.01,-0.24,9.82,37.86,0.023436,0.036220,0.001065
592614631,0.003455,0.002674,0.001682,0.00,-0.23,9.83,37.89,0.022371,0.036220,0.001065
592615641,0.001324,0.003739,0.001682,-0.01,-0.22,9.82,37.90,0.021306,0.034089,0.001065
592616660,-0.001871,0.002674,0.002747,0.00,-0.22,9.82,37.89,0.022371,0.030893,0.002131
592617661,-0.001871,0.000543,0.001682,0.01,-0.23,9.84,37.87,0.024501,0.030893,0.001065
592618674,-0.000806,-0.001587,0.001682,0.00,-0.26,9.80,37.88,0.026632,0.031958,0.001065
592619693,-0.000806,-0.003718,0.000617,0.00,-0.26,9.75,37.87,0.028763,0.031958,0.000000
592620696,0.000259,-0.003718,-0.000448,-0.02,-0.22,9.78,37.89,0.028763,0.033024,-0.001065
592621713,-0.000806,-0.002652,-0.001514,-0.02,-0.25,9.79,37.92,0.027697,0.031958,-0.002131
592622749,-0.002937,-0.000522,-0.001514,-0.02,-0.26,9.80,37.93,0.025567,0.029828,-0.002131
592623739,-0.001871,-0.000522,-0.001514,-0.02,-0.25,9.78,37.91,0.025567,0.030893,-0.002131
592624746,0.000259,-0.000522,-0.001514,0.00,-0.27,9.78,37.90,0.025567,0.033024,-0.002131
592625756,0.002390,-0.000522,0.000617,-0.02,-0.25,9.84,37.91,0.025567,0.035154,0.000000
592626772,0.002390,-0.001587,0.002747,-0.02,-0.23,9.85,37.89,0.026632,0.035154,0.002131
592627774,0.001324,-0.000522,0.000617,0.02,-0.24,9.86,37.91,0.025567,0.034089,0.000000
592628790,0.000259,0.000543,-0.002579,0.02,-0.23,9.86,37.93,0.024501,0.033024,-0.003196
592629797,-0.001871,0.001609,-0.003644,-0.01,-0.23,9.83,37.89,0.023436,0.030893,-0.004261
592630804,0.000259,0.001609,-0.003644,0.00,-0.23,9.83,37.90,0.023436,0.033024,-0.004261
592631819,0.001324,0.001609,-0.001514,0.00,-0.23,9.81,37.88,0.023436,0.034089,-0.002131
592632841,-0.000806,0.000543,0.000617,0.00,-0.23,9.81,37.95,0.024501,0.031958,0.000000
592633831,-0.002937,0.000543,0.001682,0.02,-0.24,9.80,37.93,0.024501,0.029828,0.001065
592634847,-0.002937,0.001609,0.001682,0.02,-0.26,9.78,37.91,0.023436,0.029828,0.001065
592635848,-0.000806,-0.000522,0.002747,-0.01,-0.23,9.79,37.91,0.025567,0.031958,0.002131
592636864,0.001324,-0.001587,0.001682,-0.01,-0.22,9.78,37.92,0.026632,0.034089,0.001065
592637865,0.002390,-0.001587,-0.001514,0.00,-0.23,9.79,37.92,0.026632,0.035154,-0.002131
592638876,0.001324,-0.002652,-0.001514,0.00,-0.22,9.80,37.91,0.027697,0.034089,-0.002131
592639882,0.000259,-0.002652,0.000617,-0.02,-0.23,9.81,37.90,0.027697,0.033024,0.000000
592640895,-0.001871,-0.002652,-0.000448,0.00,-0.24,9.79,37.89,0.027697,0.030893,-0.001065
592641914,-0.004002,-0.000522,-0.000448,0.03,-0.27,9.78,37.89,0.025567,0.028763,-0.001065
592642939,-0.002937,-0.000522,0.000617,0.02,-0.28,9.78,37.91,0.025567,0.029828,0.000000
592643929,-0.000806,0.000543,0.000617,0.03,-0.24,9.78,37.91,0.024501,0.031958,0.000000
592644936,0.001324,0.001609,-0.001514,-0.01,-0.24,9.82,37.92,0.023436,0.034089,-0.002131
592645946,0.001324,0.001609,-0.002579,0.00,-0.25,9.83,37.90,0.023436,0.034089,-0.003196
592646964,0.000259,-0.000522,-0.001514,0.02,-0.22,9.84,37.90,0.025567,0.033024,-0.002131
592647966,-0.002937,-0.003718,-0.000448,0.00,-0.21,9.81,37.91,0.028763,0.029828,-0.001065
592648976,-0.002937,-0.002652,-0.001514,0.01,-0.22,9.77,37.87,0.027697,0.029828,-0.002131
592649986,-0.000806,0.001609,0.000617,-0.03,-0.22,9.79,37.87,0.023436,0.031958,0.000000
592650996,-0.000806,0.002674,0.002747,-0.04,-0.23,9.81,37.91,0.022371,0.031958,0.002131
592652011,-0.001871,0.000543,0.002747,0.00,-0.23,9.78,37.92,0.024501,0.030893,0.002131
592653030,0.000259,-0.000522,0.003813,0.02,-0.24,9.78,37.87,0.025567,0.033024,0.003196
592654023,0.001324,-0.000522,0.004878,0.02,-0.26,9.80,37.90,0.025567,0.034089,0.004261
592655031,0.001324,-0.001587,0.003813,0.00,-0.27,9.80,37.90,0.026632,0.034089,0.003196
592656041,0.001324,-0.002652,0.000617,-0.02,-0.25,9.82,37.90,0.027697,0.034089,0.000000
592657060,0.001324,-0.001587,-0.001514,-0.01,-0.23,9.87,37.90,0.026632,0.034089,-0.002131
592658061,0.002390,-0.000522,-0.000448,-0.02,-0.21,9.85,37.90,0.025567,0.035154,-0.001065
592659071,0.003455,-0.001587,0.000617,-0.01,-0.21,9.78,37.90,0.026632,0.036220,0.000000
592660081,0.001324,-0.000522,0.000617,-0.01,-0.23,9.78,37.93,0.025567,0.034089,0.000000
592661091,0.001324,0.001609,-0.001514,0.00,-0.24,9.78,37.92,0.023436,0.034089,-0.002131
592662109,-0.000806,0.002674,-0.001514,0.00,-0.25,9.81,37.90,0.022371,0.031958,-0.002131
592663136,0.000259,0.003739,-0.000448,-0.01,-0.20,9.83,37.88,0.021306,0.033024,-0.001065
592664127,0.001324,0.002674,-0.000448,0.00,-0.17,9.82,37.88,0.022371,0.034089,-0.001065
592665136,0.002390,0.002674,-0.000448,0.01,-0.23,9.81,37.89,0.022371,0.035154,-0.001065
592666146,0.002390,0.003739,-0.000448,0.01,-0.24,9.81,37.92,0.021306,0.035154,-0.001065
592667163,0.002390,0.004805,0.002747,-0.02,-0.23,9.82,37.92,0.020240,0.035154,0.002131
592668166,0.002390,0.002674,0.002747,-0.03,-0.22,9.83,37.93,0.022371,0.035154,0.002131
592669176,0.001324,0.001609,0.000617,-0.01,-0.22,9.82,37.89,0.023436,0.034089,0.000000
592670186,0.000259,0.000543,-0.001514,0.00,-0.25,9.82,37.90,0.024501,0.033024,-0.002131
592671225,0.000238,0.000537,-0.001546,-0.03,-0.27,9.82,37.89,0.024501,0.033024,-0.002131
592672211,0.000238,0.001602,-0.001546,-0.03,-0.22,9.82,37.92,0.023436,0.033024,-0.002131
592673231,-0.000827,0.001602,-0.001546,-0.02,-0.23,9.81,37.92,0.023436,0.031958,-0.002131
592674223,0.002369,0.000537,-0.000481,-0.02,-0.23,9.81,37.88,0.024501,0.035154,-0.001065
592675231,0.003434,-0.001593,0.000585,0.01,-0.16,9.82,37.96,0.026632,0.036220,0.000000
592676241,0.001303,-0.002659,-0.000481,0.00,-0.19,9.78,37.90,0.027697,0.034089,-0.001065
592677258,-0.001893,-0.002659,-0.001546,0.00,-0.23,9.72,37.89,0.027697,0.030893,-0.002131
592678261,-0.001893,-0.002659,-0.002611,0.01,-0.23,9.68,37.91,0.027697,0.030893,-0.003196
592679271,-0.000827,-0.001593,-0.003676,0.00,-0.23,9.77,37.92,0.026632,0.031958,-0.004261
592680281,-0.001893,0.000537,-0.002611,0.00,-0.24,9.81,37.93,0.024501,0.030893,-0.003196
592681291,-0.002958,0.001602,-0.001546,0.02,-0.24,9.74,37.91,0.023436,0.029828,-0.002131
592682310,-0.001893,0.000537,-0.000481,0.01,-0.22,9.78,37.90,0.024501,0.030893,-0.001065
592683335,-0.001893,0.000537,0.000585,-0.02,-0.20,9.80,37.91,0.024501,0.030893,0.000000
592684327,-0.000827,0.000537,0.001650,0.00,-0.21,9.74,37.90,0.024501,0.031958,0.001065
592685336,-0.000827,-0.000528,0.000585,0.00,-0.24,9.76,37.87,0.025567,0.031958,0.000000
592686346,-0.000827,-0.000528,-0.000481,-0.04,-0.24,9.78,37.85,0.025567,0.031958,-0.001065
592687364,-0.001893,-0.000528,-0.000481,-0.07,-0.23,9.80,37.87,0.025567,0.030893,-0.001065
592688366,-0.000827,-0.001593,0.000585,-0.01,-0.23,9.80,37.89,0.026632,0.031958,0.000000
592689376,-0.000827,-0.001593,0.001650,0.02,-0.25,9.77,37.93,0.026632,0.031958,0.001065
592690386,-0.001893,-0.000528,0.000585,-0.01,-0.26,9.82,37.91,0.025567,0.030893,0.000000
592691396,-0.001893,-0.000528,0.001650,-0.02,-0.24,9.88,37.92,0.025567,0.030893,0.001065
592692420,0.000238,-0.002659,0.002715,-0.04,-0.20,9.85,37.92,0.027697,0.033024,0.002131
592693413,0.003434,-0.003724,0.000585,-0.03,-0.20,9.85,37.94,0.028763,0.036220,0.000000
592694421,0.003434,-0.002659,-0.001546,-0.02,-0.21,9.89,37.90,0.027697,0.036220,-0.002131
592695431,0.002369,-0.000528,-0.000481,-0.03,-0.22,9.86,37.87,0.025567,0.035154,-0.001065
592696441,0.001303,0.000537,0.000585,0.00,-0.22,9.83,37.86,0.024501,0.034089,0.000000
592697460,0.000238,-0.000528,-0.001546,-0.01,-0.23,9.84,37.90,0.025567,0.033024,-0.002131
592698461,0.000238,-0.000528,-0.001546,-0.01,-0.25,9.84,37.93,0.025567,0.033024,-0.002131
592699471,-0.000827,0.000537,0.000585,0.01,-0.24,9.82,37.93,0.024501,0.031958,0.000000
592700481,-0.001893,-0.000528,0.000585,0.00,-0.25,9.82,37.90,0.025567,0.030893,0.000000
592701491,-0.001893,-0.000528,-0.001546,0.01,-0.27,9.86,37.88,0.025567,0.030893,-0.002131
592702528,0.000238,-0.001593,-0.002611,0.00,-0.24,9.84,37.93,0.026632,0.033024,-0.003196
592703517,0.002369,-0.000528,-0.002611,-0.05,-0.22,9.81,37.91,0.025567,0.035154,-0.003196
592704526,-0.000827,0.001602,-0.004742,-0.02,-0.25,9.84,37.87,0.023436,0.031958,-0.005326
592705536,-0.000827,0.001602,-0.004742,0.00,-0.23,9.83,37.93,0.023436,0.031958,-0.005326
592706546,0.001303,0.000537,-0.004742,0.02,-0.21,9.81,37.91,0.024501,0.034089,-0.005326
592707563,0.001303,0.000537,-0.003676,-0.01,-0.22,9.78,37.88,0.024501,0.034089,-0.004261
592708566,0.000238,0.000537,-0.001546,-0.04,-0.23,9.83,37.85,0.024501,0.033024,-0.002131
592709576,0.001303,0.000537,0.000585,-0.02,-0.21,9.84,37.87,0.024501,0.034089,0.000000
592710586,0.000238,0.001602,-0.000481,0.00,-0.19,9.82,37.88,0.023436,0.033024,-0.001065
592711596,0.000238,0.002668,-0.002611,0.04,-0.22,9.82,37.88,0.022371,0.033024,-0.003196
592712621,0.001303,0.001602,-0.002611,0.03,-0.26,9.87,37.89,0.023436,0.034089,-0.003196
592713613,0.001303,0.000537,0.000585,0.00,-0.27,9.86,37.90,0.024501,0.034089,0.000000
592714621,0.000238,0.000537,0.001650,-0.01,-0.25,9.80,37.91,0.024501,0.033024,0.001065
592715631,0.000238,0.002668,0.001650,-0.01,-0.24,9.81,37.93,0.022371,0.033024,0.001065
592716641,-0.000827,0.002668,0.000585,0.01,-0.26,9.82,37.88,0.022371,0.031958,0.000000
592717658,-0.000827,0.001602,-0.002611,-0.02,-0.26,9.79,37.89,0.023436,0.031958,-0.003196
592718661,0.000238,0.000537,-0.003676,-0.04,-0.27,9.79,37.90,0.024501,0.033024,-0.004261
592719674,0.001303,0.000537,-0.001546,-0.01,-0.26,9.79,37.86,0.024501,0.034089,-0.002131
592720683,0.003434,-0.000528,-0.000481,-0.02,-0.22,9.79,37.89,0.025567,0.036220,-0.001065
592721704,0.003434,-0.001593,0.000585,-0.01,-0.23,9.78,37.93,0.026632,0.036220,0.000000
592722736,0.001303,-0.001593,0.001650,0.01,-0.25,9.80,37.91,0.026632,0.034089,0.001065
592723725,-0.000827,-0.000528,0.002715,0.02,-0.23,9.86,37.93,0.025567,0.031958,0.002131
592724739,-0.001893,-0.000528,0.001650,0.01,-0.19,9.84,37.91,0.025567,0.030893,0.001065
592725747,-0.001893,0.000537,0.000585,0.00,-0.20,9.74,37.91,0.024501,0.030893,0.000000
592726756,-0.001893,0.000537,0.000585,0.02,-0.23,9.76,37.90,0.024501,0.030893,0.000000
592727821,-0.001893,-0.000528,0.001650,0.01,-0.23,9.83,37.88,0.025567,0.030893,0.001065
592728784,0.000238,-0.000528,0.000585,0.01,-0.24,9.85,37.89,0.025567,0.033024,0.000000
592729798,-0.000827,-0.000528,0.000585,0.03,-0.23,9.81,37.87,0.025567,0.031958,0.000000
592730798,-0.001893,0.000537,-0.001546,0.04,-0.23,9.78,37.87,0.024501,0.030893,-0.002131
592731803,-0.001893,0.000537,-0.001546,0.04,-0.22,9.79,37.88,0.024501,0.030893,-0.002131
592732835,0.000238,-0.000528,-0.000481,0.02,-0.23,9.80,37.86,0.025567,0.033024,-0.001065
592733820,0.000238,-0.000528,0.001650,-0.01,-0.22,9.86,37.89,0.025567,0.033024,0.001065
592734837,0.000238,0.000537,0.001650,-0.04,-0.18,9.88,37.88,0.024501,0.033024,0.001065
592735844,0.000238,-0.000528,0.000585,-0.03,-0.19,9.84,37.88,0.025567,0.033024,0.000000
592736848,-0.000827,-0.001593,-0.000481,-0.01,-0.22,9.83,37.89,0.026632,0.031958,-0.001065
592737864,-0.000827,-0.001593,-0.002611,-0.01,-0.23,9.83,37.87,0.026632,0.031958,-0.003196
592738865,0.000238,-0.001593,-0.003676,-0.01,-0.23,9.86,37.89,0.026632,0.033024,-0.004261
592739876,0.000238,-0.001593,-0.002611,0.02,-0.23,9.85,37.88,0.026632,0.033024,-0.003196
592740882,-0.000827,0.000537,-0.001546,0.02,-0.22,9.82,37.90,0.024501,0.031958,-0.002131
592741895,-0.001893,0.001602,-0.001546,0.00,-0.21,9.83,37.86,0.023436,0.030893,-0.002131
592742932,-0.001893,0.001602,-0.000481,-0.02,-0.21,9.84,37.82,0.023436,0.030893,-0.001065
592743921,-0.000827,-0.000528,0.001650,-0.02,-0.22,9.82,37.87,0.025567,0.031958,0.001065
592744928,0.003434,-0.001593,0.002715,0.00,-0.22,9.80,37.88,0.026632,0.036220,0.002131
592745936,0.005564,-0.003724,0.002715,0.00,-0.22,9.81,37.93,0.028763,0.038350,0.002131
592746946,0.003434,-0.001593,0.001650,-0.01,-0.24,9.80,37.90,0.026632,0.036220,0.001065
592747963,0.001303,0.000537,0.000585,-0.01,-0.21,9.78,37.86,0.024501,0.034089,0.000000
592748966,0.000238,0.000537,0.000585,-0.03,-0.21,9.82,37.87,0.024501,0.033024,0.000000
592749976,-0.000827,-0.000528,0.000585,-0.03,-0.24,9.82,37.90,0.025567,0.031958,0.000000
592750986,0.000238,-0.000528,0.000585,-0.02,-0.25,9.82,37.91,0.025567,0.033024,0.000000
592751996,0.000238,0.000537,0.000585,-0.03,-0.23,9.81,37.90,0.024501,0.033024,0.000000
592753021,-0.000827,0.003733,-0.000481,-0.02,-0.22,9.79,37.93,0.021306,0.031958,-0.001065
592754013,0.000238,0.003733,0.000585,-0.02,-0.24,9.81,37.89,0.021306,0.033024,0.000000
592755021,0.002369,0.000537,0.002715,-0.01,-0.24,9.84,37.87,0.024501,0.035154,0.002131
592756031,0.003434,0.000537,0.002715,0.00,-0.23,9.86,37.89,0.024501,0.036220,0.002131
592757041,0.000238,0.000537,0.001650,-0.02,-0.22,9.82,37.87,0.024501,0.033024,0.001065
592758058,-0.002958,-0.000528,0.000585,-0.01,-0.23,9.83,37.91,0.025567,0.029828,0.000000
592759061,-0.001893,-0.000528,-0.002611,0.00,-0.25,9.86,37.93,0.025567,0.030893,-0.003196
592760071,-0.000827,-0.001593,-0.004742,-0.01,-0.22,9.82,37.88,0.026632,0.031958,-0.005326
592761081,-0.001893,-0.001593,-0.002611,0.00,-0.23,9.81,37.85,0.026632,0.030893,-0.003196
592762091,-0.001893,-0.000528,-0.000481,-0.02,-0.26,9.83,37.89,0.025567,0.030893,-0.001065
592763128,-0.000827,-0.000528,0.000585,-0.02,-0.27,9.89,37.92,0.025567,0.031958,0.000000
592764117,-0.001893,0.001602,0.000585,-0.02,-0.26,9.89,37.94,0.023436,0.030893,0.000000
592765126,-0.001893,0.003733,0.000585,-0.04,-0.24,9.80,37.90,0.021306,0.030893,0.000000
592766136,-0.001893,0.002668,0.001650,0.00,-0.23,9.76,37.92,0.022371,0.030893,0.001065
592767146,0.000238,0.000537,0.001650,-0.01,-0.24,9.81,37.87,0.024501,0.033024,0.001065
592768163,0.000238,-0.000528,0.001650,-0.01,-0.23,9.79,37.89,0.025567,0.033024,0.001065
592769166,-0.000827,-0.000528,0.001650,0.02,-0.18,9.74,37.91,0.025567,0.031958,0.001065
592770176,-0.000827,0.000537,0.002715,-0.01,-0.22,9.76,37.91,0.024501,0.031958,0.002131
592771186,0.001303,-0.000528,0.003781,0.01,-0.24,9.81,37.92,0.025567,0.034089,0.003196
592772196,0.002369,-0.000528,0.001650,0.03,-0.22,9.82,37.94,0.025567,0.035154,0.001065
592773221,0.002369,0.001602,-0.000481,0.03,-0.24,9.82,37.96,0.023436,0.035154,-0.001065
592774213,0.002369,0.003733,-0.000481,0.00,-0.23,9.81,37.95,0.021306,0.035154,-0.001065
592775221,0.002369,0.002668,0.002715,0.00,-0.22,9.79,37.92,0.022371,0.035154,0.002131
592776231,0.001303,0.000537,0.002715,0.04,-0.23,9.79,37.90,0.024501,0.034089,0.002131
592777241,0.000238,-0.000528,0.000585,0.01,-0.23,9.83,37.89,0.025567,0.033024,0.000000
592778258,-0.000827,-0.000528,-0.001546,-0.03,-0.24,9.83,37.86,0.025567,0.031958,-0.002131
592779261,0.000238,0.000537,-0.002611,-0.04,-0.25,9.83,37.89,0.024501,0.033024,-0.003196
592780271,0.000238,0.000537,-0.002611,-0.01,-0.22,9.85,37.91,0.024501,0.033024,-0.003196
592781281,0.001303,-0.000528,-0.001546,0.01,-0.23,9.83,37.93,0.025567,0.034089,-0.002131
592782291,0.003434,0.000537,-0.000481,0.00,-0.27,9.80,37.90,0.024501,0.036220,-0.001065
592783328,0.004499,0.002668,0.000585,-0.03,-0.25,9.79,37.89,0.022371,0.037285,0.000000
592784317,0.000238,0.000537,-0.000481,-0.07,-0.23,9.84,37.90,0.024501,0.033024,-0.001065
592785326,-0.001893,-0.000528,-0.001546,-0.01,-0.23,9.85,37.90,0.025567,0.030893,-0.002131
592786336,-0.000827,-0.001593,-0.002611,0.03,-0.23,9.81,37.90,0.026632,0.031958,-0.003196
592787346,0.000238,-0.002659,-0.001546,0.03,-0.24,9.78,37.92,0.027697,0.033024,-0.002131
592788363,0.000238,-0.000528,0.000585,0.01,-0.25,9.82,37.90,0.025567,0.033024,0.000000
592789366,0.000238,0.002668,0.001650,-0.01,-0.24,9.85,37.90,0.022371,0.033024,0.001065
592790376,0.001303,0.001602,0.001650,-0.02,-0.24,9.86,37.90,0.023436,0.034089,0.001065
592791386,0.001303,-0.000528,0.000585,-0.01,-0.24,9.89,37.92,0.025567,0.034089,0.000000
592792411,-0.000827,-0.001593,0.000585,0.01,-0.26,9.85,37.94,0.026632,0.031958,0.000000
592793410,-0.001893,-0.003724,0.001650,0.00,-0.26,9.82,37.93,0.028763,0.030893,0.001065
592794411,-0.000827,-0.003724,0.001650,0.00,-0.23,9.82,37.91,0.028763,0.031958,0.001065
592795421,-0.000827,-0.001593,0.000585,0.00,-0.21,9.85,37.90,0.026632,0.031958,0.000000
592796431,-0.000827,0.001602,-0.000481,-0.02,-0.21,9.86,37.90,0.023436,0.031958,-0.001065
592797441,-0.000827,0.001602,-0.000481,-0.01,-0.21,9.82,37.89,0.023436,0.031958,-0.001065
592798456,0.000238,-0.000528,-0.001546,-0.02,-0.23,9.82,37.92,0.025567,0.033024,-0.002131
592799461,-0.000827,-0.000528,-0.003676,0.00,-0.21,9.78,37.93,0.025567,0.031958,-0.004261
592800500,0.000232,0.000541,-0.002582,0.05,-0.21,9.74,37.91,0.024501,0.033024,-0.003196
592801481,0.002363,0.000541,-0.002582,0.04,-0.24,9.79,37.89,0.024501,0.035154,-0.003196
592802515,0.002363,-0.000525,-0.000452,0.00,-0.25,9.86,37.90,0.025567,0.035154,-0.001065
592803518,0.000232,-0.000525,0.000613,-0.02,-0.24,9.87,37.88,0.025567,0.033024,0.000000
592804516,-0.000833,-0.000525,0.000613,-0.03,-0.22,9.84,37.87,0.025567,0.031958,0.000000
592805526,-0.001898,-0.001590,0.001679,-0.03,-0.21,9.81,37.89,0.026632,0.030893,0.001065
592806536,-0.002963,-0.002655,0.000613,0.01,-0.25,9.82,37.91,0.027697,0.029828,0.000000
592807546,-0.002963,0.000541,-0.000452,0.00,-0.28,9.80,37.91,0.024501,0.029828,-0.001065
592808562,-0.000833,0.003736,-0.001517,0.02,-0.30,9.81,37.90,0.021306,0.031958,-0.002131
592809566,-0.000833,0.001606,-0.000452,0.04,-0.27,9.79,37.91,0.023436,0.031958,-0.001065
592810576,0.000232,-0.002655,0.000613,0.02,-0.23,9.78,37.89,0.027697,0.033024,0.000000
592811586,0.001298,-0.001590,0.001679,-0.03,-0.23,9.80,37.91,0.026632,0.034089,0.001065
592812610,0.000232,-0.000525,0.002744,-0.03,-0.23,9.81,37.90,0.025567,0.033024,0.002131
592813611,-0.000833,0.001606,0.003809,-0.01,-0.23,9.82,37.91,0.023436,0.031958,0.003196
592814611,0.000232,0.001606,0.001679,-0.01,-0.21,9.85,37.91,0.023436,0.033024,0.001065
592815621,0.001298,-0.000525,-0.000452,0.01,-0.21,9.82,37.92,0.025567,0.034089,-0.001065
592816631,0.000232,-0.001590,-0.002582,-0.02,-0.24,9.78,37.93,0.026632,0.033024,-0.003196
592817641,0.001298,-0.001590,-0.001517,-0.01,-0.26,9.81,37.94,0.026632,0.034089,-0.002131
592818656,0.002363,0.000541,-0.000452,-0.02,-0.25,9.86,37.91,0.024501,0.035154,-0.001065
592819661,0.000232,0.002671,-0.000452,-0.04,-0.23,9.84,37.90,0.022371,0.033024,-0.001065
592820674,0.000232,0.001606,-0.001517,-0.01,-0.24,9.81,37.90,0.023436,0.033024,-0.002131
592821683,0.002363,-0.000525,-0.002582,-0.04,-0.27,9.81,37.89,0.025567,0.035154,-0.003196
592822722,0.002363,-0.000525,-0.000452,-0.03,-0.28,9.80,37.89,0.025567,0.035154,-0.001065
592823763,0.001298,0.001606,0.001679,-0.01,-0.29,9.82,37.91,0.023436,0.034089,0.001065
592824730,-0.000833,0.002671,0.002744,-0.01,-0.25,9.83,37.89,0.022371,0.031958,0.002131
592825743,-0.002963,0.004802,0.001679,0.01,-0.20,9.84,37.87,0.020240,0.029828,0.001065
592826746,-0.000833,0.003736,-0.000452,0.02,-0.20,9.85,37.88,0.021306,0.031958,-0.001065
592827755,0.001298,0.002671,-0.002582,0.00,-0.21,9.82,37.94,0.022371,0.034089,-0.003196
592828772,0.001298,0.001606,-0.002582,0.00,-0.23,9.81,37.95,0.023436,0.034089,-0.003196
592829781,0.000232,-0.000525,-0.002582,0.00,-0.22,9.82,37.92,0.025567,0.033024,-0.003196
592830789,0.001298,-0.001590,-0.002582,0.00,-0.23,9.84,37.89,0.026632,0.034089,-0.003196
592831796,0.001298,-0.000525,-0.001517,0.00,-0.28,9.83,37.90,0.025567,0.034089,-0.002131
592832822,-0.000833,-0.001590,-0.001517,-0.02,-0.26,9.81,37.90,0.026632,0.031958,-0.002131
592833818,0.000232,-0.003721,-0.002582,-0.01,-0.22,9.85,37.89,0.028763,0.033024,-0.003196
592834829,0.001298,-0.002655,-0.000452,0.02,-0.23,9.83,37.91,0.027697,0.034089,-0.001065
592835830,0.001298,-0.000525,0.000613,0.02,-0.23,9.80,37.87,0.025567,0.034089,0.000000
592836845,0.001298,0.000541,0.001679,0.02,-0.21,9.83,37.91,0.024501,0.034089,0.001065
592837848,0.002363,0.001606,0.000613,0.02,-0.22,9.81,37.90,0.023436,0.035154,0.000000
592838862,-0.000833,0.001606,0.000613,0.01,-0.24,9.81,37.91,0.023436,0.031958,0.000000
592839865,-0.002963,0.000541,0.001679,0.00,-0.26,9.86,37.93,0.024501,0.029828,0.001065
592840876,-0.000833,-0.001590,0.002744,0.00,-0.25,9.89,37.92,0.026632,0.031958,0.002131
592841882,0.000232,-0.000525,0.001679,0.01,-0.25,9.86,37.91,0.025567,0.033024,0.001065
592842918,0.000232,-0.000525,-0.000452,-0.01,-0.24,9.84,37.90,0.025567,0.033024,-0.001065
592843922,0.000232,-0.002655,-0.001517,-0.02,-0.23,9.82,37.89,0.027697,0.033024,-0.002131
592844920,0.001298,-0.003721,-0.002582,-0.02,-0.23,9.84,37.93,0.028763,0.034089,-0.003196
592845928,-0.000833,-0.002655,-0.001517,-0.04,-0.21,9.90,37.98,0.027697,0.031958,-0.002131
592846936,-0.000833,-0.000525,0.001679,-0.03,-0.21,9.87,37.98,0.025567,0.031958,0.001065
592847946,-0.000833,0.002671,0.003809,-0.02,-0.25,9.79,37.96,0.022371,0.031958,0.003196
592848962,-0.000833,0.001606,0.000613,0.00,-0.27,9.78,37.93,0.023436,0.031958,0.000000
592849966,-0.000833,-0.001590,-0.002582,0.01,-0.26,9.79,37.90,0.026632,0.031958,-0.003196
592850976,0.000232,-0.002655,-0.003648,-0.01,-0.27,9.84,37.89,0.027697,0.033024,-0.004261
592851986,0.000232,-0.001590,-0.001517,-0.02,-0.27,9.87,37.90,0.026632,0.033024,-0.002131
592853010,-0.000833,0.000541,-0.000452,-0.02,-0.24,9.85,37.89,0.024501,0.031958,-0.001065
592854011,0.000232,0.000541,-0.000452,-0.02,-0.23,9.90,37.87,0.024501,0.033024,-0.001065
592855011,0.000232,-0.000525,0.001679,-0.03,-0.25,9.89,37.88,0.025567,0.033024,0.001065
592856021,-0.000833,-0.001590,0.000613,-0.04,-0.26,9.82,37.89,0.026632,0.031958,0.000000
592857031,-0.001898,-0.002655,0.000613,-0.05,-0.24,9.82,37.88,0.027697,0.030893,0.000000
592858041,0.000232,-0.004786,0.001679,-0.02,-0.23,9.84,37.91,0.029828,0.033024,0.001065
592859056,0.002363,-0.003721,0.001679,0.00,-0.24,9.84,37.91,0.028763,0.035154,0.001065
592860061,0.002363,0.000541,0.000613,0.01,-0.25,9.81,37.90,0.024501,0.035154,0.000000
592861071,0.002363,-0.000525,0.001679,0.01,-0.24,9.82,37.89,0.025567,0.035154,0.001065
592862081,0.002363,-0.002655,0.001679,0.00,-0.24,9.82,37.89,0.027697,0.035154,0.001065
592863114,0.003428,-0.002655,0.001679,0.02,-0.25,9.80,37.90,0.027697,0.036220,0.001065
592864119,0.004493,0.000541,0.000613,0.01,-0.28,9.82,37.89,0.024501,0.037285,0.000000
592865116,0.005559,0.000541,0.001679,0.00,-0.27,9.84,37.94,0.024501,0.038350,0.001065
592866126,0.005559,-0.000525,0.000613,0.01,-0.26,9.85,37.95,0.025567,0.038350,0.000000
592867136,0.002363,-0.000525,-0.001517,-0.01,-0.27,9.82,37.92,0.025567,0.035154,-0.002131
592868146,-0.000833,0.000541,-0.001517,0.00,-0.27,9.79,37.93,0.024501,0.031958,-0.002131
592869161,-0.000833,-0.000525,0.000613,0.02,-0.25,9.83,37.92,0.025567,0.031958,0.000000
592870166,0.000232,-0.001590,0.001679,-0.01,-0.24,9.83,37.88,0.026632,0.033024,0.001065
592871176,-0.000833,-0.001590,0.000613,-0.02,-0.21,9.80,37.92,0.026632,0.031958,0.000000
592872186,-0.000833,0.000541,0.000613,0.03,-0.19,9.82,37.91,0.024501,0.031958,0.000000
592873211,0.000232,0.002671,-0.000452,0.03,-0.21,9.82,37.91,0.022371,0.033024,-0.001065
592874210,0.000232,0.002671,-0.002582,-0.02,-0.20,9.81,37.91,0.022371,0.033024,-0.003196
592875211,-0.000833,0.002671,-0.003648,-0.01,-0.22,9.85,37.89,0.022371,0.031958,-0.004261
592876221,-0.000833,0.002671,-0.002582,-0.01,-0.24,9.87,37.87,0.022371,0.031958,-0.003196
592877231,-0.000833,0.002671,-0.000452,-0.01,-0.26,9.81,37.89,0.022371,0.031958,-0.001065
592878241,-0.000833,0.001606,0.001679,-0.02,-0.25,9.82,37.94,0.023436,0.031958,0.001065
592879256,-0.001898,0.000541,0.000613,-0.01,-0.23,9.83,37.93,0.024501,0.030893,0.000000
592880261,0.000232,-0.000525,0.000613,0.03,-0.25,9.73,37.91,0.025567,0.033024,0.000000
592881271,0.001298,-0.000525,0.000613,0.01,-0.27,9.74,37.91,0.025567,0.034089,0.000000
592882281,0.001298,0.000541,-0.000452,0.00,-0.26,9.80,37.89,0.024501,0.034089,-0.001065
592883315,0.001298,0.001606,0.000613,0.01,-0.25,9.81,37.87,0.023436,0.034089,0.000000
592884318,0.002363,0.002671,0.000613,0.00,-0.24,9.79,37.89,0.022371,0.035154,0.000000
592885316,0.001298,0.004802,-0.001517,-0.04,-0.20,9.80,37.89,0.020240,0.034089,-0.002131
592886326,-0.001898,0.003736,-0.003648,-0.03,-0.21,9.84,37.88,0.021306,0.030893,-0.004261
592887336,-0.001898,0.001606,-0.004713,0.00,-0.24,9.83,37.89,0.023436,0.030893,-0.005326
592888346,-0.000833,0.000541,-0.003648,-0.01,-0.26,9.85,37.88,0.024501,0.031958,-0.004261
592889362,-0.000833,-0.002655,-0.002582,-0.02,-0.25,9.84,37.91,0.027697,0.031958,-0.003196
592890366,0.001298,-0.003721,-0.000452,-0.03,-0.24,9.82,37.93,0.028763,0.034089,-0.001065
592891376,0.001298,0.000541,0.001679,0.01,-0.24,9.86,37.91,0.024501,0.034089,0.001065
592892386,-0.001898,0.004802,0.002744,0.02,-0.24,9.82,37.86,0.020240,0.030893,0.002131
592893410,-0.001898,0.004802,0.003809,-0.01,-0.26,9.79,37.87,0.020240,0.030893,0.003196
592894411,-0.000833,0.000541,0.002744,-0.01,-0.28,9.81,37.88,0.024501,0.031958,0.002131
592895411,-0.000833,-0.002655,0.001679,0.00,-0.28,9.81,37.90,0.027697,0.031958,0.001065
592896421,-0.000833,-0.004786,0.000613,0.00,-0.27,9.80,37.89,0.029828,0.031958,0.000000
592897431,-0.001898,-0.003721,-0.000452,0.03,-0.24,9.80,37.91,0.028763,0.030893,-0.001065
592898441,0.001298,-0.001590,-0.001517,0.03,-0.20,9.82,37.94,0.026632,0.034089,-0.002131
592899456,0.003428,0.000541,-0.000452,0.00,-0.18,9.82,37.93,0.024501,0.036220,-0.001065
592900461,0.002363,0.001606,-0.000452,0.00,-0.22,9.79,37.95,0.023436,0.035154,-0.001065
592901471,0.002363,0.001606,-0.000452,0.01,-0.26,9.78,37.93,0.023436,0.035154,-0.001065
592902504,0.002363,0.002671,0.000613,0.00,-0.26,9.81,37.91,0.022371,0.035154,0.000000
592903497,0.001298,0.002671,0.002744,-0.04,-0.25,9.82,37.90,0.022371,0.034089,0.002131
592904518,0.000232,0.002671,0.003809,-0.04,-0.26,9.81,37.90,0.022371,0.033024,0.003196
592905516,-0.000833,0.000541,0.002744,-0.02,-0.23,9.79,37.94,0.024501,0.031958,0.002131
592906526,-0.001898,0.000541,0.000613,-0.01,-0.22,9.79,37.93,0.024501,0.030893,0.000000
592907536,-0.000833,-0.000525,0.000613,-0.02,-0.23,9.79,37.93,0.025567,0.031958,0.000000
592908546,-0.001898,-0.002655,0.000613,-0.03,-0.22,9.79,37.90,0.027697,0.030893,0.000000
592909561,0.001298,-0.001590,-0.002582,-0.02,-0.25,9.78,37.90,0.026632,0.034089,-0.003196
592910566,0.001298,0.000541,-0.002582,-0.01,-0.23,9.82,37.93,0.024501,0.034089,-0.003196
592911576,-0.000833,0.001606,-0.001517,-0.02,-0.19,9.85,37.94,0.023436,0.031958,-0.002131
592912601,-0.000833,0.000541,0.001679,0.00,-0.20,9.87,37.95,0.024501,0.031958,0.001065
592913593,0.001298,-0.000525,0.003809,0.00,-0.24,9.84,37.94,0.025567,0.034089,0.003196
592914608,0.002363,-0.000525,0.002744,-0.02,-0.25,9.80,37.92,0.025567,0.035154,0.002131
592915611,0.002363,-0.000525,0.001679,-0.02,-0.23,9.78,37.90,0.025567,0.035154,0.001065
592916621,0.003428,0.000541,0.000613,-0.02,-0.24,9.79,37.93,0.024501,0.036220,0.000000
592917631,0.002363,0.001606,-0.000452,-0.01,-0.23,9.81,37.89,0.023436,0.035154,-0.001065
592918641,0.003428,0.001606,-0.000452,-0.01,-0.23,9.82,37.92,0.023436,0.036220,-0.001065
592919678,0.001298,0.001606,-0.001517,-0.05,-0.24,9.83,37.92,0.023436,0.034089,-0.002131
592920661,-0.000833,0.001606,-0.001517,-0.04,-0.23,9.80,37.92,0.023436,0.031958,-0.002131
592921674,-0.002963,0.001606,-0.000452,0.01,-0.25,9.79,37.92,0.023436,0.029828,-0.001065
592922711,-0.004029,0.001606,0.000613,0.00,-0.26,9.83,37.88,0.023436,0.028763,0.000000
592923704,-0.002963,0.002671,0.000613,-0.02,-0.24,9.83,37.89,0.022371,0.029828,0.000000
592924722,0.000232,0.002671,0.000613,-0.04,-0.26,9.81,37.88,0.022371,0.033024,0.000000
592925726,0.002363,0.000541,-0.001517,-0.03,-0.23,9.80,37.91,0.024501,0.035154,-0.002131
592926756,0.003428,-0.000525,-0.000452,-0.04,-0.21,9.77,37.95,0.025567,0.036220,-0.001065
592927743,0.001298,0.001606,0.001679,-0.05,-0.23,9.79,37.95,0.023436,0.034089,0.001065
592928757,0.000232,0.001606,0.002744,-0.02,-0.23,9.81,37.91,0.023436,0.033024,0.002131
592929804,0.000188,0.001581,0.000606,-0.03,-0.19,9.79,37.90,0.023436,0.033024,0.000000
592930778,0.001254,0.002646,0.000606,-0.04,-0.19,9.79,37.88,0.022371,0.034089,0.000000
592931790,0.000188,0.002646,0.000606,-0.01,-0.25,9.77,37.88,0.022371,0.033024,0.000000
592932815,-0.000877,0.000516,-0.000460,0.02,-0.28,9.76,37.89,0.024501,0.031958,-0.001065
592933798,-0.000877,-0.000550,-0.001525,0.01,-0.27,9.79,37.91,0.025567,0.031958,-0.002131
592934834,-0.000877,-0.000550,-0.001525,0.00,-0.23,9.80,37.87,0.025567,0.031958,-0.002131
592935819,0.001254,-0.001615,0.001671,0.00,-0.21,9.82,37.87,0.026632,0.034089,0.001065
592936831,0.003384,-0.000550,0.004867,-0.02,-0.19,9.86,37.86,0.025567,0.036220,0.004261
592937842,0.003384,0.000516,0.003802,0.00,-0.18,9.84,37.88,0.024501,0.036220,0.003196
592938848,0.001254,0.002646,0.000606,0.00,-0.23,9.76,37.91,0.022371,0.034089,0.000000
592939861,-0.000877,0.001581,0.000606,0.01,-0.26,9.77,37.88,0.023436,0.031958,0.000000
592940865,-0.003007,-0.000550,0.000606,-0.01,-0.24,9.80,37.89,0.025567,0.029828,0.000000
592941876,-0.004073,-0.002680,0.000606,-0.01,-0.21,9.77,37.91,0.027697,0.028763,0.000000
592942908,-0.004073,-0.002680,-0.000460,0.00,-0.20,9.78,37.91,0.027697,0.028763,-0.001065
592943901,-0.003007,-0.000550,-0.001525,-0.01,-0.22,9.85,37.91,0.025567,0.029828,-0.002131
592944922,-0.004073,-0.000550,-0.001525,-0.04,-0.25,9.83,37.94,0.025567,0.028763,-0.002131
592945920,-0.004073,-0.002680,-0.001525,-0.02,-0.22,9.80,37.90,0.027697,0.028763,-0.002131
592946928,-0.004073,-0.000550,0.000606,0.02,-0.19,9.82,37.88,0.025567,0.028763,0.000000
592947936,-0.003007,0.000516,-0.000460,0.01,-0.23,9.83,37.91,0.024501,0.029828,-0.001065
592948946,0.001254,-0.000550,-0.001525,-0.02,-0.24,9.81,37.92,0.025567,0.034089,-0.002131
592949961,0.002319,-0.001615,-0.002590,-0.02,-0.21,9.83,37.89,0.026632,0.035154,-0.003196
592950966,0.002319,-0.000550,-0.002590,-0.02,-0.20,9.85,37.92,0.025567,0.035154,-0.003196
592951976,0.002319,0.000516,-0.001525,-0.02,-0.24,9.85,37.90,0.024501,0.035154,-0.002131
592953001,0.003384,0.001581,-0.000460,-0.01,-0.24,9.82,37.89,0.023436,0.036220,-0.001065
592953993,0.002319,0.001581,0.000606,-0.03,-0.23,9.81,37.91,0.023436,0.035154,0.000000
592955008,0.000188,0.000516,0.000606,-0.04,-0.23,9.79,37.92,0.024501,0.033024,0.000000
592956011,0.001254,-0.000550,0.002736,-0.04,-0.22,9.77,37.88,0.025567,0.034089,0.002131
592957021,0.003384,0.000516,0.002736,-0.05,-0.23,9.81,37.86,0.024501,0.036220,0.002131
592958031,0.002319,0.001581,0.001671,-0.01,-0.23,9.84,37.90,0.023436,0.035154,0.001065
592959041,-0.000877,0.000516,0.000606,0.00,-0.22,9.79,37.90,0.024501,0.031958,0.000000
592960056,-0.001942,-0.001615,-0.000460,0.00,-0.23,9.78,37.90,0.026632,0.030893,-0.001065
592961061,-0.001942,-0.000550,0.000606,0.02,-0.23,9.80,37.95,0.025567,0.030893,0.000000
592962071,-0.000877,0.001581,0.002736,0.03,-0.22,9.81,37.97,0.023436,0.031958,0.002131
592963105,0.000188,0.002646,0.003802,0.00,-0.22,9.84,37.99,0.022371,0.033024,0.003196
592964097,0.001254,0.000516,0.004867,-0.05,-0.23,9.84,37.93,0.024501,0.034089,0.004261
592965117,0.000188,-0.000550,0.002736,-0.04,-0.22,9.80,37.87,0.025567,0.033024,0.002131
592966116,-0.000877,-0.000550,0.002736,-0.02,-0.21,9.82,37.87,0.025567,0.031958,0.002131
592967126,0.000188,0.000516,0.000606,-0.05,-0.23,9.84,37.92,0.024501,0.033024,0.000000
592968136,-0.000877,0.000516,-0.001525,0.00,-0.23,9.83,37.93,0.024501,0.031958,-0.002131
592969146,-0.001942,-0.000550,-0.000460,0.01,-0.21,9.82,37.89,0.025567,0.030893,-0.001065
592970162,-0.000877,0.001581,0.001671,-0.04,-0.22,9.79,37.90,0.023436,0.031958,0.001065
592971166,0.000188,0.000516,0.000606,-0.04,-0.21,9.82,37.93,0.024501,0.033024,0.000000
592972176,-0.000877,0.000516,-0.002590,-0.03,-0.22,9.82,37.94,0.024501,0.031958,-0.003196
592973200,-0.003007,0.001581,-0.003655,-0.01,-0.26,9.79,37.93,0.023436,0.029828,-0.004261
592974193,-0.004073,-0.000550,-0.003655,0.01,-0.28,9.80,37.93,0.025567,0.028763,-0.004261
592975210,-0.003007,-0.001615,-0.001525,0.01,-0.23,9.80,37.93,0.026632,0.029828,-0.002131
592976211,0.000188,-0.000550,-0.000460,0.00,-0.21,9.81,37.89,0.025567,0.033024,-0.001065
592977221,0.001254,0.001581,0.000606,-0.02,-0.25,9.77,37.90,0.023436,0.034089,0.000000
592978249,0.000188,0.001581,0.001671,-0.02,-0.27,9.77,37.87,0.023436,0.033024,0.001065
592979243,0.000188,-0.000550,0.001671,0.00,-0.26,9.78,37.89,0.025567,0.033024,0.001065
592980257,0.000188,-0.000550,0.001671,0.00,-0.23,9.74,37.90,0.025567,0.033024,0.001065
592981263,0.001254,0.000516,0.003802,0.02,-0.22,9.75,37.93,0.024501,0.034089,0.003196
592982273,0.001254,0.000516,0.003802,0.04,-0.24,9.79,37.92,0.024501,0.034089,0.003196
592983305,0.001254,0.000516,0.000606,0.02,-0.22,9.77,37.92,0.024501,0.034089,0.000000
592984296,0.001254,0.000516,-0.002590,-0.01,-0.22,9.78,37.90,0.024501,0.034089,-0.003196
592985317,0.001254,-0.000550,-0.004721,0.00,-0.24,9.82,37.91,0.025567,0.034089,-0.005326
592986315,0.001254,-0.000550,-0.002590,0.02,-0.24,9.85,37.91,0.025567,0.034089,-0.003196
592987325,0.000188,0.000516,-0.000460,0.01,-0.24,9.85,37.89,0.024501,0.033024,-0.001065
592988353,0.001254,-0.000550,0.000606,0.00,-0.21,9.80,37.91,0.025567,0.034089,0.000000
592989346,0.002319,-0.000550,0.001671,-0.02,-0.19,9.81,37.92,0.025567,0.035154,0.001065
592990361,0.001254,0.000516,0.002736,-0.04,-0.23,9.83,37.92,0.024501,0.034089,0.002131
592991366,0.002319,0.000516,0.002736,-0.01,-0.27,9.80,37.93,0.024501,0.035154,0.002131
592992376,0.003384,0.000516,0.001671,0.01,-0.25,9.82,37.90,0.024501,0.036220,0.001065
592993404,0.004449,-0.000550,0.000606,0.01,-0.25,9.82,37.92,0.025567,0.037285,0.000000
592994393,0.004449,-0.001615,0.001671,-0.01,-0.24,9.79,37.90,0.026632,0.037285,0.001065
592995408,0.000188,0.000516,0.002736,-0.02,-0.22,9.80,37.88,0.024501,0.033024,0.002131
592996411,-0.003007,0.002646,0.002736,-0.01,-0.23,9.78,37.95,0.022371,0.029828,0.002131
592997421,-0.003007,0.003711,0.000606,-0.02,-0.24,9.80,37.93,0.021306,0.029828,0.000000
592998449,-0.003007,0.004777,-0.000460,-0.04,-0.23,9.82,37.92,0.020240,0.029828,-0.001065
592999443,-0.000877,0.002646,-0.001525,-0.02,-0.22,9.89,37.91,0.022371,0.031958,-0.002131
593000457,0.001254,0.000516,-0.001525,0.00,-0.23,9.89,37.91,0.024501,0.034089,-0.002131
593001463,0.002319,-0.000550,0.000606,0.01,-0.21,9.82,37.90,0.025567,0.035154,0.000000
593002496,0.000188,-0.000550,0.000606,-0.02,-0.24,9.85,37.89,0.025567,0.033024,0.000000
593003486,-0.000877,-0.000550,-0.001525,-0.01,-0.23,9.85,37.89,0.025567,0.031958,-0.002131
593004495,-0.000877,0.001581,-0.003655,0.02,-0.20,9.80,37.91,0.023436,0.031958,-0.004261
593005516,0.000188,0.001581,-0.002590,0.03,-0.21,9.82,37.90,0.023436,0.033024,-0.003196
593006515,0.000188,0.001581,-0.002590,0.02,-0.21,9.84,37.89,0.023436,0.033024,-0.003196
593007525,-0.000877,0.001581,-0.001525,-0.01,-0.22,9.82,37.86,0.023436,0.031958,-0.002131
593008553,0.001254,0.002646,-0.000460,0.01,-0.23,9.78,37.87,0.022371,0.034089,-0.001065
593009546,0.002319,0.002646,-0.000460,0.01,-0.21,9.77,37.93,0.022371,0.035154,-0.001065
593010562,0.004449,0.003711,0.000606,-0.02,-0.25,9.81,37.90,0.021306,0.037285,0.000000
593011566,0.005515,0.001581,-0.002590,0.01,-0.27,9.78,37.89,0.023436,0.038350,-0.003196
593012593,0.004449,-0.000550,-0.003655,0.06,-0.27,9.74,37.90,0.025567,0.037285,-0.004261
593013583,0.004449,0.000516,-0.002590,0.04,-0.24,9.76,37.88,0.024501,0.037285,-0.003196
593014591,0.004449,0.001581,-0.000460,0.00,-0.22,9.76,37.90,0.023436,0.037285,-0.001065
593015610,0.003384,0.000516,0.000606,-0.01,-0.20,9.76,37.91,0.024501,0.036220,0.000000
593016611,0.003384,0.000516,-0.001525,-0.02,-0.20,9.77,37.90,0.024501,0.036220,-0.002131
593017621,0.003384,-0.001615,-0.001525,-0.01,-0.22,9.78,37.89,0.026632,0.036220,-0.002131
593018649,0.000188,-0.002680,-0.000460,-0.01,-0.23,9.77,37.86,0.027697,0.033024,-0.001065
593019643,-0.004073,0.000516,-0.000460,-0.03,-0.23,9.78,37.86,0.024501,0.028763,-0.001065
593020657,-0.004073,0.000516,0.000606,-0.04,-0.24,9.86,37.86,0.024501,0.028763,0.000000
593021663,-0.001942,0.000516,0.000606,0.00,-0.23,9.84,37.89,0.024501,0.030893,0.000000
593022703,0.000188,-0.000550,-0.000460,0.02,-0.23,9.83,37.93,0.025567,0.033024,-0.001065
593023687,0.001254,-0.002680,-0.000460,0.03,-0.25,9.85,37.90,0.027697,0.034089,-0.001065
593024703,0.000188,-0.002680,0.001671,0.03,-0.27,9.81,37.88,0.027697,0.033024,0.001065
593025725,0.000188,-0.001615,0.001671,0.00,-0.28,9.81,37.87,0.026632,0.033024,0.001065
593026722,-0.001942,-0.000550,0.001671,-0.03,-0.25,9.80,37.87,0.025567,0.030893,0.001065
593027735,-0.003007,0.000516,0.001671,-0.01,-0.23,9.80,37.91,0.024501,0.029828,0.001065
593028796,-0.003007,0.001581,-0.000460,-0.02,-0.24,9.81,37.98,0.023436,0.029828,-0.001065
593029754,-0.001942,0.002646,-0.002590,-0.03,-0.24,9.80,37.93,0.022371,0.030893,-0.003196
593030777,-0.001942,0.001581,-0.004721,0.01,-0.25,9.78,37.91,0.023436,0.030893,-0.005326
593031774,-0.001942,-0.000550,-0.005786,0.02,-0.26,9.77,37.93,0.025567,0.030893,-0.006392
593032804,-0.000877,-0.000550,-0.003655,0.01,-0.24,9.78,37.91,0.025567,0.031958,-0.004261
593033796,0.001254,-0.000550,-0.000460,-0.01,-0.24,9.78,37.90,0.025567,0.034089,-0.001065
593034806,0.002319,0.002646,0.002736,-0.02,-0.26,9.81,37.90,0.022371,0.035154,0.002131
593035817,0.000188,0.003711,0.002736,-0.01,-0.27,9.80,37.89,0.021306,0.033024,0.002131
593036820,-0.001942,0.000516,0.000606,-0.01,-0.24,9.78,37.91,0.024501,0.030893,0.000000
593037830,-0.001942,-0.000550,-0.000460,-0.01,-0.21,9.82,37.90,0.025567,0.030893,-0.001065
593038865,-0.000877,-0.000550,0.001671,0.01,-0.23,9.85,37.88,0.025567,0.031958,0.001065
593039850,0.000188,0.000516,0.001671,0.02,-0.26,9.85,37.92,0.024501,0.033024,0.001065
593040864,-0.000877,0.001581,0.001671,0.00,-0.23,9.84,37.93,0.023436,0.031958,0.001065
593041866,0.000188,0.001581,0.000606,-0.02,-0.21,9.86,37.92,0.023436,0.033024,0.000000
593042896,0.000188,-0.000550,0.000606,-0.02,-0.22,9.89,37.96,0.025567,0.033024,0.000000
593043886,-0.000877,-0.000550,0.000606,-0.01,-0.23,9.86,37.93,0.025567,0.031958,0.000000
593044899,0.000188,-0.000550,-0.000460,-0.01,-0.23,9.79,37.92,0.025567,0.033024,-0.001065
593045920,0.000188,-0.001615,-0.001525,0.00,-0.24,9.79,37.91,0.026632,0.033024,-0.002131
593046919,-0.000877,-0.001615,-0.002590,0.00,-0.23,9.76,37.94,0.026632,0.031958,-0.003196
593047945,-0.000877,0.000516,-0.002590,-0.03,-0.25,9.76,37.93,0.024501,0.031958,-0.003196
593048936,-0.000877,0.001581,-0.002590,-0.04,-0.25,9.83,37.90,0.023436,0.031958,-0.003196
593049946,-0.000877,0.000516,-0.000460,-0.02,-0.25,9.82,37.91,0.024501,0.031958,-0.001065
593050962,0.000188,0.001581,0.000606,0.01,-0.24,9.82,37.88,0.023436,0.033024,0.000000
593051966,0.001254,0.002646,0.000606,0.00,-0.23,9.86,37.89,0.022371,0.034089,0.000000
593052993,-0.000877,0.002646,0.000606,0.02,-0.25,9.85,37.91,0.022371,0.031958,0.000000
593053983,-0.003007,0.001581,-0.000460,0.02,-0.26,9.84,37.90,0.023436,0.029828,-0.001065
593054991,-0.004073,0.000516,-0.000460,0.00,-0.24,9.86,37.87,0.024501,0.028763,-0.001065
593056010,-0.003007,0.000516,0.001671,-0.03,-0.24,9.83,37.89,0.024501,0.029828,0.001065
593057011,-0.000877,0.000516,0.002736,-0.05,-0.27,9.82,37.86,0.024501,0.031958,0.002131
593058039,0.001254,-0.000550,0.001671,-0.02,-0.23,9.81,37.86,0.025567,0.034089,0.001065
593059065,0.001252,-0.000596,-0.000463,0.01,-0.22,9.79,37.89,0.025567,0.034089,-0.001065
593060043,-0.000879,-0.000596,-0.001529,0.00,-0.22,9.83,37.92,0.025567,0.031958,-0.002131
593061057,0.000187,-0.000596,-0.000463,0.02,-0.23,9.79,37.90,0.025567,0.033024,-0.001065
593062063,0.000187,0.000470,0.001667,0.02,-0.23,9.76,37.90,0.024501,0.033024,0.001065
593063095,-0.004074,0.001535,0.001667,0.00,-0.20,9.81,37.93,0.023436,0.028763,0.001065
593064086,-0.006205,0.002600,-0.000463,0.00,-0.22,9.83,37.94,0.022371,0.026632,-0.001065
593065095,-0.004074,0.002600,-0.000463,0.01,-0.22,9.82,37.91,0.022371,0.028763,-0.001065
593066117,-0.000879,0.000470,0.000602,0.02,-0.23,9.84,37.91,0.024501,0.031958,0.000000
593067115,0.000187,-0.001661,-0.000463,0.02,-0.25,9.85,37.89,0.026632,0.033024,-0.001065
593068143,0.002317,-0.002726,-0.001529,0.00,-0.26,9.83,37.86,0.027697,0.035154,-0.002131
593069136,0.002317,-0.001661,-0.002594,-0.01,-0.28,9.81,37.90,0.026632,0.035154,-0.003196
593070146,-0.000879,0.000470,-0.001529,0.01,-0.26,9.80,37.92,0.024501,0.031958,-0.002131
593071161,-0.003009,0.002600,-0.000463,0.00,-0.23,9.79,37.90,0.022371,0.029828,-0.001065
593072166,-0.000879,0.003665,-0.001529,0.00,-0.24,9.74,37.88,0.021306,0.031958,-0.002131
593073194,0.000187,0.001535,-0.000463,0.03,-0.24,9.78,37.91,0.023436,0.033024,-0.001065
593074183,0.000187,0.000470,0.000602,0.00,-0.23,9.81,37.92,0.024501,0.033024,0.000000
593075191,-0.000879,-0.001661,0.000602,-0.03,-0.21,9.79,37.91,0.026632,0.031958,0.000000
593076208,-0.001944,-0.003792,-0.000463,0.00,-0.21,9.77,37.91,0.028763,0.030893,-0.001065
593077211,-0.000879,-0.002726,-0.001529,0.02,-0.21,9.79,37.93,0.027697,0.031958,-0.002131
593078239,-0.000879,-0.000596,-0.001529,0.01,-0.21,9.85,37.94,0.025567,0.031958,-0.002131
593079233,-0.000879,-0.000596,-0.002594,0.01,-0.23,9.83,37.87,0.025567,0.031958,-0.003196
593080243,0.000187,-0.001661,-0.003659,0.01,-0.26,9.78,37.85,0.026632,0.033024,-0.004261
593081257,0.001252,-0.000596,-0.002594,0.01,-0.26,9.78,37.85,0.025567,0.034089,-0.003196
593082263,0.001252,0.000470,-0.000463,-0.01,-0.21,9.77,37.86,0.024501,0.034089,-0.001065
593083296,0.001252,-0.000596,0.000602,0.01,-0.23,9.75,37.89,0.025567,0.034089,0.000000
593084286,0.002317,-0.002726,0.000602,0.03,-0.27,9.83,37.87,0.027697,0.035154,0.000000
593085295,0.002317,-0.001661,-0.001529,0.01,-0.27,9.84,37.87,0.026632,0.035154,-0.002131
593086316,0.000187,0.000470,-0.002594,-0.01,-0.25,9.85,37.89,0.024501,0.033024,-0.003196
593087315,0.000187,0.000470,-0.002594,0.01,-0.24,9.81,37.93,0.024501,0.033024,-0.003196
593088343,0.001252,0.000470,-0.002594,-0.01,-0.23,9.76,37.96,0.024501,0.034089,-0.003196
593089336,0.003383,-0.001661,-0.001529,-0.03,-0.21,9.74,37.95,0.026632,0.036220,-0.002131
593090346,0.004448,-0.003792,-0.001529,-0.02,-0.21,9.78,37.92,0.028763,0.037285,-0.002131
593091362,0.003383,-0.003792,-0.000463,0.01,-0.23,9.80,37.91,0.028763,0.036220,-0.001065
593092366,0.000187,-0.004857,0.001667,0.01,-0.23,9.80,37.92,0.029828,0.033024,0.001065
593093393,-0.000879,-0.001661,0.000602,-0.01,-0.24,9.83,37.95,0.026632,0.031958,0.000000
593094383,-0.000879,-0.000596,-0.000463,0.01,-0.24,9.82,37.97,0.025567,0.031958,-0.001065
593095391,-0.001944,0.000470,0.001667,0.01,-0.22,9.83,37.93,0.024501,0.030893,0.001065
593096410,-0.000879,0.001535,0.003798,-0.02,-0.22,9.81,37.91,0.023436,0.031958,0.003196
593097411,-0.000879,0.001535,0.003798,0.00,-0.22,9.78,37.90,0.023436,0.031958,0.003196
593098439,-0.000879,0.001535,0.000602,0.03,-0.23,9.82,37.93,0.023436,0.031958,0.000000
593099433,0.001252,-0.000596,-0.003659,0.01,-0.23,9.85,37.92,0.025567,0.034089,-0.004261
593100443,0.000187,-0.000596,-0.002594,0.00,-0.23,9.84,37.90,0.025567,0.033024,-0.003196
593101457,-0.000879,-0.000596,0.001667,-0.01,-0.26,9.80,37.90,0.025567,0.031958,0.001065
593102485,-0.000879,-0.000596,0.001667,-0.02,-0.25,9.78,37.89,0.025567,0.031958,0.001065
593103476,0.000187,-0.000596,-0.000463,-0.02,-0.22,9.80,37.90,0.025567,0.033024,-0.001065
593104485,0.001252,-0.000596,0.000602,0.01,-0.23,9.78,37.90,0.025567,0.034089,0.000000
593105495,0.000187,0.000470,0.003798,0.03,-0.23,9.76,37.93,0.024501,0.033024,0.003196
593106517,0.000187,0.001535,0.004863,-0.01,-0.22,9.80,37.94,0.023436,0.033024,0.004261
593107515,0.001252,0.001535,0.003798,-0.02,-0.23,9.80,37.95,0.023436,0.034089,0.003196
593108543,0.001252,-0.000596,0.001667,0.00,-0.23,9.77,37.91,0.025567,0.034089,0.001065
593109536,0.001252,-0.002726,-0.000463,0.02,-0.21,9.78,37.91,0.027697,0.034089,-0.001065
593110546,-0.001944,-0.002726,0.002733,0.01,-0.19,9.82,37.94,0.027697,0.030893,0.002131
593111561,-0.003009,-0.002726,0.003798,-0.02,-0.20,9.82,37.94,0.027697,0.029828,0.003196
593112584,-0.000879,-0.001661,0.004863,-0.02,-0.23,9.87,37.92,0.026632,0.031958,0.004261
593113573,0.001252,-0.001661,0.002733,0.00,-0.23,9.93,37.92,0.026632,0.034089,0.002131
