time_us,gyro_x_rad_s,gyro_y_rad_s,gyro_z_rad_s,acc_x_m_s2,acc_y_m_s2,acc_z_m_s2,temperature_c,gyro_sensor_uncorrected_x_rad_s,gyro_sensor_uncorrected_y_rad_s,gyro_sensor_uncorrected_z_rad_s
429310727,-0.000135,0.000215,0.000087,-0.01,-0.24,9.82,33.62,0.024501,0.033024,0.000000
429311932,-0.000135,0.002345,0.002217,-0.05,-0.26,9.83,33.61,0.022371,0.033024,0.002131
429312779,-0.000135,0.001280,0.003282,-0.04,-0.26,9.83,33.66,0.023436,0.033024,0.003196
429314139,-0.001201,-0.001916,0.003282,-0.03,-0.28,9.81,33.63,0.026632,0.031958,0.003196
429315167,-0.002266,-0.002981,0.001152,0.00,-0.30,9.83,33.62,0.027697,0.030893,0.001065
429316168,-0.002266,-0.000850,-0.000979,0.02,-0.32,9.86,33.62,0.025567,0.030893,-0.001065
429317174,0.000930,0.001280,-0.000979,0.00,-0.34,9.82,33.65,0.023436,0.034089,-0.001065
429318188,0.003061,0.000215,-0.000979,0.02,-0.32,9.79,33.65,0.024501,0.036220,-0.001065
429319198,0.001995,-0.001916,0.000087,0.02,-0.30,9.79,33.66,0.026632,0.035154,0.000000
429320213,-0.000135,-0.000850,0.000087,-0.01,-0.27,9.82,33.62,0.025567,0.033024,0.000000
429321216,0.000930,0.001280,-0.002044,0.02,-0.27,9.79,33.59,0.023436,0.034089,-0.002131
429322234,0.001995,0.003411,-0.000979,0.04,-0.29,9.78,33.60,0.021306,0.035154,-0.001065
429323250,0.001995,0.002345,-0.000979,0.02,-0.27,9.82,33.60,0.022371,0.035154,-0.001065
429324245,0.001995,0.001280,-0.000979,-0.01,-0.28,9.84,33.58,0.023436,0.035154,-0.001065
429325264,0.000930,0.002345,-0.000979,0.00,-0.28,9.79,33.59,0.022371,0.034089,-0.001065
429326265,0.000930,0.001280,-0.000979,0.00,-0.25,9.77,33.60,0.023436,0.034089,-0.001065
429327275,-0.000135,-0.000850,0.000087,0.00,-0.27,9.83,33.60,0.025567,0.033024,0.000000
429328285,-0.001201,-0.000850,0.000087,0.02,-0.28,9.83,33.58,0.025567,0.031958,0.000000
429329295,-0.000135,-0.000850,-0.000979,0.02,-0.27,9.80,33.56,0.025567,0.033024,-0.001065
429330313,0.000930,0.000215,-0.000979,0.03,-0.27,9.78,33.58,0.024501,0.034089,-0.001065
429331315,0.001995,0.000215,-0.000979,0.02,-0.27,9.82,33.60,0.024501,0.035154,-0.001065
429332335,0.001995,-0.001916,-0.000979,0.01,-0.29,9.80,33.60,0.026632,0.035154,-0.001065
429333335,0.001995,-0.004046,0.000087,0.01,-0.28,9.80,33.62,0.028763,0.035154,0.000000
429334345,0.000930,-0.004046,0.001152,-0.01,-0.27,9.83,33.59,0.028763,0.034089,0.001065
429335364,-0.000135,0.000215,0.001152,0.01,-0.31,9.84,33.60,0.024501,0.033024,0.001065
429336374,-0.000135,0.003411,-0.000979,0.01,-0.35,9.87,33.63,0.021306,0.033024,-0.001065
429337375,0.000930,0.003411,-0.000979,0.01,-0.32,9.87,33.67,0.021306,0.034089,-0.001065
429338385,0.000930,0.001280,0.000087,0.04,-0.28,9.84,33.66,0.023436,0.034089,0.000000
429339395,0.000930,0.001280,0.000087,0.02,-0.29,9.80,33.65,0.023436,0.034089,0.000000
429340411,0.000930,0.002345,-0.000979,0.01,-0.30,9.77,33.61,0.022371,0.034089,-0.001065
429341415,0.000930,0.003411,0.000087,0.02,-0.28,9.80,33.64,0.021306,0.034089,0.000000
429342438,0.000930,0.001280,0.002217,0.01,-0.28,9.82,33.62,0.023436,0.034089,0.002131
429343435,-0.000135,0.000215,0.003282,0.02,-0.29,9.80,33.62,0.024501,0.033024,0.003196
429344445,-0.002266,0.000215,0.004348,0.04,-0.31,9.82,33.62,0.024501,0.030893,0.004261
429345464,-0.002266,0.001280,0.002217,0.03,-0.29,9.80,33.63,0.023436,0.030893,0.002131
429346465,-0.002266,0.001280,-0.000979,0.03,-0.26,9.77,33.65,0.023436,0.030893,-0.001065
429347475,-0.003331,0.000215,-0.003109,0.04,-0.25,9.83,33.61,0.024501,0.029828,-0.003196
429348485,-0.002266,0.000215,-0.003109,0.02,-0.29,9.84,33.58,0.024501,0.030893,-0.003196
429349495,0.000930,0.001280,-0.002044,-0.02,-0.29,9.82,33.61,0.023436,0.034089,-0.002131
429350513,0.000930,0.001280,0.001152,-0.03,-0.24,9.83,33.63,0.023436,0.034089,0.001065
429351515,-0.001201,0.001280,0.001152,0.01,-0.25,9.85,33.62,0.023436,0.031958,0.001065
429352534,-0.001201,0.003411,0.000087,0.00,-0.28,9.84,33.59,0.021306,0.031958,0.000000
429353535,-0.001201,0.002345,0.001152,-0.02,-0.29,9.82,33.62,0.022371,0.031958,0.001065
429354545,-0.002266,-0.000850,0.000087,0.00,-0.30,9.83,33.64,0.025567,0.030893,0.000000
429355564,-0.002266,-0.000850,0.000087,0.01,-0.32,9.84,33.66,0.025567,0.030893,0.000000
429356565,-0.001201,0.000215,0.001152,0.02,-0.30,9.83,33.67,0.024501,0.031958,0.001065
429357575,-0.000135,-0.000850,0.000087,0.02,-0.29,9.84,33.66,0.025567,0.033024,0.000000
429358585,-0.000135,0.000215,0.000087,0.02,-0.28,9.82,33.64,0.024501,0.033024,0.000000
429359595,-0.001201,0.002345,0.001152,0.04,-0.30,9.80,33.61,0.022371,0.031958,0.001065
429360611,-0.002266,0.002345,0.002217,0.04,-0.32,9.79,33.60,0.022371,0.030893,0.002131
429361628,-0.002266,0.000215,0.002217,0.03,-0.31,9.77,33.63,0.024501,0.030893,0.002131
429362625,-0.002266,0.001280,0.001152,0.02,-0.29,9.80,33.62,0.023436,0.030893,0.001065
429363635,-0.001201,0.003411,0.002217,0.02,-0.27,9.82,33.60,0.021306,0.031958,0.002131
429364645,-0.000135,0.003411,0.003282,0.03,-0.28,9.80,33.60,0.021306,0.033024,0.003196
429365664,0.000930,0.002345,0.002217,0.03,-0.26,9.77,33.60,0.022371,0.034089,0.002131
429366665,-0.000135,0.003411,0.000087,0.02,-0.28,9.83,33.62,0.021306,0.033024,0.000000
429367675,-0.002266,0.003411,-0.000979,0.01,-0.29,9.88,33.59,0.021306,0.030893,-0.001065
429368685,-0.001201,0.002345,0.000087,-0.02,-0.30,9.82,33.62,0.022371,0.031958,0.000000
429369695,0.001995,0.001280,0.002217,-0.02,-0.30,9.80,33.58,0.023436,0.035154,0.002131
429370713,0.004126,0.000215,0.002217,0.02,-0.29,9.84,33.61,0.024501,0.037285,0.002131
429371724,0.004126,-0.000850,0.002217,0.01,-0.30,9.87,33.60,0.025567,0.037285,0.002131
429372725,0.001995,-0.000850,0.000087,0.01,-0.30,9.89,33.60,0.025567,0.035154,0.000000
429373735,0.000930,-0.000850,-0.002044,0.01,-0.28,9.85,33.64,0.025567,0.034089,-0.002131
429374745,0.000930,-0.001916,0.000087,-0.02,-0.30,9.81,33.62,0.026632,0.034089,0.000000
429375764,0.001995,-0.002981,0.001152,0.01,-0.30,9.83,33.67,0.027697,0.035154,0.001065
429376765,-0.002266,-0.001916,-0.000979,0.02,-0.28,9.83,33.60,0.026632,0.030893,-0.001065
429377775,-0.003331,-0.000850,-0.000979,0.03,-0.29,9.84,33.59,0.025567,0.029828,-0.001065
429378785,-0.001201,0.000215,-0.002044,0.04,-0.29,9.87,33.58,0.024501,0.031958,-0.002131
429379823,0.002022,0.000218,-0.003100,0.02,-0.29,9.77,33.60,0.024501,0.035154,-0.003196
429380811,0.002022,0.000218,-0.004165,0.00,-0.31,9.71,33.58,0.024501,0.035154,-0.004261
429381827,0.000956,0.000218,-0.000969,0.00,-0.32,9.76,33.56,0.024501,0.034089,-0.001065
429382825,0.000956,-0.001913,0.002227,0.00,-0.30,9.79,33.58,0.026632,0.034089,0.002131
429383835,-0.001174,-0.000847,0.004357,-0.01,-0.28,9.83,33.59,0.025567,0.031958,0.004261
429384845,-0.001174,-0.001913,0.002227,0.01,-0.29,9.81,33.58,0.026632,0.031958,0.002131
429385864,-0.000109,0.000218,-0.000969,0.01,-0.29,9.77,33.63,0.024501,0.033024,-0.001065
429386865,-0.000109,0.001283,-0.002034,0.01,-0.31,9.81,33.63,0.023436,0.033024,-0.002131
429387875,-0.000109,0.001283,-0.000969,0.02,-0.30,9.82,33.63,0.023436,0.033024,-0.001065
429388885,0.002022,0.000218,0.000096,0.00,-0.30,9.85,33.62,0.024501,0.035154,0.000000
429389895,0.000956,0.001283,-0.000969,-0.01,-0.27,9.84,33.65,0.023436,0.034089,-0.001065
429390913,-0.000109,0.001283,-0.000969,0.02,-0.25,9.79,33.62,0.023436,0.033024,-0.001065
429391923,0.000956,0.002349,0.000096,0.03,-0.29,9.83,33.60,0.022371,0.034089,0.000000
429392925,0.003087,0.001283,0.000096,0.03,-0.28,9.83,33.62,0.023436,0.036220,0.000000
429393935,0.004152,0.001283,0.000096,0.01,-0.28,9.84,33.63,0.023436,0.037285,0.000000
429394945,0.002022,0.002349,0.000096,0.02,-0.30,9.91,33.64,0.022371,0.035154,0.000000
429395968,-0.000109,0.002349,0.001161,0.02,-0.31,9.89,33.62,0.022371,0.033024,0.001065
429396966,-0.000109,0.000218,0.002227,0.01,-0.27,9.85,33.62,0.024501,0.033024,0.002131
429397976,-0.001174,-0.000847,0.001161,0.04,-0.25,9.83,33.62,0.025567,0.031958,0.001065
429398993,-0.001174,-0.000847,-0.000969,0.01,-0.28,9.77,33.59,0.025567,0.031958,-0.001065
429400002,-0.000109,0.000218,-0.002034,0.02,-0.28,9.76,33.60,0.024501,0.033024,-0.002131
429401019,0.000956,0.001283,-0.000969,0.05,-0.28,9.77,33.62,0.023436,0.034089,-0.001065
429402036,-0.000109,0.001283,-0.000969,0.04,-0.29,9.82,33.66,0.023436,0.033024,-0.001065
429403034,-0.001174,-0.000847,0.000096,0.03,-0.32,9.85,33.60,0.025567,0.031958,0.000000
429404041,-0.002240,-0.000847,0.001161,0.01,-0.32,9.83,33.62,0.025567,0.030893,0.001065
429405064,-0.002240,0.002349,0.003292,0.02,-0.30,9.80,33.62,0.022371,0.030893,0.003196
429406075,-0.001174,0.003414,0.004357,0.04,-0.29,9.78,33.61,0.021306,0.031958,0.004261
429407075,-0.001174,0.002349,0.003292,0.06,-0.28,9.82,33.63,0.022371,0.031958,0.003196
429408087,-0.000109,0.000218,0.001161,0.03,-0.30,9.80,33.61,0.024501,0.033024,0.001065
429409097,0.000956,0.000218,-0.000969,0.03,-0.29,9.80,33.60,0.024501,0.034089,-0.001065
429410107,0.002022,0.001283,-0.000969,0.03,-0.27,9.82,33.61,0.023436,0.035154,-0.001065
429411124,0.000956,0.001283,-0.000969,0.00,-0.29,9.79,33.61,0.023436,0.034089,-0.001065
429412135,-0.000109,-0.000847,0.000096,0.04,-0.30,9.76,33.62,0.025567,0.033024,0.000000
429413133,-0.000109,-0.000847,0.001161,0.05,-0.30,9.77,33.61,0.025567,0.033024,0.001065
429414142,-0.000109,0.000218,0.000096,0.03,-0.29,9.83,33.58,0.024501,0.033024,0.000000
429415149,0.000956,0.002349,0.000096,0.01,-0.28,9.83,33.57,0.022371,0.034089,0.000000
429416168,0.002022,0.002349,0.002227,0.00,-0.32,9.80,33.59,0.022371,0.035154,0.002131
429417168,0.002022,0.001283,0.002227,0.01,-0.31,9.76,33.59,0.023436,0.035154,0.002131
429418175,0.000956,0.000218,0.002227,0.00,-0.28,9.76,33.60,0.024501,0.034089,0.002131
429419189,-0.000109,0.002349,0.003292,-0.02,-0.28,9.81,33.59,0.022371,0.033024,0.003196
429420199,-0.002240,0.003414,0.001161,-0.03,-0.26,9.80,33.60,0.021306,0.030893,0.001065
429421214,-0.002240,0.002349,-0.002034,-0.02,-0.24,9.81,33.62,0.022371,0.030893,-0.002131
429422228,-0.001174,0.001283,-0.003100,0.02,-0.28,9.86,33.60,0.023436,0.031958,-0.003196
429423225,-0.000109,0.001283,-0.000969,0.04,-0.29,9.82,33.60,0.023436,0.033024,-0.001065
429424235,-0.000109,0.002349,0.000096,0.01,-0.28,9.81,33.62,0.022371,0.033024,0.000000
429425245,-0.001174,0.002349,0.001161,0.02,-0.28,9.81,33.62,0.022371,0.031958,0.001065
429426264,-0.002240,0.001283,0.001161,0.04,-0.28,9.76,33.62,0.023436,0.030893,0.001065
429427265,-0.002240,0.000218,0.001161,0.01,-0.32,9.77,33.62,0.024501,0.030893,0.001065
429428275,-0.001174,-0.000847,0.000096,-0.01,-0.30,9.80,33.64,0.025567,0.031958,0.000000
429429285,-0.000109,-0.001913,0.000096,0.00,-0.28,9.79,33.61,0.026632,0.033024,0.000000
429430295,0.000956,-0.001913,0.001161,0.01,-0.28,9.81,33.64,0.026632,0.034089,0.001065
429431313,0.003087,-0.002978,0.001161,0.01,-0.26,9.81,33.65,0.027697,0.036220,0.001065
429432324,0.003087,-0.002978,0.001161,0.03,-0.27,9.79,33.63,0.027697,0.036220,0.001065
429433325,0.002022,-0.002978,0.002227,0.03,-0.28,9.82,33.60,0.027697,0.035154,0.002131
429434335,-0.002240,-0.000847,0.002227,0.00,-0.29,9.84,33.63,0.025567,0.030893,0.002131
429435345,-0.005435,-0.000847,-0.000969,0.03,-0.27,9.86,33.57,0.025567,0.027697,-0.001065
429436364,-0.004370,-0.000847,-0.003100,0.02,-0.25,9.85,33.58,0.025567,0.028763,-0.003196
429437365,-0.002240,0.000218,-0.002034,0.02,-0.26,9.81,33.61,0.024501,0.030893,-0.002131
429438375,-0.000109,0.001283,0.001161,0.02,-0.28,9.83,33.62,0.023436,0.033024,0.001065
429439385,-0.000109,0.000218,0.002227,0.01,-0.26,9.83,33.60,0.024501,0.033024,0.002131
429440395,-0.000109,0.000218,0.001161,0.04,-0.24,9.84,33.61,0.024501,0.033024,0.001065
429441411,-0.000109,0.000218,0.000096,0.04,-0.26,9.84,33.60,0.024501,0.033024,0.000000
429442425,-0.000109,0.000218,0.002227,0.03,-0.27,9.86,33.58,0.024501,0.033024,0.002131
429443425,0.000956,-0.001913,0.002227,-0.01,-0.28,9.82,33.62,0.026632,0.034089,0.002131
429444435,-0.000109,-0.001913,0.002227,-0.02,-0.28,9.79,33.61,0.026632,0.033024,0.002131
429445469,-0.003305,0.000218,0.001161,-0.01,-0.26,9.78,33.61,0.024501,0.029828,0.001065
429446464,-0.003305,0.004479,0.000096,0.00,-0.29,9.77,33.61,0.020240,0.029828,0.000000
429447465,-0.003305,0.003414,0.001161,0.01,-0.28,9.83,33.62,0.021306,0.029828,0.001065
429448475,-0.002240,0.000218,0.000096,-0.04,-0.25,9.83,33.62,0.024501,0.030893,0.000000
429449485,-0.000109,0.000218,-0.000969,-0.01,-0.30,9.84,33.61,0.024501,0.033024,-0.001065
429450495,0.000956,-0.000847,-0.000969,0.05,-0.32,9.85,33.62,0.025567,0.034089,-0.001065
429451513,0.000956,-0.001913,0.000096,-0.01,-0.31,9.83,33.62,0.026632,0.034089,0.000000
429452524,0.000956,0.000218,-0.000969,-0.03,-0.30,9.77,33.64,0.024501,0.034089,-0.001065
429453525,0.000956,0.004479,-0.002034,0.00,-0.33,9.74,33.61,0.020240,0.034089,-0.002131
429454535,0.002022,0.005544,-0.002034,0.03,-0.34,9.84,33.64,0.019175,0.035154,-0.002131
429455545,0.000956,0.003414,-0.003100,0.01,-0.30,9.86,33.62,0.021306,0.034089,-0.003196
429456564,-0.001174,0.000218,-0.002034,0.01,-0.29,9.82,33.63,0.024501,0.031958,-0.002131
429457565,-0.003305,-0.001913,-0.000969,0.03,-0.29,9.82,33.59,0.026632,0.029828,-0.001065
429458575,-0.003305,-0.002978,0.001161,0.00,-0.31,9.80,33.63,0.027697,0.029828,0.001065
429459585,-0.002240,-0.002978,0.001161,-0.02,-0.31,9.78,33.62,0.027697,0.030893,0.001065
429460595,-0.001174,0.001283,-0.000969,0.01,-0.29,9.80,33.60,0.023436,0.031958,-0.001065
429461611,0.000956,0.004479,-0.002034,0.02,-0.29,9.82,33.59,0.020240,0.034089,-0.002131
429462625,0.002022,0.002349,-0.000969,0.04,-0.30,9.83,33.58,0.022371,0.035154,-0.001065
429463625,0.000956,0.002349,0.000096,0.05,-0.31,9.85,33.58,0.022371,0.034089,0.000000
429464635,-0.000109,0.001283,-0.000969,0.04,-0.31,9.86,33.61,0.023436,0.033024,-0.001065
429465645,-0.002240,0.001283,0.000096,0.04,-0.28,9.84,33.60,0.023436,0.030893,0.000000
429466664,-0.002240,0.001283,0.000096,0.03,-0.28,9.81,33.59,0.023436,0.030893,0.000000
429467665,-0.000109,0.001283,0.000096,0.02,-0.28,9.81,33.60,0.023436,0.033024,0.000000
429468675,0.000956,0.001283,0.000096,0.02,-0.26,9.82,33.60,0.023436,0.034089,0.000000
429469685,-0.001174,0.001283,0.000096,0.00,-0.26,9.83,33.59,0.023436,0.031958,0.000000
429470695,-0.003305,0.001283,0.000096,-0.02,-0.28,9.82,33.59,0.023436,0.029828,0.000000
429471721,-0.002240,0.000218,-0.002034,-0.01,-0.29,9.79,33.59,0.024501,0.030893,-0.002131
429472715,0.000956,0.000218,-0.004165,0.03,-0.29,9.80,33.60,0.024501,0.034089,-0.004261
429473725,0.002022,0.000218,-0.003100,0.03,-0.28,9.84,33.61,0.024501,0.035154,-0.003196
429474735,0.004152,0.000218,0.000096,0.03,-0.28,9.84,33.64,0.024501,0.037285,0.000000
429475745,0.004152,0.000218,0.001161,0.03,-0.30,9.83,33.59,0.024501,0.037285,0.001065
429476764,0.003087,0.000218,-0.000969,-0.01,-0.26,9.79,33.63,0.024501,0.036220,-0.001065
429477765,0.004152,-0.000847,-0.000969,-0.01,-0.28,9.83,33.62,0.025567,0.037285,-0.001065
429478775,0.003087,-0.000847,0.000096,0.04,-0.30,9.86,33.58,0.025567,0.036220,0.000000
429479785,-0.000109,0.000218,0.002227,0.04,-0.30,9.84,33.61,0.024501,0.033024,0.002131
429480795,-0.000109,0.001283,0.003292,0.00,-0.28,9.84,33.62,0.023436,0.033024,0.003196
429481820,0.000956,-0.000847,0.004357,0.01,-0.28,9.84,33.61,0.025567,0.034089,0.004261
429482815,0.000956,-0.001913,0.004357,0.02,-0.28,9.79,33.58,0.026632,0.034089,0.004261
429483825,-0.000109,0.000218,0.002227,-0.01,-0.26,9.79,33.58,0.024501,0.033024,0.002131
429484835,-0.001174,0.000218,0.001161,-0.01,-0.27,9.77,33.62,0.024501,0.031958,0.001065
429485845,-0.000109,-0.001913,0.001161,0.01,-0.27,9.76,33.58,0.026632,0.033024,0.001065
429486864,0.000956,-0.004043,0.000096,-0.02,-0.26,9.82,33.59,0.028763,0.034089,0.000000
429487865,0.000956,-0.002978,-0.000969,-0.02,-0.29,9.79,33.59,0.027697,0.034089,-0.001065
429488875,0.002022,0.001283,-0.000969,-0.01,-0.29,9.74,33.58,0.023436,0.035154,-0.001065
429489885,0.002022,0.002349,-0.003100,0.01,-0.28,9.80,33.56,0.022371,0.035154,-0.003196
429490895,0.002022,0.000218,-0.003100,0.02,-0.28,9.83,33.61,0.024501,0.035154,-0.003196
429491920,-0.000109,-0.001913,-0.003100,0.03,-0.28,9.77,33.58,0.026632,0.033024,-0.003196
429492915,-0.003305,-0.001913,-0.000969,0.04,-0.28,9.80,33.56,0.026632,0.029828,-0.001065
429493925,-0.002240,-0.001913,0.000096,0.01,-0.26,9.86,33.61,0.026632,0.030893,0.000000
429494935,-0.000109,0.000218,0.001161,-0.01,-0.26,9.82,33.61,0.024501,0.033024,0.001065
429495945,-0.000109,0.001283,0.000096,-0.01,-0.27,9.80,33.61,0.023436,0.033024,0.000000
429496969,-0.003305,0.000218,0.000096,0.02,-0.26,9.81,33.61,0.024501,0.029828,0.000000
429497966,-0.004370,-0.001913,0.000096,0.00,-0.26,9.78,33.62,0.026632,0.028763,0.000000
429498978,-0.002240,-0.004043,0.000096,0.01,-0.26,9.81,33.67,0.028763,0.030893,0.000000
429499994,-0.000109,-0.002978,-0.000969,0.00,-0.26,9.82,33.62,0.027697,0.033024,-0.001065
429501002,0.002022,-0.000847,0.000096,-0.01,-0.28,9.79,33.63,0.025567,0.035154,0.000000
429502035,0.000956,0.002349,0.001161,0.00,-0.29,9.79,33.63,0.022371,0.034089,0.001065
429503022,-0.001174,0.000218,0.000096,0.00,-0.30,9.81,33.58,0.024501,0.031958,0.000000
429504035,-0.002240,-0.001913,-0.002034,0.04,-0.28,9.82,33.57,0.026632,0.030893,-0.002131
429505045,-0.001174,-0.001913,-0.002034,0.04,-0.26,9.82,33.62,0.026632,0.031958,-0.002131
429506058,0.000956,-0.000847,0.000096,0.07,-0.25,9.82,33.67,0.025567,0.034089,0.000000
429507081,0.002022,0.000218,0.000096,0.07,-0.26,9.79,33.63,0.024501,0.035154,0.000000
429508073,-0.000109,0.000218,0.000096,0.03,-0.29,9.79,33.65,0.024501,0.033024,0.000000
429509117,-0.001162,0.000185,0.000083,0.04,-0.29,9.82,33.63,0.024501,0.031958,0.000000
429510089,-0.002227,0.000185,0.000083,0.05,-0.29,9.81,33.64,0.024501,0.030893,0.000000
429511108,-0.002227,0.001250,0.000083,0.04,-0.30,9.80,33.64,0.023436,0.030893,0.000000
429512131,-0.001162,0.001250,0.001148,0.00,-0.30,9.81,33.64,0.023436,0.031958,0.001065
429513130,-0.001162,0.000185,0.002213,-0.02,-0.28,9.81,33.62,0.024501,0.031958,0.002131
429514138,-0.001162,-0.000881,0.001148,-0.03,-0.25,9.80,33.63,0.025567,0.031958,0.001065
429515141,-0.002227,-0.000881,-0.000983,0.00,-0.28,9.81,33.62,0.025567,0.030893,-0.001065
429516151,-0.001162,0.000185,-0.002048,0.05,-0.31,9.84,33.64,0.024501,0.031958,-0.002131
429517168,-0.000097,-0.001946,-0.002048,0.03,-0.28,9.82,33.60,0.026632,0.033024,-0.002131
429518168,-0.001162,-0.004076,-0.002048,0.02,-0.28,9.84,33.62,0.028763,0.031958,-0.002131
429519175,-0.003293,-0.003011,-0.000983,0.03,-0.29,9.89,33.59,0.027697,0.029828,-0.001065
429520189,-0.001162,-0.001946,-0.000983,0.03,-0.28,9.84,33.62,0.026632,0.031958,-0.001065
429521199,0.002034,-0.000881,-0.000983,0.04,-0.29,9.81,33.61,0.025567,0.035154,-0.001065
429522225,0.002034,-0.000881,-0.002048,0.04,-0.30,9.81,33.64,0.025567,0.035154,-0.002131
429523217,-0.000097,0.000185,-0.000983,0.04,-0.29,9.84,33.62,0.024501,0.033024,-0.001065
429524225,-0.000097,0.000185,0.000083,0.08,-0.27,9.85,33.60,0.024501,0.033024,0.000000
429525235,-0.000097,0.000185,0.000083,0.06,-0.25,9.83,33.61,0.024501,0.033024,0.000000
429526245,-0.000097,-0.000881,-0.000983,0.03,-0.28,9.82,33.63,0.025567,0.033024,-0.001065
429527264,-0.000097,-0.000881,-0.000983,0.01,-0.28,9.81,33.62,0.025567,0.033024,-0.001065
429528265,-0.000097,0.000185,-0.000983,-0.02,-0.27,9.80,33.64,0.024501,0.033024,-0.001065
429529275,-0.000097,0.002315,-0.002048,0.00,-0.28,9.78,33.60,0.022371,0.033024,-0.002131
429530285,0.000968,0.001250,-0.003113,0.03,-0.29,9.80,33.59,0.023436,0.034089,-0.003196
429531295,0.002034,-0.000881,-0.002048,0.02,-0.29,9.81,33.60,0.025567,0.035154,-0.002131
429532320,0.000968,0.000185,0.000083,0.00,-0.28,9.81,33.65,0.024501,0.034089,0.000000
429533315,0.000968,0.000185,-0.000983,0.01,-0.29,9.84,33.64,0.024501,0.034089,-0.001065
429534325,-0.000097,0.001250,-0.000983,0.01,-0.28,9.86,33.66,0.023436,0.033024,-0.001065
429535335,-0.001162,0.002315,0.001148,0.01,-0.27,9.85,33.62,0.022371,0.031958,0.001065
429536345,-0.000097,0.001250,0.001148,0.02,-0.24,9.84,33.65,0.023436,0.033024,0.001065
429537364,0.000968,0.000185,0.000083,0.02,-0.27,9.78,33.62,0.024501,0.034089,0.000000
429538365,0.003099,-0.001946,0.001148,-0.02,-0.30,9.77,33.60,0.026632,0.036220,0.001065
429539375,0.002034,-0.000881,0.001148,0.02,-0.28,9.79,33.59,0.025567,0.035154,0.001065
429540385,0.000968,0.000185,0.001148,0.03,-0.26,9.79,33.61,0.024501,0.034089,0.001065
429541395,0.002034,0.000185,-0.000983,0.01,-0.26,9.83,33.59,0.024501,0.035154,-0.001065
429542421,0.002034,-0.000881,-0.002048,0.02,-0.27,9.84,33.60,0.025567,0.035154,-0.002131
429543415,0.003099,-0.001946,-0.002048,0.02,-0.29,9.83,33.58,0.026632,0.036220,-0.002131
429544425,0.004164,0.000185,0.000083,0.02,-0.29,9.86,33.58,0.024501,0.037285,0.000000
429545435,0.000968,0.001250,0.001148,0.02,-0.30,9.86,33.62,0.023436,0.034089,0.001065
429546445,-0.001162,0.002315,0.003278,0.01,-0.31,9.82,33.61,0.022371,0.031958,0.003196
429547493,-0.000097,0.002315,0.001148,0.02,-0.30,9.82,33.59,0.022371,0.033024,0.001065
429548465,0.000968,0.002315,-0.000983,0.03,-0.27,9.83,33.62,0.022371,0.034089,-0.001065
429549475,-0.000097,0.002315,0.000083,0.04,-0.27,9.82,33.62,0.022371,0.033024,0.000000
429550485,-0.000097,0.003381,0.000083,0.03,-0.28,9.83,33.64,0.021306,0.033024,0.000000
429551495,0.000968,0.001250,0.000083,-0.01,-0.30,9.80,33.59,0.023436,0.034089,0.000000
429552520,0.002034,0.000185,-0.000983,-0.02,-0.30,9.76,33.60,0.024501,0.035154,-0.001065
429553515,0.000968,0.001250,-0.002048,0.03,-0.29,9.77,33.60,0.023436,0.034089,-0.002131
429554525,-0.000097,0.003381,-0.003113,0.04,-0.28,9.80,33.59,0.021306,0.033024,-0.003196
429555535,-0.001162,0.002315,-0.002048,0.01,-0.27,9.81,33.61,0.022371,0.031958,-0.002131
429556545,-0.001162,-0.000881,-0.003113,0.00,-0.29,9.83,33.60,0.025567,0.031958,-0.003196
429557564,-0.002227,-0.000881,-0.000983,0.02,-0.30,9.85,33.62,0.025567,0.030893,-0.001065
429558565,-0.001162,0.002315,0.000083,0.00,-0.31,9.81,33.62,0.022371,0.031958,0.000000
429559575,0.000968,0.002315,0.002213,-0.02,-0.33,9.77,33.56,0.022371,0.034089,0.002131
429560585,0.000968,0.000185,0.001148,-0.03,-0.32,9.83,33.56,0.024501,0.034089,0.001065
429561595,-0.000097,0.000185,0.001148,-0.02,-0.30,9.85,33.59,0.024501,0.033024,0.001065
429562621,-0.001162,0.000185,0.001148,0.00,-0.31,9.80,33.60,0.024501,0.031958,0.001065
429563615,-0.001162,0.000185,0.000083,-0.01,-0.33,9.85,33.63,0.024501,0.031958,0.000000
429564625,0.000968,0.000185,0.001148,-0.02,-0.30,9.85,33.64,0.024501,0.034089,0.001065
429565635,0.002034,-0.000881,0.001148,-0.02,-0.26,9.83,33.64,0.025567,0.035154,0.001065
429566645,-0.000097,-0.001946,0.001148,0.00,-0.28,9.82,33.61,0.026632,0.033024,0.001065
429567664,-0.003293,-0.000881,0.001148,0.00,-0.30,9.82,33.59,0.025567,0.029828,0.001065
429568665,-0.003293,0.002315,-0.000983,0.00,-0.29,9.84,33.62,0.022371,0.029828,-0.001065
429569675,-0.001162,0.003381,-0.000983,0.00,-0.29,9.82,33.61,0.021306,0.031958,-0.001065
429570685,0.002034,0.000185,-0.000983,0.04,-0.31,9.75,33.64,0.024501,0.035154,-0.001065
429571703,0.002034,-0.000881,-0.000983,0.04,-0.29,9.77,33.65,0.025567,0.035154,-0.001065
429572714,0.002034,0.001250,0.001148,0.01,-0.28,9.84,33.65,0.023436,0.035154,0.001065
429573715,-0.000097,0.004446,0.001148,0.00,-0.28,9.81,33.64,0.020240,0.033024,0.001065
429574725,-0.001162,0.005511,0.001148,-0.01,-0.29,9.77,33.62,0.019175,0.031958,0.001065
429575735,-0.002227,0.004446,0.001148,-0.01,-0.30,9.81,33.62,0.020240,0.030893,0.001065
429576745,-0.001162,0.003381,-0.000983,0.06,-0.31,9.85,33.59,0.021306,0.031958,-0.001065
429577763,-0.000097,-0.000881,-0.002048,0.03,-0.28,9.81,33.60,0.025567,0.033024,-0.002131
429578765,-0.000097,-0.000881,-0.000983,-0.01,-0.28,9.80,33.60,0.025567,0.033024,-0.001065
429579775,0.000968,0.000185,0.001148,-0.01,-0.28,9.83,33.63,0.024501,0.034089,0.001065
429580785,-0.001162,0.000185,0.002213,0.01,-0.27,9.84,33.64,0.024501,0.031958,0.002131
429581807,-0.003293,-0.000881,0.002213,0.03,-0.26,9.80,33.64,0.025567,0.029828,0.002131
429582812,-0.003293,-0.000881,0.000083,0.02,-0.26,9.79,33.65,0.025567,0.029828,0.000000
429583815,-0.003293,-0.001946,-0.000983,0.01,-0.28,9.85,33.60,0.026632,0.029828,-0.001065
429584825,-0.001162,-0.000881,0.000083,0.02,-0.31,9.87,33.61,0.025567,0.031958,0.000000
429585835,0.000968,0.001250,0.002213,0.00,-0.31,9.85,33.63,0.023436,0.034089,0.002131
429586845,-0.000097,0.003381,0.002213,0.01,-0.29,9.86,33.62,0.021306,0.033024,0.002131
429587863,-0.002227,0.003381,0.001148,0.03,-0.28,9.83,33.64,0.021306,0.030893,0.001065
429588865,-0.003293,0.000185,0.000083,0.02,-0.27,9.77,33.60,0.024501,0.029828,0.000000
429589875,-0.001162,-0.003011,0.001148,0.03,-0.26,9.78,33.62,0.027697,0.031958,0.001065
429590885,-0.000097,-0.004076,0.000083,0.01,-0.28,9.81,33.62,0.028763,0.033024,0.000000
429591903,-0.000097,-0.004076,-0.000983,-0.01,-0.29,9.81,33.58,0.028763,0.033024,-0.001065
429592914,-0.000097,-0.001946,-0.000983,0.01,-0.29,9.81,33.56,0.026632,0.033024,-0.001065
429593915,-0.000097,0.000185,0.001148,0.02,-0.28,9.82,33.62,0.024501,0.033024,0.001065
429594925,-0.000097,-0.000881,0.002213,-0.02,-0.29,9.79,33.62,0.025567,0.033024,0.002131
429595935,-0.001162,-0.001946,0.001148,-0.02,-0.32,9.79,33.60,0.026632,0.031958,0.001065
429596945,-0.001162,-0.001946,-0.000983,0.03,-0.31,9.81,33.60,0.026632,0.031958,-0.001065
429597967,-0.000097,-0.000881,-0.000983,0.01,-0.28,9.81,33.60,0.025567,0.033024,-0.001065
429598966,0.000968,-0.000881,0.001148,0.00,-0.30,9.80,33.56,0.025567,0.034089,0.001065
429599976,0.000968,-0.000881,0.002213,0.00,-0.31,9.77,33.57,0.025567,0.034089,0.002131
429600993,-0.000097,-0.000881,0.001148,0.00,-0.29,9.79,33.63,0.025567,0.033024,0.001065
429602013,-0.000097,-0.000881,0.000083,0.00,-0.28,9.80,33.62,0.025567,0.033024,0.000000
429603020,0.002034,-0.000881,0.000083,0.02,-0.30,9.83,33.63,0.025567,0.035154,0.000000
429604030,0.002034,0.000185,-0.000983,0.02,-0.30,9.85,33.62,0.024501,0.035154,-0.001065
429605034,0.002034,0.000185,-0.002048,0.00,-0.29,9.84,33.65,0.024501,0.035154,-0.002131
429606041,-0.000097,-0.000881,-0.002048,0.00,-0.26,9.85,33.60,0.025567,0.033024,-0.002131
429607059,-0.001162,0.000185,-0.000983,0.00,-0.25,9.83,33.63,0.024501,0.031958,-0.001065
429608076,-0.002227,0.001250,0.000083,-0.01,-0.25,9.81,33.65,0.023436,0.030893,0.000000
429609075,-0.002227,-0.000881,0.000083,0.00,-0.28,9.77,33.62,0.025567,0.030893,0.000000
429610088,-0.002227,-0.004076,-0.000983,0.01,-0.30,9.78,33.62,0.028763,0.030893,-0.001065
429611095,-0.000097,-0.004076,0.000083,0.02,-0.31,9.76,33.61,0.028763,0.033024,0.000000
429612119,0.000968,-0.003011,0.000083,0.01,-0.32,9.82,33.60,0.027697,0.034089,0.000000
429613127,0.000968,-0.001946,0.000083,-0.01,-0.31,9.86,33.62,0.026632,0.034089,0.000000
429614126,-0.000097,-0.000881,-0.000983,0.01,-0.34,9.79,33.64,0.025567,0.033024,-0.001065
429615137,-0.000097,-0.001946,0.000083,0.02,-0.32,9.80,33.63,0.026632,0.033024,0.000000
429616141,0.002034,-0.003011,0.000083,0.03,-0.30,9.79,33.65,0.027697,0.035154,0.000000
429617151,0.002034,-0.001946,0.000083,0.04,-0.29,9.78,33.63,0.026632,0.035154,0.000000
429618167,0.003099,-0.001946,0.000083,0.00,-0.29,9.77,33.61,0.026632,0.036220,0.000000
429619168,0.002034,-0.001946,0.000083,-0.03,-0.28,9.76,33.60,0.026632,0.035154,0.000000
429620175,-0.001162,-0.000881,0.000083,0.01,-0.28,9.80,33.65,0.025567,0.031958,0.000000
429621189,-0.002227,0.000185,0.000083,0.03,-0.30,9.84,33.65,0.024501,0.030893,0.000000
429622210,-0.000097,0.000185,0.000083,0.01,-0.33,9.83,33.66,0.024501,0.033024,0.000000
429623216,-0.001162,0.000185,0.000083,-0.03,-0.30,9.82,33.67,0.024501,0.031958,0.000000
429624217,-0.002227,0.001250,0.001148,-0.02,-0.27,9.81,33.65,0.023436,0.030893,0.001065
429625225,-0.002227,0.004446,-0.000983,0.03,-0.28,9.78,33.65,0.020240,0.030893,-0.001065
429626235,-0.001162,0.003381,0.000083,0.01,-0.30,9.78,33.64,0.021306,0.031958,0.000000
429627245,0.000968,0.000185,0.000083,0.02,-0.30,9.80,33.61,0.024501,0.034089,0.000000
429628263,-0.000097,-0.004076,0.001148,0.03,-0.28,9.83,33.59,0.028763,0.033024,0.001065
429629265,-0.000097,-0.006207,0.001148,0.01,-0.28,9.85,33.60,0.030893,0.033024,0.001065
429630275,0.002034,-0.004076,0.001148,0.00,-0.30,9.86,33.65,0.028763,0.035154,0.001065
429631285,0.004164,-0.001946,0.000083,0.02,-0.32,9.80,33.63,0.026632,0.037285,0.000000
429632304,0.002034,-0.003011,-0.002048,0.02,-0.28,9.78,33.61,0.027697,0.035154,-0.002131
429633314,-0.001162,-0.003011,-0.000983,-0.02,-0.25,9.83,33.63,0.027697,0.031958,-0.001065
429634315,-0.004358,0.000185,0.001148,-0.01,-0.26,9.85,33.64,0.024501,0.028763,0.001065
429635325,-0.005423,0.000185,0.001148,0.00,-0.27,9.82,33.60,0.024501,0.027697,0.001065
429636335,-0.003293,-0.000881,-0.000983,0.01,-0.26,9.78,33.60,0.025567,0.029828,-0.001065
429637345,-0.002227,0.001250,-0.002048,0.02,-0.23,9.77,33.63,0.023436,0.030893,-0.002131
429638386,-0.002203,0.001269,-0.000973,0.02,-0.23,9.77,33.65,0.023436,0.030893,-0.001065
429639365,-0.001137,0.000204,0.000093,0.03,-0.24,9.81,33.65,0.024501,0.031958,0.000000
429640375,0.000993,0.000204,0.002223,0.04,-0.27,9.82,33.65,0.024501,0.034089,0.002131
429641385,0.003124,0.001269,0.001158,0.01,-0.30,9.79,33.67,0.023436,0.036220,0.001065
429642405,0.003124,0.002334,0.000093,-0.02,-0.27,9.80,33.64,0.022371,0.036220,0.000000
429643438,0.000993,0.003399,0.000093,-0.01,-0.26,9.80,33.61,0.021306,0.034089,0.000000
429644415,-0.001137,0.002334,0.001158,0.00,-0.28,9.78,33.63,0.022371,0.031958,0.001065
429645425,-0.002203,0.001269,0.001158,0.02,-0.30,9.82,33.64,0.023436,0.030893,0.001065
429646435,-0.000072,0.000204,0.001158,0.04,-0.30,9.85,33.58,0.024501,0.033024,0.001065
429647445,-0.000072,0.000204,0.001158,0.02,-0.29,9.89,33.59,0.024501,0.033024,0.001065
429648463,-0.000072,-0.001927,0.001158,0.00,-0.32,9.85,33.62,0.026632,0.033024,0.001065
429649465,0.000993,-0.001927,0.000093,-0.01,-0.29,9.86,33.61,0.026632,0.034089,0.000000
429650485,0.002058,-0.000862,0.000093,0.00,-0.30,9.87,33.65,0.025567,0.035154,0.000000
429651485,-0.000072,0.001269,0.000093,0.00,-0.31,9.81,33.61,0.023436,0.033024,0.000000
429652504,-0.000072,0.003399,0.001158,-0.01,-0.26,9.81,33.60,0.021306,0.033024,0.001065
429653514,0.000993,0.003399,0.002223,0.01,-0.26,9.81,33.61,0.021306,0.034089,0.002131
429654515,0.000993,0.002334,0.002223,0.05,-0.29,9.82,33.64,0.022371,0.034089,0.002131
429655525,0.000993,0.000204,0.000093,0.04,-0.31,9.81,33.63,0.024501,0.034089,0.000000
429656535,-0.000072,0.000204,-0.000973,-0.02,-0.32,9.79,33.63,0.024501,0.033024,-0.001065
429657545,-0.001137,-0.000862,0.000093,-0.02,-0.30,9.82,33.62,0.025567,0.031958,0.000000
429658563,-0.002203,-0.004058,0.000093,0.01,-0.29,9.83,33.60,0.028763,0.030893,0.000000
429659565,-0.001137,-0.006188,0.000093,0.01,-0.29,9.82,33.62,0.030893,0.031958,0.000000
429660575,0.000993,-0.001927,0.000093,-0.02,-0.30,9.85,33.65,0.026632,0.034089,0.000000
429661585,-0.000072,0.001269,-0.002038,-0.01,-0.30,9.86,33.63,0.023436,0.033024,-0.002131
429662605,-0.001137,-0.000862,-0.000973,-0.02,-0.29,9.85,33.61,0.025567,0.031958,-0.001065
429663612,-0.001137,-0.001927,-0.000973,-0.03,-0.30,9.84,33.60,0.026632,0.031958,-0.001065
429664615,-0.000072,-0.004058,-0.003103,-0.01,-0.28,9.79,33.61,0.028763,0.033024,-0.003196
429665625,0.000993,-0.002992,-0.002038,0.00,-0.26,9.81,33.62,0.027697,0.034089,-0.002131
429666635,0.002058,0.000204,0.000093,0.01,-0.28,9.87,33.62,0.024501,0.035154,0.000000
429667645,0.002058,0.002334,0.001158,0.01,-0.31,9.83,33.59,0.022371,0.035154,0.001065
429668663,0.002058,0.003399,-0.000973,0.01,-0.32,9.85,33.58,0.021306,0.035154,-0.001065
429669665,0.002058,0.005530,-0.003103,0.02,-0.29,9.87,33.62,0.019175,0.035154,-0.003196
429670675,-0.000072,0.005530,-0.002038,0.04,-0.28,9.86,33.64,0.019175,0.033024,-0.002131
429671694,-0.002203,0.002334,0.000093,0.03,-0.27,9.83,33.62,0.022371,0.030893,0.000000
429672695,-0.002203,0.000204,0.001158,0.00,-0.27,9.86,33.61,0.024501,0.030893,0.001065
429673714,-0.002203,-0.000862,0.000093,0.01,-0.30,9.84,33.65,0.025567,0.030893,0.000000
429674715,-0.002203,-0.000862,0.001158,0.01,-0.31,9.81,33.65,0.025567,0.030893,0.001065
429675725,-0.000072,-0.000862,0.001158,0.00,-0.32,9.86,33.63,0.025567,0.033024,0.001065
429676735,0.000993,0.001269,0.001158,0.01,-0.33,9.84,33.61,0.023436,0.034089,0.001065
429677745,0.000993,0.001269,0.002223,0.00,-0.31,9.78,33.62,0.023436,0.034089,0.002131
429678763,-0.000072,0.000204,0.001158,0.03,-0.26,9.81,33.62,0.024501,0.033024,0.001065
429679765,-0.001137,0.000204,0.000093,0.02,-0.27,9.82,33.62,0.024501,0.031958,0.000000
429680775,-0.001137,0.000204,0.001158,0.03,-0.29,9.81,33.60,0.024501,0.031958,0.001065
429681795,-0.002203,-0.001927,0.002223,0.01,-0.29,9.78,33.59,0.026632,0.030893,0.002131
429682795,-0.000072,-0.001927,0.002223,-0.01,-0.29,9.81,33.60,0.026632,0.033024,0.002131
429683812,0.000993,0.000204,0.003289,0.00,-0.27,9.85,33.65,0.024501,0.034089,0.003196
429684815,0.000993,0.002334,0.002223,0.01,-0.27,9.81,33.66,0.022371,0.034089,0.002131
429685825,-0.001137,0.001269,0.002223,0.01,-0.29,9.81,33.62,0.023436,0.031958,0.002131
429686835,-0.001137,0.000204,0.002223,0.02,-0.30,9.85,33.64,0.024501,0.031958,0.002131
429687845,0.002058,0.000204,0.002223,0.01,-0.30,9.85,33.58,0.024501,0.035154,0.002131
429688863,0.002058,0.000204,0.000093,-0.02,-0.30,9.81,33.60,0.024501,0.035154,0.000000
429689865,0.000993,0.001269,0.000093,-0.01,-0.31,9.80,33.60,0.023436,0.034089,0.000000
429690875,-0.000072,0.001269,0.000093,0.01,-0.30,9.82,33.59,0.023436,0.033024,0.000000
429691894,0.000993,0.002334,0.001158,-0.01,-0.29,9.85,33.61,0.022371,0.034089,0.001065
429692895,-0.000072,0.001269,0.002223,0.01,-0.28,9.82,33.58,0.023436,0.033024,0.002131
429693914,0.000993,0.002334,0.001158,0.04,-0.27,9.84,33.61,0.022371,0.034089,0.001065
429694915,0.002058,0.002334,-0.000973,0.04,-0.29,9.85,33.59,0.022371,0.035154,-0.001065
429695925,0.002058,0.002334,-0.002038,0.04,-0.30,9.81,33.63,0.022371,0.035154,-0.002131
429696935,0.002058,0.002334,0.000093,0.02,-0.30,9.82,33.68,0.022371,0.035154,0.000000
429697945,0.002058,0.000204,0.001158,0.02,-0.30,9.86,33.65,0.024501,0.035154,0.001065
429698968,0.000993,-0.000862,0.002223,0.02,-0.29,9.88,33.64,0.025567,0.034089,0.002131
429699966,0.000993,-0.001927,0.002223,-0.01,-0.28,9.83,33.65,0.026632,0.034089,0.002131
429700978,-0.000072,-0.000862,0.001158,0.01,-0.28,9.81,33.59,0.025567,0.033024,0.001065
429702001,-0.001137,-0.000862,0.001158,0.03,-0.27,9.83,33.59,0.025567,0.031958,0.001065
429703002,-0.000072,-0.001927,0.002223,0.02,-0.27,9.84,33.60,0.026632,0.033024,0.002131
429704019,0.000993,-0.004058,0.002223,-0.01,-0.28,9.81,33.60,0.028763,0.034089,0.002131
429705022,0.003124,-0.001927,0.003289,0.00,-0.28,9.79,33.61,0.026632,0.036220,0.003196
429706035,0.000993,0.001269,0.002223,0.01,-0.29,9.81,33.64,0.023436,0.034089,0.002131
429707040,-0.000072,0.003399,0.001158,0.01,-0.29,9.82,33.65,0.021306,0.033024,0.001065
429708059,0.002058,0.004465,0.001158,0.02,-0.28,9.84,33.65,0.020240,0.035154,0.001065
429709075,0.002058,0.003399,0.000093,0.01,-0.28,9.81,33.64,0.021306,0.035154,0.000000
429710076,0.000993,-0.000862,-0.000973,0.01,-0.28,9.82,33.66,0.025567,0.034089,-0.001065
429711088,-0.000072,-0.000862,0.000093,0.02,-0.26,9.83,33.62,0.025567,0.033024,0.000000
429712105,0.000993,0.001269,-0.000973,0.01,-0.27,9.79,33.59,0.023436,0.034089,-0.001065
429713108,0.000993,0.001269,-0.003103,0.02,-0.28,9.80,33.60,0.023436,0.034089,-0.003196
429714126,-0.001137,0.000204,-0.003103,0.02,-0.27,9.82,33.57,0.024501,0.031958,-0.003196
429715125,-0.000072,-0.001927,0.000093,0.00,-0.26,9.82,33.60,0.026632,0.033024,0.000000
429716139,0.000993,-0.001927,0.001158,0.00,-0.27,9.83,33.60,0.026632,0.034089,0.001065
429717141,-0.001137,-0.001927,0.000093,0.02,-0.28,9.81,33.63,0.026632,0.031958,0.000000
429718151,-0.001137,-0.001927,-0.002038,0.01,-0.30,9.80,33.64,0.026632,0.031958,-0.002131
429719167,-0.001137,-0.002992,-0.003103,0.02,-0.32,9.81,33.62,0.027697,0.031958,-0.003196
429720168,-0.002203,-0.001927,-0.002038,0.03,-0.31,9.80,33.61,0.026632,0.030893,-0.002131
429721175,-0.003268,0.001269,-0.000973,0.04,-0.28,9.82,33.64,0.023436,0.029828,-0.001065
429722199,-0.001137,0.003399,-0.000973,0.03,-0.28,9.77,33.64,0.021306,0.031958,-0.001065
429723199,0.000993,0.002334,-0.000973,0.03,-0.29,9.79,33.57,0.022371,0.034089,-0.001065
429724216,-0.000072,0.001269,-0.000973,0.04,-0.27,9.88,33.57,0.023436,0.033024,-0.001065
429725217,-0.000072,0.001269,-0.002038,0.01,-0.30,9.88,33.59,0.023436,0.033024,-0.002131
429726225,0.000993,0.001269,-0.003103,0.00,-0.30,9.86,33.60,0.023436,0.034089,-0.003196
429727235,0.002058,0.000204,-0.003103,0.02,-0.26,9.84,33.58,0.024501,0.035154,-0.003196
429728245,0.003124,0.001269,-0.002038,0.00,-0.24,9.84,33.61,0.023436,0.036220,-0.002131
429729290,0.003124,0.004465,-0.000973,0.02,-0.28,9.83,33.61,0.020240,0.036220,-0.001065
429730304,0.000993,0.004465,-0.000973,0.04,-0.29,9.83,33.58,0.020240,0.034089,-0.001065
429731288,-0.001137,0.002334,-0.000973,0.01,-0.31,9.85,33.56,0.022371,0.031958,-0.001065
429732294,-0.001137,0.002334,-0.002038,0.01,-0.32,9.83,33.57,0.022371,0.031958,-0.002131
429733295,-0.001137,0.001269,0.000093,0.02,-0.31,9.81,33.64,0.023436,0.031958,0.000000
429734314,-0.000072,0.001269,0.000093,-0.01,-0.30,9.82,33.65,0.023436,0.033024,0.000000
429735315,-0.001137,0.001269,0.000093,-0.01,-0.29,9.81,33.64,0.023436,0.031958,0.000000
429736325,-0.001137,0.001269,0.000093,0.01,-0.31,9.80,33.64,0.023436,0.031958,0.000000
429737335,-0.002203,0.002334,0.000093,0.00,-0.31,9.81,33.63,0.022371,0.030893,0.000000
429738345,-0.002203,0.001269,0.000093,0.00,-0.31,9.78,33.64,0.023436,0.030893,0.000000
429739363,-0.000072,0.000204,0.000093,0.02,-0.28,9.77,33.63,0.024501,0.033024,0.000000
429740365,0.000993,-0.000862,0.000093,0.03,-0.24,9.80,33.60,0.025567,0.034089,0.000000
429741375,0.002058,-0.000862,-0.002038,0.00,-0.29,9.82,33.61,0.025567,0.035154,-0.002131
429742395,0.003124,0.001269,-0.000973,0.00,-0.32,9.79,33.63,0.023436,0.036220,-0.001065
429743395,0.003124,0.003399,0.001158,-0.01,-0.28,9.78,33.64,0.021306,0.036220,0.001065
429744412,0.000993,0.004465,0.001158,-0.01,-0.27,9.80,33.64,0.020240,0.034089,0.001065
429745415,-0.002203,0.002334,0.001158,0.02,-0.28,9.82,33.63,0.022371,0.030893,0.001065
429746425,-0.001137,0.001269,0.000093,0.00,-0.29,9.82,33.60,0.023436,0.031958,0.000000
429747435,0.000993,0.001269,-0.000973,-0.02,-0.29,9.79,33.62,0.023436,0.034089,-0.001065
429748445,0.003124,0.000204,-0.000973,-0.01,-0.27,9.82,33.61,0.024501,0.036220,-0.001065
429749463,0.000993,0.000204,0.000093,0.00,-0.26,9.87,33.59,0.024501,0.034089,0.000000
429750465,-0.002203,0.002334,-0.000973,0.01,-0.25,9.82,33.60,0.022371,0.030893,-0.001065
429751475,-0.002203,0.002334,0.000093,-0.01,-0.27,9.76,33.61,0.022371,0.030893,0.000000
429752540,-0.001137,-0.000862,-0.000973,0.00,-0.28,9.76,33.59,0.025567,0.031958,-0.001065
429753495,0.000993,-0.002992,0.000093,0.01,-0.26,9.78,33.60,0.027697,0.034089,0.000000
429754514,0.000993,-0.000862,0.002223,0.01,-0.27,9.84,33.62,0.025567,0.034089,0.002131
429755515,0.000993,0.002334,0.002223,0.02,-0.24,9.82,33.61,0.022371,0.034089,0.002131
429756525,0.003124,0.001269,0.003289,0.02,-0.23,9.81,33.65,0.023436,0.036220,0.003196
429757535,0.003124,0.001269,0.002223,0.02,-0.27,9.82,33.69,0.023436,0.036220,0.002131
429758545,0.002058,0.000204,0.000093,0.01,-0.29,9.80,33.64,0.024501,0.035154,0.000000
429759563,-0.000072,-0.000862,0.000093,0.03,-0.27,9.81,33.63,0.025567,0.033024,0.000000
429760565,-0.002203,-0.000862,0.001158,0.04,-0.30,9.82,33.62,0.025567,0.030893,0.001065
429761575,-0.002203,0.000204,0.002223,0.04,-0.31,9.82,33.59,0.024501,0.030893,0.002131
429762595,0.000993,-0.000862,0.002223,0.05,-0.30,9.79,33.62,0.025567,0.034089,0.002131
429763595,0.000993,0.001269,0.002223,0.03,-0.30,9.82,33.63,0.023436,0.034089,0.002131
429764612,-0.000072,0.003399,0.001158,0.02,-0.28,9.83,33.61,0.021306,0.033024,0.001065
429765615,-0.001137,0.005530,-0.000973,0.01,-0.27,9.78,33.62,0.019175,0.031958,-0.001065
429766625,-0.001137,0.004465,0.001158,0.01,-0.29,9.80,33.59,0.020240,0.031958,0.001065
429767659,-0.000103,0.003316,0.002190,0.01,-0.27,9.86,33.59,0.021306,0.033024,0.002131
429768645,0.000963,0.002251,0.002190,0.01,-0.27,9.86,33.60,0.022371,0.034089,0.002131
429769663,0.000963,0.001185,0.001125,0.00,-0.26,9.82,33.64,0.023436,0.034089,0.001065
429770665,-0.000103,0.000120,0.001125,0.02,-0.27,9.84,33.66,0.024501,0.033024,0.001065
429771683,-0.000103,0.000120,0.001125,0.04,-0.30,9.86,33.62,0.024501,0.033024,0.001065
429772685,-0.002233,-0.000945,0.001125,0.04,-0.30,9.83,33.61,0.025567,0.030893,0.001065
429773695,-0.004364,0.000120,0.002190,0.01,-0.28,9.81,33.63,0.024501,0.028763,0.002131
429774714,-0.001168,0.003316,0.002190,0.02,-0.29,9.81,33.65,0.021306,0.031958,0.002131
429775715,0.000963,0.004381,0.001125,0.02,-0.32,9.80,33.63,0.020240,0.034089,0.001065
429776725,0.002028,0.004381,-0.001006,0.01,-0.29,9.82,33.62,0.020240,0.035154,-0.001065
429777735,0.000963,0.004381,-0.002071,0.03,-0.27,9.84,33.62,0.020240,0.034089,-0.002131
429778745,-0.001168,0.003316,-0.001006,0.02,-0.31,9.82,33.65,0.021306,0.031958,-0.001065
429779763,0.002028,0.000120,0.002190,0.02,-0.29,9.82,33.67,0.024501,0.035154,0.002131
429780765,0.000963,0.002251,0.004321,-0.01,-0.29,9.86,33.65,0.022371,0.034089,0.004261
429781784,-0.000103,0.002251,0.003255,0.00,-0.30,9.87,33.65,0.022371,0.033024,0.003196
429782785,-0.000103,0.000120,0.002190,0.00,-0.30,9.84,33.62,0.024501,0.033024,0.002131
429783795,0.000963,0.000120,0.000059,0.01,-0.29,9.87,33.62,0.024501,0.034089,0.000000
429784812,0.002028,0.000120,-0.001006,0.03,-0.30,9.89,33.60,0.024501,0.035154,-0.001065
429785815,-0.000103,-0.000945,0.000059,0.02,-0.32,9.82,33.65,0.025567,0.033024,0.000000
429786825,-0.000103,-0.000945,0.000059,0.03,-0.30,9.78,33.66,0.025567,0.033024,0.000000
429787835,-0.001168,-0.002011,-0.001006,0.01,-0.28,9.85,33.65,0.026632,0.031958,-0.001065
429788845,-0.001168,-0.002011,-0.001006,0.00,-0.26,9.83,33.63,0.026632,0.031958,-0.001065
429789863,0.002028,-0.002011,0.001125,0.00,-0.27,9.80,33.60,0.026632,0.035154,0.001065
429790865,0.002028,-0.002011,0.002190,0.01,-0.26,9.87,33.61,0.026632,0.035154,0.002131
429791883,0.000963,-0.004141,0.000059,0.03,-0.28,9.91,33.64,0.028763,0.034089,0.000000
429792885,0.002028,-0.005206,-0.001006,0.01,-0.29,9.87,33.64,0.029828,0.035154,-0.001065
429793895,0.002028,-0.003076,-0.001006,0.02,-0.30,9.83,33.66,0.027697,0.035154,-0.001065
429794914,0.000963,0.000120,0.000059,0.02,-0.31,9.86,33.62,0.024501,0.034089,0.000000
429795915,0.000963,0.000120,0.002190,0.02,-0.29,9.86,33.62,0.024501,0.034089,0.002131
429796925,0.000963,0.000120,0.001125,0.03,-0.28,9.85,33.62,0.024501,0.034089,0.001065
429797935,-0.000103,-0.000945,-0.001006,0.03,-0.28,9.82,33.62,0.025567,0.033024,-0.001065
429798945,-0.000103,-0.000945,-0.001006,0.00,-0.32,9.80,33.61,0.025567,0.033024,-0.001065
429799967,-0.000103,-0.002011,0.001125,-0.01,-0.33,9.84,33.63,0.026632,0.033024,0.001065
429800966,0.000963,-0.002011,0.002190,-0.01,-0.31,9.83,33.62,0.026632,0.034089,0.002131
429801991,-0.000103,-0.002011,0.001125,-0.01,-0.30,9.82,33.63,0.026632,0.033024,0.001065
429802993,-0.002233,0.001185,0.001125,-0.02,-0.32,9.84,33.62,0.023436,0.030893,0.001065
429804002,-0.002233,0.001185,0.000059,-0.05,-0.31,9.79,33.65,0.023436,0.030893,0.000000
429805020,0.000963,0.000120,0.000059,-0.01,-0.28,9.80,33.67,0.024501,0.034089,0.000000
429806030,-0.000103,0.002251,0.000059,-0.01,-0.26,9.86,33.68,0.022371,0.033024,0.000000
429807034,-0.001168,0.002251,0.001125,0.00,-0.28,9.88,33.68,0.022371,0.031958,0.001065
429808041,-0.000103,0.001185,0.000059,0.03,-0.30,9.90,33.62,0.023436,0.033024,0.000000
429809064,0.000963,-0.002011,-0.002071,0.01,-0.27,9.83,33.62,0.026632,0.034089,-0.002131
429810075,-0.000103,-0.005206,-0.002071,-0.02,-0.28,9.75,33.63,0.029828,0.033024,-0.002131
429811077,-0.002233,-0.003076,0.000059,0.00,-0.30,9.80,33.65,0.027697,0.030893,0.000000
429812099,-0.002233,0.000120,0.000059,0.04,-0.28,9.83,33.61,0.024501,0.030893,0.000000
429813101,-0.001168,0.002251,0.000059,0.02,-0.29,9.79,33.60,0.022371,0.031958,0.000000
429814107,-0.000103,0.002251,0.001125,0.00,-0.31,9.78,33.62,0.022371,0.033024,0.001065
429815125,-0.000103,-0.000945,0.001125,0.00,-0.30,9.76,33.64,0.025567,0.033024,0.001065
429816126,-0.000103,-0.000945,0.000059,-0.02,-0.28,9.77,33.64,0.025567,0.033024,0.000000
429817139,-0.001168,0.002251,0.000059,0.02,-0.28,9.79,33.63,0.022371,0.031958,0.000000
429818141,-0.004364,0.002251,-0.001006,0.04,-0.27,9.80,33.66,0.022371,0.028763,-0.001065
429819151,-0.005429,-0.000945,-0.001006,0.03,-0.28,9.83,33.67,0.025567,0.027697,-0.001065
429820167,-0.004364,-0.000945,-0.002071,0.07,-0.31,9.86,33.65,0.025567,0.028763,-0.002131
429821168,-0.000103,0.001185,-0.001006,0.03,-0.31,9.83,33.63,0.023436,0.033024,-0.001065
429822184,0.003093,0.001185,-0.001006,-0.02,-0.29,9.81,33.63,0.023436,0.036220,-0.001065
429823202,0.000963,-0.002011,-0.001006,-0.01,-0.27,9.82,33.59,0.026632,0.034089,-0.001065
429824198,-0.000103,-0.002011,-0.001006,-0.01,-0.25,9.81,33.62,0.026632,0.033024,-0.001065
429825214,0.000963,0.000120,-0.001006,0.01,-0.27,9.82,33.65,0.024501,0.034089,-0.001065
429826216,0.002028,0.002251,-0.002071,0.03,-0.28,9.87,33.64,0.022371,0.035154,-0.002131
429827224,0.002028,0.001185,-0.002071,0.04,-0.26,9.88,33.63,0.023436,0.035154,-0.002131
429828234,0.000963,-0.000945,0.001125,0.03,-0.26,9.85,33.62,0.025567,0.034089,0.001065
429829244,-0.002233,-0.003076,0.001125,0.03,-0.29,9.83,33.61,0.027697,0.030893,0.001065
429830262,-0.002233,-0.003076,0.000059,0.04,-0.28,9.82,33.63,0.027697,0.030893,0.000000
429831264,-0.001168,0.000120,0.000059,0.01,-0.28,9.83,33.63,0.024501,0.031958,0.000000
429832284,-0.000103,0.002251,0.000059,-0.01,-0.28,9.82,33.62,0.022371,0.033024,0.000000
429833300,-0.001168,0.003316,0.000059,0.00,-0.28,9.86,33.63,0.021306,0.031958,0.000000
429834295,-0.000103,0.002251,0.000059,0.01,-0.28,9.86,33.62,0.022371,0.033024,0.000000
429835314,0.000963,-0.002011,0.001125,0.03,-0.27,9.85,33.62,0.026632,0.034089,0.001065
429836315,0.002028,-0.003076,0.002190,0.03,-0.26,9.86,33.60,0.027697,0.035154,0.002131
429837325,0.002028,-0.000945,0.001125,0.04,-0.26,9.83,33.58,0.025567,0.035154,0.001065
429838335,0.000963,-0.000945,-0.001006,0.04,-0.24,9.82,33.62,0.025567,0.034089,-0.001065
429839345,-0.000103,0.000120,-0.003136,0.03,-0.25,9.87,33.58,0.024501,0.033024,-0.003196
429840363,-0.000103,-0.000945,-0.003136,0.01,-0.28,9.86,33.59,0.025567,0.033024,-0.003196
429841365,-0.000103,-0.000945,-0.001006,0.00,-0.27,9.80,33.62,0.025567,0.033024,-0.001065
429842387,-0.000103,-0.002011,0.001125,0.00,-0.28,9.77,33.66,0.026632,0.033024,0.001065
429843399,-0.001168,-0.002011,0.002190,0.02,-0.30,9.85,33.65,0.026632,0.031958,0.002131
429844394,-0.002233,-0.002011,0.002190,0.03,-0.29,9.89,33.66,0.026632,0.030893,0.002131
429845411,-0.003298,-0.002011,0.002190,0.03,-0.31,9.82,33.63,0.026632,0.029828,0.002131
429846414,-0.002233,-0.004141,0.002190,0.03,-0.31,9.81,33.66,0.028763,0.030893,0.002131
429847424,-0.000103,-0.004141,0.001125,0.03,-0.29,9.81,33.65,0.028763,0.033024,0.001065
429848434,-0.000103,-0.002011,0.001125,0.01,-0.29,9.86,33.63,0.026632,0.033024,0.001065
429849444,-0.000103,0.001185,0.001125,0.03,-0.29,9.89,33.61,0.023436,0.033024,0.001065
429850462,0.002028,0.003316,0.000059,0.06,-0.32,9.80,33.62,0.021306,0.035154,0.000000
429851464,0.004159,0.003316,-0.002071,0.04,-0.30,9.80,33.62,0.021306,0.037285,-0.002131
429852484,0.005224,0.001185,-0.002071,0.02,-0.26,9.85,33.59,0.023436,0.038350,-0.002131
429853500,0.004159,0.000120,-0.001006,0.03,-0.27,9.78,33.63,0.024501,0.037285,-0.001065
429854506,0.002028,0.000120,0.000059,0.02,-0.28,9.81,33.66,0.024501,0.035154,0.000000
429855514,0.000963,0.001185,0.001125,0.00,-0.27,9.87,33.60,0.023436,0.034089,0.001065
429856515,-0.000103,-0.000945,0.001125,0.01,-0.25,9.83,33.59,0.025567,0.033024,0.001065
429857525,-0.000103,-0.000945,0.002190,0.00,-0.26,9.81,33.58,0.025567,0.033024,0.002131
429858535,0.000963,0.000120,0.002190,-0.02,-0.28,9.81,33.60,0.024501,0.034089,0.002131
429859545,0.000963,0.001185,0.000059,-0.01,-0.31,9.79,33.59,0.023436,0.034089,0.000000
429860563,-0.000103,0.001185,-0.002071,0.04,-0.29,9.80,33.61,0.023436,0.033024,-0.002131
429861565,-0.000103,0.002251,-0.003136,0.04,-0.25,9.82,33.61,0.022371,0.033024,-0.003196
429862587,0.000963,0.001185,-0.002071,0.01,-0.30,9.82,33.62,0.023436,0.034089,-0.002131
429863599,0.000963,0.000120,-0.002071,-0.01,-0.32,9.84,33.62,0.024501,0.034089,-0.002131
429864594,-0.001168,0.000120,-0.002071,0.00,-0.29,9.86,33.58,0.024501,0.031958,-0.002131
429865611,0.000963,-0.000945,-0.001006,0.03,-0.28,9.85,33.59,0.025567,0.034089,-0.001065
429866614,0.004159,-0.002011,0.001125,0.03,-0.28,9.83,33.61,0.026632,0.037285,0.001065
429867624,0.004159,0.000120,0.001125,0.03,-0.27,9.82,33.64,0.024501,0.037285,0.001065
429868634,0.002028,0.000120,0.000059,0.04,-0.26,9.80,33.65,0.024501,0.035154,0.000000
429869644,0.000963,0.001185,0.001125,0.02,-0.26,9.80,33.66,0.023436,0.034089,0.001065
429870662,0.000963,0.003316,0.003255,0.01,-0.26,9.81,33.63,0.021306,0.034089,0.003196
429871675,-0.001168,0.003316,0.002190,0.00,-0.28,9.79,33.64,0.021306,0.031958,0.002131
429872674,-0.002233,0.001185,0.000059,-0.01,-0.28,9.83,33.63,0.023436,0.030893,0.000000
429873700,-0.001168,0.000120,0.000059,0.01,-0.26,9.86,33.62,0.024501,0.031958,0.000000
429874695,-0.002233,0.001185,0.000059,0.02,-0.30,9.84,33.63,0.023436,0.030893,0.000000
429875714,-0.002233,0.000120,-0.001006,0.00,-0.29,9.85,33.62,0.024501,0.030893,-0.001065
429876715,-0.001168,-0.003076,-0.001006,0.01,-0.28,9.83,33.61,0.027697,0.031958,-0.001065
429877725,-0.001168,-0.003076,-0.001006,0.03,-0.28,9.82,33.65,0.027697,0.031958,-0.001065
429878735,-0.001168,0.000120,-0.001006,0.00,-0.26,9.82,33.63,0.024501,0.031958,-0.001065
429879745,0.002028,0.001185,0.002190,-0.01,-0.26,9.85,33.63,0.023436,0.035154,0.002131
429880763,0.003093,0.000120,0.001125,-0.02,-0.27,9.84,33.64,0.024501,0.036220,0.001065
429881778,0.002028,0.000120,-0.002071,0.00,-0.29,9.83,33.64,0.024501,0.035154,-0.002131
429882775,0.000963,-0.000945,-0.002071,0.01,-0.27,9.86,33.60,0.025567,0.034089,-0.002131
429883799,-0.000103,-0.000945,0.000059,0.02,-0.27,9.84,33.60,0.025567,0.033024,0.000000
429884794,-0.000103,0.001185,0.000059,0.02,-0.27,9.82,33.63,0.023436,0.033024,0.000000
429885811,0.000963,0.002251,-0.001006,0.01,-0.28,9.83,33.64,0.022371,0.034089,-0.001065
429886814,-0.000103,0.002251,-0.002071,0.01,-0.30,9.84,33.62,0.022371,0.033024,-0.002131
429887824,-0.000103,0.000120,0.000059,0.01,-0.30,9.81,33.64,0.024501,0.033024,0.000000
429888834,-0.001168,-0.002011,0.001125,0.02,-0.30,9.83,33.59,0.026632,0.031958,0.001065
429889844,-0.001168,-0.003076,0.000059,0.03,-0.28,9.82,33.57,0.027697,0.031958,0.000000
429890862,0.000963,0.001185,0.001125,0.05,-0.27,9.85,33.61,0.023436,0.034089,0.001065
429891875,0.003093,0.003316,0.001125,0.01,-0.29,9.86,33.58,0.021306,0.036220,0.001065
429892890,0.005224,0.004381,0.000059,-0.03,-0.29,9.82,33.60,0.020240,0.038350,0.000000
429893885,0.002028,0.003316,-0.001006,0.00,-0.29,9.81,33.63,0.021306,0.035154,-0.001065
429894895,-0.001168,0.000120,-0.001006,-0.01,-0.30,9.79,33.61,0.024501,0.031958,-0.001065
429895914,-0.001168,-0.003076,-0.002071,0.01,-0.30,9.79,33.61,0.027697,0.031958,-0.002131
429896939,-0.000124,-0.000947,-0.002082,0.02,-0.30,9.79,33.62,0.025567,0.033024,-0.002131
429897925,-0.001190,0.002249,0.000048,0.01,-0.28,9.81,33.66,0.022371,0.031958,0.000000
429898935,-0.002255,0.002249,0.002179,0.02,-0.29,9.84,33.67,0.022371,0.030893,0.002131
429899945,-0.002255,0.001184,0.001114,-0.01,-0.33,9.84,33.63,0.023436,0.030893,0.001065
429900968,-0.000124,0.001184,0.001114,-0.03,-0.30,9.82,33.62,0.023436,0.033024,0.001065
429901978,-0.001190,0.002249,-0.001017,-0.02,-0.25,9.83,33.58,0.022371,0.031958,-0.001065
429902994,-0.001190,0.001184,-0.002082,-0.01,-0.25,9.86,33.62,0.023436,0.031958,-0.002131
429903994,-0.000124,-0.000947,-0.002082,0.00,-0.26,9.84,33.64,0.025567,0.033024,-0.002131
429905002,0.000941,0.000119,0.000048,-0.01,-0.27,9.79,33.65,0.024501,0.034089,0.000000
429906019,-0.001190,0.002249,0.002179,0.00,-0.30,9.80,33.63,0.022371,0.031958,0.002131
429907022,-0.002255,0.002249,0.001114,0.02,-0.28,9.82,33.64,0.022371,0.030893,0.001065
429908034,-0.002255,0.001184,0.000048,0.02,-0.27,9.79,33.64,0.023436,0.030893,0.000000
429909041,-0.002255,0.001184,0.001114,0.01,-0.29,9.79,33.63,0.023436,0.030893,0.001065
429910058,-0.000124,0.001184,0.000048,-0.01,-0.31,9.82,33.62,0.023436,0.033024,0.000000
429911075,0.000941,0.000119,-0.001017,-0.01,-0.30,9.81,33.62,0.024501,0.034089,-0.001065
429912089,0.002006,0.000119,-0.001017,0.01,-0.28,9.81,33.60,0.024501,0.035154,-0.001065
429913116,0.004137,-0.000947,0.000048,0.00,-0.26,9.82,33.61,0.025567,0.037285,0.000000
429914089,0.003072,-0.002012,0.000048,-0.02,-0.28,9.84,33.60,0.026632,0.036220,0.000000
429915108,0.000941,-0.002012,-0.002082,-0.01,-0.29,9.83,33.62,0.026632,0.034089,-0.002131
429916126,-0.000124,-0.000947,-0.001017,0.01,-0.27,9.78,33.64,0.025567,0.033024,-0.001065
429917125,-0.001190,0.002249,0.001114,0.04,-0.28,9.80,33.65,0.022371,0.031958,0.001065
429918138,-0.002255,0.004380,0.003244,0.04,-0.29,9.85,33.67,0.020240,0.030893,0.003196
429919141,-0.002255,0.003314,0.003244,0.01,-0.28,9.87,33.67,0.021306,0.030893,0.003196
429920151,-0.001190,0.003314,0.001114,0.02,-0.27,9.88,33.62,0.021306,0.031958,0.001065
429921167,-0.000124,0.000119,0.001114,0.00,-0.30,9.87,33.63,0.024501,0.033024,0.001065
429922181,-0.001190,-0.002012,0.002179,-0.01,-0.32,9.86,33.65,0.026632,0.031958,0.002131
429923189,-0.002255,-0.002012,0.002179,0.01,-0.27,9.82,33.60,0.026632,0.030893,0.002131
429924188,-0.003320,0.001184,0.002179,0.01,-0.26,9.82,33.60,0.023436,0.029828,0.002131
429925198,-0.002255,0.002249,0.002179,0.02,-0.28,9.82,33.61,0.022371,0.030893,0.002131
429926214,-0.000124,0.002249,0.000048,0.01,-0.29,9.81,33.64,0.022371,0.033024,0.000000
429927216,0.002006,-0.000947,-0.001017,0.02,-0.31,9.83,33.63,0.025567,0.035154,-0.001065
429928224,0.002006,-0.000947,0.001114,0.04,-0.30,9.82,33.60,0.025567,0.035154,0.001065
429929234,0.000941,-0.000947,0.002179,0.02,-0.26,9.83,33.56,0.025567,0.034089,0.002131
429930244,-0.001190,0.000119,0.002179,0.02,-0.27,9.77,33.62,0.024501,0.031958,0.002131
429931262,-0.000124,0.001184,0.003244,0.02,-0.30,9.72,33.63,0.023436,0.033024,0.003196
429932275,-0.000124,0.001184,0.002179,0.03,-0.29,9.79,33.60,0.023436,0.033024,0.002131
429933290,-0.001190,0.002249,-0.001017,0.06,-0.27,9.80,33.60,0.022371,0.031958,-0.001065
429934285,-0.002255,0.003314,-0.003148,0.01,-0.26,9.80,33.61,0.021306,0.030893,-0.003196
429935295,-0.001190,0.002249,-0.002082,-0.02,-0.28,9.84,33.61,0.022371,0.031958,-0.002131
429936314,0.000941,0.000119,-0.001017,0.00,-0.28,9.82,33.60,0.024501,0.034089,-0.001065
429937315,0.002006,0.001184,-0.002082,0.01,-0.29,9.81,33.62,0.023436,0.035154,-0.002131
429938325,-0.000124,0.002249,-0.002082,0.00,-0.28,9.80,33.59,0.022371,0.033024,-0.002131
429939335,-0.001190,0.002249,-0.001017,-0.02,-0.26,9.81,33.58,0.022371,0.031958,-0.001065
429940345,-0.001190,0.002249,0.001114,0.00,-0.27,9.82,33.58,0.022371,0.031958,0.001065
429941363,0.002006,0.000119,0.004309,0.02,-0.31,9.82,33.65,0.024501,0.035154,0.004261
429942378,0.005202,0.000119,0.002179,0.01,-0.29,9.82,33.67,0.024501,0.038350,0.002131
429943389,0.004137,0.001184,-0.001017,0.02,-0.27,9.81,33.66,0.023436,0.037285,-0.001065
429944384,0.000941,0.003314,-0.002082,-0.01,-0.30,9.82,33.68,0.021306,0.034089,-0.002131
429945394,0.002006,0.001184,-0.002082,-0.02,-0.32,9.83,33.66,0.023436,0.035154,-0.002131
429946411,0.004137,-0.000947,-0.001017,-0.01,-0.29,9.78,33.66,0.025567,0.037285,-0.001065
429947414,0.003072,0.001184,0.000048,-0.01,-0.29,9.84,33.62,0.023436,0.036220,0.000000
429948424,0.002006,0.001184,0.001114,0.01,-0.32,9.89,33.64,0.023436,0.035154,0.001065
429949434,0.003072,0.000119,0.002179,0.00,-0.30,9.79,33.63,0.024501,0.036220,0.002131
429950444,0.002006,0.001184,0.001114,-0.01,-0.28,9.82,33.59,0.023436,0.035154,0.001065
429951462,-0.000124,0.002249,0.001114,0.01,-0.29,9.87,33.63,0.022371,0.033024,0.001065
429952474,0.000941,0.002249,0.001114,0.03,-0.28,9.87,33.66,0.022371,0.034089,0.001065
429953490,0.002006,0.001184,0.002179,0.01,-0.26,9.88,33.65,0.023436,0.035154,0.002131
429954485,0.002006,-0.000947,0.002179,-0.02,-0.28,9.83,33.59,0.025567,0.035154,0.002131
429955495,-0.001190,-0.000947,0.001114,0.00,-0.29,9.79,33.58,0.025567,0.031958,0.001065
429956514,-0.001190,0.002249,-0.001017,0.02,-0.31,9.86,33.61,0.022371,0.031958,-0.001065
429957539,0.000941,0.003314,-0.002082,-0.01,-0.31,9.88,33.65,0.021306,0.034089,-0.002131
429958525,0.002006,0.001184,-0.001017,-0.02,-0.30,9.79,33.64,0.023436,0.035154,-0.001065
429959535,-0.001190,-0.000947,0.000048,0.00,-0.29,9.79,33.67,0.025567,0.031958,0.000000
429960545,-0.003320,-0.000947,0.000048,0.00,-0.28,9.81,33.65,0.025567,0.029828,0.000000
429961563,-0.003320,0.001184,0.001114,0.04,-0.27,9.84,33.66,0.023436,0.029828,0.001065
429962577,-0.000124,0.004380,0.000048,0.07,-0.25,9.86,33.63,0.020240,0.033024,0.000000
429963589,0.000941,0.004380,-0.001017,0.03,-0.25,9.86,33.62,0.020240,0.034089,-0.001065
429964584,0.000941,0.002249,-0.002082,-0.02,-0.29,9.82,33.63,0.022371,0.034089,-0.002131
429965594,-0.001190,0.000119,-0.002082,-0.01,-0.30,9.77,33.67,0.024501,0.031958,-0.002131
429966611,-0.002255,-0.000947,-0.001017,0.04,-0.32,9.77,33.62,0.025567,0.030893,-0.001065
429967614,-0.001190,0.000119,0.001114,0.03,-0.31,9.80,33.59,0.024501,0.031958,0.001065
429968624,-0.000124,0.001184,0.002179,0.02,-0.30,9.77,33.64,0.023436,0.033024,0.002131
429969634,-0.001190,0.002249,0.000048,0.04,-0.29,9.79,33.65,0.022371,0.031958,0.000000
429970644,-0.001190,0.003314,-0.002082,0.04,-0.25,9.84,33.62,0.021306,0.031958,-0.002131
429971671,-0.002255,0.001184,-0.001017,0.03,-0.24,9.82,33.60,0.023436,0.030893,-0.001065
429972664,-0.001190,-0.000947,-0.001017,0.02,-0.27,9.85,33.60,0.025567,0.031958,-0.001065
429973690,0.000941,-0.000947,-0.001017,0.01,-0.26,9.91,33.62,0.025567,0.034089,-0.001065
429974685,0.000941,0.000119,-0.002082,0.00,-0.26,9.91,33.63,0.024501,0.034089,-0.002131
429975695,0.000941,-0.000947,-0.001017,0.00,-0.29,9.88,33.62,0.025567,0.034089,-0.001065
429976714,-0.000124,-0.000947,0.000048,0.02,-0.28,9.83,33.59,0.025567,0.033024,0.000000
429977715,-0.001190,-0.000947,0.000048,0.02,-0.26,9.80,33.62,0.025567,0.031958,0.000000
429978725,-0.001190,-0.000947,0.001114,0.00,-0.29,9.76,33.62,0.025567,0.031958,0.001065
429979735,-0.001190,-0.003077,0.001114,0.00,-0.32,9.77,33.63,0.027697,0.031958,0.001065
429980745,-0.002255,0.000119,0.001114,0.02,-0.35,9.83,33.63,0.024501,0.030893,0.001065
429981775,-0.002255,0.001184,0.002179,-0.03,-0.30,9.82,33.62,0.023436,0.030893,0.002131
429982765,-0.001190,0.001184,0.001114,-0.02,-0.26,9.82,33.62,0.023436,0.031958,0.001065
429983775,-0.000124,0.001184,-0.002082,0.02,-0.29,9.83,33.60,0.023436,0.033024,-0.002131
429984785,0.002006,0.001184,-0.003148,0.00,-0.28,9.78,33.59,0.023436,0.035154,-0.003196
429985795,0.002006,0.001184,0.000048,-0.02,-0.28,9.79,33.62,0.023436,0.035154,0.000000
429986812,-0.000124,0.002249,0.001114,0.00,-0.28,9.78,33.64,0.022371,0.033024,0.001065
429987815,-0.000124,0.003314,0.002179,-0.02,-0.26,9.79,33.63,0.021306,0.033024,0.002131
429988825,0.000941,0.004380,0.004309,-0.02,-0.29,9.82,33.66,0.020240,0.034089,0.004261
429989835,-0.000124,0.003314,0.005375,-0.01,-0.31,9.83,33.63,0.021306,0.033024,0.005326
429990845,-0.000124,0.002249,0.002179,0.02,-0.30,9.82,33.63,0.022371,0.033024,0.002131
429991872,-0.001190,0.001184,-0.001017,0.04,-0.31,9.79,33.63,0.023436,0.031958,-0.001065
429992865,-0.002255,0.000119,-0.001017,0.03,-0.32,9.79,33.63,0.024501,0.030893,-0.001065
429993875,-0.001190,0.000119,-0.001017,0.05,-0.30,9.82,33.62,0.024501,0.031958,-0.001065
429994885,-0.000124,-0.002012,-0.001017,0.03,-0.30,9.81,33.64,0.026632,0.033024,-0.001065
429995895,0.000941,-0.004143,-0.001017,0.02,-0.28,9.76,33.64,0.028763,0.034089,-0.001065
429996914,0.002006,-0.003077,-0.002082,0.03,-0.28,9.75,33.62,0.027697,0.035154,-0.002131
429997915,0.000941,-0.000947,-0.001017,0.00,-0.31,9.79,33.61,0.025567,0.034089,-0.001065
429998925,-0.000124,-0.000947,0.002179,0.01,-0.31,9.80,33.60,0.025567,0.033024,0.002131
429999935,-0.000124,0.001184,0.003244,0.02,-0.28,9.81,33.61,0.023436,0.033024,0.003196
430000966,-0.000124,0.001184,0.001114,0.01,-0.29,9.84,33.61,0.023436,0.033024,0.001065
430001980,-0.002255,-0.000947,0.000048,0.04,-0.28,9.81,33.58,0.025567,0.030893,0.000000
430002966,-0.004385,0.000119,0.000048,0.06,-0.26,9.80,33.60,0.024501,0.028763,0.000000
430003976,-0.003320,0.002249,-0.001017,0.03,-0.26,9.79,33.60,0.022371,0.029828,-0.001065
430004991,-0.000124,0.002249,-0.002082,0.02,-0.28,9.80,33.62,0.022371,0.033024,-0.002131
430006002,0.002006,0.000119,-0.002082,0.00,-0.28,9.84,33.64,0.024501,0.035154,-0.002131
430007021,0.000941,0.001184,0.001114,0.00,-0.29,9.84,33.64,0.023436,0.034089,0.001065
430008028,0.000941,0.004380,0.001114,0.03,-0.28,9.83,33.63,0.020240,0.034089,0.001065
430009033,-0.000124,0.003314,-0.001017,0.02,-0.29,9.82,33.62,0.021306,0.033024,-0.001065
430010044,-0.002255,0.000119,-0.002082,-0.01,-0.28,9.83,33.58,0.024501,0.030893,-0.002131
430011062,-0.002255,-0.000947,-0.001017,-0.01,-0.25,9.85,33.60,0.025567,0.030893,-0.001065
430012087,-0.000124,0.000119,-0.003148,0.00,-0.26,9.81,33.60,0.024501,0.033024,-0.003196
430013082,0.000941,0.000119,-0.004213,0.00,-0.26,9.80,33.64,0.024501,0.034089,-0.004261
430014091,0.000941,-0.002012,-0.001017,0.00,-0.25,9.82,33.62,0.026632,0.034089,-0.001065
430015099,0.002006,-0.002012,-0.001017,0.00,-0.26,9.83,33.65,0.026632,0.035154,-0.001065
430016106,-0.000124,-0.002012,-0.002082,0.01,-0.28,9.84,33.63,0.026632,0.033024,-0.002131
430017125,-0.001190,-0.002012,-0.001017,0.00,-0.27,9.82,33.67,0.026632,0.031958,-0.001065
430018123,-0.001190,-0.000947,-0.001017,-0.01,-0.28,9.79,33.70,0.025567,0.031958,-0.001065
430019138,-0.000124,0.001184,0.001114,0.00,-0.29,9.83,33.66,0.023436,0.033024,0.001065
430020142,-0.000124,0.002249,0.000048,0.00,-0.31,9.83,33.63,0.022371,0.033024,0.000000
430021149,-0.000124,0.002249,-0.002082,-0.02,-0.33,9.81,33.65,0.022371,0.033024,-0.002131
430022178,-0.000124,0.000119,-0.001017,-0.02,-0.32,9.83,33.64,0.024501,0.033024,-0.001065
430023168,-0.001190,-0.000947,-0.002082,0.03,-0.33,9.81,33.64,0.025567,0.031958,-0.002131
430024175,-0.001190,-0.002012,-0.001017,0.04,-0.30,9.81,33.63,0.026632,0.031958,-0.001065
430025189,-0.000124,0.000119,0.002179,0.00,-0.25,9.82,33.65,0.024501,0.033024,0.002131
430026224,0.002023,0.001097,0.002171,0.01,-0.29,9.83,33.64,0.023436,0.035154,0.002131
430027216,0.002023,0.001097,0.001106,0.00,-0.32,9.79,33.62,0.023436,0.035154,0.001065
430028217,-0.001173,0.000032,0.002171,-0.02,-0.28,9.78,33.62,0.024501,0.031958,0.002131
430029225,-0.004368,-0.001033,0.002171,0.01,-0.28,9.82,33.61,0.025567,0.028763,0.002131
430030235,-0.005434,-0.001033,0.000041,0.03,-0.31,9.84,33.59,0.025567,0.027697,0.000000
430031245,-0.003303,-0.001033,-0.002090,0.04,-0.30,9.86,33.58,0.025567,0.029828,-0.002131
430032271,-0.002238,0.000032,-0.002090,0.00,-0.25,9.90,33.57,0.024501,0.030893,-0.002131
430033265,-0.003303,0.001097,0.000041,-0.04,-0.27,9.85,33.60,0.023436,0.029828,0.000000
430034275,-0.003303,-0.001033,0.002171,-0.05,-0.29,9.83,33.66,0.025567,0.029828,0.002131
430035285,-0.003303,0.000032,0.001106,-0.03,-0.27,9.84,33.64,0.024501,0.029828,0.001065
430036295,-0.003303,0.002163,0.000041,0.02,-0.24,9.80,33.61,0.022371,0.029828,0.000000
430037314,-0.003303,0.000032,-0.001025,0.02,-0.26,9.78,33.61,0.024501,0.029828,-0.001065
430038315,-0.004368,-0.001033,0.001106,0.02,-0.28,9.82,33.63,0.025567,0.028763,0.001065
430039325,-0.001173,-0.002098,0.001106,0.03,-0.29,9.83,33.64,0.026632,0.031958,0.001065
430040335,-0.000107,-0.002098,-0.001025,0.04,-0.28,9.83,33.63,0.026632,0.033024,-0.001065
430041345,-0.000107,-0.003164,-0.001025,0.02,-0.24,9.80,33.62,0.027697,0.033024,-0.001065
430042374,0.000958,-0.004229,-0.001025,0.02,-0.28,9.78,33.66,0.028763,0.034089,-0.001065
430043365,0.002023,-0.005294,-0.001025,0.01,-0.31,9.78,33.62,0.029828,0.035154,-0.001065
430044375,-0.000107,-0.004229,-0.003155,0.01,-0.31,9.82,33.60,0.028763,0.033024,-0.003196
430045385,-0.002238,-0.001033,-0.003155,0.05,-0.29,9.83,33.60,0.025567,0.030893,-0.003196
430046395,-0.002238,0.002163,-0.001025,0.04,-0.28,9.81,33.63,0.022371,0.030893,-0.001065
430047412,-0.003303,0.004293,0.000041,-0.01,-0.30,9.82,33.62,0.020240,0.029828,0.000000
430048415,-0.002238,0.003228,0.000041,-0.02,-0.26,9.82,33.63,0.021306,0.030893,0.000000
430049425,-0.000107,-0.001033,0.001106,0.00,-0.28,9.84,33.65,0.025567,0.033024,0.001065
430050435,-0.000107,-0.001033,0.002171,0.01,-0.31,9.83,33.62,0.025567,0.033024,0.002131
430051445,-0.000107,0.001097,0.001106,0.01,-0.28,9.84,33.59,0.023436,0.033024,0.001065
430052470,-0.002238,0.002163,0.000041,0.01,-0.28,9.86,33.58,0.022371,0.030893,0.000000
430053465,-0.003303,0.001097,0.000041,0.04,-0.27,9.86,33.56,0.023436,0.029828,0.000000
430054475,-0.003303,0.000032,0.001106,0.04,-0.26,9.87,33.62,0.024501,0.029828,0.001065
430055485,-0.001173,-0.001033,0.001106,0.02,-0.32,9.85,33.64,0.025567,0.031958,0.001065
430056495,-0.000107,-0.002098,0.000041,0.03,-0.32,9.82,33.64,0.026632,0.033024,0.000000
430057514,-0.000107,-0.002098,0.000041,0.05,-0.27,9.81,33.64,0.026632,0.033024,0.000000
430058515,-0.002238,0.000032,0.000041,0.03,-0.25,9.82,33.60,0.024501,0.030893,0.000000
430059559,-0.002238,0.001097,0.001106,-0.01,-0.28,9.80,33.61,0.023436,0.030893,0.001065
430060535,-0.002238,0.000032,0.000041,0.00,-0.29,9.79,33.62,0.024501,0.030893,0.000000
430061545,-0.002238,0.000032,-0.003155,0.00,-0.28,9.81,33.62,0.024501,0.030893,-0.003196
430062572,-0.001173,0.001097,-0.002090,0.00,-0.26,9.82,33.62,0.023436,0.031958,-0.002131
430063565,-0.000107,0.001097,-0.001025,0.02,-0.28,9.77,33.64,0.023436,0.033024,-0.001065
430064575,-0.000107,0.001097,0.000041,0.02,-0.28,9.82,33.63,0.023436,0.033024,0.000000
430065585,-0.001173,0.001097,-0.001025,0.03,-0.27,9.85,33.62,0.023436,0.031958,-0.001065
430066595,-0.001173,0.000032,-0.001025,0.00,-0.29,9.81,33.64,0.024501,0.031958,-0.001065
430067612,-0.000107,-0.001033,0.001106,-0.01,-0.29,9.84,33.67,0.025567,0.033024,0.001065
430068615,0.000958,-0.001033,0.001106,0.01,-0.27,9.84,33.63,0.025567,0.034089,0.001065
430069625,0.000958,0.001097,-0.001025,0.03,-0.27,9.83,33.61,0.023436,0.034089,-0.001065
430070635,0.000958,0.004293,-0.001025,0.02,-0.32,9.82,33.62,0.020240,0.034089,-0.001065
430071654,0.003089,0.004293,0.001106,0.01,-0.32,9.75,33.66,0.020240,0.036220,0.001065
430072664,0.003089,0.001097,0.003236,0.01,-0.28,9.76,33.66,0.023436,0.036220,0.003196
430073665,0.000958,-0.001033,0.002171,0.01,-0.30,9.80,33.61,0.025567,0.034089,0.002131
430074675,-0.002238,-0.002098,0.001106,0.04,-0.29,9.82,33.62,0.026632,0.030893,0.001065
430075685,-0.003303,0.000032,0.002171,0.04,-0.29,9.84,33.63,0.024501,0.029828,0.002131
430076695,-0.003303,0.002163,0.001106,0.03,-0.30,9.85,33.64,0.022371,0.029828,0.001065
430077713,-0.001173,0.002163,-0.002090,0.02,-0.28,9.84,33.62,0.022371,0.031958,-0.002131
430078715,0.000958,0.000032,-0.003155,0.01,-0.29,9.78,33.61,0.024501,0.034089,-0.003196
430079725,0.000958,-0.001033,-0.001025,0.01,-0.31,9.78,33.62,0.025567,0.034089,-0.001065
430080735,-0.001173,-0.001033,0.001106,0.03,-0.32,9.84,33.66,0.025567,0.031958,0.001065
430081755,-0.000107,0.000032,0.004302,0.05,-0.27,9.83,33.62,0.024501,0.033024,0.004261
430082764,-0.001173,0.001097,0.003236,0.04,-0.27,9.77,33.62,0.023436,0.031958,0.003196
430083765,-0.002238,0.000032,0.000041,0.01,-0.27,9.75,33.60,0.024501,0.030893,0.000000
430084775,-0.001173,-0.001033,0.000041,0.02,-0.28,9.80,33.60,0.025567,0.031958,0.000000
430085785,-0.001173,0.000032,0.000041,0.03,-0.29,9.87,33.61,0.024501,0.031958,0.000000
430086795,-0.003303,0.001097,-0.002090,0.01,-0.33,9.83,33.61,0.023436,0.029828,-0.002131
430087811,-0.002238,0.002163,-0.003155,0.02,-0.34,9.80,33.60,0.022371,0.030893,-0.003196
430088815,-0.001173,0.002163,-0.002090,0.01,-0.31,9.85,33.60,0.022371,0.031958,-0.002131
430089825,-0.000107,0.001097,0.001106,0.01,-0.29,9.86,33.65,0.023436,0.033024,0.001065
430090835,-0.001173,-0.001033,0.002171,0.01,-0.30,9.83,33.64,0.025567,0.031958,0.002131
430091854,-0.002238,0.000032,0.001106,0.05,-0.29,9.82,33.61,0.024501,0.030893,0.001065
430092864,-0.002238,-0.002098,0.001106,0.05,-0.30,9.86,33.60,0.026632,0.030893,0.001065
430093865,-0.000107,-0.004229,0.001106,0.01,-0.28,9.85,33.60,0.028763,0.033024,0.001065
430094875,-0.001173,-0.002098,-0.002090,0.00,-0.24,9.80,33.60,0.026632,0.031958,-0.002131
430095885,-0.002238,0.001097,-0.002090,0.02,-0.25,9.82,33.60,0.023436,0.030893,-0.002131
430096895,-0.000107,0.002163,-0.001025,0.03,-0.27,9.86,33.59,0.022371,0.033024,-0.001065
430097913,0.000958,0.000032,-0.001025,0.01,-0.27,9.87,33.58,0.024501,0.034089,-0.001065
430098915,-0.000107,-0.001033,0.000041,-0.01,-0.30,9.89,33.60,0.025567,0.033024,0.000000
430099925,-0.002238,-0.002098,0.001106,-0.01,-0.28,9.88,33.59,0.026632,0.030893,0.001065
430100935,-0.002238,0.001097,0.001106,0.00,-0.28,9.84,33.56,0.023436,0.030893,0.001065
430101957,-0.001173,0.003228,0.000041,0.02,-0.28,9.83,33.58,0.021306,0.031958,0.000000
430102969,0.000958,0.002163,-0.001025,0.01,-0.26,9.83,33.61,0.022371,0.034089,-0.001065
430103966,0.000958,0.001097,-0.001025,-0.01,-0.29,9.81,33.62,0.023436,0.034089,-0.001065
430104978,0.000958,-0.001033,0.002171,0.00,-0.31,9.82,33.63,0.025567,0.034089,0.002131
430105994,0.000958,-0.002098,0.002171,0.01,-0.29,9.84,33.63,0.026632,0.034089,0.002131
430107004,-0.000107,-0.001033,0.001106,0.01,-0.29,9.79,33.64,0.025567,0.033024,0.001065
430108018,-0.001173,0.000032,0.000041,0.01,-0.29,9.79,33.62,0.024501,0.031958,0.000000
430109022,-0.002238,0.001097,0.001106,0.00,-0.30,9.83,33.63,0.023436,0.030893,0.001065
430110035,-0.002238,0.002163,0.001106,0.02,-0.32,9.78,33.68,0.022371,0.030893,0.001065
430111043,-0.003303,0.003228,0.000041,0.02,-0.30,9.76,33.65,0.021306,0.029828,0.000000
430112067,-0.003303,0.000032,-0.001025,-0.01,-0.29,9.82,33.61,0.024501,0.029828,-0.001065
430113084,-0.003303,-0.002098,-0.001025,0.00,-0.27,9.83,33.61,0.026632,0.029828,-0.001065
430114076,-0.000107,-0.001033,0.000041,0.02,-0.31,9.81,33.65,0.025567,0.033024,0.000000
430115088,0.000958,0.001097,0.001106,0.02,-0.32,9.83,33.61,0.023436,0.034089,0.001065
430116090,0.000958,0.002163,-0.001025,0.05,-0.26,9.86,33.64,0.022371,0.034089,-0.001065
430117107,0.002023,0.000032,-0.002090,0.03,-0.27,9.83,33.65,0.024501,0.035154,-0.002131
430118125,0.000958,-0.001033,-0.001025,0.00,-0.28,9.78,33.64,0.025567,0.034089,-0.001065
430119125,-0.000107,-0.002098,-0.001025,0.02,-0.28,9.79,33.69,0.026632,0.033024,-0.001065
430120139,0.000958,-0.001033,0.001106,0.03,-0.28,9.79,33.69,0.025567,0.034089,0.001065
430121141,0.002023,-0.001033,0.002171,0.04,-0.28,9.80,33.65,0.025567,0.035154,0.002131
430122161,0.003089,-0.002098,0.003236,0.02,-0.25,9.83,33.64,0.026632,0.036220,0.003196
430123168,0.002023,-0.002098,0.002171,0.02,-0.27,9.84,33.63,0.026632,0.035154,0.002131
430124168,0.000958,0.001097,0.003236,0.04,-0.29,9.78,33.65,0.023436,0.034089,0.003196
430125175,-0.000107,0.003228,0.002171,0.05,-0.25,9.79,33.65,0.021306,0.033024,0.002131
430126189,-0.001173,0.000032,0.003236,0.00,-0.25,9.82,33.66,0.024501,0.031958,0.003196
430127199,-0.001173,-0.004229,0.003236,-0.02,-0.28,9.82,33.61,0.028763,0.031958,0.003196
430128214,-0.002238,-0.004229,0.002171,0.01,-0.28,9.80,33.63,0.028763,0.030893,0.002131
430129217,-0.003303,-0.003164,0.001106,-0.01,-0.28,9.77,33.62,0.027697,0.029828,0.001065
430130225,-0.003303,-0.002098,0.001106,-0.01,-0.30,9.78,33.63,0.026632,0.029828,0.001065
430131235,-0.001173,-0.002098,0.003236,-0.01,-0.28,9.83,33.62,0.026632,0.031958,0.003196
430132254,-0.001173,-0.003164,0.003236,-0.03,-0.27,9.83,33.60,0.027697,0.031958,0.003196
430133264,-0.001173,-0.003164,0.002171,0.01,-0.29,9.84,33.62,0.027697,0.031958,0.002131
430134265,-0.001173,-0.001033,0.001106,0.04,-0.30,9.85,33.61,0.025567,0.031958,0.001065
430135275,-0.001173,-0.001033,-0.001025,0.03,-0.30,9.85,33.60,0.025567,0.031958,-0.001065
430136285,-0.001173,-0.001033,-0.002090,0.00,-0.29,9.82,33.56,0.025567,0.031958,-0.002131
430137295,0.000958,-0.003164,-0.003155,0.00,-0.30,9.79,33.57,0.027697,0.034089,-0.003196
430138313,0.000958,-0.004229,-0.003155,0.04,-0.32,9.78,33.58,0.028763,0.034089,-0.003196
430139315,-0.000107,-0.004229,-0.002090,0.04,-0.29,9.77,33.60,0.028763,0.033024,-0.002131
430140325,-0.000107,-0.002098,0.000041,0.02,-0.26,9.84,33.63,0.026632,0.033024,0.000000
430141335,0.002023,-0.001033,0.001106,0.03,-0.25,9.87,33.62,0.025567,0.035154,0.001065
430142355,0.002023,-0.001033,0.001106,0.05,-0.28,9.85,33.65,0.025567,0.035154,0.001065
430143364,0.000958,-0.001033,-0.001025,0.04,-0.28,9.83,33.63,0.025567,0.034089,-0.001065
430144365,-0.001173,-0.003164,-0.003155,-0.01,-0.27,9.80,33.64,0.027697,0.031958,-0.003196
430145375,-0.002238,-0.003164,-0.002090,-0.02,-0.31,9.79,33.66,0.027697,0.030893,-0.002131
430146385,-0.000107,0.000032,0.000041,0.00,-0.33,9.81,33.59,0.024501,0.033024,0.000000
430147395,0.002023,-0.001033,0.000041,0.03,-0.30,9.82,33.62,0.025567,0.035154,0.000000
430148411,0.002023,-0.003164,0.001106,0.04,-0.27,9.82,33.65,0.027697,0.035154,0.001065
430149415,0.000958,-0.003164,0.002171,0.01,-0.29,9.81,33.62,0.027697,0.034089,0.002131
430150425,-0.002238,0.000032,0.002171,-0.02,-0.30,9.81,33.59,0.024501,0.030893,0.002131
430151435,-0.003303,0.000032,0.000041,-0.01,-0.26,9.79,33.59,0.024501,0.029828,0.000000
430152454,-0.000107,-0.001033,-0.002090,0.03,-0.26,9.76,33.59,0.025567,0.033024,-0.002131
430153464,0.003089,0.000032,-0.001025,0.04,-0.28,9.80,33.60,0.024501,0.036220,-0.001065
430154465,0.002023,-0.001033,0.000041,0.02,-0.30,9.82,33.61,0.025567,0.035154,0.000000
430155519,-0.001076,-0.002042,0.000018,0.02,-0.30,9.86,33.63,0.026632,0.031958,0.000000
430156485,-0.002141,-0.002042,0.000018,-0.02,-0.27,9.88,33.64,0.026632,0.030893,0.000000
430157495,-0.002141,-0.003107,-0.001048,-0.04,-0.29,9.80,33.65,0.027697,0.030893,-0.001065
430158513,-0.001076,-0.002042,-0.002113,0.01,-0.30,9.79,33.63,0.026632,0.031958,-0.002131
430159515,0.001055,0.000088,-0.002113,0.04,-0.25,9.85,33.58,0.024501,0.034089,-0.002131
430160525,0.001055,0.001154,-0.001048,0.04,-0.28,9.85,33.64,0.023436,0.034089,-0.001065
430161535,0.001055,0.003284,-0.002113,0.01,-0.31,9.79,33.65,0.021306,0.034089,-0.002131
430162560,0.002120,0.003284,-0.004244,-0.03,-0.28,9.78,33.64,0.021306,0.035154,-0.004261
430163564,0.005316,0.000088,-0.004244,-0.02,-0.27,9.83,33.63,0.024501,0.038350,-0.004261
430164565,0.004251,-0.002042,-0.003178,-0.01,-0.26,9.83,33.59,0.026632,0.037285,-0.003196
430165575,-0.000010,0.001154,0.000018,-0.01,-0.25,9.84,33.59,0.023436,0.033024,0.000000
430166585,-0.001076,0.002219,0.001083,-0.01,-0.30,9.84,33.60,0.022371,0.031958,0.001065
430167595,-0.001076,0.001154,-0.001048,0.01,-0.31,9.83,33.62,0.023436,0.031958,-0.001065
430168611,-0.000010,-0.002042,-0.002113,0.03,-0.27,9.77,33.62,0.026632,0.033024,-0.002131
430169615,0.001055,-0.003107,-0.001048,0.02,-0.26,9.76,33.60,0.027697,0.034089,-0.001065
430170625,-0.000010,-0.003107,-0.002113,0.00,-0.25,9.80,33.63,0.027697,0.033024,-0.002131
430171644,-0.001076,-0.003107,-0.001048,0.01,-0.26,9.80,33.58,0.027697,0.031958,-0.001065
430172645,-0.000010,-0.003107,0.000018,0.00,-0.31,9.82,33.61,0.027697,0.033024,0.000000
430173664,-0.000010,-0.004173,-0.001048,0.00,-0.30,9.84,33.63,0.028763,0.033024,-0.001065
430174665,-0.001076,-0.005238,-0.002113,0.04,-0.28,9.82,33.61,0.029828,0.031958,-0.002131
430175675,-0.001076,-0.004173,-0.001048,0.04,-0.28,9.85,33.54,0.028763,0.031958,-0.001065
430176685,-0.001076,-0.002042,0.001083,0.03,-0.27,9.88,33.54,0.026632,0.031958,0.001065
430177695,-0.001076,-0.000977,0.002148,0.01,-0.29,9.83,33.60,0.025567,0.031958,0.002131
430178713,-0.001076,0.000088,0.002148,-0.04,-0.29,9.79,33.60,0.024501,0.031958,0.002131
430179715,-0.001076,-0.000977,0.000018,-0.03,-0.29,9.81,33.63,0.025567,0.031958,0.000000
430180725,-0.000010,0.000088,-0.003178,0.00,-0.28,9.83,33.63,0.024501,0.033024,-0.003196
430181745,-0.000010,0.001154,0.000018,-0.01,-0.27,9.78,33.62,0.023436,0.033024,0.000000
430182745,-0.001076,0.001154,0.001083,-0.02,-0.25,9.79,33.62,0.023436,0.031958,0.001065
430183764,-0.002141,0.002219,0.000018,0.04,-0.27,9.79,33.62,0.022371,0.030893,0.000000
430184765,-0.003206,0.001154,-0.001048,0.02,-0.28,9.85,33.63,0.023436,0.029828,-0.001065
430185775,-0.003206,-0.000977,0.001083,0.00,-0.29,9.88,33.61,0.025567,0.029828,0.001065
430186785,-0.002141,-0.003107,0.002148,-0.01,-0.28,9.84,33.62,0.027697,0.030893,0.002131
430187795,-0.000010,-0.002042,0.001083,-0.02,-0.28,9.82,33.63,0.026632,0.033024,0.001065
430188811,0.001055,0.001154,0.000018,0.00,-0.28,9.77,33.61,0.023436,0.034089,0.000000
430189815,-0.000010,0.001154,-0.002113,0.00,-0.28,9.79,33.62,0.023436,0.033024,-0.002131
430190825,-0.000010,0.000088,-0.002113,0.01,-0.28,9.83,33.59,0.024501,0.033024,-0.002131
430191844,0.001055,-0.003107,-0.001048,0.03,-0.29,9.79,33.61,0.027697,0.034089,-0.001065
430192845,0.001055,-0.005238,0.000018,0.00,-0.31,9.78,33.60,0.029828,0.034089,0.000000
430193864,-0.001076,-0.005238,-0.001048,0.00,-0.29,9.78,33.59,0.029828,0.031958,-0.001065
430194865,-0.002141,-0.000977,-0.001048,0.00,-0.28,9.79,33.61,0.025567,0.030893,-0.001065
430195875,-0.001076,0.000088,-0.001048,-0.03,-0.26,9.81,33.60,0.024501,0.031958,-0.001065
430196885,-0.000010,0.001154,0.000018,0.00,-0.25,9.84,33.63,0.023436,0.033024,0.000000
430197895,-0.000010,0.002219,0.000018,0.02,-0.28,9.85,33.62,0.022371,0.033024,0.000000
430198913,-0.002141,0.003284,-0.001048,0.01,-0.27,9.82,33.59,0.021306,0.030893,-0.001065
430199915,-0.002141,0.000088,0.000018,-0.01,-0.26,9.79,33.63,0.024501,0.030893,0.000000
430200925,-0.000010,-0.002042,0.001083,0.00,-0.26,9.81,33.63,0.026632,0.033024,0.001065
430201945,0.002120,-0.000977,0.000018,0.03,-0.28,9.80,33.60,0.025567,0.035154,0.000000
430202945,0.003186,0.001154,0.000018,0.03,-0.27,9.79,33.61,0.023436,0.036220,0.000000
430203968,0.003186,0.000088,0.001083,0.03,-0.25,9.82,33.60,0.024501,0.036220,0.001065
430204966,0.002120,0.000088,0.002148,-0.01,-0.26,9.84,33.59,0.024501,0.035154,0.002131
430205976,0.002120,0.001154,0.001083,-0.04,-0.27,9.85,33.62,0.023436,0.035154,0.001065
430206994,0.003186,0.000088,0.000018,0.00,-0.26,9.85,33.62,0.024501,0.036220,0.000000
430208002,0.003186,0.001154,-0.001048,0.04,-0.28,9.85,33.61,0.023436,0.036220,-0.001065
430209019,0.001055,0.002219,-0.002113,0.02,-0.28,9.84,33.63,0.022371,0.034089,-0.002131
430210030,-0.002141,0.001154,-0.003178,0.01,-0.28,9.81,33.62,0.023436,0.030893,-0.003196
430211034,-0.004271,-0.002042,-0.001048,0.02,-0.31,9.79,33.57,0.026632,0.028763,-0.001065
430212059,-0.003206,-0.003107,0.001083,0.05,-0.29,9.83,33.62,0.027697,0.029828,0.001065
430213065,-0.002141,-0.003107,0.000018,0.02,-0.29,9.84,33.65,0.027697,0.030893,0.000000
430214076,-0.003206,-0.002042,-0.003178,-0.02,-0.30,9.81,33.65,0.026632,0.029828,-0.003196
430215075,-0.003206,0.000088,-0.002113,0.00,-0.31,9.80,33.67,0.024501,0.029828,-0.002131
430216088,-0.004271,0.001154,0.000018,0.02,-0.31,9.82,33.68,0.023436,0.028763,0.000000
430217095,-0.003206,0.002219,0.001083,0.03,-0.29,9.81,33.67,0.022371,0.029828,0.001065
430218108,-0.003206,0.001154,0.000018,0.01,-0.27,9.79,33.59,0.023436,0.029828,0.000000
430219124,-0.001076,0.001154,0.000018,0.01,-0.26,9.77,33.64,0.023436,0.031958,0.000000
430220126,0.001055,-0.000977,0.000018,0.02,-0.29,9.78,33.61,0.025567,0.034089,0.000000
430221137,0.002120,-0.000977,0.000018,0.02,-0.29,9.81,33.59,0.025567,0.035154,0.000000
430222151,0.003186,-0.000977,0.000018,0.03,-0.28,9.80,33.60,0.025567,0.036220,0.000000
430223151,0.003186,-0.002042,-0.001048,0.03,-0.27,9.86,33.61,0.026632,0.036220,-0.001065
430224169,0.002120,-0.002042,-0.001048,0.01,-0.27,9.87,33.60,0.026632,0.035154,-0.001065
430225168,-0.001076,0.000088,-0.001048,0.01,-0.30,9.83,33.60,0.024501,0.031958,-0.001065
430226175,-0.002141,0.000088,0.000018,0.03,-0.32,9.81,33.62,0.024501,0.030893,0.000000
430227189,-0.000010,-0.000977,0.000018,0.01,-0.32,9.81,33.58,0.025567,0.033024,0.000000
430228199,0.002120,-0.002042,0.001083,-0.01,-0.30,9.80,33.59,0.026632,0.035154,0.001065
430229214,0.001055,-0.004173,0.000018,0.02,-0.28,9.81,33.62,0.028763,0.034089,0.000000
430230217,-0.001076,-0.004173,-0.003178,0.03,-0.29,9.83,33.65,0.028763,0.031958,-0.003196
430231225,-0.002141,-0.003107,-0.002113,0.04,-0.29,9.82,33.65,0.027697,0.030893,-0.002131
430232244,-0.001076,-0.003107,0.000018,0.02,-0.29,9.83,33.63,0.027697,0.031958,0.000000
430233245,0.002120,-0.000977,0.000018,-0.01,-0.29,9.85,33.63,0.025567,0.035154,0.000000
430234294,0.004251,0.001154,0.000018,0.01,-0.25,9.84,33.63,0.023436,0.037285,0.000000
430235299,0.002120,0.000088,0.001083,0.02,-0.26,9.84,33.63,0.024501,0.035154,0.001065
430236297,-0.000010,0.001154,0.003213,-0.01,-0.28,9.86,33.67,0.023436,0.033024,0.003196
430237290,0.001055,0.001154,0.003213,-0.01,-0.28,9.84,33.63,0.023436,0.034089,0.003196
430238295,0.003186,0.000088,0.001083,0.00,-0.30,9.79,33.62,0.024501,0.036220,0.001065
430239313,0.004251,0.000088,0.001083,0.02,-0.32,9.81,33.68,0.024501,0.037285,0.001065
430240315,0.002120,-0.000977,0.000018,0.03,-0.29,9.84,33.65,0.025567,0.035154,0.000000
430241325,-0.001076,-0.002042,0.000018,0.01,-0.27,9.88,33.62,0.026632,0.031958,0.000000
430242345,-0.001076,-0.000977,0.001083,0.03,-0.24,9.87,33.62,0.025567,0.031958,0.001065
430243345,0.001055,-0.000977,0.001083,0.02,-0.24,9.82,33.60,0.025567,0.034089,0.001065
430244364,0.003186,-0.002042,0.001083,0.00,-0.28,9.78,33.60,0.026632,0.036220,0.001065
430245365,0.002120,-0.000977,0.002148,0.01,-0.28,9.83,33.62,0.025567,0.035154,0.002131
430246375,0.001055,0.000088,0.001083,0.03,-0.28,9.85,33.63,0.024501,0.034089,0.001065
430247385,-0.000010,0.000088,0.001083,0.03,-0.28,9.85,33.63,0.024501,0.033024,0.001065
430248395,0.001055,-0.000977,0.000018,0.03,-0.27,9.84,33.59,0.025567,0.034089,0.000000
430249411,0.002120,-0.002042,-0.001048,0.05,-0.28,9.81,33.59,0.026632,0.035154,-0.001065
430250415,0.001055,-0.003107,-0.001048,0.02,-0.27,9.82,33.63,0.027697,0.034089,-0.001065
430251425,0.001055,-0.000977,-0.001048,0.02,-0.24,9.79,33.62,0.025567,0.034089,-0.001065
430252444,-0.000010,0.000088,0.000018,0.04,-0.27,9.80,33.64,0.024501,0.033024,0.000000
430253445,-0.001076,0.000088,0.000018,0.02,-0.30,9.81,33.61,0.024501,0.031958,0.000000
430254464,-0.001076,-0.002042,-0.002113,0.04,-0.32,9.78,33.62,0.026632,0.031958,-0.002131
430255465,-0.000010,-0.003107,-0.002113,0.03,-0.30,9.75,33.65,0.027697,0.033024,-0.002131
430256475,-0.000010,-0.000977,0.000018,0.01,-0.30,9.80,33.62,0.025567,0.033024,0.000000
430257485,0.001055,0.000088,0.000018,0.03,-0.33,9.82,33.62,0.024501,0.034089,0.000000
430258495,0.001055,0.000088,-0.001048,0.01,-0.31,9.84,33.59,0.024501,0.034089,-0.001065
430259513,0.001055,0.000088,0.000018,0.00,-0.30,9.83,33.59,0.024501,0.034089,0.000000
430260515,0.001055,0.000088,0.001083,0.00,-0.30,9.82,33.62,0.024501,0.034089,0.001065
430261525,0.001055,0.000088,0.002148,0.03,-0.31,9.83,33.62,0.024501,0.034089,0.002131
430262545,0.002120,0.000088,0.002148,0.03,-0.32,9.85,33.64,0.024501,0.035154,0.002131
430263545,0.001055,0.001154,0.000018,0.01,-0.29,9.84,33.65,0.023436,0.034089,0.000000
430264610,0.001055,0.001154,-0.001048,0.00,-0.28,9.82,33.68,0.023436,0.034089,-0.001065
430265565,-0.000010,0.000088,-0.002113,-0.03,-0.30,9.84,33.67,0.024501,0.033024,-0.002131
430266575,-0.001076,0.000088,-0.003178,-0.03,-0.30,9.82,33.64,0.024501,0.031958,-0.003196
430267585,-0.000010,-0.000977,-0.004244,0.00,-0.29,9.81,33.60,0.025567,0.033024,-0.004261
430268595,0.001055,-0.003107,-0.003178,0.01,-0.30,9.79,33.58,0.027697,0.034089,-0.003196
430269611,-0.002141,-0.005238,-0.002113,-0.01,-0.30,9.81,33.59,0.029828,0.030893,-0.002131
430270615,-0.002141,-0.004173,-0.002113,0.00,-0.29,9.82,33.60,0.028763,0.030893,-0.002131
430271634,-0.002141,0.000088,-0.002113,0.02,-0.26,9.81,33.62,0.024501,0.030893,-0.002131
430272635,-0.000010,0.002219,-0.002113,0.02,-0.26,9.82,33.67,0.022371,0.033024,-0.002131
430273645,0.001055,0.002219,-0.001048,0.04,-0.28,9.82,33.66,0.022371,0.034089,-0.001065
430274664,0.001055,0.001154,-0.001048,0.02,-0.29,9.80,33.66,0.023436,0.034089,-0.001065
430275665,-0.000010,0.000088,-0.002113,-0.02,-0.27,9.80,33.60,0.024501,0.033024,-0.002131
430276675,-0.000010,0.000088,-0.001048,-0.01,-0.28,9.81,33.63,0.024501,0.033024,-0.001065
430277685,-0.000010,0.000088,0.001083,-0.01,-0.28,9.82,33.63,0.024501,0.033024,0.001065
430278695,-0.000010,-0.002042,0.003213,0.01,-0.28,9.84,33.63,0.026632,0.033024,0.003196
430279713,0.001055,-0.004173,0.003213,0.01,-0.30,9.85,33.61,0.028763,0.034089,0.003196
430280715,0.001055,-0.004173,0.002148,0.00,-0.29,9.85,33.66,0.028763,0.034089,0.002131
430281735,0.001055,-0.000977,0.000018,0.01,-0.30,9.83,33.63,0.025567,0.034089,0.000000
430282735,-0.000010,0.001154,0.001083,0.00,-0.28,9.88,33.60,0.023436,0.033024,0.001065
430283745,-0.000010,0.002219,0.001083,-0.02,-0.29,9.83,33.59,0.022371,0.033024,0.001065
430284786,-0.001090,0.001237,0.002190,0.01,-0.29,9.81,33.61,0.023436,0.031958,0.002131
430285765,-0.002156,-0.000893,0.002190,0.04,-0.29,9.81,33.63,0.025567,0.030893,0.002131
430286775,-0.002156,-0.000893,0.002190,0.06,-0.27,9.78,33.62,0.025567,0.030893,0.002131
430287785,-0.001090,0.000172,0.002190,0.04,-0.28,9.77,33.63,0.024501,0.031958,0.002131
430288795,-0.003221,0.002302,0.003255,0.03,-0.30,9.78,33.65,0.022371,0.029828,0.003196
430289811,-0.002156,0.001237,0.002190,0.02,-0.32,9.85,33.63,0.023436,0.030893,0.002131
430290815,-0.003221,0.001237,0.002190,0.00,-0.31,9.85,33.63,0.023436,0.029828,0.002131
430291833,-0.002156,0.001237,0.001125,0.00,-0.25,9.86,33.62,0.023436,0.030893,0.001065
430292835,-0.001090,0.001237,-0.002071,0.00,-0.28,9.86,33.65,0.023436,0.031958,-0.002131
430293845,0.001040,0.001237,-0.003136,0.02,-0.31,9.87,33.66,0.023436,0.034089,-0.003196
430294864,0.002106,0.003368,0.001125,0.03,-0.29,9.84,33.62,0.021306,0.035154,0.001065
430295865,0.003171,0.004433,0.003255,0.00,-0.32,9.80,33.60,0.020240,0.036220,0.003196
430296875,0.003171,0.002302,0.002190,0.00,-0.30,9.81,33.59,0.022371,0.036220,0.002131
430297885,0.002106,0.000172,0.000060,0.00,-0.27,9.77,33.59,0.024501,0.035154,0.000000
430298895,-0.000025,-0.000893,-0.001006,0.00,-0.26,9.82,33.61,0.025567,0.033024,-0.001065
430299913,-0.000025,-0.001959,0.000060,0.04,-0.28,9.88,33.61,0.026632,0.033024,0.000000
430300915,-0.000025,-0.003024,0.001125,0.01,-0.28,9.79,33.62,0.027697,0.033024,0.001065
430301934,-0.000025,-0.001959,0.001125,-0.02,-0.26,9.77,33.58,0.026632,0.033024,0.001065
430302935,0.001040,-0.001959,0.000060,-0.01,-0.28,9.79,33.60,0.026632,0.034089,0.000000
430303945,0.001040,-0.001959,0.000060,0.03,-0.28,9.79,33.65,0.026632,0.034089,0.000000
430304969,-0.000025,-0.001959,-0.001006,0.01,-0.25,9.81,33.64,0.026632,0.033024,-0.001065
430305966,-0.001090,-0.000893,-0.001006,-0.01,-0.27,9.80,33.60,0.025567,0.031958,-0.001065
430306976,-0.003221,-0.000893,-0.002071,0.00,-0.28,9.79,33.61,0.025567,0.029828,-0.002131
430307994,-0.003221,-0.000893,-0.003136,0.02,-0.28,9.81,33.62,0.025567,0.029828,-0.003196
430309002,-0.001090,-0.000893,-0.002071,0.01,-0.29,9.82,33.60,0.025567,0.031958,-0.002131
430310018,0.002106,-0.000893,-0.001006,0.00,-0.29,9.85,33.59,0.025567,0.035154,-0.001065
430311022,0.003171,-0.000893,0.000060,0.01,-0.29,9.85,33.62,0.025567,0.036220,0.000000
430312040,0.002106,0.000172,0.001125,0.03,-0.26,9.83,33.63,0.024501,0.035154,0.001065
430313041,0.001040,0.000172,0.001125,0.06,-0.29,9.83,33.62,0.024501,0.034089,0.001065
430314059,0.001040,0.000172,0.001125,0.00,-0.30,9.80,33.60,0.024501,0.034089,0.001065
430315080,0.002106,-0.000893,0.001125,0.00,-0.28,9.80,33.62,0.025567,0.035154,0.001065
430316073,0.003171,-0.000893,-0.001006,0.03,-0.29,9.82,33.61,0.025567,0.036220,-0.001065
430317088,-0.000025,-0.000893,-0.002071,0.02,-0.30,9.80,33.63,0.025567,0.033024,-0.002131
430318089,-0.003221,-0.000893,-0.002071,0.01,-0.28,9.81,33.67,0.025567,0.029828,-0.002131
430319108,-0.003221,-0.000893,-0.001006,0.00,-0.25,9.86,33.63,0.025567,0.029828,-0.001065
430320125,-0.001090,0.002302,0.000060,-0.01,-0.27,9.87,33.63,0.022371,0.031958,0.000000
430321125,-0.001090,0.002302,0.000060,0.00,-0.30,9.85,33.60,0.022371,0.031958,0.000000
430322148,-0.000025,-0.000893,0.000060,0.03,-0.29,9.80,33.62,0.025567,0.033024,0.000000
430323141,0.001040,-0.003024,0.001125,0.03,-0.32,9.77,33.64,0.027697,0.034089,0.001065
430324151,0.002106,-0.001959,0.002190,0.02,-0.33,9.82,33.64,0.026632,0.035154,0.002131
430325168,0.001040,-0.000893,0.002190,0.04,-0.33,9.83,33.59,0.025567,0.034089,0.002131
430326168,-0.002156,-0.000893,0.002190,0.03,-0.30,9.79,33.62,0.025567,0.030893,0.002131
430327175,-0.003221,0.001237,0.002190,0.02,-0.28,9.79,33.60,0.023436,0.029828,0.002131
430328189,-0.002156,0.002302,0.002190,0.02,-0.28,9.83,33.57,0.022371,0.030893,0.002131
430329199,0.001040,0.000172,0.000060,0.01,-0.29,9.84,33.60,0.024501,0.034089,0.000000
430330214,0.001040,-0.001959,-0.003136,0.01,-0.31,9.81,33.61,0.026632,0.034089,-0.003196
430331217,-0.000025,-0.001959,-0.003136,0.01,-0.33,9.80,33.63,0.026632,0.033024,-0.003196
430332232,-0.001090,-0.001959,-0.002071,-0.01,-0.32,9.81,33.65,0.026632,0.031958,-0.002131
430333235,-0.003221,-0.003024,-0.003136,-0.01,-0.28,9.80,33.62,0.027697,0.029828,-0.003196
430334245,-0.003221,-0.000893,-0.002071,0.02,-0.29,9.83,33.63,0.025567,0.029828,-0.002131
430335264,-0.002156,0.001237,0.000060,0.03,-0.28,9.83,33.62,0.023436,0.030893,0.000000
430336265,-0.000025,0.001237,0.000060,0.01,-0.26,9.75,33.59,0.023436,0.033024,0.000000
430337275,0.002106,-0.000893,-0.002071,0.00,-0.28,9.76,33.58,0.025567,0.035154,-0.002131
430338285,0.002106,-0.000893,-0.004202,0.02,-0.27,9.83,33.56,0.025567,0.035154,-0.004261
430339295,0.002106,0.000172,-0.004202,0.00,-0.26,9.89,33.59,0.024501,0.035154,-0.004261
430340313,0.002106,0.001237,-0.003136,-0.02,-0.29,9.84,33.59,0.023436,0.035154,-0.003196
430341315,0.001040,0.000172,-0.001006,0.00,-0.28,9.82,33.62,0.024501,0.034089,-0.001065
430342335,-0.001090,0.000172,0.000060,0.02,-0.28,9.84,33.64,0.024501,0.031958,0.000000
430343335,-0.001090,0.000172,0.000060,0.04,-0.29,9.82,33.62,0.024501,0.031958,0.000000
430344345,0.001040,0.002302,0.000060,0.05,-0.30,9.84,33.65,0.022371,0.034089,0.000000
