time_us,gyro_x_rad_s,gyro_y_rad_s,gyro_z_rad_s,acc_x_m_s2,acc_y_m_s2,acc_z_m_s2,temperature_c
401011414,0.001196,0.00118,-0.000721,-0.02,-0.3,9.83,35.01
401012130,0.001196,0.003311,-0.000721,-0.02,-0.34,9.88,35.02
401013112,0.001196,0.002245,-0.000721,0.0,-0.34,9.83,35.04
401014114,0.002261,0.000115,-0.000721,0.0,-0.31,9.77,35.07
401015129,0.002261,-0.002016,0.000344,0.01,-0.3,9.8,35.08
401016138,0.002261,-0.002016,-0.000721,0.04,-0.35,9.86,35.02
401017143,0.001196,-0.00095,-0.001787,0.02,-0.3,9.84,34.98
401018160,-0.000935,0.002245,-0.002852,0.0,-0.28,9.83,35.01
401019167,-0.000935,0.003311,-0.000721,0.02,-0.32,9.82,34.99
401020168,-0.002,0.00118,0.000344,0.05,-0.3,9.8,35.0
401021180,-0.004131,-0.00095,-0.000721,0.03,-0.29,9.78,35.02
401022192,-0.005196,-0.00095,0.000344,0.01,-0.31,9.8,35.04
401023203,-0.003065,0.00118,0.001409,0.03,-0.3,9.84,35.01
401024212,-0.002,0.00118,0.002474,0.03,-0.31,9.84,34.97
401025219,-0.002,0.000115,0.000344,0.0,-0.32,9.87,34.96
401026228,-0.002,0.00118,-0.000721,0.0,-0.31,9.85,34.98
401027237,0.00013,0.00118,-0.000721,0.03,-0.31,9.79,35.01
401028248,0.001196,0.00118,-0.002852,0.04,-0.28,9.78,34.99
401029266,0.003326,-0.00095,-0.001787,0.02,-0.3,9.82,35.02
401030267,0.003326,0.000115,0.000344,0.0,-0.29,9.83,35.01
401031277,-0.000935,-0.00095,0.000344,0.02,-0.29,9.83,35.01
401032287,-0.002,-0.00095,-0.000721,0.02,-0.3,9.86,34.99
401033299,-0.002,0.00118,-0.002852,-0.02,-0.28,9.88,34.98
401034308,-0.003065,0.00118,-0.002852,-0.03,-0.28,9.84,34.99
401035317,-0.003065,0.00118,-0.000721,-0.02,-0.31,9.82,34.98
401036328,-0.000935,0.00118,-0.000721,-0.01,-0.29,9.87,35.0
401037337,0.00013,0.00118,-0.000721,0.0,-0.3,9.86,34.98
401038349,0.002261,0.00118,0.000344,-0.02,-0.34,9.8,35.01
401039366,0.001196,0.000115,0.001409,-0.02,-0.34,9.81,35.04
401040367,0.001196,0.000115,0.001409,0.0,-0.29,9.82,35.02
401041378,0.003326,0.000115,0.001409,0.01,-0.27,9.82,35.06
401042387,0.004392,-0.002016,0.000344,0.03,-0.28,9.82,35.04
401043400,0.004392,-0.002016,-0.000721,0.01,-0.3,9.78,35.0
401044459,0.002261,0.000115,-0.001787,-0.02,-0.32,9.81,35.04
401045418,0.00013,0.002245,-0.002852,0.0,-0.28,9.81,34.98
401046427,-0.000935,0.002245,-0.002852,0.04,-0.28,9.79,34.96
401047438,0.00013,0.00118,-0.000721,0.04,-0.3,9.81,34.99
401048447,0.002261,0.00118,0.000344,0.04,-0.31,9.79,35.05
401049466,0.001196,0.00118,0.000344,0.04,-0.32,9.8,35.01
401050467,0.00013,0.00118,-0.000721,0.01,-0.3,9.83,35.01
401051478,-0.000935,-0.00095,0.001409,0.0,-0.31,9.85,35.03
401052487,-0.000935,-0.002016,0.004605,0.0,-0.32,9.83,35.01
401053500,-0.002,-0.002016,0.004605,0.02,-0.31,9.82,34.97
401054507,0.00013,0.000115,0.000344,-0.01,-0.3,9.86,34.95
401055518,0.00013,0.00118,-0.002852,-0.04,-0.3,9.86,34.96
401056527,-0.000935,0.000115,-0.003917,0.0,-0.26,9.83,35.02
401057538,-0.002,0.00118,-0.000721,0.04,-0.24,9.81,35.06
401058548,-0.002,0.002245,0.001409,0.05,-0.29,9.8,35.04
401059565,0.00013,0.003311,0.000344,0.04,-0.31,9.8,35.01
401060568,0.003326,0.002245,-0.000721,0.02,-0.32,9.8,34.98
401061577,0.002261,0.00118,-0.000721,0.02,-0.29,9.8,34.99
401062588,0.001196,0.000115,0.001409,0.02,-0.27,9.83,34.99
401063599,0.001196,0.003311,0.000344,-0.01,-0.28,9.8,35.0
401064608,0.00013,0.005441,-0.000721,0.0,-0.29,9.79,34.95
401065617,0.001196,0.004376,-0.000721,0.01,-0.28,9.86,34.98
401066628,0.001196,0.00118,-0.001787,0.0,-0.28,9.86,34.99
401067637,0.001196,0.00118,-0.003917,0.0,-0.32,9.79,35.04
401068658,0.00013,0.000115,-0.003917,0.0,-0.32,9.79,35.01
401069658,-0.000935,0.000115,-0.001787,0.01,-0.3,9.76,34.99
401070667,-0.000935,0.000115,0.001409,0.02,-0.3,9.79,34.98
401071678,0.00013,-0.00095,0.002474,0.03,-0.29,9.83,35.0
401072687,0.00013,-0.002016,0.002474,0.02,-0.3,9.77,34.96
401073699,-0.000935,-0.004146,-0.000721,0.01,-0.32,9.82,34.99
401074708,-0.000935,-0.003081,-0.002852,0.02,-0.32,9.9,34.97
401075717,0.001196,-0.002016,-0.001787,0.01,-0.32,9.88,34.99
401076728,0.002261,-0.002016,0.000344,0.0,-0.33,9.83,35.0
401077737,0.003326,-0.00095,0.002474,0.01,-0.34,9.81,35.04
401078759,0.001196,0.00118,0.002474,0.02,-0.31,9.82,35.02
401079758,0.00013,0.000115,0.000344,0.01,-0.3,9.84,35.0
401080767,0.001196,-0.002016,0.001409,0.03,-0.28,9.81,34.96
401081778,0.001196,-0.00095,0.000344,0.04,-0.26,9.79,34.99
401082787,0.001196,0.00118,-0.000721,0.03,-0.29,9.81,35.01
401083800,0.001196,0.003311,-0.001787,-0.02,-0.32,9.81,35.03
401084808,0.00013,0.000115,-0.002852,0.01,-0.29,9.81,35.04
401085818,0.001196,-0.002016,-0.000721,0.01,-0.3,9.85,35.01
401086828,0.001196,-0.00095,0.001409,-0.02,-0.33,9.85,35.01
401087837,-0.000935,0.00118,0.000344,0.01,-0.33,9.79,35.0
401088858,-0.003065,0.002245,0.000344,-0.01,-0.29,9.79,35.01
401089858,-0.004131,0.00118,0.000344,-0.03,-0.27,9.79,35.02
401090867,-0.003065,0.00118,0.001409,0.0,-0.29,9.8,34.98
401091878,-0.002,0.002245,-0.000721,0.03,-0.27,9.83,35.01
401092887,-0.000935,-0.00095,-0.002852,0.04,-0.26,9.83,34.98
401093900,0.001196,-0.004146,-0.000721,0.0,-0.29,9.8,35.01
401094907,0.001196,-0.005212,0.001409,-0.02,-0.29,9.8,35.03
401095918,0.00013,-0.003081,0.00354,0.01,-0.28,9.82,34.98
401096927,-0.000935,-0.00095,0.004605,0.03,-0.28,9.81,34.95
401097942,-0.000935,0.000115,0.00354,0.02,-0.29,9.8,34.96
401098962,-0.000935,-0.00095,0.002474,0.01,-0.29,9.77,35.01
401099962,0.00013,-0.003081,0.001409,0.01,-0.3,9.77,35.01
401100974,0.001196,-0.003081,0.000344,0.03,-0.29,9.79,34.98
401101988,0.001196,-0.002016,0.001409,0.03,-0.29,9.83,34.98
401102994,0.00013,-0.00095,0.004605,0.0,-0.29,9.82,34.97
401104007,0.00013,0.00118,0.004605,0.02,-0.3,9.81,34.98
401105019,0.001196,0.002245,0.001409,0.03,-0.3,9.83,35.0
401106026,0.001196,0.00118,-0.000721,0.03,-0.29,9.84,35.0
401107037,0.001196,-0.00095,0.000344,0.04,-0.27,9.83,35.01
401108046,0.00013,-0.00095,0.000344,0.03,-0.28,9.77,35.02
401109066,-0.000935,-0.002016,-0.000721,0.01,-0.3,9.78,34.99
401110068,-0.003065,-0.003081,-0.001787,0.01,-0.33,9.79,34.99
401111081,-0.003065,-0.004146,-0.001787,0.01,-0.32,9.81,35.01
401112090,-0.000935,-0.002016,-0.000721,0.03,-0.26,9.83,34.98
401113099,0.00013,0.000115,0.001409,0.06,-0.26,9.83,35.03
401114108,0.00013,0.002245,0.00354,0.05,-0.3,9.85,35.03
401115116,0.00013,0.00118,0.002474,0.02,-0.32,9.83,35.0
401116130,0.00013,0.00118,0.002474,0.02,-0.29,9.86,35.04
401117138,0.00013,0.000115,0.002474,0.02,-0.29,9.87,35.02
401118149,0.00013,-0.002016,0.000344,0.0,-0.33,9.85,35.01
401119169,0.001196,-0.002016,-0.001787,0.0,-0.29,9.87,35.04
401120160,0.002261,-0.002016,-0.001787,0.04,-0.29,9.84,35.03
401121167,0.002261,0.000115,-0.000721,0.05,-0.33,9.78,34.98
401122181,0.003326,0.002245,0.002474,0.03,-0.31,9.77,34.96
401123191,0.002261,0.002245,0.00354,0.04,-0.31,9.76,34.97
401124204,0.001196,0.000115,0.004605,0.05,-0.3,9.79,34.96
401125211,0.002261,-0.00095,0.00354,0.05,-0.31,9.83,34.98
401126220,0.001196,-0.00095,0.000344,0.03,-0.32,9.85,35.03
401127227,0.00013,-0.00095,-0.002852,-0.01,-0.31,9.86,35.0
401128238,0.001196,0.000115,-0.006048,-0.01,-0.3,9.82,35.02
401129259,0.003326,0.00118,-0.006048,0.03,-0.3,9.78,35.05
401130257,0.004392,0.000115,-0.003917,0.03,-0.29,9.8,35.03
401131268,0.002261,-0.002016,-0.000721,0.01,-0.31,9.83,35.0
401132277,-0.000935,-0.003081,0.000344,0.02,-0.32,9.81,35.0
401133288,-0.003065,-0.00095,-0.001787,0.02,-0.31,9.82,35.01
401134299,-0.002,0.003311,-0.000721,0.02,-0.3,9.82,35.01
401135337,-0.000965,0.00224,0.000346,0.03,-0.29,9.76,34.96
401136319,-0.00203,0.000109,0.000346,0.01,-0.32,9.74,34.94
401137328,0.001166,-0.003087,0.000346,0.02,-0.35,9.76,34.98
401138337,0.004362,-0.003087,-0.001785,0.02,-0.32,9.79,34.98
401139359,0.004362,-0.002022,-0.001785,-0.01,-0.3,9.85,34.93
401140360,0.002231,-0.003087,-0.001785,0.01,-0.32,9.84,34.95
401141367,0.000101,-0.004152,-0.00072,0.03,-0.31,9.82,35.0
401142378,-0.000965,-0.003087,0.001411,0.02,-0.3,9.8,35.0
401143387,-0.00203,-0.002022,0.000346,0.03,-0.33,9.77,34.96
401144400,-0.003095,-0.002022,-0.00072,0.04,-0.31,9.77,34.97
401145407,-0.003095,-0.003087,0.000346,0.01,-0.31,9.78,34.99
401146464,-0.000965,-0.003087,0.001411,0.01,-0.31,9.81,35.01
401147427,0.001166,-0.000956,0.000346,0.03,-0.3,9.85,35.05
401148438,0.002231,-0.002022,-0.00072,0.0,-0.31,9.82,34.98
401149459,0.002231,-0.006283,0.001411,-0.01,-0.29,9.82,34.97
401150457,0.002231,-0.006283,0.001411,0.01,-0.28,9.81,34.97
401151468,0.001166,-0.003087,-0.00072,0.02,-0.31,9.8,34.97
401152477,0.001166,0.001174,-0.00285,0.01,-0.3,9.81,34.94
401153488,0.003297,0.001174,-0.001785,0.02,-0.26,9.83,35.0
401154499,0.003297,0.001174,-0.00072,0.01,-0.29,9.84,35.03
401155508,0.002231,0.000109,0.001411,0.01,-0.3,9.84,35.0
401156517,0.001166,-0.000956,0.001411,0.03,-0.28,9.82,35.0
401157528,-0.000965,0.000109,0.001411,0.04,-0.28,9.79,35.02
401158537,-0.003095,0.00224,0.000346,0.01,-0.29,9.82,35.02
401159559,-0.00416,0.00224,0.001411,-0.03,-0.3,9.83,35.02
401160558,-0.00416,0.000109,0.002476,0.0,-0.28,9.82,35.0
401161567,-0.00203,0.001174,0.001411,0.03,-0.3,9.85,35.02
401162578,-0.000965,0.001174,0.001411,0.03,-0.32,9.81,35.01
401163588,0.000101,0.000109,0.000346,0.01,-0.32,9.84,34.99
401164600,0.001166,0.001174,-0.00072,-0.01,-0.3,9.84,34.97
401165607,0.002231,0.00224,-0.00072,0.02,-0.3,9.78,34.96
401166618,0.001166,0.000109,-0.00072,0.03,-0.31,9.78,34.95
401167627,0.001166,-0.000956,-0.00072,0.02,-0.29,9.83,34.98
401168637,0.001166,0.001174,-0.00285,0.02,-0.31,9.86,35.02
401169658,0.000101,0.00224,-0.003916,0.04,-0.3,9.86,34.98
401170658,-0.000965,0.001174,-0.001785,0.07,-0.29,9.89,35.0
401171667,-0.000965,0.000109,-0.00072,0.04,-0.29,9.88,35.04
401172678,-0.00203,-0.000956,-0.001785,0.04,-0.3,9.85,35.04
401173687,-0.00203,-0.002022,-0.001785,0.05,-0.32,9.81,35.01
401174700,0.000101,-0.002022,0.000346,0.02,-0.32,9.76,34.95
401175707,0.002231,0.000109,0.000346,0.02,-0.31,9.78,34.96
401176718,0.002231,0.001174,-0.00072,0.0,-0.34,9.87,34.96
401177727,0.001166,-0.002022,-0.00285,-0.04,-0.35,9.83,35.0
401178745,0.000101,-0.004152,-0.003916,-0.01,-0.33,9.8,35.05
401179749,0.001166,-0.004152,-0.00285,0.02,-0.29,9.82,35.04
401180757,-0.000965,-0.000956,0.000346,0.02,-0.29,9.79,35.01
401181768,-0.000965,-0.000956,0.000346,0.04,-0.32,9.8,35.02
401182777,0.000101,-0.000956,-0.00072,0.02,-0.3,9.82,35.01
401183788,0.001166,0.000109,-0.00285,-0.01,-0.31,9.87,34.99
401184799,0.000101,0.001174,-0.00072,0.04,-0.3,9.82,35.01
401185808,-0.000965,-0.000956,-0.00072,0.05,-0.28,9.83,35.01
401186817,-0.00203,-0.003087,-0.00072,0.04,-0.29,9.83,34.99
401187828,-0.000965,-0.004152,-0.00072,0.04,-0.29,9.82,34.99
401188846,0.001166,-0.005217,0.000346,0.04,-0.28,9.87,34.99
401189849,0.001166,-0.002022,-0.00072,0.04,-0.31,9.87,34.98
401190858,-0.000965,0.001174,-0.00285,0.05,-0.29,9.81,34.97
401191867,-0.00203,0.00224,-0.00285,0.04,-0.29,9.77,34.97
401192878,-0.000965,0.00224,-0.001785,0.03,-0.3,9.79,35.0
401193887,-0.00203,0.00224,-0.00072,0.03,-0.27,9.84,35.02
401194898,-0.003095,0.00224,-0.00072,0.06,-0.27,9.84,35.01
401195907,-0.00203,0.001174,-0.00072,0.03,-0.27,9.82,35.0
401196918,-0.000965,0.001174,0.000346,-0.02,-0.3,9.83,34.99
401197927,-0.00203,0.001174,-0.00072,-0.02,-0.3,9.85,34.99
401198950,-0.000965,0.001174,-0.001785,-0.03,-0.29,9.83,35.01
401199951,0.000101,-0.002022,-0.003916,-0.01,-0.3,9.82,35.06
401200960,0.001166,-0.002022,-0.003916,0.0,-0.31,9.86,35.05
401201973,0.002231,0.000109,-0.00072,0.02,-0.31,9.81,35.0
401202989,0.000101,-0.000956,0.001411,0.04,-0.3,9.81,35.0
401203996,0.000101,-0.004152,0.002476,0.04,-0.29,9.85,34.94
401205006,-0.000965,-0.004152,0.003541,0.02,-0.27,9.84,35.04
401206019,-0.00203,0.000109,0.002476,0.0,-0.28,9.77,35.06
401207024,-0.00203,0.003305,0.001411,-0.02,-0.28,9.75,35.02
401208039,-0.000965,0.003305,0.001411,0.03,-0.28,9.82,35.04
401209053,0.000101,0.003305,0.002476,0.02,-0.32,9.83,35.06
401210064,-0.000965,0.001174,0.001411,0.0,-0.34,9.84,35.03
401211069,-0.00203,0.001174,-0.00072,0.03,-0.31,9.82,35.02
401212080,-0.000965,0.001174,-0.00285,0.0,-0.28,9.75,35.02
401213088,0.001166,0.001174,-0.00285,0.02,-0.29,9.74,35.05
401214103,0.002231,0.00224,0.000346,0.06,-0.31,9.8,35.0
401215110,0.005427,0.00224,0.001411,0.04,-0.32,9.8,34.99
401216114,0.004362,0.001174,0.000346,0.0,-0.29,9.77,34.98
401217131,0.001166,0.00224,0.001411,-0.01,-0.31,9.76,35.02
401218135,0.000101,0.005435,0.000346,0.02,-0.34,9.79,35.01
401219150,0.000101,0.006501,-0.00072,0.03,-0.29,9.82,34.99
401220156,-0.000965,0.00437,-0.00072,0.01,-0.25,9.82,35.0
401221160,-0.000965,0.003305,0.000346,0.0,-0.27,9.82,34.98
401222167,-0.000965,0.003305,0.000346,0.02,-0.28,9.8,35.01
401223181,0.001166,0.00224,0.000346,0.04,-0.29,9.82,35.03
401224191,0.002231,0.00224,0.001411,0.03,-0.31,9.83,35.05
401225204,-0.000965,0.000109,0.000346,0.01,-0.3,9.82,34.97
401226212,-0.003095,-0.002022,-0.00285,0.0,-0.29,9.82,34.99
401227219,-0.00203,0.000109,-0.003916,0.02,-0.24,9.82,35.01
401228228,-0.000965,0.00224,-0.001785,0.05,-0.24,9.83,34.99
401229246,0.000101,0.001174,-0.00072,0.04,-0.27,9.8,35.0
401230249,0.000101,-0.000956,-0.00072,0.03,-0.26,9.81,34.98
401231258,-0.000965,-0.000956,-0.001785,0.03,-0.28,9.82,35.0
401232267,-0.00203,0.000109,-0.00285,0.02,-0.29,9.81,35.0
401233278,-0.003095,-0.000956,-0.00285,0.03,-0.3,9.81,34.99
401234287,-0.00203,-0.000956,-0.001785,0.03,-0.31,9.82,35.0
401235298,-0.000965,-0.000956,-0.001785,0.02,-0.32,9.8,34.99
401236307,-0.000965,-0.002022,-0.001785,0.0,-0.32,9.78,34.97
401237317,-0.003095,0.000109,-0.00285,0.01,-0.28,9.79,35.01
401238327,-0.003095,0.00224,-0.00072,0.03,-0.26,9.8,34.97
401239365,0.000101,0.00224,0.000346,0.01,-0.31,9.85,34.98
401240351,0.001166,0.000109,0.000346,-0.01,-0.33,9.85,35.04
401241361,0.001166,-0.000956,0.000346,0.01,-0.31,9.81,35.02
401242383,0.001166,-0.000956,0.000346,0.04,-0.28,9.8,35.01
401243377,0.000101,-0.000956,-0.00072,0.02,-0.3,9.84,34.96
401244387,-0.000965,-0.003087,-0.00072,0.0,-0.34,9.83,35.01
401245402,0.000101,-0.002022,-0.00072,-0.01,-0.29,9.78,35.03
401246409,0.002231,-0.000956,0.000346,-0.01,-0.27,9.78,34.99
401247421,0.002231,0.000109,0.001411,0.02,-0.28,9.82,35.04
401248429,0.001166,0.00224,0.001411,0.02,-0.28,9.82,34.98
401249530,0.000101,0.001174,0.000346,0.03,-0.27,9.81,34.96
401250449,0.000101,0.000109,0.000346,0.01,-0.29,9.89,34.95
401251458,0.000101,0.003305,-0.00072,0.02,-0.31,9.86,34.95
401252467,-0.000965,0.003305,-0.001785,0.03,-0.31,9.8,34.97
401253477,-0.00416,0.000109,-0.00072,0.03,-0.29,9.82,35.02
401254488,-0.003095,0.001174,-0.00072,0.04,-0.28,9.84,34.98
401255497,0.000101,0.001174,-0.00285,0.04,-0.29,9.81,35.0
401256508,0.003297,0.00224,-0.003916,0.05,-0.29,9.79,34.99
401257517,0.003297,0.003305,-0.001785,0.04,-0.28,9.84,35.02
401258528,0.000101,0.00437,-0.00072,0.0,-0.28,9.83,35.05
401259564,-0.00203,0.003305,0.000346,0.02,-0.28,9.82,35.07
401260551,-0.00203,0.001174,0.000346,0.05,-0.27,9.86,35.03
401261561,-0.000965,0.000109,-0.00072,0.03,-0.29,9.85,35.01
401262571,-0.000965,-0.000956,-0.00072,0.0,-0.3,9.86,35.01
401263579,0.000101,-0.000956,-0.001785,0.04,-0.29,9.86,35.01
401264618,-0.000948,0.000103,-0.002782,0.05,-0.3,9.79,35.06
401265602,0.001183,-0.000962,-0.000651,0.03,-0.27,9.78,35.05
401266612,0.002248,-0.002028,0.000414,0.02,-0.23,9.84,35.01
401267619,0.001183,-0.000962,0.000414,0.01,-0.29,9.86,35.01
401268631,-0.000948,0.000103,0.000414,0.02,-0.32,9.88,35.02
401269661,-0.000948,-0.002028,0.000414,0.01,-0.32,9.89,35.01
401270647,0.000118,-0.003093,-0.000651,0.02,-0.33,9.84,35.0
401271659,-0.000948,-0.000962,0.000414,0.04,-0.32,9.82,34.99
401272668,0.000118,-0.000962,0.000414,0.02,-0.33,9.88,34.94
401273677,0.001183,-0.000962,-0.000651,0.0,-0.31,9.88,35.01
401274688,0.001183,-0.000962,-0.000651,0.0,-0.3,9.85,35.03
401275697,-0.002013,0.000103,-0.000651,0.01,-0.32,9.84,35.04
401276708,-0.003078,0.001168,-0.000651,0.01,-0.3,9.83,35.0
401277717,-0.003078,0.002233,0.001479,0.03,-0.28,9.8,35.01
401278736,-0.002013,0.001168,0.001479,0.02,-0.3,9.81,35.03
401279754,-0.000948,0.001168,0.001479,0.02,-0.31,9.85,34.99
401280751,0.000118,-0.000962,0.001479,0.04,-0.29,9.87,35.02
401281759,0.000118,-0.003093,0.001479,0.02,-0.27,9.88,34.97
401282769,0.000118,-0.003093,-0.000651,0.02,-0.26,9.84,35.01
401283781,0.000118,0.000103,-0.001716,0.03,-0.28,9.79,35.03
401284789,0.001183,0.002233,-0.001716,0.03,-0.3,9.75,35.01
401285801,0.001183,0.001168,0.001479,0.0,-0.28,9.83,35.03
401286811,-0.000948,0.000103,0.000414,0.03,-0.29,9.84,34.97
401287821,0.000118,-0.003093,0.000414,0.04,-0.28,9.82,34.97
401288842,0.001183,-0.003093,-0.001716,0.0,-0.27,9.86,34.99
401289852,0.001183,0.000103,-0.001716,-0.01,-0.29,9.83,35.03
401290847,0.002248,0.001168,-0.001716,0.02,-0.27,9.74,35.03
401291860,0.001183,0.001168,-0.000651,0.02,-0.28,9.75,35.02
401292867,0.002248,0.000103,0.000414,0.01,-0.32,9.79,34.97
401293878,0.003313,0.000103,0.001479,0.01,-0.3,9.82,34.97
401294887,0.003313,-0.000962,0.000414,0.01,-0.31,9.82,35.01
401295898,0.002248,-0.000962,-0.000651,0.0,-0.32,9.82,35.0
401296907,0.000118,0.000103,-0.002782,0.01,-0.32,9.82,35.01
401297918,0.000118,0.001168,-0.002782,0.03,-0.31,9.85,35.04
401298941,-0.000948,0.001168,-0.000651,0.02,-0.31,9.81,35.04
401299959,0.000118,0.000103,0.000414,0.02,-0.29,9.77,34.98
401300953,0.003313,0.000103,-0.000651,0.02,-0.31,9.8,34.93
401301966,0.002248,0.000103,-0.001716,-0.02,-0.32,9.81,34.96
401302979,0.000118,-0.000962,-0.000651,0.0,-0.29,9.82,34.99
401303987,-0.000948,-0.000962,0.000414,0.05,-0.3,9.81,35.01
401304995,0.001183,-0.003093,0.001479,0.04,-0.33,9.8,35.01
401306011,0.004379,-0.005223,-0.000651,0.01,-0.3,9.83,35.01
401307020,0.006509,-0.003093,-0.001716,-0.01,-0.31,9.86,35.02
401308030,0.004379,0.001168,0.000414,0.01,-0.33,9.8,35.04
401309048,0.000118,0.003299,0.00361,0.03,-0.33,9.75,34.99
401310061,-0.002013,0.001168,0.00361,0.05,-0.33,9.83,34.99
401311061,-0.000948,0.000103,0.002545,0.04,-0.3,9.86,34.99
401312070,0.000118,0.001168,0.002545,0.0,-0.3,9.83,34.97
401313083,-0.003078,0.003299,0.001479,0.01,-0.31,9.86,35.01
401314088,-0.004144,0.003299,-0.000651,0.01,-0.29,9.87,35.06
401315099,-0.002013,0.002233,-0.001716,0.0,-0.28,9.8,35.04
401316106,0.000118,0.001168,-0.001716,0.02,-0.33,9.78,35.02
401317116,0.000118,0.000103,0.000414,0.03,-0.37,9.82,35.01
401318128,0.000118,0.000103,0.001479,0.02,-0.34,9.85,34.99
401319147,-0.000948,0.001168,0.000414,0.02,-0.27,9.89,34.99
401320163,-0.002013,0.002233,-0.000651,0.01,-0.26,9.84,35.0
401321156,-0.000948,0.001168,-0.000651,0.0,-0.29,9.77,35.01
401322161,0.001183,0.000103,0.000414,0.02,-0.28,9.81,35.0
401323168,0.002248,0.000103,0.001479,0.03,-0.28,9.84,34.99
401324181,0.003313,-0.000962,0.001479,0.04,-0.29,9.83,34.99
401325193,0.005444,-0.002028,0.001479,0.03,-0.28,9.81,35.0
401326205,0.005444,-0.002028,0.001479,0.01,-0.3,9.8,34.95
401327215,0.003313,-0.002028,0.001479,0.01,-0.3,9.81,34.95
401328223,0.001183,-0.003093,-0.000651,0.03,-0.27,9.83,34.98
401329242,0.001183,-0.002028,-0.002782,0.04,-0.31,9.82,35.02
401330252,0.002248,0.000103,-0.001716,0.03,-0.33,9.78,35.01
401331247,0.001183,0.002233,-0.000651,0.02,-0.3,9.86,34.99
401332260,0.000118,0.002233,-0.000651,0.0,-0.27,9.89,34.98
401333267,-0.000948,0.001168,-0.001716,0.02,-0.29,9.82,34.99
401334278,-0.000948,-0.000962,-0.001716,0.05,-0.34,9.79,34.95
401335287,0.000118,-0.000962,-0.000651,0.02,-0.33,9.79,34.99
401336298,0.000118,-0.000962,-0.001716,-0.01,-0.3,9.81,35.04
401337307,-0.000948,0.001168,-0.001716,0.03,-0.33,9.82,35.04
401338318,-0.000948,0.002233,-0.002782,0.02,-0.34,9.85,35.04
401339339,-0.000948,0.001168,-0.001716,0.03,-0.31,9.82,35.03
401340355,-0.000948,0.000103,-0.000651,0.03,-0.28,9.79,35.03
401341349,-0.000948,-0.002028,-0.000651,0.0,-0.26,9.79,35.02
401342358,0.001183,-0.000962,0.000414,0.02,-0.28,9.82,35.05
401343371,0.002248,0.002233,-0.001716,0.01,-0.26,9.83,34.99
401344379,0.001183,0.003299,-0.002782,-0.02,-0.25,9.81,35.02
401345391,-0.000948,0.003299,-0.001716,-0.03,-0.3,9.82,35.09
401346399,-0.000948,0.003299,-0.000651,0.01,-0.29,9.86,35.05
401347412,-0.000948,0.001168,-0.001716,0.03,-0.3,9.85,35.04
401348419,-0.002013,-0.000962,-0.001716,0.02,-0.33,9.86,35.01
401349441,-0.002013,-0.003093,0.000414,0.02,-0.33,9.91,35.03
401350451,0.002248,-0.002028,0.000414,0.02,-0.33,9.85,35.02
401351507,0.004379,-0.000962,0.000414,0.01,-0.34,9.78,35.03
401352459,0.003313,-0.002028,-0.000651,0.02,-0.31,9.79,34.99
401353468,0.001183,-0.004158,-0.000651,0.02,-0.28,9.85,35.02
401354477,-0.000948,-0.002028,0.001479,0.0,-0.29,9.85,35.03
401355488,0.001183,0.000103,0.00361,0.0,-0.29,9.82,34.98
401356497,0.002248,0.002233,0.001479,0.02,-0.3,9.87,34.98
401357508,0.003313,-0.000962,-0.001716,0.05,-0.31,9.82,34.95
401358518,0.001183,-0.004158,-0.002782,0.01,-0.31,9.75,34.96
401359539,0.001183,-0.004158,-0.001716,0.01,-0.3,9.78,35.01
401360555,0.003313,-0.000962,-0.000651,0.05,-0.3,9.81,34.99
401361549,0.002248,0.000103,0.002545,0.04,-0.29,9.82,34.99
401362561,-0.000948,0.002233,0.002545,-0.01,-0.29,9.83,34.98
401363569,-0.002013,0.000103,0.001479,0.0,-0.29,9.81,34.98
401364578,0.000118,-0.003093,0.000414,0.02,-0.29,9.82,34.97
401365588,0.000118,-0.004158,0.000414,-0.02,-0.32,9.83,34.96
401366599,0.000118,-0.000962,0.001479,-0.02,-0.31,9.79,35.01
401367611,0.000118,0.003299,0.001479,0.0,-0.28,9.84,35.02
401368621,-0.000948,0.002233,0.000414,0.0,-0.26,9.88,35.03
401369641,-0.003078,0.001168,-0.000651,0.0,-0.27,9.88,35.03
401370651,-0.003078,0.001168,0.000414,0.0,-0.32,9.84,35.04
401371648,-0.004144,0.002233,-0.000651,0.02,-0.34,9.77,35.02
401372657,-0.002013,0.000103,0.000414,0.03,-0.31,9.77,35.0
401373670,0.000118,-0.000962,0.000414,0.04,-0.29,9.82,35.05
401374677,-0.002013,-0.002028,-0.000651,0.02,-0.3,9.83,35.02
401375688,-0.004144,-0.000962,0.000414,0.01,-0.3,9.82,35.01
401376697,-0.003078,-0.000962,0.001479,-0.02,-0.31,9.88,35.01
401377708,-0.000948,-0.002028,0.001479,-0.03,-0.3,9.86,35.04
401378729,0.000118,0.002233,0.000414,0.03,-0.25,9.82,34.97
401379727,0.001183,0.003299,-0.000651,0.03,-0.25,9.83,35.03
401380754,0.001183,0.000103,-0.000651,0.01,-0.28,9.83,35.06
401381751,0.001183,-0.002028,0.000414,0.03,-0.31,9.8,35.06
401382759,0.002248,-0.002028,0.000414,0.02,-0.32,9.85,35.01
401383768,0.002248,-0.002028,-0.000651,0.0,-0.27,9.85,35.01
401384781,0.002248,-0.003093,-0.001716,0.0,-0.26,9.81,35.02
401385789,-0.000948,-0.003093,-0.001716,0.03,-0.3,9.85,35.01
401386801,-0.000948,-0.002028,0.000414,-0.04,-0.28,9.85,35.03
401387809,-0.002013,0.001168,0.000414,0.01,-0.29,9.86,35.03
401388832,-0.000948,0.001168,-0.000651,0.02,-0.29,9.9,35.01
401389841,0.000118,0.001168,-0.000651,0.0,-0.3,9.86,35.05
401390838,0.000118,0.001168,-0.000651,-0.01,-0.3,9.86,34.98
401391847,-0.000948,0.001168,-0.000651,0.02,-0.29,9.87,34.99
401392858,-0.002013,0.002233,-0.000651,0.01,-0.3,9.86,34.99
401393896,-0.00311,0.002255,-0.000638,-0.01,-0.33,9.86,35.01
401394881,-0.00098,0.00332,0.001493,0.0,-0.3,9.89,35.0
401395887,-0.00098,0.00119,0.002558,0.01,-0.28,9.82,35.02
401396898,-0.002045,-0.000941,0.002558,0.03,-0.28,9.78,35.02
401397907,8.5e-05,-0.002006,0.001493,0.03,-0.3,9.81,35.01
401398954,0.002216,-0.002006,0.000427,0.01,-0.31,9.83,35.01
401399981,0.002216,0.000125,0.000427,0.01,-0.3,9.81,34.97
401400955,8.5e-05,0.00119,0.001493,0.02,-0.31,9.83,35.01
401401951,-0.00098,0.000125,0.001493,0.03,-0.33,9.83,35.02
401402961,8.5e-05,0.000125,0.000427,0.01,-0.31,9.82,35.05
401403979,0.002216,0.00119,-0.001703,0.0,-0.3,9.84,35.04
401404993,0.002216,0.000125,-0.001703,0.01,-0.3,9.86,35.0
401405997,8.5e-05,0.000125,0.000427,0.03,-0.28,9.81,35.0
401407006,-0.00098,0.00119,0.001493,0.03,-0.3,9.77,34.96
401408019,-0.00311,-0.000941,-0.000638,-0.01,-0.32,9.78,35.0
401409038,-0.00311,-0.003071,-0.002768,0.0,-0.31,9.82,34.98
401410039,-0.002045,-0.002006,-0.001703,0.0,-0.31,9.83,35.01
401411044,-0.00098,0.000125,-0.001703,0.0,-0.32,9.79,35.05
401412064,-0.00098,0.000125,-0.000638,0.01,-0.3,9.78,35.01
401413069,-0.002045,0.000125,0.002558,0.02,-0.3,9.82,35.03
401414083,-0.00098,0.00332,0.002558,0.02,-0.28,9.87,35.01
401415090,-0.00098,0.005451,-0.001703,0.01,-0.28,9.84,34.97
401416104,-0.00098,0.00332,-0.004899,0.03,-0.31,9.8,34.99
401417110,8.5e-05,-0.000941,-0.005964,0.03,-0.29,9.8,35.05
401418128,-0.00098,-0.002006,-0.003834,0.03,-0.29,9.82,35.04
401419141,-0.002045,0.000125,-0.001703,0.02,-0.31,9.83,35.03
401420138,-0.00098,0.002255,-0.001703,0.01,-0.3,9.88,35.04
401421143,8.5e-05,0.002255,0.000427,0.01,-0.31,9.89,35.02
401422155,8.5e-05,-0.000941,0.001493,0.0,-0.32,9.82,35.03
401423161,-0.00311,-0.002006,0.000427,0.0,-0.29,9.8,35.05
401424170,-0.00311,-0.002006,-0.000638,0.0,-0.27,9.81,35.02
401425183,-0.002045,-0.000941,-0.003834,0.02,-0.26,9.82,35.01
401426192,-0.00098,0.002255,-0.004899,0.03,-0.25,9.83,35.02
401427204,8.5e-05,0.00119,-0.002768,0.01,-0.28,9.8,35.04
401428212,-0.00098,0.00119,0.001493,0.01,-0.33,9.77,35.03
401429231,-0.00098,0.002255,0.003623,0.02,-0.34,9.78,35.03
401430228,-0.00098,0.002255,0.002558,0.02,-0.32,9.82,34.98
401431239,-0.00098,0.00332,0.000427,0.03,-0.31,9.81,35.0
401432248,0.001151,0.00119,-0.001703,-0.01,-0.29,9.83,34.98
401433259,0.002216,0.00119,-0.002768,-0.02,-0.29,9.83,34.98
401434268,0.001151,0.000125,-0.002768,0.04,-0.31,9.77,34.94
401435279,0.001151,-0.002006,-0.000638,0.06,-0.34,9.8,34.99
401436288,0.002216,-0.003071,0.001493,0.03,-0.33,9.83,35.02
401437299,0.003281,-0.003071,0.001493,0.0,-0.31,9.83,35.0
401438308,0.003281,-0.000941,0.000427,0.0,-0.31,9.85,35.04
401439328,0.003281,-0.000941,0.000427,0.02,-0.29,9.82,35.05
401440329,0.002216,-0.002006,0.000427,0.03,-0.27,9.77,34.99
401441339,8.5e-05,-0.004137,0.001493,0.02,-0.3,9.79,34.99
401442348,-0.002045,-0.003071,0.000427,0.03,-0.29,9.83,34.94
401443359,-0.00311,-0.002006,-0.001703,0.07,-0.27,9.81,34.96
401444369,-0.002045,-0.000941,-0.002768,0.06,-0.27,9.81,35.0
401445379,-0.00098,-0.002006,-0.003834,0.03,-0.28,9.81,35.01
401446388,0.001151,-0.004137,-0.002768,0.01,-0.3,9.81,35.04
401447422,0.004347,-0.003071,-0.000638,0.02,-0.28,9.84,35.04
401448408,0.004347,-0.002006,-0.000638,0.04,-0.29,9.82,35.04
401449429,0.003281,-0.000941,-0.002768,0.03,-0.29,9.8,35.04
401450429,0.001151,-0.002006,-0.002768,0.03,-0.28,9.82,35.03
401451438,8.5e-05,-0.002006,-0.001703,0.04,-0.29,9.82,35.0
401452449,0.001151,0.000125,-0.000638,0.02,-0.31,9.82,35.03
401453458,0.001151,0.00119,0.001493,0.0,-0.3,9.85,35.04
401454514,0.001151,0.002255,0.002558,0.0,-0.29,9.83,35.06
401455478,8.5e-05,0.00332,0.002558,0.03,-0.3,9.81,35.03
401456489,0.001151,0.002255,0.002558,0.05,-0.31,9.8,35.01
401457498,0.003281,0.002255,0.001493,0.03,-0.31,9.82,34.99
401458509,0.003281,0.00119,0.000427,0.02,-0.29,9.82,34.98
401459529,0.001151,0.00119,0.000427,0.02,-0.29,9.81,34.96
401460528,8.5e-05,0.002255,0.000427,0.01,-0.28,9.85,34.98
401461539,8.5e-05,0.00119,0.000427,0.0,-0.3,9.86,35.0
401462549,0.002216,-0.000941,0.000427,0.01,-0.33,9.86,34.96
401463558,8.5e-05,0.000125,-0.000638,0.04,-0.31,9.88,35.03
401464571,-0.002045,0.002255,0.000427,0.02,-0.31,9.86,35.04
401465578,-0.00311,0.002255,0.001493,0.0,-0.31,9.83,35.05
401466589,8.5e-05,0.00119,0.000427,0.01,-0.28,9.81,35.03
401467598,0.002216,0.00119,0.000427,0.01,-0.3,9.78,35.04
401468609,0.001151,0.00119,0.000427,0.04,-0.32,9.82,35.03
401469630,-0.00311,0.000125,-0.002768,0.02,-0.31,9.87,35.0
401470628,-0.00311,0.00119,-0.004899,-0.02,-0.3,9.85,35.03
401471639,8.5e-05,0.00119,-0.002768,0.01,-0.29,9.85,34.99
401472648,8.5e-05,0.000125,-0.001703,0.02,-0.27,9.86,35.03
401473659,-0.00098,-0.002006,-0.001703,0.0,-0.27,9.81,35.04
401474668,-0.002045,-0.000941,-0.002768,0.01,-0.31,9.8,34.99
401475679,-0.00311,0.000125,-0.002768,0.03,-0.33,9.78,35.0
401476688,-0.00098,0.000125,-0.000638,0.05,-0.33,9.75,35.05
401477699,-0.00098,0.00119,-0.001703,0.04,-0.33,9.78,35.01
401478719,-0.00098,-0.000941,-0.001703,0.04,-0.3,9.82,35.04
401479720,0.001151,-0.000941,-0.000638,0.04,-0.29,9.79,35.01
401480729,0.001151,0.000125,-0.000638,0.03,-0.3,9.8,35.0
401481738,0.001151,-0.000941,0.000427,0.05,-0.29,9.85,35.06
401482749,0.001151,0.00119,-0.001703,0.05,-0.31,9.83,35.0
401483758,0.001151,0.00332,-0.003834,0.04,-0.31,9.85,34.92
401484771,8.5e-05,0.00332,-0.002768,0.04,-0.31,9.85,34.96
401485778,8.5e-05,0.00119,-0.002768,0.01,-0.31,9.84,34.99
401486789,-0.00098,0.000125,-0.000638,0.0,-0.28,9.86,35.03
401487798,-0.002045,-0.000941,0.002558,0.02,-0.28,9.85,35.03
401488818,-0.002045,0.000125,0.000427,0.04,-0.29,9.78,35.04
401489821,-0.002045,0.000125,0.001493,0.02,-0.3,9.79,35.04
401490828,8.5e-05,-0.000941,0.002558,0.0,-0.33,9.82,34.98
401491839,8.5e-05,-0.000941,0.002558,0.01,-0.31,9.86,34.98
401492848,0.001151,0.000125,0.000427,0.04,-0.28,9.86,35.04
401493859,0.001151,-0.000941,-0.001703,0.03,-0.32,9.84,35.05
401494868,-0.00098,-0.002006,-0.002768,0.02,-0.34,9.82,35.02
401495879,-0.00098,-0.000941,-0.001703,-0.01,-0.33,9.8,35.02
401496888,0.002216,-0.002006,-0.001703,-0.01,-0.31,9.82,35.03
401497899,0.003281,-0.003071,0.000427,0.02,-0.28,9.82,35.02
401498919,0.001151,-0.003071,0.000427,0.01,-0.27,9.83,34.99
401499921,8.5e-05,-0.000941,0.001493,0.01,-0.28,9.83,35.02
401500928,8.5e-05,0.000125,0.001493,0.02,-0.29,9.77,35.03
401501941,8.5e-05,-0.003071,0.001493,0.0,-0.3,9.77,34.98
401502951,8.5e-05,-0.002006,0.002558,-0.03,-0.27,9.85,34.99
401503962,-0.00098,0.000125,0.003623,-0.04,-0.26,9.85,34.98
401504979,-0.00098,0.00119,0.003623,-0.01,-0.25,9.8,35.03
401505989,-0.00311,0.000125,0.000427,0.04,-0.24,9.79,35.05
401506994,-0.002045,-0.002006,-0.002768,0.06,-0.29,9.8,35.06
401508008,-0.00098,-0.003071,-0.003834,0.06,-0.31,9.87,35.02
401509031,8.5e-05,-0.003071,-0.003834,0.08,-0.27,9.81,35.0
401510030,0.001151,-0.003071,-0.003834,0.04,-0.25,9.74,35.02
401511037,0.001151,-0.003071,-0.001703,-0.02,-0.28,9.79,35.02
401512047,8.5e-05,-0.003071,-0.000638,0.0,-0.31,9.85,35.02
401513060,0.001151,-0.000941,0.001493,0.04,-0.33,9.83,34.99
401514068,0.002216,0.002255,0.001493,0.05,-0.34,9.82,35.03
401515084,0.001151,0.002255,-0.000638,0.07,-0.33,9.86,35.0
401516090,0.002216,-0.000941,-0.000638,0.06,-0.27,9.83,34.99
401517101,0.003281,-0.002006,0.000427,0.03,-0.26,9.8,35.02
401518112,0.003281,-0.002006,-0.000638,0.02,-0.31,9.8,35.08
401519127,0.001151,-0.000941,-0.000638,0.02,-0.32,9.78,35.06
401520131,-0.00311,0.00119,0.000427,0.02,-0.3,9.8,35.01
401521140,-0.00311,0.002255,-0.000638,0.04,-0.3,9.81,34.97
401522146,8.5e-05,0.00119,-0.002768,0.04,-0.27,9.8,35.01
401523186,0.00221,-0.000922,-0.002713,0.0,-0.26,9.85,35.04
401524164,0.001144,-0.001987,-0.000582,0.01,-0.26,9.83,35.0
401525170,7.9e-05,-0.001987,0.002614,0.04,-0.27,9.82,35.04
401526183,-0.000986,-0.000922,0.002614,0.01,-0.31,9.85,35.04
401527192,-0.000986,0.000144,0.001548,-0.02,-0.3,9.85,35.02
401528204,-0.000986,0.001209,0.001548,0.01,-0.29,9.84,35.06
401529222,7.9e-05,-0.000922,0.001548,0.0,-0.31,9.83,35.07
401530222,7.9e-05,-0.000922,0.002614,0.02,-0.29,9.83,35.02
401531229,7.9e-05,0.000144,0.001548,0.04,-0.28,9.84,35.05
401532238,0.001144,0.000144,0.001548,0.02,-0.29,9.81,35.06
401533249,0.005406,0.000144,0.000483,0.02,-0.29,9.79,35.01
401534258,0.00434,-0.000922,-0.000582,0.02,-0.28,9.82,35.03
401535269,7.9e-05,-0.000922,0.000483,0.03,-0.29,9.85,35.01
401536278,-0.003117,-0.000922,0.000483,0.01,-0.28,9.85,35.0
401537289,-0.002051,-0.001987,0.001548,0.0,-0.27,9.86,35.04
401538298,7.9e-05,-0.001987,0.001548,0.03,-0.29,9.87,35.05
401539318,0.00221,-0.000922,0.000483,0.01,-0.3,9.85,35.1
401540321,0.00221,-0.000922,-0.002713,-0.01,-0.3,9.78,35.04
401541328,0.00221,-0.003052,-0.003778,-0.01,-0.32,9.76,34.97
401542339,0.00221,-0.001987,-0.002713,0.0,-0.31,9.82,35.0
401543348,0.00221,-0.000922,-0.001647,0.0,-0.3,9.85,34.95
401544359,0.001144,-0.000922,-0.001647,0.01,-0.26,9.85,34.99
401545369,7.9e-05,-0.001987,-0.000582,0.05,-0.26,9.87,35.0
401546379,7.9e-05,-0.001987,0.000483,0.05,-0.29,9.89,35.0
401547388,-0.002051,-0.001987,0.000483,0.01,-0.27,9.9,35.01
401548399,-0.002051,-0.000922,-0.000582,0.01,-0.28,9.86,34.98
401549419,-0.002051,-0.001987,-0.001647,0.01,-0.3,9.83,35.0
401550420,-0.002051,-0.001987,-0.002713,0.02,-0.29,9.8,35.01
401551429,-0.000986,-0.003052,-0.004843,0.02,-0.28,9.85,35.04
401552438,0.001144,-0.003052,-0.003778,0.02,-0.27,9.88,35.01
401553449,0.00221,-0.003052,-0.000582,0.0,-0.3,9.86,35.0
401554458,0.001144,-0.001987,0.000483,0.0,-0.3,9.87,34.98
401555469,0.00221,0.002274,-0.000582,0.0,-0.29,9.84,34.99
401556528,0.00221,0.00334,-0.001647,0.01,-0.31,9.84,35.01
401557489,7.9e-05,0.000144,-0.000582,0.03,-0.31,9.81,34.96
401558498,-0.004182,-0.000922,0.000483,0.04,-0.29,9.8,34.99
401559519,-0.005247,-0.000922,0.001548,0.02,-0.28,9.83,35.01
401560520,-0.002051,-0.000922,0.001548,0.0,-0.28,9.84,35.01
401561529,-0.000986,-0.001987,0.000483,0.03,-0.3,9.83,34.98
401562538,-0.000986,-0.001987,0.000483,0.03,-0.28,9.8,35.0
401563549,-0.002051,-0.000922,0.001548,-0.01,-0.27,9.82,34.99
401564558,-0.002051,0.002274,-0.000582,0.01,-0.28,9.86,34.96
401565571,7.9e-05,0.002274,-0.000582,0.02,-0.29,9.91,34.98
401566578,7.9e-05,0.001209,0.000483,0.01,-0.3,9.88,34.99
401567589,7.9e-05,0.001209,-0.000582,0.01,-0.33,9.79,35.0
401568598,7.9e-05,0.00334,-0.003778,0.02,-0.32,9.8,34.94
401569618,7.9e-05,0.00334,-0.003778,0.02,-0.28,9.82,34.95
401570620,-0.000986,0.002274,-0.002713,0.02,-0.29,9.83,34.99
401571628,-0.002051,0.000144,-0.000582,0.01,-0.31,9.82,35.01
401572639,-0.002051,-0.000922,0.001548,0.0,-0.29,9.79,34.98
401573648,-0.000986,-0.000922,0.000483,-0.01,-0.31,9.8,35.0
401574659,-0.002051,-0.000922,-0.000582,0.01,-0.32,9.78,35.04
401575668,-0.002051,0.000144,0.001548,0.03,-0.29,9.78,35.01
401576679,-0.002051,0.002274,0.002614,0.02,-0.3,9.83,35.0
401577688,-0.000986,-0.000922,0.001548,0.01,-0.29,9.82,35.0
401578706,0.001144,-0.004117,0.002614,0.02,-0.31,9.77,35.04
401579709,0.003275,-0.001987,0.002614,0.0,-0.31,9.79,35.02
401580720,0.003275,-0.000922,0.001548,-0.02,-0.31,9.82,35.02
401581729,0.001144,-0.003052,0.000483,0.01,-0.31,9.83,35.03
401582738,7.9e-05,-0.003052,0.001548,0.05,-0.31,9.84,35.03
401583749,7.9e-05,-0.000922,0.001548,0.04,-0.32,9.82,35.02
401584758,-0.002051,0.001209,-0.000582,0.01,-0.31,9.83,35.05
401585771,-0.003117,0.001209,-0.002713,0.01,-0.29,9.85,35.01
401586778,-0.004182,-0.000922,-0.000582,0.0,-0.27,9.83,35.01
401587788,-0.003117,0.000144,0.002614,0.01,-0.28,9.85,34.95
401588808,-0.000986,-0.000922,0.004744,0.02,-0.29,9.88,34.95
401589809,7.9e-05,0.000144,0.002614,0.04,-0.28,9.82,35.0
401590820,-0.000986,-0.000922,0.001548,0.01,-0.31,9.82,35.01
401591828,-0.000986,-0.001987,0.000483,0.01,-0.3,9.88,35.02
401592838,7.9e-05,0.001209,-0.000582,0.03,-0.28,9.85,35.03
401593849,0.001144,0.00334,-0.000582,0.02,-0.28,9.85,35.04
401594858,0.003275,0.002274,0.000483,0.02,-0.29,9.88,35.05
401595869,0.003275,-0.000922,0.000483,0.02,-0.31,9.82,34.99
401596878,0.00221,-0.003052,-0.000582,0.01,-0.31,9.79,35.03
401597888,7.9e-05,-0.003052,-0.001647,0.03,-0.31,9.82,35.03
401598908,7.9e-05,-0.001987,-0.001647,0.03,-0.31,9.85,34.99
401599909,0.001144,0.001209,-0.000582,0.0,-0.31,9.79,35.01
401600920,0.001144,0.00334,-0.001647,0.01,-0.29,9.76,34.97
401601928,7.9e-05,0.002274,-0.000582,0.0,-0.28,9.81,34.96
401602941,-0.000986,0.000144,-0.000582,0.03,-0.28,9.84,34.96
401603951,7.9e-05,-0.000922,-0.000582,0.06,-0.29,9.8,35.01
401604961,7.9e-05,-0.001987,0.000483,0.03,-0.31,9.77,34.99
401605981,7.9e-05,-0.001987,0.000483,0.03,-0.29,9.82,35.01
401606987,7.9e-05,-0.001987,0.000483,0.02,-0.29,9.84,35.04
401607994,7.9e-05,-0.000922,-0.001647,0.01,-0.3,9.84,35.02
401609017,0.00221,0.001209,-0.003778,0.03,-0.28,9.8,35.03
401610019,0.005406,0.002274,-0.002713,0.03,-0.3,9.8,35.04
401611027,0.00434,0.001209,0.001548,0.0,-0.32,9.85,35.02
401612040,0.001144,0.001209,0.002614,-0.01,-0.32,9.82,35.06
401613044,-0.000986,0.002274,0.002614,0.02,-0.31,9.81,35.02
401614066,-0.002051,0.001209,0.003679,0.03,-0.3,9.85,35.01
401615068,-0.000986,0.001209,0.002614,0.01,-0.31,9.83,34.98
401616083,0.001144,0.001209,-0.000582,0.0,-0.32,9.78,34.98
401617087,0.001144,0.000144,-0.002713,0.0,-0.33,9.79,34.99
401618103,0.001144,-0.000922,-0.001647,0.0,-0.32,9.82,35.04
401619120,0.00221,-0.000922,-0.000582,0.02,-0.31,9.83,35.07
401620116,7.9e-05,-0.000922,0.000483,0.02,-0.3,9.85,35.06
401621130,-0.000986,-0.001987,0.000483,0.01,-0.3,9.82,35.07
401622140,7.9e-05,-0.000922,-0.000582,0.01,-0.29,9.78,35.0
401623145,7.9e-05,0.000144,-0.000582,0.03,-0.3,9.81,35.0
401624158,0.001144,-0.000922,-0.000582,0.05,-0.33,9.82,34.99
401625160,0.001144,-0.001987,-0.000582,0.03,-0.34,9.8,35.05
401626171,0.001144,-0.000922,-0.000582,0.0,-0.31,9.82,35.08
401627181,0.001144,0.001209,-0.000582,0.02,-0.27,9.83,35.08
401628193,0.001144,0.00334,-0.001647,0.03,-0.29,9.83,35.02
401629212,0.00221,0.002274,-0.000582,-0.01,-0.34,9.81,34.98
401630212,0.003275,0.002274,-0.001647,0.01,-0.31,9.79,34.98
401631223,0.001144,0.001209,0.000483,0.04,-0.26,9.85,35.01
401632229,-0.002051,0.001209,0.002614,0.06,-0.27,9.88,35.02
401633238,-0.000986,0.001209,0.003679,0.06,-0.28,9.89,35.01
401634249,0.00221,0.000144,0.003679,0.04,-0.31,9.87,35.0
401635258,0.001144,-0.000922,0.002614,0.04,-0.32,9.81,34.98
401636269,-0.000986,-0.001987,0.000483,0.04,-0.32,9.83,35.02
401637278,-0.002051,0.000144,-0.000582,0.06,-0.32,9.83,35.01
401638289,-0.002051,0.002274,0.001548,0.05,-0.31,9.77,34.98
401639308,-0.000986,0.002274,0.002614,0.01,-0.29,9.78,34.97
401640308,-0.002051,0.000144,0.002614,0.02,-0.27,9.85,35.01
401641321,-0.000986,-0.000922,0.001548,0.04,-0.27,9.85,34.99
401642328,7.9e-05,0.000144,0.001548,0.02,-0.29,9.82,35.0
401643339,7.9e-05,0.001209,0.000483,0.02,-0.32,9.8,34.99
401644348,7.9e-05,0.002274,0.002614,0.03,-0.3,9.8,34.99
401645359,7.9e-05,0.002274,0.003679,0.02,-0.3,9.8,34.99
401646369,-0.003117,0.00334,0.002614,0.02,-0.32,9.8,34.98
401647379,-0.004182,0.002274,0.000483,0.02,-0.29,9.82,34.95
401648388,-0.002051,0.002274,-0.000582,0.02,-0.29,9.82,34.99
401649406,0.001144,0.002274,-0.000582,0.01,-0.31,9.82,34.99
401650409,7.9e-05,0.00334,0.000483,0.04,-0.28,9.75,35.01
401651420,-0.002051,0.00334,0.002614,0.05,-0.29,9.74,34.99
401652457,-0.003113,0.003345,0.002582,0.01,-0.33,9.8,34.95
401653441,-0.004178,0.00228,0.001516,0.0,-0.3,9.81,34.96
401654449,-0.002048,0.000149,-0.000614,0.03,-0.31,9.81,35.03
401655458,-0.000983,-0.000916,-0.00168,0.02,-0.35,9.81,35.04
401656469,8.3e-05,-0.001981,0.001516,0.01,-0.34,9.81,35.05
401657478,8.3e-05,-0.003046,0.002582,0.03,-0.31,9.81,35.04
401658543,-0.002048,-0.003046,0.001516,0.04,-0.32,9.82,35.0
401659508,-0.000983,-0.003046,-0.000614,0.01,-0.34,9.84,35.02
401660508,0.001148,-0.000916,0.000451,0.02,-0.32,9.83,35.0
401661521,0.002213,0.000149,0.001516,0.04,-0.28,9.84,35.0
401662528,0.002213,-0.000916,0.002582,0.02,-0.27,9.88,35.01
401663553,0.004344,-0.000916,0.001516,-0.02,-0.3,9.87,35.01
401664548,0.003278,-0.000916,-0.000614,0.0,-0.31,9.8,35.01
401665559,8.3e-05,-0.000916,-0.00168,0.0,-0.29,9.8,35.0
401666569,-0.000983,-0.003046,-0.00168,0.02,-0.3,9.85,35.05
401667579,0.001148,-0.003046,-0.000614,0.04,-0.29,9.89,35.02
401668589,8.3e-05,-0.001981,0.002582,0.03,-0.26,9.87,35.04
401669608,-0.000983,-0.001981,0.002582,0.04,-0.28,9.82,35.04
401670608,-0.000983,-0.000916,0.000451,0.04,-0.32,9.84,35.02
401671621,8.3e-05,-0.000916,0.000451,0.0,-0.32,9.86,35.0
401672628,0.001148,0.000149,0.001516,0.01,-0.3,9.82,35.03
401673638,0.001148,0.000149,0.002582,0.04,-0.29,9.84,35.09
401674649,-0.000983,0.000149,0.001516,0.04,-0.29,9.83,35.05
401675658,-0.000983,0.000149,-0.000614,0.04,-0.31,9.78,35.01
401676669,8.3e-05,-0.000916,-0.00168,0.03,-0.29,9.76,35.0
401677678,0.001148,-0.000916,-0.00168,0.01,-0.3,9.76,34.97
401678698,0.002213,-0.003046,-0.002745,0.0,-0.28,9.77,34.98
401679698,0.003278,-0.003046,-0.00381,-0.01,-0.27,9.81,35.0
401680709,0.003278,-0.003046,-0.00381,0.0,-0.31,9.85,35.04
401681720,0.002213,-0.000916,-0.002745,0.04,-0.29,9.81,35.06
401682729,0.001148,0.000149,-0.00168,0.06,-0.28,9.84,35.0
401683738,0.001148,-0.000916,-0.00168,0.06,-0.3,9.87,34.98
401684749,0.002213,0.000149,-0.00381,0.04,-0.29,9.84,35.04
401685758,0.002213,0.000149,-0.00381,0.02,-0.28,9.85,35.0
401686771,0.002213,-0.000916,-0.00381,0.01,-0.3,9.85,34.99
401687778,0.002213,-0.000916,-0.002745,0.01,-0.29,9.82,35.03
401688798,0.002213,0.000149,-0.00168,0.03,-0.28,9.8,35.01
401689799,0.002213,0.00228,0.001516,0.03,-0.33,9.77,35.03
401690808,-0.000983,0.000149,0.002582,0.02,-0.3,9.84,35.07
401691821,8.3e-05,0.000149,0.001516,0.02,-0.28,9.79,35.06
401692828,0.001148,0.001215,0.000451,0.01,-0.28,9.79,35.04
401693839,0.001148,0.001215,0.000451,-0.01,-0.29,9.83,35.04
401694848,0.002213,0.001215,-0.000614,0.02,-0.3,9.84,35.01
401695859,0.003278,0.001215,-0.000614,0.01,-0.3,9.82,34.98
401696868,0.002213,0.000149,0.000451,0.01,-0.3,9.82,34.98
401697879,0.001148,0.000149,-0.000614,0.02,-0.3,9.84,35.01
401698898,8.3e-05,0.001215,0.000451,0.01,-0.28,9.85,35.06
401699899,-0.000983,0.000149,0.000451,0.01,-0.28,9.82,35.04
401700908,0.001148,0.000149,-0.000614,0.01,-0.31,9.83,34.99
401701921,0.002213,0.00228,-0.000614,0.01,-0.32,9.84,34.98
401702928,0.001148,0.00228,-0.000614,0.04,-0.32,9.82,34.96
401703941,0.001148,0.001215,-0.000614,0.04,-0.29,9.83,35.04
401704951,0.001148,-0.000916,-0.00168,0.01,-0.28,9.83,35.05
401705961,8.3e-05,-0.003046,0.000451,0.02,-0.29,9.86,34.99
401706978,8.3e-05,-0.001981,0.000451,0.02,-0.3,9.85,35.0
401707989,8.3e-05,0.000149,0.000451,0.01,-0.31,9.8,34.99
401709008,8.3e-05,-0.001981,0.000451,0.03,-0.29,9.8,35.04
401710008,0.001148,-0.005177,0.000451,0.02,-0.27,9.83,35.03
401711021,0.001148,-0.003046,-0.00168,-0.02,-0.29,9.82,35.03
401712031,0.001148,0.001215,-0.00381,-0.02,-0.31,9.81,35.03
401713037,0.002213,0.003345,-0.00168,-0.02,-0.3,9.83,35.01
401714048,0.003278,0.00228,0.001516,0.0,-0.3,9.81,35.0
401715061,0.002213,0.000149,0.000451,0.03,-0.3,9.78,35.0
401716069,0.001148,-0.000916,-0.000614,0.01,-0.31,9.82,35.01
401717085,0.001148,-0.000916,-0.00168,0.01,-0.34,9.85,34.98
401718093,0.001148,-0.001981,0.000451,0.01,-0.32,9.82,35.01
401719112,0.001148,0.000149,0.001516,0.02,-0.31,9.8,34.99
401720106,0.001148,0.000149,0.002582,0.02,-0.3,9.84,35.03
401721120,0.001148,0.000149,0.001516,0.01,-0.31,9.79,35.04
401722129,0.003278,-0.000916,0.001516,0.02,-0.32,9.73,34.99
401723142,8.3e-05,-0.001981,-0.000614,0.02,-0.3,9.78,34.98
401724145,-0.002048,-0.000916,-0.002745,0.02,-0.29,9.82,34.99
401725157,-0.000983,0.000149,-0.002745,0.03,-0.31,9.82,35.05
401726160,8.3e-05,0.001215,-0.002745,0.02,-0.29,9.8,35.05
401727171,-0.002048,0.000149,-0.002745,-0.01,-0.28,9.82,35.02
401728181,8.3e-05,-0.000916,-0.000614,-0.03,-0.28,9.79,34.96
401729201,0.003278,-0.000916,-0.00168,0.01,-0.29,9.81,34.95
401730204,0.002213,0.000149,-0.00168,0.03,-0.29,9.81,34.93
401731212,-0.000983,0.000149,-0.00168,-0.01,-0.3,9.83,35.01
401732223,-0.002048,0.000149,-0.000614,-0.02,-0.29,9.86,35.08
401733228,-0.002048,-0.000916,0.000451,-0.02,-0.3,9.88,35.03
401734239,-0.000983,-0.001981,0.000451,0.01,-0.32,9.87,35.05
401735248,8.3e-05,0.000149,0.000451,0.04,-0.32,9.85,35.0
401736259,0.001148,0.000149,0.001516,0.03,-0.32,9.84,34.96
401737268,-0.000983,0.000149,0.001516,0.03,-0.3,9.81,34.97
401738279,-0.002048,0.000149,-0.000614,0.01,-0.28,9.82,35.03
401739298,-0.000983,-0.000916,-0.00168,-0.01,-0.28,9.83,35.06
401740299,8.3e-05,-0.000916,-0.00168,0.0,-0.3,9.86,35.03
401741308,8.3e-05,-0.000916,-0.000614,0.03,-0.28,9.87,35.03
401742321,0.001148,0.000149,0.001516,0.04,-0.29,9.84,35.05
401743328,8.3e-05,0.001215,0.001516,0.02,-0.3,9.86,35.03
401744338,0.001148,0.000149,0.002582,0.01,-0.31,9.82,34.98
401745348,8.3e-05,-0.001981,0.001516,0.02,-0.29,9.81,34.99
401746358,-0.002048,-0.003046,0.001516,0.03,-0.29,9.82,35.02
401747369,-0.002048,0.000149,-0.000614,0.04,-0.28,9.79,35.01
401748379,8.3e-05,0.001215,-0.00168,0.03,-0.27,9.75,35.0
401749399,-0.002048,0.000149,-0.00168,0.02,-0.28,9.74,35.0
401750398,-0.002048,-0.000916,-0.000614,0.01,-0.28,9.75,34.99
401751409,8.3e-05,-0.001981,0.001516,0.01,-0.28,9.79,34.99
401752420,8.3e-05,-0.000916,0.002582,-0.02,-0.29,9.8,35.01
401753429,8.3e-05,0.004411,0.002582,0.0,-0.3,9.82,35.05
401754475,-0.000983,0.007606,0.001516,0.02,-0.29,9.82,35.05
401755449,8.3e-05,0.006541,0.001516,0.0,-0.27,9.86,35.02
401756458,8.3e-05,0.003345,0.000451,-0.01,-0.27,9.88,34.99
401757469,0.002213,0.000149,0.000451,-0.01,-0.28,9.83,34.97
401758478,0.002213,0.00228,0.001516,0.01,-0.28,9.81,34.98
401759498,-0.000983,0.00228,0.003647,0.04,-0.3,9.83,34.98
401760499,-0.003113,0.001215,0.002582,0.03,-0.31,9.78,34.98
401761543,-0.002048,-0.000916,0.001516,0.01,-0.31,9.78,35.01
401762521,8.3e-05,-0.001981,0.000451,-0.02,-0.29,9.84,35.03
401763528,0.003278,-0.000916,-0.000614,0.0,-0.28,9.88,35.02
401764539,0.004344,-0.000916,-0.000614,0.03,-0.29,9.82,34.99
401765548,0.003278,0.001215,0.000451,0.02,-0.3,9.79,35.0
401766559,0.001148,0.00228,0.001516,0.01,-0.33,9.84,35.0
401767569,0.001148,0.00228,0.001516,0.03,-0.31,9.85,35.03
401768579,8.3e-05,0.001215,0.000451,0.06,-0.29,9.83,35.01
401769599,0.001148,0.000149,0.001516,0.05,-0.28,9.82,35.01
401770598,0.001148,-0.003046,0.001516,0.02,-0.28,9.89,35.03
401771609,-0.000983,-0.003046,0.001516,0.01,-0.31,9.85,35.0
401772620,0.001148,-0.000916,0.000451,0.01,-0.31,9.81,34.95
401773628,0.003278,-0.003046,-0.00168,0.01,-0.28,9.85,34.99
401774638,0.001148,-0.003046,-0.00168,0.01,-0.29,9.84,35.03
401775648,-0.000983,-0.001981,-0.000614,0.04,-0.3,9.82,35.05
401776658,-0.000983,-0.003046,0.000451,0.05,-0.29,9.8,35.06
401777669,-0.000983,-0.004112,0.000451,0.02,-0.31,9.82,35.04
401778688,8.3e-05,-0.003046,-0.000614,0.02,-0.32,9.86,35.03
401779688,8.3e-05,-0.003046,-0.000614,0.02,-0.26,9.84,35.05
401780699,8.3e-05,-0.000916,-0.00168,0.02,-0.27,9.83,35.03
401781734,0.002146,0.001261,-0.002736,0.02,-0.29,9.83,35.0
401782723,0.002146,0.000196,-0.001671,0.03,-0.27,9.8,34.96
401783728,1.6e-05,-0.00087,-0.000605,0.02,-0.29,9.82,34.93
401784739,1.6e-05,0.000196,-0.000605,0.0,-0.31,9.83,35.0
401785748,0.001081,0.001261,-0.001671,0.02,-0.33,9.8,34.99
401786758,1.6e-05,0.001261,-0.001671,0.01,-0.32,9.81,34.97
401787771,1.6e-05,0.001261,-0.000605,-0.03,-0.3,9.82,34.98
401788788,0.002146,0.002326,0.00046,-0.02,-0.28,9.82,35.02
401789788,0.002146,0.002326,0.00046,0.01,-0.27,9.86,35.04
401790799,0.001081,0.001261,-0.001671,0.03,-0.29,9.85,34.99
401791808,-0.002115,0.000196,0.00046,0.02,-0.33,9.81,35.01
401792821,-0.00105,0.002326,-0.000605,0.03,-0.3,9.82,35.02
401793829,0.002146,0.001261,-0.001671,0.04,-0.29,9.8,35.0
401794838,0.003211,0.000196,0.00046,0.01,-0.3,9.8,34.99
401795848,0.004277,0.000196,0.003656,-0.03,-0.32,9.84,35.0
401796859,0.002146,0.000196,0.004721,0.0,-0.33,9.86,34.97
401797868,0.001081,0.001261,0.003656,0.05,-0.32,9.82,35.0
401798886,-0.00105,0.001261,0.001525,0.05,-0.29,9.8,35.01
401799889,-0.00105,0.000196,-0.001671,0.02,-0.27,9.82,35.03
401800898,1.6e-05,0.000196,-0.001671,0.03,-0.29,9.84,35.04
401801909,1.6e-05,0.000196,-0.001671,0.04,-0.32,9.86,35.06
401802920,-0.00105,0.000196,-0.002736,0.04,-0.31,9.85,35.05
401803929,-0.00105,-0.00087,-0.003801,0.04,-0.3,9.84,35.02
401804939,-0.00105,-0.00087,-0.001671,0.02,-0.33,9.8,35.04
401805953,1.6e-05,-0.00087,0.00046,0.01,-0.31,9.8,35.02
401806959,0.001081,0.000196,-0.000605,0.01,-0.3,9.87,35.04
401807979,0.002146,0.002326,-0.001671,0.04,-0.32,9.86,35.02
401808993,0.003211,0.001261,-0.002736,0.02,-0.31,9.82,34.97
401809994,0.002146,-0.001935,-0.001671,0.01,-0.32,9.83,34.98
401811008,0.001081,-0.004066,-0.000605,0.02,-0.32,9.88,35.01
401812018,1.6e-05,-0.004066,0.00046,0.03,-0.31,9.85,34.98
401813035,0.001081,-0.003,0.00046,0.05,-0.3,9.82,34.97
401814039,0.002146,0.000196,-0.000605,0.06,-0.31,9.83,34.94
401815044,0.001081,0.002326,-0.002736,0.02,-0.32,9.82,34.98
401816064,0.001081,0.000196,-0.000605,0.01,-0.3,9.8,35.03
401817069,-0.00105,-0.001935,0.00259,0.03,-0.27,9.79,35.02
401818088,-0.00318,-0.001935,0.003656,0.03,-0.28,9.8,35.06
401819097,-0.004246,-0.001935,0.00046,0.02,-0.3,9.81,35.06
401820107,-0.004246,-0.004066,-0.002736,0.03,-0.29,9.84,35.04
401821110,-0.002115,-0.003,-0.002736,0.04,-0.3,9.84,35.05
401822116,-0.00105,-0.00087,-0.001671,0.02,-0.3,9.82,35.07
401823131,1.6e-05,0.000196,0.00046,0.02,-0.31,9.81,35.01
401824138,1.6e-05,0.000196,0.00259,0.02,-0.31,9.79,34.96
401825143,1.6e-05,0.000196,0.00259,0.02,-0.29,9.82,34.97
401826156,0.001081,0.000196,0.001525,0.0,-0.3,9.85,35.02
401827161,0.002146,0.001261,0.00046,0.04,-0.28,9.81,35.03
401828170,0.003211,0.001261,-0.000605,0.04,-0.28,9.78,35.06
401829190,0.003211,0.002326,-0.000605,0.02,-0.3,9.77,35.05
401830193,0.002146,0.002326,0.001525,0.04,-0.31,9.76,35.01
401831206,0.001081,0.002326,0.001525,0.03,-0.29,9.82,34.96
401832213,0.001081,0.002326,0.001525,0.03,-0.27,9.84,35.02
401833222,0.002146,0.001261,0.001525,-0.01,-0.28,9.83,35.0
401834229,0.002146,0.000196,0.001525,0.0,-0.28,9.87,35.05
401835238,0.001081,0.002326,0.00046,0.03,-0.29,9.85,35.0
401836249,0.001081,0.003391,-0.000605,0.07,-0.31,9.8,34.99
401837258,1.6e-05,0.001261,-0.001671,0.07,-0.32,9.78,34.99
401838269,1.6e-05,-0.00087,-0.001671,0.03,-0.33,9.77,35.03
401839288,1.6e-05,-0.001935,-0.000605,0.01,-0.31,9.77,35.02
401840288,1.6e-05,-0.003,0.00046,0.0,-0.32,9.82,34.96
401841299,-0.00105,-0.003,0.00046,0.02,-0.3,9.83,34.94
401842308,-0.00105,-0.001935,-0.002736,0.01,-0.26,9.81,35.04
401843320,0.001081,-0.001935,-0.003801,0.03,-0.29,9.83,35.0
401844328,0.002146,-0.00087,-0.002736,0.06,-0.3,9.83,35.02
401845339,0.003211,0.000196,-0.000605,0.03,-0.27,9.85,35.02
401846348,0.002146,0.001261,0.001525,0.01,-0.27,9.85,35.03
401847359,0.001081,0.002326,0.001525,0.02,-0.29,9.82,35.04
401848369,0.001081,0.002326,0.001525,0.0,-0.29,9.79,35.02
401849386,1.6e-05,0.003391,0.001525,0.0,-0.27,9.83,35.01
401850389,-0.00318,0.002326,0.00046,0.01,-0.26,9.89,35.04
401851398,-0.002115,0.000196,0.00046,0.04,-0.28,9.9,35.01
401852409,1.6e-05,0.001261,0.001525,0.03,-0.31,9.86,35.01
401853420,1.6e-05,0.001261,0.001525,0.01,-0.33,9.8,34.97
401854428,1.6e-05,0.000196,0.001525,0.02,-0.33,9.8,34.98
401855439,1.6e-05,0.000196,0.00259,0.0,-0.32,9.86,35.0
401856448,-0.00105,0.001261,0.00259,0.04,-0.34,9.84,34.99
401857459,-0.002115,0.001261,0.001525,0.05,-0.33,9.78,35.02
401858468,-0.002115,0.000196,-0.001671,0.02,-0.3,9.8,35.04
401859486,-0.002115,-0.00087,-0.002736,0.02,-0.3,9.84,35.03
401860489,0.002146,-0.00087,-0.001671,0.02,-0.29,9.82,35.03
401861498,0.004277,-0.00087,-0.001671,0.03,-0.26,9.79,35.06
401862509,0.002146,-0.00087,-0.000605,0.0,-0.26,9.76,35.04
401863581,1.6e-05,-0.001935,-0.002736,0.0,-0.28,9.81,35.01
401864529,1.6e-05,0.000196,-0.002736,0.03,-0.31,9.82,34.96
401865539,1.6e-05,0.000196,-0.000605,0.05,-0.32,9.8,34.98
401866548,0.001081,-0.00087,0.001525,0.04,-0.3,9.85,34.95
401867559,1.6e-05,0.000196,0.003656,0.04,-0.28,9.85,34.99
401868569,-0.00105,0.000196,0.00259,0.05,-0.26,9.82,35.0
401869586,-0.00105,0.000196,0.001525,0.06,-0.29,9.82,34.99
401870589,1.6e-05,0.000196,0.001525,0.04,-0.33,9.85,35.01
401871598,1.6e-05,0.000196,0.00046,0.02,-0.3,9.81,35.01
401872609,-0.00105,-0.00087,-0.001671,0.02,-0.28,9.79,35.01
401873620,-0.002115,-0.00087,-0.000605,0.01,-0.31,9.84,35.01
401874629,-0.00105,0.001261,-0.000605,-0.01,-0.32,9.8,35.05
401875638,1.6e-05,0.003391,0.00046,0.02,-0.29,9.74,35.08
401876648,-0.00105,0.002326,0.00259,0.05,-0.28,9.77,35.03
401877659,-0.002115,0.001261,0.00259,0.02,-0.3,9.84,35.01
401878680,-0.00105,0.000196,0.001525,0.04,-0.29,9.83,34.99
401879678,-0.002115,-0.00087,0.00259,0.05,-0.28,9.86,35.0
401880689,-0.00105,0.000196,0.00259,0.01,-0.29,9.89,35.02
401881698,-0.00105,0.000196,0.00259,-0.01,-0.33,9.83,34.98
401882708,1.6e-05,-0.00087,0.00046,0.0,-0.33,9.83,35.02
401883721,0.001081,0.000196,-0.001671,0.0,-0.28,9.83,35.02
401884728,0.001081,0.001261,-0.000605,-0.02,-0.28,9.85,35.01
401885739,1.6e-05,-0.00087,0.00046,-0.02,-0.29,9.86,35.01
401886748,-0.002115,-0.003,0.00046,0.0,-0.33,9.82,35.0
401887759,-0.00318,-0.00087,-0.000605,0.01,-0.32,9.81,34.97
401888781,-0.00105,0.002326,0.00046,0.0,-0.29,9.79,34.97
401889778,0.002146,0.002326,0.00259,0.01,-0.3,9.82,34.99
401890805,0.001081,0.002326,0.00259,-0.01,-0.3,9.84,35.02
401891802,-0.00105,0.001261,0.00046,-0.02,-0.31,9.83,35.02
401892811,-0.002115,-0.003,-0.001671,0.03,-0.32,9.87,35.01
401893823,-0.002115,0.000196,-0.001671,0.03,-0.31,9.84,35.0
401894831,-0.00318,0.005522,-0.001671,0.01,-0.31,9.81,35.01
401895842,-0.004246,0.005522,0.00046,-0.02,-0.31,9.78,35.02
401896851,-0.002115,0.002326,0.001525,0.02,-0.3,9.74,35.02
401897862,-0.002115,0.001261,0.001525,0.04,-0.29,9.81,35.05
401898884,-0.00105,0.001261,0.001525,0.03,-0.32,9.82,35.02
401899894,0.001081,0.001261,0.00259,0.03,-0.35,9.8,35.01
401900888,0.003211,0.000196,0.001525,0.04,-0.31,9.82,35.03
401901899,0.002146,-0.00087,0.00046,0.05,-0.27,9.79,35.03
401902908,0.001081,-0.001935,-0.000605,0.02,-0.29,9.82,35.02
401903956,0.002146,-0.00087,-0.000605,0.0,-0.29,9.87,35.04
401904960,0.003211,0.000196,0.00046,0.0,-0.26,9.89,35.01
401905951,0.002146,0.002326,0.001525,0.02,-0.26,9.84,35.0
401906952,1.6e-05,0.002326,0.001525,0.04,-0.28,9.77,35.01
401907962,-0.00105,0.001261,-0.000605,0.03,-0.3,9.82,35.01
401908988,-0.00318,0.000196,-0.002736,0.02,-0.31,9.85,34.99
401910001,-0.00318,-0.00087,-0.002736,0.0,-0.29,9.79,35.01
401911031,-0.002125,-0.000907,-0.000619,0.0,-0.27,9.79,35.04
401912010,-0.00106,-0.000907,0.000447,0.03,-0.29,9.81,35.0
401913023,6e-06,-0.001973,0.000447,0.03,-0.32,9.77,35.01
401914032,-0.002125,-0.000907,0.001512,0.02,-0.28,9.75,35.02
401915043,-0.00319,0.000158,0.001512,0.04,-0.28,9.8,35.03
401916047,-0.00106,0.001223,0.001512,0.0,-0.31,9.83,35.02
401917060,0.001071,0.001223,0.002577,-0.03,-0.31,9.78,35.04
401918091,6e-06,0.000158,0.001512,-0.04,-0.29,9.78,35.06
401919099,-0.00319,0.000158,-0.001684,-0.01,-0.27,9.8,35.05
401920106,-0.00319,-0.000907,-0.003815,0.03,-0.29,9.78,35.07
401921103,-0.00106,0.000158,-0.001684,0.03,-0.31,9.79,35.04
401922110,6e-06,0.002289,0.000447,0.01,-0.31,9.83,35.01
401923116,0.002136,0.003354,0.001512,0.01,-0.31,9.83,35.01
401924129,0.002136,0.001223,0.001512,0.02,-0.32,9.85,35.0
401925136,6e-06,0.000158,0.000447,0.0,-0.32,9.87,35.01
401926147,-0.002125,-0.001973,0.000447,0.0,-0.34,9.82,34.98
401927157,6e-06,-0.001973,-0.000619,0.02,-0.32,9.8,35.04
401928160,0.001071,-0.003038,-0.001684,0.03,-0.3,9.87,35.04
401929181,6e-06,-0.003038,-0.000619,0.0,-0.3,9.9,35.02
401930198,6e-06,-0.001973,-0.000619,0.01,-0.27,9.83,35.02
401931196,0.001071,-0.000907,0.000447,0.03,-0.28,9.87,35.0
401932201,6e-06,0.001223,0.002577,0.02,-0.31,9.87,34.99
401933211,6e-06,0.002289,0.001512,0.03,-0.31,9.81,34.98
401934224,0.001071,0.003354,-0.000619,0.03,-0.29,9.84,34.99
401935229,6e-06,0.003354,-0.000619,0.03,-0.28,9.88,34.97
401936241,-0.00106,0.004419,-0.000619,0.02,-0.32,9.88,35.0
401937248,-0.002125,0.003354,-0.000619,0.03,-0.35,9.84,35.05
401938259,6e-06,0.001223,-0.000619,0.06,-0.34,9.82,35.03
401939281,0.002136,0.000158,-0.001684,0.04,-0.29,9.82,35.05
401940291,0.002136,0.000158,-0.002749,0.0,-0.26,9.85,35.09
401941288,6e-06,-0.000907,-0.002749,-0.02,-0.26,9.83,35.01
401942297,-0.002125,-0.003038,-0.001684,-0.02,-0.29,9.83,34.99
401943308,-0.00319,-0.003038,-0.000619,0.0,-0.27,9.86,35.01
401944319,-0.00106,-0.004103,0.001512,0.01,-0.26,9.85,35.07
401945328,0.001071,-0.001973,0.000447,0.0,-0.29,9.83,35.05
401946337,0.001071,0.000158,-0.000619,0.0,-0.29,9.85,35.02
401947348,0.002136,0.001223,-0.002749,0.0,-0.28,9.88,35.02
401948357,0.001071,0.000158,-0.002749,0.0,-0.3,9.85,34.98
401949380,-0.00106,-0.000907,-0.002749,-0.01,-0.32,9.81,35.0
401950394,-0.00106,-0.000907,-0.001684,0.01,-0.34,9.8,34.97
401951391,6e-06,0.001223,-0.000619,0.04,-0.35,9.84,35.01
401952399,6e-06,0.000158,-0.000619,0.03,-0.32,9.85,35.03
401953411,0.001071,0.000158,-0.002749,0.0,-0.29,9.87,35.08
401954421,0.001071,0.000158,-0.003815,0.03,-0.29,9.84,35.01
401955431,0.002136,0.001223,-0.00488,0.05,-0.32,9.79,34.98
401956439,0.001071,0.001223,-0.00488,0.02,-0.3,9.83,34.99
401957451,-0.00106,-0.001973,-0.002749,0.03,-0.29,9.85,35.01
401958459,-0.00106,-0.005168,0.000447,0.03,-0.31,9.84,35.0
401959483,0.001071,-0.004103,0.001512,0.01,-0.31,9.83,35.0
401960491,0.003202,-0.003038,0.001512,0.03,-0.29,9.84,35.01
401961488,0.003202,0.000158,0.001512,0.02,-0.3,9.78,35.0
401962497,0.001071,0.004419,0.001512,0.01,-0.32,9.79,34.99
401963508,-0.00106,0.00655,-0.001684,0.0,-0.28,9.78,35.02
401964519,-0.002125,0.005484,-0.001684,0.0,-0.29,9.77,34.99
401965553,-0.00319,0.003354,-0.000619,0.04,-0.27,9.78,34.99
401966586,-0.002125,-0.000907,0.001512,0.05,-0.28,9.8,34.98
401967547,6e-06,-0.001973,0.002577,0.05,-0.33,9.83,34.99
401968558,0.002136,-0.001973,0.001512,0.04,-0.33,9.87,35.02
401969581,0.002136,-0.000907,0.000447,0.03,-0.33,9.88,35.01
401970595,0.002136,-0.000907,0.001512,0.0,-0.31,9.79,35.04
401971589,0.001071,-0.000907,0.000447,0.0,-0.29,9.77,35.01
401972601,0.001071,-0.000907,-0.000619,0.03,-0.3,9.8,35.04
401973609,6e-06,-0.000907,0.000447,0.02,-0.29,9.8,35.02
401974622,6e-06,-0.001973,-0.000619,0.03,-0.3,9.77,35.03
401975629,6e-06,-0.001973,-0.003815,0.04,-0.31,9.8,35.03
401976641,0.002136,-0.000907,-0.003815,0.0,-0.28,9.84,35.04
401977649,0.003202,-0.001973,-0.003815,0.0,-0.28,9.84,35.03
401978669,0.003202,-0.001973,-0.003815,0.06,-0.32,9.83,35.04
401979671,6e-06,-0.000907,-0.002749,0.05,-0.3,9.79,35.03
401980691,-0.00319,-0.000907,-0.002749,0.01,-0.27,9.81,35.02
401981688,-0.004255,-0.001973,-0.001684,0.01,-0.29,9.83,35.01
401982697,-0.004255,0.000158,0.000447,0.02,-0.29,9.86,35.03
401983708,-0.002125,0.001223,0.000447,0.04,-0.31,9.9,35.04
401984717,-0.00106,0.001223,0.002577,0.04,-0.34,9.88,35.03
401985728,6e-06,0.000158,0.005773,0.02,-0.32,9.85,35.04
401986737,0.001071,-0.000907,0.003642,0.01,-0.29,9.81,35.02
401987748,0.001071,-0.003038,0.001512,0.06,-0.27,9.81,35.01
401988768,0.002136,-0.001973,-0.001684,0.06,-0.31,9.78,35.01
401989768,0.002136,0.000158,-0.002749,0.05,-0.33,9.74,35.05
401990794,0.001071,0.004419,-0.001684,0.04,-0.29,9.82,35.0
401991791,-0.002125,0.003354,0.000447,0.03,-0.29,9.84,35.03
401992799,-0.00106,0.000158,0.002577,0.0,-0.3,9.81,35.01
401993811,6e-06,-0.000907,0.003642,0.03,-0.3,9.75,35.0
401994821,-0.00106,-0.000907,0.002577,0.03,-0.31,9.82,35.01
401995831,6e-06,-0.001973,0.000447,0.04,-0.32,9.81,35.04
401996839,-0.00106,-0.004103,-0.001684,0.04,-0.28,9.77,35.02
401997851,-0.00106,-0.001973,-0.002749,0.02,-0.23,9.8,34.98
401998871,0.001071,0.001223,-0.001684,0.01,-0.23,9.87,34.97
401999884,0.002136,0.001223,-0.002749,0.02,-0.28,9.91,34.99
402000877,0.002136,0.000158,-0.001684,0.02,-0.3,9.84,35.03
402001888,0.003202,0.001223,-0.000619,0.01,-0.28,9.79,35.06
402002897,0.002136,0.003354,-0.000619,0.04,-0.26,9.81,35.03
402003908,0.001071,0.004419,0.000447,0.05,-0.26,9.82,35.07
402004917,-0.00106,0.002289,0.000447,0.03,-0.27,9.82,35.05
402005928,-0.002125,-0.000907,0.002577,0.01,-0.31,9.86,35.05
402006938,6e-06,-0.001973,0.002577,-0.02,-0.33,9.87,35.04
402007951,0.002136,-0.000907,0.000447,0.01,-0.31,9.82,35.07
402008975,0.002136,0.001223,-0.000619,0.05,-0.31,9.86,35.02
402009990,6e-06,0.000158,0.000447,0.04,-0.33,9.84,35.02
402010988,-0.00106,-0.000907,-0.000619,0.03,-0.31,9.8,35.02
402011997,-0.00106,-0.000907,-0.000619,0.03,-0.3,9.87,35.07
402013007,0.002136,0.001223,0.000447,0.01,-0.29,9.86,35.06
402014021,0.004267,0.003354,0.001512,0.0,-0.27,9.8,34.98
402015032,0.003202,0.001223,0.000447,0.02,-0.28,9.82,35.01
402016037,-0.00106,0.001223,0.000447,0.01,-0.32,9.86,35.02
402017053,-0.002125,0.001223,0.002577,0.01,-0.31,9.83,34.99
402018065,-0.002125,0.000158,0.003642,0.04,-0.3,9.82,34.97
402019080,-0.002125,-0.000907,0.002577,0.04,-0.31,9.82,35.01
402020097,6e-06,-0.001973,0.001512,0.02,-0.31,9.82,35.01
402021095,0.002136,0.000158,0.000447,0.03,-0.3,9.84,35.07
402022099,0.003202,0.001223,-0.000619,0.01,-0.28,9.81,35.05
402023110,0.001071,0.001223,-0.000619,-0.01,-0.26,9.8,35.05
402024116,-0.00106,0.002289,-0.000619,0.01,-0.27,9.83,35.06
402025131,6e-06,0.001223,0.000447,0.01,-0.31,9.85,35.03
402026138,0.001071,0.002289,0.000447,-0.01,-0.3,9.84,34.97
402027149,6e-06,0.003354,0.001512,0.02,-0.32,9.83,34.98
402028157,-0.00106,0.003354,0.001512,0.04,-0.33,9.85,34.97
402029170,-0.00106,0.002289,-0.000619,0.03,-0.3,9.86,34.98
402030187,-0.002125,0.001223,0.000447,0.04,-0.28,9.83,35.01
402031187,-0.00106,0.000158,0.002577,0.04,-0.29,9.78,35.0
402032192,6e-06,0.000158,0.001512,0.04,-0.29,9.8,35.01
402033201,0.002136,0.001223,0.000447,0.03,-0.27,9.82,35.01
402034212,0.001071,0.003354,-0.000619,0.01,-0.3,9.8,35.01
402035221,6e-06,0.005484,-0.000619,0.0,-0.29,9.85,35.04
402036228,-0.00106,0.004419,0.000447,-0.01,-0.28,9.86,35.04
402037237,6e-06,0.003354,-0.000619,0.01,-0.31,9.78,35.03
402038248,6e-06,0.000158,-0.001684,0.0,-0.3,9.77,35.02
402039269,0.001071,-0.000907,-0.002749,0.0,-0.31,9.84,35.06
402040316,0.002122,0.001191,-0.004855,0.01,-0.33,9.84,35.05
402041282,-9e-06,0.002257,-0.002725,0.0,-0.35,9.84,35.05
402042291,-0.001074,0.003322,0.000471,-0.01,-0.34,9.84,35.09
402043299,-0.001074,0.001191,0.001536,-0.01,-0.31,9.84,35.04
402044311,0.001056,-0.004135,0.001536,0.04,-0.28,9.89,34.99
