time_us,gyro_x_rad_s,gyro_y_rad_s,gyro_z_rad_s,acc_x_m_s2,acc_y_m_s2,acc_z_m_s2,temperature_c
191764740,0.002174,0.00216,-0.00062,0.03,-0.31,9.83,33.56
191765512,4.3e-05,0.00216,0.000445,0.02,-0.34,9.84,33.59
191766355,-0.001022,0.005356,0.00151,0.03,-0.31,9.85,33.56
191767364,-0.002087,0.006421,0.00151,0.04,-0.27,9.83,33.59
191768375,-0.003153,0.004291,0.000445,0.02,-0.3,9.8,33.56
191769392,-0.002087,0.001095,0.000445,-0.01,-0.32,9.8,33.56
191770395,-0.002087,-0.003166,-0.00062,0.0,-0.32,9.77,33.57
191771404,-0.002087,-0.005297,-0.001686,0.04,-0.3,9.81,33.61
191772415,-0.002087,-0.003166,-0.002751,0.06,-0.29,9.86,33.62
191773423,-0.001022,3e-05,-0.001686,0.05,-0.3,9.82,33.61
191774436,0.001109,0.001095,-0.00062,0.03,-0.29,9.79,33.57
191775445,0.002174,3e-05,0.000445,0.04,-0.28,9.82,33.57
191776454,0.002174,-0.001035,0.00151,0.04,-0.28,9.86,33.58
191777465,0.002174,0.001095,0.000445,0.01,-0.29,9.89,33.56
191778474,0.002174,0.004291,-0.001686,0.03,-0.31,9.86,33.59
191779493,0.001109,0.005356,-0.00062,0.04,-0.32,9.82,33.62
191780495,4.3e-05,0.003226,0.000445,0.03,-0.31,9.83,33.57
191781504,0.001109,0.001095,0.000445,0.05,-0.33,9.85,33.58
191782515,0.003239,0.001095,0.000445,0.04,-0.35,9.85,33.56
191783517,0.001109,0.003226,0.000445,0.01,-0.32,9.85,33.55
191784530,4.3e-05,0.003226,-0.00062,0.02,-0.31,9.86,33.57
191785537,-0.001022,0.001095,-0.00062,0.02,-0.32,9.87,33.52
191786548,4.3e-05,0.001095,-0.00062,0.0,-0.32,9.85,33.52
191787557,0.001109,0.001095,0.000445,0.01,-0.31,9.82,33.53
191788568,0.001109,0.003226,-0.00062,0.04,-0.3,9.81,33.55
191789589,4.3e-05,0.00216,-0.00062,0.05,-0.31,9.82,33.56
191790587,0.002174,0.001095,0.000445,0.02,-0.32,9.86,33.53
191791598,0.002174,3e-05,0.000445,0.01,-0.33,9.85,33.55
191792607,0.003239,-0.001035,0.000445,0.0,-0.32,9.81,33.56
191793618,0.001109,3e-05,0.00151,0.01,-0.33,9.84,33.59
191794629,0.001109,0.001095,0.00151,0.02,-0.32,9.83,33.59
191795638,4.3e-05,0.00216,0.000445,0.02,-0.3,9.83,33.63
191796647,4.3e-05,0.004291,-0.001686,0.0,-0.34,9.85,33.63
191797658,4.3e-05,0.004291,-0.003816,0.01,-0.34,9.86,33.65
191798679,-0.001022,0.00216,-0.003816,0.05,-0.32,9.85,33.6
191799679,0.001109,0.001095,-0.00062,0.04,-0.32,9.8,33.6
191800688,0.003239,3e-05,0.00151,0.03,-0.3,9.76,33.61
191801697,0.002174,3e-05,0.00151,0.01,-0.32,9.79,33.65
191802708,0.001109,3e-05,0.002576,0.0,-0.31,9.81,33.61
191803717,0.001109,3e-05,0.003641,0.03,-0.27,9.76,33.58
191804725,0.002174,-0.003166,0.00151,0.05,-0.28,9.78,33.58
191805738,0.003239,-0.004231,-0.00062,0.04,-0.3,9.8,33.59
191806747,0.004304,-0.002101,-0.002751,0.03,-0.28,9.79,33.59
191807758,0.004304,3e-05,-0.002751,0.04,-0.27,9.84,33.56
191808779,0.003239,0.001095,0.000445,0.05,-0.26,9.84,33.57
191809778,4.3e-05,0.00216,0.00151,0.06,-0.28,9.82,33.59
191810788,-0.002087,0.00216,0.000445,0.05,-0.3,9.81,33.58
191811797,-0.004218,0.00216,0.000445,0.06,-0.3,9.83,33.59
191812808,-0.004218,0.00216,0.00151,0.04,-0.28,9.83,33.61
191813817,-0.002087,0.003226,0.00151,0.03,-0.32,9.83,33.62
191814830,-0.001022,0.00216,-0.00062,0.05,-0.33,9.84,33.6
191815837,-0.001022,-0.002101,-0.001686,0.04,-0.3,9.83,33.62
191816848,-0.001022,-0.002101,-0.00062,0.03,-0.3,9.81,33.61
191817857,0.003239,-0.001035,-0.001686,0.03,-0.3,9.81,33.63
191818906,0.004224,-9.8e-05,-0.0006,0.01,-0.29,9.81,33.59
191819882,-0.001102,0.000967,0.001531,0.02,-0.3,9.82,33.56
191820887,-0.004298,0.000967,0.000466,0.04,-0.31,9.86,33.59
191821898,-0.003233,0.003098,-0.00273,0.05,-0.3,9.85,33.62
191822907,-0.001102,0.002033,-0.001665,0.01,-0.28,9.81,33.6
191823918,-3.7e-05,-0.001163,-0.0006,0.0,-0.28,9.8,33.57
191824927,-0.001102,-0.002229,0.000466,0.05,-0.31,9.79,33.56
191825943,-0.002168,-0.001163,0.000466,0.05,-0.31,9.81,33.56
191826950,-0.002168,-9.8e-05,0.000466,0.04,-0.3,9.86,33.53
191827962,-3.7e-05,-9.8e-05,0.001531,0.03,-0.32,9.82,33.56
191828987,0.002094,-0.001163,0.000466,0.06,-0.3,9.81,33.6
191829985,0.001028,-9.8e-05,-0.0006,0.06,-0.28,9.81,33.59
191830994,-0.001102,0.000967,0.000466,0.01,-0.29,9.81,33.58
191832004,-3.7e-05,-9.8e-05,0.003661,0.04,-0.29,9.85,33.54
191833017,-3.7e-05,-0.001163,0.002596,0.05,-0.3,9.83,33.55
191834025,-0.001102,-0.001163,0.000466,0.04,-0.31,9.84,33.56
191835065,0.001028,0.002033,-0.0006,0.05,-0.32,9.85,33.55
191836046,0.003159,-9.8e-05,-0.0006,0.05,-0.28,9.81,33.54
191837062,0.004224,-0.001163,0.000466,0.0,-0.26,9.83,33.56
191838067,0.003159,-0.002229,0.000466,0.0,-0.31,9.84,33.6
191839095,0.001028,-0.001163,-0.001665,0.04,-0.35,9.83,33.57
191840091,-0.002168,0.000967,-0.001665,0.02,-0.31,9.84,33.6
191841102,-0.003233,0.002033,-0.001665,0.01,-0.29,9.83,33.58
191842128,-0.003233,0.004163,-0.0006,0.02,-0.33,9.87,33.58
191843118,-0.002168,0.006294,-0.001665,0.04,-0.31,9.88,33.63
191844127,-3.7e-05,0.007359,-0.0006,0.04,-0.29,9.85,33.6
191845137,0.002094,0.004163,0.000466,0.02,-0.29,9.86,33.62
191846145,0.003159,0.000967,0.000466,0.05,-0.29,9.83,33.62
191847193,0.003159,-9.8e-05,0.001531,0.06,-0.31,9.78,33.59
191848166,-3.7e-05,-9.8e-05,0.000466,0.03,-0.32,9.8,33.59
191849179,-0.002168,-9.8e-05,0.000466,0.02,-0.31,9.82,33.59
191850184,-3.7e-05,0.000967,0.000466,0.02,-0.31,9.76,33.6
191851192,0.001028,0.003098,0.000466,0.01,-0.3,9.79,33.59
191852236,0.002094,0.002033,-0.001665,0.04,-0.3,9.81,33.55
191853211,0.001028,-9.8e-05,-0.0006,0.04,-0.31,9.81,33.55
191854220,-3.7e-05,-9.8e-05,-0.0006,0.0,-0.32,9.82,33.6
191855264,0.001028,-0.002229,0.001531,-0.01,-0.33,9.83,33.61
191856238,0.001028,-0.002229,0.001531,0.02,-0.34,9.86,33.59
191857247,0.001028,-0.002229,-0.0006,0.03,-0.33,9.87,33.57
191858258,-3.7e-05,-0.001163,-0.001665,0.02,-0.34,9.86,33.59
191859279,-3.7e-05,-9.8e-05,-0.001665,0.01,-0.34,9.79,33.57
191860279,0.001028,0.000967,-0.001665,0.0,-0.34,9.8,33.54
191861288,0.004224,0.000967,-0.0006,0.02,-0.32,9.86,33.58
191862297,0.005289,-0.001163,0.001531,0.04,-0.3,9.86,33.56
191863308,0.001028,-0.001163,0.001531,0.04,-0.29,9.83,33.53
191864317,-0.001102,-0.001163,0.001531,0.03,-0.27,9.81,33.56
191865328,-0.001102,-0.001163,0.002596,0.02,-0.27,9.78,33.59
191866336,-3.7e-05,0.000967,0.003661,0.01,-0.27,9.76,33.59
191867347,0.001028,-9.8e-05,0.004727,0.01,-0.29,9.79,33.55
191868358,0.001028,-0.001163,0.002596,-0.02,-0.34,9.83,33.56
191869379,0.001028,-9.8e-05,0.000466,-0.02,-0.31,9.84,33.56
191870378,-3.7e-05,-0.001163,0.000466,0.0,-0.28,9.82,33.55
191871388,-0.001102,-0.001163,0.001531,0.02,-0.29,9.76,33.55
191872397,-3.7e-05,-9.8e-05,0.001531,0.04,-0.3,9.81,33.56
191873408,-3.7e-05,-9.8e-05,0.002596,0.02,-0.3,9.83,33.58
191874417,-0.002168,0.002033,0.000466,-0.02,-0.29,9.81,33.56
191875430,-0.003233,0.004163,-0.001665,-0.03,-0.29,9.79,33.57
191876437,-0.002168,0.003098,-0.00273,0.0,-0.29,9.78,33.56
191877448,-3.7e-05,0.002033,-0.00273,0.04,-0.28,9.78,33.56
191878457,-3.7e-05,0.000967,-0.001665,0.02,-0.29,9.82,33.56
191879478,-0.001102,-0.001163,0.001531,0.0,-0.32,9.8,33.57
191880480,-0.001102,-0.001163,0.001531,0.01,-0.29,9.79,33.58
191881487,-0.001102,-0.002229,0.000466,0.01,-0.29,9.84,33.59
191882498,-0.002168,-0.001163,0.001531,0.0,-0.29,9.85,33.55
191883507,-0.001102,0.000967,0.001531,0.03,-0.3,9.9,33.6
191884529,-0.001102,0.003098,0.001531,-0.01,-0.34,9.91,33.56
191885526,-0.002168,0.003098,0.002596,-0.02,-0.32,9.9,33.57
191886535,-0.002168,-9.8e-05,0.000466,0.06,-0.28,9.85,33.54
191887546,-3.7e-05,-0.002229,-0.001665,0.03,-0.28,9.78,33.53
191888555,0.002094,-0.003294,-0.001665,0.01,-0.32,9.81,33.56
191889575,0.002094,-0.002229,-0.001665,0.05,-0.33,9.87,33.58
191890577,0.003159,-9.8e-05,-0.001665,0.05,-0.31,9.86,33.53
191891585,0.003159,0.002033,0.000466,0.05,-0.3,9.81,33.57
191892596,0.002094,-9.8e-05,0.000466,0.02,-0.28,9.82,33.62
191893605,-3.7e-05,-0.001163,-0.001665,0.02,-0.28,9.81,33.58
191894631,-0.002168,0.000967,-0.001665,0.02,-0.3,9.84,33.57
191895630,-0.002168,0.002033,0.000466,0.0,-0.33,9.86,33.57
191896637,-0.001102,0.002033,-0.0006,0.0,-0.32,9.81,33.56
191897648,-0.001102,0.000967,-0.0006,0.02,-0.31,9.82,33.55
191898657,0.001028,-0.002229,-0.001665,0.03,-0.29,9.84,33.56
191899679,0.001028,-0.002229,-0.00273,0.02,-0.28,9.8,33.59
191900680,-3.7e-05,0.000967,-0.001665,0.02,-0.28,9.78,33.56
191901687,0.002094,0.000967,-0.001665,0.01,-0.29,9.81,33.57
191902698,0.003159,-9.8e-05,-0.0006,0.01,-0.34,9.81,33.57
191903707,0.002094,0.000967,0.000466,0.01,-0.34,9.78,33.6
191904729,-3.7e-05,0.002033,0.000466,0.01,-0.32,9.82,33.62
191905726,-3.7e-05,0.003098,0.000466,0.0,-0.3,9.83,33.61
191906735,0.002094,0.002033,-0.0006,0.02,-0.28,9.82,33.59
191907746,0.003159,0.000967,-0.0006,0.01,-0.31,9.85,33.58
191908765,0.001028,-9.8e-05,0.000466,0.03,-0.32,9.85,33.6
191909765,-0.002168,-9.8e-05,0.001531,0.04,-0.31,9.82,33.59
191910777,-0.001102,-0.001163,0.001531,0.0,-0.3,9.79,33.54
191911785,0.002094,-9.8e-05,0.002596,0.01,-0.3,9.81,33.55
191912796,0.002094,0.002033,0.001531,0.03,-0.31,9.85,33.58
191913805,0.001028,0.002033,-0.0006,0.0,-0.31,9.84,33.58
191914831,-0.001102,0.000967,-0.0006,0.0,-0.32,9.8,33.56
191915830,-0.001102,-9.8e-05,0.000466,0.03,-0.33,9.84,33.57
191916837,-3.7e-05,-9.8e-05,0.001531,0.05,-0.33,9.88,33.55
191917848,-3.7e-05,-0.001163,0.002596,0.07,-0.29,9.86,33.57
191918869,-3.7e-05,-9.8e-05,0.002596,0.02,-0.3,9.84,33.57
191919867,-0.002168,-0.001163,0.000466,0.02,-0.32,9.81,33.57
191920880,-0.002168,-0.001163,0.000466,0.05,-0.32,9.81,33.52
191921887,-0.001102,-9.8e-05,0.002596,0.02,-0.31,9.83,33.57
191922898,-3.7e-05,0.002033,0.003661,0.0,-0.28,9.82,33.56
191923921,0.002094,0.002033,0.002596,0.01,-0.28,9.78,33.56
191924918,0.004224,-9.8e-05,0.000466,0.0,-0.31,9.79,33.56
191925927,0.001028,0.000967,-0.0006,0.01,-0.31,9.83,33.6
191926944,-0.001102,0.003098,0.000466,0.03,-0.28,9.85,33.65
191927948,-0.002168,0.000967,0.001531,0.03,-0.29,9.87,33.62
191928972,-0.002168,-0.002229,0.000466,0.0,-0.32,9.86,33.57
191929975,-0.001102,-0.002229,-0.001665,0.0,-0.32,9.83,33.54
191930984,-0.002168,-0.001163,-0.0006,0.02,-0.35,9.83,33.53
191931997,-3.7e-05,-9.8e-05,0.001531,-0.01,-0.34,9.81,33.59
191933005,0.002094,0.000967,0.001531,0.0,-0.31,9.8,33.59
191934026,0.002094,0.000967,-0.0006,0.01,-0.3,9.87,33.61
191935021,-0.002168,-9.8e-05,-0.0006,0.0,-0.31,9.92,33.62
191936038,-0.002168,-0.002229,-0.0006,0.0,-0.31,9.87,33.6
191937044,-0.001102,-0.003294,0.000466,0.01,-0.33,9.81,33.58
191938077,0.001028,0.000967,0.002596,-0.01,-0.31,9.8,33.62
191939076,0.003159,0.003098,0.002596,0.0,-0.3,9.85,33.61
191940081,0.003159,0.003098,0.002596,0.02,-0.26,9.86,33.6
191941089,0.001028,-9.8e-05,0.002596,0.02,-0.26,9.82,33.56
191942102,0.001028,-0.001163,0.000466,0.01,-0.27,9.82,33.56
191943107,0.002094,-9.8e-05,-0.001665,0.0,-0.28,9.83,33.56
191944131,0.003159,0.002033,-0.0006,-0.02,-0.33,9.84,33.54
191945129,0.001028,0.002033,0.000466,0.01,-0.33,9.83,33.54
191946135,-0.001102,0.000967,0.000466,-0.02,-0.33,9.8,33.55
191947192,-0.002168,0.000967,0.001531,-0.01,-0.34,9.84,33.53
191948182,-5.4e-05,0.000924,0.002553,0.02,-0.32,9.88,33.57
191949200,0.001012,0.001989,0.001488,0.0,-0.3,9.87,33.61
191950168,-5.4e-05,0.001989,0.000423,0.01,-0.32,9.84,33.55
191951186,-0.001119,0.000924,0.000423,0.01,-0.36,9.82,33.53
191952199,-0.001119,-0.000141,0.000423,0.04,-0.35,9.78,33.58
191953201,-0.002184,0.000924,-0.000643,0.01,-0.32,9.82,33.57
191954223,-0.001119,0.000924,-0.001708,-0.01,-0.28,9.82,33.58
191955218,0.001012,-0.000141,-0.000643,0.04,-0.27,9.82,33.6
191956226,0.002077,-0.001207,0.000423,0.04,-0.32,9.86,33.64
191957236,0.001012,-0.001207,-0.000643,0.05,-0.32,9.84,33.63
191958245,-5.4e-05,0.000924,-0.001708,0.04,-0.3,9.84,33.59
191959265,-5.4e-05,0.001989,-0.001708,0.03,-0.29,9.86,33.54
191960266,0.001012,0.000924,-0.001708,0.0,-0.3,9.85,33.55
191961277,0.001012,0.000924,-0.000643,-0.01,-0.3,9.83,33.61
191962285,0.002077,0.001989,-0.001708,0.01,-0.28,9.82,33.59
191963296,0.001012,-0.000141,-0.001708,0.04,-0.29,9.84,33.56
191964322,-0.001119,-0.003337,0.000423,0.04,-0.31,9.82,33.59
191965317,-5.4e-05,-0.000141,0.000423,0.04,-0.32,9.83,33.59
191966328,0.002077,0.005185,-0.000643,0.03,-0.33,9.84,33.61
191967337,0.002077,0.005185,-0.002773,0.02,-0.33,9.84,33.59
191968348,0.002077,0.001989,-0.001708,0.03,-0.33,9.85,33.64
191969368,0.001012,0.000924,0.000423,0.01,-0.3,9.8,33.62
191970367,-0.001119,0.000924,0.002553,0.04,-0.28,9.78,33.62
191971379,-5.4e-05,0.003055,0.001488,0.04,-0.3,9.8,33.6
191972387,0.002077,0.00412,0.001488,0.03,-0.33,9.81,33.57
191973398,0.002077,0.001989,0.001488,0.03,-0.35,9.81,33.58
191974420,0.003142,-0.000141,0.001488,0.01,-0.33,9.82,33.59
191975415,0.004208,-0.000141,0.000423,0.0,-0.32,9.85,33.58
191976427,0.003142,-0.001207,-0.000643,0.04,-0.3,9.83,33.61
191977435,0.002077,-0.003337,0.000423,0.05,-0.28,9.82,33.62
191978446,0.002077,-0.003337,0.000423,0.0,-0.32,9.86,33.62
191979466,0.003142,-0.002272,-0.000643,0.0,-0.34,9.85,33.59
191980465,0.003142,-0.000141,-0.000643,0.01,-0.34,9.86,33.57
191981477,0.003142,-0.000141,-0.000643,0.01,-0.32,9.84,33.55
191982485,0.001012,-0.002272,-0.001708,0.03,-0.32,9.81,33.55
191983496,-5.4e-05,-0.002272,-0.004904,0.02,-0.32,9.79,33.56
191984522,-5.4e-05,-0.001207,-0.003839,0.0,-0.28,9.8,33.57
191985517,0.002077,0.001989,-0.000643,0.01,-0.28,9.87,33.57
191986528,0.003142,0.00412,-0.000643,0.04,-0.27,9.86,33.59
191987537,0.002077,0.000924,-0.001708,0.04,-0.27,9.82,33.58
191988548,-5.4e-05,0.000924,-0.001708,0.04,-0.27,9.87,33.57
191989568,-0.001119,0.003055,-0.000643,0.04,-0.27,9.89,33.57
191990567,-0.001119,0.00412,-0.000643,0.04,-0.31,9.84,33.56
191991579,-0.002184,0.003055,-0.001708,0.04,-0.33,9.8,33.53
191992587,-0.002184,-0.000141,0.000423,0.03,-0.3,9.8,33.54
191993598,-5.4e-05,0.000924,0.001488,0.04,-0.3,9.86,33.52
191994620,0.002077,0.003055,0.001488,0.03,-0.32,9.85,33.53
191995615,-5.4e-05,0.001989,0.001488,0.02,-0.29,9.79,33.53
191996627,0.001012,0.000924,0.002553,0.0,-0.29,9.79,33.53
191997635,0.002077,-0.001207,0.003618,0.02,-0.27,9.84,33.59
191998646,0.002077,-0.002272,0.002553,0.03,-0.27,9.87,33.59
191999666,0.002077,-0.001207,0.000423,0.02,-0.31,9.87,33.54
192000665,0.002077,-0.001207,-0.000643,0.01,-0.32,9.88,33.49
192001677,0.002077,0.000924,0.000423,0.0,-0.28,9.9,33.5
192002685,0.001012,0.001989,0.000423,0.04,-0.25,9.89,33.55
192003696,-5.4e-05,-0.000141,0.001488,0.04,-0.29,9.85,33.58
192004722,0.002077,-0.001207,0.002553,0.03,-0.32,9.82,33.56
192005717,0.002077,0.000924,0.003618,0.01,-0.32,9.84,33.56
192006728,0.002077,0.001989,0.001488,0.01,-0.31,9.86,33.56
192007737,0.001012,-0.000141,-0.002773,0.04,-0.3,9.78,33.58
192008758,0.001012,0.001989,-0.002773,0.02,-0.29,9.76,33.59
192009758,0.002077,0.001989,-0.000643,0.02,-0.33,9.81,33.58
192010766,0.002077,0.000924,-0.000643,0.0,-0.31,9.81,33.55
192011778,0.001012,-0.000141,0.000423,0.01,-0.28,9.83,33.59
192012788,0.001012,0.001989,-0.000643,0.03,-0.33,9.83,33.58
192013796,0.001012,0.003055,-0.001708,0.02,-0.32,9.81,33.57
192014820,0.001012,0.003055,-0.004904,0.0,-0.3,9.84,33.56
192015815,0.001012,-0.000141,-0.004904,0.01,-0.3,9.83,33.51
192016827,-5.4e-05,-0.003337,-0.003839,0.03,-0.27,9.82,33.52
192017835,-0.002184,-0.001207,-0.001708,0.03,-0.23,9.88,33.58
192018856,-5.4e-05,-0.001207,-0.000643,0.02,-0.26,9.85,33.58
192019856,-5.4e-05,-0.000141,-0.000643,0.01,-0.3,9.8,33.56
192020865,-0.001119,0.000924,-0.001708,0.02,-0.29,9.8,33.58
192021877,-5.4e-05,0.000924,-0.001708,0.03,-0.3,9.78,33.58
192022885,-0.001119,-0.001207,-0.001708,0.02,-0.3,9.83,33.59
192023911,-0.001119,-0.001207,-0.001708,0.01,-0.32,9.85,33.58
192024908,-5.4e-05,0.000924,-0.000643,0.04,-0.35,9.82,33.6
192025916,-5.4e-05,0.000924,0.000423,0.05,-0.33,9.82,33.59
192026927,-0.002184,0.001989,-0.000643,0.06,-0.31,9.82,33.58
192027942,-0.002184,0.003055,-0.001708,0.04,-0.32,9.82,33.56
192028961,-0.001119,0.003055,-0.000643,-0.01,-0.32,9.81,33.59
192029960,-0.002184,0.001989,-0.000643,0.02,-0.32,9.76,33.56
192030976,-0.003249,-0.000141,-0.000643,0.03,-0.3,9.79,33.54
192031985,-0.002184,-0.001207,-0.000643,0.01,-0.33,9.85,33.57
192032994,-0.002184,-0.001207,-0.000643,0.0,-0.33,9.82,33.55
192034026,0.001012,-0.000141,0.000423,0.03,-0.29,9.76,33.54
192035014,0.003142,-0.001207,0.002553,0.05,-0.29,9.76,33.54
192036023,-5.4e-05,-0.001207,0.002553,0.01,-0.29,9.84,33.57
192037036,-0.002184,-0.000141,0.001488,0.0,-0.28,9.86,33.57
192038042,-0.001119,-0.001207,0.002553,-0.02,-0.34,9.86,33.56
192039074,0.001012,-0.003337,0.003618,-0.01,-0.36,9.83,33.56
192040070,0.002077,-0.002272,0.002553,0.01,-0.33,9.87,33.57
192041080,0.001012,-0.000141,0.000423,-0.01,-0.28,9.85,33.58
192042090,0.001012,0.001989,-0.000643,-0.04,-0.28,9.82,33.6
192043099,0.001012,0.000924,0.000423,-0.01,-0.28,9.86,33.62
192044106,-5.4e-05,-0.002272,0.002553,0.01,-0.32,9.84,33.61
192045113,0.001012,-0.001207,0.001488,0.01,-0.31,9.82,33.57
192046131,0.002077,-0.002272,-0.000643,0.04,-0.31,9.83,33.59
192047150,0.002077,-0.001207,0.000423,0.03,-0.33,9.8,33.58
192048147,0.002077,-0.002272,0.000423,0.03,-0.34,9.79,33.56
192049165,0.003142,-0.005468,-0.000643,0.01,-0.37,9.81,33.56
192050157,0.001012,-0.008664,-0.003839,0.01,-0.33,9.8,33.56
192051166,-0.001119,-0.007598,-0.002773,0.02,-0.31,9.79,33.58
192052216,-0.002184,-0.004402,-0.000643,0.01,-0.32,9.79,33.59
192053189,-5.4e-05,-0.000141,-0.000643,-0.01,-0.31,9.79,33.62
192054251,0.001012,0.001989,-0.000643,-0.01,-0.3,9.83,33.6
192055210,0.002077,0.001989,-0.000643,0.01,-0.29,9.85,33.61
192056217,0.001012,0.000924,0.000423,0.03,-0.29,9.83,33.63
192057227,-0.001119,-0.000141,-0.000643,0.04,-0.28,9.81,33.59
192058235,-0.002184,-0.000141,-0.000643,0.03,-0.3,9.78,33.59
192059256,-0.002184,0.000924,0.000423,0.03,-0.32,9.76,33.53
192060256,-0.001119,0.001989,0.001488,0.02,-0.3,9.77,33.54
192061266,-0.001119,0.001989,0.001488,0.0,-0.29,9.79,33.56
192062276,-0.001119,-0.000141,0.000423,0.02,-0.29,9.78,33.56
192063286,0.004208,-0.002272,-0.001708,0.01,-0.31,9.79,33.56
192064295,0.007403,-0.002272,-0.002773,0.02,-0.28,9.85,33.56
192065306,0.007403,-0.000141,-0.001708,0.04,-0.3,9.82,33.55
192066315,0.003142,0.000924,-0.000643,0.01,-0.33,9.78,33.59
192067325,0.002077,0.000924,0.000423,0.03,-0.3,9.8,33.54
192068335,0.001012,-0.000141,0.000423,0.04,-0.31,9.82,33.53
192069355,-5.4e-05,-0.003337,0.000423,0.01,-0.31,9.82,33.54
192070356,-0.001119,-0.003337,-0.000643,0.01,-0.29,9.84,33.56
192071366,-0.001119,-0.000141,-0.000643,0.02,-0.32,9.84,33.6
192072377,0.001012,0.000924,-0.002773,-0.02,-0.36,9.86,33.61
192073385,0.001012,-0.000141,-0.002773,0.0,-0.34,9.82,33.59
192074396,-0.001119,-0.000141,-0.000643,0.02,-0.31,9.79,33.59
192075405,-0.004315,-0.000141,0.000423,0.0,-0.3,9.86,33.57
192076416,-0.004315,-0.001207,-0.000643,0.0,-0.28,9.83,33.56
192077452,-0.004381,-0.002279,-0.00167,0.01,-0.3,9.77,33.58
192078438,-0.001186,-0.001214,-0.00167,0.01,-0.29,9.78,33.57
192079456,0.00201,-0.001214,0.001526,0.02,-0.27,9.82,33.59
192080455,0.004141,-0.002279,0.004722,0.04,-0.32,9.89,33.6
192081466,0.00201,-0.002279,0.003657,0.04,-0.31,9.91,33.61
192082477,-0.00012,-0.002279,0.001526,0.03,-0.28,9.84,33.58
192083485,-0.00012,-0.002279,0.000461,0.03,-0.29,9.8,33.58
192084496,-0.00012,-0.001214,0.000461,0.04,-0.3,9.82,33.6
192085505,-0.00012,-0.000148,0.000461,0.05,-0.3,9.81,33.62
192086516,0.000945,-0.001214,0.001526,0.06,-0.29,9.8,33.61
192087525,0.000945,-0.003344,0.000461,0.06,-0.3,9.8,33.56
192088536,-0.001186,-0.003344,-0.000604,0.01,-0.31,9.77,33.56
192089556,-0.003316,-0.002279,0.000461,0.0,-0.33,9.8,33.59
192090555,-0.001186,0.000917,0.000461,0.0,-0.34,9.82,33.6
192091566,0.000945,0.003048,-0.000604,-0.01,-0.32,9.76,33.59
192092576,0.00201,0.000917,-0.000604,0.02,-0.33,9.76,33.6
192093586,0.003076,-0.000148,0.000461,0.03,-0.31,9.81,33.59
192094595,0.004141,-0.000148,0.001526,0.02,-0.28,9.8,33.6
192095606,0.00201,0.001982,0.001526,0.03,-0.31,9.79,33.6
192096615,-0.00012,0.000917,0.000461,0.04,-0.31,9.81,33.58
192097627,-0.001186,-0.000148,-0.000604,0.04,-0.29,9.86,33.61
192098635,-0.001186,0.001982,-0.000604,0.01,-0.3,9.88,33.54
192099655,-0.001186,0.003048,-0.00167,-0.01,-0.3,9.83,33.56
192100656,-0.00012,0.001982,-0.00167,-0.01,-0.32,9.81,33.58
192101665,0.003076,-0.001214,-0.000604,-0.01,-0.3,9.86,33.57
192102677,0.00201,0.000917,0.000461,0.01,-0.28,9.82,33.57
192103685,0.000945,0.004113,0.000461,0.01,-0.28,9.79,33.58
192104696,0.000945,0.001982,-0.000604,0.03,-0.29,9.82,33.59
192105705,-0.00012,-0.000148,-0.000604,0.03,-0.33,9.8,33.55
192106716,-0.001186,-0.002279,0.000461,0.0,-0.33,9.85,33.55
192107725,-0.003316,-0.003344,0.000461,-0.01,-0.31,9.89,33.56
192108744,-0.005447,-0.000148,0.000461,-0.02,-0.32,9.84,33.56
192109746,-0.002251,0.000917,0.000461,-0.01,-0.32,9.82,33.53
192110755,0.000945,0.000917,0.001526,0.01,-0.3,9.79,33.52
192111766,-0.00012,0.000917,0.001526,-0.02,-0.29,9.78,33.53
192112776,-0.00012,-0.000148,0.000461,-0.04,-0.3,9.82,33.56
192113786,0.000945,-0.002279,-0.000604,-0.01,-0.33,9.84,33.59
192114795,0.00201,-0.004409,-0.000604,0.03,-0.31,9.82,33.59
192115806,0.003076,-0.004409,-0.00167,0.01,-0.29,9.78,33.59
192116815,0.00201,-0.003344,-0.00167,0.0,-0.31,9.84,33.57
192117881,-0.00012,-0.000148,-0.00167,0.01,-0.28,9.83,33.58
192118877,-0.002251,0.000917,-0.00167,0.01,-0.28,9.78,33.56
192119847,-0.001186,0.001982,-0.00167,0.04,-0.32,9.82,33.57
192120856,0.000945,0.003048,0.000461,0.01,-0.33,9.86,33.57
192121867,0.00201,0.001982,0.001526,-0.01,-0.31,9.83,33.61
192122877,0.000945,-0.001214,0.002591,0.0,-0.3,9.83,33.6
192123887,-0.00012,-0.000148,0.001526,0.02,-0.32,9.84,33.58
192124896,-0.001186,0.001982,0.002591,0.02,-0.34,9.86,33.58
192125907,-0.002251,0.003048,0.002591,0.0,-0.33,9.86,33.57
192126916,-0.002251,-0.001214,0.001526,0.02,-0.33,9.78,33.58
192127927,-0.002251,-0.004409,0.000461,0.04,-0.33,9.79,33.53
192128947,-0.004381,-0.003344,0.001526,0.04,-0.31,9.84,33.54
192129948,-0.005447,-0.001214,0.002591,0.03,-0.27,9.84,33.55
192130958,-0.006512,-0.000148,0.001526,0.03,-0.28,9.87,33.57
192131971,-0.005447,-0.001214,0.000461,0.02,-0.3,9.89,33.57
192132984,-0.002251,-0.001214,-0.000604,0.0,-0.27,9.85,33.59
192133995,-0.00012,-0.003344,-0.000604,0.01,-0.31,9.8,33.59
192135005,-0.00012,-0.003344,-0.002735,0.03,-0.33,9.84,33.6
192136020,-0.00012,-0.000148,-0.0038,0.02,-0.35,9.86,33.64
192137023,-0.00012,-0.000148,-0.000604,0.01,-0.34,9.88,33.62
192138036,-0.003316,-0.002279,-0.00167,0.02,-0.28,9.77,33.58
192139056,-0.001186,-0.001214,-0.002735,0.03,-0.3,9.82,33.57
192140060,0.00201,0.000917,-0.002735,0.04,-0.3,9.86,33.59
192141065,0.003076,0.003048,-0.002735,0.05,-0.3,9.86,33.59
192142081,0.00201,0.004113,-0.002735,0.04,-0.29,9.83,33.55
192143095,0.003076,0.001982,-0.002735,0.02,-0.3,9.82,33.57
192144104,0.004141,-0.001214,-0.00167,0.01,-0.32,9.86,33.59
192145108,0.000945,-0.001214,0.000461,0.01,-0.32,9.85,33.59
192146113,-0.001186,-0.000148,0.001526,0.03,-0.33,9.83,33.59
192147129,-0.001186,-0.002279,0.001526,0.06,-0.34,9.82,33.57
192148132,-0.002251,-0.004409,0.000461,0.06,-0.34,9.8,33.6
192149216,-0.001186,-0.004409,0.001526,0.03,-0.35,9.84,33.6
192150154,0.000945,-0.002279,0.002591,-0.01,-0.32,9.87,33.57
192151158,0.00201,0.000917,0.002591,-0.01,-0.28,9.82,33.55
192152193,0.00201,0.001982,0.000461,0.01,-0.29,9.78,33.57
192153181,0.00201,0.000917,-0.000604,0.02,-0.29,9.81,33.6
192154195,-0.00012,-0.002279,0.000461,0.04,-0.31,9.82,33.58
192155201,-0.001186,-0.001214,0.000461,0.05,-0.31,9.83,33.54
192156230,-0.003316,-0.000148,-0.00167,0.03,-0.31,9.82,33.59
192157219,-0.004381,-0.000148,-0.0038,-0.01,-0.33,9.78,33.59
192158227,-0.002251,0.000917,-0.002735,0.02,-0.32,9.8,33.56
192159245,-0.00012,0.003048,0.000461,0.04,-0.32,9.86,33.55
192160247,-0.00012,0.001982,0.000461,0.03,-0.32,9.88,33.59
192161256,-0.001186,-0.000148,-0.000604,0.01,-0.31,9.87,33.57
192162267,-0.002251,-0.002279,-0.00167,-0.01,-0.31,9.86,33.6
192163277,-0.002251,-0.002279,-0.00167,0.02,-0.32,9.83,33.58
192164287,-0.003316,-0.000148,-0.000604,0.05,-0.33,9.82,33.56
192165296,-0.002251,0.000917,0.000461,0.03,-0.35,9.81,33.57
192166307,-0.001186,0.000917,-0.000604,0.0,-0.35,9.83,33.61
192167316,0.00201,0.001982,-0.00167,0.0,-0.33,9.82,33.61
192168327,0.003076,0.000917,-0.00167,0.03,-0.32,9.81,33.56
192169346,0.00201,0.000917,0.000461,0.04,-0.29,9.82,33.55
192170346,-0.001186,0.000917,-0.000604,0.04,-0.28,9.78,33.54
192171357,-0.003316,-0.000148,-0.00167,0.02,-0.33,9.78,33.58
192172366,-0.003316,-0.000148,-0.00167,0.01,-0.35,9.81,33.59
192173378,-0.002251,0.001982,0.001526,0.03,-0.33,9.82,33.58
192174386,-0.003316,0.000917,0.003657,0.03,-0.32,9.82,33.56
192175397,-0.003316,-0.001214,0.002591,0.0,-0.33,9.83,33.57
192176406,-0.002251,-0.002279,0.000461,0.0,-0.34,9.85,33.55
192177417,-0.001186,-0.002279,0.000461,0.02,-0.3,9.84,33.52
192178427,0.000945,-0.004409,-0.000604,0.03,-0.31,9.87,33.55
192179445,-0.00012,-0.003344,-0.00167,0.04,-0.33,9.82,33.58
192180447,-0.002251,-0.001214,0.001526,0.04,-0.33,9.71,33.58
192181456,-0.002251,-0.000148,0.003657,0.03,-0.32,9.78,33.56
192182467,-0.002251,-0.001214,0.002591,0.01,-0.3,9.79,33.59
192183477,-0.002251,-0.001214,0.000461,0.01,-0.3,9.74,33.58
192184487,-0.002251,-0.002279,-0.00167,0.02,-0.29,9.79,33.58
192185496,-0.001186,-0.002279,-0.002735,0.03,-0.31,9.79,33.55
192186507,-0.001186,-0.001214,-0.00167,0.04,-0.34,9.79,33.55
192187516,-0.002251,-0.000148,-0.000604,0.02,-0.33,9.83,33.53
192188527,-0.00012,0.001982,0.000461,-0.01,-0.34,9.8,33.54
192189546,0.004141,0.001982,-0.000604,0.0,-0.33,9.79,33.53
192190546,0.005206,0.000917,-0.000604,0.03,-0.3,9.83,33.57
192191557,0.004141,-0.001214,-0.00167,0.05,-0.31,9.85,33.57
192192566,0.000945,-0.000148,-0.004866,0.04,-0.29,9.84,33.59
192193578,-0.00012,0.000917,-0.004866,0.03,-0.29,9.82,33.59
192194586,-0.00012,0.000917,-0.002735,0.04,-0.32,9.85,33.55
192195597,0.000945,-0.000148,-0.00167,0.04,-0.29,9.84,33.56
192196606,0.000945,0.000917,0.001526,0.03,-0.27,9.83,33.56
192197617,0.000945,0.003048,0.002591,0.02,-0.3,9.83,33.57
192198627,0.000945,0.004113,0.000461,0.02,-0.34,9.84,33.55
192199645,-0.00012,0.003048,-0.000604,0.04,-0.32,9.8,33.58
192200647,0.00201,-0.000148,-0.000604,0.03,-0.31,9.75,33.58
192201656,0.003076,-0.000148,0.001526,0.03,-0.34,9.81,33.56
192202667,0.000945,0.000917,0.002591,0.05,-0.32,9.83,33.56
192203677,0.00201,0.003048,0.000461,0.05,-0.32,9.84,33.56
192204687,-0.00012,0.003048,-0.000604,0.04,-0.32,9.87,33.55
192205696,-0.002251,-0.000148,-0.00167,0.0,-0.32,9.87,33.56
192206738,-0.001152,-0.001186,-0.000595,0.02,-0.32,9.85,33.6
192207718,-8.7e-05,-0.002251,-0.000595,0.04,-0.33,9.82,33.57
192208736,0.000979,-0.002251,-0.000595,0.04,-0.33,9.81,33.57
192209737,0.000979,-0.001186,-0.00166,0.04,-0.32,9.83,33.59
192210746,-8.7e-05,-0.00012,-0.00166,0.02,-0.3,9.84,33.61
192211757,-0.002217,-0.00012,-0.00166,0.01,-0.29,9.82,33.58
192212766,-0.002217,-0.00012,-0.00166,0.0,-0.3,9.79,33.57
192213778,0.000979,-0.00012,-0.000595,-0.01,-0.32,9.77,33.58
192214786,0.002044,0.00201,0.00047,0.03,-0.33,9.81,33.59
192215797,0.000979,0.00201,0.00047,0.04,-0.3,9.83,33.59
192216806,-8.7e-05,0.000945,0.00047,0.02,-0.28,9.85,33.56
192217817,-0.001152,-0.00012,-0.000595,0.03,-0.3,9.87,33.59
192218839,0.000979,-0.002251,-0.003791,0.04,-0.32,9.82,33.59
192219836,-8.7e-05,-0.003316,-0.004856,0.03,-0.32,9.82,33.59
192220847,-0.003283,-0.002251,-0.002725,0.01,-0.32,9.85,33.59
192221856,-0.004348,-0.00012,-0.000595,0.03,-0.32,9.85,33.61
192222867,-0.003283,0.003075,0.00047,0.04,-0.3,9.82,33.6
192223876,-0.002217,0.003075,0.001536,0.02,-0.3,9.8,33.55
192224887,-0.001152,0.00201,0.002601,0.03,-0.32,9.85,33.53
192225896,-8.7e-05,-0.002251,0.00047,0.03,-0.32,9.86,33.59
192226907,-0.001152,-0.003316,-0.00166,0.03,-0.32,9.82,33.6
192227916,-0.001152,-0.003316,-0.00166,0.06,-0.33,9.86,33.6
192228938,-0.001152,-0.00012,0.00047,0.07,-0.35,9.92,33.58
192229939,-8.7e-05,0.00201,0.002601,0.03,-0.31,9.91,33.55
192230948,-8.7e-05,0.00201,0.002601,-0.01,-0.29,9.88,33.6
192231960,0.000979,0.000945,0.002601,0.02,-0.33,9.87,33.57
192232971,0.002044,0.00201,0.00047,0.04,-0.34,9.83,33.53
192233988,0.000979,0.000945,-0.00166,-0.01,-0.32,9.83,33.54
192234991,-0.001152,0.000945,-0.00166,0.0,-0.32,9.85,33.58
192236004,-0.001152,-0.00012,-0.000595,0.03,-0.3,9.82,33.58
192237016,-0.002217,-0.001186,0.001536,0.02,-0.33,9.78,33.58
192238024,-0.003283,-0.003316,0.002601,0.02,-0.34,9.84,33.57
192239046,-0.002217,-0.003316,0.001536,-0.02,-0.31,9.81,33.56
192240044,0.000979,-0.001186,-0.00166,0.02,-0.34,9.81,33.56
192241060,0.002044,-0.00012,-0.00166,0.02,-0.32,9.85,33.54
192242065,-8.7e-05,-0.003316,0.001536,0.03,-0.31,9.86,33.56
192243082,-0.001152,-0.006512,0.001536,0.04,-0.33,9.85,33.56
192244090,-8.7e-05,-0.004382,-0.00166,-0.01,-0.28,9.83,33.57
192245105,0.000979,-0.001186,-0.00166,0.0,-0.28,9.79,33.55
192246104,-8.7e-05,-0.001186,-0.000595,0.02,-0.31,9.8,33.58
192247116,-0.001152,-0.001186,0.00047,0.01,-0.3,9.83,33.59
192248125,-0.001152,-0.00012,-0.000595,0.04,-0.29,9.78,33.59
192249153,-0.001152,0.000945,-0.00166,0.05,-0.3,9.83,33.57
192250143,-0.002217,0.000945,-0.000595,0.03,-0.33,9.89,33.58
192251155,-0.002217,0.000945,-0.000595,0.04,-0.33,9.83,33.56
192252209,-0.001152,-0.00012,0.002601,0.03,-0.31,9.82,33.58
192253166,0.000979,-0.00012,0.003666,0.02,-0.32,9.8,33.59
192254191,0.003109,-0.00012,0.002601,0.05,-0.31,9.79,33.62
192255189,0.002044,-0.001186,0.00047,0.05,-0.27,9.83,33.59
192256201,0.000979,-0.001186,0.001536,0.02,-0.28,9.84,33.57
192257210,0.000979,-0.001186,0.002601,0.03,-0.31,9.85,33.58
192258219,-0.001152,-0.002251,0.00047,0.04,-0.31,9.83,33.54
192259239,-0.001152,-0.004382,0.00047,0.04,-0.31,9.8,33.54
192260236,-0.001152,-0.004382,0.001536,0.03,-0.32,9.81,33.56
192261247,-8.7e-05,-0.001186,0.002601,0.0,-0.34,9.83,33.58
192262279,0.000979,0.000945,0.001536,-0.01,-0.33,9.82,33.58
192263267,0.002044,-0.00012,0.002601,0.02,-0.31,9.83,33.6
192264276,0.002044,-0.001186,0.003666,0.04,-0.3,9.84,33.57
192265287,0.003109,-0.00012,0.002601,0.02,-0.3,9.83,33.57
192266297,0.003109,-0.001186,0.00047,0.0,-0.3,9.82,33.58
192267307,0.000979,-0.001186,-0.000595,0.03,-0.3,9.82,33.57
192268317,-8.7e-05,-0.002251,-0.000595,0.03,-0.3,9.84,33.54
192269338,-0.001152,-0.001186,-0.000595,0.02,-0.33,9.86,33.53
192270336,-0.003283,0.000945,-0.00166,0.02,-0.38,9.82,33.58
192271347,-0.002217,0.000945,-0.00166,0.0,-0.35,9.77,33.59
192272356,-8.7e-05,-0.00012,0.00047,0.01,-0.33,9.81,33.59
192273367,-0.001152,-0.00012,0.002601,-0.01,-0.3,9.84,33.57
192274377,-0.003283,0.000945,0.001536,0.0,-0.29,9.85,33.56
192275387,-0.002217,0.000945,0.00047,0.03,-0.29,9.8,33.61
192276396,0.002044,-0.001186,-0.000595,0.02,-0.3,9.84,33.63
192277407,0.003109,-0.003316,-0.00166,0.0,-0.31,9.91,33.59
192278416,0.003109,-0.004382,-0.00166,0.0,-0.31,9.84,33.59
192279438,0.002044,-0.002251,-0.000595,0.01,-0.3,9.82,33.6
192280437,0.000979,-0.00012,-0.000595,0.01,-0.28,9.87,33.55
192281446,-8.7e-05,-0.00012,-0.000595,0.04,-0.3,9.81,33.56
192282457,-0.001152,-0.001186,-0.000595,0.05,-0.32,9.8,33.59
192283466,0.000979,-0.001186,0.00047,0.06,-0.3,9.89,33.59
192284477,0.002044,-0.001186,0.00047,0.06,-0.31,9.88,33.63
192285486,0.002044,0.000945,0.00047,0.05,-0.29,9.83,33.59
192286497,-8.7e-05,-0.00012,0.003666,0.06,-0.27,9.84,33.59
192287506,-0.003283,-0.002251,0.003666,0.06,-0.3,9.82,33.62
192288517,-0.005413,-0.002251,0.001536,0.04,-0.31,9.78,33.61
192289538,-0.002217,-0.002251,0.00047,0.04,-0.3,9.82,33.6
192290536,-8.7e-05,-0.001186,-0.00166,0.02,-0.3,9.82,33.6
192291547,0.002044,-0.001186,-0.000595,0.0,-0.32,9.79,33.61
192292556,0.002044,-0.001186,0.001536,0.0,-0.34,9.82,33.59
192293567,0.002044,-0.00012,0.002601,-0.01,-0.33,9.82,33.59
192294577,-0.001152,-0.00012,0.003666,-0.01,-0.31,9.83,33.56
192295587,-8.7e-05,-0.001186,0.002601,0.0,-0.32,9.82,33.58
192296596,0.000979,-0.00012,0.00047,0.03,-0.34,9.78,33.56
192297607,-8.7e-05,-0.00012,-0.000595,0.02,-0.3,9.78,33.55
192298616,-0.002217,-0.002251,0.00047,-0.01,-0.28,9.81,33.56
192299638,-0.001152,-0.002251,0.002601,-0.02,-0.27,9.77,33.56
192300637,0.000979,-0.003316,0.002601,-0.02,-0.24,9.79,33.58
192301646,0.003109,-0.003316,0.00047,0.01,-0.24,9.87,33.6
192302657,0.002044,-0.004382,0.001536,0.05,-0.32,9.89,33.63
192303666,-8.7e-05,-0.003316,0.002601,0.04,-0.33,9.89,33.58
192304677,-8.7e-05,-0.00012,0.001536,0.03,-0.3,9.9,33.61
192305686,0.000979,0.00201,0.00047,0.01,-0.33,9.82,33.61
192306697,-8.7e-05,0.000945,-0.000595,0.0,-0.33,9.74,33.62
192307706,-8.7e-05,0.000945,-0.00166,-0.01,-0.31,9.74,33.58
192308725,-8.7e-05,-0.00012,-0.00166,-0.01,-0.32,9.75,33.59
192309729,-0.001152,-0.00012,0.00047,0.02,-0.33,9.83,33.59
192310736,-0.002217,-0.001186,0.001536,0.04,-0.31,9.86,33.61
192311747,-0.001152,-0.001186,0.001536,0.02,-0.3,9.82,33.63
192312756,0.002044,-0.00012,-0.000595,0.01,-0.31,9.79,33.61
192313767,0.003109,0.000945,-0.002725,0.01,-0.31,9.78,33.56
192314777,0.003109,-0.00012,-0.00166,0.0,-0.31,9.76,33.56
192315787,0.002044,-0.00012,-0.000595,0.01,-0.31,9.8,33.59
192316796,0.000979,0.00201,0.001536,0.03,-0.31,9.89,33.61
192317807,0.000979,0.003075,0.002601,0.01,-0.3,9.88,33.59
192318826,0.000979,0.000945,0.002601,-0.01,-0.3,9.83,33.59
192319827,0.000979,-0.00012,-0.000595,-0.01,-0.32,9.8,33.58
192320837,-0.001152,-0.00012,-0.000595,-0.01,-0.33,9.82,33.57
192321846,-0.001152,0.003075,0.002601,0.02,-0.33,9.84,33.55
192322857,-0.001152,0.003075,0.003666,0.03,-0.32,9.82,33.56
192323866,-0.001152,0.000945,0.002601,0.02,-0.31,9.84,33.53
192324877,-8.7e-05,0.00201,0.001536,0.02,-0.3,9.83,33.56
192325886,-8.7e-05,0.004141,-0.000595,0.01,-0.31,9.8,33.61
192326897,0.000979,0.004141,-0.000595,0.01,-0.3,9.82,33.61
192327906,0.000979,0.00201,0.00047,0.03,-0.29,9.8,33.59
192328925,-8.7e-05,-0.00012,0.002601,0.04,-0.27,9.81,33.59
192329929,-0.001152,-0.001186,0.002601,0.03,-0.28,9.83,33.55
192330937,-0.001152,-0.00012,0.001536,0.03,-0.31,9.84,33.53
192331948,-8.7e-05,0.000945,0.00047,0.02,-0.29,9.86,33.58
192332958,-8.7e-05,0.00201,0.00047,0.01,-0.28,9.81,33.59
192333983,0.000979,-0.00012,-0.00166,0.02,-0.28,9.8,33.59
192334986,0.002044,-0.001186,-0.000595,0.02,-0.31,9.83,33.63
192336023,-8.1e-05,-0.001126,-0.000645,0.0,-0.3,9.82,33.59
192337004,-0.001147,0.001004,-0.000645,0.0,-0.29,9.83,33.59
192338021,-8.1e-05,0.001004,-0.000645,0.02,-0.31,9.84,33.61
192339034,0.000984,-6.1e-05,-0.001711,0.01,-0.3,9.81,33.58
192340035,0.000984,0.001004,-0.000645,0.02,-0.32,9.78,33.57
192341043,-0.001147,-6.1e-05,-0.001711,-0.01,-0.33,9.81,33.6
192342061,-0.001147,-0.002191,-0.002776,0.01,-0.36,9.82,33.59
192343066,-8.1e-05,-0.003257,-0.002776,0.02,-0.36,9.78,33.57
192344080,-8.1e-05,-0.002191,-0.001711,0.0,-0.32,9.79,33.55
192345087,-0.001147,-6.1e-05,-0.000645,0.04,-0.3,9.83,33.53
192346102,-0.002212,0.00207,-0.000645,0.01,-0.29,9.83,33.53
192347138,-0.002212,0.001004,-0.000645,0.0,-0.31,9.83,33.56
192348118,-0.001147,-6.1e-05,0.00042,0.04,-0.33,9.83,33.55
192349138,-0.001147,-0.001126,0.00042,0.02,-0.3,9.84,33.58
192350135,-0.001147,0.001004,-0.000645,0.02,-0.29,9.86,33.56
192351142,-0.003277,0.00207,-0.000645,0.01,-0.28,9.84,33.55
192352157,-0.002212,0.003135,-0.000645,0.01,-0.25,9.79,33.59
192353158,-8.1e-05,0.001004,-0.000645,0.03,-0.28,9.81,33.58
192354177,0.002049,-0.002191,-0.000645,0.02,-0.31,9.85,33.59
192355206,0.002049,-0.003257,0.00042,0.02,-0.28,9.82,33.59
192356190,0.000984,-0.004322,0.00255,0.04,-0.29,9.77,33.57
192357200,0.002049,-0.003257,0.00042,0.02,-0.31,9.78,33.54
192358211,0.003115,-0.002191,-0.001711,0.0,-0.3,9.83,33.56
192359229,0.003115,-0.002191,-0.001711,0.02,-0.3,9.81,33.62
192360227,-0.001147,-0.002191,-0.000645,0.06,-0.31,9.79,33.6
192361277,-0.002212,-0.001126,0.001485,0.07,-0.3,9.84,33.62
192362246,-0.001147,0.001004,0.001485,0.05,-0.3,9.86,33.63
192363257,-0.001147,-6.1e-05,0.00042,0.02,-0.28,9.82,33.59
192364266,-8.1e-05,0.001004,0.00042,0.01,-0.27,9.79,33.56
192365277,0.000984,-0.001126,0.001485,0.0,-0.31,9.78,33.58
192366286,0.000984,-0.001126,0.001485,0.0,-0.3,9.79,33.58
192367297,0.000984,-6.1e-05,0.00255,0.0,-0.29,9.79,33.53
192368306,0.002049,-0.001126,0.00255,0.01,-0.28,9.83,33.54
192369325,0.000984,-0.001126,0.003616,0.05,-0.27,9.82,33.59
192370329,-8.1e-05,0.001004,0.003616,0.04,-0.29,9.82,33.56
192371336,0.000984,0.001004,0.003616,0.02,-0.32,9.83,33.58
192372347,0.000984,0.001004,0.001485,0.02,-0.33,9.81,33.61
192373356,-0.001147,0.001004,-0.000645,0.01,-0.29,9.84,33.59
192374367,-0.002212,0.001004,-0.000645,0.02,-0.28,9.86,33.56
192375377,0.000984,-6.1e-05,0.00042,0.01,-0.31,9.87,33.58
192376387,0.002049,0.001004,-0.000645,0.0,-0.32,9.87,33.57
192377396,-8.1e-05,-6.1e-05,-0.003841,0.0,-0.33,9.83,33.6
192378407,-0.002212,-0.003257,-0.002776,0.02,-0.33,9.82,33.59
192379426,-0.002212,-0.004322,-0.001711,0.01,-0.29,9.81,33.56
192380427,-8.1e-05,-0.002191,-0.000645,0.02,-0.3,9.79,33.56
192381437,-8.1e-05,-6.1e-05,0.00042,0.01,-0.32,9.79,33.58
192382446,-8.1e-05,-6.1e-05,0.001485,0.02,-0.31,9.82,33.58
192383457,0.000984,-6.1e-05,0.00042,0.06,-0.32,9.82,33.59
192384466,-8.1e-05,-6.1e-05,0.00042,0.04,-0.31,9.8,33.57
192385477,-0.001147,-0.001126,0.001485,0.03,-0.28,9.82,33.56
192386486,-0.002212,-0.002191,0.001485,0.02,-0.31,9.86,33.56
192387497,-8.1e-05,-0.003257,0.003616,0.01,-0.33,9.86,33.57
192388506,-8.1e-05,-0.002191,0.003616,0.01,-0.31,9.82,33.56
192389525,-0.001147,-0.001126,0.00042,0.02,-0.31,9.82,33.56
192390529,-0.001147,-6.1e-05,-0.001711,0.03,-0.3,9.82,33.57
192391536,-0.001147,-6.1e-05,-0.000645,0.04,-0.26,9.81,33.57
192392547,-0.001147,0.001004,0.00042,0.02,-0.28,9.81,33.54
192393556,-0.001147,0.003135,0.001485,0.01,-0.31,9.82,33.58
192394567,-0.003277,0.001004,0.00042,0.01,-0.3,9.8,33.57
192395577,-0.002212,-6.1e-05,-0.000645,-0.02,-0.29,9.8,33.55
192396587,-0.002212,0.001004,-0.001711,-0.02,-0.29,9.84,33.56
192397596,-0.001147,-6.1e-05,-0.000645,0.03,-0.3,9.87,33.55
192398607,0.000984,-6.1e-05,-0.000645,0.04,-0.31,9.83,33.56
192399626,0.002049,0.001004,-0.000645,0.05,-0.28,9.84,33.56
192400627,0.002049,0.001004,0.00042,0.07,-0.26,9.82,33.59
192401637,0.002049,-6.1e-05,0.00255,0.03,-0.31,9.8,33.59
192402646,-8.1e-05,-0.001126,0.00042,0.02,-0.3,9.83,33.57
192403657,-0.003277,-6.1e-05,-0.001711,0.04,-0.29,9.79,33.56
192404666,-0.004342,-0.001126,-0.000645,0.04,-0.31,9.73,33.58
192405677,-0.001147,-0.001126,0.001485,0.03,-0.32,9.78,33.6
192406686,-8.1e-05,-6.1e-05,0.00255,0.04,-0.32,9.87,33.57
192407697,-8.1e-05,-0.001126,0.00255,0.06,-0.29,9.85,33.55
192408718,-0.001147,-0.001126,0.004681,0.07,-0.29,9.82,33.57
192409716,-8.1e-05,-0.002191,0.004681,0.06,-0.32,9.8,33.58
192410729,-0.001147,-0.002191,0.00255,0.04,-0.32,9.79,33.56
192411736,-0.002212,-0.002191,0.00042,0.0,-0.35,9.83,33.59
192412747,-0.002212,-6.1e-05,0.001485,0.02,-0.36,9.83,33.59
192413756,-8.1e-05,0.00207,0.00255,0.02,-0.31,9.78,33.59
192414767,0.000984,0.001004,0.003616,0.01,-0.3,9.8,33.58
192415777,0.000984,0.001004,0.00255,0.02,-0.31,9.81,33.56
192416787,0.000984,0.00207,0.001485,0.05,-0.32,9.8,33.57
192417796,-8.1e-05,0.001004,0.00042,0.06,-0.31,9.8,33.59
192418816,-0.001147,-6.1e-05,-0.000645,0.03,-0.3,9.79,33.56
192419817,-8.1e-05,-0.001126,-0.002776,0.02,-0.29,9.78,33.55
192420827,0.000984,-6.1e-05,-0.001711,0.02,-0.27,9.77,33.56
192421837,0.002049,0.001004,-0.000645,0.04,-0.28,9.79,33.59
192422846,0.000984,-0.001126,0.001485,0.04,-0.32,9.81,33.58
192423857,0.000984,-0.003257,0.003616,0.02,-0.33,9.8,33.61
192424866,0.002049,-0.002191,0.001485,0.02,-0.31,9.82,33.59
192425877,0.000984,-0.001126,0.00042,0.0,-0.33,9.78,33.61
192426887,-8.1e-05,-6.1e-05,0.00042,0.03,-0.32,9.78,33.6
192427896,0.002049,-6.1e-05,-0.000645,0.03,-0.26,9.83,33.56
192428916,0.002049,0.001004,-0.000645,0.0,-0.26,9.84,33.59
192429917,0.000984,0.003135,0.00042,0.02,-0.3,9.84,33.59
192430927,-8.1e-05,0.005266,0.001485,-0.02,-0.34,9.84,33.59
192431939,0.000984,0.003135,-0.000645,-0.03,-0.37,9.83,33.59
192432948,-8.1e-05,-6.1e-05,-0.001711,0.01,-0.34,9.85,33.58
192433961,-8.1e-05,-0.003257,-0.000645,0.04,-0.34,9.87,33.58
192434972,0.000984,-0.003257,0.00042,0.03,-0.33,9.84,33.57
192435985,0.002049,-0.001126,0.001485,0.04,-0.31,9.83,33.58
192436992,0.000984,-0.001126,0.001485,0.05,-0.31,9.83,33.57
192438004,-8.1e-05,-0.002191,-0.000645,0.02,-0.32,9.83,33.59
192439034,-0.002212,-0.001126,-0.001711,0.0,-0.33,9.84,33.61
192440024,-0.002212,-0.001126,0.001485,0.02,-0.31,9.76,33.58
192441037,-0.001147,-0.001126,0.00042,-0.03,-0.33,9.82,33.6
192442043,0.000984,-0.001126,0.00042,-0.03,-0.34,9.83,33.6
192443061,0.000984,-0.002191,0.00042,0.02,-0.33,9.81,33.61
192444065,0.000984,-0.002191,-0.000645,0.04,-0.32,9.82,33.58
192445082,-8.1e-05,-0.001126,-0.001711,0.03,-0.32,9.82,33.64
192446087,-0.001147,-6.1e-05,-0.000645,0.04,-0.31,9.75,33.64
192447102,-0.002212,0.001004,0.001485,0.03,-0.31,9.76,33.59
192448106,-0.001147,0.00207,0.001485,0.02,-0.29,9.8,33.57
192449125,-8.1e-05,0.00207,-0.000645,0.02,-0.29,9.82,33.56
192450129,0.000984,0.001004,-0.000645,0.01,-0.32,9.81,33.52
192451138,0.000984,0.00207,0.00042,0.03,-0.32,9.82,33.57
192452153,0.000984,0.003135,-0.000645,0.06,-0.31,9.8,33.58
192453155,-0.001147,0.00207,0.001485,0.02,-0.32,9.77,33.59
192454164,-0.001147,0.001004,0.003616,0.0,-0.3,9.81,33.59
192455167,-8.1e-05,0.00207,0.004681,0.02,-0.28,9.77,33.61
192456241,-8.1e-05,0.0042,0.003616,0.01,-0.29,9.81,33.62
192457189,-0.002212,0.005266,0.00255,0.01,-0.27,9.84,33.62
192458201,-0.003277,0.00207,0.00042,0.03,-0.28,9.79,33.62
192459221,-0.003277,-0.002191,0.00042,0.03,-0.31,9.82,33.58
192460218,-0.002212,-0.003257,0.00042,0.05,-0.34,9.86,33.6
192461228,-0.002212,-0.001126,-0.000645,0.06,-0.33,9.87,33.59
192462236,-0.001147,0.001004,-0.001711,0.05,-0.3,9.82,33.56
192463247,-8.1e-05,0.001004,0.00042,0.04,-0.32,9.81,33.58
192464256,-0.001147,-6.1e-05,0.00042,0.01,-0.33,9.79,33.55
192465294,-0.003241,-0.001103,-0.00176,0.03,-0.34,9.8,33.54
192466278,-0.004307,-0.003233,-0.00176,0.05,-0.32,9.83,33.54
192467287,-0.002176,-0.003233,0.00037,0.03,-0.32,9.82,33.58
192468296,0.00102,-0.002168,0.00037,0.02,-0.34,9.83,33.6
192469316,-4.5e-05,-3.8e-05,-0.00176,0.02,-0.33,9.85,33.59
192470317,-4.5e-05,0.002093,-0.002826,0.01,-0.3,9.83,33.59
192471327,-4.5e-05,0.003158,-0.002826,0.04,-0.29,9.79,33.59
192472337,-4.5e-05,0.002093,-0.00176,0.05,-0.3,9.81,33.6
192473346,-4.5e-05,0.001028,-0.000695,0.03,-0.32,9.86,33.64
192474357,0.00102,0.002093,0.00037,0.04,-0.32,9.82,33.6
192475366,-4.5e-05,0.002093,0.00037,0.08,-0.29,9.8,33.61
192476378,0.00102,0.002093,0.00037,0.06,-0.29,9.8,33.61
192477386,0.002085,0.003158,0.001436,-0.01,-0.31,9.78,33.6
192478397,0.002085,0.003158,0.001436,0.0,-0.34,9.79,33.61
192479418,0.00315,-3.8e-05,0.00037,0.04,-0.34,9.81,33.58
192480416,0.00315,-0.001103,-0.000695,0.03,-0.31,9.82,33.56
192481429,0.002085,-3.8e-05,-0.000695,0.01,-0.3,9.82,33.58
192482436,0.00102,0.002093,0.001436,0.04,-0.3,9.84,33.57
192483447,0.002085,0.001028,0.002501,0.06,-0.3,9.86,33.57
192484456,0.002085,-0.001103,0.002501,0.05,-0.29,9.84,33.57
192485467,0.00102,-0.002168,0.001436,0.03,-0.28,9.85,33.55
192486476,-4.5e-05,-0.001103,0.00037,-0.01,-0.28,9.84,33.53
192487487,-4.5e-05,-3.8e-05,-0.000695,0.01,-0.3,9.8,33.56
192488496,-4.5e-05,-3.8e-05,-0.00176,0.03,-0.28,9.82,33.59
192489516,0.002085,-3.8e-05,-0.00176,0.02,-0.29,9.83,33.58
192490517,0.002085,-0.001103,-0.000695,0.02,-0.33,9.79,33.58
192491527,0.00102,-0.002168,0.00037,0.05,-0.33,9.82,33.57
192492537,-0.001111,-0.001103,0.00037,0.03,-0.31,9.86,33.56
192493546,-0.001111,0.001028,-0.00176,0.0,-0.27,9.82,33.61
192494557,-0.001111,0.001028,-0.002826,0.01,-0.28,9.79,33.6
192495566,-0.001111,-3.8e-05,-0.000695,0.02,-0.3,9.81,33.61
192496578,-0.001111,-3.8e-05,-0.000695,0.02,-0.28,9.78,33.58
192497586,-0.002176,-3.8e-05,-0.000695,0.0,-0.3,9.76,33.58
192498597,-0.001111,-0.001103,0.001436,-0.01,-0.3,9.81,33.54
192499618,-4.5e-05,-0.001103,0.003566,0.01,-0.29,9.84,33.53
192500616,0.00102,-3.8e-05,0.001436,0.01,-0.29,9.81,33.57
192501629,0.002085,0.001028,-0.00176,0.0,-0.29,9.79,33.58
192502636,0.002085,-0.001103,-0.002826,0.02,-0.3,9.82,33.55
192503647,0.00102,-0.003233,-0.00176,0.02,-0.3,9.86,33.55
192504656,0.00102,-0.003233,0.00037,0.02,-0.32,9.85,33.56
192505667,-4.5e-05,-0.002168,0.001436,0.03,-0.32,9.85,33.57
192506676,-0.001111,-0.001103,0.00037,0.05,-0.31,9.85,33.57
192507687,-0.001111,0.001028,-0.00176,0.03,-0.31,9.79,33.59
192508705,-4.5e-05,0.001028,-0.000695,0.0,-0.29,9.79,33.59
192509706,-4.5e-05,0.001028,0.001436,0.01,-0.26,9.81,33.6
192510717,-0.001111,0.001028,0.002501,-0.02,-0.28,9.81,33.59
192511727,-4.5e-05,-3.8e-05,0.001436,-0.02,-0.32,9.8,33.58
192512737,0.00102,-0.001103,-0.000695,0.02,-0.32,9.79,33.61
192513746,-4.5e-05,-0.002168,-0.000695,0.03,-0.29,9.84,33.59
192514757,-0.001111,-0.002168,0.002501,0.03,-0.3,9.81,33.59
192515766,0.002085,-0.002168,0.004631,0.05,-0.34,9.81,33.62
192516778,0.002085,-3.8e-05,0.003566,0.04,-0.31,9.87,33.61
192517786,0.00102,-3.8e-05,0.001436,0.01,-0.29,9.82,33.55
192518805,0.00102,0.001028,-0.000695,0.03,-0.31,9.79,33.57
192519806,0.00102,0.003158,-0.000695,0.07,-0.32,9.79,33.54
192520817,-0.001111,0.002093,-0.00176,0.07,-0.29,9.83,33.57
192521827,-0.002176,-0.001103,-0.00176,0.02,-0.26,9.85,33.59
192522837,-0.002176,-0.001103,0.00037,0.02,-0.28,9.82,33.56
192523846,-0.001111,-3.8e-05,0.001436,0.02,-0.29,9.81,33.55
192524857,-0.002176,-0.001103,0.001436,0.01,-0.31,9.86,33.57
192525866,-4.5e-05,-0.002168,0.00037,0.02,-0.33,9.88,33.55
192526877,0.00102,-0.003233,0.001436,0.01,-0.3,9.86,33.58
192527887,-4.5e-05,-0.001103,-0.000695,0.01,-0.32,9.82,33.59
192528905,-4.5e-05,0.002093,-0.00176,0.02,-0.32,9.82,33.61
192529906,-0.002176,0.002093,-0.002826,-0.01,-0.29,9.86,33.62
192530917,-0.004307,-0.001103,-0.00176,0.04,-0.28,9.82,33.6
192531927,-0.003241,-0.002168,-0.000695,0.06,-0.33,9.8,33.6
192532939,-4.5e-05,-0.002168,0.00037,0.02,-0.33,9.84,33.63
192533970,0.00315,-3.8e-05,0.001436,0.05,-0.29,9.85,33.64
192534960,0.00315,0.001028,0.00037,0.03,-0.28,9.84,33.6
192535975,0.002085,-3.8e-05,-0.000695,0.01,-0.29,9.86,33.59
192536984,0.00102,-3.8e-05,-0.002826,0.06,-0.29,9.88,33.59
192537998,-4.5e-05,-3.8e-05,-0.002826,0.04,-0.29,9.88,33.6
192539016,0.00102,-3.8e-05,-0.000695,0.04,-0.32,9.85,33.61
192540022,0.002085,0.001028,0.00037,0.04,-0.31,9.81,33.63
192541028,-4.5e-05,-0.002168,-0.002826,0.04,-0.28,9.82,33.61
192542039,-0.001111,-0.002168,-0.002826,0.01,-0.28,9.84,33.58
192543048,0.002085,-3.8e-05,-0.00176,0.04,-0.3,9.82,33.55
192544074,0.00315,0.001028,-0.000695,0.05,-0.33,9.78,33.56
192545065,0.00102,-0.001103,0.00037,0.04,-0.31,9.81,33.57
192546085,-4.5e-05,-0.003233,0.001436,0.05,-0.31,9.83,33.56
192547086,0.00102,-0.002168,0.002501,0.04,-0.3,9.86,33.6
192548104,0.00102,-0.001103,0.00037,0.03,-0.27,9.86,33.6
192549121,0.00102,0.001028,-0.002826,0.05,-0.3,9.8,33.61
192550113,0.00102,0.003158,-0.00176,0.06,-0.32,9.82,33.58
192551128,-4.5e-05,0.002093,0.00037,0.04,-0.32,9.88,33.58
192552149,-4.5e-05,0.001028,0.001436,0.06,-0.34,9.84,33.59
192553142,-4.5e-05,-3.8e-05,0.002501,0.07,-0.33,9.8,33.57
192554169,0.00102,-3.8e-05,0.003566,0.05,-0.31,9.79,33.59
192555160,0.00102,0.001028,0.002501,0.02,-0.3,9.78,33.59
192556170,-4.5e-05,0.001028,0.001436,0.0,-0.31,9.8,33.59
192557183,-0.001111,-0.001103,0.00037,0.0,-0.32,9.83,33.6
192558193,-0.001111,-0.003233,0.001436,-0.01,-0.3,9.84,33.59
192559213,-0.001111,-0.002168,0.002501,0.03,-0.29,9.8,33.57
192560211,-0.002176,-0.002168,0.00037,0.04,-0.3,9.76,33.61
192561219,-0.002176,-0.004299,0.00037,0.02,-0.3,9.79,33.62
192562275,-0.001111,-0.004299,0.001436,0.0,-0.31,9.86,33.6
192563238,-0.001111,-0.002168,0.001436,0.02,-0.34,9.84,33.61
192564260,-0.001111,-3.8e-05,0.00037,0.03,-0.3,9.82,33.6
192565257,-0.002176,0.001028,-0.000695,0.03,-0.25,9.84,33.61
192566266,-0.003241,-3.8e-05,-0.000695,0.04,-0.3,9.85,33.6
192567277,-0.003241,-0.001103,0.00037,0.06,-0.33,9.83,33.63
192568286,-0.002176,-0.001103,0.002501,0.08,-0.3,9.84,33.61
192569306,-0.001111,-0.001103,0.003566,0.05,-0.29,9.86,33.6
192570307,-0.002176,-3.8e-05,0.002501,0.03,-0.3,9.84,33.61
192571316,-0.002176,0.001028,0.00037,-0.02,-0.33,9.88,33.6
192572329,-0.003241,-3.8e-05,-0.00176,0.0,-0.33,9.85,33.58
192573336,-0.003241,-0.001103,-0.000695,0.04,-0.33,9.78,33.57
192574362,-0.002176,-0.001103,-0.000695,0.03,-0.32,9.79,33.59
192575359,-4.5e-05,-3.8e-05,-0.000695,0.03,-0.26,9.82,33.59
192576368,0.002085,0.001028,-0.000695,0.05,-0.24,9.84,33.64
192577381,0.00315,0.001028,-0.000695,0.03,-0.28,9.86,33.62
192578388,0.00102,0.001028,-0.000695,-0.01,-0.32,9.84,33.64
192579408,-4.5e-05,0.001028,0.00037,0.01,-0.31,9.86,33.61
192580409,-0.002176,0.001028,0.001436,0.04,-0.28,9.84,33.59
192581418,-0.003241,-0.001103,-0.000695,0.03,-0.29,9.81,33.57
192582431,-0.003241,-3.8e-05,-0.00176,0.04,-0.29,9.84,33.59
192583438,-0.002176,-3.8e-05,-0.000695,0.04,-0.29,9.86,33.57
192584460,-0.002176,-0.001103,-0.000695,0.02,-0.32,9.87,33.55
192585457,-0.002176,-3.8e-05,0.00037,0.02,-0.34,9.82,33.54
192586466,-0.001111,-0.001103,0.002501,0.01,-0.34,9.81,33.56
192587477,-0.001111,-0.001103,0.003566,-0.02,-0.32,9.81,33.54
192588486,-0.003241,-0.002168,0.001436,-0.01,-0.31,9.81,33.56
192589506,-0.004307,-0.003233,-0.002826,0.03,-0.32,9.82,33.57
192590507,-0.004307,-0.002168,-0.002826,0.02,-0.31,9.79,33.6
192591516,-0.002176,-0.002168,-0.00176,0.01,-0.28,9.82,33.59
192592529,-0.002176,-0.001103,-0.00176,0.0,-0.28,9.86,33.59
192593536,-0.001111,0.001028,-0.000695,-0.02,-0.28,9.83,33.56
192594592,-0.001075,0.002134,0.002495,0.01,-0.27,9.8,33.6
192595562,-1e-05,3e-06,0.003561,0.03,-0.3,9.82,33.59
192596568,-1e-05,-0.001062,0.000365,0.01,-0.33,9.82,33.59
192597581,-0.002141,-0.001062,-0.001766,0.01,-0.34,9.81,33.57
192598588,-0.002141,3e-06,-0.0007,0.03,-0.3,9.84,33.59
192599608,-1e-05,0.002134,0.000365,0.03,-0.28,9.85,33.56
192600609,0.002121,0.004264,-0.0007,0.02,-0.28,9.84,33.58
192601618,0.002121,0.001068,-0.001766,0.05,-0.3,9.83,33.6
192602631,-0.001075,-0.001062,-0.001766,0.06,-0.33,9.82,33.64
192603638,-0.002141,3e-06,-0.001766,0.04,-0.34,9.8,33.61
192604660,-0.002141,0.004264,-0.002831,0.04,-0.32,9.82,33.59
192605657,-0.001075,0.006395,-0.002831,0.03,-0.28,9.88,33.6
192606666,-0.001075,0.003199,-0.001766,0.03,-0.28,9.85,33.62
192607677,-1e-05,3e-06,-0.0007,0.01,-0.29,9.78,33.59
192608699,0.001055,0.001068,-0.0007,-0.01,-0.32,9.77,33.62
192609697,0.001055,0.001068,-0.001766,0.01,-0.33,9.82,33.61
192610706,-1e-05,-0.001062,-0.0007,0.04,-0.32,9.83,33.57
192611717,-0.002141,-0.001062,0.000365,0.04,-0.32,9.81,33.56
192612727,-1e-05,3e-06,0.00143,0.01,-0.32,9.79,33.59
192613737,0.003186,-0.001062,0.002495,0.0,-0.32,9.79,33.62
192614763,0.003186,-0.002128,0.00143,0.02,-0.32,9.81,33.57
192615758,-1e-05,3e-06,-0.001766,0.0,-0.31,9.76,33.58
192616769,0.001055,0.001068,-0.0007,-0.01,-0.33,9.77,33.57
192617779,0.004251,0.002134,0.000365,0.02,-0.33,9.83,33.55
192618799,0.004251,0.005329,0.00143,0.04,-0.31,9.84,33.54
192619799,0.003186,0.004264,0.003561,0.03,-0.32,9.85,33.56
192620808,-1e-05,0.003199,0.00143,0.02,-0.3,9.85,33.55
192621819,-0.001075,0.002134,-0.0007,0.02,-0.28,9.82,33.58
192622874,-1e-05,0.002134,0.000365,0.04,-0.29,9.84,33.59
192624000,0.002121,0.002134,0.00143,0.07,-0.32,9.86,33.59
192624849,0.002121,0.002134,0.000365,0.04,-0.31,9.83,33.61
192625858,0.002121,0.002134,-0.0007,0.0,-0.32,9.86,33.6
192626867,0.002121,0.002134,-0.0007,0.0,-0.34,9.83,33.57
192627880,0.003186,0.002134,0.00143,0.03,-0.31,9.76,33.58
192628900,0.002121,0.001068,0.000365,0.04,-0.28,9.78,33.59
192629897,-1e-05,-0.001062,-0.001766,0.03,-0.3,9.82,33.58
192630908,-0.001075,3e-06,-0.002831,0.03,-0.34,9.85,33.56
192631917,-1e-05,3e-06,-0.001766,0.04,-0.3,9.82,33.55
192632930,0.003186,3e-06,0.000365,0.04,-0.3,9.79,33.56
192633961,0.003186,0.001068,0.002495,0.02,-0.33,9.81,33.56
192634949,-0.001075,0.002134,0.00143,0.03,-0.31,9.77,33.58
192635960,-0.002141,3e-06,0.000365,0.04,-0.33,9.79,33.54
192636971,-0.001075,-0.003193,0.00143,0.03,-0.34,9.85,33.55
192637986,0.001055,-0.002128,0.000365,0.03,-0.34,9.84,33.56
192639004,0.002121,3e-06,-0.0007,0.03,-0.33,9.83,33.58
192640001,0.002121,0.001068,-0.001766,0.01,-0.32,9.83,33.59
192641017,0.001055,0.001068,-0.001766,0.02,-0.3,9.83,33.57
192642021,0.001055,3e-06,-0.001766,0.08,-0.34,9.81,33.59
192643036,0.001055,-0.001062,-0.001766,0.04,-0.34,9.82,33.58
192644058,-1e-05,3e-06,-0.0007,0.02,-0.35,9.83,33.6
192645060,-1e-05,0.002134,0.000365,0.02,-0.34,9.86,33.57
192646066,0.001055,0.001068,0.002495,0.03,-0.28,9.91,33.58
192647082,0.001055,-0.003193,0.00143,0.05,-0.28,9.9,33.56
192648091,0.001055,-0.004258,0.000365,0.03,-0.32,9.86,33.61
192649114,0.001055,-0.001062,0.000365,0.02,-0.31,9.83,33.57
192650108,-0.001075,0.002134,0.000365,0.04,-0.3,9.82,33.6
192651118,-0.002141,0.004264,-0.0007,0.02,-0.32,9.8,33.59
192652132,-1e-05,0.004264,0.000365,0.01,-0.29,9.77,33.57
192653138,0.004251,0.002134,0.00143,0.0,-0.28,9.8,33.57
192654172,0.004251,0.001068,0.000365,0.03,-0.32,9.84,33.54
192655157,0.003186,0.001068,0.00143,0.05,-0.32,9.86,33.54
192656157,-1e-05,0.003199,0.00143,0.02,-0.32,9.85,33.53
192657165,-0.002141,0.004264,-0.0007,0.0,-0.32,9.86,33.59
192658180,-0.001075,0.004264,-0.001766,0.02,-0.3,9.86,33.6
192659200,0.001055,0.005329,-0.0007,0.03,-0.33,9.8,33.6
192660199,0.002121,0.003199,0.000365,0.0,-0.34,9.81,33.62
192661275,0.002121,-0.001062,-0.0007,0.0,-0.3,9.82,33.62
192662217,0.001055,-0.004258,-0.0007,0.03,-0.3,9.82,33.62
192663227,-0.001075,-0.002128,0.00143,0.05,-0.31,9.83,33.58
192664252,-0.001075,0.001068,0.002495,0.05,-0.32,9.84,33.6
192665247,-0.002141,0.002134,0.00143,0.03,-0.31,9.87,33.59
192666258,-0.001075,0.002134,0.00143,0.03,-0.3,9.83,33.59
192667267,-0.001075,3e-06,0.000365,0.03,-0.32,9.8,33.6
192668278,-0.001075,3e-06,0.000365,0.03,-0.32,9.82,33.57
192669300,-1e-05,-0.001062,0.000365,0.02,-0.32,9.86,33.58
192670297,-0.001075,-0.003193,0.000365,0.0,-0.31,9.84,33.54
192671308,-0.002141,-0.003193,-0.0007,0.01,-0.31,9.8,33.56
192672317,-0.005336,-0.001062,-0.0007,0.02,-0.3,9.78,33.59
192673330,-0.005336,-0.001062,-0.0007,0.02,-0.28,9.79,33.58
192674350,-0.002141,3e-06,-0.001766,0.04,-0.29,9.8,33.57
192675345,0.001055,-0.001062,-0.001766,0.01,-0.31,9.81,33.58
192676356,-1e-05,-0.002128,0.000365,-0.01,-0.32,9.78,33.53
192677365,-0.002141,3e-06,0.003561,0.0,-0.33,9.8,33.56
192678377,-0.003206,0.001068,0.003561,0.0,-0.33,9.83,33.59
192679396,-0.002141,0.001068,0.000365,0.0,-0.34,9.81,33.6
192680395,-1e-05,0.002134,-0.0007,0.04,-0.32,9.82,33.63
192681406,-1e-05,0.001068,-0.002831,0.05,-0.29,9.83,33.64
192682416,-1e-05,-0.003193,-0.002831,0.02,-0.29,9.79,33.62
192683427,0.001055,-0.003193,-0.002831,0.04,-0.27,9.77,33.58
192684452,0.001055,-0.001062,-0.001766,0.04,-0.3,9.8,33.57
192685447,-1e-05,3e-06,-0.002831,0.01,-0.32,9.82,33.59
192686455,-1e-05,3e-06,-0.003896,0.02,-0.3,9.83,33.61
192687465,0.002121,-0.001062,-0.002831,0.02,-0.32,9.84,33.59
192688475,0.002121,0.001068,-0.001766,0.04,-0.31,9.82,33.56
192689499,-0.001075,0.003199,0.000365,0.04,-0.31,9.82,33.58
192690498,-0.003206,0.002134,-0.001766,0.03,-0.31,9.81,33.6
192691507,-0.003206,3e-06,-0.004962,0.05,-0.29,9.79,33.6
192692518,0.001055,3e-06,-0.002831,0.04,-0.28,9.83,33.59
192693529,0.002121,-0.001062,-0.001766,0.01,-0.29,9.84,33.55
192694538,0.001055,-0.001062,-0.0007,0.0,-0.33,9.76,33.56
192695546,-1e-05,-0.001062,-0.001766,0.03,-0.32,9.79,33.58
192696556,0.001055,-0.001062,-0.001766,0.07,-0.29,9.85,33.62
192697567,-1e-05,-0.001062,0.000365,0.07,-0.31,9.81,33.63
192698579,-0.001075,3e-06,0.002495,0.01,-0.34,9.78,33.62
192699599,-0.002141,0.001068,0.00143,0.0,-0.33,9.78,33.62
192700597,-0.003206,0.002134,0.000365,0.02,-0.3,9.78,33.62
192701608,-0.002141,0.002134,-0.001766,0.01,-0.31,9.78,33.57
192702617,-1e-05,3e-06,-0.002831,-0.01,-0.31,9.79,33.56
192703630,-1e-05,-0.001062,-0.003896,0.03,-0.28,9.84,33.56
192704637,-0.003206,3e-06,-0.0007,0.06,-0.29,9.84,33.56
192705648,-0.002141,0.002134,0.000365,0.04,-0.29,9.84,33.6
192706657,-1e-05,0.004264,-0.0007,0.0,-0.3,9.83,33.62
192707668,-0.001075,0.002134,-0.001766,0.02,-0.31,9.85,33.63
192708688,-0.001075,3e-06,-0.0007,0.06,-0.28,9.87,33.6
192709687,-1e-05,3e-06,0.000365,0.05,-0.28,9.8,33.64
192710698,-1e-05,0.001068,-0.0007,0.0,-0.29,9.77,33.61
192711707,-0.001075,3e-06,-0.002831,0.01,-0.32,9.82,33.58
192712718,-0.002141,-0.001062,-0.003896,0.03,-0.31,9.88,33.56
192713729,-0.001075,-0.002128,-0.001766,0.03,-0.3,9.86,33.6
192714738,0.001055,-0.001062,0.00143,-0.01,-0.28,9.8,33.62
192715747,0.003186,0.001068,0.000365,0.0,-0.28,9.82,33.6
192716758,0.002121,0.001068,-0.001766,0.03,-0.28,9.87,33.59
192717767,-1e-05,0.002134,-0.001766,0.01,-0.3,9.89,33.58
192718788,-0.001075,0.003199,0.000365,0.0,-0.31,9.84,33.61
192719788,-0.001075,0.004264,0.00143,0.03,-0.3,9.81,33.61
192720797,-1e-05,0.004264,0.00143,0.02,-0.33,9.81,33.62
192721808,-1e-05,0.002134,0.000365,0.01,-0.35,9.82,33.62
192722817,-0.001075,-0.001062,-0.0007,0.04,-0.33,9.83,33.55
192723862,-1.6e-05,-0.002205,-0.001718,0.04,-0.31,9.78,33.56
192724839,0.001049,-0.002205,-0.000653,0.01,-0.28,9.77,33.59
192725845,0.001049,-0.00114,0.000412,-0.01,-0.31,9.79,33.57
192726858,0.001049,-0.00114,0.000412,0.03,-0.32,9.83,33.57
192727867,-0.001081,-0.00114,0.000412,0.04,-0.3,9.86,33.61
192728885,-0.002146,0.000991,-0.000653,0.03,-0.34,9.85,33.6
192729887,-0.002146,0.000991,-0.000653,0.05,-0.34,9.83,33.6
192730898,-0.002146,0.000991,0.001477,0.04,-0.28,9.79,33.62
192731907,-0.001081,-7.4e-05,0.004673,0.03,-0.27,9.79,33.57
192732918,0.001049,-0.00114,0.004673,0.0,-0.29,9.83,33.56
192733929,0.002115,-0.00114,0.001477,0.0,-0.3,9.85,33.59
192734943,-1.6e-05,-0.00114,-0.000653,-0.01,-0.3,9.86,33.57
192735948,-0.001081,-7.4e-05,0.000412,0.0,-0.28,9.81,33.6
192736959,-0.002146,0.002056,0.000412,0.01,-0.31,9.76,33.57
192737976,-0.002146,0.002056,-0.001718,0.0,-0.34,9.79,33.54
192738993,-1.6e-05,0.000991,-0.001718,0.02,-0.32,9.81,33.55
192739997,0.002115,0.000991,0.001477,0.0,-0.34,9.83,33.59
192741004,-1.6e-05,0.004187,0.002543,-0.01,-0.32,9.83,33.56
192742021,-1.6e-05,0.002056,0.001477,0.02,-0.32,9.87,33.59
192743024,0.002115,0.000991,0.001477,0.01,-0.36,9.82,33.61
192744038,0.002115,0.000991,0.001477,0.0,-0.37,9.79,33.62
192745044,0.00105,0.000991,0.000412,0.02,-0.34,9.82,33.56
192746061,-1.6e-05,0.000991,0.000412,0.03,-0.33,9.87,33.57
192747066,0.00105,-7.4e-05,0.000412,0.04,-0.3,9.86,33.57
192748082,-1.6e-05,-7.4e-05,0.001477,0.03,-0.31,9.81,33.59
192749100,-1.6e-05,-7.4e-05,0.000412,0.01,-0.3,9.82,33.58
192750104,0.00105,0.000991,0.001477,-0.01,-0.27,9.84,33.58
192751110,0.002115,0.004187,0.000412,0.03,-0.29,9.82,33.57
192752123,0.002115,0.004187,-0.001718,0.04,-0.3,9.78,33.56
192753131,0.00105,0.000991,-0.001718,0.04,-0.3,9.81,33.56
192754135,-1.6e-05,0.000991,-0.000653,0.04,-0.31,9.84,33.59
192755144,-0.001081,-7.4e-05,-0.000653,0.02,-0.3,9.82,33.58
192756155,-0.001081,-0.00114,-0.000653,0.02,-0.33,9.8,33.54
192757162,-1.6e-05,-7.4e-05,0.002543,0.05,-0.34,9.81,33.56
192758167,-1.6e-05,-7.4e-05,0.004673,0.02,-0.3,9.82,33.61
192759191,-1.6e-05,-7.4e-05,0.002543,0.02,-0.29,9.8,33.59
192760192,-0.001081,-0.00114,-0.000653,0.07,-0.3,9.82,33.59
192761201,-0.001081,-7.4e-05,-0.002784,0.03,-0.3,9.82,33.63
192762227,-1.6e-05,-0.00114,-0.002784,-0.01,-0.32,9.81,33.64
192763278,0.002115,-0.002205,0.000412,0.01,-0.34,9.85,33.6
192764228,0.00318,-0.004336,0.001477,0.03,-0.33,9.87,33.57
192765238,0.001049,-0.00327,0.000412,0.03,-0.3,9.85,33.57
192766247,-0.001081,-0.00114,-0.001718,0.04,-0.29,9.83,33.61
192767258,-0.002146,-7.4e-05,-0.002784,0.05,-0.33,9.84,33.6
192768267,-0.001081,-7.4e-05,-0.001718,0.04,-0.35,9.87,33.59
192769286,-1.6e-05,-7.4e-05,-0.000653,0.03,-0.34,9.86,33.59
192770329,-0.001081,-7.4e-05,-0.000653,0.0,-0.31,9.86,33.6
192771297,-1.6e-05,-7.4e-05,-0.002784,-0.01,-0.3,9.83,33.6
192772308,0.00105,-7.4e-05,-0.002784,0.02,-0.31,9.85,33.61
192773317,0.002115,0.000991,-0.002784,0.01,-0.3,9.9,33.59
192774347,0.002115,0.002056,-0.000653,-0.01,-0.29,9.85,33.56
192775337,0.002115,-7.4e-05,0.001477,-0.02,-0.3,9.84,33.59
192776348,0.00105,-7.4e-05,0.001477,0.0,-0.31,9.87,33.58
192777357,-0.002146,-7.4e-05,0.001477,0.02,-0.3,9.84,33.56
192778368,-0.002146,0.000991,0.000412,0.03,-0.31,9.85,33.54
192779388,-0.002146,0.002056,0.000412,0.03,-0.31,9.86,33.57
192780388,-0.002146,0.000991,-0.000653,0.01,-0.29,9.86,33.59
192781398,-0.001081,-7.4e-05,-0.001718,0.01,-0.3,9.84,33.58
192782407,-1.6e-05,-0.002205,-0.000653,0.04,-0.3,9.83,33.59
192783418,-1.6e-05,-0.002205,-0.000653,0.02,-0.32,9.86,33.58
192784427,0.001049,-0.00114,-0.001718,-0.01,-0.32,9.86,33.59
192785440,0.002115,0.002056,-0.001718,0.0,-0.31,9.83,33.58
192786447,0.002115,0.004187,-0.001718,-0.01,-0.3,9.84,33.54
192787458,0.00105,0.002056,-0.001718,0.02,-0.28,9.84,33.56
192788467,-1.6e-05,-0.00114,-0.001718,0.03,-0.27,9.82,33.61
192789486,-0.003212,-0.002205,-0.000653,0.04,-0.29,9.87,33.62
192790490,-0.004277,-7.4e-05,0.000412,0.04,-0.31,9.86,33.62
192791497,-0.003212,0.000991,0.003608,0.02,-0.28,9.83,33.6
192792508,-0.002146,-7.4e-05,0.002543,0.02,-0.28,9.85,33.56
192793517,-1.6e-05,-0.00327,0.000412,0.04,-0.31,9.86,33.56
192794528,0.002115,-0.004336,-0.000653,0.06,-0.36,9.84,33.59
192795537,0.002115,-0.00327,0.000412,0.03,-0.35,9.87,33.6
192796548,-0.001081,-0.002205,0.003608,0.03,-0.32,9.9,33.62
192797557,-0.001081,-7.4e-05,0.003608,0.02,-0.33,9.89,33.63
