time_us,gyro_x_rad_s,gyro_y_rad_s,gyro_z_rad_s,acc_x_m_s2,acc_y_m_s2,acc_z_m_s2
36296519,0.001430,0.004473,0.001913,0.01,-0.30,9.81
36297246,0.003556,0.003403,0.001911,0.04,-0.28,9.82
36298253,0.003554,0.002336,0.000845,0.02,-0.28,9.78
36299262,0.000357,0.001270,-0.000220,-0.01,-0.31,9.75
36300272,-0.000707,0.001269,-0.001284,-0.01,-0.31,9.81
36301282,-0.001771,0.001267,-0.001283,0.02,-0.28,9.80
36302292,-0.000705,0.002330,-0.000218,0.03,-0.30,9.78
36303302,0.001424,0.001264,0.000847,0.02,-0.32,9.84
36304324,0.002487,0.000198,0.001910,0.04,-0.34,9.85
36305314,0.001420,0.000198,0.001908,0.07,-0.32,9.81
36306332,0.000355,-0.000867,0.001906,0.04,-0.32,9.78
36307342,0.000354,-0.001930,-0.000224,0.05,-0.33,9.79
36308352,0.001418,-0.002992,-0.000224,0.06,-0.29,9.79
36309362,0.002481,-0.000861,-0.000223,0.02,-0.31,9.76
36310372,0.001414,0.000204,-0.000223,0.02,-0.32,9.74
36311425,0.001413,0.000204,0.000841,0.03,-0.31,9.75
36312392,0.000347,0.000204,0.001904,0.02,-0.31,9.76
36313402,-0.000717,-0.000860,0.000838,-0.01,-0.31,9.77
36314412,-0.001781,-0.000860,-0.000227,0.01,-0.31,9.81
36315422,-0.000715,-0.000859,-0.000226,0.02,-0.32,9.87
36316432,0.000350,-0.000858,-0.002355,0.01,-0.32,9.85
36317442,0.000350,0.001271,-0.002352,0.01,-0.28,9.78
36318444,0.001414,0.002334,0.000843,-0.01,-0.29,9.80
36319462,0.004605,0.002332,0.004035,0.01,-0.32,9.82
36320472,0.004600,0.001265,0.001902,0.02,-0.31,9.80
36321482,0.001403,0.000200,-0.000228,-0.02,-0.32,9.80
36322492,-0.000727,-0.000864,-0.002356,0.01,-0.33,9.80
36323502,0.000338,-0.001928,-0.002354,0.06,-0.32,9.82
36324512,-0.000727,-0.002990,-0.002352,0.05,-0.30,9.82
36325522,-0.001790,-0.001923,-0.000221,0.01,-0.30,9.83
36326532,-0.002852,0.001272,0.001908,0.01,-0.32,9.80
36327542,-0.001785,0.002335,0.002970,0.02,-0.33,9.76
36328552,0.000345,0.001268,0.001903,0.01,-0.34,9.77
36329562,0.001409,0.000203,0.000837,0.04,-0.30,9.78
36330572,0.001407,-0.000862,0.000836,0.04,-0.29,9.80
36331589,0.001406,-0.001925,-0.000229,0.05,-0.32,9.79
36332593,-0.000724,-0.001923,-0.000229,0.04,-0.31,9.76
36333609,-0.002852,0.001271,-0.000229,0.03,-0.31,9.81
36334616,-0.000720,0.003399,-0.000229,0.04,-0.31,9.82
36335630,0.001409,0.003395,-0.000228,-0.01,-0.29,9.83
36336631,0.000343,0.001263,-0.000228,0.00,-0.31,9.80
36337637,-0.000721,-0.000866,-0.000228,0.04,-0.34,9.75
36338661,0.001408,-0.004058,-0.001292,0.06,-0.32,9.79
36339673,0.001406,-0.005118,-0.000226,0.05,-0.29,9.86
36340680,0.000341,-0.004049,0.002966,0.04,-0.30,9.87
36341693,0.000340,-0.002981,0.004028,0.03,-0.32,9.82
36342700,0.001404,-0.001913,0.001895,0.02,-0.33,9.81
36343711,0.000339,0.004474,-0.001299,0.03,-0.28,9.83
36344723,-0.000726,0.003405,-0.001298,0.03,-0.30,9.86
36345732,-0.000725,0.000209,0.000832,0.00,-0.32,9.86
36346730,-0.000724,0.000209,0.000831,0.00,-0.29,9.84
36347745,0.000340,0.000209,-0.000234,0.05,-0.30,9.86
36348758,0.000340,-0.000856,0.001894,0.05,-0.31,9.82
36349766,-0.000724,-0.001919,0.001893,0.00,-0.29,9.81
36350775,-0.001788,-0.002981,-0.000238,-0.02,-0.29,9.84
36351786,0.001407,-0.001914,-0.002366,0.02,-0.28,9.81
36352792,0.002469,-0.001912,-0.000235,0.03,-0.29,9.80
36353806,0.000338,-0.000846,0.001894,0.01,-0.31,9.82
36354816,-0.001790,0.002347,0.000827,0.04,-0.31,9.82
36355826,-0.003917,0.003409,-0.001302,0.05,-0.30,9.85
36356834,-0.002849,0.000213,-0.001301,0.04,-0.31,9.84
36357843,-0.000718,-0.002980,-0.001299,0.05,-0.32,9.82
36358852,0.000347,-0.002977,-0.001298,0.07,-0.32,9.79
36359862,0.000347,-0.000845,-0.000232,0.05,-0.29,9.82
36360872,0.000347,0.000220,0.001896,0.02,-0.30,9.88
36361882,-0.000718,-0.000845,0.002959,0.03,-0.33,9.84
36362892,-0.000717,-0.000844,0.001891,0.04,-0.34,9.76
36363902,-0.000716,0.000221,-0.000239,0.04,-0.30,9.76
36364912,0.001413,0.001285,-0.000239,0.03,-0.28,9.83
36365922,0.001411,0.001284,0.000826,0.02,-0.31,9.86
36366932,0.001410,0.003411,0.000825,0.01,-0.31,9.87
36367942,0.000344,0.004472,-0.000240,0.01,-0.33,9.86
36368944,0.000344,0.004467,-0.001304,0.07,-0.32,9.77
36369962,0.000344,0.004463,-0.001303,0.09,-0.30,9.76
36370972,0.002472,0.001266,-0.000237,0.04,-0.32,9.78
36371982,0.002469,0.000200,-0.000237,0.00,-0.32,9.78
36372992,0.001402,-0.000864,-0.001301,0.01,-0.32,9.81
36374002,0.002465,0.000201,-0.001300,0.02,-0.34,9.82
36375012,0.002463,0.000201,-0.000234,0.01,-0.33,9.84
36376022,0.001396,0.000200,-0.000234,0.01,-0.32,9.85
36377032,0.000330,-0.000864,-0.000234,0.01,-0.31,9.80
36378042,-0.003927,0.000201,-0.001298,-0.02,-0.30,9.77
36379052,-0.002859,0.002329,-0.001296,-0.01,-0.29,9.81
36380062,-0.001791,0.002327,-0.002359,0.04,-0.30,9.84
36381072,0.000339,-0.001932,-0.002357,0.01,-0.28,9.85
36382082,-0.000726,-0.004059,0.000838,0.00,-0.26,9.85
36383092,0.000339,-0.004055,0.005094,0.04,-0.30,9.78
36384102,-0.000725,-0.004050,0.005089,0.05,-0.30,9.76
36385112,-0.000725,-0.002982,0.001891,0.03,-0.28,9.77
36386122,0.000340,0.001278,-0.001303,0.01,-0.28,9.84
36387132,0.000340,0.002341,-0.003430,0.01,-0.31,9.85
36388142,0.000340,0.000210,-0.003427,-0.02,-0.32,9.77
36389152,0.000339,-0.000855,-0.001295,-0.02,-0.31,9.82
36390162,0.001403,-0.001918,-0.000230,0.04,-0.32,9.81
36391172,0.002466,-0.001916,-0.000229,0.07,-0.30,9.75
36392174,0.000335,-0.000850,-0.000229,0.03,-0.30,9.79
36393184,-0.002858,-0.000849,-0.000229,0.02,-0.31,9.79
36394194,-0.004984,-0.002977,0.000836,0.03,-0.31,9.77
36395204,-0.003914,-0.004038,0.001899,0.04,-0.28,9.77
36396222,-0.001782,-0.000841,0.001897,0.03,-0.29,9.85
36397232,0.000348,0.002352,0.000831,0.01,-0.32,9.83
36398242,0.000348,0.001286,-0.000234,0.02,-0.35,9.78
36399252,-0.001781,-0.001908,-0.001298,0.03,-0.32,9.77
36400262,-0.001779,0.000222,-0.000233,0.04,-0.28,9.75
36401272,-0.002841,0.002350,0.001896,0.04,-0.30,9.77
36402282,-0.002839,0.002348,0.001894,0.01,-0.29,9.84
36403292,-0.002836,0.001281,0.001892,-0.01,-0.30,9.89
36404302,-0.001769,-0.000848,0.000826,0.01,-0.30,9.84
36405312,-0.001767,-0.000847,-0.000239,0.01,-0.32,9.80
36406322,-0.000701,-0.000847,0.000825,-0.02,-0.31,9.81
36407332,0.001428,0.001283,0.000825,-0.01,-0.29,9.82
36408342,0.001427,0.003410,-0.000240,0.00,-0.32,9.84
36409352,-0.001767,0.004471,-0.000240,0.03,-0.32,9.86
36410362,-0.002830,0.003402,0.000824,0.02,-0.33,9.88
36411372,-0.001763,0.001270,0.001888,0.01,-0.29,9.78
36412382,0.000368,-0.001924,0.000822,0.03,-0.28,9.75
36413436,0.000367,-0.001922,0.000821,0.02,-0.31,9.82
36414446,0.001431,0.001273,0.000820,0.00,-0.31,9.80
36415455,0.002494,0.002335,-0.000245,0.01,-0.32,9.79
36416463,0.003555,0.000205,0.000819,0.02,-0.33,9.78
36417432,0.002488,-0.001924,0.000818,0.02,-0.32,9.79
36418442,0.000357,0.000206,0.001882,0.03,-0.31,9.82
36419452,-0.000708,0.001270,0.001880,0.02,-0.31,9.82
36420462,-0.002836,0.001269,0.001878,0.02,-0.33,9.81
36421472,-0.002833,0.001268,0.001876,0.02,-0.34,9.79
36422482,-0.000701,0.001267,-0.000254,0.04,-0.34,9.78
36423492,0.000364,-0.000863,-0.000254,0.06,-0.34,9.83
36424502,-0.001765,-0.002991,0.001875,0.02,-0.31,9.84
36425512,-0.001763,-0.000859,0.002937,0.02,-0.31,9.82
36426550,0.001431,0.001270,0.000806,0.01,-0.33,9.76
36427545,0.001429,0.000205,-0.002388,-0.01,-0.34,9.75
36428542,-0.000700,-0.001924,-0.002385,0.02,-0.32,9.82
36429568,-0.002828,-0.002986,-0.001319,0.01,-0.30,9.83
36430565,-0.004954,-0.001919,-0.000253,0.00,-0.30,9.84
36431577,-0.001756,0.000211,0.000811,0.03,-0.30,9.82
36432590,0.000374,0.001275,0.000811,0.01,-0.32,9.81
36433598,0.000374,-0.000854,-0.000254,-0.01,-0.33,9.81
36434620,0.000373,-0.001918,-0.000254,0.03,-0.29,9.79
36435637,-0.000691,0.000213,-0.000254,0.05,-0.27,9.86
36436668,0.000374,0.000212,-0.001318,0.04,-0.28,9.85
36437668,0.000373,0.000212,-0.000252,0.00,-0.31,9.80
36438667,0.001437,-0.000852,0.001876,0.00,-0.33,9.82
36439691,0.001436,-0.002980,0.000810,0.02,-0.31,9.82
36440675,0.000370,-0.001913,0.000809,0.02,-0.30,9.83
36441702,-0.000694,-0.000847,-0.000256,0.02,-0.30,9.82
36442695,0.001435,-0.002974,-0.001319,0.02,-0.28,9.78
36443734,0.001433,-0.002971,0.000810,0.02,-0.32,9.75
36444710,0.001432,-0.001904,0.002938,0.03,-0.29,9.78
36445749,0.000366,-0.000838,0.003999,0.03,-0.32,9.77
36446745,-0.000699,-0.000837,0.001867,0.03,-0.34,9.75
36447779,-0.001762,-0.000836,-0.000264,0.01,-0.30,9.79
36448754,-0.001760,-0.001899,-0.000263,0.01,-0.27,9.81
36449790,-0.001759,0.001295,-0.001327,0.05,-0.28,9.82
36450821,-0.000693,0.003422,-0.002390,0.06,-0.29,9.83
36451785,-0.000692,0.002355,-0.001324,0.04,-0.30,9.82
36452825,0.000373,-0.000841,0.001871,0.01,-0.29,9.85
36453793,0.002501,-0.001904,0.001869,0.01,-0.29,9.82
36454806,0.001434,0.000227,0.001867,0.02,-0.29,9.81
36455816,0.001433,0.003419,0.002929,0.04,-0.29,9.82
36456826,0.002496,0.002351,0.000798,0.05,-0.31,9.80
36457834,0.000365,-0.001908,0.000797,0.04,-0.33,9.81
36458843,-0.000700,-0.000842,-0.000268,0.01,-0.32,9.82
36459852,-0.000699,0.000223,-0.001332,-0.02,-0.28,9.82
36460862,-0.001763,0.002351,-0.001331,0.00,-0.27,9.82
36461872,-0.001761,0.003413,-0.000265,0.03,-0.29,9.83
36462882,-0.002823,0.003410,-0.000265,0.04,-0.31,9.85
36463892,-0.001756,0.002342,0.000800,0.04,-0.32,9.82
36464902,-0.000690,0.001276,0.000799,0.04,-0.31,9.80
36465912,0.000375,0.000210,-0.000266,0.06,-0.27,9.83
36466922,0.001439,0.000210,-0.001330,0.06,-0.27,9.84
36467932,0.001437,-0.001919,-0.002393,0.05,-0.29,9.78
36468942,-0.000693,-0.002981,-0.002391,0.05,-0.31,9.78
36469952,-0.000692,-0.001914,-0.000260,0.07,-0.32,9.79
36470962,-0.000691,0.000217,0.000805,0.06,-0.29,9.77
36471972,-0.000691,0.002345,-0.000260,0.04,-0.30,9.81
36472982,0.000374,0.002342,0.000804,0.02,-0.32,9.78
36473992,0.000374,0.002340,0.000803,0.03,-0.30,9.78
36475002,0.002502,0.000209,-0.000262,0.03,-0.31,9.83
36476012,0.001435,0.001273,-0.000261,0.01,-0.31,9.80
36477022,0.000370,0.003400,0.000803,-0.02,-0.31,9.78
36478032,-0.001759,0.003397,0.000802,-0.03,-0.33,9.78
36479042,-0.000693,0.001265,0.000801,0.00,-0.33,9.82
36480052,0.002500,-0.002993,-0.000264,0.01,-0.30,9.80
36481062,0.001433,-0.001926,0.000801,0.04,-0.30,9.77
36482072,-0.001761,0.000205,0.000800,0.05,-0.34,9.81
36483082,-0.002823,-0.000860,0.000799,0.02,-0.34,9.81
36484092,-0.001756,-0.001923,-0.000266,0.03,-0.30,9.82
36485102,-0.000690,0.001271,0.000799,0.02,-0.30,9.84
36486112,0.000375,0.005527,0.000798,-0.03,-0.31,9.85
36487122,0.002503,0.004457,-0.000267,-0.02,-0.31,9.83
36488132,0.001436,0.000196,-0.000267,0.03,-0.32,9.79
36489142,0.000370,-0.000869,0.000798,0.04,-0.31,9.81
36490152,0.001434,0.000196,0.000797,0.04,-0.29,9.83
36491154,0.001433,-0.000868,-0.000268,0.04,-0.29,9.81
36492164,-0.000697,-0.000867,-0.001332,0.04,-0.31,9.80
36493182,-0.002825,-0.000866,-0.001331,0.03,-0.32,9.79
36494192,-0.002822,0.000199,-0.002394,-0.01,-0.32,9.78
36495202,0.000374,-0.000866,-0.002391,-0.02,-0.32,9.78
36496212,0.002502,-0.004057,-0.001325,0.00,-0.32,9.78
36497222,0.000371,-0.004053,-0.000259,0.02,-0.32,9.80
36498232,-0.001758,-0.000856,0.000805,0.06,-0.30,9.81
36499242,-0.001756,0.001273,-0.001324,0.03,-0.29,9.80
36500244,-0.000690,0.001272,-0.002387,0.01,-0.30,9.80
36501254,0.000375,0.000206,-0.002384,0.03,-0.30,9.82
36502264,0.000374,0.000206,-0.001318,0.01,-0.30,9.82
36503274,-0.001755,0.000206,-0.000252,0.02,-0.33,9.81
36504292,-0.002817,0.000205,-0.000252,0.05,-0.36,9.83
36505302,-0.000686,0.000205,-0.000252,0.04,-0.34,9.78
36506312,0.000379,-0.000859,0.000813,-0.01,-0.30,9.77
36507322,0.000379,-0.000858,0.000812,0.05,-0.31,9.76
36508332,0.000378,0.000207,0.002940,0.09,-0.32,9.78
36509368,0.000378,0.001271,0.002937,0.02,-0.32,9.83
36510352,-0.000687,0.000205,-0.000259,-0.01,-0.29,9.81
36511362,-0.001750,0.000205,-0.001323,-0.02,-0.29,9.78
36512364,-0.003877,0.002333,-0.000257,0.01,-0.31,9.80
36513382,-0.003873,0.002331,0.001871,0.04,-0.30,9.80
36514384,-0.000676,-0.000864,0.002934,0.02,-0.31,9.80
36515394,0.000388,-0.001927,0.001866,0.04,-0.31,9.81
36516453,0.001452,-0.000861,0.000800,0.04,-0.30,9.80
36517422,0.002515,-0.000860,-0.000265,0.02,-0.31,9.81
36518432,0.003577,-0.001924,0.000800,0.03,-0.33,9.80
36519442,0.003573,0.000207,0.002928,0.00,-0.30,9.77
36520444,0.002505,0.003399,0.001860,0.00,-0.31,9.78
36521454,0.001439,0.004460,0.000794,0.03,-0.33,9.82
36522464,0.001437,0.004455,0.000793,0.03,-0.29,9.81
36523474,0.001436,0.002322,-0.001336,0.01,-0.28,9.78
36524492,0.003563,-0.003001,-0.001334,-0.02,-0.30,9.78
36525502,0.004623,-0.005126,0.000795,-0.01,-0.30,9.82
36526512,0.000362,-0.004057,0.001859,0.01,-0.29,9.81
36527522,-0.002831,0.000204,0.002921,0.01,-0.30,9.81
36528532,-0.002828,0.002332,0.002918,0.01,-0.30,9.84
36529542,-0.002826,0.000201,-0.000277,0.00,-0.30,9.83
36530552,-0.001759,0.000201,-0.000277,0.01,-0.28,9.84
36531562,-0.000693,0.001265,-0.001341,0.02,-0.27,9.89
36532572,0.000372,0.001264,-0.000276,0.04,-0.28,9.87
36533588,-0.000692,0.001263,-0.000275,0.04,-0.27,9.81
36534594,-0.001756,0.001261,-0.000275,0.03,-0.28,9.82
36535609,-0.002818,0.000196,-0.001339,0.01,-0.27,9.83
36536618,-0.001751,0.000196,-0.002402,0.00,-0.27,9.79
36537628,0.000379,0.000196,-0.003464,0.01,-0.32,9.76
36538645,-0.000686,0.001260,-0.002396,0.03,-0.33,9.76
36539648,-0.002813,0.002322,-0.000265,0.02,-0.31,9.77
36540660,-0.000682,0.003384,0.000800,0.00,-0.30,9.81
36541673,0.001447,0.002317,0.000799,0.02,-0.29,9.81
36542679,0.001446,0.002314,-0.000266,0.05,-0.29,9.85
36543692,0.002508,0.002312,-0.000266,0.02,-0.32,9.82
36544699,0.001442,0.003374,-0.002394,0.01,-0.33,9.83
36545709,0.001440,0.001242,-0.004520,0.03,-0.37,9.81
36546720,0.001439,-0.001952,-0.002387,0.03,-0.37,9.79
36547730,0.000373,-0.004078,-0.000256,0.01,-0.32,9.82
36548740,-0.000691,-0.003010,0.000808,0.03,-0.31,9.84
36549753,-0.000691,-0.000878,0.001871,0.05,-0.33,9.80
36550763,-0.000690,0.000187,0.002934,0.03,-0.34,9.83
36551767,0.000375,-0.001942,0.001867,-0.01,-0.34,9.86
36552775,0.001439,-0.000876,0.001865,0.03,-0.32,9.84
36553786,0.001437,0.000189,0.002927,0.07,-0.30,9.86
36554792,0.002500,0.000189,0.001860,0.04,-0.33,9.84
36555806,0.000369,-0.001940,-0.000270,0.04,-0.33,9.79
36556816,-0.000696,-0.005130,-0.000270,0.04,-0.32,9.78
36557826,-0.001759,-0.006189,0.000794,0.03,-0.31,9.77
36558834,0.000371,-0.005119,0.001858,0.02,-0.29,9.78
36559843,0.002499,-0.004049,0.000792,0.01,-0.31,9.79
36560852,0.002497,-0.001917,0.002919,0.02,-0.32,9.81
36561862,0.002494,0.000213,0.002916,0.04,-0.30,9.82
36562872,0.003556,0.001277,0.002913,0.04,-0.32,9.81
36563882,0.003552,0.001276,-0.000282,0.00,-0.33,9.83
36564892,0.000356,0.001275,-0.001346,-0.02,-0.31,9.86
36565902,-0.001773,0.000209,0.000784,0.00,-0.30,9.82
36566912,-0.003899,-0.001919,0.001847,0.02,-0.28,9.78
36567922,-0.003895,-0.002982,0.000781,-0.01,-0.31,9.83
36568932,-0.001763,0.000214,-0.001348,0.00,-0.32,9.88
36569942,0.003560,0.002342,-0.001347,0.03,-0.31,9.84
36570952,0.004620,0.003404,-0.000281,0.02,-0.35,9.82
36571962,0.003551,0.001272,-0.001345,0.04,-0.35,9.79
36572972,0.001419,-0.002986,-0.002408,0.06,-0.30,9.75
36573982,0.000354,-0.004047,-0.002406,0.03,-0.32,9.78
36574992,0.000353,-0.000850,0.000789,0.03,-0.33,9.79
36576002,0.000353,0.002343,0.003981,0.04,-0.32,9.80
36577012,0.000353,0.003405,0.005041,0.04,-0.32,9.84
36578022,0.000352,0.001273,0.003972,0.04,-0.29,9.82
36579032,-0.001776,0.000208,0.001840,0.00,-0.29,9.84
36580042,-0.001775,-0.000857,0.000774,-0.01,-0.30,9.84
36581044,-0.000709,-0.000856,0.001837,0.02,-0.30,9.78
36582062,0.000356,-0.000855,0.001835,0.02,-0.30,9.75
36583064,0.000356,0.000210,0.000769,0.02,-0.32,9.77
36584082,0.000356,0.002338,0.000768,0.01,-0.33,9.82
36585092,0.000355,0.001272,0.000768,0.01,-0.32,9.83
36586102,-0.000709,-0.000858,0.000767,0.04,-0.31,9.86
36587112,0.000356,-0.001921,-0.001362,0.02,-0.30,9.83
36588114,0.001419,-0.001919,-0.001361,0.01,-0.30,9.80
36589124,0.002482,-0.001917,-0.000295,0.04,-0.29,9.79
36590134,0.001416,0.000213,-0.000295,0.06,-0.31,9.83
36591152,-0.000714,-0.000852,0.000769,0.04,-0.33,9.86
36592162,-0.002842,-0.001915,0.001833,0.00,-0.28,9.82
36593172,-0.002839,-0.000849,0.001831,0.02,-0.30,9.82
36594182,-0.002836,-0.000848,0.001829,0.01,-0.34,9.83
36595184,-0.001769,-0.001911,0.001827,-0.01,-0.31,9.80
36596202,-0.000703,-0.000845,0.002890,0.00,-0.29,9.77
36597212,-0.001767,0.001284,0.001823,0.01,-0.31,9.78
36598230,-0.001765,0.001283,0.000757,0.01,-0.28,9.80
36599232,-0.000699,-0.000847,0.000756,-0.01,-0.28,9.83
36600242,0.000366,-0.000846,0.000755,-0.01,-0.32,9.86
36601252,-0.000699,0.001283,0.000754,0.01,-0.33,9.85
36602262,-0.001762,0.001282,0.000753,-0.01,-0.33,9.82
36603272,-0.001760,0.000216,0.000753,0.00,-0.31,9.80
36604282,0.000370,0.000216,-0.000312,0.03,-0.28,9.78
36605292,0.001434,0.000216,-0.000312,0.01,-0.28,9.75
36606302,0.002497,0.000216,-0.001376,-0.02,-0.31,9.82
36607312,0.001430,0.000216,-0.001374,0.00,-0.33,9.83
36608330,0.001428,-0.000849,-0.000309,0.02,-0.33,9.74
36609332,0.000363,0.000216,-0.000309,0.04,-0.32,9.75
36610342,0.001427,0.001280,-0.001372,0.04,-0.32,9.76
36611352,0.003554,0.002343,-0.000307,0.03,-0.31,9.77
36612362,0.001422,0.000212,0.000758,0.04,-0.30,9.81
36613372,-0.001772,0.001276,0.002885,0.04,-0.33,9.81
36614382,-0.001771,0.001275,0.002882,0.02,-0.31,9.82
36615392,0.000359,-0.000855,0.001815,0.00,-0.28,9.82
36616394,0.000359,0.000210,0.000749,0.01,-0.29,9.85
36617404,-0.000705,0.002339,0.000749,0.06,-0.29,9.87
36618441,0.001424,0.003401,0.002876,0.03,-0.31,9.83
36619447,0.001422,0.001269,0.001809,-0.02,-0.28,9.82
36620488,0.000357,-0.000861,-0.000321,0.02,-0.28,9.84
36621453,-0.002836,0.000204,0.000743,0.04,-0.32,9.85
36622462,-0.001769,0.000204,0.001807,0.01,-0.32,9.82
36623472,-0.000703,0.000204,0.000741,0.01,-0.32,9.80
36624482,-0.001767,0.001268,-0.000324,0.00,-0.33,9.83
36625492,-0.003893,0.002331,0.000740,-0.01,-0.31,9.83
36626502,-0.002825,0.001264,0.001804,0.00,-0.29,9.80
36627512,0.001434,0.001263,0.000738,0.00,-0.28,9.78
36628530,0.003561,0.003390,-0.000327,0.01,-0.27,9.80
36629532,0.001429,0.005515,-0.001391,0.00,-0.28,9.81
36630542,-0.001765,0.004445,-0.001390,0.00,-0.30,9.81
36631552,-0.002827,0.002312,-0.002452,-0.01,-0.29,9.83
36632562,-0.001760,0.000181,-0.002450,-0.03,-0.30,9.81
36633572,-0.001758,-0.001947,-0.002447,-0.01,-0.32,9.80
36634588,-0.002821,-0.001945,-0.002445,0.01,-0.31,9.80
36635594,-0.002818,-0.000879,-0.002443,0.00,-0.29,9.78
36636610,-0.000687,-0.000878,-0.001376,0.03,-0.31,9.77
36637614,-0.000686,-0.000877,-0.001374,0.03,-0.32,9.76
36638655,0.001443,-0.000876,-0.000309,0.01,-0.30,9.79
36639645,0.002506,-0.000875,-0.000309,0.01,-0.30,9.86
36640650,0.002503,0.000190,-0.000308,0.03,-0.31,9.86
36641658,0.000372,0.002318,0.002885,0.03,-0.31,9.87
36642674,-0.000692,0.003380,-0.000311,0.06,-0.27,9.85
36643677,0.000373,0.003376,-0.000311,0.04,-0.30,9.80
36644692,0.000372,0.001244,0.000754,0.02,-0.31,9.77
36645700,-0.000692,-0.001949,-0.000311,0.01,-0.31,9.77
36646710,-0.000692,-0.003012,-0.000311,0.03,-0.30,9.80
36647722,-0.001755,-0.004073,-0.000310,0.04,-0.31,9.80
36648760,-0.002817,-0.003004,0.000754,0.04,-0.31,9.81
36649770,-0.003879,-0.000873,-0.000311,0.01,-0.32,9.81
36650775,-0.003875,-0.000872,0.000754,0.03,-0.33,9.74
36651781,-0.004935,-0.000871,0.001817,0.03,-0.34,9.76
36652777,-0.002802,-0.000870,0.000751,0.00,-0.34,9.81
36653788,-0.000671,-0.000870,-0.000314,-0.01,-0.32,9.76
36654793,0.001459,0.000196,0.001815,0.00,-0.28,9.79
36655801,0.002521,0.000195,0.001813,0.00,-0.32,9.85
36656820,0.001455,-0.000869,-0.000317,-0.01,-0.36,9.87
36657866,-0.000675,-0.001932,0.000747,0.02,-0.33,9.85
36658872,-0.000675,-0.000866,0.001811,0.02,-0.30,9.82
36659858,0.000390,0.000199,0.002873,-0.02,-0.29,9.84
36660893,0.002518,0.002327,0.001806,-0.02,-0.33,9.86
36661889,0.002516,0.002325,-0.000324,0.00,-0.34,9.88
36662876,0.002513,0.000194,-0.001388,0.01,-0.34,9.84
36663918,0.002511,0.000194,-0.001387,0.02,-0.33,9.80
36664883,0.001444,0.000194,0.000743,0.00,-0.30,9.81
36665916,0.001443,-0.001935,0.000742,0.00,-0.31,9.82
36666902,0.000377,-0.002997,0.000742,0.01,-0.31,9.81
36667966,0.000377,-0.001930,0.001805,0.01,-0.32,9.79
36668940,-0.000688,-0.000864,-0.000325,0.01,-0.31,9.79
36669942,0.001441,-0.000863,-0.001389,0.03,-0.30,9.82
36670958,0.002504,-0.001926,-0.003516,0.05,-0.31,9.84
36671952,-0.000691,-0.000860,-0.005641,0.04,-0.34,9.78
36672991,-0.000691,-0.001924,-0.004571,0.03,-0.33,9.77
36674011,0.000374,-0.002986,-0.003502,0.01,-0.31,9.79
36674982,0.002502,-0.000854,-0.001370,0.00,-0.33,9.82
36675993,0.001436,0.002339,0.000760,0.02,-0.34,9.82
36677002,-0.000694,0.002337,0.001823,0.02,-0.29,9.79
36678020,-0.002822,-0.000858,0.002885,0.00,-0.25,9.82
36679022,0.000374,-0.001921,0.002882,0.00,-0.28,9.80
36680032,0.002502,-0.000855,0.001815,0.02,-0.30,9.78
36681042,0.001435,0.001274,-0.000315,0.02,-0.30,9.80
36682052,-0.001759,0.000209,-0.001379,0.02,-0.33,9.84
36683062,-0.003886,-0.002984,-0.002442,0.04,-0.32,9.85
36684072,-0.002818,-0.004045,-0.001375,0.03,-0.33,9.80
36685082,0.001442,-0.000849,0.000755,0.00,-0.30,9.83
36686084,0.002505,0.000216,0.000754,0.01,-0.28,9.85
36687102,-0.000690,0.000216,-0.000311,0.04,-0.31,9.82
36688119,-0.000690,0.001280,-0.001375,0.03,-0.31,9.82
36689114,-0.000689,0.001279,-0.000309,0.00,-0.33,9.84
36690132,-0.001753,0.001277,0.001820,0.00,-0.32,9.83
36691142,-0.001751,0.002340,0.000754,0.02,-0.29,9.83
36692152,-0.001749,0.003402,-0.001376,0.04,-0.32,9.84
36693154,-0.002811,0.002335,-0.001374,0.06,-0.32,9.83
36694172,-0.002809,0.002332,-0.001373,0.08,-0.34,9.82
36695182,-0.000677,0.001266,-0.000307,0.05,-0.34,9.76
36696192,0.001452,0.000200,-0.001371,0.02,-0.31,9.77
36697202,0.004643,0.000200,-0.001370,0.02,-0.30,9.79
36698220,0.003574,0.002328,0.000760,0.03,-0.30,9.79
36699222,0.000378,0.002326,0.001823,0.03,-0.29,9.78
36700232,0.000377,0.000195,0.001822,0.05,-0.29,9.78
36701242,0.000377,-0.000869,-0.000309,0.05,-0.28,9.77
36702252,0.000377,0.000196,-0.001372,0.04,-0.28,9.79
36703262,-0.000688,0.000196,-0.000307,0.03,-0.30,9.82
36704272,-0.001751,-0.000869,0.001822,0.02,-0.29,9.81
36705282,-0.001750,-0.001932,0.001820,0.01,-0.28,9.82
36706292,-0.000684,-0.001930,-0.000310,0.04,-0.31,9.82
36707302,0.000381,-0.002993,-0.000310,0.02,-0.32,9.81
36708320,0.001445,-0.004054,-0.000310,-0.01,-0.31,9.81
36709322,-0.000685,-0.002985,0.001819,0.03,-0.29,9.79
36710332,-0.000684,-0.000854,0.001817,0.03,-0.28,9.78
36711342,0.000381,-0.000853,-0.000313,0.04,-0.28,9.80
36712352,0.000380,-0.001916,0.001816,0.04,-0.28,9.84
36713362,-0.000684,-0.001914,0.002878,0.02,-0.29,9.88
36714372,0.001445,-0.000848,0.002875,0.02,-0.29,9.84
36715382,0.002508,0.000217,0.002872,0.02,-0.31,9.83
36716392,0.001441,0.000216,0.001805,0.01,-0.31,9.84
36717402,0.002504,-0.000848,-0.000325,0.02,-0.32,9.85
36718420,0.002501,-0.002975,-0.001389,0.04,-0.33,9.85
36719422,0.002499,-0.002972,-0.000323,0.02,-0.30,9.84
36720424,0.001432,0.000223,-0.000323,0.00,-0.29,9.84
36721434,0.001430,0.002351,-0.002451,-0.01,-0.28,9.83
36722452,0.002493,0.003413,-0.001384,0.02,-0.30,9.83
36723462,0.003555,0.002346,-0.000319,0.04,-0.29,9.83
36724472,0.003551,-0.000849,0.000746,0.03,-0.29,9.82
36725482,0.002483,-0.002977,0.000745,0.01,-0.32,9.81
36726492,0.001417,-0.005102,-0.000320,0.00,-0.33,9.82
36727502,-0.000713,-0.002969,-0.000320,0.00,-0.32,9.81
36728554,-0.000712,-0.000837,-0.000319,0.04,-0.31,9.78
36729514,0.000353,-0.000837,0.000745,0.03,-0.34,9.80
36730532,0.002481,0.000228,-0.000320,0.00,-0.34,9.83
36731542,0.001414,0.000228,-0.001384,0.03,-0.34,9.86
36732561,0.000348,-0.000836,-0.001382,0.04,-0.32,9.86
36733562,0.001412,-0.000835,-0.000317,0.03,-0.30,9.83
36734572,0.002475,-0.001899,-0.001381,0.03,-0.29,9.84
36735587,0.002472,-0.002961,-0.002443,0.03,-0.27,9.78
36736594,0.001406,-0.002958,-0.002441,0.04,-0.28,9.79
36737611,0.000340,-0.001891,-0.000310,0.01,-0.26,9.85
36738626,0.001404,-0.001889,0.000754,0.00,-0.28,9.79
36739631,0.000338,-0.001887,-0.000310,0.04,-0.31,9.77
36740645,0.000338,-0.000821,-0.001374,0.04,-0.32,9.81
36741650,0.001402,0.002373,0.000755,0.01,-0.31,9.82
36742661,-0.000728,0.002370,0.000755,0.02,-0.30,9.80
36743674,0.001401,0.001304,-0.002439,0.05,-0.34,9.80
36744679,0.001400,0.000238,-0.003500,0.04,-0.32,9.80
36745692,0.001398,-0.001891,-0.001369,0.04,-0.31,9.81
36746699,0.000333,-0.004017,0.000761,0.04,-0.30,9.81
36747709,-0.000732,-0.002949,0.001825,0.01,-0.29,9.80
36748729,0.000333,-0.002946,0.000759,0.02,-0.30,9.85
36749730,0.002461,-0.000814,-0.000306,0.04,-0.33,9.86
36750740,0.003523,0.000251,-0.000306,0.05,-0.32,9.84
36751754,0.002455,-0.000814,0.000759,0.03,-0.29,9.81
36752758,0.001389,-0.002941,0.002886,0.02,-0.30,9.76
36753767,0.001387,-0.001874,0.001819,0.01,-0.30,9.80
36754775,0.000322,0.002384,-0.001375,0.01,-0.28,9.89
36755786,0.000321,0.005575,-0.002438,0.02,-0.28,9.88
36756792,0.003513,0.005569,-0.001372,0.04,-0.28,9.79
36757806,0.004574,0.002371,0.000758,0.05,-0.28,9.78
36758816,0.004570,-0.000824,0.000757,0.02,-0.30,9.83
36759826,0.001372,-0.002952,-0.000308,0.05,-0.28,9.84
36760834,-0.001822,-0.002949,-0.000307,0.05,-0.28,9.82
36761843,-0.002884,-0.002946,-0.001371,0.02,-0.28,9.83
36762852,-0.002881,-0.001879,-0.001370,0.03,-0.29,9.78
36763862,-0.001814,0.000252,-0.000304,0.05,-0.31,9.76
36764872,-0.000748,0.000251,0.002889,0.05,-0.30,9.78
36765882,-0.000747,-0.000813,0.002886,0.03,-0.30,9.83
36766892,-0.000747,0.000252,0.001819,0.02,-0.30,9.85
36767902,-0.000746,0.000252,0.000753,0.00,-0.31,9.83
36768912,0.000319,0.000251,0.001816,-0.01,-0.33,9.81
36769914,0.001383,0.000251,0.001814,0.04,-0.31,9.80
36770924,0.000317,-0.000813,0.000748,0.05,-0.29,9.83
36771942,-0.001811,-0.002941,-0.000317,0.04,-0.28,9.84
36772952,-0.002874,-0.002938,-0.001381,0.04,-0.29,9.82
36773962,-0.002871,0.000258,-0.001379,0.02,-0.30,9.82
36774972,-0.002868,-0.000807,-0.000314,-0.01,-0.29,9.83
36775982,-0.001801,-0.000806,0.000751,-0.03,-0.31,9.82
36776992,-0.000735,0.000259,0.003943,0.00,-0.30,9.78
36778002,-0.000734,-0.000805,0.003939,0.04,-0.26,9.77
36779012,0.000331,-0.000805,0.002871,0.03,-0.28,9.81
36780022,0.003523,-0.001868,0.001804,0.02,-0.32,9.84
36781032,0.002456,-0.000802,0.001802,0.00,-0.32,9.83
36782042,-0.000740,-0.001865,0.000736,-0.02,-0.32,9.78
36783052,-0.000739,-0.002928,0.000735,-0.01,-0.33,9.80
36784062,0.001390,-0.001860,0.001798,0.02,-0.30,9.80
36785072,0.001389,0.000270,0.001797,0.01,-0.28,9.77
36786082,-0.000741,0.002398,0.000731,0.02,-0.30,9.78
36787092,-0.002869,0.001331,-0.000334,0.04,-0.32,9.79
36788094,-0.003930,0.002394,0.000730,0.03,-0.32,9.85
36789104,-0.002862,0.003456,0.001794,0.03,-0.32,9.80
36790114,-0.000730,0.001324,0.000728,0.04,-0.34,9.78
36791132,0.001399,-0.000806,-0.000337,0.03,-0.33,9.79
36792142,0.001397,-0.000805,-0.001401,-0.01,-0.31,9.77
36793152,0.002460,0.003453,-0.001400,-0.01,-0.29,9.76
36794162,0.002458,0.006642,-0.000334,0.01,-0.28,9.78
36795172,0.001391,0.005571,0.000730,-0.01,-0.30,9.84
36796182,-0.001803,0.004501,0.000730,-0.01,-0.31,9.80
36797192,-0.002865,0.001304,-0.000335,0.02,-0.29,9.80
36798202,-0.002863,-0.001890,-0.000335,0.00,-0.31,9.82
36799212,-0.001795,-0.004016,-0.001399,0.00,-0.33,9.76
36800222,-0.000729,-0.002948,-0.001397,0.02,-0.27,9.78
36801232,-0.001793,-0.001881,-0.000332,0.03,-0.24,9.80
36802242,-0.001791,-0.000815,0.000733,0.02,-0.28,9.79
36803252,-0.001789,0.000250,0.000732,0.02,-0.31,9.84
36804262,0.000341,-0.002943,-0.001397,0.03,-0.31,9.83
36805272,0.001405,-0.002940,-0.002460,0.02,-0.32,9.80
36806282,0.001403,-0.001872,-0.001393,0.02,-0.31,9.81
36807292,0.001402,-0.000806,-0.001392,0.01,-0.29,9.84
36808302,0.000336,0.000259,0.001802,0.02,-0.29,9.81
36809312,-0.000728,0.001323,0.003929,0.03,-0.30,9.81
36810322,-0.000727,0.001321,0.001796,0.02,-0.30,9.87
36811332,-0.001791,0.002384,-0.001398,0.01,-0.31,9.84
36812334,-0.002853,0.000253,-0.002461,0.00,-0.29,9.82
36813352,-0.001786,-0.004004,-0.001394,0.00,-0.28,9.86
36814362,0.000344,-0.004000,0.001800,0.00,-0.29,9.89
36815372,0.003536,0.000261,0.002862,0.01,-0.29,9.86
36816417,0.004597,0.002389,0.002859,0.00,-0.31,9.77
36817392,0.002464,0.002387,0.003921,-0.01,-0.32,9.79
36818402,0.002461,0.002384,0.001788,-0.01,-0.34,9.82
36819412,0.003523,0.002382,-0.000342,-0.02,-0.33,9.80
36820422,0.000327,0.003444,-0.002470,0.00,-0.26,9.81
36821432,-0.001802,0.001312,-0.001403,0.04,-0.25,9.85
36822442,-0.002864,0.000246,-0.000338,0.07,-0.26,9.85
36823495,-0.001797,0.000246,-0.000337,0.06,-0.28,9.76
36824462,0.000333,-0.001882,-0.002465,0.02,-0.29,9.71
36825472,0.002461,-0.000816,-0.003527,0.00,-0.29,9.78
36826482,0.002459,0.000249,-0.000331,0.03,-0.28,9.83
36827492,0.001392,-0.001880,0.001798,0.06,-0.28,9.81
36828502,0.001391,-0.002942,0.001796,0.03,-0.31,9.80
36829512,0.000325,-0.002939,0.003923,0.01,-0.29,9.82
36830522,-0.001804,-0.002936,0.003919,0.01,-0.28,9.81
36831532,-0.002866,-0.002933,0.002850,0.00,-0.29,9.83
36832542,-0.003927,-0.002930,0.001783,0.02,-0.29,9.82
36833552,-0.002859,-0.000799,0.000717,0.05,-0.28,9.83
36834562,-0.001792,-0.000798,-0.001412,0.03,-0.31,9.88
36835572,-0.000726,-0.000797,-0.002475,0.03,-0.30,9.87
36836588,0.001403,-0.000797,-0.001408,0.02,-0.32,9.82
36837593,0.000337,0.000268,-0.000342,0.02,-0.32,9.76
36838610,-0.001791,0.001332,0.001786,0.02,-0.31,9.80
36839610,-0.002854,0.000267,0.001785,0.02,-0.34,9.86
36840625,-0.001787,-0.000798,0.000719,0.06,-0.33,9.84
36841645,-0.000721,-0.001861,-0.000346,0.04,-0.31,9.85
36842650,-0.000720,-0.000795,-0.000346,0.01,-0.29,9.81
36843658,0.002473,0.000270,-0.000346,0.02,-0.28,9.83
36844674,0.002471,-0.002923,-0.000345,0.02,-0.28,9.86
36845677,0.001404,-0.002920,-0.000345,0.03,-0.32,9.82
36846692,0.000339,-0.002917,-0.000345,0.04,-0.33,9.81
36847700,0.000338,-0.000786,-0.001408,0.05,-0.30,9.79
36848729,0.001402,0.001344,-0.001407,0.04,-0.29,9.75
36849766,0.000337,0.000278,0.000723,0.02,-0.29,9.82
36850734,0.000336,0.001342,0.000722,0.01,-0.28,9.83
36851748,0.000336,0.000276,0.000721,0.04,-0.30,9.78
36852754,0.000335,0.001340,0.001785,0.06,-0.32,9.81
36853787,-0.000729,0.001339,0.000719,0.02,-0.32,9.84
36854769,0.000336,0.000273,-0.001410,0.02,-0.30,9.86
36855775,0.002464,-0.000791,-0.002473,0.03,-0.29,9.85
36856786,0.003526,-0.000790,-0.001406,0.01,-0.31,9.82
36857792,0.003522,-0.000790,-0.000341,-0.01,-0.31,9.79
36858798,0.002454,0.000275,-0.000340,-0.02,-0.31,9.81
36859816,0.002452,-0.000789,-0.000340,-0.02,-0.30,9.85
36860826,0.003514,-0.001852,-0.000340,0.00,-0.29,9.87
36861834,0.004574,-0.001851,-0.000339,0.03,-0.30,9.82
36862843,0.002441,0.001344,-0.001403,0.04,-0.32,9.80
36863852,0.001375,0.002407,-0.001402,0.02,-0.32,9.85
36864862,0.000309,-0.000788,-0.000336,-0.01,-0.33,9.86
36865872,0.003501,-0.001852,0.000728,-0.02,-0.33,9.82
36866925,0.002434,-0.002914,0.001792,-0.01,-0.32,9.82
36867927,0.000303,-0.000783,0.001790,0.03,-0.29,9.85
36868933,0.001367,0.000282,0.002852,0.02,-0.32,9.84
36869915,0.003494,-0.000782,0.002849,0.01,-0.35,9.81
36870926,0.002426,-0.000781,0.002847,0.00,-0.34,9.80
36871937,-0.000769,-0.002909,0.002844,-0.01,-0.32,9.79
36872947,-0.001832,-0.003970,0.001777,-0.01,-0.33,9.77
36873977,-0.000766,-0.005030,0.000711,-0.03,-0.33,9.78
36874975,0.000299,-0.002897,-0.001418,-0.02,-0.28,9.79
36876002,0.000298,-0.000766,-0.003545,0.00,-0.28,9.80
36876991,0.000298,0.000299,-0.002478,0.04,-0.30,9.82
36878044,0.000298,-0.000765,0.000718,0.04,-0.32,9.85
36879044,-0.000767,-0.001828,0.002845,0.04,-0.32,9.84
36880023,-0.000766,-0.002891,0.001778,0.06,-0.30,9.80
36881059,-0.000765,-0.002888,-0.000352,0.04,-0.29,9.80
36882042,-0.000764,-0.001821,-0.000352,0.00,-0.29,9.80
36883042,0.000301,-0.001819,0.000713,0.00,-0.31,9.79
36884044,0.002429,-0.000753,-0.000352,0.02,-0.29,9.84
36885062,0.003490,-0.000752,-0.001416,0.02,-0.32,9.84
36886064,0.004551,-0.000752,-0.001415,0.02,-0.32,9.81
36887082,0.003482,0.000313,-0.001413,0.00,-0.31,9.81
36888107,0.001350,0.001377,-0.001412,0.02,-0.31,9.81
36889143,-0.000779,-0.001817,-0.000346,0.06,-0.27,9.84
36890133,-0.000779,-0.002879,0.000718,0.03,-0.26,9.85
36891122,-0.000778,-0.001812,-0.000346,-0.03,-0.29,9.85
36892132,-0.000777,0.000318,0.000718,-0.02,-0.31,9.84
36893142,0.001352,0.001382,0.000717,0.01,-0.30,9.77
36894152,0.002415,0.001381,-0.001412,0.01,-0.31,9.78
36895162,0.002413,0.001379,-0.002475,0.00,-0.32,9.82
36896172,0.002410,0.000314,-0.000344,0.03,-0.29,9.80
36897182,0.002408,-0.000751,0.002849,0.02,-0.30,9.78
36898192,0.000277,0.000314,0.000718,-0.01,-0.30,9.82
36899202,-0.000788,0.001378,-0.000347,-0.02,-0.30,9.84
36900212,0.000277,0.001377,-0.001411,0.00,-0.33,9.85
36901222,0.000277,0.002440,-0.000345,0.02,-0.30,9.85
36902232,0.000277,0.002437,0.001784,0.04,-0.31,9.83
36903242,0.001341,0.001371,0.001782,0.04,-0.31,9.80
36904244,0.002404,0.000305,0.000716,0.01,-0.30,9.80
36905254,0.003465,-0.000760,0.000715,0.02,-0.32,9.83
36906272,0.003462,0.000305,-0.000350,0.05,-0.29,9.87
36907282,0.001330,-0.000759,-0.000349,0.03,-0.29,9.79
36908292,-0.001864,-0.002887,-0.002477,0.00,-0.31,9.75
36909294,-0.001862,-0.001820,-0.000347,0.02,-0.31,9.80
36910304,-0.000796,0.000311,0.001782,0.01,-0.31,9.80
36911314,-0.000795,0.002439,0.000716,0.01,-0.30,9.79
36912324,0.000270,0.000308,-0.001413,0.01,-0.34,9.76
36913342,0.002398,-0.003949,-0.002476,0.02,-0.35,9.80
36914352,0.003460,-0.003945,-0.001409,0.01,-0.32,9.82
36915362,0.000264,0.000316,0.000721,0.01,-0.31,9.81
36916372,-0.002929,0.003508,0.001784,0.03,-0.33,9.79
36917382,-0.002926,0.004568,0.001783,0.03,-0.31,9.79
36918392,-0.001859,0.002435,-0.000348,0.03,-0.32,9.82
36919402,-0.000793,0.000305,-0.001412,0.03,-0.33,9.83
36920431,0.001336,-0.000760,-0.001410,0.02,-0.30,9.86
36921422,0.001335,-0.000759,-0.001409,0.03,-0.32,9.87
36922432,-0.001859,-0.001823,-0.000343,0.02,-0.33,9.86
36923442,-0.005050,-0.000757,-0.000343,0.02,-0.32,9.85
36924452,-0.006109,0.002437,-0.001407,0.03,-0.29,9.84
36925504,-0.006103,0.002434,-0.002469,0.04,-0.29,9.83
36926472,-0.005032,-0.001825,-0.001403,0.06,-0.31,9.85
36927482,-0.002899,-0.003952,-0.000337,0.05,-0.31,9.84
36928493,-0.000768,-0.002883,-0.000337,0.02,-0.34,9.86
36929502,0.001362,-0.000752,-0.002465,0.02,-0.33,9.83
36930512,0.000296,0.000313,-0.001398,0.04,-0.33,9.78
36931522,-0.001833,0.000313,-0.000332,0.01,-0.33,9.83
36932532,-0.002895,0.000312,0.000732,0.00,-0.31,9.84
36933542,-0.002892,0.000312,-0.000333,0.02,-0.27,9.80
36934544,-0.002889,-0.000753,-0.001397,0.02,-0.30,9.81
36935554,0.001370,-0.001816,0.000733,0.03,-0.35,9.81
36936572,0.000305,-0.002878,0.001797,0.05,-0.32,9.76
36937589,-0.001824,-0.002876,0.001795,0.04,-0.28,9.79
36938593,-0.002886,-0.001808,0.002857,0.02,-0.28,9.81
36939611,-0.002883,-0.000742,0.003919,0.00,-0.31,9.80
36940606,-0.001816,0.000323,0.001786,0.00,-0.32,9.81
36941618,-0.001814,0.000322,-0.001408,0.04,-0.32,9.82
36942640,-0.001812,-0.000742,-0.001407,0.02,-0.29,9.80
36943637,-0.001811,-0.000741,-0.000341,0.03,-0.27,9.86
36944656,0.001384,0.000323,-0.001405,0.01,-0.30,9.85
36945673,0.003511,-0.000741,-0.000339,-0.01,-0.33,9.78
36946680,0.001379,-0.001805,-0.000339,0.01,-0.33,9.78
36947693,0.000313,-0.001803,-0.000339,0.00,-0.31,9.81
36948700,0.000313,-0.001801,-0.001403,0.01,-0.29,9.79
36949711,0.001377,-0.001799,0.000727,0.03,-0.29,9.81
36950723,0.000311,0.000331,0.001791,0.02,-0.29,9.81
36951732,-0.000753,0.002459,0.000725,0.03,-0.30,9.79
36952740,0.000312,0.001393,-0.001405,0.05,-0.31,9.86
36953753,0.000311,0.000327,-0.003532,0.03,-0.29,9.85
36954758,0.001375,-0.000738,-0.003528,-0.01,-0.29,9.74
36955766,0.002438,-0.001801,-0.002460,-0.03,-0.29,9.78
36956775,0.001371,-0.000735,-0.000329,-0.01,-0.28,9.81
36957786,0.000306,-0.000734,-0.000329,0.03,-0.27,9.78
36958792,0.002434,-0.000734,-0.000329,0.04,-0.30,9.79
36959806,0.002431,-0.000733,0.001800,0.04,-0.33,9.80
36960816,0.000301,0.000332,0.002862,0.00,-0.33,9.83
36961826,-0.001828,0.001396,0.000731,0.01,-0.33,9.79
36962834,0.000302,0.001395,-0.001398,0.03,-0.31,9.79
36963843,0.000302,0.001393,-0.001397,0.04,-0.32,9.80
36964852,-0.000763,0.000328,0.000733,0.04,-0.29,9.81
36965862,-0.000762,0.002456,0.001797,0.04,-0.26,9.79
36966872,-0.000761,0.002453,0.000731,0.03,-0.31,9.74
36967882,0.000304,0.002451,-0.001398,0.03,-0.33,9.77
36968892,0.001368,0.001384,-0.002461,0.04,-0.31,9.81
36969902,0.001366,0.002447,-0.001395,0.04,-0.33,9.84
36970912,0.001365,0.000316,-0.000329,0.02,-0.33,9.87
36971922,0.001364,-0.001813,0.001800,0.01,-0.32,9.85
36972932,0.000298,0.000317,0.002862,0.01,-0.32,9.75
36973942,-0.000766,-0.000747,0.002859,0.02,-0.32,9.73
36974952,0.000298,-0.002875,-0.000336,0.02,-0.34,9.81
36975962,0.002427,-0.005000,-0.001400,0.03,-0.34,9.81
36976972,0.002424,-0.004995,0.000730,0.01,-0.32,9.74
36977982,-0.000771,-0.003926,0.001793,-0.01,-0.31,9.74
36978992,-0.002899,-0.001794,0.000727,0.03,-0.31,9.80
36980002,-0.001831,-0.000728,-0.001402,0.04,-0.32,9.81
36981012,0.000299,-0.001791,-0.000336,0.01,-0.31,9.85
36982022,0.000299,-0.002853,-0.000336,-0.02,-0.27,9.86
36983032,-0.000766,0.000342,0.000729,0.01,-0.28,9.81
36984042,0.000299,0.002470,-0.001401,0.02,-0.29,9.84
36985052,0.002427,0.002468,-0.002463,0.03,-0.27,9.80
36986062,0.002425,0.001401,-0.000332,0.02,-0.28,9.77
36987072,-0.000770,-0.000729,0.000732,-0.01,-0.30,9.80
36988082,-0.002898,-0.001792,0.000731,0.01,-0.30,9.83
36989092,-0.003959,-0.000726,-0.001398,0.02,-0.31,9.88
36990102,-0.002891,-0.000726,-0.002461,0.04,-0.29,9.86
36991112,0.000304,0.000339,-0.000330,0.04,-0.29,9.82
36992122,0.001368,0.001403,-0.000329,0.03,-0.34,9.81
36993124,0.002431,0.001402,-0.000329,0.02,-0.33,9.78
36994142,0.000300,0.001400,0.000736,-0.01,-0.30,9.78
36995152,-0.000764,0.001399,-0.000329,0.01,-0.33,9.83
36996162,0.001365,0.002462,-0.001393,0.02,-0.33,9.84
36997172,0.003492,0.003523,0.001801,0.03,-0.32,9.88
36998182,0.003488,0.002456,0.004992,0.03,-0.30,9.87
36999192,0.000292,0.000325,0.004986,0.04,-0.31,9.80
37000202,-0.000772,0.000325,0.001789,0.05,-0.31,9.80
37001212,0.000293,-0.000740,-0.001406,0.03,-0.30,9.80
37002222,0.001357,-0.001803,-0.000340,-0.02,-0.29,9.81
37003224,0.001355,-0.000737,0.001789,-0.02,-0.29,9.86
37004242,0.001354,-0.000737,0.002851,-0.01,-0.31,9.88
37005252,0.000288,-0.001800,0.001784,-0.01,-0.30,9.82
37006262,0.000288,-0.002863,-0.000346,0.04,-0.29,9.81
37007272,0.001352,-0.002860,0.000718,0.05,-0.29,9.84
37008282,0.002415,-0.000728,0.000718,0.04,-0.29,9.79
37009292,0.002412,0.001401,-0.000347,0.04,-0.32,9.79
37010302,0.001346,0.000335,-0.000347,0.03,-0.33,9.82
37011312,0.001344,-0.000729,-0.001411,0.02,-0.32,9.84
37012322,0.000279,-0.001793,-0.002473,0.02,-0.31,9.80
37013332,-0.000786,-0.002855,-0.001407,-0.01,-0.32,9.81
37014342,-0.000785,-0.001788,-0.001405,-0.02,-0.31,9.84
37015352,0.000280,-0.001786,-0.001404,0.03,-0.28,9.78
37016362,0.001344,-0.001785,-0.000338,0.04,-0.27,9.74
37017372,0.001343,0.000346,-0.000338,0.03,-0.28,9.77
37018382,-0.000787,0.000345,-0.000338,0.02,-0.31,9.86
37019392,-0.000786,-0.001783,-0.000337,0.03,-0.32,9.90
37020402,-0.000785,-0.001782,-0.000337,0.02,-0.32,9.87
37021409,-0.000785,0.000349,0.000728,-0.01,-0.30,9.84
37022422,-0.000784,0.001412,0.000727,0.00,-0.30,9.82
37023432,0.000281,-0.000717,0.000726,0.00,-0.30,9.80
37024442,0.002409,0.000348,0.000725,-0.01,-0.27,9.80
37025452,0.001343,0.001411,-0.000340,0.02,-0.30,9.81
37026462,0.000277,0.001410,0.000725,0.06,-0.32,9.84
37027472,0.001341,-0.000720,0.000724,0.06,-0.31,9.85
37028482,0.002404,-0.002848,-0.001405,0.04,-0.29,9.84
37029492,0.001337,-0.001780,-0.001403,0.02,-0.29,9.81
37030502,-0.000793,0.001414,-0.001402,0.02,-0.30,9.76
37031512,-0.001856,0.002477,-0.001401,0.03,-0.31,9.76
37032522,-0.000790,0.002474,0.000729,0.06,-0.34,9.80
37033532,0.000275,0.002472,0.002857,0.03,-0.32,9.84
37034542,0.000275,0.001405,0.000726,0.01,-0.29,9.85
37035552,-0.000790,0.001404,-0.001404,0.04,-0.29,9.83
37036562,-0.001853,0.001402,-0.002466,0.03,-0.31,9.82
37037572,-0.000787,0.000337,-0.002464,0.03,-0.31,9.82
37038589,-0.000786,0.001400,-0.001397,0.03,-0.29,9.80
37039593,-0.000785,0.001399,-0.000332,0.04,-0.30,9.78
37040609,-0.000785,0.002462,0.001797,0.03,-0.32,9.79
37041615,-0.001848,0.001395,0.001795,0.02,-0.31,9.84
37042625,0.000282,0.000329,0.001794,0.03,-0.29,9.79
37043640,0.003475,0.002458,-0.001401,0.04,-0.25,9.73
37044648,0.004535,0.003519,-0.001399,0.02,-0.27,9.76
37045657,0.000274,0.001387,-0.001398,-0.01,-0.30,9.82
37046672,-0.000791,0.000322,-0.000332,0.01,-0.28,9.80
37047678,-0.000790,0.000321,-0.000332,0.02,-0.29,9.82
37048691,-0.001853,-0.000743,-0.001396,0.02,-0.31,9.81
37049701,-0.000787,-0.000742,-0.001395,0.01,-0.30,9.77
37050709,0.000278,0.000323,-0.000329,0.02,-0.30,9.79
37051722,0.000278,0.001386,0.000736,0.01,-0.30,9.83
37052730,-0.001851,-0.000743,0.000735,-0.02,-0.32,9.82
37053740,-0.001849,-0.001807,-0.000330,-0.02,-0.30,9.78
37054754,-0.000783,-0.001805,-0.001394,0.02,-0.33,9.77
37055763,-0.001847,0.000325,-0.000328,0.04,-0.36,9.82
37056767,-0.000780,0.001389,0.000736,0.01,-0.32,9.84
37057775,0.001349,0.000323,0.001800,-0.01,-0.30,9.82
37058786,0.003476,-0.001805,0.000734,0.03,-0.34,9.77
37059792,0.003472,-0.001803,-0.000331,0.04,-0.32,9.75
37060806,0.002405,-0.001802,-0.001395,0.04,-0.27,9.81
37061816,-0.000790,-0.002864,-0.000330,0.03,-0.30,9.86
37062826,-0.000790,0.000332,0.000735,0.01,-0.30,9.88
37063826,0.001340,0.003524,-0.001394,0.01,-0.29,9.82
37064835,0.003467,0.003520,-0.001393,0.01,-0.32,9.82
37065844,0.002399,0.001388,-0.000327,0.01,-0.30,9.86
37066854,-0.000796,-0.000741,0.000737,-0.01,-0.32,9.83
37067872,-0.001860,0.000323,-0.000328,0.00,-0.35,9.81
37068882,-0.000793,0.000323,-0.001391,0.02,-0.33,9.82
37069892,-0.001857,-0.001806,-0.001390,0.02,-0.30,9.83
37070947,-0.001855,-0.001804,0.000740,0.03,-0.30,9.80
37071957,-0.002917,-0.003930,0.001803,0.04,-0.34,9.78
37072960,-0.002914,-0.003926,0.002866,0.03,-0.33,9.83
37073932,-0.001847,-0.001794,0.002863,-0.01,-0.29,9.87
37074942,0.000283,-0.000728,-0.000333,-0.02,-0.31,9.83
37075952,0.000283,-0.001791,-0.003525,0.02,-0.35,9.82
37076962,0.000283,0.001403,-0.004586,0.03,-0.33,9.83
37077972,-0.001846,0.003530,-0.002453,0.02,-0.31,9.82
37078982,-0.002908,0.003527,-0.000322,0.02,-0.32,9.82
37079992,-0.002905,0.001395,0.001807,0.02,-0.31,9.81
37081002,0.000290,-0.000735,0.002869,0.02,-0.31,9.78
37082012,0.001354,-0.001799,0.000738,0.02,-0.29,9.78
37083014,0.004545,-0.000733,0.000737,0.03,-0.28,9.78
37084024,0.004541,-0.001796,0.002865,-0.01,-0.32,9.78
37085042,0.002408,-0.003923,0.003926,0.01,-0.33,9.78
37086052,-0.000787,-0.002855,0.001794,0.06,-0.28,9.80
37087054,-0.002915,-0.001787,-0.000336,0.03,-0.28,9.83
37088105,-0.001848,-0.000721,0.000728,0.01,-0.29,9.83
37089082,0.000282,-0.000721,0.000727,0.02,-0.29,9.81
37090092,0.002411,0.000344,0.000727,0.03,-0.30,9.81
37091102,0.001344,-0.000720,0.000726,0.05,-0.31,9.82
37092112,-0.000786,-0.001784,0.000725,0.05,-0.32,9.80
37093122,-0.000785,-0.001782,0.000724,0.04,-0.31,9.84
37094132,-0.000784,-0.000716,-0.000340,0.03,-0.33,9.83
37095142,0.000281,-0.000715,0.000724,0.00,-0.32,9.81
37096152,0.000281,0.000350,-0.001405,0.03,-0.29,9.82
37097162,-0.000784,0.000349,-0.001404,0.05,-0.27,9.82
37098172,-0.000783,0.000349,0.000726,0.02,-0.30,9.81
37099182,0.000282,-0.000716,0.000725,0.00,-0.33,9.77
37100184,0.001346,-0.001779,-0.000339,0.02,-0.31,9.73
37101194,-0.000784,-0.001777,-0.000339,0.01,-0.31,9.79
37102204,-0.001847,-0.000711,-0.000339,0.00,-0.32,9.83
37103222,0.000283,0.000354,0.000726,0.03,-0.33,9.84
37104232,0.001347,-0.000711,-0.000339,0.03,-0.31,9.82
37105242,0.001345,-0.000710,-0.001403,0.03,-0.28,9.82
37106244,-0.000784,0.001419,-0.000337,0.04,-0.29,9.83
37107262,0.000281,0.001417,0.000727,0.02,-0.31,9.80
37108272,0.001345,0.000352,-0.000338,-0.01,-0.31,9.78
37109282,0.001343,0.001416,-0.000337,0.02,-0.31,9.77
37110284,0.001342,0.001414,-0.000337,0.05,-0.31,9.78
37111302,0.001341,0.000349,0.000727,0.02,-0.31,9.82
37112327,0.001339,-0.000716,-0.001402,0.03,-0.31,9.86
37113357,0.000274,-0.002844,-0.003529,0.03,-0.29,9.81
37114359,0.000273,-0.002841,-0.002461,0.01,-0.31,9.82
37115338,0.000273,-0.001774,0.000734,0.00,-0.31,9.82
37116345,-0.001856,-0.001772,0.000734,-0.02,-0.29,9.77
37117367,-0.000790,0.000358,-0.000331,-0.02,-0.29,9.80
37118376,0.001340,0.001422,0.000733,0.01,-0.28,9.80
37119399,0.000274,0.000357,0.000732,0.04,-0.31,9.82
37120405,-0.001855,-0.000708,-0.000333,0.03,-0.32,9.83
37121429,-0.001853,0.001421,-0.002461,0.03,-0.27,9.83
37122423,-0.001851,0.002484,-0.001394,0.03,-0.26,9.79
37123469,-0.000785,0.000353,-0.000328,-0.01,-0.28,9.78
37124451,0.000280,-0.001776,0.000736,0.03,-0.28,9.84
37125474,0.000280,-0.000710,-0.000329,0.04,-0.27,9.85
37126452,0.000280,-0.001773,-0.000328,0.02,-0.28,9.79
37127462,0.001344,-0.001771,-0.000328,0.03,-0.32,9.76
37128472,0.000278,-0.000705,0.000736,0.02,-0.31,9.78
37129482,0.001342,-0.000705,0.000736,0.02,-0.28,9.77
37130492,0.003469,-0.001768,-0.000329,0.02,-0.31,9.78
37131502,0.001337,-0.001766,-0.000329,0.05,-0.32,9.82
37132552,-0.001857,-0.002829,-0.000329,0.05,-0.31,9.84
37133522,-0.002919,-0.002826,-0.000328,0.03,-0.30,9.84
37134532,-0.002916,-0.000695,-0.000328,0.04,-0.30,9.82
37135542,-0.000785,0.002499,-0.000328,0.03,-0.31,9.75
37136552,0.001344,0.003560,-0.001391,0.02,-0.30,9.77
37137562,0.003471,0.002493,-0.001390,0.00,-0.30,9.78
37138599,0.002404,0.000362,-0.000324,0.00,-0.32,9.77
37139574,0.002401,-0.000703,-0.000324,0.02,-0.34,9.84
37140594,-0.000794,0.000362,-0.000324,0.04,-0.35,9.81
37141610,-0.001857,-0.000703,0.000741,0.03,-0.32,9.79
37142619,-0.000791,-0.001766,0.000740,0.02,-0.29,9.78
37143625,0.000274,-0.003893,-0.000325,0.02,-0.29,9.82
37144645,0.000273,-0.002825,-0.001389,0.02,-0.28,9.86
37145650,0.000273,-0.001758,-0.002452,0.02,-0.32,9.86
37146651,-0.000791,-0.000692,-0.001385,0.04,-0.33,9.83
37147674,0.000274,0.001438,-0.002448,0.06,-0.29,9.81
37148679,0.002402,0.001436,-0.000317,0.04,-0.30,9.78
37149692,0.002399,-0.000694,0.000748,0.01,-0.32,9.80
37150699,0.000269,-0.002821,0.000747,0.00,-0.31,9.80
37151703,-0.000796,-0.001754,0.002875,0.00,-0.27,9.80
37152722,-0.001859,-0.001753,0.000743,0.03,-0.28,9.80
37153730,-0.001857,-0.001751,-0.001386,0.04,-0.31,9.78
37154740,-0.000791,-0.002813,-0.002449,-0.01,-0.31,9.80
37155754,0.001338,-0.002810,-0.000318,-0.01,-0.29,9.81
37156758,0.001336,0.001449,0.000747,0.03,-0.30,9.79
37157767,0.000271,0.003576,0.000746,0.01,-0.33,9.80
37158775,-0.001858,0.001444,0.000745,0.00,-0.30,9.81
37159786,-0.001856,-0.000686,-0.000320,0.04,-0.28,9.82
37160806,-0.002918,-0.001749,-0.001384,0.04,-0.28,9.79
37161806,-0.001851,-0.000683,-0.000318,0.01,-0.28,9.80
37162816,0.000279,0.001446,0.000746,0.01,-0.28,9.81
37163826,0.001343,0.002509,0.000746,0.02,-0.30,9.77
37164834,0.000278,0.001442,-0.000319,0.00,-0.31,9.84
37165843,-0.000787,0.000376,-0.000319,0.00,-0.31,9.89
37166852,-0.000786,0.001440,-0.000319,0.02,-0.31,9.86
37167862,-0.000785,0.002503,-0.001383,-0.01,-0.30,9.84
37168872,0.000280,0.002500,-0.002445,-0.04,-0.29,9.82
37169882,0.001344,-0.000695,-0.000314,0.00,-0.28,9.83
37170892,0.000278,-0.000694,0.001814,0.01,-0.29,9.84
37171902,-0.000786,0.001435,0.001812,0.00,-0.31,9.85
37172912,-0.000786,0.003562,0.000746,0.02,-0.30,9.82
37173922,-0.000785,0.001430,-0.000319,0.03,-0.31,9.79
37174932,0.001344,0.001428,-0.001382,0.01,-0.32,9.79
37175942,0.000279,0.001427,-0.003509,0.00,-0.33,9.77
37176952,-0.000786,0.001426,-0.004570,0.00,-0.34,9.78
37177962,-0.000785,0.001424,-0.004565,0.01,-0.33,9.79
37178972,0.000280,-0.000706,-0.004561,0.01,-0.32,9.78
37179982,0.000280,-0.000705,-0.000299,0.02,-0.32,9.79
37180992,0.000280,0.000360,0.001829,0.02,-0.30,9.81
37182002,-0.001849,0.000360,-0.001365,0.00,-0.32,9.79
37183012,-0.002912,-0.000705,-0.002428,0.01,-0.31,9.80
37184022,-0.003973,-0.000704,-0.000297,0.01,-0.27,9.81
37185032,-0.001840,0.001425,0.001832,0.04,-0.30,9.77
37186042,-0.000774,0.001423,0.001830,0.05,-0.33,9.76
37187052,0.001355,0.000358,0.000764,0.04,-0.33,9.77
37188062,0.002418,0.001422,-0.000301,0.05,-0.32,9.79
37189072,0.000287,0.002484,-0.001365,0.02,-0.34,9.83
37190082,-0.000778,0.001418,0.000765,-0.01,-0.32,9.79
37191092,-0.000777,0.000352,0.001828,-0.01,-0.31,9.75
37192102,0.000288,0.000352,0.002890,0.02,-0.31,9.75
37193112,0.000288,0.001415,0.003952,0.04,-0.28,9.78
37194122,0.000288,0.001414,0.002883,0.04,-0.27,9.82
37195158,0.000287,0.002477,0.000752,0.02,-0.28,9.78
37196142,0.000287,0.001410,-0.001377,0.03,-0.30,9.78
37197152,0.000287,0.000344,-0.002440,0.04,-0.30,9.80
37198162,0.000286,0.000344,-0.001373,0.02,-0.29,9.79
37199172,0.001350,-0.000720,-0.000308,0.02,-0.28,9.80
37200182,0.001349,0.000344,-0.000307,0.03,-0.29,9.80
37201192,0.002412,-0.000720,0.001821,0.02,-0.30,9.82
37202202,0.001345,-0.001784,0.002884,0.00,-0.31,9.83
37203212,-0.000785,-0.000718,0.001817,0.02,-0.30,9.84
37204222,0.000280,0.001412,0.000751,0.04,-0.29,9.81
37205232,0.001344,0.001410,0.000750,0.05,-0.32,9.82
37206242,0.000279,0.001409,0.000749,0.03,-0.32,9.84
37207252,0.000278,0.001407,-0.000316,0.01,-0.32,9.80
37208262,0.002407,0.000342,-0.001380,0.00,-0.31,9.81
37209264,0.003468,-0.000723,-0.000314,0.01,-0.31,9.84
37210282,0.001336,0.000342,-0.001378,-0.01,-0.32,9.83
37211292,-0.000793,0.000342,-0.002441,-0.05,-0.30,9.79
37212302,0.000272,-0.001787,-0.002438,-0.03,-0.32,9.77
37213312,0.000271,-0.002849,-0.000308,0.00,-0.36,9.79
37214322,0.000271,-0.004975,0.001821,0.00,-0.33,9.82
37215332,0.000271,-0.003906,0.001819,0.00,-0.32,9.80
37216342,0.000271,-0.001773,0.000753,0.03,-0.31,9.78
37217352,0.000270,0.000357,0.000753,0.04,-0.29,9.82
37218362,-0.000794,0.001421,-0.001377,0.03,-0.32,9.83
37219372,-0.000793,0.002483,-0.003504,0.04,-0.35,9.78
37220382,0.002400,0.002481,-0.004564,0.04,-0.37,9.84
37221392,0.003462,0.001414,-0.002431,0.03,-0.32,9.83
37222402,0.001330,0.000349,-0.000300,0.04,-0.28,9.83
37223412,-0.001864,0.000348,0.000764,0.04,-0.29,9.85
37224422,-0.002926,0.000348,0.000763,0.02,-0.29,9.77
37225432,-0.001859,0.000348,0.001827,0.03,-0.30,9.78
37226442,0.001335,0.000347,-0.001368,0.03,-0.29,9.76
37227490,0.002398,0.002475,-0.004559,0.02,-0.31,9.75
37228487,0.000267,0.003537,-0.003490,0.02,-0.33,9.76
37229514,-0.000797,0.001405,-0.000294,0.00,-0.32,9.76
37230482,0.000268,0.000339,0.000771,-0.02,-0.33,9.79
37231559,0.001332,-0.000725,0.001834,0.00,-0.33,9.80
37232537,0.002395,0.000340,0.002896,0.01,-0.31,9.80
37233539,0.001328,0.002468,0.000765,0.01,-0.29,9.79
37234522,0.001327,0.000337,-0.002428,0.03,-0.31,9.79
37235541,-0.000803,-0.001792,-0.002426,0.03,-0.33,9.80
37236542,-0.000802,-0.001790,0.000769,0.02,-0.33,9.82
37237552,0.001327,-0.001788,0.001832,0.00,-0.31,9.85
37238562,0.003454,-0.000722,0.000766,0.00,-0.31,9.86
37239572,0.002386,-0.000722,0.000766,0.02,-0.33,9.87
37240596,0.000256,0.001407,-0.001364,0.00,-0.31,9.82
37241594,-0.001873,0.001406,-0.003491,0.02,-0.34,9.83
37242610,-0.001871,0.000340,-0.003487,0.03,-0.30,9.79
37243619,-0.000805,0.000340,-0.002419,0.03,-0.29,9.76
37244625,0.002388,0.002468,-0.001353,0.06,-0.31,9.79
37245645,0.002386,0.003530,0.000777,0.04,-0.31,9.80
37246650,-0.000809,0.003526,0.001841,0.04,-0.29,9.81
37247660,-0.000808,0.001394,-0.000290,0.00,-0.29,9.79
37248679,-0.001872,0.000329,-0.001354,0.02,-0.34,9.78
37249679,-0.001870,0.001393,-0.001352,0.06,-0.30,9.82
37250692,-0.002932,0.002455,-0.000287,0.03,-0.30,9.85
37251699,-0.002929,0.002453,0.000778,0.00,-0.30,9.83
37252709,-0.002926,0.002450,0.000777,0.03,-0.28,9.81
37253722,-0.000795,0.000319,-0.002416,0.02,-0.29,9.80
37254730,0.000270,-0.001809,-0.002414,0.02,-0.28,9.81
37255740,-0.000794,-0.002872,-0.001347,0.04,-0.29,9.84
37256754,-0.001858,-0.000740,0.000782,-0.01,-0.31,9.82
37257758,-0.001856,0.001389,0.001846,-0.01,-0.31,9.83
37258775,-0.000790,0.000323,0.000780,0.02,-0.32,9.83
37259775,-0.000789,0.000323,-0.000285,0.02,-0.32,9.80
37260781,-0.002917,-0.000742,-0.000285,0.05,-0.30,9.80
37261792,-0.002914,-0.002869,0.000780,0.05,-0.30,9.81
37262806,-0.000782,-0.001802,0.000779,0.01,-0.33,9.81
37263816,-0.001846,-0.000736,-0.000286,0.01,-0.29,9.80
37264817,-0.002908,0.000329,-0.001350,0.02,-0.29,9.78
37265826,-0.003969,-0.000736,0.000780,0.03,-0.34,9.82
37266843,-0.000773,0.000329,0.002907,-0.02,-0.32,9.82
37267860,0.001356,0.000329,0.001840,-0.02,-0.31,9.78
37268862,0.000291,-0.001800,-0.000290,0.00,-0.30,9.78
37269872,0.000291,-0.002862,-0.000290,-0.02,-0.31,9.79
37270882,0.001354,-0.000731,-0.001354,0.00,-0.32,9.81
37271892,0.001353,0.000334,-0.002417,0.01,-0.27,9.81
37272902,0.000288,-0.001795,-0.000286,0.02,-0.27,9.77
37273912,0.000287,-0.002857,0.001843,0.04,-0.29,9.75
37274922,0.002415,-0.002854,0.000777,0.03,-0.28,9.78
37275932,0.003477,-0.001787,-0.002416,0.03,-0.29,9.79
37276942,0.000281,0.000343,-0.001350,0.02,-0.33,9.79
37277960,-0.000784,0.000343,0.000780,0.01,-0.33,9.81
37278954,0.000281,0.000342,0.001843,-0.02,-0.31,9.81
37279972,0.000281,0.000342,0.001842,0.02,-0.31,9.81
37280982,0.001345,-0.000723,0.000775,0.07,-0.30,9.81
37281992,0.000280,-0.000722,-0.000290,0.04,-0.29,9.78
37283002,-0.000785,-0.001785,0.000775,0.03,-0.30,9.77
37284012,0.001344,-0.002848,-0.000290,0.01,-0.29,9.82
37285022,0.003471,-0.001781,-0.000290,-0.01,-0.30,9.88
37286032,0.002404,0.001414,-0.000289,0.01,-0.31,9.88
37287042,0.000273,0.002477,-0.000289,0.02,-0.30,9.80
37288060,0.000272,0.003538,-0.000289,0.01,-0.30,9.75
37289062,-0.000792,0.003535,0.000776,0.00,-0.31,9.77
37290072,-0.002920,0.002467,0.000775,-0.02,-0.31,9.82
37291082,-0.002917,0.001400,-0.000290,0.00,-0.30,9.81
37292092,0.000279,-0.001794,0.000774,0.04,-0.30,9.79
37293102,0.002407,-0.003920,0.001838,0.06,-0.30,9.81
37294112,0.002405,-0.004981,0.001836,0.05,-0.33,9.80
37295122,0.002402,-0.002847,-0.001359,0.04,-0.33,9.82
37296132,0.001336,-0.000716,-0.000293,0.03,-0.30,9.86
37297142,0.000270,0.001413,-0.001357,0.03,-0.32,9.83
37298160,0.001334,0.000348,-0.002420,0.05,-0.31,9.84
37299162,0.001333,-0.001781,-0.003481,0.06,-0.29,9.87
37300172,-0.000797,0.000349,-0.002414,0.03,-0.32,9.85
37301182,-0.000796,0.002477,-0.002411,0.02,-0.31,9.82
37302192,0.001333,0.001410,-0.002409,0.02,-0.29,9.82
37303202,0.003460,-0.000719,-0.003471,0.04,-0.29,9.79
37304249,0.004521,-0.003911,-0.001339,0.04,-0.31,9.77
37305256,0.002388,-0.003907,0.000791,0.02,-0.32,9.79
37306265,0.000257,-0.002839,0.000790,0.04,-0.31,9.78
37307242,0.000256,-0.002836,-0.001339,0.05,-0.32,9.77
37308260,0.000256,-0.000705,-0.001338,0.03,-0.29,9.73
37309262,0.000256,-0.000704,0.000792,0.04,-0.30,9.75
37310272,0.000256,-0.002832,0.000791,0.05,-0.34,9.79
37311282,0.000255,-0.002829,-0.000274,0.04,-0.33,9.83
37312292,-0.000809,-0.002826,-0.001338,0.05,-0.31,9.81
37313302,0.000256,-0.000695,0.000792,0.05,-0.28,9.78
37314312,-0.000808,0.000370,0.002920,0.04,-0.26,9.79
37315322,0.000257,-0.000695,0.001853,0.03,-0.27,9.81
37316332,0.002385,-0.001758,0.000786,0.03,-0.29,9.79
37317342,0.001318,0.000372,0.000786,0.05,-0.29,9.79
37318360,0.000253,0.003564,-0.000279,0.05,-0.29,9.85
37319362,0.000252,0.004625,-0.003472,0.05,-0.28,9.88
37320372,0.000252,0.004620,-0.004532,0.04,-0.29,9.80
37321382,-0.000812,0.004615,-0.001335,0.01,-0.31,9.74
37322392,-0.000812,0.002482,0.000795,0.03,-0.31,9.76
37323402,-0.002939,0.000352,0.001858,0.02,-0.28,9.76
37324412,-0.001872,-0.001777,-0.000272,0.00,-0.29,9.80
37325422,0.000258,-0.002840,-0.002400,0.02,-0.31,9.82
37326432,0.000258,-0.000708,-0.001334,0.04,-0.28,9.80
37327442,-0.000806,0.002485,-0.001332,0.03,-0.29,9.79
37328510,-0.000806,0.002482,-0.002395,0.03,-0.30,9.82
37329462,0.000259,0.002480,-0.002393,0.01,-0.31,9.83
