time_us,gyro_x_rad_s,gyro_y_rad_s,gyro_z_rad_s,acc_x_m_s2,acc_y_m_s2,acc_z_m_s2,temperature_c
261530667,-0.003973,-0.001051,0.001663,-0.01,-0.28,9.83,34.11
261531676,-0.002908,-0.002116,0.001663,0.02,-0.28,9.8,34.13
261532309,0.001354,1.4e-05,0.002728,0.02,-0.28,9.82,34.14
261533280,0.001354,1.4e-05,0.002728,0.03,-0.3,9.83,34.13
261534236,0.000288,-0.002116,0.002728,0.02,-0.33,9.87,34.14
261535244,-0.000777,-0.002116,0.000598,0.01,-0.34,9.85,34.15
261536256,0.000288,1.4e-05,-0.000467,0.02,-0.3,9.84,34.13
261537262,0.000288,0.002145,-0.000467,0.03,-0.32,9.89,34.12
261538264,-0.000777,0.002145,-0.002598,0.04,-0.36,9.85,34.09
261539284,0.001354,1.4e-05,-0.002598,0.04,-0.33,9.82,34.05
261540251,0.002419,-0.001051,-0.001533,0.02,-0.3,9.83,34.11
261541248,0.002419,1.4e-05,-0.000467,-0.02,-0.29,9.81,34.15
261542258,0.001354,0.00108,0.001663,-0.01,-0.29,9.82,34.15
261543268,0.001354,0.002145,0.001663,0.03,-0.28,9.84,34.13
261544276,0.001354,0.002145,0.001663,0.04,-0.28,9.82,34.08
261545281,0.000288,1.4e-05,0.003794,0.04,-0.31,9.78,34.12
261546240,0.000288,1.4e-05,0.003794,0.04,-0.31,9.78,34.12
261547249,0.002419,-0.003182,-0.000467,0.03,-0.31,9.86,34.07
261548260,0.003484,-0.002116,-0.002598,0.0,-0.31,9.78,34.1
261549283,0.003484,-0.001051,-0.002598,-0.03,-0.31,9.8,34.13
261550292,0.000288,0.00108,-0.002598,0.0,-0.29,9.86,34.14
261551288,0.000288,-0.001051,-0.001533,0.02,-0.28,9.87,34.1
261552298,0.001354,-0.003182,-0.000467,0.03,-0.29,9.85,34.12
261553307,0.002419,-0.003182,-0.001533,0.02,-0.29,9.8,34.12
261554318,0.002419,-0.001051,-0.000467,0.01,-0.31,9.8,34.15
261555328,0.001354,1.4e-05,-0.000467,0.01,-0.33,9.8,34.18
261556338,0.000288,0.00108,-0.000467,-0.01,-0.33,9.8,34.18
261557348,-0.001842,0.00108,-0.000467,0.0,-0.3,9.81,34.12
261558357,-0.000777,0.002145,-0.000467,0.03,-0.32,9.8,34.14
261559378,0.000288,0.002145,0.000598,0.03,-0.31,9.79,34.13
261560393,0.000288,0.00108,-0.000467,-0.01,-0.28,9.78,34.16
261561392,0.000288,1.4e-05,-0.001533,-0.01,-0.29,9.79,34.12
261562399,0.000288,1.4e-05,-0.001533,0.04,-0.28,9.83,34.11
261563410,-0.001842,0.00108,0.000598,0.06,-0.33,9.83,34.12
261564418,-0.002908,0.002145,-0.001533,0.04,-0.36,9.82,34.14
261565429,-0.002908,0.005341,-0.002598,0.01,-0.32,9.81,34.17
261566440,-0.003973,0.006406,-0.000467,-0.01,-0.26,9.81,34.19
261567449,-0.002908,0.00321,-0.000467,-0.02,-0.26,9.8,34.18
261568460,-0.001842,0.00108,-0.001533,0.0,-0.3,9.79,34.15
261569501,-0.001842,1.4e-05,-0.000467,0.03,-0.32,9.82,34.15
261570492,-0.001842,0.00108,0.000598,0.06,-0.28,9.82,34.15
261571488,-0.000777,0.00321,0.000598,0.05,-0.26,9.84,34.13
261572498,-0.000777,0.004275,0.000598,0.03,-0.27,9.85,34.12
261573507,-0.001842,0.00321,0.000598,0.04,-0.27,9.8,34.13
261574518,-0.000777,0.00108,-0.000467,0.04,-0.28,9.79,34.15
261575528,0.000288,-0.002116,-0.000467,0.04,-0.34,9.83,34.15
261576585,0.000288,-0.004247,-0.000467,0.05,-0.35,9.84,34.14
261577547,0.000288,-0.003182,-0.001533,0.04,-0.33,9.84,34.14
261578558,-0.002908,-0.001051,-0.001533,0.0,-0.32,9.85,34.14
261579579,-0.003973,-0.001051,0.001663,0.0,-0.32,9.86,34.09
261580595,-0.002908,-0.002116,0.001663,0.01,-0.3,9.85,34.13
261581590,-0.002908,1.4e-05,0.000598,0.02,-0.27,9.8,34.18
261582597,-0.003973,0.00108,0.000598,0.03,-0.28,9.81,34.16
261583610,-0.003973,0.002145,0.001663,0.02,-0.33,9.82,34.1
261584618,-0.002908,0.002145,0.002728,0.01,-0.31,9.8,34.13
261585628,0.000288,0.002145,0.002728,0.02,-0.28,9.8,34.17
261586639,0.002419,0.00108,0.002728,0.03,-0.29,9.84,34.15
261587650,0.001354,1.4e-05,0.003794,0.03,-0.3,9.8,34.14
261588672,-0.001842,-0.001051,0.004859,0.02,-0.31,9.76,34.16
261589668,-0.000777,-0.002116,0.003794,0.02,-0.31,9.85,34.14
261590692,0.001354,-0.002116,0.000598,0.02,-0.28,9.89,34.14
261591688,0.001354,1.4e-05,-0.001533,0.03,-0.27,9.88,34.17
261592698,0.000288,1.4e-05,-0.003663,0.04,-0.28,9.88,34.18
261593707,0.002419,-0.001051,-0.002598,0.02,-0.3,9.83,34.13
261594718,0.002419,0.00108,-0.000467,0.04,-0.29,9.78,34.13
261595727,0.003484,0.00108,0.000598,0.04,-0.29,9.82,34.12
261596739,0.003484,1.4e-05,0.000598,0.04,-0.3,9.82,34.12
261597747,0.001354,-0.002116,-0.000467,0.06,-0.28,9.84,34.15
261598767,0.000288,-0.002116,-0.000467,0.04,-0.3,9.89,34.09
261599768,0.000288,-0.002116,-0.000467,0.01,-0.3,9.89,34.12
261600795,0.002419,1.4e-05,-0.000467,0.0,-0.27,9.86,34.13
261601790,0.003484,0.00108,-0.000467,0.0,-0.29,9.8,34.15
261602800,0.001354,0.002145,-0.001533,0.0,-0.34,9.79,34.14
261603809,0.000288,0.002145,-0.001533,-0.01,-0.34,9.82,34.15
261604820,0.000288,-0.001051,-0.001533,0.0,-0.32,9.84,34.13
261605829,0.000288,1.4e-05,-0.000467,0.0,-0.31,9.82,34.12
261606840,0.000288,0.002145,-0.000467,0.02,-0.28,9.86,34.14
261607849,0.002419,0.00108,-0.000467,0.04,-0.28,9.89,34.18
261608870,0.002419,-0.001051,-0.000467,0.01,-0.28,9.85,34.16
261609881,-0.000777,-0.003182,0.001663,-0.02,-0.31,9.82,34.14
261610878,-0.001842,-0.005312,0.001663,-0.02,-0.3,9.84,34.12
261611888,0.000288,-0.004247,0.000598,0.0,-0.3,9.86,34.07
261612898,0.001354,-0.003182,0.002728,0.02,-0.32,9.84,34.09
261613907,-0.001842,-0.001051,0.003794,0.0,-0.29,9.83,34.12
261614918,-0.002908,0.00108,0.002728,0.01,-0.29,9.85,34.11
261615927,-0.000777,0.002145,-0.000467,0.02,-0.3,9.83,34.13
261616943,-0.000777,0.00321,-0.002598,-0.02,-0.31,9.79,34.13
261617952,-0.001842,0.00321,-0.000467,0.0,-0.29,9.81,34.12
261618973,-0.001842,0.00321,0.001663,0.04,-0.29,9.82,34.15
261619980,-0.003973,0.004275,0.002728,0.05,-0.27,9.81,34.19
261620984,-0.002908,0.00108,0.000598,0.04,-0.28,9.8,34.15
261621998,0.000288,-0.002116,-0.000467,0.06,-0.3,9.82,34.13
261623004,0.002419,-0.001051,-0.000467,0.05,-0.28,9.85,34.13
261624020,0.001354,0.002145,-0.000467,0.02,-0.29,9.79,34.15
261625031,-0.001842,0.00321,-0.000467,0.04,-0.31,9.8,34.17
261626042,-0.000777,0.00108,0.000598,0.04,-0.32,9.86,34.15
261627049,-0.001842,1.4e-05,0.000598,0.01,-0.31,9.85,34.15
261628060,0.000288,0.00108,-0.000467,-0.01,-0.3,9.84,34.16
261629074,0.001354,0.002145,-0.001533,-0.02,-0.28,9.84,34.15
261630082,0.001354,0.00321,-0.001533,-0.02,-0.3,9.82,34.12
261631091,-0.000777,0.00108,-0.000467,0.01,-0.31,9.82,34.13
261632105,-0.000777,-0.001051,0.000598,0.03,-0.28,9.83,34.17
261633109,-0.000777,-0.002116,0.000598,0.04,-0.29,9.87,34.14
261634134,0.001354,-0.002116,0.000598,0.02,-0.32,9.91,34.1
261635130,0.001354,-0.001051,0.000598,0.01,-0.32,9.87,34.09
261636171,-0.000786,-0.002146,0.001641,0.05,-0.29,9.86,34.11
261637149,-0.000786,-0.003211,0.001641,0.04,-0.28,9.87,34.11
261638157,-0.000786,-0.002146,0.000576,0.04,-0.28,9.82,34.09
261639166,0.00028,-0.002146,0.000576,0.03,-0.3,9.77,34.09
261640168,0.001345,-1.5e-05,0.000576,0.0,-0.32,9.76,34.11
261641180,0.00241,0.00105,0.001641,0.0,-0.31,9.78,34.11
261642192,0.00028,0.00105,0.000576,0.01,-0.29,9.81,34.15
261643201,0.00028,0.00105,-0.000489,0.02,-0.33,9.81,34.14
261644212,0.001345,0.00318,-0.000489,0.0,-0.34,9.79,34.15
261645219,0.001345,-1.5e-05,-0.000489,0.01,-0.3,9.82,34.12
261646228,0.00241,-0.003211,-0.000489,0.04,-0.3,9.83,34.11
261647237,0.001345,-0.004277,0.001641,0.04,-0.31,9.81,34.14
261648248,-0.000786,-0.001081,0.000576,0.02,-0.31,9.82,34.14
261649267,0.00241,-0.001081,0.000576,-0.02,-0.32,9.77,34.15
261650267,0.003475,0.00105,-0.000489,0.01,-0.33,9.78,34.11
261651278,0.003475,0.00318,-0.000489,0.02,-0.34,9.82,34.1
261652288,0.00241,0.00318,0.000576,0.03,-0.33,9.83,34.14
261653298,0.001345,0.002115,0.002707,0.03,-0.31,9.82,34.14
261654307,0.00028,0.00105,0.003772,0.02,-0.31,9.82,34.14
261655318,-0.001851,-0.001081,0.001641,0.01,-0.3,9.82,34.16
261656327,-0.002916,-0.002146,0.000576,0.0,-0.3,9.82,34.13
261657339,-0.001851,-0.002146,-0.000489,0.03,-0.3,9.82,34.12
261658347,-0.000786,-1.5e-05,-0.000489,0.04,-0.29,9.84,34.11
261659366,0.00028,-1.5e-05,0.000576,0.03,-0.32,9.83,34.15
261660368,0.00028,-0.002146,0.000576,0.01,-0.34,9.8,34.13
261661377,0.00028,-0.003211,0.000576,0.02,-0.31,9.8,34.13
261662389,-0.001851,-0.002146,-0.001555,0.04,-0.3,9.82,34.11
261663397,-0.001851,-0.001081,-0.001555,0.03,-0.29,9.82,34.12
261664408,-0.000786,-0.001081,0.000576,0.03,-0.28,9.82,34.1
261665417,0.00028,-0.001081,0.000576,0.04,-0.27,9.76,34.12
261666428,-0.000786,-1.5e-05,-0.000489,0.01,-0.27,9.74,34.12
261667437,-0.001851,-0.002146,-0.000489,0.0,-0.31,9.79,34.12
261668448,-0.001851,-0.002146,0.001641,0.01,-0.32,9.79,34.1
261669466,-0.001851,-0.001081,-0.000489,-0.01,-0.3,9.78,34.1
261670468,-0.003981,-0.001081,-0.00262,0.01,-0.31,9.83,34.12
261671477,-0.005047,-0.001081,-0.00262,0.04,-0.35,9.84,34.12
261672489,-0.001851,-0.001081,-0.000489,0.03,-0.33,9.82,34.12
261673497,0.00028,-0.002146,0.001641,0.03,-0.28,9.82,34.12
261674508,0.00028,-0.001081,0.000576,0.01,-0.26,9.82,34.13
261675518,-0.000786,0.002115,0.000576,0.01,-0.28,9.84,34.15
261676527,-0.000786,0.00318,0.001641,0.04,-0.31,9.87,34.15
261677539,-0.000786,0.002115,0.000576,0.07,-0.33,9.84,34.14
261678584,-0.001851,0.00105,0.001641,0.07,-0.31,9.8,34.11
261679566,-0.001851,0.00105,0.002707,0.05,-0.31,9.82,34.11
261680568,-0.002916,0.00105,0.003772,0.04,-0.34,9.86,34.12
261681577,-0.001851,0.00105,0.002707,0.05,-0.32,9.84,34.12
261682589,0.00028,0.002115,0.002707,0.05,-0.3,9.8,34.15
261683597,0.001345,-1.5e-05,0.001641,0.04,-0.32,9.78,34.14
261684608,0.001345,-0.002146,0.000576,0.03,-0.31,9.82,34.16
261685617,0.001345,-0.002146,0.000576,-0.01,-0.28,9.88,34.12
261686628,-0.000786,-1.5e-05,-0.000489,0.02,-0.28,9.86,34.13
261687637,-0.001851,-0.001081,-0.00262,0.03,-0.29,9.84,34.18
261688648,-0.001851,-1.5e-05,-0.003685,0.01,-0.28,9.85,34.15
261689667,0.00028,-1.5e-05,-0.001555,0.01,-0.28,9.82,34.12
261690667,0.00241,-0.001081,0.000576,0.01,-0.3,9.79,34.15
261691678,0.001345,-0.002146,-0.000489,0.01,-0.29,9.8,34.16
261692688,-0.001851,-0.001081,-0.001555,-0.02,-0.3,9.79,34.17
261693698,-0.002916,0.00105,-0.001555,-0.03,-0.31,9.81,34.18
261694707,-0.001851,0.002115,-0.000489,0.01,-0.3,9.79,34.15
261695718,-0.000786,0.00105,0.000576,0.0,-0.28,9.77,34.16
261696727,0.001345,-0.003211,0.000576,-0.03,-0.3,9.79,34.15
261697739,0.001345,-0.006407,0.000576,0.0,-0.33,9.81,34.09
261698758,0.00028,-0.004277,-0.001555,0.04,-0.35,9.82,34.1
261699757,0.00028,-1.5e-05,-0.003685,0.02,-0.34,9.79,34.14
261700768,-0.000786,0.004246,-0.000489,0.0,-0.32,9.82,34.15
261701777,-0.000786,0.004246,0.002707,-0.01,-0.29,9.87,34.13
261702789,0.00028,0.002115,0.001641,0.01,-0.28,9.85,34.13
261703797,0.00028,-0.002146,-0.000489,0.04,-0.31,9.83,34.15
261704808,0.00028,-0.003211,-0.003685,0.04,-0.33,9.8,34.12
261705817,-0.000786,-0.001081,-0.00262,0.02,-0.34,9.79,34.13
261706828,-0.001851,0.00105,-0.000489,-0.01,-0.33,9.83,34.17
261707837,-0.002916,0.00105,-0.001555,-0.01,-0.3,9.82,34.16
261708857,-0.001851,-1.5e-05,-0.00262,0.01,-0.28,9.82,34.12
261709858,-0.002916,-0.001081,-0.001555,0.03,-0.3,9.85,34.13
261710867,-0.003981,-0.001081,-0.00262,0.01,-0.28,9.86,34.16
261711878,-0.005047,-0.002146,-0.00262,0.02,-0.28,9.82,34.14
261712888,-0.001851,-0.001081,-0.00262,0.04,-0.3,9.81,34.16
261713898,0.001345,-1.5e-05,-0.00262,0.03,-0.33,9.8,34.19
261714908,0.00241,0.00318,-0.00262,0.03,-0.32,9.84,34.13
261715918,0.001345,0.00105,-0.000489,0.03,-0.31,9.85,34.15
261716927,0.00028,-1.5e-05,0.001641,0.03,-0.32,9.82,34.16
261717943,-0.000786,-0.001081,0.001641,0.04,-0.29,9.83,34.16
261718961,-0.001851,0.00105,0.000576,0.06,-0.29,9.86,34.15
261719959,-0.001851,0.004246,0.000576,0.05,-0.28,9.84,34.16
261720977,-0.001851,0.002115,0.001641,0.03,-0.28,9.83,34.15
261721987,-0.000786,-1.5e-05,0.002707,0.02,-0.3,9.87,34.13
261722997,-0.000786,-0.002146,0.001641,0.0,-0.31,9.86,34.15
261724003,-0.001851,-0.004277,0.000576,0.02,-0.31,9.87,34.15
261725022,-0.001851,-0.005342,-0.001555,0.04,-0.3,9.9,34.14
261726024,0.00028,-0.004277,-0.00262,0.0,-0.31,9.86,34.14
261727037,0.00028,-0.001081,-0.000489,-0.02,-0.31,9.78,34.11
261728045,-0.000786,0.00105,0.001641,0.0,-0.33,9.78,34.13
261729077,0.00028,-1.5e-05,0.001641,0.03,-0.29,9.8,34.08
261730067,0.001345,-0.001081,0.000576,0.03,-0.28,9.85,34.15
261731081,0.00241,-0.002146,-0.000489,0.04,-0.3,9.9,34.12
261732086,0.001345,-0.002146,-0.000489,0.03,-0.29,9.83,34.14
261733105,-0.000786,-1.5e-05,-0.000489,0.02,-0.32,9.81,34.14
261734109,-0.000786,0.00105,0.001641,0.01,-0.32,9.84,34.13
261735125,-0.000786,0.00105,0.001641,0.0,-0.27,9.84,34.12
261736130,0.00241,-0.001081,0.000576,0.03,-0.29,9.86,34.15
261737138,0.001345,-0.003211,0.000576,0.0,-0.33,9.85,34.18
261738144,0.00028,-0.002146,0.000576,0.0,-0.31,9.82,34.19
261739166,-0.000786,-0.001081,0.001641,0.03,-0.28,9.82,34.14
261740159,0.001345,-0.001081,0.001641,0.02,-0.31,9.8,34.15
261741167,0.001345,-0.001081,0.001641,0.01,-0.29,9.82,34.12
261742181,-0.000786,-0.002146,-0.000489,-0.01,-0.29,9.85,34.16
261743192,-0.001851,-1.5e-05,-0.000489,0.01,-0.29,9.87,34.14
261744203,-0.000786,0.00105,0.000576,0.02,-0.25,9.86,34.13
261745211,0.001345,-0.001081,0.001641,0.03,-0.29,9.86,34.12
261746220,0.00241,-0.003211,0.001641,0.04,-0.35,9.88,34.15
261747228,0.001345,-0.003211,0.001641,0.01,-0.34,9.85,34.21
261748237,0.00028,-0.004277,-0.000489,0.01,-0.3,9.85,34.14
261749257,0.00028,-0.002146,-0.001555,-0.01,-0.28,9.81,34.1
261750258,0.00028,-0.003211,0.000576,0.02,-0.28,9.8,34.12
261751267,-0.000786,-0.004277,0.000576,0.04,-0.27,9.81,34.15
261752278,-0.000786,-0.001081,-0.000489,0.01,-0.29,9.82,34.18
261753288,-0.000786,0.002115,-0.001555,-0.01,-0.29,9.82,34.17
261754298,0.00028,-1.5e-05,-0.00262,0.0,-0.29,9.85,34.18
261755307,0.001345,-0.002146,-0.00262,0.0,-0.29,9.86,34.13
261756318,0.001345,0.00105,-0.001555,0.03,-0.28,9.82,34.13
261757327,-0.000786,0.00318,-0.000489,0.04,-0.31,9.8,34.13
261758339,-0.001851,0.00318,0.000576,0.01,-0.32,9.79,34.11
261759358,-0.000786,0.002115,-0.000489,-0.01,-0.33,9.82,34.1
261760357,0.00028,-0.001081,-0.001555,-0.02,-0.34,9.82,34.12
261761368,0.001345,-0.003211,-0.000489,-0.02,-0.32,9.78,34.16
261762377,0.001345,-0.003211,-0.000489,0.0,-0.31,9.78,34.14
261763389,0.00028,-1.5e-05,-0.00262,0.03,-0.28,9.82,34.13
261764397,0.00241,0.00318,-0.00262,0.04,-0.28,9.85,34.13
261765434,0.002437,0.004308,-0.000486,0.01,-0.3,9.85,34.17
261766419,0.000306,0.002177,0.00271,-0.02,-0.3,9.86,34.15
261767428,-0.000759,0.001112,0.00271,-0.01,-0.29,9.82,34.15
261768437,-0.000759,-0.001019,0.001645,0.03,-0.28,9.79,34.14
261769457,0.000306,-0.001019,-0.000486,0.04,-0.29,9.84,34.15
261770458,0.001371,0.001112,-0.001551,0.01,-0.27,9.89,34.14
261771467,0.001371,0.001112,-0.001551,0.01,-0.28,9.92,34.15
261772478,0.002437,0.002177,-0.001551,0.04,-0.34,9.86,34.13
261773488,0.002437,0.002177,-0.000486,0.04,-0.34,9.79,34.09
261774498,0.001371,0.002177,0.00058,0.03,-0.3,9.79,34.1
261775507,0.001371,4.6e-05,0.00058,0.04,-0.32,9.81,34.14
261776518,0.000306,-0.002084,0.00058,0.04,-0.34,9.86,34.15
261777527,-0.000759,-0.004215,0.001645,0.01,-0.32,9.84,34.14
261778539,-0.001824,-0.002084,0.001645,0.01,-0.28,9.83,34.14
261779558,-0.001824,4.6e-05,0.001645,0.05,-0.29,9.83,34.2
261780594,0.001371,0.001112,0.001645,0.04,-0.31,9.8,34.14
261781568,0.002437,4.6e-05,0.00058,0.02,-0.3,9.84,34.14
261782577,0.001371,-0.001019,0.00058,0.02,-0.33,9.83,34.15
261783589,0.000306,4.6e-05,0.00058,0.04,-0.37,9.77,34.13
261784597,0.000306,0.002177,0.00058,0.04,-0.35,9.79,34.13
261785608,-0.000759,0.003242,0.00058,0.0,-0.31,9.85,34.15
261786617,0.000306,0.003242,0.00058,0.01,-0.3,9.86,34.13
261787628,0.001371,0.001112,-0.000486,0.02,-0.26,9.83,34.12
261788637,0.001371,4.6e-05,-0.000486,0.02,-0.27,9.79,34.12
261789658,0.000306,4.6e-05,0.00058,0.04,-0.3,9.76,34.12
261790658,0.000306,0.001112,0.001645,0.01,-0.29,9.79,34.13
261791668,-0.001824,0.002177,0.00058,0.03,-0.31,9.8,34.15
261792678,-0.00289,0.002177,0.001645,0.02,-0.31,9.82,34.13
261793689,-0.00289,0.003242,0.00058,0.0,-0.28,9.84,34.16
261794698,-0.001824,0.001112,-0.002616,0.02,-0.29,9.85,34.15
261795707,0.000306,0.001112,-0.002616,0.03,-0.3,9.85,34.16
261796718,0.001371,0.001112,-0.000486,0.02,-0.28,9.8,34.14
261797727,0.000306,4.6e-05,0.00058,0.01,-0.28,9.82,34.15
261798748,0.000306,4.6e-05,0.00058,0.02,-0.28,9.87,34.15
261799748,0.001371,-0.001019,0.001645,0.02,-0.29,9.89,34.16
261800757,-0.000759,-0.001019,0.001645,0.01,-0.31,9.89,34.15
261801768,-0.001824,4.6e-05,0.001645,0.02,-0.31,9.84,34.17
261802777,0.001371,4.6e-05,0.00058,0.03,-0.3,9.81,34.14
261803788,0.003502,0.001112,-0.001551,-0.01,-0.32,9.82,34.17
261804797,0.002437,4.6e-05,-0.001551,0.02,-0.3,9.8,34.18
261805808,0.000306,-0.003149,0.00058,0.05,-0.29,9.79,34.17
261806817,-0.001824,-0.002084,0.00058,0.03,-0.29,9.83,34.15
261807828,-0.000759,4.6e-05,0.00058,0.02,-0.3,9.86,34.17
261808848,0.000306,4.6e-05,0.00058,0.05,-0.32,9.82,34.16
261809847,-0.000759,-0.002084,0.00058,0.05,-0.31,9.81,34.14
261810858,-0.001824,-0.003149,0.00058,0.01,-0.29,9.83,34.15
261811867,-0.00289,-0.001019,-0.001551,0.0,-0.29,9.84,34.12
261812877,-0.001824,0.001112,0.00058,0.03,-0.28,9.83,34.14
261813889,0.002437,0.001112,0.00271,0.06,-0.3,9.78,34.1
261814897,0.002437,0.003242,0.001645,0.04,-0.32,9.79,34.12
261815908,0.000306,0.003242,0.00271,0.0,-0.31,9.81,34.1
261816917,-0.000759,0.003242,0.00058,-0.02,-0.28,9.84,34.13
261817927,0.001371,0.002177,-0.000486,-0.01,-0.27,9.85,34.17
261818949,0.001371,0.001112,-0.000486,-0.02,-0.32,9.8,34.17
261819950,-0.000759,4.6e-05,0.00058,-0.01,-0.31,9.85,34.13
261820961,0.000306,0.002177,0.00058,0.01,-0.32,9.84,34.15
261821978,0.002437,0.003242,0.00058,0.03,-0.35,9.84,34.17
261822986,0.003502,0.004308,0.00058,0.06,-0.32,9.87,34.12
261823994,0.001371,0.002177,-0.000486,0.08,-0.3,9.79,34.11
261825003,-0.001824,0.002177,-0.000486,0.06,-0.3,9.76,34.12
261826018,-0.00289,0.001112,0.00058,0.03,-0.32,9.79,34.12
261827028,-0.001824,4.6e-05,0.00058,0.04,-0.34,9.8,34.09
261828038,0.001371,0.001112,0.00058,0.03,-0.34,9.82,34.14
261829061,0.002437,-0.001019,-0.000486,0.02,-0.32,9.86,34.15
261830058,0.001371,-0.004215,-0.001551,-0.01,-0.31,9.82,34.15
261831068,-0.000759,-0.00528,-0.001551,-0.03,-0.33,9.78,34.13
261832081,-0.00289,-0.002084,0.00058,0.02,-0.34,9.76,34.12
261833092,-0.003955,0.001112,0.001645,0.03,-0.33,9.74,34.14
261834100,-0.000759,0.002177,0.00058,0.0,-0.31,9.78,34.17
261835112,0.001371,0.002177,0.00058,0.01,-0.32,9.8,34.17
261836117,-0.000759,0.001112,0.00271,0.01,-0.31,9.79,34.11
261837129,-0.001824,0.001112,0.003776,0.0,-0.29,9.82,34.08
261838138,-0.001824,0.001112,0.00271,0.02,-0.29,9.84,34.09
261839155,-0.001824,0.001112,0.00058,0.03,-0.27,9.86,34.12
261840155,-0.00289,-0.001019,0.00058,0.01,-0.28,9.88,34.14
261841160,-0.00502,-0.001019,0.00058,0.0,-0.33,9.86,34.11
261842167,-0.00502,-0.001019,-0.000486,0.0,-0.3,9.84,34.14
261843181,-0.00289,0.001112,-0.000486,0.0,-0.28,9.79,34.14
261844190,-0.000759,-0.002084,0.001645,0.02,-0.27,9.8,34.16
261845203,-0.001824,-0.00528,0.001645,0.03,-0.28,9.85,34.15
261846211,-0.003955,-0.006345,0.00058,0.02,-0.32,9.82,34.11
261847220,-0.001824,-0.004215,-0.000486,0.02,-0.28,9.82,34.1
261848227,0.002437,-0.002084,-0.000486,0.02,-0.28,9.83,34.09
261849247,0.004567,4.6e-05,0.001645,0.03,-0.29,9.83,34.08
261850248,0.000306,4.6e-05,0.00058,0.0,-0.29,9.82,34.12
261851257,0.001371,-0.001019,0.00058,-0.01,-0.32,9.83,34.14
261852268,0.001371,-0.002084,0.00058,0.01,-0.33,9.82,34.15
261853277,0.001371,-0.001019,-0.000486,0.04,-0.32,9.84,34.14
261854288,0.000306,-0.002084,-0.000486,0.04,-0.31,9.83,34.12
261855298,-0.000759,-0.001019,-0.001551,0.04,-0.33,9.78,34.12
261856307,0.000306,4.6e-05,-0.001551,0.03,-0.32,9.79,34.14
261857318,0.003502,0.001112,-0.001551,0.0,-0.29,9.82,34.13
261858327,0.003502,-0.001019,-0.000486,0.01,-0.3,9.84,34.13
261859348,0.001371,-0.001019,0.00058,0.01,-0.32,9.84,34.15
261860348,-0.000759,4.6e-05,-0.001551,0.0,-0.33,9.84,34.13
261861357,-0.000759,0.002177,-0.002616,-0.01,-0.33,9.86,34.12
261862368,-0.000759,0.001112,-0.002616,0.0,-0.3,9.89,34.15
261863377,-0.000759,-0.002084,-0.001551,0.0,-0.3,9.85,34.13
261864388,-0.000759,-0.004215,0.00058,0.01,-0.33,9.82,34.15
261865397,0.001371,-0.003149,0.001645,0.03,-0.3,9.82,34.13
261866408,0.001371,4.6e-05,0.00271,0.01,-0.28,9.81,34.11
261867417,0.001371,0.001112,0.00058,-0.02,-0.29,9.82,34.15
261868428,0.000306,-0.001019,-0.001551,0.0,-0.3,9.84,34.18
261869448,0.002437,4.6e-05,-0.002616,0.05,-0.28,9.84,34.17
261870447,0.003502,0.002177,-0.001551,0.05,-0.27,9.82,34.17
261871458,0.001371,0.004308,-0.001551,0.01,-0.28,9.84,34.15
261872467,0.002437,0.003242,-0.001551,0.02,-0.28,9.87,34.13
261873478,0.003502,4.6e-05,-0.001551,0.04,-0.31,9.82,34.12
261874488,0.002437,-0.001019,-0.001551,0.02,-0.3,9.76,34.12
261875498,0.000306,4.6e-05,-0.000486,0.02,-0.28,9.84,34.14
261876538,-0.001824,0.002177,0.00058,0.04,-0.28,9.89,34.13
261877518,-0.00289,0.001112,-0.000486,0.04,-0.27,9.86,34.15
261878527,-0.00289,4.6e-05,-0.001551,0.01,-0.29,9.83,34.13
261879548,-0.001824,0.001112,-0.002616,0.01,-0.29,9.82,34.12
261880548,0.000306,0.003242,-0.001551,0.0,-0.29,9.8,34.13
261881557,0.001371,4.6e-05,-0.001551,-0.02,-0.31,9.78,34.15
261882568,0.001371,-0.003149,-0.000486,0.01,-0.32,9.81,34.17
261883587,0.001371,-0.003149,0.00058,0.01,-0.31,9.83,34.14
261884588,0.001371,-0.004215,0.00271,0.01,-0.29,9.84,34.11
261885597,0.000306,-0.004215,0.001645,0.05,-0.3,9.8,34.13
261886608,0.000306,-0.003149,0.00058,0.06,-0.32,9.78,34.12
261887617,0.000306,-0.002084,-0.001551,0.04,-0.31,9.85,34.1
261888628,0.000306,0.001112,-0.001551,0.01,-0.28,9.82,34.12
261889648,0.001371,0.002177,-0.000486,0.02,-0.3,9.79,34.16
261890647,0.002437,-0.001019,-0.001551,0.02,-0.34,9.83,34.21
261891658,0.002437,-0.003149,-0.002616,0.03,-0.33,9.82,34.15
261892667,0.000306,-0.001019,-0.003681,0.03,-0.31,9.82,34.14
261893678,-0.000759,4.6e-05,-0.003681,0.0,-0.32,9.81,34.15
261894716,-0.000776,-0.001017,-0.00049,0.03,-0.3,9.83,34.13
261895701,-0.001841,-0.002083,0.000575,0.06,-0.33,9.85,34.13
261896707,-0.000776,-0.002083,0.000575,0.04,-0.33,9.85,34.14
261897718,0.000289,4.8e-05,0.000575,0.02,-0.3,9.82,34.12
261898736,0.00242,0.002178,0.000575,0.02,-0.31,9.84,34.13
261899738,0.00242,0.004309,0.00164,0.03,-0.32,9.85,34.18
261900748,0.001355,0.003244,0.00164,0.04,-0.31,9.85,34.16
261901757,0.00242,0.002178,0.00164,0.0,-0.29,9.86,34.16
261902768,0.00455,0.002178,0.00164,0.0,-0.29,9.82,34.12
261903778,0.005616,0.002178,0.002706,0.02,-0.29,9.81,34.11
261904788,0.005616,0.002178,0.00164,0.01,-0.29,9.81,34.12
261905798,0.003485,0.004309,0.000575,0.01,-0.28,9.84,34.11
261906807,0.001355,0.004309,-0.002621,0.04,-0.31,9.83,34.15
261907817,-0.000776,0.001113,-0.003686,0.04,-0.33,9.81,34.19
261908837,-0.001841,-0.002083,-0.001555,0.0,-0.3,9.82,34.18
261909838,0.000289,-0.002083,-0.00049,-0.01,-0.31,9.86,34.16
261910848,0.001355,4.8e-05,0.00164,0.01,-0.32,9.84,34.15
261911857,0.000289,0.002178,0.00164,0.04,-0.31,9.81,34.17
261912868,0.001355,0.002178,0.000575,0.03,-0.32,9.83,34.12
261913877,0.00242,0.001113,0.00164,0.02,-0.32,9.83,34.1
261914889,0.00242,0.001113,0.002706,0.03,-0.29,9.82,34.13
261915897,0.001355,0.001113,0.002706,0.05,-0.29,9.8,34.12
261916908,-0.000776,0.003244,0.000575,0.03,-0.29,9.78,34.16
261917917,0.001355,0.003244,-0.00049,0.01,-0.27,9.81,34.15
261918938,0.001355,0.002178,0.000575,0.02,-0.28,9.81,34.09
261919943,-0.000776,4.8e-05,0.000575,0.04,-0.3,9.82,34.13
261920950,-0.000776,4.8e-05,-0.00049,0.06,-0.29,9.85,34.13
261921960,0.000289,0.001113,0.000575,0.06,-0.28,9.85,34.12
261922972,-0.000776,0.001113,0.00164,0.02,-0.29,9.84,34.12
261923986,-0.003972,0.002178,0.00164,0.02,-0.29,9.83,34.13
261924995,-0.005037,0.003244,0.000575,0.01,-0.28,9.86,34.12
261926006,-0.002907,0.003244,-0.00049,-0.01,-0.26,9.84,34.12
261927018,-0.000776,-0.001017,-0.00049,0.03,-0.31,9.81,34.18
261928026,0.000289,-0.005278,-0.002621,0.07,-0.34,9.87,34.15
261929047,0.000289,-0.005278,-0.002621,0.05,-0.32,9.87,34.15
261930043,-0.000776,-0.003148,-0.00049,0.02,-0.31,9.83,34.13
261931064,-0.000776,-0.001017,0.00164,0.02,-0.3,9.79,34.14
261932066,0.000289,-0.001017,0.000575,0.02,-0.29,9.8,34.12
261933082,0.000289,4.8e-05,-0.00049,0.01,-0.29,9.82,34.11
261934085,-0.000776,0.002178,-0.00049,0.01,-0.28,9.82,34.15
261935105,-0.000776,0.004309,0.00164,-0.02,-0.29,9.83,34.15
261936110,-0.000776,0.00644,0.003771,-0.02,-0.34,9.81,34.13
261937115,-0.002907,0.004309,0.002706,0.03,-0.31,9.81,34.14
261938128,-0.000776,0.002178,0.002706,0.03,-0.27,9.84,34.14
261939148,0.001355,0.001113,0.00164,0.03,-0.27,9.84,34.14
261940144,0.003485,0.001113,-0.00049,0.04,-0.29,9.85,34.12
261941156,0.003485,-0.001017,-0.001555,0.01,-0.3,9.84,34.14
261942160,0.00242,-0.001017,-0.00049,0.0,-0.29,9.84,34.14
261943167,0.000289,0.001113,0.00164,0.02,-0.28,9.83,34.13
261944181,-0.000776,4.8e-05,0.00164,0.01,-0.28,9.84,34.12
261945190,-0.001841,-0.002083,0.000575,-0.01,-0.28,9.82,34.12
261946203,0.000289,-0.002083,0.000575,-0.02,-0.29,9.8,34.12
261947211,0.00242,-0.002083,0.000575,0.03,-0.3,9.82,34.16
261948220,0.00242,-0.001017,-0.00049,0.03,-0.31,9.8,34.14
261949238,-0.000776,-0.002083,-0.001555,-0.01,-0.31,9.84,34.09
261950238,0.000289,-0.002083,-0.00049,0.01,-0.3,9.88,34.09
261951248,0.000289,0.003244,-0.001555,-0.01,-0.33,9.86,34.12
261952257,0.000289,0.003244,-0.00049,0.01,-0.29,9.85,34.08
261953268,-0.001841,0.002178,0.00164,0.03,-0.27,9.8,34.08
261954277,-0.002907,0.002178,0.002706,-0.02,-0.29,9.82,34.15
261955289,-0.001841,0.002178,0.002706,-0.01,-0.31,9.86,34.15
261956297,-0.000776,4.8e-05,0.00164,0.02,-0.29,9.82,34.17
261957308,-0.000776,-0.004213,0.000575,0.02,-0.28,9.83,34.15
261958317,0.000289,-0.006344,-0.00049,0.03,-0.26,9.86,34.16
261959337,0.001355,-0.002083,-0.00049,0.01,-0.26,9.82,34.17
261960339,0.000289,0.001113,0.000575,0.0,-0.32,9.8,34.12
261961347,-0.000776,4.8e-05,0.002706,-0.01,-0.32,9.8,34.14
261962358,0.000289,-0.001017,0.002706,-0.01,-0.28,9.84,34.16
261963367,0.003485,-0.001017,0.00164,0.01,-0.29,9.82,34.16
261964378,0.003485,0.002178,0.002706,0.01,-0.31,9.79,34.15
261965387,0.001355,0.001113,0.000575,0.03,-0.33,9.83,34.13
261966398,-0.000776,4.8e-05,-0.001555,0.03,-0.33,9.84,34.14
261967407,-0.000776,0.001113,-0.00049,0.04,-0.3,9.86,34.14
261968418,-0.000776,0.001113,0.00164,0.06,-0.3,9.86,34.12
261969438,-0.000776,0.001113,0.000575,0.05,-0.29,9.83,34.1
261970438,0.000289,4.8e-05,-0.00049,0.03,-0.26,9.86,34.15
261971448,-0.000776,0.001113,0.000575,0.0,-0.27,9.87,34.14
261972457,-0.001841,4.8e-05,0.00164,-0.01,-0.3,9.85,34.15
261973468,-0.001841,4.8e-05,0.000575,0.03,-0.31,9.87,34.13
261974477,0.001355,-0.001017,-0.002621,0.02,-0.31,9.84,34.11
261975488,0.00242,-0.001017,-0.002621,0.01,-0.3,9.87,34.1
261976497,0.000289,-0.002083,-0.001555,0.03,-0.29,9.89,34.07
261977507,-0.000776,-0.002083,-0.001555,0.01,-0.31,9.86,34.11
261978517,-0.000776,4.8e-05,-0.00049,0.0,-0.3,9.85,34.13
261979537,-0.000776,0.003244,0.000575,0.02,-0.29,9.87,34.12
261980539,0.000289,4.8e-05,-0.00049,0.0,-0.31,9.87,34.14
261981547,0.000289,-0.003148,-0.00049,0.0,-0.3,9.82,34.14
261982558,0.001355,-0.003148,-0.00049,0.0,-0.29,9.81,34.18
261983567,0.00455,-0.002083,-0.001555,0.02,-0.3,9.84,34.2
261984578,0.00455,-0.001017,-0.003686,0.03,-0.32,9.85,34.15
261985636,0.003485,4.8e-05,-0.002621,0.02,-0.31,9.82,34.12
261986598,0.00242,0.001113,-0.00049,0.03,-0.31,9.81,34.12
261987607,0.003485,4.8e-05,0.00164,0.04,-0.32,9.82,34.13
261988618,0.003485,-0.001017,0.000575,0.04,-0.32,9.83,34.13
261989638,0.001355,-0.001017,-0.00049,0.0,-0.32,9.86,34.14
261990638,-0.000776,-0.001017,0.000575,0.0,-0.31,9.88,34.13
261991648,-0.000776,-0.002083,0.000575,0.01,-0.32,9.84,34.13
261992657,-0.000776,-0.001017,-0.00049,0.03,-0.32,9.84,34.15
261993668,-0.001841,0.002178,0.000575,0.04,-0.29,9.84,34.12
261994677,-0.000776,0.003244,0.000575,0.03,-0.25,9.81,34.11
261995689,-0.000776,0.002178,-0.00049,0.04,-0.27,9.8,34.14
261996697,0.000289,4.8e-05,-0.00049,0.03,-0.32,9.8,34.15
261997708,0.000289,4.8e-05,0.000575,-0.02,-0.3,9.83,34.16
261998726,0.000289,4.8e-05,0.00164,-0.02,-0.27,9.87,34.16
261999728,0.000289,4.8e-05,0.002706,-0.02,-0.27,9.86,34.14
262000738,0.000289,-0.001017,0.000575,-0.04,-0.27,9.83,34.13
262001748,0.001355,-0.002083,-0.001555,-0.02,-0.28,9.8,34.12
262002757,0.000289,-0.001017,-0.001555,0.0,-0.28,9.82,34.1
262003768,-0.000776,4.8e-05,-0.00049,0.02,-0.3,9.84,34.12
262004777,-0.000776,0.002178,0.000575,0.0,-0.3,9.78,34.12
262005788,0.000289,0.003244,0.000575,-0.01,-0.29,9.78,34.13
262006797,0.000289,0.002178,-0.001555,0.01,-0.29,9.86,34.16
262007808,0.000289,4.8e-05,-0.002621,0.02,-0.28,9.84,34.14
262008827,0.000289,4.8e-05,-0.00049,-0.01,-0.31,9.8,34.09
262009827,0.001355,4.8e-05,0.000575,-0.02,-0.3,9.88,34.11
262010839,0.00242,4.8e-05,0.000575,0.0,-0.28,9.89,34.12
262011847,0.001355,4.8e-05,0.000575,0.01,-0.28,9.81,34.13
262012858,-0.001841,-0.001017,0.000575,0.02,-0.28,9.8,34.12
262013867,-0.001841,-0.002083,0.000575,0.02,-0.28,9.82,34.12
262014878,0.001355,4.8e-05,0.000575,0.01,-0.27,9.79,34.13
262015888,0.003485,0.003244,0.000575,0.04,-0.28,9.85,34.11
262016898,0.00242,0.004309,0.000575,0.06,-0.28,9.92,34.13
262017907,-0.000776,0.003244,0.000575,0.04,-0.3,9.86,34.11
262018926,-0.000776,0.001113,0.00164,0.02,-0.33,9.82,34.15
262019928,0.000289,0.002178,0.002706,0.01,-0.35,9.84,34.18
262020968,0.000289,0.004309,0.00164,0.04,-0.32,9.84,34.13
262021975,0.001355,0.005374,0.000575,0.02,-0.3,9.78,34.1
262022967,0.000289,0.005374,0.000575,-0.01,-0.34,9.74,34.14
262024012,-0.000828,0.004241,0.000534,0.02,-0.29,9.8,34.14
262024989,-0.001893,0.003176,0.000534,0.03,-0.26,9.86,34.18
262025995,-0.000828,0.003176,-0.000531,0.04,-0.31,9.82,34.15
262027010,0.001303,-2e-05,-0.000531,0.07,-0.3,9.84,34.14
262028016,0.002368,-0.002151,-0.000531,0.06,-0.32,9.88,34.15
262029033,0.001303,-0.003216,-0.000531,0.03,-0.33,9.82,34.18
262030042,-0.000828,-0.003216,-0.000531,0.02,-0.3,9.83,34.18
262031046,-0.000828,-0.001085,-0.000531,0.06,-0.32,9.85,34.18
262032060,0.000237,-2e-05,-0.000531,0.04,-0.29,9.85,34.17
262033064,-0.000828,-0.002151,-0.000531,-0.01,-0.29,9.84,34.13
262034082,-0.002958,-0.001085,-0.000531,0.01,-0.32,9.83,34.14
262035100,-0.004024,-2e-05,-0.000531,-0.01,-0.32,9.83,34.15
262036106,-0.004024,0.003176,0.000534,-0.01,-0.32,9.84,34.13
262037107,-0.002958,0.004241,0.000534,0.06,-0.31,9.87,34.15
262038118,-0.001893,-2e-05,-0.000531,0.05,-0.31,9.85,34.17
262039134,-0.000828,-0.003216,0.000534,0.01,-0.31,9.85,34.18
262040135,-0.000828,-0.003216,0.001599,0.01,-0.29,9.88,34.15
262041147,0.001303,-0.001085,0.000534,0.02,-0.32,9.9,34.2
262042156,0.001303,-2e-05,-0.002662,0.02,-0.32,9.84,34.17
262043159,0.000237,-2e-05,-0.003727,0.0,-0.28,9.79,34.13
262044166,0.001303,-0.001085,-0.002662,0.03,-0.28,9.79,34.15
262045179,0.002368,-0.001085,-0.000531,0.04,-0.26,9.82,34.12
262046190,0.001303,0.001045,0.001599,0.0,-0.27,9.85,34.14
262047200,-0.000828,-2e-05,0.001599,-0.03,-0.3,9.84,34.15
262048211,0.000237,-0.001085,0.001599,0.0,-0.31,9.85,34.18
262049228,0.003433,-2e-05,0.000534,0.02,-0.32,9.86,34.14
262050226,0.003433,0.003176,-0.000531,0.04,-0.32,9.83,34.13
262051237,0.000237,0.001045,-0.000531,0.03,-0.34,9.82,34.12
262052247,0.002368,-2e-05,-0.002662,0.02,-0.33,9.81,34.14
262053256,0.005564,-0.001085,-0.002662,0.0,-0.3,9.85,34.17
262054267,0.006629,-0.002151,-0.000531,-0.01,-0.29,9.88,34.18
262055276,0.004499,-0.002151,0.001599,-0.01,-0.29,9.83,34.17
262056288,0.000237,-0.001085,0.001599,0.01,-0.29,9.85,34.13
262057296,-0.002958,-2e-05,0.000534,0.05,-0.29,9.87,34.15
262058307,-0.002958,0.001045,0.001599,0.02,-0.3,9.83,34.12
262059324,-0.001893,0.002111,0.001599,0.0,-0.29,9.76,34.14
262060327,-0.002958,0.001045,0.000534,0.0,-0.28,9.69,34.15
262061337,-0.002958,0.002111,-0.000531,0.03,-0.29,9.76,34.13
262062347,-0.000828,0.001045,-0.000531,0.03,-0.29,9.83,34.14
262063356,0.000237,-0.001085,0.001599,0.02,-0.31,9.83,34.12
262064366,0.000237,-0.001085,0.002664,0.02,-0.31,9.86,34.15
262065376,-0.000828,-2e-05,0.00373,0.04,-0.29,9.83,34.13
262066387,-0.001893,-0.001085,0.001599,0.05,-0.28,9.79,34.14
262067396,0.000237,-0.002151,-0.000531,0.03,-0.28,9.83,34.18
262068407,0.001303,-0.003216,-0.001597,0.01,-0.31,9.84,34.18
262069426,0.001303,-0.002151,-0.002662,-0.02,-0.32,9.82,34.18
262070426,-0.000828,-0.002151,-0.000531,0.0,-0.3,9.85,34.18
262071438,-0.002958,-0.001085,0.001599,0.04,-0.31,9.86,34.15
262072447,-0.001893,-0.001085,0.002664,0.07,-0.3,9.84,34.14
262073456,-0.000828,-2e-05,0.002664,0.04,-0.27,9.82,34.12
262074467,0.001303,0.003176,0.000534,0.04,-0.28,9.81,34.12
262075476,0.001303,0.004241,-0.000531,0.06,-0.3,9.8,34.11
262076488,0.001303,0.003176,-0.000531,0.04,-0.3,9.8,34.12
262077496,0.003433,0.001045,-0.001597,0.03,-0.32,9.84,34.11
262078507,0.003433,-2e-05,-0.000531,0.05,-0.32,9.86,34.13
262079526,0.002368,-0.001085,0.001599,0.04,-0.32,9.86,34.12
262080526,0.002368,-0.002151,0.002664,0.0,-0.32,9.86,34.15
262081538,0.001303,-0.002151,0.001599,0.0,-0.3,9.83,34.15
262082546,0.000237,-0.001085,-0.000531,0.01,-0.29,9.86,34.16
262083557,-0.000828,0.001045,-0.001597,0.05,-0.31,9.87,34.18
262084566,-0.000828,-2e-05,-0.002662,0.06,-0.31,9.83,34.14
262085577,-0.000828,-0.001085,-0.003727,0.02,-0.3,9.79,34.12
262086586,-0.000828,-0.002151,-0.002662,0.03,-0.28,9.76,34.11
262087634,0.002368,-0.002151,-0.000531,0.04,-0.27,9.76,34.11
262088666,0.004499,-0.002151,0.000534,0.01,-0.28,9.81,34.14
262089617,0.002368,-0.001085,0.001599,0.0,-0.3,9.84,34.1
262090626,-0.000828,0.002111,0.001599,0.02,-0.3,9.83,34.1
262091638,-0.001893,0.004241,-0.000531,0.03,-0.27,9.83,34.12
262092646,0.000237,0.003176,-0.001597,0.02,-0.28,9.88,34.12
262093657,0.001303,0.001045,-0.000531,0.02,-0.29,9.86,34.13
262094666,-0.000828,-2e-05,-0.000531,0.01,-0.3,9.84,34.13
262095677,-0.001893,-2e-05,0.000534,0.01,-0.28,9.82,34.13
262096687,-0.001893,-2e-05,0.001599,0.03,-0.3,9.77,34.15
262097697,-0.000828,0.002111,0.002664,0.01,-0.33,9.78,34.15
262098716,0.001303,0.003176,0.002664,0.03,-0.34,9.82,34.14
262099717,0.001303,0.002111,0.000534,0.04,-0.34,9.87,34.12
262100726,-0.001893,-2e-05,-0.001597,0.02,-0.31,9.88,34.15
262101738,-0.002958,-0.001085,-0.001597,0.02,-0.28,9.86,34.14
262102746,-0.000828,-2e-05,-0.001597,0.02,-0.29,9.84,34.14
262103757,0.001303,0.002111,-0.002662,0.02,-0.32,9.86,34.12
262104766,0.003433,0.001045,-0.002662,0.05,-0.32,9.81,34.15
262105777,0.003433,0.003176,-0.001597,0.03,-0.29,9.78,34.17
262106786,0.000237,0.003176,-0.000531,0.0,-0.29,9.78,34.15
262107797,-0.001893,-0.001085,-0.000531,0.02,-0.28,9.77,34.15
262108817,-0.002958,-0.003216,0.001599,0.07,-0.3,9.8,34.14
262109816,-0.002958,-0.003216,0.000534,0.04,-0.32,9.85,34.11
262110842,-0.000828,-0.001085,-0.001597,0.03,-0.29,9.82,34.1
262111840,0.001303,-2e-05,-0.001597,0.03,-0.3,9.82,34.12
262112848,0.001303,0.001045,-0.000531,0.01,-0.32,9.86,34.13
262113859,0.001303,-0.001085,-0.000531,0.02,-0.3,9.87,34.16
262114868,0.000237,-0.001085,-0.000531,0.04,-0.3,9.85,34.16
262115879,-0.000828,-0.002151,-0.000531,0.04,-0.32,9.8,34.12
262116889,-0.000828,-2e-05,0.000534,0.04,-0.29,9.76,34.13
262117899,-0.000828,0.002111,0.001599,0.04,-0.28,9.8,34.16
262118922,0.000237,0.002111,0.000534,0.03,-0.26,9.82,34.15
262119932,0.000237,0.001045,-0.000531,0.03,-0.28,9.81,34.13
262120926,0.000237,-2e-05,-0.000531,0.02,-0.3,9.86,34.14
262121943,-0.000828,-0.001085,-0.001597,0.02,-0.29,9.85,34.17
262122950,-0.000828,-0.001085,-0.001597,0.04,-0.3,9.79,34.15
262123959,0.000237,0.002111,0.001599,0.03,-0.32,9.8,34.16
262124973,0.000237,0.003176,0.001599,0.04,-0.3,9.86,34.15
262125986,0.000237,0.002111,0.001599,0.05,-0.3,9.88,34.14
262126990,0.000237,0.001045,0.002664,0.06,-0.31,9.86,34.16
262128006,0.001303,-0.001085,0.00373,0.05,-0.3,9.84,34.17
262129026,0.002368,-0.001085,0.002664,0.05,-0.31,9.8,34.12
262130041,0.002368,-0.001085,-0.000531,0.06,-0.32,9.77,34.13
262131035,-0.000828,-0.001085,-0.001597,0.05,-0.32,9.79,34.13
262132053,-0.001893,-2e-05,0.000534,0.04,-0.32,9.8,34.15
262133060,0.001303,-0.001085,0.002664,0.04,-0.32,9.79,34.12
262134068,0.003433,-0.002151,0.000534,0.04,-0.3,9.81,34.12
262135090,0.001303,-0.003216,-0.001597,0.03,-0.28,9.81,34.12
262136095,-0.000828,-0.002151,-0.002662,0.03,-0.31,9.83,34.14
262137102,-0.001893,-0.002151,-0.003727,0.05,-0.34,9.84,34.12
262138113,-0.001893,-0.002151,-0.003727,0.06,-0.33,9.82,34.09
262139131,-0.001893,-0.001085,-0.001597,0.05,-0.31,9.8,34.09
262140142,0.000237,0.001045,0.000534,0.02,-0.3,9.85,34.14
262141136,0.001303,-0.001085,0.001599,0.01,-0.28,9.83,34.17
262142151,0.002368,-2e-05,0.002664,0.01,-0.3,9.78,34.12
262143155,0.000237,0.003176,0.002664,0.01,-0.31,9.76,34.12
262144159,-0.001893,0.003176,0.000534,0.03,-0.27,9.77,34.11
262145167,-0.000828,0.001045,-0.001597,0.04,-0.3,9.81,34.15
262146179,0.001303,0.002111,-0.003727,0.02,-0.31,9.81,34.12
262147189,-0.000828,0.004241,-0.004792,0.01,-0.29,9.81,34.15
262148200,-0.002958,0.001045,-0.003727,0.0,-0.31,9.84,34.15
262149220,-0.001893,-0.002151,-0.000531,0.0,-0.32,9.85,34.15
262150235,-0.000828,0.001045,0.001599,0.03,-0.31,9.86,34.14
262151229,-0.001893,0.003176,0.000534,0.03,-0.3,9.85,34.11
262152239,-0.000828,-0.001085,0.000534,0.0,-0.3,9.79,34.12
262153276,0.000231,-0.00215,0.001611,0.05,-0.31,9.83,34.15
262154260,-0.000834,-0.001085,0.003742,0.04,-0.31,9.89,34.15
262155269,-0.0019,-2e-05,0.002676,0.0,-0.34,9.85,34.15
262156278,0.000231,0.001046,0.001611,0.0,-0.32,9.82,34.21
262157290,0.002361,-2e-05,0.002676,0.02,-0.31,9.83,34.14
262158298,0.003427,-0.00215,0.003742,0.02,-0.29,9.85,34.12
262159320,0.002361,-0.003215,0.002676,0.02,-0.26,9.83,34.12
262160333,0.002361,-0.003215,0.001611,0.03,-0.29,9.82,34.11
262161328,0.001296,-0.003215,0.000546,0.03,-0.33,9.82,34.11
262162337,0.000231,-0.00215,-0.001585,0.0,-0.34,9.82,34.13
262163349,0.001296,-0.003215,0.000546,-0.01,-0.33,9.84,34.15
262164358,0.000231,-0.00215,0.002676,0.0,-0.31,9.81,34.14
262165369,-0.000834,-2e-05,0.002676,0.01,-0.32,9.82,34.15
262166378,0.000231,-0.00215,0.001611,0.03,-0.34,9.84,34.17
262167389,0.001296,-0.003215,0.000546,0.06,-0.33,9.83,34.15
262168398,0.000231,-2e-05,0.000546,0.04,-0.32,9.81,34.15
262169419,-0.000834,0.003176,-0.000519,0.03,-0.29,9.82,34.14
262170430,-0.000834,0.001046,-0.001585,0.05,-0.28,9.83,34.17
262171427,0.000231,-0.00215,-0.000519,0.05,-0.28,9.82,34.15
262172437,-0.000834,-0.003215,-0.001585,0.05,-0.29,9.84,34.12
262173447,-0.000834,-0.001085,-0.00265,0.01,-0.3,9.83,34.12
262174456,-0.000834,-0.00215,-0.003715,0.0,-0.29,9.82,34.08
262175467,0.000231,-0.003215,-0.003715,0.02,-0.31,9.84,34.09
262176476,0.001296,-0.001085,-0.00265,0.03,-0.31,9.81,34.09
262177488,0.003427,-2e-05,-0.000519,0.02,-0.31,9.79,34.13
262178496,0.003427,-0.001085,0.000546,0.02,-0.29,9.81,34.14
262179519,0.002361,-0.001085,0.001611,0.04,-0.28,9.81,34.12
262180533,0.000231,-2e-05,0.003742,0.01,-0.32,9.79,34.11
262181527,0.000231,0.003176,0.003742,0.04,-0.31,9.81,34.13
262182539,-0.0019,0.002111,0.003742,0.07,-0.31,9.85,34.08
262183558,-0.0019,-0.001085,0.002676,0.04,-0.31,9.83,34.13
262184558,-0.002965,-0.003215,-0.001585,0.01,-0.3,9.83,34.14
262185569,-0.005096,-0.001085,-0.001585,0.03,-0.31,9.82,34.15
262186578,-0.00403,0.003176,-0.000519,0.04,-0.32,9.8,34.17
262187589,-0.000834,0.002111,-0.000519,0.04,-0.29,9.84,34.17
262188598,0.001296,-2e-05,-0.001585,0.02,-0.29,9.86,34.14
262189619,0.000231,-0.001085,-0.000519,-0.01,-0.32,9.84,34.14
262190707,-0.000834,-0.00215,-0.000519,0.02,-0.33,9.81,34.15
262191628,0.000231,-0.003215,-0.000519,0.04,-0.32,9.81,34.14
262192640,-0.000834,-0.004281,-0.000519,0.06,-0.31,9.85,34.11
262193648,0.001296,-0.001085,0.000546,0.06,-0.32,9.85,34.12
262194659,0.004492,-2e-05,0.000546,0.04,-0.32,9.83,34.13
262195668,0.004492,-2e-05,-0.001585,0.04,-0.34,9.81,34.1
262196679,0.002361,-2e-05,-0.00265,0.05,-0.31,9.83,34.11
262197689,-0.000834,-0.001085,-0.000519,0.03,-0.28,9.87,34.14
262198709,-0.002965,-0.00215,-0.000519,-0.02,-0.32,9.86,34.15
262199709,-0.00403,-0.00215,-0.001585,-0.02,-0.34,9.86,34.17
262200731,-0.000834,-2e-05,-0.001585,0.01,-0.28,9.85,34.15
262201726,0.001296,0.002111,-0.000519,0.04,-0.28,9.81,34.13
262202737,0.000231,0.002111,0.000546,0.03,-0.3,9.8,34.1
262203746,-0.0019,0.001046,0.002676,0.0,-0.3,9.83,34.12
262204756,-0.000834,-0.001085,0.002676,0.02,-0.3,9.86,34.14
262205766,0.002361,-0.001085,0.000546,0.02,-0.32,9.86,34.15
262206776,0.003427,-2e-05,-0.001585,0.01,-0.31,9.89,34.12
262207787,0.003427,-2e-05,-0.001585,0.0,-0.3,9.85,34.15
262208807,0.002361,0.001046,-0.000519,0.01,-0.3,9.81,34.17
262209806,0.001296,0.001046,0.000546,0.04,-0.31,9.8,34.15
262210832,0.000231,-2e-05,-0.000519,0.04,-0.32,9.78,34.12
262211829,0.000231,-2e-05,-0.00265,0.0,-0.28,9.79,34.14
262212839,0.001296,-0.001085,-0.00265,-0.01,-0.28,9.83,34.13
262213849,0.004492,-0.001085,-0.001585,-0.01,-0.28,9.81,34.1
262214858,0.004492,-0.00215,-0.000519,-0.02,-0.27,9.81,34.12
262215869,0.000231,-0.001085,-0.000519,-0.02,-0.28,9.83,34.11
262216878,-0.002965,-0.001085,-0.000519,0.0,-0.3,9.82,34.13
262217890,-0.0019,-0.001085,0.000546,0.02,-0.34,9.82,34.15
262218910,0.000231,-0.001085,-0.000519,0.02,-0.29,9.82,34.13
262219921,0.000231,-0.001085,-0.001585,0.03,-0.25,9.8,34.11
262220916,-0.002965,-0.001085,-0.001585,0.03,-0.27,9.8,34.15
262221927,-0.0019,-0.003215,-0.000519,0.01,-0.27,9.79,34.13
262222938,-0.000834,-0.003215,0.000546,-0.01,-0.27,9.83,34.12
262223952,-0.0019,-0.00215,0.002676,0.0,-0.28,9.85,34.12
262224958,-0.0019,-0.001085,0.003742,0.0,-0.29,9.79,34.14
262225975,-0.000834,-0.001085,0.003742,0.0,-0.3,9.78,34.16
262226985,0.000231,-0.00215,0.003742,0.02,-0.33,9.8,34.17
262227995,0.001296,-0.001085,0.001611,0.01,-0.31,9.81,34.18
262229014,0.002361,-0.001085,-0.000519,0.03,-0.3,9.78,34.16
262230036,0.001296,0.001046,0.001611,0.06,-0.31,9.78,34.17
262231032,0.001296,0.003176,0.002676,0.07,-0.32,9.79,34.16
262232041,0.000231,0.002111,0.002676,0.06,-0.32,9.78,34.12
262233049,-0.0019,-0.001085,0.001611,0.02,-0.33,9.76,34.12
262234065,-0.002965,-0.00215,0.000546,0.01,-0.33,9.84,34.14
262235076,-0.002965,-0.001085,-0.00265,0.04,-0.32,9.86,34.17
262236082,-0.0019,-0.001085,-0.003715,0.01,-0.31,9.8,34.17
262237092,-0.0019,-0.00215,-0.001585,0.0,-0.29,9.83,34.18
262238105,-0.000834,-0.00215,-0.001585,0.02,-0.29,9.88,34.13
262239122,0.000231,-0.001085,-0.000519,0.04,-0.32,9.83,34.15
262240133,-0.000834,-2e-05,-0.000519,0.03,-0.34,9.8,34.13
262241127,-0.000834,-2e-05,-0.000519,0.05,-0.32,9.81,34.15
262242135,-0.000834,-2e-05,-0.00265,0.04,-0.32,9.81,34.14
262243147,-0.000834,-2e-05,-0.003715,0.01,-0.33,9.83,34.13
262244156,0.001296,-2e-05,-0.001585,0.0,-0.32,9.85,34.16
262245159,0.003427,-2e-05,0.000546,-0.01,-0.29,9.87,34.14
262246166,0.003427,0.001046,0.000546,0.0,-0.3,9.89,34.13
262247180,0.001296,0.002111,-0.000519,0.03,-0.32,9.85,34.11
262248189,-0.0019,0.004242,-0.000519,0.04,-0.3,9.84,34.1
262249210,-0.0019,0.003176,-0.001585,0.04,-0.28,9.85,34.09
262250226,-0.000834,-2e-05,-0.001585,0.04,-0.28,9.82,34.14
262251222,-0.0019,-0.00215,-0.000519,0.02,-0.29,9.81,34.16
262252228,-0.000834,-0.001085,-0.000519,0.03,-0.29,9.8,34.15
262253240,0.001296,0.003176,-0.001585,0.05,-0.31,9.77,34.15
262254248,0.001296,0.004242,-0.000519,0.03,-0.31,9.78,34.15
262255259,0.001296,0.002111,-0.000519,0.02,-0.31,9.82,34.13
262256268,0.002361,-0.001085,0.001611,-0.02,-0.33,9.86,34.12
262257279,0.002361,-0.001085,0.004807,0.0,-0.34,9.87,34.13
262258289,0.002361,-0.001085,0.004807,0.04,-0.29,9.83,34.15
262259309,0.001296,-0.001085,0.003742,0.04,-0.27,9.82,34.14
262260323,0.000231,-0.00215,0.001611,0.04,-0.28,9.83,34.12
262261318,0.000231,-0.004281,0.000546,0.02,-0.32,9.8,34.11
262262343,0.001296,-0.001085,0.001611,0.01,-0.32,9.81,34.09
262263338,0.002361,0.002111,0.001611,0.06,-0.29,9.85,34.12
262264348,0.001296,0.003176,0.001611,0.06,-0.3,9.82,34.11
262265359,-0.000834,0.001046,0.001611,0.03,-0.31,9.82,34.12
262266368,0.000231,-0.001085,0.002676,0.04,-0.31,9.88,34.11
262267379,0.002361,-0.00215,0.002676,0.04,-0.27,9.86,34.11
262268388,0.001296,-0.003215,0.001611,0.03,-0.26,9.84,34.12
262269408,-0.0019,-0.005346,0.002676,0.01,-0.28,9.85,34.15
262270409,-0.00403,-0.003215,0.001611,0.02,-0.28,9.78,34.17
262271418,-0.00403,-2e-05,0.000546,0.04,-0.3,9.79,34.16
262272429,-0.0019,0.002111,-0.000519,0.03,-0.32,9.84,34.16
262273439,0.001296,0.001046,-0.001585,0.02,-0.32,9.84,34.15
262274449,0.001296,0.001046,-0.001585,0.04,-0.32,9.84,34.14
262275458,0.000231,0.001046,-0.001585,0.04,-0.32,9.81,34.15
262276469,0.001296,-0.00215,-0.000519,0.02,-0.33,9.79,34.11
262277478,0.002361,-0.003215,-0.000519,0.01,-0.31,9.8,34.18
262278490,-0.000834,-0.001085,-0.001585,0.01,-0.3,9.79,34.17
262279508,-0.0019,-2e-05,-0.000519,0.04,-0.35,9.81,34.17
262280508,0.001296,-0.001085,0.001611,0.06,-0.33,9.83,34.15
262281519,0.003427,-0.003215,0.001611,0.04,-0.31,9.8,34.13
262282554,0.001271,-0.002071,-0.000546,0.0,-0.33,9.78,34.11
262283543,0.000206,6e-05,-0.002677,-0.02,-0.34,9.8,34.09
262284548,-0.001924,0.001125,-0.001611,0.0,-0.3,9.83,34.1
262285559,-0.001924,0.001125,0.000519,0.01,-0.32,9.83,34.14
262286568,-0.001924,6e-05,-0.000546,0.02,-0.34,9.82,34.09
262287579,-0.00299,0.001125,-0.002677,0.02,-0.3,9.83,34.1
262288588,-0.00299,0.00219,-0.002677,0.02,-0.28,9.84,34.13
262289607,0.000206,0.00219,-0.001611,0.03,-0.29,9.86,34.13
262290609,0.000206,0.00219,-0.001611,0.01,-0.3,9.88,34.15
262291618,0.000206,0.00219,-0.001611,0.01,-0.29,9.82,34.16
262292694,-0.000859,0.00219,-0.001611,0.0,-0.29,9.77,34.16
262293639,-0.000859,0.004321,-0.002677,0.0,-0.31,9.81,34.11
262294649,-0.000859,0.004321,-0.002677,0.03,-0.33,9.82,34.1
262295658,-0.00299,0.001125,-0.000546,0.04,-0.3,9.78,34.12
262296666,-0.004055,-0.001005,-0.000546,0.01,-0.28,9.78,34.13
262297679,-0.00512,-0.002071,0.000519,0.02,-0.3,9.8,34.12
262298699,-0.004055,-0.003136,0.001584,0.04,-0.3,9.83,34.12
262299698,-0.001924,-0.003136,0.00265,0.02,-0.29,9.82,34.13
262300708,-0.000859,-0.002071,0.00265,0.01,-0.27,9.82,34.15
262301719,-0.000859,-0.001005,-0.000546,0.0,-0.25,9.83,34.14
262302728,-0.000859,0.001125,-0.002677,0.02,-0.27,9.85,34.17
262303739,0.000206,0.003256,-0.001611,0.04,-0.27,9.89,34.15
262304749,-0.000859,0.004321,0.000519,0.03,-0.28,9.83,34.14
262305759,0.000206,0.004321,0.001584,0.02,-0.29,9.82,34.17
262306768,0.001271,0.00219,0.001584,0.03,-0.29,9.85,34.15
262307779,-0.000859,6e-05,0.000519,0.03,-0.29,9.85,34.15
262308799,-0.000859,6e-05,0.000519,-0.01,-0.3,9.85,34.13
262309799,-0.000859,6e-05,0.000519,-0.01,-0.33,9.83,34.11
262310809,-0.000859,0.00219,0.001584,0.03,-0.33,9.84,34.17
262311818,-0.000859,0.003256,0.001584,0.04,-0.29,9.84,34.18
262312826,-0.000859,0.001125,-0.000546,0.01,-0.3,9.81,34.12
262313839,0.000206,0.001125,-0.002677,-0.01,-0.34,9.8,34.14
262314848,0.001271,0.001125,-0.003742,0.02,-0.27,9.8,34.11
262315859,0.002337,0.001125,-0.001611,0.02,-0.25,9.81,34.15
262316868,0.001271,0.003256,0.000519,0.0,-0.29,9.82,34.17
262317879,-0.001924,0.00219,-0.000546,0.02,-0.3,9.83,34.15
262318899,-0.004055,6e-05,-0.001611,0.01,-0.32,9.86,34.12
262319899,-0.004055,6e-05,-0.000546,-0.03,-0.31,9.81,34.11
262320909,-0.00299,6e-05,0.00265,-0.01,-0.3,9.75,34.12
262321918,-0.00299,6e-05,0.003715,0.04,-0.3,9.78,34.14
262322929,-0.00299,-0.001005,0.001584,0.03,-0.3,9.82,34.15
262323940,-0.000859,6e-05,0.001584,0.02,-0.31,9.89,34.13
262324951,0.000206,0.001125,0.000519,0.03,-0.33,9.86,34.08
262325959,0.002337,0.00219,0.000519,0.03,-0.32,9.8,34.1
262326981,0.003402,0.003256,0.000519,0.01,-0.29,9.79,34.15
262327987,0.003402,0.001125,-0.000546,-0.01,-0.3,9.78,34.13
262329008,0.002337,-0.003136,0.000519,0.0,-0.28,9.82,34.15
262330008,-0.000859,-0.003136,0.001584,0.04,-0.26,9.87,34.12
262331019,-0.001924,-0.001005,0.000519,0.06,-0.27,9.86,34.11
262332032,0.000206,6e-05,-0.000546,0.05,-0.32,9.83,34.11
262333035,0.003402,6e-05,0.001584,0.02,-0.34,9.84,34.11
262334052,0.004467,6e-05,0.00265,0.03,-0.33,9.8,34.11
262335065,0.003402,-0.001005,0.000519,0.03,-0.3,9.79,34.12
262336070,0.000206,-0.002071,0.001584,0.02,-0.3,9.89,34.16
262337081,-0.001924,-0.001005,0.001584,0.02,-0.3,9.87,34.17
262338096,-0.004055,6e-05,0.00265,0.03,-0.29,9.82,34.17
262339113,-0.00299,-0.001005,0.000519,0.03,-0.31,9.82,34.14
262340113,-0.001924,-0.001005,-0.000546,0.03,-0.32,9.85,34.15
262341119,-0.001924,6e-05,-0.000546,0.0,-0.32,9.88,34.15
262342132,-0.000859,0.00219,-0.000546,0.0,-0.31,9.85,34.15
262343140,0.002337,0.003256,0.001584,0.03,-0.33,9.81,34.17
262344150,0.002337,0.003256,0.001584,0.01,-0.28,9.8,34.18
262345159,0.002337,0.001125,0.000519,-0.01,-0.25,9.78,34.13
262346160,0.001271,6e-05,-0.001611,0.01,-0.28,9.81,34.12
262347169,-0.000859,-0.001005,-0.000546,0.03,-0.31,9.87,34.14
262348181,-0.00299,-0.001005,0.001584,0.04,-0.33,9.82,34.14
262349200,-0.001924,6e-05,0.001584,0.04,-0.33,9.75,34.18
262350204,-0.000859,-0.001005,0.000519,0.01,-0.32,9.79,34.19
262351213,-0.000859,-0.002071,-0.000546,0.02,-0.3,9.81,34.16
262352220,-0.000859,-0.001005,-0.000546,0.02,-0.29,9.78,34.13
262353229,-0.001924,0.001125,0.001584,-0.01,-0.28,9.79,34.17
262354238,0.002337,0.001125,0.00265,0.04,-0.3,9.88,34.14
262355246,0.003402,0.001125,0.00265,0.06,-0.28,9.84,34.13
262356259,0.001271,0.00219,0.00265,0.04,-0.27,9.81,34.17
262357268,-0.000859,0.00219,0.001584,0.0,-0.26,9.81,34.15
262358279,-0.000859,0.003256,0.000519,0.0,-0.27,9.84,34.15
262359299,0.002337,0.00219,0.001584,0.03,-0.29,9.84,34.15
262360299,0.004467,0.00219,0.000519,0.01,-0.28,9.79,34.14
262361309,0.004467,0.00219,-0.000546,-0.02,-0.28,9.81,34.15
262362318,0.002337,0.00219,-0.001611,0.0,-0.3,9.86,34.11
262363329,-0.000859,0.003256,-0.001611,0.01,-0.3,9.83,34.13
262364338,-0.001924,0.00219,-0.000546,0.0,-0.29,9.8,34.17
262365350,-0.001924,0.001125,0.001584,0.01,-0.28,9.81,34.15
262366358,-0.000859,-0.001005,0.00265,0.04,-0.28,9.82,34.13
262367369,-0.001924,-0.002071,0.001584,0.03,-0.3,9.83,34.14
262368378,-0.00512,-0.001005,0.00265,0.02,-0.28,9.83,34.15
262369398,-0.006186,0.00219,0.00265,0.03,-0.29,9.83,34.13
262370400,-0.001924,0.004321,0.001584,0.05,-0.32,9.82,34.15
262371408,0.001271,0.004321,-0.000546,0.03,-0.31,9.83,34.13
262372419,0.003402,0.00219,0.000519,0.0,-0.29,9.81,34.14
262373428,0.002337,6e-05,0.001584,0.0,-0.29,9.79,34.12
262374439,0.001271,-0.002071,0.00265,0.01,-0.3,9.79,34.12
262375448,0.001271,-0.003136,0.00265,-0.02,-0.3,9.83,34.11
262376459,0.000206,-0.004201,0.00265,-0.02,-0.29,9.84,34.1
262377468,-0.001924,-0.003136,-0.000546,0.02,-0.28,9.82,34.11
262378479,-0.004055,0.001125,-0.000546,0.02,-0.28,9.85,34.13
262379499,-0.004055,0.003256,-0.000546,0.04,-0.3,9.8,34.15
262380499,-0.000859,0.00219,0.000519,0.03,-0.31,9.75,34.13
262381509,0.000206,6e-05,0.003715,-0.01,-0.33,9.8,34.15
262382518,-0.000859,0.001125,0.00478,0.0,-0.33,9.86,34.18
262383529,0.001271,0.001125,0.001584,0.01,-0.28,9.85,34.18
262384538,0.001271,-0.001005,-0.001611,0.01,-0.28,9.83,34.15
262385550,0.000206,-0.002071,-0.001611,-0.01,-0.31,9.82,34.17
262386558,-0.000859,0.001125,0.000519,-0.02,-0.3,9.81,34.14
262387569,-0.000859,0.003256,0.000519,0.03,-0.29,9.79,34.14
262388592,0.000206,0.00219,0.000519,0.01,-0.29,9.83,34.18
262389598,0.000206,0.001125,0.000519,0.0,-0.27,9.88,34.2
262390600,0.001271,6e-05,0.00265,0.04,-0.27,9.86,34.17
262391608,0.001271,6e-05,0.00265,0.02,-0.28,9.83,34.18
262392619,0.001271,0.001125,0.001584,0.01,-0.32,9.81,34.16
262393628,0.000206,0.001125,0.000519,0.04,-0.33,9.79,34.14
262394639,-0.000859,0.001125,0.000519,0.03,-0.33,9.8,34.12
262395662,0.001271,6e-05,-0.000546,-0.01,-0.31,9.82,34.12
262396658,0.002337,0.001125,-0.000546,-0.03,-0.29,9.85,34.15
262397669,0.000206,0.001125,-0.000546,-0.02,-0.34,9.85,34.13
262398688,-0.000859,0.001125,-0.000546,0.01,-0.36,9.78,34.15
262399688,0.000206,0.001125,-0.001611,0.01,-0.32,9.8,34.18
262400700,0.000206,6e-05,-0.000546,0.01,-0.31,9.81,34.12
262401708,0.000206,-0.002071,-0.000546,0.03,-0.3,9.77,34.11
262402719,0.000206,-0.002071,-0.002677,0.04,-0.28,9.78,34.16
262403728,0.001271,-0.002071,-0.002677,0.03,-0.29,9.83,34.14
262404739,0.001271,-0.001005,-0.001611,0.01,-0.29,9.84,34.15
262405748,0.001271,0.00219,0.001584,-0.01,-0.29,9.78,34.15
262406758,-0.000859,0.003256,0.003715,-0.01,-0.33,9.78,34.13
262407769,-0.001924,0.001125,0.003715,-0.02,-0.33,9.82,34.14
262408788,0.000206,-0.002071,0.000519,0.0,-0.33,9.81,34.14
262409788,0.003402,-0.001005,-0.000546,0.03,-0.32,9.82,34.15
262410800,0.002337,-0.001005,0.000519,0.03,-0.28,9.83,34.16
262411836,0.001305,-0.00108,0.001537,0.02,-0.31,9.82,34.18
262412822,0.000239,-0.00108,0.001537,0.03,-0.33,9.85,34.18
262413828,-0.001891,-1.4e-05,-0.000594,0.03,-0.3,9.85,34.15
262414839,-0.001891,0.001051,-0.002724,0.04,-0.3,9.86,34.18
262415848,0.000239,-1.4e-05,-0.002724,0.04,-0.31,9.87,34.16
262416859,0.001305,-0.002145,-0.002724,0.02,-0.31,9.85,34.14
262417868,0.00237,-0.00321,-0.000594,-0.01,-0.29,9.86,34.12
262418886,0.00237,-0.002145,0.001537,-0.03,-0.31,9.86,34.14
262419888,0.00237,-1.4e-05,0.001537,0.0,-0.35,9.88,34.17
262420901,0.001305,0.001051,0.001537,0.03,-0.35,9.86,34.17
262421908,0.000239,-1.4e-05,0.001537,0.04,-0.33,9.79,34.16
262422919,-0.000826,0.001051,0.000472,0.02,-0.3,9.73,34.16
262423928,-0.001891,0.002116,-0.000594,0.02,-0.28,9.75,34.14
262424943,-0.001891,0.002116,0.001537,0.03,-0.28,9.8,34.13
262425952,-0.000826,-0.00108,0.001537,0.04,-0.3,9.83,34.13
262426962,-0.001891,-0.00321,0.002602,0.01,-0.33,9.79,34.12
262427980,-0.000826,-0.004276,0.001537,-0.01,-0.33,9.76,34.16
262428995,-0.000826,-0.00321,-0.000594,0.02,-0.31,9.78,34.15
262429996,-0.000826,-0.00108,-0.000594,0.01,-0.29,9.8,34.1
262431009,-0.000826,-1.4e-05,0.001537,0.02,-0.28,9.81,34.09
262432019,0.000239,-1.4e-05,0.000472,0.02,-0.28,9.81,34.12
262433032,0.00237,-0.00108,-0.000594,0.0,-0.29,9.82,34.18
262434040,0.00237,-0.002145,-0.000594,0.02,-0.3,9.85,34.16
262435051,0.001305,-0.002145,0.001537,-0.01,-0.32,9.83,34.12
262436063,-0.000826,-0.00108,0.001537,-0.02,-0.31,9.84,34.12
262437064,-0.002956,-0.00108,0.001537,0.01,-0.31,9.84,34.12
262438082,-0.001891,-0.00108,0.001537,0.03,-0.31,9.82,34.17
262439098,-0.000826,-1.4e-05,0.001537,0.04,-0.33,9.79,34.16
262440105,-0.001891,-1.4e-05,0.001537,0.05,-0.32,9.81,34.14
262441110,-0.004022,-0.00108,0.001537,0.04,-0.3,9.83,34.16
262442120,-0.002956,-0.00108,0.000472,0.01,-0.3,9.78,34.15
262443128,0.001305,-0.00108,0.000472,0.02,-0.31,9.79,34.16
262444138,0.00237,-1.4e-05,0.001537,0.02,-0.28,9.84,34.13
262445147,0.00237,0.001051,0.001537,0.02,-0.28,9.84,34.09
262446161,0.000239,0.001051,0.002602,0.02,-0.32,9.81,34.13
262447159,-0.001891,-1.4e-05,0.000472,0.02,-0.3,9.78,34.12
262448167,-0.002956,0.001051,-0.002724,0.02,-0.28,9.8,34.09
262449191,-0.002956,0.001051,-0.001659,0.01,-0.27,9.83,34.14
262450192,-0.002956,-0.00321,-0.000594,0.01,-0.3,9.8,34.13
262451205,-0.001891,-0.004276,0.000472,0.04,-0.3,9.75,34.12
262452212,0.001305,-0.002145,0.001537,0.05,-0.29,9.77,34.12
262453222,0.00237,-0.00108,0.002602,0.04,-0.28,9.79,34.13
262454228,0.00237,0.001051,0.003668,0.04,-0.28,9.78,34.13
262455239,0.00237,-0.002145,-0.001659,0.04,-0.33,9.92,34.12
262456248,-0.000826,-0.00321,-0.002724,0.02,-0.29,9.85,34.17
262457259,-0.001891,-0.004276,-0.000594,0.03,-0.28,9.86,34.17
262458268,0.000239,-0.00321,0.000472,0.04,-0.29,9.87,34.17
262459287,0.001305,-0.002145,0.000472,0.01,-0.29,9.88,34.15
262460289,0.00237,-0.00108,0.000472,-0.01,-0.32,9.87,34.15
262461298,0.001305,-1.4e-05,-0.000594,0.03,-0.31,9.81,34.17
262462307,0.001305,-1.4e-05,-0.000594,0.04,-0.29,9.78,34.17
262463318,0.00237,-0.00108,0.000472,0.03,-0.29,9.8,34.12
262464329,0.00237,-0.00108,0.000472,0.0,-0.29,9.86,34.1
262465338,0.000239,-1.4e-05,0.000472,-0.02,-0.3,9.84,34.14
262466350,-0.000826,0.001051,0.000472,0.03,-0.3,9.78,34.15
262467358,-0.001891,0.002116,0.000472,0.05,-0.3,9.8,34.13
262468369,-0.001891,0.001051,0.000472,0.03,-0.3,9.83,34.12
262469388,-0.000826,-0.00108,-0.001659,0.01,-0.29,9.86,34.16
262470388,-0.000826,-0.002145,-0.002724,0.03,-0.28,9.85,34.15
262471400,-0.001891,0.001051,-0.002724,0.03,-0.28,9.82,34.12
262472408,-0.000826,0.003181,-0.001659,0.02,-0.29,9.83,34.14
262473419,-0.000826,0.002116,-0.000594,0.04,-0.3,9.79,34.15
262474428,-0.001891,0.001051,0.001537,0.04,-0.29,9.77,34.17
262475439,-0.001891,0.001051,0.001537,0.02,-0.28,9.79,34.18
262476448,-0.000826,-1.4e-05,-0.000594,-0.01,-0.29,9.81,34.19
262477459,-0.000826,-1.4e-05,-0.000594,-0.02,-0.28,9.85,34.17
262478468,-0.001891,-0.00108,-0.000594,-0.02,-0.29,9.84,34.15
262479487,-0.002956,-0.00108,0.001537,0.02,-0.32,9.83,34.13
262480489,-0.000826,-1.4e-05,0.001537,0.04,-0.34,9.83,34.1
262481499,0.000239,-1.4e-05,0.000472,0.04,-0.34,9.83,34.12
262482509,-0.000826,-0.00108,-0.001659,0.02,-0.31,9.83,34.1
262483518,-0.002956,-0.002145,-0.003789,0.03,-0.3,9.82,34.12
262484529,-0.004022,-0.002145,-0.000594,0.06,-0.3,9.81,34.1
262485538,-0.002956,0.001051,0.002602,0.03,-0.3,9.8,34.14
262486550,-0.002956,0.002116,0.002602,0.05,-0.31,9.79,34.14
262487558,-0.004022,0.001051,0.001537,0.04,-0.3,9.78,34.13
262488569,-0.001891,0.001051,0.000472,0.0,-0.29,9.82,34.12
262489588,-0.001891,0.001051,0.001537,0.01,-0.28,9.84,34.14
262490587,-0.002956,-1.4e-05,0.002602,0.04,-0.27,9.85,34.14
262491599,-0.004022,-1.4e-05,0.001537,0.06,-0.27,9.85,34.16
262492609,-0.004022,-0.00108,0.001537,0.04,-0.3,9.85,34.14
262493618,-0.002956,0.001051,0.002602,0.03,-0.33,9.88,34.12
262494629,-0.000826,0.002116,0.003668,0.05,-0.34,9.86,34.11
262495638,0.001305,0.001051,0.003668,0.05,-0.33,9.82,34.17
262496649,0.00237,-1.4e-05,0.002602,0.02,-0.29,9.8,34.15
262497723,0.00237,0.001051,0.001537,0.0,-0.28,9.77,34.17
262498678,0.001305,0.002116,0.000472,0.01,-0.3,9.79,34.17
262499676,0.001305,0.002116,-0.001659,0.02,-0.3,9.86,34.12
262500686,0.001305,-0.00108,-0.000594,0.02,-0.3,9.85,34.16
262501697,0.000239,-0.002145,0.000472,0.02,-0.32,9.79,34.15
262502706,0.000239,-0.002145,0.000472,0.03,-0.33,9.82,34.19
262503719,-0.000826,-0.004276,0.000472,0.02,-0.32,9.87,34.19
262504728,-0.001891,-0.005341,0.000472,-0.02,-0.3,9.87,34.2
262505739,-0.002956,-0.00321,0.000472,-0.04,-0.31,9.89,34.18
262506749,-0.001891,-0.00108,-0.000594,-0.03,-0.33,9.86,34.16
262507759,-0.000826,0.001051,-0.001659,0.0,-0.32,9.79,34.17
262508779,0.000239,0.001051,-0.000594,0.03,-0.32,9.76,34.15
262509778,-0.001891,0.001051,0.000472,0.02,-0.33,9.78,34.12
262510789,-0.001891,-1.4e-05,0.001537,0.03,-0.3,9.85,34.11
262511799,-0.001891,-1.4e-05,0.001537,0.06,-0.32,9.84,34.12
262512809,-0.002956,-1.4e-05,0.001537,0.03,-0.33,9.79,34.09
262513818,-0.001891,0.001051,0.000472,0.0,-0.31,9.79,34.13
262514829,-0.002956,0.002116,-0.000594,0.0,-0.32,9.79,34.15
262515838,-0.001891,0.003181,-0.000594,-0.01,-0.31,9.8,34.15
262516849,-0.001891,0.005312,0.000472,0.03,-0.28,9.82,34.12
262517858,-0.001891,0.004247,0.000472,0.04,-0.27,9.81,34.15
262518877,-0.001891,0.002116,0.001537,0.02,-0.26,9.84,34.13
262519878,-0.002956,0.001051,0.001537,0.02,-0.25,9.83,34.15
262520889,-0.001891,0.002116,0.000472,0.02,-0.29,9.78,34.11
262521899,0.000239,0.003181,-0.000594,0.01,-0.32,9.83,34.12
262522909,0.003435,-1.4e-05,0.000472,0.01,-0.3,9.78,34.13
262523918,0.00237,-0.00321,0.000472,0.03,-0.29,9.74,34.12
262524929,0.000239,-0.00321,0.000472,0.01,-0.31,9.82,34.12
262525940,0.000239,0.001051,0.001537,0.0,-0.29,9.79,34.1
262526989,0.001305,0.001051,0.002602,0.03,-0.29,9.76,34.09
262527973,0.00237,-0.00108,0.002602,0.03,-0.3,9.8,34.11
262528998,0.001305,-0.00321,0.001537,0.03,-0.28,9.82,34.13
262529990,-0.000826,-0.00321,-0.000594,0.02,-0.29,9.83,34.14
262530999,-0.001891,-0.002145,0.000472,0.01,-0.3,9.82,34.15
262532008,0.000239,-0.002145,0.002602,0.01,-0.28,9.8,34.17
262533026,0.00237,0.001051,0.002602,-0.01,-0.3,9.79,34.15
262534032,0.00237,0.003181,0.000472,-0.02,-0.33,9.81,34.13
262535045,0.00237,0.003181,-0.001659,0.0,-0.31,9.8,34.13
262536049,0.00237,0.001051,-0.000594,0.02,-0.27,9.77,34.12
262537068,0.00237,-0.002145,-0.000594,-0.01,-0.29,9.81,34.13
262538064,0.000239,-0.00321,-0.000594,-0.02,-0.3,9.87,34.1
262539099,-0.000826,-0.00108,0.001537,0.0,-0.29,9.85,34.11
262540092,-0.004022,0.001051,0.002602,0.02,-0.28,9.81,34.14
262541136,-0.003955,2.1e-05,0.001475,0.01,-0.28,9.84,34.14
262542114,-0.001825,-0.002109,0.001475,0.01,-0.29,9.8,34.1
262543121,0.001371,-0.002109,0.00041,0.02,-0.28,9.8,34.12
262544129,0.003502,-0.001044,0.00041,0.0,-0.3,9.84,34.14
262545140,0.001371,-0.002109,-0.001721,0.01,-0.33,9.82,34.15
262546148,-0.001825,-0.00424,-0.003851,0.02,-0.32,9.86,34.14
262547162,-0.00289,-0.002109,-0.003851,0.02,-0.3,9.85,34.16
262548161,-0.00076,-0.001044,-0.002786,0.02,-0.29,9.77,34.17
262549179,0.001371,2.1e-05,-0.001721,0.03,-0.31,9.79,34.14
262550180,0.000306,-0.001044,-0.001721,0.05,-0.31,9.84,34.11
262551194,-0.00076,-0.001044,0.00041,0.03,-0.31,9.8,34.12
262552207,-0.00076,0.001087,0.001475,0.0,-0.29,9.78,34.12
262553211,-0.001825,0.002152,0.00041,0.02,-0.28,9.81,34.14
262554219,-0.00076,0.001087,-0.001721,0.03,-0.29,9.81,34.13
262555230,0.001371,0.001087,-0.002786,0.03,-0.3,9.79,34.12
262556239,0.001371,0.001087,0.00041,0.03,-0.29,9.84,34.15
262557250,0.002436,0.001087,0.001475,0.05,-0.29,9.81,34.13
262558259,0.001371,0.002152,0.00041,0.04,-0.35,9.81,34.15
262559279,-0.001825,0.002152,-0.001721,0.01,-0.34,9.81,34.16
262560280,-0.00076,-0.001044,-0.000655,0.0,-0.28,9.8,34.15
262561289,0.000306,2.1e-05,0.00041,-0.01,-0.28,9.79,34.18
262562298,0.000306,0.001087,-0.000655,0.02,-0.29,9.79,34.17
262563307,0.000306,2.1e-05,-0.001721,0.04,-0.32,9.86,34.12
