time_us,gyro_x_rad_s,gyro_y_rad_s,gyro_z_rad_s,acc_x_m_s2,acc_y_m_s2,acc_z_m_s2,temperature_c
18191344,-0.001048,-0.000464,-0.003084,0.02,-0.25,9.81,30.71
18192142,-0.002113,-0.00153,-0.002019,0.03,-0.28,9.84,30.73
18193055,-0.001048,-0.000464,0.001177,0.03,-0.32,9.89,30.71
18194069,0.001083,0.001666,0.002242,0.01,-0.32,9.83,30.69
18195079,0.001083,0.000601,0.002242,0.01,-0.32,9.82,30.67
18196095,-0.001048,-0.000464,0.001177,0.01,-0.32,9.9,30.66
18197105,-0.001048,-0.00153,-0.000954,0.02,-0.31,9.87,30.67
18198117,-0.001048,-0.00153,0.000112,0.01,-0.32,9.84,30.67
18199118,1.8e-05,-0.00153,0.001177,0.0,-0.34,9.85,30.66
18200129,0.002148,-0.000464,0.000112,0.05,-0.32,9.86,30.67
18201139,0.002148,-0.000464,0.001177,0.1,-0.33,9.84,30.66
18202146,1.8e-05,-0.000464,0.000112,0.1,-0.37,9.83,30.64
18203161,1.8e-05,0.000601,0.000112,0.08,-0.35,9.84,30.63
18204163,-0.001048,0.000601,-0.000954,0.07,-0.3,9.87,30.67
18205171,-0.003178,-0.000464,-0.003084,0.03,-0.32,9.85,30.68
18206177,-0.003178,-0.002595,-0.004149,0.03,-0.33,9.76,30.7
18207189,-0.002113,-0.002595,-0.004149,0.05,-0.32,9.72,30.73
18208199,-0.001048,-0.000464,-0.004149,0.05,-0.35,9.8,30.75
18209209,-0.001048,0.001666,-0.000954,0.04,-0.35,9.89,30.7
18210220,-0.001048,0.000601,0.001177,0.04,-0.31,9.86,30.66
18211227,0.001083,-0.00153,0.001177,0.03,-0.32,9.81,30.7
18212240,0.003214,-0.00153,0.001177,0.03,-0.34,9.8,30.7
18213254,0.003214,-0.00153,0.000112,0.03,-0.34,9.82,30.68
18214303,0.002148,-0.002595,0.000112,0.02,-0.33,9.84,30.67
18215270,0.001083,-0.00366,-0.000954,0.0,-0.33,9.85,30.71
18216276,-0.001048,-0.00153,-0.000954,-0.01,-0.32,9.82,30.7
18217285,-0.002113,0.000601,0.001177,-0.01,-0.3,9.81,30.65
18218295,-0.002113,0.001666,0.002242,0.0,-0.27,9.84,30.71
18219305,-0.002113,-0.000464,0.001177,0.02,-0.29,9.82,30.71
18220317,-0.001048,-0.002595,0.001177,0.01,-0.32,9.8,30.7
18221326,1.8e-05,-0.00153,0.000112,-0.02,-0.28,9.8,30.71
18222344,0.001083,-0.000464,0.000112,0.02,-0.29,9.79,30.68
18223345,0.002148,-0.000464,-0.000954,0.05,-0.3,9.84,30.68
18224355,1.8e-05,-0.00153,-0.000954,0.03,-0.3,9.88,30.7
18225370,-0.001048,-0.00153,0.000112,-0.01,-0.33,9.85,30.69
18226376,1.8e-05,0.000601,-0.002019,-0.01,-0.34,9.84,30.69
18227385,0.002148,0.000601,-0.002019,0.0,-0.33,9.81,30.7
18228395,0.002148,0.001666,0.000112,-0.02,-0.3,9.79,30.7
18229405,1.8e-05,0.001666,0.001177,-0.01,-0.3,9.82,30.67
18230416,-0.002113,0.002731,0.002242,0.01,-0.31,9.83,30.69
18231425,-0.002113,0.001666,0.002242,0.05,-0.33,9.85,30.7
18232444,-0.003178,0.000601,0.001177,0.05,-0.32,9.85,30.7
18233445,-0.002113,-0.000464,0.000112,0.03,-0.32,9.81,30.67
18234455,-0.001048,-0.00153,-0.000954,0.04,-0.34,9.79,30.7
18235470,0.002148,-0.002595,-0.000954,0.05,-0.35,9.79,30.69
18236476,0.001083,-0.00366,-0.000954,0.03,-0.35,9.81,30.7
18237485,0.001083,-0.00366,0.000112,0.03,-0.33,9.81,30.71
18238495,0.004279,-0.00153,0.001177,0.05,-0.3,9.83,30.68
18239505,0.005344,0.000601,0.001177,0.02,-0.3,9.8,30.67
18240511,0.003214,0.002731,0.001177,0.0,-0.33,9.79,30.66
18241526,-0.001048,0.002731,0.001177,0.02,-0.34,9.8,30.67
18242544,-0.003178,0.002731,0.000112,0.02,-0.32,9.81,30.66
18243545,-0.003178,0.000601,0.000112,0.01,-0.32,9.85,30.65
18244555,-0.002113,-0.00153,0.000112,0.03,-0.33,9.85,30.66
18245570,1.8e-05,-0.00153,-0.000954,0.03,-0.34,9.8,30.66
18246576,1.8e-05,-0.002595,-0.000954,0.01,-0.33,9.78,30.69
18247585,-0.001048,-0.002595,-0.000954,0.02,-0.33,9.78,30.67
18248595,-0.001048,-0.002595,-0.000954,0.03,-0.31,9.78,30.7
18249605,1.8e-05,-0.00153,-0.002019,0.02,-0.29,9.8,30.7
18250616,1.8e-05,-0.000464,-0.000954,0.01,-0.31,9.81,30.71
18251625,1.8e-05,-0.000464,-0.000954,0.03,-0.31,9.81,30.66
18252644,0.001083,0.000601,-0.002019,0.06,-0.32,9.78,30.69
18253645,0.001083,0.001666,-0.002019,0.04,-0.31,9.78,30.72
18254655,0.001083,0.001666,0.001177,-0.01,-0.32,9.84,30.69
18255670,0.002148,0.001666,0.003308,-0.02,-0.33,9.84,30.68
18256676,0.002148,0.002731,0.002242,-0.02,-0.31,9.82,30.67
18257685,0.001083,0.002731,0.000112,0.0,-0.32,9.82,30.68
18258695,1.8e-05,0.000601,-0.000954,0.04,-0.33,9.82,30.69
18259705,-0.001048,-0.002595,-0.000954,0.04,-0.3,9.84,30.68
18260717,-0.001048,-0.00366,-0.000954,0.03,-0.3,9.82,30.7
18261726,-0.001048,-0.00153,-0.000954,0.0,-0.3,9.78,30.68
18262744,1.8e-05,-0.00153,-0.002019,-0.01,-0.3,9.77,30.73
18263745,-0.001048,-0.00153,-0.003084,0.01,-0.32,9.81,30.66
18264755,-0.002113,-0.00366,-0.000954,0.03,-0.33,9.83,30.65
18265770,-0.002113,-0.004726,0.002242,0.02,-0.36,9.82,30.64
18266776,-0.001048,-0.002595,0.002242,0.06,-0.35,9.81,30.68
18267785,-0.001048,-0.002595,0.000112,0.04,-0.31,9.82,30.69
18268825,-0.002069,-0.001502,-0.002013,0.03,-0.3,9.83,30.66
18269799,-0.002069,0.001694,-0.000948,0.01,-0.31,9.85,30.66
18270810,6.2e-05,0.002759,0.000117,0.02,-0.31,9.82,30.67
18271825,0.002192,0.001694,0.001183,0.06,-0.31,9.84,30.7
18272839,0.001127,0.000629,0.000117,0.04,-0.3,9.84,30.71
18273845,6.2e-05,-0.000437,0.000117,0.03,-0.32,9.84,30.73
18274855,0.001127,-0.000437,0.000117,0.04,-0.34,9.83,30.73
18275870,0.001127,-0.000437,0.000117,0.04,-0.33,9.84,30.71
18276876,-0.001004,-0.000437,-0.000948,0.06,-0.3,9.86,30.71
18277885,-0.001004,-0.000437,-0.002013,0.06,-0.32,9.79,30.7
18278895,-0.001004,0.000629,-0.003079,0.04,-0.3,9.76,30.72
18279905,-0.001004,0.002759,-0.002013,0.06,-0.29,9.82,30.7
18280917,0.001127,0.001694,0.000117,0.05,-0.32,9.85,30.64
18281926,0.003258,0.000629,0.000117,0.03,-0.34,9.82,30.64
18282949,0.004323,-0.001502,0.000117,0.01,-0.33,9.79,30.67
18283946,0.002192,-0.003632,0.000117,0.02,-0.31,9.81,30.66
18284958,6.2e-05,-0.004698,0.000117,0.04,-0.3,9.83,30.67
18285979,-0.001004,-0.004698,-0.000948,0.05,-0.31,9.84,30.68
18286983,6.2e-05,-0.002567,0.000117,0.04,-0.29,9.88,30.67
18287992,0.001127,0.000629,0.001183,0.02,-0.34,9.86,30.67
18289007,6.2e-05,0.003825,0.000117,-0.01,-0.37,9.87,30.63
18290011,-0.001004,0.002759,-0.002013,0.04,-0.32,9.89,30.64
18291024,6.2e-05,0.000629,-0.002013,0.06,-0.31,9.87,30.68
18292047,0.001127,0.000629,-0.003079,0.04,-0.32,9.82,30.71
18293065,0.001127,-0.001502,-0.003079,0.04,-0.32,9.81,30.66
18294058,0.001127,-0.002567,0.001183,0.03,-0.34,9.82,30.65
18295071,6.2e-05,-0.001502,0.002248,0.03,-0.33,9.8,30.66
18296081,0.001127,-0.000437,0.000117,0.02,-0.3,9.82,30.68
18297085,0.001127,-0.001502,-0.002013,0.03,-0.31,9.83,30.67
18298100,0.002192,-0.002567,-0.004144,0.04,-0.31,9.85,30.69
18299108,0.005388,-0.002567,-0.003079,0.02,-0.3,9.84,30.68
18300116,0.005388,0.000629,0.000117,0.05,-0.32,9.84,30.65
18301125,0.004323,0.003825,0.001183,0.06,-0.31,9.84,30.64
18302140,0.003258,0.00489,0.002248,0.03,-0.32,9.81,30.66
18303156,0.001127,0.003825,0.000117,0.04,-0.33,9.79,30.69
18304158,-0.001004,0.002759,-0.000948,0.03,-0.32,9.82,30.69
18305165,-0.002069,0.002759,-0.000948,0.02,-0.32,9.85,30.64
18306168,-0.003134,0.000629,-0.000948,0.04,-0.32,9.85,30.64
18307170,-0.002069,-0.000437,-0.000948,0.01,-0.36,9.84,30.69
18308189,6.2e-05,-0.000437,-0.000948,0.0,-0.35,9.84,30.69
18309199,0.001127,0.000629,0.000117,0.02,-0.32,9.79,30.69
18310209,0.003258,0.001694,0.000117,0.03,-0.29,9.79,30.69
18311220,0.005388,0.001694,-0.000948,0.02,-0.3,9.84,30.7
18312227,0.003258,0.001694,-0.002013,0.01,-0.34,9.84,30.69
18313249,-0.001004,-0.000437,0.000117,0.01,-0.33,9.83,30.67
18314245,-0.001004,-0.002567,0.002248,0.02,-0.29,9.85,30.63
18315255,0.002192,-0.000437,0.003313,0.03,-0.31,9.84,30.64
18316270,0.002192,0.002759,0.002248,0.02,-0.33,9.82,30.66
18317276,6.2e-05,0.002759,0.000117,0.01,-0.31,9.82,30.64
18318285,6.2e-05,0.002759,-0.000948,0.03,-0.31,9.79,30.64
18319295,0.002192,0.000629,0.000117,0.04,-0.35,9.83,30.65
18320305,0.001127,0.000629,0.001183,0.06,-0.36,9.84,30.67
18321317,6.2e-05,0.000629,0.001183,0.04,-0.33,9.81,30.64
18322336,0.001127,-0.000437,0.002248,0.04,-0.32,9.82,30.66
18323396,0.002192,0.000629,0.001183,0.05,-0.34,9.85,30.67
18324345,0.002192,0.001694,0.001183,0.05,-0.32,9.88,30.69
18325355,0.001127,0.003825,-0.000948,0.04,-0.32,9.86,30.69
18326370,0.001127,0.00489,-0.000948,0.02,-0.31,9.85,30.68
18327376,0.001127,0.003825,0.001183,0.01,-0.3,9.83,30.69
18328379,6.2e-05,0.000629,0.001183,0.0,-0.3,9.8,30.7
18329395,-0.001004,-0.000437,0.001183,0.03,-0.33,9.83,30.67
18330399,-0.001004,0.000629,0.000117,0.04,-0.35,9.84,30.66
18331410,6.2e-05,-0.000437,0.001183,0.02,-0.33,9.78,30.66
18332434,-0.001004,-0.000437,0.001183,0.04,-0.3,9.81,30.69
18333429,-0.002069,-0.000437,0.001183,0.03,-0.32,9.84,30.67
18334439,-0.004199,0.000629,0.001183,0.03,-0.32,9.82,30.68
18335449,-0.005265,0.000629,-0.000948,0.05,-0.31,9.83,30.67
18336470,6.2e-05,-0.000437,-0.002013,0.04,-0.32,9.84,30.72
18337476,0.003258,0.000629,-0.004144,0.03,-0.3,9.84,30.72
18338485,0.002192,0.001694,-0.002013,0.04,-0.28,9.86,30.68
18339495,6.2e-05,-0.000437,0.000117,0.04,-0.31,9.85,30.64
18340505,0.001127,-0.002567,0.000117,0.06,-0.33,9.85,30.67
18341517,0.003258,-0.001502,0.001183,0.05,-0.32,9.82,30.66
18342536,0.004323,0.000629,0.001183,0.02,-0.32,9.79,30.67
18343535,0.002192,0.001694,0.001183,0.04,-0.34,9.84,30.67
18344545,6.2e-05,0.001694,0.002248,0.05,-0.35,9.87,30.68
18345555,-0.001004,0.001694,0.003313,0.04,-0.33,9.86,30.71
18346570,0.001127,0.001694,0.002248,0.06,-0.31,9.82,30.71
18347576,0.001127,0.001694,0.000117,0.07,-0.31,9.78,30.69
18348585,0.001127,0.000629,-0.003079,0.04,-0.32,9.79,30.71
18349600,6.2e-05,-0.000437,-0.003079,0.01,-0.34,9.81,30.69
18350605,0.001127,-0.000437,-0.002013,0.03,-0.34,9.83,30.66
18351616,0.002192,-0.000437,-0.000948,0.02,-0.29,9.84,30.69
18352634,0.001127,0.000629,0.000117,0.02,-0.29,9.83,30.71
18353629,6.2e-05,0.001694,0.001183,0.05,-0.32,9.76,30.72
18354645,0.002192,0.000629,0.001183,0.04,-0.35,9.78,30.68
18355655,0.004323,-0.000437,-0.002013,0.02,-0.34,9.87,30.66
18356670,0.003258,-0.000437,-0.005209,0.05,-0.33,9.85,30.66
18357676,6.2e-05,0.000629,-0.004144,0.04,-0.32,9.8,30.67
18358685,-0.002069,0.001694,-0.002013,0.0,-0.31,9.81,30.67
18359700,-0.003134,0.002759,0.001183,0.01,-0.29,9.82,30.65
18360705,-0.003134,0.003825,0.002248,0.02,-0.29,9.79,30.65
18361717,-0.004199,0.00489,0.002248,0.03,-0.31,9.85,30.7
18362736,-0.005265,0.002759,0.001183,0.04,-0.34,9.89,30.67
18363735,-0.004199,0.000629,-0.000948,0.02,-0.31,9.85,30.65
18364745,-0.002069,-0.000437,0.000117,0.01,-0.31,9.83,30.69
18365755,0.001127,-0.001502,0.002248,0.03,-0.33,9.82,30.7
18366764,0.003258,-0.000437,0.002248,0.04,-0.32,9.8,30.72
18367770,6.2e-05,-0.001502,0.002248,0.02,-0.34,9.82,30.71
18368779,-0.002069,-0.001502,0.001183,0.03,-0.34,9.83,30.69
18369800,-0.001004,-0.001502,-0.000948,0.05,-0.34,9.8,30.68
18370805,6.2e-05,-0.001502,-0.002013,0.05,-0.32,9.78,30.67
18371816,6.2e-05,-0.001502,-0.002013,0.09,-0.29,9.77,30.65
18372834,-0.001004,-0.000437,-0.000948,0.08,-0.32,9.78,30.7
18373835,-0.002069,0.001694,0.000117,0.04,-0.31,9.81,30.68
18374845,-0.002069,0.001694,0.000117,0.03,-0.3,9.84,30.67
18375855,-0.001004,0.002759,0.000117,0.03,-0.32,9.86,30.68
18376870,6.2e-05,0.001694,0.001183,0.03,-0.34,9.87,30.69
18377876,-0.001004,-0.000437,0.000117,0.04,-0.33,9.89,30.69
18378890,-0.003134,-0.000437,0.001183,0.05,-0.31,9.82,30.7
18379895,-0.001004,0.001694,0.001183,0.03,-0.29,9.77,30.69
18380905,0.001127,0.001694,0.000117,-0.02,-0.31,9.81,30.71
18381917,6.2e-05,0.001694,-0.000948,-0.01,-0.34,9.76,30.74
18382937,-0.001004,0.002759,-0.003079,0.01,-0.33,9.75,30.7
18383935,-0.001004,0.001694,-0.002013,0.01,-0.34,9.78,30.69
18384949,-0.001004,0.001694,0.001183,0.03,-0.32,9.81,30.69
18385956,6.2e-05,0.001694,0.003313,0.04,-0.28,9.82,30.67
18386979,0.001127,0.000629,0.000117,0.04,-0.31,9.82,30.68
18387985,0.002192,-0.001502,-0.003079,0.03,-0.35,9.85,30.65
18388999,-0.001004,-0.001502,-0.003079,0.04,-0.35,9.85,30.64
18390005,-0.002069,-0.002567,-0.002013,0.01,-0.31,9.87,30.65
18391018,-0.003134,-0.000437,0.001183,0.0,-0.3,9.88,30.68
18392029,-0.003134,0.001694,0.002248,0.04,-0.31,9.8,30.66
18393046,-0.003134,0.000629,0.001183,0.04,-0.33,9.8,30.66
18394049,-0.001004,0.000629,0.002248,0.03,-0.34,9.83,30.67
18395055,6.2e-05,0.000629,0.003313,0.05,-0.32,9.76,30.7
18396069,0.001127,0.000629,0.002248,0.02,-0.29,9.79,30.67
18397070,0.001127,0.001694,0.000117,0.0,-0.3,9.84,30.64
18398121,0.001096,0.004819,0.000124,0.0,-0.32,9.82,30.7
18399106,0.002161,0.00695,0.000124,-0.02,-0.31,9.82,30.67
18400117,0.003226,0.003754,0.000124,0.01,-0.32,9.85,30.67
18401118,0.001096,0.001623,0.000124,0.06,-0.33,9.82,30.65
18402129,3e-05,-0.000507,0.000124,0.03,-0.35,9.8,30.64
18403148,3e-05,-0.001573,-0.000941,0.04,-0.32,9.8,30.67
18404146,-0.001035,-0.001573,-0.000941,0.07,-0.29,9.78,30.7
18405149,0.001095,-0.001573,0.000124,0.03,-0.32,9.78,30.7
18406158,0.004291,-0.002638,0.001189,0.0,-0.32,9.8,30.68
18407168,0.002161,-0.003703,0.000124,0.02,-0.32,9.83,30.7
18408177,3e-05,-0.002638,-0.003072,0.02,-0.31,9.85,30.68
18409194,3e-05,-0.000507,-0.004137,0.01,-0.31,9.79,30.72
18410199,3e-05,0.001623,-0.002006,0.03,-0.31,9.79,30.71
18411209,0.001096,0.002689,0.002255,0.02,-0.33,9.86,30.69
18412220,3e-05,0.000558,0.002255,0.03,-0.37,9.86,30.67
18413237,-0.001035,-0.000507,0.000124,0.02,-0.36,9.84,30.63
18414240,0.001095,-0.000507,-0.000941,0.01,-0.34,9.86,30.61
18415245,0.003226,-0.000507,-0.000941,0.0,-0.33,9.83,30.68
18416255,0.004291,-0.001573,-0.000941,0.02,-0.33,9.77,30.68
18417270,0.005357,-0.002638,-0.000941,0.03,-0.36,9.82,30.71
18418276,0.005357,-0.000507,0.000124,0.01,-0.34,9.85,30.7
18419301,0.004291,0.001623,0.000124,0.01,-0.31,9.81,30.68
18420295,0.001096,0.001623,0.000124,0.01,-0.33,9.78,30.7
18421305,-0.001035,0.001623,0.001189,0.0,-0.35,9.8,30.67
18422326,-0.001035,-0.000507,0.001189,0.03,-0.35,9.85,30.65
18423326,3e-05,-0.000507,0.000124,0.01,-0.33,9.88,30.64
18424335,3e-05,0.001623,0.001189,0.0,-0.33,9.84,30.64
18425361,3e-05,0.000558,0.001189,0.01,-0.3,9.81,30.68
18426355,0.001095,-0.000507,0.000124,0.02,-0.3,9.83,30.66
18427370,0.002161,-0.000507,-0.002006,0.01,-0.3,9.81,30.66
18428376,0.003226,-0.000507,-0.000941,0.0,-0.29,9.79,30.71
18429390,0.003226,-0.000507,-0.000941,0.02,-0.31,9.77,30.71
18430395,3e-05,-0.000507,-0.000941,0.06,-0.34,9.8,30.73
18431405,3e-05,-0.001573,0.001189,0.07,-0.35,9.84,30.73
18432426,3e-05,-0.000507,0.00332,0.02,-0.31,9.81,30.72
18433425,3e-05,-0.000507,0.002255,0.0,-0.3,9.83,30.66
18434435,-0.001035,0.000558,0.00332,0.0,-0.3,9.83,30.68
18435445,-0.0021,0.000558,0.002255,0.01,-0.3,9.82,30.66
18436455,-0.0021,-0.000507,0.000124,0.0,-0.31,9.84,30.67
18437470,-0.001035,-0.000507,0.000124,0.04,-0.34,9.87,30.66
18438476,3e-05,-0.001573,0.001189,0.05,-0.35,9.86,30.67
18439490,0.002161,-0.000507,0.001189,0.0,-0.33,9.87,30.66
18440495,0.003226,0.001623,-0.000941,-0.01,-0.31,9.85,30.67
18441505,0.001096,0.003754,-0.002006,0.0,-0.3,9.8,30.67
18442526,-0.0021,0.004819,-0.000941,0.02,-0.29,9.83,30.7
18443526,-0.003166,0.002689,0.002255,0.03,-0.29,9.84,30.69
18444535,-0.001035,0.000558,0.001189,0.02,-0.29,9.83,30.69
18445545,3e-05,-0.001573,-0.002006,0.02,-0.3,9.82,30.69
18446555,0.002161,-0.000507,-0.002006,0.04,-0.3,9.82,30.69
18447570,0.002161,-0.000507,-0.000941,0.02,-0.3,9.87,30.7
18448576,3e-05,0.000558,0.000124,0.01,-0.31,9.85,30.71
18449590,-0.001035,0.001623,0.001189,0.06,-0.3,9.82,30.69
18450595,3e-05,0.000558,0.001189,0.06,-0.29,9.85,30.69
18451605,0.003226,0.000558,0.001189,0.04,-0.27,9.83,30.64
18452626,0.003226,0.000558,0.002255,0.04,-0.26,9.78,30.64
18453625,0.002161,0.002689,0.002255,0.02,-0.29,9.83,30.65
18454635,0.001096,0.001623,0.000124,0.02,-0.34,9.84,30.69
18455645,0.001095,-0.000507,-0.002006,0.02,-0.34,9.81,30.69
18456655,3e-05,-0.000507,0.000124,0.02,-0.31,9.83,30.71
18457670,0.001096,0.000558,0.002255,0.05,-0.32,9.82,30.72
18458676,0.001096,0.000558,0.002255,0.04,-0.32,9.8,30.71
18459690,-0.001035,-0.001573,-0.000941,0.0,-0.31,9.82,30.68
18460695,-0.0021,-0.000507,-0.003072,-0.02,-0.3,9.83,30.68
18461705,-0.001035,-0.000507,-0.000941,0.0,-0.3,9.84,30.63
18462726,3e-05,-0.001573,0.000124,0.03,-0.29,9.84,30.66
18463726,-0.001035,-0.000507,0.002255,0.02,-0.31,9.79,30.66
18464735,-0.001035,-0.000507,0.002255,0.04,-0.36,9.82,30.66
18465745,0.001095,-0.000507,0.001189,0.05,-0.34,9.86,30.66
18466755,0.002161,-0.001573,0.000124,-0.01,-0.34,9.86,30.63
18467770,0.001095,-0.001573,0.001189,-0.01,-0.34,9.87,30.67
18468776,3e-05,-0.000507,0.001189,0.02,-0.32,9.85,30.65
18469790,3e-05,0.000558,0.001189,0.02,-0.31,9.84,30.68
18470795,3e-05,0.001623,0.001189,0.01,-0.29,9.83,30.68
18471805,-0.001035,0.001623,0.000124,0.03,-0.32,9.79,30.65
18472826,-0.0021,0.001623,0.000124,0.03,-0.34,9.78,30.63
18473825,-0.0021,0.001623,0.001189,-0.02,-0.33,9.83,30.63
18474835,-0.001035,0.001623,0.001189,0.0,-0.35,9.8,30.69
18475845,-0.001035,0.000558,-0.000941,0.02,-0.33,9.78,30.7
18476855,-0.001035,-0.000507,-0.002006,0.02,-0.33,9.82,30.66
18477870,-0.001035,-0.000507,-0.000941,0.04,-0.31,9.82,30.66
18478881,-0.001035,-0.002638,-0.000941,0.07,-0.28,9.81,30.67
18479879,3e-05,-0.002638,-0.002006,0.06,-0.31,9.79,30.68
18480895,0.001095,-0.002638,-0.000941,0.04,-0.34,9.78,30.68
18481905,0.002161,-0.002638,0.001189,0.01,-0.34,9.76,30.69
18482926,0.002161,0.000558,0.000124,0.03,-0.32,9.8,30.67
18483920,-0.001035,0.002689,0.000124,0.03,-0.28,9.8,30.66
18484937,3e-05,0.002689,0.000124,0.03,-0.29,9.78,30.68
18485946,0.001096,0.000558,-0.000941,0.04,-0.29,9.81,30.67
18486958,-0.001035,-0.000507,0.000124,0.05,-0.25,9.81,30.67
18488017,-0.0021,-0.000507,0.001189,0.05,-0.28,9.81,30.68
18489061,-0.001035,-0.003703,0.002255,0.04,-0.29,9.82,30.7
18490023,-0.001035,-0.003703,0.00332,0.01,-0.3,9.79,30.67
18491006,-0.001035,-0.001573,0.00332,0.0,-0.31,9.75,30.67
18492008,0.002161,0.000558,0.00332,0.01,-0.32,9.78,30.66
18493030,0.005357,0.002689,0.00332,0.02,-0.3,9.82,30.63
18494032,0.006422,0.005884,0.002255,0.02,-0.31,9.89,30.68
18495040,0.006422,0.00695,0.001189,0.01,-0.32,9.83,30.68
18496059,0.006422,0.004819,0.001189,0.01,-0.3,9.76,30.67
18497067,0.005357,0.001623,0.001189,0.05,-0.3,9.8,30.66
18498071,0.002161,0.001623,0.001189,0.05,-0.32,9.83,30.66
18499101,3e-05,0.001623,0.000124,0.04,-0.34,9.81,30.65
18500093,3e-05,0.000558,0.000124,0.03,-0.34,9.76,30.64
18501112,3e-05,-0.001573,-0.000941,0.02,-0.34,9.76,30.68
18502118,-0.001035,-0.000507,-0.000941,0.02,-0.33,9.77,30.7
18503132,3e-05,-0.001573,-0.000941,0.0,-0.33,9.75,30.69
18504139,0.002161,-0.001573,0.000124,0.01,-0.35,9.79,30.68
18505146,3e-05,-0.000507,0.002255,0.02,-0.36,9.83,30.65
18506151,3e-05,0.000558,0.002255,0.06,-0.31,9.83,30.65
18507163,0.001095,-0.000507,0.002255,0.09,-0.29,9.82,30.65
18508171,0.002161,-0.001573,0.001189,0.03,-0.37,9.8,30.68
18509176,0.001095,-0.002638,-0.000941,-0.01,-0.4,9.83,30.72
18510189,3e-05,-0.002638,-0.002006,0.01,-0.32,9.86,30.7
18511199,0.001096,0.000558,-0.002006,0.03,-0.26,9.82,30.71
18512209,0.003226,0.002689,-0.000941,0.03,-0.28,9.79,30.66
18513224,0.004291,-0.000507,-0.000941,0.05,-0.31,9.8,30.65
18514227,0.004291,-0.002638,-0.000941,0.06,-0.33,9.83,30.65
18515240,0.004291,-0.001573,0.000124,0.05,-0.31,9.83,30.67
18516245,0.002161,0.001623,0.000124,0.05,-0.31,9.83,30.71
18517255,3e-05,0.002689,0.001189,0.03,-0.32,9.86,30.69
18518270,3e-05,0.000558,0.00332,-0.01,-0.29,9.84,30.7
18519276,3e-05,-0.001573,0.00332,0.02,-0.3,9.83,30.69
18520285,-0.0021,-0.003703,0.001189,0.05,-0.35,9.84,30.7
18521313,-0.001035,-0.002638,0.001189,0.05,-0.31,9.83,30.69
18522314,0.001096,0.000558,0.001189,0.02,-0.3,9.85,30.68
18523320,0.002161,0.000558,0.001189,0.0,-0.31,9.82,30.65
18524320,0.001095,-0.000507,0.002255,0.01,-0.31,9.8,30.64
18525335,-0.001035,0.001623,0.00332,0.0,-0.31,9.85,30.64
18526345,-0.001035,0.003754,0.002255,0.01,-0.29,9.81,30.67
18527381,-6.6e-05,0.002673,7.1e-05,0.01,-0.28,9.79,30.68
18528430,-6.6e-05,0.000542,7.1e-05,0.01,-0.29,9.83,30.68
18529376,-6.6e-05,-0.002654,7.1e-05,0.02,-0.33,9.84,30.66
18530385,0.001,-0.003719,-0.000994,0.03,-0.33,9.82,30.72
18531395,-6.6e-05,-0.002654,-0.000994,0.04,-0.31,9.84,30.72
18532414,-0.002196,-0.000523,-0.000994,0.02,-0.31,9.84,30.7
18533416,-0.004327,0.002673,-0.000994,0.03,-0.31,9.83,30.68
18534425,-0.003261,0.002673,7.1e-05,0.04,-0.29,9.81,30.69
18535435,-0.001131,0.002673,7.1e-05,0.07,-0.29,9.83,30.71
18536445,-0.001131,0.002673,7.1e-05,0.09,-0.31,9.84,30.69
18537455,0.001,0.002673,-0.000994,0.06,-0.29,9.79,30.66
18538470,0.002065,0.001607,-0.000994,0.05,-0.33,9.79,30.69
18539476,0.001,0.000542,-0.000994,0.04,-0.33,9.8,30.66
18540485,0.001,-0.000523,-0.000994,0.04,-0.3,9.78,30.67
18541495,0.002065,0.000542,0.001136,0.03,-0.32,9.79,30.71
18542514,0.00313,0.000542,0.002202,-0.01,-0.31,9.82,30.67
18543520,0.002065,-0.001589,0.002202,0.0,-0.32,9.77,30.72
18544526,0.001,-0.001589,0.001136,0.01,-0.31,9.78,30.68
18545535,0.002065,-0.000523,7.1e-05,0.03,-0.33,9.84,30.67
18546539,0.002065,-0.000523,7.1e-05,0.01,-0.32,9.83,30.71
18547555,0.001,0.000542,0.001136,0.02,-0.3,9.85,30.73
18548567,-6.6e-05,0.000542,0.002202,0.02,-0.31,9.85,30.72
18549576,-0.001131,-0.000523,7.1e-05,0.0,-0.31,9.8,30.71
18550585,-0.003261,-0.000523,7.1e-05,0.04,-0.3,9.84,30.68
18551595,-0.003261,0.001607,0.002202,0.03,-0.29,9.9,30.69
18552614,-6.6e-05,0.001607,0.002202,0.01,-0.31,9.87,30.69
18553616,0.00313,-0.000523,0.001136,0.03,-0.33,9.85,30.68
18554625,0.001,0.000542,-0.000994,0.06,-0.31,9.81,30.68
18555635,-0.002196,0.001607,-0.000994,0.06,-0.31,9.79,30.69
18556645,-0.001131,0.000542,7.1e-05,0.03,-0.33,9.8,30.67
18557655,-6.6e-05,-0.001589,0.001136,0.02,-0.31,9.8,30.65
18558670,-6.6e-05,-0.002654,-0.000994,0.01,-0.27,9.83,30.65
18559676,-0.001131,-0.003719,-0.000994,0.04,-0.28,9.86,30.64
18560685,-0.002196,-0.004784,7.1e-05,0.06,-0.31,9.84,30.65
18561695,-0.004327,-0.004784,0.003267,0.04,-0.31,9.84,30.7
18562714,-0.004327,-0.003719,0.004332,0.06,-0.3,9.87,30.7
18563720,-0.002196,-0.002654,0.003267,0.04,-0.33,9.82,30.72
18564726,-6.6e-05,-0.001589,7.1e-05,0.02,-0.35,9.78,30.71
18565735,0.001,-0.000523,-0.002059,0.03,-0.31,9.85,30.7
18566745,-0.001131,-0.000523,-0.000994,0.03,-0.28,9.8,30.69
18567755,-0.001131,-0.000523,0.001136,0.03,-0.27,9.82,30.7
18568767,-0.001131,0.001607,0.001136,0.05,-0.27,9.88,30.68
18569776,-0.001131,0.003738,7.1e-05,0.07,-0.3,9.87,30.67
18570785,-6.6e-05,0.001607,-0.002059,0.04,-0.34,9.83,30.69
18571795,0.002065,0.000542,-0.000994,-0.01,-0.31,9.8,30.65
18572814,0.001,0.000542,7.1e-05,0.0,-0.3,9.8,30.65
18573816,-0.003261,0.000542,7.1e-05,0.02,-0.32,9.83,30.67
18574825,-0.003261,0.000542,-0.000994,0.03,-0.34,9.82,30.68
18575829,-0.001131,0.000542,0.001136,0.04,-0.35,9.81,30.71
18576845,-6.6e-05,0.000542,0.002202,0.03,-0.32,9.84,30.7
18577855,-6.6e-05,0.000542,0.002202,0.02,-0.32,9.83,30.67
18578864,-0.002196,0.000542,7.1e-05,0.03,-0.33,9.86,30.69
18579876,-0.003261,-0.000523,-0.000994,0.03,-0.31,9.89,30.7
18580885,-0.002196,-0.002654,-0.000994,0.03,-0.33,9.84,30.67
18581895,-0.001131,-0.003719,-0.000994,0.05,-0.36,9.81,30.68
18582914,-6.6e-05,-0.003719,-0.000994,0.03,-0.33,9.8,30.72
18583920,-0.001131,-0.004784,-0.000994,0.01,-0.3,9.81,30.72
18584926,-0.002196,-0.003719,-0.000994,0.03,-0.29,9.85,30.67
18585930,-0.001131,-0.003719,-0.000994,0.05,-0.27,9.84,30.68
18586946,-0.001131,-0.002654,7.1e-05,0.04,-0.28,9.81,30.7
18587958,-0.001131,-0.001589,7.1e-05,0.03,-0.32,9.83,30.71
18588979,-0.001131,-0.001589,-0.000994,0.05,-0.33,9.83,30.67
18589983,-0.001131,0.000542,-0.000994,0.06,-0.34,9.81,30.64
18590991,-0.002196,0.001607,7.1e-05,0.05,-0.33,9.78,30.65
18592007,-0.003261,0.001607,0.002202,0.06,-0.31,9.79,30.64
18593032,-0.002196,0.001607,0.001136,0.05,-0.31,9.81,30.68
18594028,-0.001131,0.002673,-0.002059,0.02,-0.3,9.83,30.68
18595040,-6.6e-05,0.000542,-0.002059,0.01,-0.32,9.82,30.67
18596047,-6.6e-05,-0.001589,-0.000994,0.01,-0.33,9.82,30.69
18597053,0.001,-0.000523,0.001136,0.02,-0.34,9.86,30.67
18598071,0.002065,-0.000523,0.002202,0.02,-0.34,9.85,30.66
18599081,0.001,-0.000523,0.002202,0.01,-0.31,9.8,30.65
18600092,-0.001131,-0.000523,0.003267,0.02,-0.33,9.78,30.72
18601106,-6.6e-05,0.000542,0.003267,-0.01,-0.31,9.81,30.72
18602109,0.001,0.000542,0.002202,0.0,-0.29,9.84,30.68
18603130,-6.6e-05,0.000542,7.1e-05,0.03,-0.3,9.85,30.67
18604129,-0.002196,-0.000523,-0.003125,0.01,-0.31,9.86,30.68
18605140,-0.002196,-0.000523,-0.003125,0.0,-0.33,9.83,30.69
18606148,-0.002196,-0.000523,-0.000994,-0.02,-0.32,9.82,30.64
18607158,-0.001131,-0.002654,0.002202,-0.02,-0.29,9.81,30.64
18608165,-6.6e-05,-0.002654,0.002202,0.01,-0.28,9.84,30.62
18609170,-0.002196,-0.002654,7.1e-05,0.04,-0.29,9.86,30.65
18610176,-0.006457,-0.001589,-0.000994,0.06,-0.29,9.85,30.65
18611189,-0.006457,-0.000523,-0.000994,0.04,-0.3,9.88,30.65
18612199,-0.003261,-0.001589,-0.000994,0.02,-0.32,9.84,30.65
18613219,-6.6e-05,-0.001589,7.1e-05,-0.01,-0.33,9.76,30.64
18614220,-6.6e-05,-0.001589,-0.000994,-0.01,-0.32,9.75,30.7
18615227,-0.001131,0.001607,-0.000994,0.0,-0.3,9.76,30.66
18616240,-0.003261,0.001607,7.1e-05,0.01,-0.29,9.82,30.69
18617245,-0.002196,-0.000523,0.003267,0.01,-0.3,9.84,30.67
18618255,-0.002196,-0.000523,0.002202,0.01,-0.32,9.79,30.7
18619270,-0.002196,-0.000523,0.001136,0.03,-0.33,9.77,30.66
18620276,-6.6e-05,0.001607,0.001136,0.04,-0.33,9.75,30.63
18621285,0.001,0.001607,0.001136,0.01,-0.34,9.78,30.68
18622295,-6.6e-05,-0.001589,0.001136,0.01,-0.36,9.84,30.72
18623314,0.001,-0.003719,0.001136,0.03,-0.32,9.84,30.73
18624320,0.00313,-0.002654,7.1e-05,0.04,-0.28,9.85,30.7
18625326,0.002065,-0.000523,7.1e-05,0.07,-0.31,9.83,30.67
18626335,-6.6e-05,-0.000523,0.001136,0.07,-0.32,9.82,30.67
18627345,-0.001131,0.000542,0.001136,0.02,-0.34,9.82,30.67
18628355,0.002065,0.001607,-0.000994,0.03,-0.35,9.83,30.65
18629367,0.00313,0.001607,-0.002059,0.03,-0.32,9.89,30.67
18630435,0.002065,0.000542,-0.002059,0.0,-0.28,9.87,30.66
18631379,0.002065,0.000542,-0.000994,0.0,-0.26,9.8,30.66
18632404,0.002065,0.000542,-0.000994,0.03,-0.29,9.8,30.69
18633405,0.002065,0.001607,-0.002059,0.05,-0.32,9.83,30.71
18634416,0.001,0.002673,-0.002059,0.04,-0.32,9.82,30.66
18635425,-6.6e-05,0.001607,-0.000994,0.02,-0.29,9.77,30.7
18636435,-6.6e-05,0.000542,7.1e-05,0.02,-0.29,9.78,30.64
18637445,0.002065,-0.002654,7.1e-05,0.05,-0.33,9.84,30.65
18638455,0.002065,-0.003719,0.001136,0.02,-0.32,9.88,30.67
18639470,0.001,-0.000523,-0.000994,-0.01,-0.3,9.85,30.68
18640476,-0.001131,-0.000523,-0.002059,0.03,-0.31,9.8,30.67
18641485,-0.002196,0.000542,-0.000994,0.07,-0.31,9.82,30.69
18642504,-0.001131,0.000542,0.001136,0.04,-0.32,9.83,30.68
18643505,0.002065,0.000542,0.002202,0.04,-0.32,9.84,30.68
18644520,0.002065,0.000542,0.003267,0.04,-0.31,9.84,30.66
18645526,0.001,0.001607,0.002202,0.01,-0.31,9.85,30.68
18646535,0.00313,0.002673,0.003267,0.0,-0.3,9.84,30.66
18647545,0.004196,0.001607,0.003267,0.01,-0.3,9.8,30.7
18648555,0.002065,-0.002654,0.001136,0.04,-0.3,9.79,30.69
18649567,0.001,-0.002654,0.001136,0.05,-0.32,9.79,30.68
18650576,-6.6e-05,-0.000523,0.001136,0.04,-0.32,9.8,30.66
18651585,-0.001131,0.000542,7.1e-05,0.06,-0.31,9.83,30.61
18652604,0.002065,-0.001589,7.1e-05,0.05,-0.31,9.87,30.64
18653605,0.004196,-0.001589,-0.000994,0.03,-0.34,9.83,30.67
18654616,0.004196,-0.001589,-0.002059,0.04,-0.35,9.78,30.67
18655625,0.001,0.000542,-0.000994,0.0,-0.34,9.81,30.68
18656660,-0.00216,0.000586,0.00111,-0.01,-0.34,9.82,30.68
18657645,-0.001095,0.001651,0.002175,0.05,-0.34,9.83,30.7
18658655,-3e-05,0.000586,0.002175,0.04,-0.32,9.88,30.73
18659670,0.002101,0.001651,0.00111,0.01,-0.29,9.89,30.67
18660676,0.002101,0.001651,4.5e-05,-0.02,-0.28,9.84,30.67
18661685,0.001036,-0.000479,-0.001021,0.0,-0.27,9.82,30.7
18662704,-0.001095,-0.003675,-0.001021,0.01,-0.3,9.82,30.71
18663705,-0.001095,-0.00474,-0.001021,0.01,-0.33,9.8,30.68
18664720,-3e-05,-0.00261,-0.001021,0.03,-0.33,9.82,30.68
18665726,0.001036,-0.000479,0.00111,0.03,-0.29,9.81,30.72
18666735,0.001036,-0.000479,0.002175,0.01,-0.32,9.86,30.7
18667745,-3e-05,-0.000479,0.00111,0.03,-0.31,9.88,30.73
18668755,-0.00216,-0.000479,0.00111,0.04,-0.3,9.86,30.68
18669767,-0.003225,-0.000479,0.00111,0.04,-0.31,9.83,30.66
18670776,-0.00216,0.000586,0.002175,0.06,-0.31,9.81,30.68
18671785,-3e-05,-0.000479,0.00324,0.06,-0.33,9.78,30.69
18672804,0.002101,0.000586,0.00111,0.04,-0.34,9.82,30.68
18673805,0.001036,0.000586,-0.001021,0.02,-0.32,9.87,30.71
18674816,-3e-05,-0.000479,-0.002086,-0.02,-0.32,9.87,30.65
18675819,-3e-05,-0.00261,-0.001021,0.01,-0.32,9.82,30.66
18676835,-3e-05,-0.001545,-0.001021,0.04,-0.31,9.82,30.67
18677845,-3e-05,-0.000479,-0.001021,0.04,-0.3,9.89,30.69
18678849,-3e-05,-0.000479,-0.001021,0.03,-0.32,9.87,30.69
18679864,0.001036,-0.001545,-0.001021,0.02,-0.31,9.84,30.7
18680870,0.001036,-0.00261,4.5e-05,0.02,-0.29,9.87,30.66
18681885,-0.001095,-0.00261,4.5e-05,0.03,-0.34,9.86,30.65
18682898,-0.001095,-0.00261,-0.001021,0.02,-0.38,9.85,30.66
18683905,0.001036,-0.000479,-0.001021,0.01,-0.37,9.86,30.69
18684920,0.002101,0.000586,4.5e-05,0.02,-0.34,9.83,30.71
18685926,0.001036,-0.001545,0.00111,0.02,-0.34,9.84,30.67
18686935,-0.001095,-0.00261,0.00111,0.01,-0.33,9.84,30.66
18687949,-3e-05,-0.001545,0.00111,0.04,-0.32,9.83,30.7
18688956,0.003166,0.000586,4.5e-05,0.04,-0.3,9.82,30.7
18689975,0.003166,0.001651,-0.001021,-0.01,-0.29,9.79,30.73
18690984,0.004231,0.001651,-0.001021,0.0,-0.33,9.82,30.69
18691992,0.003166,0.002716,4.5e-05,0.04,-0.33,9.85,30.69
18693009,0.003166,0.002716,-0.001021,0.04,-0.32,9.81,30.69
18694015,0.003166,0.001651,-0.002086,0.05,-0.36,9.84,30.68
18695029,0.001036,0.001651,4.5e-05,0.06,-0.34,9.85,30.69
18696038,-0.003225,0.002716,0.00111,0.04,-0.33,9.81,30.7
18697051,-0.001095,0.000586,0.00111,0.03,-0.33,9.86,30.69
18698055,0.002101,-0.000479,4.5e-05,0.04,-0.31,9.9,30.71
18699069,0.005297,-0.000479,4.5e-05,0.01,-0.33,9.84,30.7
18700079,0.005297,0.000586,0.00111,0.02,-0.36,9.85,30.69
18701095,0.002101,0.002716,4.5e-05,0.04,-0.33,9.85,30.69
18702105,-0.00216,0.005912,4.5e-05,0.04,-0.32,9.82,30.69
18703120,-0.004291,0.005912,4.5e-05,0.06,-0.35,9.85,30.68
18704118,-0.00216,0.005912,-0.001021,0.06,-0.32,9.87,30.66
18705130,-3e-05,0.003782,4.5e-05,0.03,-0.3,9.85,30.66
18706139,-3e-05,0.002716,0.00111,0.02,-0.34,9.83,30.68
18707146,-3e-05,0.001651,0.002175,-0.01,-0.36,9.83,30.67
18708152,0.001036,0.001651,0.004306,-0.03,-0.35,9.83,30.67
18709163,0.001036,0.001651,0.004306,0.0,-0.34,9.83,30.67
18710170,0.002101,0.001651,0.00111,0.03,-0.34,9.86,30.67
18711185,-3e-05,0.000586,-0.001021,0.04,-0.32,9.88,30.73
18712189,-0.001095,-0.001545,4.5e-05,0.03,-0.32,9.86,30.72
18713208,-3e-05,-0.001545,4.5e-05,0.03,-0.29,9.87,30.71
18714209,0.003166,-0.001545,4.5e-05,0.05,-0.29,9.88,30.68
18715214,0.003166,-0.00261,4.5e-05,0.06,-0.33,9.86,30.69
18716227,-3e-05,-0.001545,4.5e-05,0.04,-0.33,9.83,30.7
18717240,-0.001095,-0.000479,-0.001021,0.04,-0.29,9.85,30.65
18718245,-3e-05,0.002716,-0.004217,0.04,-0.28,9.86,30.65
18719255,0.001036,0.004847,-0.004217,0.02,-0.29,9.82,30.68
18720270,-0.001095,0.004847,-0.003151,0.03,-0.32,9.82,30.7
18721276,-0.001095,0.002716,4.5e-05,0.03,-0.33,9.85,30.7
18722285,0.001036,0.000586,4.5e-05,0.04,-0.28,9.86,30.73
18723304,0.001036,-0.001545,4.5e-05,0.05,-0.27,9.84,30.7
18724305,-0.001095,-0.001545,4.5e-05,0.02,-0.3,9.85,30.7
18725320,-0.00216,-0.001545,-0.001021,0.03,-0.31,9.87,30.7
18726337,-0.001095,-0.001545,-0.002086,0.01,-0.3,9.84,30.7
18727335,0.002101,0.001651,-0.001021,-0.01,-0.29,9.81,30.69
18728345,0.002101,0.001651,-0.001021,0.01,-0.29,9.84,30.69
18729355,-3e-05,0.001651,-0.001021,0.05,-0.3,9.86,30.69
18730367,0.001036,-0.000479,-0.002086,0.05,-0.3,9.89,30.67
18731376,0.002101,-0.001545,-0.003151,0.04,-0.28,9.85,30.68
18732394,0.002101,-0.001545,-0.004217,0.05,-0.29,9.83,30.68
18733395,0.001036,-0.000479,-0.002086,0.04,-0.31,9.83,30.68
18734405,0.001036,-0.000479,-0.001021,0.04,-0.3,9.81,30.66
18735416,0.001036,-0.000479,-0.002086,0.04,-0.29,9.82,30.67
18736425,0.001036,-0.000479,-0.001021,0.02,-0.29,9.79,30.7
18737435,-0.003225,0.000586,-0.001021,0.02,-0.31,9.78,30.69
18738445,-0.005356,-0.000479,4.5e-05,0.02,-0.33,9.81,30.64
18739455,-0.005356,-0.001545,4.5e-05,0.02,-0.33,9.85,30.65
18740470,-0.003225,-0.001545,4.5e-05,0.03,-0.31,9.87,30.63
18741470,-3e-05,-0.001545,-0.001021,0.04,-0.29,9.85,30.67
18742494,0.001036,-0.00261,4.5e-05,0.01,-0.29,9.83,30.7
18743495,0.001036,-0.00261,0.002175,0.0,-0.31,9.82,30.67
18744505,0.002101,0.001651,0.002175,0.02,-0.32,9.83,30.67
18745520,0.001036,0.002716,0.00324,0.02,-0.3,9.82,30.67
18746526,0.001036,0.000586,0.00324,0.02,-0.3,9.81,30.66
18747535,0.001036,-0.00261,4.5e-05,0.04,-0.33,9.85,30.66
18748545,0.001036,-0.00261,4.5e-05,0.06,-0.34,9.85,30.69
18749549,-3e-05,-0.001545,0.002175,0.02,-0.29,9.82,30.66
18750567,-0.00216,-0.001545,0.002175,-0.01,-0.27,9.82,30.65
18751576,-0.001095,-0.001545,0.00111,0.01,-0.3,9.84,30.7
18752594,0.002101,-0.00261,0.00111,0.04,-0.32,9.83,30.73
18753595,0.003166,-0.000479,-0.001021,0.06,-0.34,9.81,30.71
18754605,0.001036,0.000586,-0.002086,0.04,-0.34,9.82,30.66
18755616,-0.001095,0.000586,-0.001021,0.01,-0.31,9.83,30.68
18756619,-3e-05,-0.001545,4.5e-05,0.02,-0.3,9.84,30.7
18757635,-3e-05,-0.00261,4.5e-05,0.04,-0.29,9.83,30.7
18758645,-0.001095,-0.000479,4.5e-05,0.06,-0.29,9.83,30.68
18759655,-3e-05,0.001651,-0.001021,0.05,-0.31,9.83,30.7
18760670,-3e-05,0.002716,-0.001021,0.03,-0.31,9.83,30.73
18761676,0.001036,0.001651,0.002175,0.04,-0.31,9.82,30.7
18762694,0.001036,-0.000479,0.004306,0.05,-0.33,9.8,30.69
18763695,-0.001095,-0.001545,0.00324,0.05,-0.34,9.83,30.67
18764705,-0.00216,-0.000479,0.00111,0.03,-0.32,9.84,30.67
18765720,-0.001095,-0.003675,0.00324,0.02,-0.34,9.8,30.68
18766726,-0.001095,-0.00261,0.004306,0.0,-0.32,9.82,30.69
18767735,-3e-05,0.001651,0.004306,0.0,-0.32,9.8,30.7
18768745,0.001036,0.002716,0.002175,0.04,-0.32,9.81,30.7
18769755,-3e-05,0.003782,4.5e-05,0.03,-0.3,9.83,30.71
18770761,-0.001095,0.001651,-0.002086,0.01,-0.31,9.84,30.69
18771776,-0.001095,-0.001545,-0.001021,0.05,-0.32,9.85,30.73
18772788,-3e-05,0.000586,0.00111,0.07,-0.28,9.85,30.73
18773795,-3e-05,0.004847,0.00111,0.04,-0.27,9.8,30.69
18774805,-0.001095,0.004847,0.002175,0.04,-0.32,9.8,30.67
18775816,-0.001095,0.000586,0.00324,0.05,-0.34,9.85,30.67
18776825,-0.00216,-0.001545,0.00324,0.04,-0.33,9.81,30.65
18777835,-0.00216,-0.00261,0.00111,0.04,-0.33,9.79,30.69
18778845,-0.00216,-0.001545,-0.001021,0.03,-0.3,9.84,30.7
18779855,-3e-05,0.001651,4.5e-05,0.0,-0.31,9.84,30.72
18780870,0.002101,0.003782,0.00111,0.04,-0.32,9.79,30.73
18781876,0.001036,0.001651,4.5e-05,0.02,-0.33,9.75,30.69
18782894,-0.001095,-0.001545,4.5e-05,-0.02,-0.34,9.77,30.68
18783895,-0.00216,-0.000479,-0.001021,0.01,-0.32,9.79,30.67
18784905,-0.001095,0.001651,0.00111,0.0,-0.34,9.83,30.66
18785950,0.001015,0.002697,0.002148,-0.01,-0.34,9.86,30.69
18786926,0.00208,0.002697,1.7e-05,0.0,-0.3,9.82,30.7
18787937,-0.001115,0.000566,-0.002113,0.05,-0.3,9.78,30.69
18788946,-0.003246,0.000566,-0.002113,0.04,-0.32,9.8,30.67
18789958,-0.001115,0.001632,1.7e-05,0.02,-0.31,9.83,30.67
18790977,-5e-05,0.001632,0.001082,0.04,-0.3,9.84,30.66
18791977,0.00208,0.001632,0.001082,0.03,-0.29,9.84,30.71
18793009,0.003146,0.001632,-0.001048,0.03,-0.3,9.85,30.67
18794007,0.003146,0.001632,-0.003179,0.02,-0.33,9.85,30.67
18795007,0.001015,-0.000499,-0.003179,-0.03,-0.33,9.83,30.66
18796028,0.001015,-0.002629,-0.002113,-0.01,-0.3,9.84,30.67
18797040,0.00208,-0.000499,-0.001048,0.05,-0.29,9.81,30.66
18798047,0.001015,0.001632,0.001082,0.05,-0.28,9.83,30.66
18799058,-0.001115,0.000566,0.001082,0.05,-0.3,9.85,30.65
18800071,-0.001115,-0.000499,-0.002113,0.05,-0.3,9.82,30.69
18801081,0.001015,0.000566,-0.002113,0.04,-0.3,9.81,30.67
18802092,0.003146,0.001632,-0.001048,0.04,-0.31,9.82,30.67
18803117,0.00208,-0.000499,-0.002113,0.05,-0.3,9.86,30.68
18804109,0.00208,-0.000499,-0.001048,0.04,-0.29,9.8,30.69
18805122,0.001015,-0.000499,1.7e-05,0.02,-0.3,9.78,30.65
18806129,0.001015,0.000566,1.7e-05,0.05,-0.3,9.87,30.64
18807140,-5e-05,0.001632,0.002148,0.08,-0.3,9.89,30.64
18808148,-5e-05,0.000566,1.7e-05,0.05,-0.31,9.83,30.67
18809158,0.001015,-0.001564,-0.001048,0.02,-0.31,9.78,30.67
18810167,0.001015,-0.000499,1.7e-05,0.02,-0.31,9.78,30.62
18811172,0.001015,0.000566,0.002148,0.06,-0.32,9.82,30.65
18812176,0.001015,-0.001564,0.003213,0.08,-0.32,9.84,30.65
18813198,0.001015,-0.003695,0.002148,0.07,-0.3,9.82,30.67
18814199,0.003146,-0.000499,-0.001048,0.04,-0.28,9.78,30.69
18815209,0.00208,0.001632,-0.002113,0.02,-0.31,9.81,30.67
18816220,0.001015,0.001632,-0.002113,0.02,-0.31,9.8,30.67
18817227,0.001015,-0.000499,-0.002113,0.04,-0.3,9.76,30.65
18818240,-5e-05,-0.002629,-0.003179,0.04,-0.32,9.8,30.67
18819245,-0.001115,-0.001564,-0.002113,0.03,-0.32,9.84,30.67
18820255,-0.002181,-0.000499,0.001082,0.02,-0.32,9.85,30.69
18821270,-0.003246,-0.000499,0.003213,0.0,-0.33,9.87,30.7
18822270,-0.001115,-0.000499,0.002148,0.01,-0.35,9.8,30.69
18823294,0.001015,-0.002629,0.001082,0.03,-0.37,9.79,30.67
18824295,0.001015,-0.002629,0.002148,0.0,-0.36,9.85,30.69
18825305,-0.001115,-0.001564,0.002148,0.0,-0.35,9.83,30.67
18826320,-0.002181,-0.000499,1.7e-05,0.02,-0.32,9.82,30.66
18827326,-0.002181,0.000566,-0.003179,0.01,-0.31,9.82,30.67
18828335,-0.002181,0.000566,-0.003179,0.02,-0.32,9.8,30.67
18829345,-0.003246,0.001632,-0.001048,0.05,-0.31,9.75,30.67
18830355,-0.002181,0.001632,1.7e-05,0.04,-0.28,9.77,30.67
18831361,-0.001115,0.000566,-0.002113,0.05,-0.29,9.8,30.65
18832386,-5e-05,-0.000499,-0.001048,0.09,-0.34,9.82,30.64
18833385,-5e-05,-0.000499,0.001082,0.06,-0.34,9.85,30.67
18834395,0.001015,0.001632,0.002148,0.01,-0.34,9.85,30.69
18835448,0.001015,0.002697,0.001082,0.03,-0.31,9.83,30.7
18836416,-5e-05,0.001632,1.7e-05,0.05,-0.34,9.83,30.68
18837425,-0.001115,-0.000499,1.7e-05,0.05,-0.37,9.82,30.66
18838435,-0.001115,0.000566,0.002148,0.04,-0.32,9.78,30.62
18839445,-0.002181,0.001632,0.003213,0.04,-0.31,9.79,30.63
18840455,-0.001115,0.001632,0.003213,0.01,-0.32,9.82,30.64
18841465,0.00208,0.000566,0.002148,0.0,-0.3,9.88,30.66
18842488,0.001015,-0.001564,1.7e-05,0.03,-0.31,9.84,30.69
18843480,-5e-05,-0.001564,-0.001048,0.01,-0.32,9.78,30.7
18844495,-5e-05,-0.001564,-0.001048,0.0,-0.34,9.78,30.68
18845505,0.001015,0.001632,1.7e-05,0.03,-0.33,9.8,30.66
18846515,0.00208,0.002697,1.7e-05,0.06,-0.33,9.84,30.66
18847527,0.001015,0.003762,-0.002113,0.04,-0.33,9.84,30.66
18848536,-0.001115,0.001632,-0.002113,0.02,-0.33,9.82,30.66
18849545,-0.001115,-0.000499,-0.001048,0.03,-0.33,9.81,30.67
18850555,-5e-05,0.000566,1.7e-05,0.03,-0.33,9.8,30.65
18851565,0.001015,0.000566,0.002148,0.04,-0.35,9.84,30.67
18852586,-0.001115,-0.000499,0.002148,0.02,-0.34,9.84,30.68
18853586,-0.002181,-0.000499,0.002148,0.01,-0.31,9.81,30.63
18854595,-0.002181,-0.000499,0.001082,0.0,-0.34,9.84,30.66
18855605,0.001015,0.000566,-0.001048,-0.01,-0.35,9.86,30.69
18856615,0.001015,0.000566,-0.002113,-0.01,-0.31,9.84,30.7
18857626,-0.001115,0.000566,-0.002113,0.01,-0.29,9.83,30.67
18858635,-0.004311,-0.001564,-0.001048,0.03,-0.31,9.79,30.68
18859645,-0.003246,-0.002629,-0.001048,0.02,-0.34,9.77,30.73
18860651,-0.001115,-0.000499,-0.001048,-0.01,-0.32,9.84,30.72
18861665,0.001015,0.001632,-0.001048,0.02,-0.3,9.85,30.71
18862688,-5e-05,0.000566,1.7e-05,0.04,-0.29,9.81,30.7
18863686,-0.001115,-0.001564,0.002148,0.04,-0.32,9.79,30.72
18864695,0.00208,-0.002629,1.7e-05,0.02,-0.34,9.79,30.72
18865705,0.001015,0.000566,1.7e-05,0.01,-0.34,9.75,30.7
18866715,0.001015,0.003762,1.7e-05,0.0,-0.33,9.81,30.68
18867727,0.003146,0.003762,0.001082,0.01,-0.31,9.83,30.66
18868736,0.00208,0.002697,0.001082,0.02,-0.31,9.86,30.72
18869745,-0.001115,0.000566,1.7e-05,0.02,-0.33,9.86,30.72
18870755,-0.002181,-0.000499,1.7e-05,0.02,-0.34,9.81,30.72
18871765,-5e-05,-0.002629,0.001082,0.05,-0.33,9.83,30.72
18872786,-0.001115,-0.003695,0.001082,0.05,-0.32,9.83,30.7
18873786,-0.004311,-0.003695,0.002148,0.01,-0.33,9.82,30.66
18874795,-0.005377,-0.001564,0.001082,0.02,-0.3,9.8,30.67
18875805,-0.003246,0.000566,-0.002113,0.04,-0.3,9.81,30.62
18876809,-5e-05,-0.000499,-0.002113,0.07,-0.3,9.85,30.63
18877826,0.001015,-0.000499,-0.001048,0.04,-0.28,9.82,30.65
18878835,-5e-05,-0.000499,-0.002113,-0.01,-0.29,9.81,30.69
18879845,-0.002181,0.000566,-0.003179,0.01,-0.3,9.83,30.67
18880855,-0.003246,0.003762,-0.002113,0.01,-0.3,9.83,30.69
18881865,-0.002181,0.003762,-0.001048,0.01,-0.33,9.82,30.68
18882888,-5e-05,0.001632,1.7e-05,0.02,-0.33,9.83,30.65
18883886,-5e-05,0.001632,1.7e-05,0.04,-0.3,9.86,30.66
18884895,-0.001115,0.001632,0.001082,0.04,-0.28,9.89,30.64
18885905,-5e-05,0.001632,0.002148,0.02,-0.32,9.9,30.67
18886915,0.001015,0.000566,0.003213,0.02,-0.34,9.84,30.71
18887927,0.003146,-0.000499,0.005344,0.0,-0.32,9.8,30.71
18888937,0.004211,-0.002629,0.004278,0.0,-0.31,9.78,30.7
18889947,0.003146,-0.00476,0.001082,0.05,-0.31,9.8,30.7
18890957,-5e-05,-0.003695,-0.001048,0.03,-0.31,9.81,30.7
18891975,-5e-05,-0.002629,1.7e-05,0.01,-0.28,9.81,30.72
18892992,0.001015,-0.001564,1.7e-05,0.03,-0.27,9.83,30.68
18893994,0.00208,-0.000499,1.7e-05,0.02,-0.3,9.78,30.66
18895009,0.001015,-0.000499,-0.001048,0.03,-0.31,9.75,30.67
18896015,-5e-05,-0.000499,-0.001048,0.07,-0.28,9.78,30.68
18897030,-0.001115,-0.000499,1.7e-05,0.05,-0.29,9.77,30.67
18898043,-0.001115,0.001632,0.001082,-0.01,-0.32,9.78,30.67
18899050,-0.002181,0.002697,0.001082,0.01,-0.31,9.79,30.67
18900055,-0.002181,0.001632,1.7e-05,0.01,-0.29,9.78,30.65
18901069,-0.001115,0.000566,1.7e-05,0.0,-0.3,9.81,30.66
18902071,-5e-05,0.000566,-0.001048,0.03,-0.29,9.82,30.62
18903108,0.001015,0.001632,-0.005309,0.05,-0.27,9.8,30.67
18904103,-0.001115,0.002697,-0.00744,0.05,-0.3,9.81,30.65
18905112,-0.003246,0.003762,-0.004244,0.05,-0.34,9.87,30.7
18906118,-0.002181,0.002697,-0.001048,0.03,-0.29,9.87,30.7
18907123,-5e-05,0.002697,0.001082,0.02,-0.27,9.82,30.63
18908140,0.00208,0.000566,0.001082,0.04,-0.31,9.83,30.65
18909147,0.001015,-0.002629,1.7e-05,0.05,-0.32,9.83,30.64
18910152,-0.001115,-0.003695,1.7e-05,0.04,-0.31,9.83,30.66
18911168,-0.002181,-0.003695,0.001082,0.04,-0.32,9.83,30.69
18912168,-0.002181,-0.002629,0.001082,0.03,-0.32,9.82,30.67
18913190,-0.002181,0.000566,1.7e-05,0.02,-0.32,9.84,30.68
18914190,-0.001115,0.002697,0.002148,0.04,-0.33,9.86,30.69
18915224,0.001033,0.002679,0.004289,0.05,-0.33,9.86,30.69
18916211,0.001033,0.001614,0.003224,0.06,-0.33,9.83,30.71
18917219,-0.003228,0.001614,0.001093,0.04,-0.32,9.81,30.68
18918228,-0.005358,0.000548,2.8e-05,0.02,-0.3,9.82,30.66
18919240,-0.002163,-0.000517,0.001093,0.01,-0.31,9.84,30.67
18920245,0.002099,-0.001582,0.001093,0.01,-0.33,9.84,30.68
18921249,0.004229,-0.003713,0.001093,0.04,-0.32,9.83,30.68
18922265,0.003164,-0.003713,0.002159,0.05,-0.31,9.78,30.65
18923288,-3.2e-05,-0.003713,0.001093,0.02,-0.32,9.81,30.67
18924286,-0.001097,-0.002647,0.001093,-0.01,-0.34,9.86,30.64
18925295,-0.001097,0.000548,0.002159,0.03,-0.35,9.84,30.64
18926305,0.001033,-0.000517,0.002159,0.07,-0.35,9.83,30.67
18927315,0.001033,-0.003713,2.8e-05,0.05,-0.31,9.84,30.73
18928327,0.001033,-0.001582,-0.002102,0.05,-0.3,9.83,30.71
18929336,-0.001097,0.000548,-0.002102,0.06,-0.31,9.82,30.67
18930345,-0.002163,0.001614,0.001093,0.08,-0.32,9.8,30.66
18931355,-0.002163,0.000548,0.004289,0.06,-0.35,9.8,30.66
18932374,-3.2e-05,-0.000517,0.005355,0.02,-0.33,9.82,30.66
18933380,-3.2e-05,0.001614,0.001093,0.01,-0.3,9.82,30.69
18934386,-3.2e-05,0.000548,-0.002102,0.04,-0.33,9.77,30.68
18935395,0.002099,-0.000517,-0.003168,0.04,-0.33,9.78,30.7
18936405,0.003164,0.001614,2.8e-05,0.03,-0.32,9.8,30.7
18937448,0.002099,0.002679,0.002159,0.04,-0.31,9.83,30.66
18938426,0.002099,0.001614,0.002159,0.06,-0.3,9.84,30.65
18939435,0.001033,-0.000517,0.001093,0.06,-0.29,9.82,30.66
18940445,0.001033,-0.002647,0.002159,0.04,-0.29,9.81,30.69
18941455,0.001033,-0.002647,0.003224,0.06,-0.29,9.81,30.67
18942474,-0.001097,-0.001582,0.005355,0.01,-0.29,9.8,30.68
18943480,-0.002163,-0.000517,0.004289,-0.01,-0.32,9.8,30.72
18944486,-0.001097,-0.000517,0.001093,0.03,-0.36,9.83,30.69
18945489,-0.001097,-0.000517,2.8e-05,0.03,-0.34,9.83,30.64
18946505,-0.001097,-0.000517,-0.001037,0.02,-0.28,9.8,30.64
18947509,-0.002163,0.000548,2.8e-05,0.01,-0.28,9.8,30.63
18948527,-0.002163,0.000548,2.8e-05,0.0,-0.29,9.84,30.64
18949536,-0.001097,0.000548,2.8e-05,0.02,-0.3,9.86,30.68
18950545,-0.002163,0.001614,2.8e-05,0.02,-0.31,9.83,30.68
18951555,-0.003228,0.000548,-0.001037,0.01,-0.31,9.82,30.7
18952574,-0.002163,0.000548,-0.002102,0.03,-0.31,9.86,30.67
18953580,-0.001097,-0.000517,-0.001037,0.04,-0.31,9.84,30.68
18954586,0.001033,-0.000517,2.8e-05,0.01,-0.32,9.78,30.68
18955595,-3.2e-05,-0.000517,2.8e-05,0.0,-0.31,9.8,30.7
18956605,-0.001097,0.000548,2.8e-05,0.04,-0.31,9.82,30.67
18957615,-3.2e-05,0.001614,0.001093,0.04,-0.3,9.84,30.66
18958626,-3.2e-05,0.000548,0.001093,0.04,-0.3,9.86,30.68
18959635,0.001033,-0.000517,2.8e-05,0.04,-0.29,9.86,30.67
18960645,0.001033,0.000548,-0.001037,0.01,-0.3,9.86,30.68
18961655,0.002099,0.001614,-0.002102,0.03,-0.33,9.83,30.7
18962674,0.003164,0.001614,-0.001037,0.03,-0.35,9.82,30.68
18963674,0.003164,0.001614,2.8e-05,0.03,-0.34,9.81,30.67
18964686,-0.003228,0.000548,-0.002102,0.04,-0.31,9.84,30.65
18965695,-0.003228,0.000548,-0.001037,0.04,-0.3,9.81,30.64
18966699,-0.002163,0.000548,2.8e-05,0.04,-0.35,9.84,30.65
18967715,-0.001097,-0.000517,0.002159,0.02,-0.35,9.85,30.64
18968727,-3.2e-05,-0.000517,0.001093,0.01,-0.34,9.85,30.69
18969736,0.001033,0.001614,2.8e-05,0.01,-0.34,9.84,30.65
18970745,0.001033,0.000548,2.8e-05,0.02,-0.32,9.82,30.66
18971755,0.001033,-0.001582,2.8e-05,0.02,-0.3,9.84,30.69
18972774,-0.001097,-0.001582,0.001093,0.02,-0.3,9.85,30.68
18973780,-0.003228,-0.001582,0.002159,0.03,-0.31,9.82,30.67
18974786,-0.003228,-0.003713,0.001093,0.02,-0.28,9.83,30.67
18975795,-0.001097,-0.004778,0.001093,0.03,-0.27,9.82,30.71
18976805,-3.2e-05,-0.004778,0.001093,0.05,-0.3,9.78,30.7
18977815,0.001033,-0.002647,2.8e-05,0.03,-0.32,9.77,30.65
18978826,0.001033,-0.000517,2.8e-05,0.0,-0.33,9.8,30.65
18979835,0.002099,0.000548,2.8e-05,0.0,-0.33,9.88,30.63
18980845,0.004229,0.000548,2.8e-05,0.03,-0.33,9.89,30.65
18981855,0.00636,0.000548,2.8e-05,0.05,-0.34,9.84,30.65
18982874,0.003164,0.001614,2.8e-05,0.01,-0.34,9.85,30.69
18983880,-3.2e-05,0.001614,-0.001037,0.01,-0.31,9.85,30.69
18984886,-0.002163,0.000548,2.8e-05,0.05,-0.3,9.85,30.72
18985895,-0.002163,-0.000517,2.8e-05,0.01,-0.33,9.86,30.7
18986905,-0.002163,-0.001582,-0.002102,0.0,-0.31,9.8,30.65
18987915,-0.001097,-0.001582,-0.001037,0.03,-0.32,9.76,30.66
18988984,-3.2e-05,-0.000517,0.001093,0.05,-0.3,9.81,30.68
18989952,-3.2e-05,0.000548,0.002159,0.05,-0.29,9.84,30.66
18990956,-3.2e-05,-0.000517,0.001093,0.03,-0.33,9.81,30.64
18991951,-0.001097,-0.001582,-0.001037,0.0,-0.32,9.82,30.65
18992978,-0.001097,-0.003713,-0.002102,0.02,-0.33,9.84,30.67
18993988,-3.2e-05,-0.005843,-0.001037,0.06,-0.34,9.82,30.67
18994993,-3.2e-05,-0.004778,2.8e-05,0.04,-0.33,9.78,30.67
18996005,-0.001097,-0.003713,0.001093,0.04,-0.33,9.78,30.67
18997015,-0.001097,-0.002647,0.001093,0.04,-0.32,9.76,30.68
18998029,-0.002163,-0.001582,0.001093,0.01,-0.34,9.76,30.69
18999045,-0.002163,-0.001582,2.8e-05,0.02,-0.33,9.78,30.68
19000051,-0.002163,-0.002647,0.002159,0.02,-0.31,9.81,30.67
19001055,-0.003228,-0.001582,0.003224,0.0,-0.33,9.81,30.67
19002069,-0.002163,0.000548,0.002159,0.02,-0.35,9.8,30.69
19003085,-3.2e-05,0.000548,0.001093,0.04,-0.33,9.83,30.67
19004102,0.001033,0.000548,2.8e-05,0.03,-0.28,9.84,30.69
19005101,-3.2e-05,-0.002647,-0.001037,0.02,-0.31,9.8,30.71
19006108,-0.001097,-0.003713,-0.001037,0.05,-0.33,9.77,30.71
19007118,-0.002163,0.000548,0.002159,0.03,-0.3,9.8,30.67
19008117,-0.001097,0.003744,0.005355,-0.01,-0.32,9.82,30.67
19009146,0.002099,0.003744,0.003224,-0.01,-0.35,9.84,30.63
19010147,0.003164,0.000548,2.8e-05,0.01,-0.32,9.85,30.65
19011155,0.003164,-0.001582,2.8e-05,0.02,-0.32,9.83,30.66
19012162,0.003164,-0.001582,0.002159,0.01,-0.31,9.82,30.68
19013175,0.002099,-0.001582,0.002159,0.03,-0.28,9.81,30.69
19014179,0.001033,-0.000517,0.001093,0.03,-0.29,9.81,30.66
19015190,-0.001097,-0.002647,2.8e-05,0.02,-0.31,9.81,30.71
19016202,-0.002163,-0.002647,2.8e-05,0.04,-0.35,9.84,30.68
19017204,-3.2e-05,-0.001582,0.001093,0.03,-0.36,9.88,30.63
19018219,0.002099,-0.000517,0.001093,0.02,-0.33,9.88,30.66
19019232,0.003164,-0.000517,2.8e-05,0.03,-0.33,9.87,30.68
19020240,0.002099,-0.000517,-0.001037,0.05,-0.35,9.79,30.7
19021244,-3.2e-05,-0.000517,-0.002102,0.03,-0.34,9.76,30.68
19022255,-0.001097,-0.000517,2.8e-05,0.01,-0.31,9.82,30.66
19023273,-0.004293,-0.000517,0.003224,0.04,-0.29,9.83,30.63
19024280,-0.004293,-0.000517,0.003224,0.04,-0.33,9.82,30.69
19025285,-0.003228,-0.000517,0.001093,0.01,-0.36,9.81,30.68
19026295,-0.001097,-0.000517,-0.001037,0.01,-0.34,9.81,30.68
19027304,-0.001097,0.000548,2.8e-05,0.04,-0.34,9.8,30.69
19028315,-3.2e-05,0.000548,0.002159,0.03,-0.34,9.79,30.67
19029331,-3.2e-05,-0.002647,0.003224,0.02,-0.33,9.81,30.68
19030336,-0.001097,-0.002647,0.001093,0.0,-0.34,9.84,30.69
19031344,-0.002163,-0.000517,2.8e-05,-0.02,-0.35,9.84,30.69
19032364,-0.002163,0.001614,0.001093,0.01,-0.34,9.81,30.7
19033388,-3.2e-05,0.002679,2.8e-05,0.02,-0.33,9.81,30.7
19034380,-3.2e-05,0.000548,-0.001037,0.03,-0.29,9.83,30.68
19035385,-3.2e-05,0.000548,-0.002102,0.04,-0.28,9.84,30.68
19036395,0.001033,0.000548,-0.001037,0.03,-0.29,9.85,30.67
19037404,0.002099,0.000548,-0.001037,0.0,-0.32,9.82,30.68
19038415,0.001033,0.001614,-0.001037,0.0,-0.34,9.83,30.7
19039430,-3.2e-05,0.000548,0.001093,0.02,-0.34,9.85,30.72
19040494,0.001033,-0.000517,0.003224,0.02,-0.33,9.88,30.72
19041444,0.001033,0.000548,0.001093,0.04,-0.34,9.86,30.7
19042464,0.001033,0.001614,-0.001037,0.01,-0.35,9.79,30.69
19043464,-3.2e-05,0.001614,-0.002102,-0.02,-0.33,9.76,30.71
19044506,-0.001075,0.000604,-0.002168,0.0,-0.33,9.78,30.71
19045485,-0.004271,-0.000462,-0.002168,0.02,-0.34,9.82,30.74
19046495,-0.005337,0.000604,-0.001103,0.07,-0.32,9.85,30.73
19047504,-0.004271,-0.000462,-0.001103,0.08,-0.27,9.83,30.73
19048515,-0.002141,0.000604,-0.002168,0.05,-0.29,9.79,30.67
19049531,0.001055,0.003799,-0.003233,0.04,-0.34,9.8,30.69
19050536,0.004251,0.003799,-0.002168,0.02,-0.33,9.83,30.73
19051544,0.004251,0.000604,-0.002168,0.02,-0.31,9.85,30.7
19052564,0.00212,-0.001527,-0.002168,0.02,-0.34,9.85,30.7
19053564,-1e-05,-0.001527,-0.003233,0.0,-0.34,9.84,30.69
19054580,0.001055,-0.001527,-0.001103,0.0,-0.3,9.85,30.67
19055585,0.00212,-0.001527,-3.7e-05,0.02,-0.29,9.81,30.7
19056595,0.00212,-0.003658,-0.001103,0.05,-0.32,9.8,30.69
19057599,0.00212,-0.002592,0.001028,0.04,-0.33,9.82,30.64
19058609,0.00212,0.000604,0.003158,0.01,-0.29,9.82,30.67
19059631,0.00212,0.001669,0.002093,0.01,-0.28,9.76,30.65
19060634,0.00212,0.002734,-0.001103,0.02,-0.28,9.75,30.66
19061645,0.003186,0.004865,-0.001103,0.01,-0.31,9.81,30.68
19062663,0.003186,0.004865,-3.7e-05,0.01,-0.34,9.82,30.67
19063665,0.001055,0.003799,-3.7e-05,0.04,-0.34,9.81,30.67
19064678,-1e-05,-0.001527,-0.001103,0.01,-0.29,9.84,30.72
19065686,-0.001075,-0.000462,-0.002168,0.02,-0.34,9.82,30.68
19066694,-0.001075,0.000604,-0.003233,0.01,-0.34,9.77,30.69
19067705,0.001055,0.000604,-0.002168,0.01,-0.32,9.8,30.69
19068714,0.003186,0.001669,-3.7e-05,0.04,-0.32,9.82,30.69
19069732,0.003186,0.001669,0.001028,0.06,-0.35,9.85,30.69
19070735,0.004251,-0.001527,0.002093,0.03,-0.36,9.88,30.71
19071745,0.003186,-0.001527,0.001028,0.0,-0.34,9.79,30.68
19072763,0.00212,-0.001527,-0.001103,0.0,-0.31,9.8,30.7
19073765,-1e-05,0.000604,-0.002168,0.03,-0.31,9.83,30.7
19074778,-0.003206,0.001669,-0.002168,0.03,-0.3,9.8,30.71
19075786,-0.005337,-0.000462,-0.002168,0.04,-0.29,9.79,30.7
19076789,-0.004271,-0.004723,-0.001103,0.07,-0.31,9.78,30.72
19077805,-0.003206,-0.005788,-3.7e-05,0.06,-0.3,9.84,30.68
19078814,-1e-05,-0.003658,0.001028,0.01,-0.32,9.82,30.67
19079831,0.00212,-0.003658,0.001028,0.0,-0.33,9.73,30.64
19080829,0.003186,-0.004723,0.001028,0.03,-0.31,9.74,30.68
19081839,0.00212,-0.004723,0.002093,0.02,-0.3,9.79,30.67
19082859,0.001055,-0.002592,0.003158,0.03,-0.29,9.82,30.64
19083865,-0.002141,-0.001527,0.004224,0.02,-0.32,9.82,30.64
19084878,-0.002141,-0.001527,0.003158,-0.02,-0.35,9.84,30.63
19085886,-0.001075,-0.001527,-3.7e-05,0.02,-0.33,9.82,30.67
19086894,0.001055,-0.001527,-0.001103,0.07,-0.32,9.8,30.68
19087899,0.003186,-0.002592,-0.002168,0.06,-0.32,9.83,30.64
19088920,0.001055,-0.001527,-0.004298,0.02,-0.32,9.89,30.64
19089926,-0.002141,0.000604,-0.003233,0.02,-0.34,9.85,30.69
19090938,-0.002141,0.001669,-0.003233,0.04,-0.31,9.79,30.71
19091950,-0.001075,0.001669,-0.002168,0.04,-0.28,9.79,30.71
19092969,-0.001075,-0.001527,-0.003233,0.05,-0.31,9.82,30.7
19093968,-0.003206,-0.002592,-0.003233,0.07,-0.32,9.86,30.68
19094990,-0.003206,-0.001527,-0.002168,0.04,-0.33,9.86,30.64
19095992,-0.003206,0.000604,-0.002168,0.0,-0.32,9.8,30.67
19097007,-0.003206,0.001669,-3.7e-05,0.03,-0.31,9.78,30.69
19098011,-0.002141,0.000604,0.003158,0.02,-0.3,9.78,30.7
19099031,-0.001075,-0.001527,0.003158,0.0,-0.3,9.79,30.68
19100039,-1e-05,-0.001527,0.002093,0.0,-0.31,9.82,30.69
19101047,-1e-05,-0.001527,0.002093,0.01,-0.31,9.82,30.7
19102058,-0.001075,-0.001527,0.001028,0.02,-0.31,9.83,30.67
19103072,-0.001075,-0.000462,0.001028,0.02,-0.31,9.81,30.65
19104073,-0.001075,-0.000462,0.001028,0.03,-0.32,9.74,30.64
19105096,-0.001075,0.000604,-3.7e-05,0.05,-0.34,9.78,30.67
19106102,-1e-05,0.000604,-0.001103,0.07,-0.33,9.82,30.67
19107109,-0.002141,0.000604,-0.001103,0.05,-0.31,9.8,30.66
19108121,-0.003206,-0.000462,-0.001103,0.05,-0.33,9.81,30.71
19109129,-0.001075,-0.001527,0.001028,0.04,-0.35,9.8,30.69
19110139,-0.002141,-0.002592,0.002093,0.0,-0.34,9.85,30.66
19111152,-0.002141,-0.001527,-3.7e-05,0.01,-0.33,9.85,30.64
19112158,-1e-05,-0.000462,-3.7e-05,0.03,-0.35,9.78,30.64
19113173,0.00212,0.000604,-3.7e-05,0.02,-0.38,9.8,30.66
19114168,0.00212,-0.000462,-3.7e-05,0.01,-0.35,9.86,30.63
19115180,0.00212,-0.002592,-0.001103,0.0,-0.32,9.87,30.66
19116200,0.003186,-0.001527,-0.002168,0.02,-0.31,9.84,30.69
19117199,0.003186,-0.000462,-0.002168,0.02,-0.31,9.83,30.7
19118208,0.00212,0.000604,-0.001103,0.01,-0.33,9.81,30.7
19119223,-1e-05,0.000604,-0.001103,0.03,-0.33,9.8,30.67
19120227,-1e-05,0.001669,0.001028,0.04,-0.32,9.83,30.67
19121240,-1e-05,0.001669,0.002093,0.01,-0.3,9.86,30.66
19122244,-1e-05,0.000604,-3.7e-05,0.02,-0.3,9.85,30.66
19123264,-0.002141,-0.001527,-0.001103,0.03,-0.32,9.81,30.7
19124264,-0.004271,-0.001527,-0.001103,0.0,-0.3,9.82,30.68
19125280,-0.003206,-0.001527,-0.001103,0.03,-0.28,9.83,30.67
19126285,-0.001075,0.000604,-3.7e-05,0.04,-0.29,9.81,30.66
19127295,-1e-05,-0.000462,-0.001103,0.04,-0.3,9.78,30.67
19128304,-1e-05,-0.001527,-0.001103,0.03,-0.31,9.76,30.66
19129320,-0.001075,-0.003658,0.001028,0.01,-0.3,9.83,30.66
19130326,-0.001075,-0.001527,0.002093,0.02,-0.3,9.88,30.64
19131336,-0.001075,0.002734,0.001028,0.02,-0.33,9.9,30.67
19132353,-0.002141,0.004865,0.002093,0.02,-0.35,9.89,30.67
19133355,-1e-05,0.003799,0.001028,0.02,-0.34,9.85,30.67
19134364,-1e-05,0.001669,-0.001103,0.04,-0.33,9.86,30.68
19135380,-1e-05,0.000604,-0.001103,0.03,-0.29,9.84,30.66
19136380,-1e-05,0.000604,0.002093,-0.02,-0.28,9.78,30.64
19137395,-1e-05,0.000604,0.002093,0.01,-0.29,9.8,30.67
19138404,-1e-05,-0.001527,-3.7e-05,0.04,-0.28,9.83,30.63
19139420,-0.001075,-0.001527,-3.7e-05,0.02,-0.26,9.86,30.65
19140425,-1e-05,0.000604,-3.7e-05,0.02,-0.29,9.82,30.68
19141435,0.001055,0.001669,-3.7e-05,0.01,-0.34,9.78,30.7
19142523,-1e-05,0.001669,-3.7e-05,0.03,-0.34,9.8,30.7
19143455,-1e-05,0.001669,-3.7e-05,0.04,-0.31,9.83,30.7
19144464,-1e-05,0.000604,-3.7e-05,0.04,-0.3,9.84,30.7
19145480,-1e-05,-0.000462,-3.7e-05,0.02,-0.32,9.84,30.7
19146485,-0.001075,-0.000462,0.001028,0.03,-0.33,9.85,30.72
19147495,-0.001075,0.000604,-3.7e-05,0.03,-0.33,9.84,30.71
19148499,0.001055,-0.001527,-0.002168,-0.01,-0.33,9.79,30.69
19149520,0.00212,-0.003658,-0.002168,0.01,-0.34,9.81,30.67
19150526,0.004251,-0.004723,-0.001103,0.03,-0.34,9.86,30.7
19151536,0.003186,-0.001527,0.001028,0.03,-0.32,9.85,30.69
19152553,-0.001075,-0.000462,0.002093,0.03,-0.32,9.82,30.69
19153555,-0.002141,0.000604,-3.7e-05,0.01,-0.33,9.78,30.72
19154564,-0.002141,0.000604,-3.7e-05,0.02,-0.33,9.8,30.72
19155580,-0.001075,0.000604,-0.001103,0.03,-0.34,9.85,30.69
19156585,-1e-05,-0.000462,-0.001103,0.03,-0.33,9.85,30.66
19157595,-1e-05,-0.000462,0.001028,0.04,-0.32,9.86,30.66
19158604,-0.001075,0.000604,0.002093,0.04,-0.3,9.84,30.67
19159609,-0.001075,0.000604,0.001028,0.03,-0.31,9.8,30.66
19160620,-0.001075,0.000604,0.001028,0.02,-0.34,9.81,30.67
19161635,-0.001075,-0.000462,0.002093,0.04,-0.34,9.82,30.65
19162653,-0.001075,-0.002592,0.001028,0.05,-0.29,9.81,30.68
19163655,-1e-05,-0.003658,-3.7e-05,0.04,-0.28,9.79,30.67
19164664,-1e-05,0.001669,-3.7e-05,0.02,-0.31,9.79,30.69
19165680,-1e-05,0.001669,-0.001103,0.02,-0.3,9.78,30.67
19166685,-0.001075,0.001669,-3.7e-05,0.0,-0.3,9.84,30.72
19167695,-0.001075,0.000604,0.001028,0.03,-0.32,9.8,30.67
19168704,-1e-05,-0.001527,-3.7e-05,0.08,-0.35,9.76,30.68
19169715,-0.001075,-0.003658,-0.001103,0.08,-0.36,9.82,30.69
19170726,-1e-05,-0.004723,-0.001103,0.04,-0.36,9.82,30.67
19171736,0.003186,-0.001527,-3.7e-05,0.02,-0.35,9.83,30.68
19172753,0.00212,0.001669,0.001028,0.04,-0.33,9.82,30.68
19173781,5e-06,0.001713,0.001052,0.04,-0.32,9.81,30.71
19174764,-0.002125,-0.000417,-1.3e-05,0.0,-0.3,9.85,30.71
19175780,-0.003191,-0.000417,-0.001078,-0.02,-0.3,9.81,30.67
19176785,5e-06,-0.001482,-0.002143,0.01,-0.33,9.75,30.66
19177795,0.002136,-0.001482,-0.003209,0.01,-0.35,9.78,30.68
19178804,0.00107,-0.001482,-0.003209,0.01,-0.33,9.8,30.7
19179815,-0.00106,-0.000417,-0.001078,0.02,-0.34,9.81,30.72
19180825,5e-06,0.000648,-1.3e-05,0.01,-0.34,9.87,30.69
19181835,5e-06,0.000648,-0.002143,0.02,-0.29,9.86,30.71
19182853,5e-06,-0.001482,-0.003209,0.02,-0.29,9.79,30.71
19183855,0.00107,-0.000417,-0.003209,0.01,-0.31,9.79,30.67
19184864,0.00107,0.002779,-0.001078,0.01,-0.31,9.81,30.66
19185880,-0.00106,0.001713,-1.3e-05,0.03,-0.29,9.82,30.68
19186885,-0.002125,-0.000417,-0.001078,0.03,-0.32,9.83,30.66
19187895,-0.002125,-0.002548,-0.002143,0.0,-0.35,9.81,30.68
19188904,-0.00106,-0.003613,-0.003209,0.02,-0.32,9.81,30.65
19189915,-0.002125,-0.002548,-0.002143,0.04,-0.3,9.84,30.64
19190926,-0.00106,-0.000417,0.001052,0.02,-0.3,9.87,30.68
19191936,5e-06,0.000648,0.001052,0.0,-0.31,9.85,30.63
19192956,0.00107,0.000648,-1.3e-05,0.01,-0.3,9.86,30.63
19193956,0.00107,0.000648,-0.001078,0.01,-0.32,9.86,30.66
19194973,-0.002125,-0.000417,-0.002143,0.02,-0.31,9.86,30.65
19195988,-0.003191,-0.001482,-0.003209,0.04,-0.28,9.83,30.67
19196993,-0.002125,-0.003613,-0.002143,0.04,-0.28,9.74,30.67
19198005,-0.00106,-0.002548,-0.002143,0.04,-0.3,9.73,30.69
19199015,5e-06,0.000648,-0.002143,0.04,-0.33,9.79,30.72
19200029,5e-06,0.000648,-0.001078,0.02,-0.31,9.85,30.68
19201038,0.00107,-0.000417,-1.3e-05,0.02,-0.31,9.86,30.67
19202051,0.003201,-0.001482,-0.001078,0.04,-0.32,9.8,30.67
19203064,0.004266,-0.000417,-0.001078,0.08,-0.32,9.79,30.7
19204069,0.005331,0.000648,-1.3e-05,0.07,-0.34,9.85,30.67
19205071,0.003201,0.002779,0.003183,0.03,-0.35,9.86,30.67
19206102,0.002136,0.002779,0.002118,0.02,-0.34,9.84,30.73
19207101,0.002136,0.000648,-1.3e-05,0.02,-0.34,9.87,30.73
19208117,5e-06,-0.001482,-0.001078,0.02,-0.33,9.89,30.7
19209119,5e-06,-0.001482,0.001052,0.03,-0.29,9.85,30.66
19210127,5e-06,0.000648,0.002118,0.03,-0.29,9.8,30.67
19211132,0.00107,-0.000417,0.001052,-0.01,-0.29,9.81,30.67
19212147,0.002136,-0.000417,0.001052,0.0,-0.32,9.85,30.67
19213161,0.00107,-0.000417,-1.3e-05,0.03,-0.34,9.82,30.66
19214163,0.00107,-0.000417,-0.002143,0.04,-0.33,9.8,30.66
19215164,0.00107,-0.000417,-0.002143,0.03,-0.32,9.8,30.67
19216190,5e-06,-0.001482,-1.3e-05,0.03,-0.33,9.8,30.67
19217189,-0.00106,-0.002548,-0.001078,0.02,-0.33,9.86,30.69
19218199,-0.002125,-0.001482,-0.004274,0.01,-0.35,9.86,30.71
19219208,-0.00106,-0.000417,-0.005339,0.02,-0.34,9.83,30.7
19220219,5e-06,0.000648,-0.005339,0.01,-0.28,9.81,30.67
19221227,5e-06,-0.000417,-0.001078,0.03,-0.29,9.81,30.66
19222240,-0.00106,-0.001482,0.001052,0.02,-0.3,9.82,30.65
19223253,-0.00106,-0.001482,-1.3e-05,0.03,-0.31,9.79,30.66
19224255,5e-06,-0.001482,-0.001078,0.03,-0.31,9.79,30.67
