time_us,gyro_x_rad_s,gyro_y_rad_s,gyro_z_rad_s,acc_x_m_s2,acc_y_m_s2,acc_z_m_s2,temperature_c
26853405,-0.000311,-0.000407,-0.00111,0.03,-0.3,9.76,30.67
26854391,-0.000311,-0.001472,-0.002175,0.04,-0.3,9.76,30.66
26855909,0.000755,-0.001472,-0.003241,0.07,-0.3,9.8,30.67
26856947,0.00182,-0.000407,-4.5e-05,0.07,-0.33,9.81,30.66
26857955,0.000755,-0.000407,0.00102,0.04,-0.34,9.84,30.65
26858966,-0.002441,0.000659,-4.5e-05,0.04,-0.34,9.88,30.65
26859975,-0.003506,0.002789,-0.00111,0.05,-0.34,9.87,30.61
26860986,-0.000311,0.001724,-0.00111,0.04,-0.31,9.82,30.62
26861996,0.00182,-0.001472,-0.00111,0.02,-0.3,9.78,30.65
26863006,0.00182,-0.002537,-0.002175,0.01,-0.32,9.83,30.65
26864035,0.00182,-0.002537,-0.002175,0.02,-0.32,9.84,30.66
26865026,0.00182,-0.000407,-4.5e-05,0.0,-0.31,9.84,30.67
26866035,0.002885,-0.001472,0.002086,-0.01,-0.31,9.84,30.69
26867047,0.003951,-0.002537,0.00102,0.02,-0.33,9.82,30.69
26868055,0.00182,-0.002537,0.00102,0.05,-0.34,9.83,30.65
26869066,0.000755,-0.003603,0.00102,0.04,-0.32,9.84,30.67
26870075,-0.001376,-0.002537,-0.00111,0.03,-0.33,9.85,30.64
26871086,-0.001376,0.000659,-0.00111,0.03,-0.33,9.86,30.64
26872091,-0.001376,0.001724,-0.002175,0.01,-0.32,9.86,30.68
26873102,-0.001376,0.000659,-0.00111,0.0,-0.33,9.84,30.68
26874125,0.000755,-0.001472,0.00102,0.0,-0.34,9.78,30.65
26875122,-0.000311,-0.001472,-4.5e-05,0.04,-0.35,9.77,30.63
26876130,-0.000311,-0.000407,-0.002175,0.04,-0.33,9.8,30.66
26877142,-0.000311,0.000659,-0.00111,-0.01,-0.28,9.79,30.67
26878150,-0.000311,-0.000407,-0.00111,-0.01,-0.29,9.79,30.69
26879162,-0.002441,-0.001472,-0.00111,0.0,-0.33,9.81,30.66
26880170,-0.001376,-0.000407,-4.5e-05,0.0,-0.33,9.83,30.68
26881182,0.000755,0.000659,0.00102,0.0,-0.31,9.84,30.7
26882191,0.000755,-0.000407,-4.5e-05,0.0,-0.31,9.82,30.69
26883202,0.000755,-0.001472,-0.00111,0.02,-0.32,9.78,30.67
26884228,0.00182,-0.000407,-0.00111,0.0,-0.31,9.78,30.67
26885222,0.00182,0.000659,-4.5e-05,0.0,-0.33,9.82,30.68
26886230,-0.000311,-0.000407,-4.5e-05,0.01,-0.32,9.84,30.69
26887244,-0.000311,0.000659,0.00102,0.0,-0.31,9.83,30.7
26888250,0.000755,0.003854,0.002086,0.03,-0.32,9.81,30.67
26889262,-0.000311,0.001724,0.003151,0.05,-0.29,9.8,30.65
26890270,-0.002441,-0.001472,0.002086,0.04,-0.29,9.78,30.67
26891282,-0.002441,-0.002537,-0.00111,0.05,-0.32,9.81,30.66
26892291,-0.002441,-0.001472,-0.002175,0.08,-0.33,9.85,30.67
26893302,-0.001376,-0.000407,-0.002175,0.05,-0.35,9.81,30.66
26894317,-0.000311,0.001724,-0.00111,0.01,-0.34,9.77,30.65
26895322,0.00182,0.002789,0.002086,0.02,-0.3,9.79,30.63
26896330,0.00182,0.000659,0.003151,0.04,-0.29,9.83,30.63
26897375,-0.000333,-0.002545,0.003145,0.03,-0.32,9.85,30.64
26898354,0.000732,-0.00148,0.001015,0.02,-0.34,9.83,30.63
26899362,-0.000333,0.00065,0.001015,0.02,-0.3,9.84,30.65
26900370,-0.003529,0.002781,0.001015,0.03,-0.3,9.82,30.65
26901382,-0.003529,0.002781,0.001015,0.01,-0.32,9.83,30.64
26902391,-0.001399,0.002781,0.001015,0.0,-0.33,9.85,30.64
26903402,-0.000333,0.001716,-5e-05,0.0,-0.31,9.82,30.65
26904418,0.000732,-0.000415,-0.002181,0.01,-0.3,9.81,30.65
26905422,0.001797,-0.002545,-0.002181,0.03,-0.34,9.79,30.66
26906430,0.000732,-0.002545,-0.001116,0.02,-0.33,9.8,30.67
26907444,-0.001399,-0.00148,-5e-05,0.02,-0.29,9.82,30.66
26908450,-0.004594,-0.000415,-5e-05,0.05,-0.32,9.8,30.65
26909462,-0.004594,-0.000415,0.001015,0.04,-0.34,9.85,30.67
26910470,-0.004594,-0.000415,0.00208,0.02,-0.33,9.84,30.71
26911482,-0.003529,0.00065,0.001015,0.02,-0.3,9.81,30.66
26912491,-0.001399,0.002781,-0.002181,0.03,-0.3,9.85,30.64
26913511,0.000732,0.004912,-0.001116,0.03,-0.29,9.81,30.64
26914510,0.002863,0.004912,0.00208,0.03,-0.3,9.78,30.65
26915522,0.003928,0.001716,0.00208,0.03,-0.31,9.86,30.68
26916530,0.002863,-0.000415,0.00208,0.06,-0.31,9.86,30.66
26917542,0.001797,-0.000415,-5e-05,0.06,-0.29,9.79,30.65
26918550,0.001797,-0.000415,-0.002181,0.04,-0.29,9.76,30.62
26919562,0.000732,-0.000415,-0.003246,0.03,-0.28,9.76,30.67
26920578,0.000732,-0.000415,-0.001116,0.03,-0.28,9.83,30.7
26921585,0.000732,-0.000415,0.00208,0.04,-0.32,9.85,30.66
26922650,0.001797,0.00065,0.00208,0.05,-0.35,9.78,30.67
26923614,0.002863,0.002781,-0.001116,0.02,-0.34,9.75,30.7
26924613,0.002863,0.001716,-0.003246,0.01,-0.3,9.8,30.68
26925634,0.001797,0.00065,-0.002181,0.02,-0.3,9.83,30.64
26926638,0.000732,0.002781,-5e-05,-0.01,-0.3,9.83,30.63
26927651,-0.001399,0.002781,0.001015,-0.01,-0.33,9.83,30.64
26928661,-0.001399,-0.000415,-5e-05,0.03,-0.34,9.8,30.67
26929672,-0.000333,-0.00148,-0.001116,0.04,-0.34,9.82,30.66
26930683,0.001797,0.001716,-0.002181,0.04,-0.32,9.81,30.64
26931690,0.001797,0.002781,-0.001116,0.05,-0.31,9.78,30.67
26932700,-0.000333,0.001716,0.001015,0.04,-0.34,9.83,30.67
26933723,-0.001399,0.00065,0.001015,0.04,-0.37,9.81,30.67
26934721,0.000732,-0.000415,-5e-05,0.05,-0.35,9.79,30.68
26935734,0.001797,0.00065,-5e-05,0.05,-0.31,9.82,30.67
26936740,-0.000333,0.002781,-0.001116,-0.01,-0.33,9.83,30.66
26937751,-0.000333,0.001716,-0.001116,-0.02,-0.32,9.85,30.64
26938763,0.002863,0.00065,-5e-05,0.03,-0.32,9.86,30.63
26939770,0.003928,0.001716,-5e-05,0.06,-0.32,9.89,30.6
26940774,0.002863,0.00065,-0.001116,0.08,-0.29,9.89,30.64
26941786,0.001797,-0.00148,-0.002181,0.05,-0.29,9.85,30.66
26942792,0.000732,-0.003611,-5e-05,0.04,-0.29,9.82,30.67
26943813,-0.003529,-0.002545,0.00208,0.03,-0.32,9.82,30.7
26944814,-0.002464,-0.000415,0.003145,0.03,-0.34,9.84,30.67
26945825,0.000732,-0.000415,-5e-05,0.04,-0.31,9.86,30.68
26946834,0.001797,-0.00148,-0.002181,0.03,-0.3,9.82,30.67
26947846,-0.000333,-0.00148,-0.002181,0.02,-0.31,9.8,30.67
26948851,-0.000333,-0.000415,-0.001116,0.04,-0.33,9.8,30.7
26949862,0.001797,0.001716,-0.001116,0.02,-0.36,9.84,30.69
26950870,0.002863,0.001716,-0.001116,0.02,-0.34,9.87,30.64
26951882,0.001797,-0.00148,-0.001116,0.03,-0.32,9.82,30.66
26952891,0.001797,-0.004676,-0.001116,0.02,-0.34,9.82,30.67
26953911,-0.000333,-0.003611,-5e-05,-0.02,-0.31,9.87,30.68
26954910,-0.002464,-0.000415,-5e-05,-0.02,-0.29,9.87,30.66
26955922,-0.003529,0.001716,0.001015,0.01,-0.34,9.82,30.64
26956930,-0.004594,0.001716,-5e-05,0.02,-0.34,9.78,30.61
26957942,-0.003529,-0.00148,-0.001116,0.01,-0.32,9.81,30.62
26958950,-0.002464,-0.004676,-0.001116,0.02,-0.33,9.86,30.65
26959962,-0.000333,-0.003611,-5e-05,0.05,-0.32,9.86,30.66
26960970,-0.000333,-0.002545,-5e-05,0.02,-0.31,9.83,30.63
26961982,-0.001399,-0.000415,0.001015,0.0,-0.32,9.76,30.67
26962991,-0.000333,0.00065,0.00208,0.01,-0.31,9.75,30.68
26964009,-0.000333,0.001716,0.001015,0.01,-0.3,9.79,30.66
26965010,-0.000333,0.001716,-5e-05,0.0,-0.3,9.86,30.68
26966022,-0.000333,0.001716,0.001015,0.05,-0.33,9.87,30.67
26967030,0.000732,0.001716,0.001015,0.05,-0.35,9.79,30.66
26968044,0.000732,0.002781,0.00208,0.05,-0.34,9.81,30.67
26969050,0.000732,0.002781,0.003145,0.04,-0.34,9.85,30.65
26970062,-0.000333,0.001716,0.00208,0.03,-0.32,9.83,30.66
26971070,-0.001399,0.00065,-5e-05,0.05,-0.3,9.8,30.63
26972082,-0.001399,-0.000415,-0.001116,0.02,-0.34,9.82,30.68
26973091,0.000732,-0.000415,0.001015,0.01,-0.37,9.83,30.65
26974111,0.002863,-0.000415,0.00208,0.0,-0.33,9.79,30.68
26975110,0.002863,-0.000415,0.00208,0.02,-0.31,9.77,30.68
26976122,0.001797,-0.00148,0.001015,0.03,-0.33,9.8,30.63
26977130,0.000732,-0.002545,0.001015,0.04,-0.37,9.81,30.64
26978142,0.000732,-0.002545,-5e-05,0.04,-0.36,9.79,30.67
26979150,0.000732,-0.002545,-5e-05,0.01,-0.3,9.82,30.65
26980162,0.001797,-0.00148,-0.001116,0.02,-0.29,9.85,30.66
26981170,0.001797,-0.00148,-0.003246,0.04,-0.31,9.82,30.64
26982182,0.001797,-0.00148,-0.001116,0.01,-0.32,9.79,30.66
26983238,0.000732,0.00065,0.00208,0.01,-0.33,9.81,30.67
26984256,-0.001399,0.002781,0.00208,0.03,-0.33,9.82,30.65
26985242,-0.002464,0.002781,-5e-05,0.02,-0.33,9.8,30.65
26986222,-0.003529,0.001716,-5e-05,0.04,-0.33,9.81,30.7
26987230,-0.002464,0.00065,-5e-05,0.06,-0.3,9.81,30.69
26988244,-0.001399,0.00065,0.001015,0.05,-0.31,9.79,30.68
26989250,-0.002464,0.001716,0.001015,0.04,-0.32,9.79,30.68
26990262,-0.002464,0.001716,-0.001116,0.0,-0.33,9.78,30.68
26991270,-0.001399,-0.000415,-0.003246,0.02,-0.33,9.8,30.63
26992282,0.001797,-0.00148,-0.004312,0.06,-0.31,9.84,30.66
26993291,0.001797,-0.000415,-0.003246,0.01,-0.3,9.84,30.66
26994311,0.001797,0.00065,-0.003246,0.02,-0.31,9.82,30.66
26995310,0.001797,0.002781,-0.003246,0.02,-0.34,9.8,30.65
26996322,0.000732,0.001716,-0.002181,0.0,-0.35,9.82,30.63
26997330,0.000732,0.00065,-0.001116,0.0,-0.32,9.82,30.63
26998342,0.003928,-0.000415,-0.002181,0.03,-0.33,9.81,30.65
26999350,0.001797,-0.00148,-0.002181,0.01,-0.32,9.78,30.65
27000362,-0.001399,-0.002545,-0.001116,0.0,-0.33,9.78,30.63
27001370,-0.001399,-0.00148,-5e-05,0.03,-0.36,9.82,30.64
27002382,-0.003529,-0.00148,-5e-05,0.05,-0.36,9.82,30.64
27003401,-0.003529,-0.003611,-5e-05,0.03,-0.33,9.79,30.65
27004402,-0.001399,-0.002545,-5e-05,0.01,-0.33,9.79,30.64
27005410,-0.000333,-0.00148,0.001015,0.02,-0.29,9.81,30.64
27006422,0.000732,-0.000415,0.001015,0.05,-0.3,9.82,30.61
27007430,-0.000333,-0.00148,0.00208,0.04,-0.31,9.8,30.66
27008444,-0.001399,-0.004676,0.00208,0.02,-0.32,9.77,30.65
27009450,-0.001399,-0.004676,0.001015,0.04,-0.32,9.77,30.67
27010462,-0.001399,-0.002545,0.001015,0.04,-0.29,9.81,30.61
27011470,-0.002464,-0.00148,0.001015,0.01,-0.29,9.85,30.61
27012482,-0.001399,-0.000415,0.00208,0.03,-0.32,9.84,30.66
27013500,-0.000333,-0.000415,0.001015,0.04,-0.33,9.84,30.63
27014502,-0.001399,0.001716,-0.001116,0.05,-0.3,9.83,30.66
27015510,-0.003529,0.001716,-0.002181,0.06,-0.3,9.82,30.65
27016522,-0.003529,0.001716,-0.001116,0.03,-0.31,9.82,30.66
27017530,-0.001399,0.001716,-0.001116,0.04,-0.31,9.8,30.65
27018542,0.000732,-0.000415,-0.001116,0.02,-0.29,9.83,30.67
27019550,0.001797,-0.000415,-0.001116,-0.01,-0.3,9.84,30.66
27020562,0.001797,0.002781,-5e-05,0.0,-0.32,9.8,30.63
27021577,0.001797,0.004912,0.001015,0.03,-0.31,9.83,30.66
27022586,0.000732,0.003846,0.001015,0.03,-0.29,9.83,30.68
27023604,0.001797,0.001716,0.001015,0.04,-0.27,9.8,30.71
27024629,0.002863,-0.000415,-0.002181,0.06,-0.28,9.81,30.7
27025650,0.002863,-0.002545,-0.004312,0.03,-0.3,9.81,30.71
27026674,0.002865,-0.001489,-0.002158,0.01,-0.32,9.78,30.67
27027641,0.002865,0.000641,0.001038,0.02,-0.34,9.75,30.66
27028649,0.000734,-0.000424,-2.7e-05,0.01,-0.35,9.78,30.63
27029660,-0.000331,-0.000424,-0.002158,0.01,-0.34,9.84,30.64
27030671,-0.000331,-0.000424,-0.002158,0.01,-0.32,9.81,30.63
27031680,0.000734,-0.000424,-2.7e-05,0.02,-0.28,9.8,30.61
27032688,0.000734,0.001707,0.001038,0.03,-0.29,9.83,30.63
27033714,0.000734,0.002772,0.001038,0.03,-0.32,9.82,30.64
27034714,0.001799,0.001707,-0.001093,0.04,-0.32,9.84,30.65
27035718,0.002865,0.000641,-0.003223,0.04,-0.32,9.84,30.66
27036731,0.002865,0.000641,-0.002158,0.03,-0.31,9.81,30.64
27037740,0.00393,0.000641,-2.7e-05,0.01,-0.31,9.77,30.63
27038750,0.00393,0.000641,0.001038,0.04,-0.31,9.79,30.64
27039761,0.001799,0.000641,0.001038,0.04,-0.3,9.81,30.66
27040770,0.001799,-0.000424,0.001038,0.04,-0.32,9.78,30.63
27041774,0.000734,0.000641,0.001038,0.01,-0.31,9.79,30.68
27042786,0.000734,0.001707,-2.7e-05,-0.04,-0.33,9.86,30.68
27043801,0.000734,0.001707,-0.001093,-0.02,-0.35,9.88,30.65
27044806,-0.000331,0.002772,-0.001093,0.03,-0.34,9.82,30.6
27045814,-0.002462,0.002772,-2.7e-05,0.04,-0.32,9.78,30.62
27046826,-0.003527,0.003837,0.002103,0.03,-0.33,9.8,30.65
27047834,-0.000331,0.002772,0.002103,0.02,-0.33,9.82,30.64
27048846,0.002865,0.000641,-2.7e-05,0.03,-0.3,9.83,30.66
27049851,0.000734,0.001707,-2.7e-05,0.04,-0.32,9.84,30.68
27050862,-0.000331,0.001707,0.001038,0.0,-0.34,9.82,30.69
27051870,-0.000331,0.001707,-0.001093,-0.02,-0.32,9.87,30.67
27052882,0.000734,-0.000424,-0.002158,0.01,-0.33,9.88,30.63
27053899,0.000734,-0.001489,-0.001093,0.03,-0.33,9.84,30.65
27054902,-0.000331,0.000641,0.001038,0.04,-0.29,9.82,30.68
27055910,-0.001396,0.001707,0.002103,0.05,-0.3,9.84,30.7
27056922,-0.001396,0.000641,0.002103,0.04,-0.31,9.88,30.7
27057930,-0.000331,-0.000424,-2.7e-05,-0.01,-0.29,9.86,30.66
27058942,-0.000331,-0.001489,-0.002158,-0.01,-0.3,9.87,30.64
27059950,-0.001396,-0.001489,-0.001093,0.04,-0.31,9.85,30.67
27060962,-0.000331,-0.001489,0.001038,0.04,-0.31,9.79,30.6
27061970,-0.001396,-0.000424,0.003168,0.03,-0.32,9.77,30.63
27062982,-0.000331,-0.000424,0.002103,0.03,-0.29,9.78,30.66
27064001,0.002865,0.000641,0.001038,0.02,-0.29,9.83,30.68
27065002,0.00393,0.000641,-0.001093,0.02,-0.32,9.85,30.65
27066010,0.00393,-0.000424,-0.001093,0.02,-0.32,9.81,30.65
27067022,0.002865,-0.001489,-2.7e-05,0.04,-0.31,9.8,30.66
27068030,0.001799,-0.001489,-2.7e-05,0.01,-0.32,9.81,30.66
27069044,0.001799,-0.000424,0.002103,0.02,-0.34,9.8,30.67
27070050,0.001799,0.000641,0.001038,0.03,-0.35,9.79,30.63
27071062,0.001799,0.002772,-0.002158,0.01,-0.34,9.79,30.63
27072070,-0.000331,0.002772,-0.005354,0.0,-0.34,9.85,30.6
27073082,-0.001396,-0.000424,-0.003223,0.01,-0.31,9.89,30.63
27074099,-0.000331,-0.001489,-0.001093,0.01,-0.29,9.86,30.71
27075102,0.001799,0.000641,-0.001093,0.02,-0.32,9.82,30.75
27076110,0.002865,0.001707,-2.7e-05,0.04,-0.31,9.82,30.69
27077122,0.002865,-0.001489,0.002103,0.05,-0.32,9.83,30.64
27078130,0.002865,-0.004685,0.002103,0.07,-0.34,9.87,30.64
27079142,0.000734,-0.00362,0.001038,0.04,-0.31,9.81,30.65
27080150,-0.000331,0.000641,0.001038,0.02,-0.27,9.78,30.66
27081162,-0.002462,0.002772,0.001038,0.03,-0.29,9.82,30.64
27082170,-0.002462,0.000641,-2.7e-05,0.04,-0.28,9.77,30.64
27083182,-0.002462,-0.000424,-2.7e-05,0.04,-0.29,9.79,30.65
27084201,-0.002462,-0.000424,-0.001093,0.04,-0.34,9.78,30.66
27085202,-0.000331,0.001707,-0.002158,0.04,-0.33,9.78,30.64
27086210,0.000734,0.001707,-0.001093,0.01,-0.31,9.78,30.66
27087222,-0.000331,0.002772,-2.7e-05,0.02,-0.32,9.77,30.67
27088230,0.000734,0.001707,-0.001093,0.03,-0.31,9.79,30.67
27089244,0.001799,-0.000424,-0.002158,0.03,-0.31,9.81,30.65
27090250,0.002865,-0.002555,-0.001093,0.04,-0.28,9.84,30.65
27091262,0.001799,-0.00362,-2.7e-05,0.04,-0.28,9.84,30.64
27092269,-0.001396,-0.00362,-2.7e-05,0.02,-0.34,9.83,30.64
27093281,-0.001396,-0.001489,0.001038,0.02,-0.31,9.84,30.64
27094298,0.001799,-0.000424,0.001038,0.02,-0.29,9.83,30.67
27095301,0.002865,-0.000424,0.001038,0.01,-0.31,9.82,30.7
27096309,-0.000331,-0.000424,0.001038,0.02,-0.33,9.79,30.73
27097321,-0.002462,0.000641,0.001038,-0.02,-0.3,9.85,30.67
27098329,-0.000331,-0.000424,-2.7e-05,0.0,-0.29,9.81,30.67
27099341,-0.001396,-0.002555,-2.7e-05,0.05,-0.31,9.84,30.68
27100349,-0.000331,-0.00362,-2.7e-05,0.04,-0.34,9.85,30.67
27101362,-0.000331,-0.00362,-0.002158,0.01,-0.35,9.81,30.65
27102370,-0.001396,-0.002555,-0.001093,0.02,-0.34,9.82,30.65
27103382,-0.002462,-0.001489,0.001038,0.03,-0.32,9.83,30.67
27104399,0.001799,-0.001489,0.002103,0.05,-0.31,9.81,30.63
27105401,0.002865,-0.002555,0.001038,0.05,-0.29,9.82,30.65
27106410,0.001799,-0.001489,-2.7e-05,0.03,-0.31,9.87,30.64
27107422,-0.000331,0.000641,-0.001093,0.03,-0.31,9.88,30.63
27108430,-0.002462,0.001707,-0.001093,0.03,-0.31,9.87,30.61
27109444,-0.002462,-0.000424,-0.001093,0.0,-0.32,9.87,30.64
27110450,-0.000331,-0.00362,-2.7e-05,0.0,-0.31,9.83,30.67
27111462,0.001799,-0.00362,0.002103,0.03,-0.3,9.86,30.67
27112470,0.002865,-0.001489,0.003168,0.04,-0.3,9.87,30.67
27113491,0.001799,0.000641,0.002103,0.04,-0.3,9.81,30.7
27114491,0.000734,-0.000424,0.003168,0.06,-0.34,9.84,30.69
27115502,-0.000331,-0.000424,0.004234,0.07,-0.35,9.84,30.67
27116510,0.001799,-0.002555,0.003168,0.06,-0.31,9.85,30.63
27117522,0.001799,-0.001489,0.002103,0.03,-0.31,9.87,30.64
27118530,0.000734,0.000641,0.001038,0.04,-0.34,9.84,30.64
27119542,0.001799,0.002772,0.001038,0.06,-0.34,9.82,30.64
27120555,-0.000331,0.003837,-2.7e-05,0.05,-0.29,9.82,30.65
27121562,-0.001396,0.001707,-0.002158,0.04,-0.29,9.83,30.63
27122578,0.000734,-0.001489,-0.003223,0.02,-0.32,9.82,30.64
27123592,0.001799,-0.00362,-0.004288,0.05,-0.33,9.81,30.66
27124595,0.000734,-0.00362,-0.002158,0.06,-0.33,9.83,30.67
27125607,0.000734,-0.000424,-2.7e-05,0.05,-0.33,9.81,30.62
27126616,-0.000331,0.000641,0.001038,0.03,-0.31,9.8,30.65
27127644,-0.000331,-0.000424,0.002103,0.01,-0.31,9.78,30.68
27128646,0.000734,-0.001489,0.003168,0.01,-0.32,9.8,30.68
27129652,-0.000331,0.000641,0.003168,0.02,-0.31,9.88,30.66
27130659,-0.001396,0.000641,0.002103,0.04,-0.35,9.85,30.68
27131671,-0.001396,0.000641,0.001038,0.04,-0.35,9.79,30.68
27132685,-0.000331,0.002772,-2.7e-05,0.06,-0.33,9.78,30.62
27133696,0.000734,0.003837,-2.7e-05,0.04,-0.31,9.81,30.58
27134701,0.000734,0.002772,0.001038,0.01,-0.29,9.82,30.61
27135714,-0.000331,0.000641,0.002103,0.0,-0.29,9.83,30.64
27136726,-0.000331,-0.001489,-2.7e-05,0.0,-0.3,9.82,30.65
27137730,0.000734,-0.002555,-2.7e-05,0.03,-0.31,9.77,30.7
27138740,0.000734,-0.00362,0.001038,0.01,-0.34,9.81,30.68
27139751,0.001799,-0.00575,0.003168,0.0,-0.34,9.82,30.66
27140763,0.001799,-0.00362,0.004234,0.04,-0.31,9.8,30.62
27141771,0.001799,-0.002555,0.002103,0.04,-0.29,9.83,30.62
27142776,0.000734,-0.001489,0.002103,0.0,-0.3,9.86,30.64
27143793,-0.000331,-0.000424,0.001038,-0.02,-0.32,9.89,30.64
27144791,-0.001396,0.001707,0.001038,0.0,-0.33,9.84,30.61
27145809,-0.002462,-0.000424,0.003168,0.03,-0.33,9.78,30.65
27146814,-0.001396,-0.001489,0.002103,0.04,-0.33,9.83,30.64
27147826,-0.000331,-0.000424,-2.7e-05,0.04,-0.32,9.86,30.61
27148834,-0.000331,0.002772,-2.7e-05,0.02,-0.32,9.83,30.62
27149846,-0.000331,0.005968,0.001038,0.03,-0.32,9.85,30.65
27150851,0.000734,0.002772,-2.7e-05,0.03,-0.32,9.86,30.66
27151862,0.001799,-0.000424,-0.001093,0.0,-0.3,9.85,30.65
27152870,0.000734,-0.000424,-2.7e-05,0.0,-0.27,9.84,30.66
27153891,0.001799,0.001707,-0.001093,0.02,-0.28,9.81,30.64
27154891,-0.000331,0.000641,-0.001093,0.03,-0.31,9.82,30.63
27155933,-0.001448,-0.001477,-6.2e-05,0.04,-0.3,9.83,30.63
27156914,-0.000382,-0.001477,-6.2e-05,0.03,-0.27,9.86,30.63
27157922,0.001748,-0.000412,-0.001127,0.0,-0.29,9.86,30.64
27158930,0.001748,0.000653,-0.001127,0.02,-0.3,9.85,30.65
27159942,-0.000382,0.000653,-0.001127,0.03,-0.31,9.87,30.63
27160950,-0.001448,0.000653,-6.2e-05,0.01,-0.34,9.86,30.61
27161962,0.000683,-0.001477,0.001003,0.03,-0.33,9.85,30.6
27162970,0.001748,-0.001477,0.001003,0.04,-0.29,9.81,30.63
27163989,-0.000382,-0.000412,-6.2e-05,0.03,-0.31,9.77,30.64
27164991,-0.000382,0.002784,-0.001127,0.04,-0.31,9.82,30.66
27166002,0.000683,0.001719,-0.001127,0.06,-0.3,9.83,30.66
27167010,0.001748,-0.000412,-6.2e-05,0.03,-0.29,9.82,30.67
27168022,0.000683,-0.001477,-0.001127,0.01,-0.29,9.79,30.66
27169030,-0.001448,0.000653,-0.001127,0.03,-0.32,9.82,30.68
27170044,-0.000382,0.002784,-0.001127,0.02,-0.33,9.87,30.67
27171050,0.000683,0.002784,-0.002193,0.0,-0.31,9.8,30.66
27172062,-0.000382,0.001719,-0.002193,0.01,-0.3,9.82,30.7
27173070,-0.000382,0.000653,-0.002193,0.01,-0.33,9.87,30.68
27174091,-0.000382,0.000653,-0.002193,0.02,-0.32,9.87,30.66
27175091,0.001748,0.000653,-0.003258,0.04,-0.3,9.84,30.68
27176102,0.001748,0.001719,-0.004323,0.01,-0.33,9.8,30.67
27177110,-0.000382,0.000653,-0.002193,-0.01,-0.35,9.8,30.73
27178122,-0.001448,-0.000412,-0.001127,0.01,-0.32,9.83,30.7
27179130,-0.000382,-0.002543,-0.001127,0.02,-0.32,9.84,30.67
27180142,-0.000382,-0.002543,-0.002193,0.0,-0.32,9.84,30.69
27181150,-0.001448,-0.001477,-0.003258,0.01,-0.31,9.86,30.64
27182162,-0.002513,-0.000412,-0.002193,0.04,-0.32,9.89,30.64
27183170,-0.000382,0.000653,-0.001127,0.02,-0.3,9.88,30.64
27184189,0.000683,0.001719,-0.001127,0.0,-0.3,9.86,30.66
27185191,0.001748,0.000653,-6.2e-05,0.01,-0.31,9.86,30.67
27186202,0.000683,-0.001477,0.002068,0.03,-0.31,9.82,30.64
27187210,0.001748,-0.001477,0.001003,0.04,-0.33,9.82,30.63
27188222,0.001748,-0.000412,-0.001127,0.02,-0.35,9.85,30.64
27189230,-0.000382,-0.000412,-0.003258,0.03,-0.35,9.84,30.64
27190244,-0.000382,-0.000412,-0.003258,0.03,-0.32,9.83,30.66
27191250,0.000683,0.000653,-0.003258,0.01,-0.34,9.86,30.66
27192262,0.001748,-0.000412,-0.001127,0.02,-0.35,9.85,30.62
27193270,0.001748,-0.001477,0.002068,0.03,-0.31,9.86,30.64
27194291,0.000683,-0.001477,0.003134,0.04,-0.3,9.88,30.66
27195291,0.000683,-0.000412,0.001003,0.01,-0.31,9.86,30.68
27196302,0.000683,-0.000412,0.001003,0.01,-0.31,9.84,30.66
27197310,0.000683,-0.003608,0.001003,0.03,-0.38,9.77,30.65
27198322,0.002813,-0.003608,-6.2e-05,0.03,-0.34,9.77,30.66
27199330,0.002813,-0.002543,-6.2e-05,0.03,-0.32,9.78,30.66
27200342,0.001748,-0.001477,0.001003,0.0,-0.32,9.82,30.63
27201350,0.000683,-0.002543,0.001003,0.01,-0.29,9.82,30.57
27202362,0.001748,-0.004673,-6.2e-05,0.03,-0.34,9.81,30.62
27203370,0.001748,-0.001477,0.001003,0.02,-0.36,9.82,30.66
27204389,-0.000382,0.000653,0.001003,0.01,-0.32,9.77,30.65
27205391,-0.001448,0.001719,0.002068,0.02,-0.31,9.72,30.63
27206402,-0.000382,0.001719,0.001003,0.02,-0.32,9.78,30.69
27207410,-0.000382,0.001719,-6.2e-05,0.02,-0.33,9.84,30.67
27208422,0.001748,0.001719,-0.001127,0.05,-0.31,9.85,30.65
27209430,0.001748,0.001719,-0.001127,0.04,-0.32,9.82,30.64
27210444,0.000683,-0.000412,-0.001127,-0.01,-0.35,9.82,30.64
27211450,-0.002513,-0.002543,-6.2e-05,-0.02,-0.33,9.84,30.63
27212462,-0.001448,-0.004673,-0.001127,0.03,-0.34,9.82,30.62
27213477,0.000683,-0.005738,-0.001127,0.04,-0.34,9.81,30.6
27214482,0.000683,-0.005738,-0.001127,0.03,-0.32,9.85,30.64
27215491,0.000683,-0.004673,-0.002193,0.03,-0.3,9.83,30.66
27216502,0.001748,-0.002543,-0.001127,0.05,-0.28,9.8,30.65
27217510,0.003879,-0.000412,-6.2e-05,0.04,-0.31,9.79,30.67
27218522,0.002813,0.002784,0.001003,0.05,-0.37,9.78,30.65
27219530,-0.000382,0.002784,0.001003,0.05,-0.34,9.83,30.64
27220542,-0.002513,0.001719,-6.2e-05,0.02,-0.3,9.81,30.64
27221550,-0.000382,0.000653,-0.001127,0.01,-0.31,9.77,30.67
27222562,-0.000382,0.000653,-0.002193,0.05,-0.33,9.77,30.67
27223581,-0.000382,-0.000412,-0.001127,0.04,-0.32,9.75,30.68
27224585,-0.000382,-0.000412,-6.2e-05,0.03,-0.3,9.75,30.66
27225600,0.000683,0.000653,0.001003,0.06,-0.29,9.79,30.66
27226609,0.000683,0.001719,0.001003,0.05,-0.32,9.81,30.66
27227615,-0.000382,0.001719,-6.2e-05,0.04,-0.33,9.8,30.67
27228628,0.000683,0.001719,-0.002193,0.09,-0.33,9.82,30.67
27229677,0.001748,0.002784,-0.001127,0.07,-0.35,9.84,30.64
27230653,0.001748,0.003849,-6.2e-05,0.03,-0.35,9.87,30.64
27231659,-0.000382,0.002784,-6.2e-05,0.04,-0.33,9.84,30.64
27232673,-0.000382,0.001719,-0.001127,0.04,-0.31,9.81,30.67
27233685,0.001748,0.000653,-0.001127,0.03,-0.31,9.81,30.72
27234687,0.001748,0.001719,-0.002193,-0.01,-0.32,9.83,30.69
27235699,-0.001448,0.003849,-0.001127,-0.01,-0.33,9.82,30.69
27236713,-0.001448,0.003849,-6.2e-05,0.01,-0.32,9.83,30.67
27237718,0.000683,0.001719,-6.2e-05,0.03,-0.31,9.85,30.66
27238730,0.002813,-0.000412,0.001003,0.05,-0.31,9.82,30.67
27239738,0.000683,-0.000412,0.002068,0.03,-0.33,9.79,30.65
27240751,0.000683,-0.001477,0.003134,0.02,-0.34,9.8,30.64
27241761,0.000683,-0.002543,0.001003,0.03,-0.33,9.8,30.61
27242768,0.000683,-0.002543,-0.001127,0.01,-0.3,9.8,30.66
27243780,-0.000382,-0.001477,-0.001127,0.0,-0.29,9.83,30.65
27244784,-0.001448,-0.001477,0.001003,0.03,-0.29,9.86,30.66
27245798,-0.001448,-0.001477,0.002068,0.04,-0.31,9.82,30.64
27246804,-0.000382,-0.002543,0.003134,0.02,-0.31,9.82,30.66
27247813,0.000683,-0.002543,0.003134,0.0,-0.29,9.86,30.65
27248824,0.000683,-0.001477,0.002068,0.02,-0.29,9.84,30.62
27249834,-0.000382,0.000653,0.002068,0.02,-0.3,9.84,30.6
27250846,0.000683,0.001719,0.003134,-0.01,-0.31,9.87,30.64
27251851,0.001748,-0.000412,0.002068,-0.01,-0.33,9.86,30.66
27252862,0.000683,-0.000412,-6.2e-05,0.01,-0.34,9.83,30.67
27253877,-0.001448,0.001719,-6.2e-05,0.07,-0.33,9.8,30.67
27254882,-0.001448,0.002784,-6.2e-05,0.08,-0.33,9.82,30.67
27255891,-0.002513,0.003849,-6.2e-05,0.04,-0.32,9.81,30.62
27256902,-0.003578,0.002784,-6.2e-05,0.04,-0.33,9.82,30.68
27257910,-0.003578,0.002784,0.001003,0.04,-0.37,9.85,30.69
27258922,-0.002513,0.001719,0.001003,0.04,-0.33,9.81,30.71
27259930,-0.000382,-0.000412,-6.2e-05,0.03,-0.28,9.79,30.68
27260942,-0.000382,-0.001477,-0.001127,0.0,-0.31,9.78,30.64
27261950,0.000683,-0.001477,-6.2e-05,0.0,-0.31,9.77,30.63
27262962,-0.001448,-0.000412,0.001003,0.01,-0.29,9.82,30.64
27263978,-0.003578,-0.000412,-0.001127,0.02,-0.3,9.83,30.61
27264982,-0.000382,-0.002543,-0.002193,0.04,-0.33,9.79,30.64
27265991,0.001748,-0.002543,-0.001127,0.03,-0.34,9.76,30.66
27267002,0.003879,-0.002543,0.003134,0.06,-0.32,9.77,30.66
27268010,0.003879,-0.001477,0.004199,0.08,-0.29,9.83,30.66
27269022,0.001748,-0.002543,0.002068,0.04,-0.29,9.84,30.67
27270030,-0.000382,-0.000412,-0.001127,0.01,-0.3,9.81,30.65
27271044,-0.002513,0.002784,-0.001127,0.02,-0.31,9.79,30.63
27272050,-0.004644,0.004914,0.001003,0.05,-0.31,9.8,30.66
27273062,-0.004644,0.001719,0.002068,0.06,-0.28,9.83,30.63
27274077,-0.002513,-0.000412,0.003134,0.02,-0.28,9.84,30.62
27275082,0.000683,-0.000412,0.002068,0.01,-0.32,9.84,30.62
27276091,0.001748,0.000653,0.002068,0.02,-0.32,9.84,30.62
27277102,0.002813,0.000653,0.002068,0.0,-0.33,9.85,30.59
27278110,0.001748,-0.000412,0.003134,0.01,-0.33,9.84,30.63
27279122,0.000683,0.000653,0.002068,0.01,-0.3,9.82,30.63
27280130,0.000683,-0.000412,-0.001127,0.02,-0.29,9.78,30.66
27281142,0.000683,-0.001477,-0.001127,0.03,-0.3,9.78,30.66
27282150,0.001748,-0.002543,-6.2e-05,0.04,-0.3,9.78,30.69
27283162,0.001748,-0.001477,0.001003,0.05,-0.31,9.82,30.67
27284178,0.000683,-0.001477,0.002068,0.05,-0.32,9.84,30.68
27285216,-0.00041,-0.000396,0.001008,0.03,-0.31,9.8,30.69
27286195,0.000656,0.000669,-5.8e-05,-0.01,-0.3,9.84,30.66
27287202,0.002786,0.000669,-0.001123,0.01,-0.29,9.86,30.69
27288210,0.002786,-0.000396,-0.001123,0.0,-0.32,9.86,30.69
27289222,0.001721,-0.000396,-5.8e-05,0.0,-0.33,9.85,30.64
27290230,-0.00041,0.000669,0.001008,0.0,-0.32,9.8,30.64
27291244,-0.001475,0.001734,0.001008,0.04,-0.33,9.81,30.63
27292250,-0.00254,0.000669,0.001008,0.06,-0.33,9.82,30.66
27293262,-0.001475,0.000669,-5.8e-05,0.03,-0.31,9.8,30.69
27294277,-0.00041,0.002799,0.001008,0.01,-0.32,9.81,30.66
27295282,-0.00041,0.002799,0.001008,0.02,-0.32,9.81,30.64
27296291,-0.00041,-0.000396,0.001008,0.05,-0.28,9.77,30.65
27297302,-0.001475,-0.000396,-5.8e-05,0.02,-0.3,9.83,30.64
27298310,-0.00254,-0.000396,-0.001123,0.04,-0.34,9.85,30.65
27299322,-0.00254,-0.001462,-0.001123,0.02,-0.33,9.87,30.67
27300330,-0.001475,-0.002527,-5.8e-05,-0.01,-0.32,9.78,30.64
27301342,0.000656,-0.002527,0.001008,0.03,-0.35,9.78,30.65
27302350,0.001721,-0.001462,0.001008,0.05,-0.34,9.82,30.68
27303362,0.002786,0.000669,-5.8e-05,0.03,-0.32,9.81,30.68
27304378,0.001721,0.000669,-0.002188,0.0,-0.32,9.83,30.64
27305382,0.001721,0.001734,-0.002188,0.0,-0.34,9.88,30.65
27306391,0.001721,0.002799,-0.002188,0.02,-0.34,9.87,30.64
27307402,0.000656,0.003865,-0.002188,0.04,-0.32,9.84,30.71
27308410,-0.00041,0.002799,-0.002188,0.05,-0.3,9.85,30.68
27309422,0.000656,-0.000396,-5.8e-05,0.03,-0.31,9.85,30.64
27310430,0.001721,-0.001462,-5.8e-05,0.0,-0.32,9.84,30.61
27311444,0.001721,-0.000396,-5.8e-05,0.02,-0.31,9.81,30.67
27312450,-0.00041,0.000669,-5.8e-05,0.03,-0.32,9.82,30.67
27313471,-0.00254,-0.001462,-5.8e-05,0.01,-0.32,9.83,30.65
27314470,-0.001475,-0.003592,-5.8e-05,0.03,-0.32,9.83,30.64
27315482,0.000656,-0.001462,-0.001123,0.04,-0.31,9.83,30.64
27316491,-0.00041,0.001734,-5.8e-05,0.03,-0.29,9.83,30.64
27317502,-0.001475,0.003865,0.001008,0.04,-0.3,9.85,30.65
27318510,-0.00041,0.002799,0.001008,0.04,-0.31,9.82,30.69
27319522,0.000656,0.000669,-5.8e-05,0.06,-0.29,9.82,30.68
27320530,-0.001475,-0.000396,-5.8e-05,0.04,-0.31,9.85,30.65
27321542,-0.00254,-0.001462,0.002073,0.02,-0.35,9.78,30.64
27322550,-0.00041,-0.003592,0.001008,0.01,-0.34,9.78,30.6
27323572,-0.00041,-0.002527,0.001008,0.02,-0.3,9.83,30.64
27324577,-0.001475,-0.000396,0.002073,0.02,-0.29,9.86,30.64
27325611,-0.001475,-0.000396,0.001008,-0.02,-0.3,9.85,30.64
27326596,-0.00041,-0.001462,-5.8e-05,-0.03,-0.3,9.83,30.65
27327608,-0.00041,-0.001462,-0.001123,0.01,-0.31,9.82,30.7
27328617,-0.00254,-0.000396,-0.003254,0.02,-0.32,9.78,30.69
27329631,-0.003605,0.000669,-0.003254,0.0,-0.31,9.75,30.67
27330640,-0.00041,0.001734,-0.002188,0.01,-0.31,9.8,30.67
27331650,0.001721,0.002799,-0.002188,-0.01,-0.34,9.85,30.63
27332675,-0.00041,0.001734,-0.003254,0.0,-0.37,9.85,30.66
27333679,-0.001475,0.000669,-0.002188,0.0,-0.29,9.81,30.65
27334681,0.000656,0.000669,-5.8e-05,0.0,-0.29,9.78,30.69
27335691,0.001721,0.001734,0.003138,0.0,-0.33,9.81,30.65
27336701,0.000656,0.002799,0.003138,0.02,-0.31,9.82,30.63
27337714,-0.001475,0.001734,0.004203,0.06,-0.32,9.81,30.6
27338726,-0.001475,-0.000396,0.004203,0.05,-0.33,9.82,30.65
27339730,-0.001475,-0.000396,0.003138,0.03,-0.31,9.86,30.68
27340740,-0.001475,0.000669,0.001008,0.05,-0.29,9.88,30.7
27341751,-0.00254,0.001734,-5.8e-05,0.04,-0.31,9.83,30.65
27342763,-0.00254,-0.001462,-0.002188,0.02,-0.33,9.81,30.65
27343778,-0.00041,-0.003592,-0.002188,0.02,-0.32,9.84,30.67
27344776,-0.00041,-0.004658,-5.8e-05,0.02,-0.32,9.81,30.68
27345790,-0.00254,-0.002527,0.002073,0.02,-0.34,9.79,30.67
27346792,-0.003605,0.000669,0.002073,0.0,-0.34,9.82,30.64
27347806,-0.001475,0.001734,0.002073,0.02,-0.32,9.8,30.66
27348814,0.000656,0.000669,0.001008,0.03,-0.28,9.77,30.67
27349825,0.000656,-0.002527,0.001008,0.04,-0.27,9.83,30.67
27350834,0.000656,-0.003592,0.001008,0.04,-0.29,9.81,30.61
27351846,0.000656,-0.002527,-5.8e-05,0.02,-0.28,9.73,30.61
27352851,0.000656,-0.001462,-0.001123,0.02,-0.28,9.76,30.63
27353871,-0.00041,-0.001462,-0.003254,0.03,-0.29,9.81,30.69
27354870,-0.00041,-0.001462,-0.003254,0.0,-0.3,9.79,30.68
27355882,-0.00254,0.000669,-0.002188,-0.01,-0.3,9.79,30.67
27356891,-0.00254,0.001734,-5.8e-05,0.03,-0.29,9.82,30.68
27357902,-0.00041,0.000669,0.002073,0.03,-0.28,9.82,30.67
27358910,0.000656,-0.001462,0.002073,0.02,-0.29,9.8,30.67
27359922,-0.001475,-0.001462,0.001008,0.01,-0.3,9.78,30.69
27360930,-0.003605,0.000669,-5.8e-05,-0.01,-0.31,9.81,30.68
27361942,-0.00254,0.000669,-5.8e-05,0.0,-0.31,9.82,30.7
27362950,0.000656,-0.000396,-5.8e-05,0.01,-0.31,9.85,30.69
27363969,0.002786,-0.001462,0.001008,0.02,-0.31,9.86,30.64
27364970,0.003852,-0.000396,0.001008,0.03,-0.3,9.82,30.66
27365982,0.002786,-0.003592,0.002073,0.05,-0.3,9.8,30.67
27366991,0.001721,-0.003592,0.004203,0.03,-0.31,9.79,30.64
27368002,0.002786,-0.002527,0.003138,0.04,-0.32,9.83,30.66
27369010,0.003852,-0.000396,0.001008,0.06,-0.3,9.84,30.67
27370022,0.002786,0.001734,0.001008,0.05,-0.31,9.84,30.68
27371030,0.000656,0.001734,0.002073,0.05,-0.34,9.87,30.67
27372044,0.001721,-0.001462,0.003138,0.04,-0.31,9.9,30.7
27373050,0.002786,-0.001462,0.003138,0.03,-0.29,9.87,30.67
27374071,0.001721,-0.000396,0.002073,0.01,-0.31,9.82,30.67
27375070,-0.001475,-0.000396,-0.001123,0.02,-0.32,9.79,30.64
27376082,-0.00254,-0.001462,-0.002188,0.04,-0.34,9.8,30.64
27377091,-0.00254,-0.000396,-0.001123,0.05,-0.32,9.77,30.61
27378102,-0.00041,-0.001462,-5.8e-05,0.07,-0.28,9.76,30.63
27379110,0.001721,-0.002527,0.001008,0.07,-0.28,9.83,30.66
27380122,0.001721,-0.001462,0.001008,0.06,-0.28,9.87,30.67
27381130,0.001721,0.001734,-5.8e-05,0.0,-0.29,9.86,30.67
27382142,-0.00041,0.00493,0.001008,0.0,-0.31,9.79,30.66
27383150,-0.001475,0.00493,0.002073,0.04,-0.34,9.78,30.67
27384178,-0.00041,0.002799,0.002073,0.03,-0.33,9.84,30.64
27385170,-0.00041,-0.002527,0.002073,0.04,-0.31,9.82,30.64
27386182,-0.00041,-0.004658,0.002073,0.04,-0.29,9.83,30.63
27387191,0.000656,-0.004658,0.003138,0.02,-0.3,9.85,30.65
27388202,0.000656,-0.000396,0.001008,0.03,-0.32,9.85,30.67
27389210,-0.001475,0.002799,-5.8e-05,0.06,-0.31,9.87,30.63
27390222,-0.003605,0.002799,-0.001123,0.05,-0.31,9.86,30.64
27391230,-0.00254,0.001734,-5.8e-05,0.04,-0.32,9.85,30.65
27392244,0.000656,0.000669,-5.8e-05,0.03,-0.32,9.87,30.67
27393250,0.003852,0.001734,-0.001123,0.0,-0.32,9.85,30.67
27394280,0.002786,0.002799,-0.003254,0.01,-0.29,9.86,30.64
27395270,-0.00041,0.000669,-0.003254,0.03,-0.27,9.87,30.66
27396282,-0.00254,-0.000396,-0.003254,0.03,-0.27,9.85,30.67
27397291,-0.001475,-0.001462,-0.001123,0.0,-0.32,9.84,30.66
27398302,-0.00041,-0.003592,0.002073,0.01,-0.31,9.86,30.66
27399310,-0.00041,-0.002527,0.002073,0.02,-0.32,9.84,30.68
27400322,0.000656,-0.000396,0.001008,0.04,-0.33,9.82,30.69
27401330,0.001721,0.001734,-5.8e-05,0.04,-0.34,9.78,30.65
27402342,0.001721,-0.000396,0.001008,0.03,-0.33,9.81,30.64
27403350,0.000656,-0.001462,0.001008,0.01,-0.3,9.82,30.67
27404378,-0.00041,-0.003592,0.001008,0.02,-0.31,9.8,30.68
27405370,-0.00041,-0.002527,-5.8e-05,0.07,-0.33,9.79,30.62
27406382,0.000656,0.000669,0.001008,0.07,-0.33,9.8,30.65
27407391,-0.00041,0.002799,0.001008,0.07,-0.3,9.83,30.67
27408402,-0.00041,-0.000396,-5.8e-05,0.04,-0.29,9.8,30.65
27409410,-0.00041,-0.002527,-0.001123,0.03,-0.31,9.81,30.66
27410422,-0.001475,-0.002527,-0.001123,0.03,-0.31,9.85,30.68
27411430,-0.00254,-0.001462,-0.001123,0.01,-0.3,9.84,30.66
27412444,-0.00254,-0.000396,-0.001123,0.03,-0.32,9.84,30.64
27413456,-0.001475,-0.000396,-0.001123,0.04,-0.32,9.8,30.64
27414504,-0.00145,0.000692,-0.002211,0.02,-0.33,9.78,30.63
27415474,-0.000384,0.001758,-0.004342,0.01,-0.3,9.79,30.64
27416482,-0.00145,0.000692,-0.004342,0.05,-0.29,9.83,30.67
27417491,-0.000384,-0.001438,-0.003277,0.05,-0.3,9.86,30.7
27418502,0.000681,-0.003569,-0.001146,0.03,-0.32,9.84,30.68
27419510,0.002812,-0.002503,-8.1e-05,0.02,-0.34,9.83,30.65
27420522,0.001746,-0.001438,-8.1e-05,0.05,-0.31,9.8,30.66
27421530,0.000681,-0.000373,-8.1e-05,0.08,-0.3,9.82,30.63
27422542,0.000681,-0.000373,-8.1e-05,0.05,-0.31,9.83,30.63
27423558,0.000681,-0.000373,-0.002211,0.04,-0.32,9.79,30.66
27424576,0.000681,-0.000373,-0.003277,0.04,-0.33,9.81,30.66
27425579,0.000681,-0.000373,-0.002211,0.03,-0.3,9.82,30.64
27426584,-0.000384,0.001758,-8.1e-05,0.03,-0.3,9.82,30.63
27427596,-0.000384,0.004954,0.003115,0.04,-0.34,9.85,30.67
27428609,-0.000384,0.006019,0.000985,0.03,-0.36,9.8,30.67
27429614,-0.000384,0.002823,-0.001146,0.03,-0.35,9.82,30.66
27430629,-0.000384,0.000692,-0.002211,0.03,-0.35,9.82,30.66
27431639,-0.000384,-0.001438,-0.002211,0.05,-0.32,9.82,30.68
27432651,-0.000384,-0.001438,-0.002211,0.05,-0.3,9.85,30.68
27433662,0.001746,-0.001438,-0.002211,0.03,-0.33,9.85,30.7
27434707,0.000681,-0.002503,-0.001146,0.0,-0.33,9.86,30.67
27435684,0.000681,-0.003569,-8.1e-05,0.03,-0.34,9.86,30.69
27436695,-0.000384,-0.003569,-0.001146,0.05,-0.34,9.83,30.68
27437701,-0.000384,-0.001438,-0.002211,0.05,-0.31,9.84,30.64
27438714,-0.00145,-0.000373,-0.001146,0.04,-0.31,9.87,30.67
27439719,-0.000384,0.000692,-8.1e-05,0.03,-0.35,9.83,30.69
27440731,0.001746,0.001758,-0.001146,0.04,-0.34,9.84,30.66
27441740,0.000681,0.002823,-8.1e-05,0.02,-0.29,9.84,30.61
27442753,0.000681,0.001758,0.00205,0.02,-0.29,9.77,30.64
27443771,0.001746,0.000692,0.003115,0.02,-0.3,9.74,30.68
27444780,0.002812,-0.000373,0.003115,0.02,-0.29,9.8,30.65
27445777,0.002812,0.001758,0.00205,0.03,-0.28,9.86,30.61
27446786,0.001746,0.001758,0.000985,0.02,-0.27,9.84,30.64
27447791,0.002812,-0.002503,0.000985,0.01,-0.28,9.81,30.65
27448806,0.002812,-0.004634,0.000985,0.01,-0.3,9.83,30.66
27449814,0.001746,-0.001438,-8.1e-05,0.01,-0.31,9.86,30.66
27450826,-0.000384,-0.000373,-0.001146,0.02,-0.29,9.86,30.65
27451834,-0.00145,-0.001438,0.000985,0.01,-0.29,9.85,30.6
27452846,-0.000384,-0.002503,0.003115,0.01,-0.31,9.81,30.67
27453868,0.000681,-0.002503,0.003115,0.03,-0.28,9.78,30.66
27454862,0.000681,-0.001438,-8.1e-05,0.02,-0.31,9.8,30.64
27455870,0.000681,0.001758,-0.002211,0.02,-0.31,9.77,30.64
27456882,0.000681,0.001758,-0.002211,0.03,-0.29,9.77,30.62
27457891,-0.000384,0.000692,-8.1e-05,0.04,-0.33,9.82,30.63
27458902,-0.000384,0.000692,0.000985,0.05,-0.33,9.86,30.63
27459910,0.000681,-0.000373,-8.1e-05,0.04,-0.28,9.82,30.63
27460922,0.001746,-0.000373,-0.001146,0.02,-0.3,9.79,30.64
27461930,0.001746,-0.001438,-0.001146,0.0,-0.31,9.82,30.67
27462942,0.000681,-0.001438,-8.1e-05,0.0,-0.3,9.8,30.71
27463966,-0.000384,-0.001438,-8.1e-05,0.0,-0.29,9.76,30.69
27464962,-0.00145,-0.001438,-8.1e-05,0.02,-0.3,9.8,30.67
27465970,-0.000384,0.000692,-0.001146,0.06,-0.3,9.83,30.68
27466982,0.000681,-0.000373,-8.1e-05,0.04,-0.29,9.82,30.66
27467991,0.000681,0.001758,0.000985,0.02,-0.32,9.8,30.67
27469002,0.002812,0.002823,0.000985,0.03,-0.34,9.77,30.64
27470010,0.002812,0.003888,-0.002211,0.03,-0.32,9.77,30.61
27471022,0.000681,0.001758,-0.004342,0.02,-0.31,9.81,30.65
27472030,-0.00145,-0.001438,-0.002211,0.04,-0.32,9.83,30.66
27473044,-0.00145,-0.002503,-8.1e-05,0.07,-0.33,9.78,30.63
27474066,-0.000384,-0.000373,0.000985,0.02,-0.34,9.73,30.66
27475062,0.000681,0.000692,0.000985,0.02,-0.34,9.81,30.67
27476070,0.000681,-0.000373,0.000985,0.03,-0.34,9.84,30.65
27477082,-0.00145,0.000692,-8.1e-05,-0.01,-0.31,9.8,30.62
27478091,-0.004645,0.002823,-0.001146,0.03,-0.29,9.8,30.62
27479102,-0.004645,0.002823,-0.002211,0.03,-0.29,9.81,30.67
27480110,-0.00358,-0.000373,-0.001146,0.0,-0.3,9.82,30.68
27481122,-0.00358,-0.002503,-8.1e-05,0.0,-0.31,9.8,30.66
27482130,-0.002515,-0.000373,-0.001146,-0.01,-0.31,9.82,30.68
27483142,-0.002515,0.000692,-0.001146,0.0,-0.32,9.85,30.68
27484166,-0.00358,0.001758,-8.1e-05,0.0,-0.35,9.84,30.67
27485162,-0.00358,0.001758,0.000985,0.01,-0.35,9.85,30.65
27486170,-0.00358,-0.000373,-8.1e-05,0.04,-0.34,9.85,30.61
27487182,-0.002515,-0.002503,-8.1e-05,0.03,-0.3,9.82,30.6
27488237,-0.00145,-0.002503,0.00205,0.0,-0.31,9.81,30.61
27489233,-0.002515,-0.001438,0.003115,-0.02,-0.33,9.84,30.64
27490230,-0.002515,-0.000373,-8.1e-05,0.01,-0.31,9.82,30.65
27491222,-0.00358,-0.000373,-0.001146,0.04,-0.3,9.78,30.66
27492230,-0.004645,-0.002503,-8.1e-05,0.03,-0.29,9.81,30.67
27493244,-0.00145,-0.003569,0.000985,0.01,-0.28,9.79,30.64
27494266,0.000681,-0.002503,-8.1e-05,0.04,-0.32,9.78,30.63
27495262,0.001746,-0.001438,-0.001146,0.06,-0.33,9.84,30.6
27496270,-0.000384,0.001758,-0.001146,-0.01,-0.32,9.86,30.67
27497282,-0.002515,0.001758,0.000985,0.02,-0.32,9.84,30.63
27498291,-0.00145,0.001758,0.000985,0.02,-0.33,9.81,30.63
27499302,0.000681,0.000692,0.000985,0.03,-0.35,9.83,30.64
27500310,0.001746,-0.000373,0.00205,0.05,-0.33,9.84,30.65
27501322,0.002812,0.000692,0.003115,0.03,-0.3,9.86,30.67
27502330,0.001746,0.001758,-8.1e-05,0.02,-0.31,9.87,30.69
27503342,-0.000384,0.001758,-0.001146,0.03,-0.31,9.85,30.65
27504366,-0.00145,0.002823,-8.1e-05,0.02,-0.3,9.78,30.64
27505362,-0.000384,0.000692,0.00205,0.0,-0.33,9.79,30.65
27506370,-0.000384,-0.000373,0.003115,0.0,-0.32,9.8,30.64
27507382,-0.00145,0.000692,0.000985,0.04,-0.3,9.77,30.64
27508391,-0.002515,0.002823,0.000985,0.04,-0.3,9.81,30.66
27509402,0.000681,0.001758,-8.1e-05,0.04,-0.3,9.84,30.65
27510410,0.002812,0.000692,-0.002211,0.02,-0.3,9.86,30.65
27511422,0.003877,-0.001438,-0.004342,0.0,-0.31,9.78,30.64
27512430,0.002812,-0.001438,-0.002211,0.01,-0.3,9.77,30.66
27513452,0.002812,0.000692,-8.1e-05,-0.01,-0.3,9.87,30.67
27514459,0.001746,0.000692,0.000985,0.0,-0.33,9.89,30.65
27515462,0.000681,0.002823,-0.002211,0.02,-0.34,9.83,30.64
27516470,0.000681,0.003888,-0.002211,0.03,-0.32,9.78,30.67
27517482,0.001746,0.000692,-0.001146,0.02,-0.33,9.82,30.69
27518491,0.001746,-0.001438,-8.1e-05,0.02,-0.33,9.82,30.7
27519502,0.000681,-0.002503,0.000985,0.01,-0.33,9.79,30.64
27520510,0.000681,-0.004634,-8.1e-05,0.04,-0.35,9.8,30.67
27521522,0.001746,-0.005699,-0.001146,0.05,-0.34,9.81,30.7
27522530,0.002812,-0.003569,-0.002211,0.03,-0.32,9.81,30.67
27523551,0.003877,-0.002503,-8.1e-05,0.04,-0.33,9.79,30.69
27524559,0.002812,-0.001438,0.000985,0.04,-0.33,9.78,30.69
27525562,0.000681,0.000692,0.00205,0.04,-0.34,9.81,30.66
27526577,-0.000384,0.000692,0.000985,0.06,-0.32,9.81,30.69
27527586,-0.00145,-0.000373,-0.001146,0.02,-0.3,9.78,30.67
27528595,-0.000384,-0.001438,-0.002211,-0.01,-0.32,9.81,30.66
27529607,0.000681,-0.000373,-0.002211,0.02,-0.34,9.82,30.64
27530622,0.000681,0.000692,-0.001146,0.03,-0.36,9.81,30.64
27531632,0.000681,-0.000373,-0.002211,0.05,-0.34,9.78,30.64
27532642,-0.000384,0.000692,-0.002211,0.02,-0.31,9.8,30.67
27533661,-0.000384,0.001758,-0.002211,0.0,-0.29,9.82,30.68
27534667,-0.000384,0.002823,0.000985,0.03,-0.3,9.8,30.67
27535672,0.000681,0.000692,0.003115,0.04,-0.34,9.8,30.64
27536721,0.000681,-0.000373,0.005246,0.02,-0.34,9.86,30.64
27537720,0.000681,0.000692,0.00205,0.01,-0.33,9.88,30.67
27538699,0.000681,0.002823,-0.002211,0.04,-0.3,9.84,30.66
27539717,-0.000384,0.003888,-0.004342,0.04,-0.31,9.84,30.63
27540722,-0.00145,0.001758,-0.003277,0.02,-0.34,9.84,30.63
27541731,-0.000384,0.001758,-0.002211,0.04,-0.31,9.83,30.67
27542738,0.001746,0.002823,-0.002211,0.06,-0.32,9.8,30.63
27543795,0.000669,0.001754,-0.002168,0.05,-0.36,9.81,30.64
27544763,0.000669,0.000688,-0.003233,0.01,-0.32,9.82,30.68
27545774,-0.000396,0.000688,-0.002168,-0.01,-0.31,9.8,30.67
27546774,-0.001461,0.000688,-0.002168,0.02,-0.33,9.82,30.65
27547786,-0.001461,-0.000377,-0.001102,0.03,-0.35,9.85,30.68
27548792,-0.000396,0.000688,0.001028,0.04,-0.34,9.84,30.64
27549806,-0.001461,0.001754,0.001028,0.05,-0.34,9.82,30.61
27550814,-0.000396,0.000688,0.001028,0.03,-0.35,9.8,30.66
27551825,0.001734,-0.000377,-0.001102,0.02,-0.31,9.76,30.7
27552834,0.0028,-0.000377,-3.7e-05,0.02,-0.31,9.79,30.67
27553855,0.000669,0.000688,0.001028,0.06,-0.36,9.86,30.66
27554851,-0.001461,-0.000377,0.001028,0.06,-0.33,9.83,30.69
27555862,-0.001461,0.000688,-3.7e-05,0.03,-0.31,9.78,30.65
27556870,-0.000396,-0.001442,-0.001102,0.03,-0.31,9.77,30.65
27557882,-0.000396,-0.001442,-0.001102,0.04,-0.32,9.77,30.67
27558891,0.001734,0.000688,-0.002168,0.05,-0.32,9.83,30.67
27559902,0.0028,0.001754,-0.002168,0.05,-0.32,9.86,30.71
27560910,0.001734,-0.000377,0.001028,0.05,-0.31,9.9,30.67
27561922,0.001734,-0.000377,0.004224,0.03,-0.32,9.83,30.7
27562930,-0.000396,0.001754,0.005289,0.05,-0.34,9.78,30.66
27563951,-0.002527,0.002819,0.003159,0.07,-0.34,9.83,30.64
27564950,-0.001461,0.001754,-0.001102,0.03,-0.33,9.82,30.63
27565962,0.000669,0.000688,-0.002168,0.01,-0.31,9.78,30.64
27566970,0.000669,0.000688,-0.001102,0.03,-0.32,9.76,30.64
27567982,0.000669,-0.000377,-3.7e-05,0.04,-0.33,9.8,30.65
27568991,0.000669,-0.000377,-3.7e-05,0.05,-0.3,9.83,30.67
27570002,0.000669,0.001754,-3.7e-05,0.04,-0.32,9.82,30.66
27571010,-0.000396,0.001754,0.002094,0.03,-0.31,9.83,30.64
27572022,-0.000396,0.002819,0.002094,0.03,-0.28,9.8,30.66
27573030,-0.000396,0.003884,0.002094,0.03,-0.28,9.82,30.69
27574053,-0.001461,0.002819,0.001028,0.07,-0.3,9.85,30.67
27575050,-0.001461,0.000688,0.001028,0.04,-0.3,9.8,30.65
27576062,-0.001461,-0.002508,-3.7e-05,0.02,-0.28,9.8,30.67
27577070,0.000669,-0.002508,-3.7e-05,0.04,-0.32,9.83,30.67
27578082,0.0028,-0.000377,-0.001102,0.03,-0.35,9.82,30.65
27579091,0.0028,-0.000377,-3.7e-05,0.03,-0.32,9.81,30.65
27580102,0.000669,-0.002508,0.002094,-0.01,-0.3,9.83,30.67
27581110,-0.001461,-0.002508,0.001028,-0.01,-0.29,9.83,30.67
27582122,-0.002527,-0.001442,-3.7e-05,0.02,-0.31,9.84,30.68
27583130,-0.003592,-0.000377,-3.7e-05,0.02,-0.33,9.86,30.68
27584151,-0.003592,-0.000377,-3.7e-05,0.02,-0.31,9.85,30.69
27585150,-0.000396,-0.002508,-3.7e-05,0.03,-0.31,9.8,30.67
27586162,0.000669,-0.003573,-3.7e-05,0.03,-0.33,9.77,30.67
27587170,0.0028,-0.003573,-3.7e-05,0.04,-0.33,9.81,30.65
27588182,0.00493,-0.001442,-0.001102,0.02,-0.34,9.83,30.61
27589191,0.0028,0.000688,-0.002168,0.03,-0.33,9.82,30.62
27590202,0.000669,0.001754,-0.002168,0.06,-0.31,9.81,30.65
27591210,0.000669,0.000688,-0.001102,0.06,-0.3,9.79,30.67
27592222,-0.000396,-0.001442,-3.7e-05,0.06,-0.33,9.78,30.67
27593230,0.000669,-0.000377,-3.7e-05,0.02,-0.34,9.82,30.67
27594253,0.000669,0.000688,-3.7e-05,-0.01,-0.32,9.83,30.63
27595250,0.000669,-0.000377,-0.001102,0.02,-0.3,9.79,30.6
27596262,-0.001461,0.000688,-0.001102,0.05,-0.32,9.79,30.67
27597270,0.000669,0.000688,-0.001102,0.05,-0.3,9.82,30.67
27598282,0.000669,-0.001442,-3.7e-05,0.04,-0.28,9.82,30.68
27599291,0.000669,-0.002508,-3.7e-05,0.04,-0.3,9.85,30.68
27600302,-0.000396,-0.001442,0.001028,0.04,-0.33,9.83,30.68
27601310,-0.000396,-0.001442,0.002094,0.03,-0.32,9.79,30.66
27602322,-0.001461,-0.002508,0.001028,0.02,-0.33,9.79,30.64
27603330,-0.001461,-0.001442,-0.001102,0.02,-0.33,9.8,30.69
27604351,0.000669,0.000688,-3.7e-05,0.05,-0.33,9.84,30.64
27605350,0.000669,0.001754,0.001028,0.05,-0.32,9.79,30.64
27606362,0.000669,0.000688,0.001028,0.06,-0.31,9.8,30.62
27607370,-0.000396,-0.000377,-0.001102,0.04,-0.35,9.88,30.62
27608382,-0.000396,-0.000377,-0.001102,0.01,-0.36,9.84,30.64
27609391,-0.000396,0.001754,-3.7e-05,0.03,-0.33,9.82,30.64
27610402,0.001734,0.001754,0.001028,0.03,-0.31,9.84,30.64
27611410,0.001734,0.000688,-3.7e-05,0.06,-0.31,9.81,30.64
27612422,-0.000396,-0.001442,-3.7e-05,0.06,-0.33,9.76,30.61
27613437,-0.001461,-0.003573,-0.001102,0.02,-0.34,9.76,30.63
27614444,-0.002527,-0.003573,-0.001102,0.02,-0.34,9.84,30.64
27615450,-0.003592,-0.004638,-0.001102,0.02,-0.34,9.88,30.64
27616462,-0.002527,-0.002508,-0.001102,0.0,-0.35,9.85,30.64
27617470,-0.001461,0.000688,-3.7e-05,0.04,-0.34,9.8,30.66
27618482,-0.001461,0.001754,-3.7e-05,0.07,-0.32,9.81,30.67
27619491,0.000669,0.000688,-3.7e-05,0.04,-0.31,9.83,30.65
27620502,0.000669,0.000688,-3.7e-05,0.02,-0.32,9.84,30.64
27621510,-0.000396,-0.001442,-0.001102,0.03,-0.31,9.84,30.63
27622522,-0.000396,-0.002508,-3.7e-05,0.04,-0.28,9.82,30.64
27623538,-0.000396,-0.001442,-3.7e-05,0.03,-0.32,9.78,30.64
27624542,0.000669,0.000688,-0.001102,0.03,-0.34,9.81,30.65
27625550,0.001734,0.001754,-0.002168,0.02,-0.31,9.84,30.65
27626562,-0.000396,0.002819,-0.003233,0.03,-0.32,9.82,30.65
27627577,-0.001461,-0.000377,-0.002168,0.07,-0.31,9.84,30.66
27628584,-0.002527,-0.003573,-3.7e-05,0.05,-0.28,9.85,30.59
27629596,-0.003592,-0.004638,0.002094,0.0,-0.3,9.8,30.62
27630607,-0.001461,-0.003573,0.002094,-0.04,-0.33,9.77,30.64
27631616,0.001734,-0.002508,0.002094,-0.02,-0.33,9.79,30.64
27632660,0.000669,-0.000377,0.001028,0.02,-0.3,9.77,30.66
27633647,-0.001461,-0.000377,-3.7e-05,0.03,-0.31,9.82,30.67
27634656,-0.001461,0.000688,-0.001102,0.02,-0.31,9.86,30.67
27635661,-0.000396,0.000688,-0.003233,0.01,-0.29,9.85,30.68
27636669,-0.000396,-0.000377,-0.003233,0.02,-0.27,9.84,30.65
27637683,-0.000396,-0.000377,-0.001102,0.01,-0.31,9.81,30.63
27638691,0.000669,-0.002508,-3.7e-05,0.03,-0.35,9.8,30.63
27639723,0.001734,-0.000377,0.001028,0.04,-0.34,9.8,30.58
27640714,0.003865,-0.000377,0.001028,0.03,-0.31,9.79,30.59
27641728,0.0028,-0.000377,0.001028,0.04,-0.32,9.78,30.61
27642730,0.001734,-0.001442,0.002094,0.05,-0.34,9.77,30.63
27643749,0.001734,-0.002508,0.001028,0.05,-0.33,9.81,30.65
27644751,0.000669,-0.003573,-0.003233,0.04,-0.33,9.84,30.67
27645765,-0.000396,-0.001442,-0.004298,0.03,-0.33,9.83,30.65
27646770,-0.000396,-0.000377,-0.004298,0.04,-0.36,9.82,30.64
27647776,-0.000396,-0.000377,-0.004298,0.02,-0.36,9.78,30.65
27648786,-0.001461,0.000688,-0.001102,0.02,-0.33,9.77,30.64
27649791,-0.001461,0.000688,0.001028,0.03,-0.32,9.83,30.63
27650806,-0.001461,-0.002508,-0.001102,0.04,-0.32,9.85,30.64
27651814,-0.000396,-0.001442,-0.002168,0.03,-0.34,9.87,30.64
27652825,-0.002527,0.001754,-0.002168,0.02,-0.33,9.88,30.61
27653840,-0.002527,0.003884,-0.001102,0.01,-0.34,9.83,30.6
27654845,-0.002527,0.000688,-3.7e-05,0.02,-0.34,9.82,30.64
27655850,-0.000396,-0.000377,0.001028,0.01,-0.32,9.84,30.62
27656861,0.001734,0.000688,0.001028,0.02,-0.34,9.79,30.67
27657869,0.0028,0.000688,-0.001102,0.03,-0.3,9.83,30.69
27658881,0.0028,-0.000377,-0.001102,0.02,-0.3,9.81,30.66
27659890,0.003865,0.000688,0.001028,0.0,-0.34,9.79,30.64
27660901,0.001734,0.000688,0.005289,0.01,-0.34,9.85,30.64
27661909,0.000669,-0.000377,0.005289,0.02,-0.31,9.86,30.68
27662921,0.000669,-0.001442,0.002094,0.01,-0.28,9.89,30.67
27663937,0.0028,-0.001442,0.001028,0.0,-0.3,9.85,30.7
27664941,0.00493,-0.000377,0.001028,0.0,-0.3,9.83,30.68
27665949,0.00493,0.001754,0.001028,0.03,-0.3,9.82,30.68
27666961,0.001734,0.002819,-0.001102,0.06,-0.29,9.79,30.66
27667970,-0.001461,0.001754,-0.001102,0.06,-0.28,9.78,30.64
27668982,-0.000396,0.000688,-0.001102,0.05,-0.3,9.75,30.63
27669991,0.001734,0.001754,-0.001102,0.06,-0.34,9.77,30.64
27671002,0.001734,-0.000377,0.001028,0.02,-0.32,9.79,30.67
27672010,0.001734,-0.002508,0.001028,0.0,-0.28,9.83,30.69
27673055,0.003845,-0.00141,0.002107,0.06,-0.32,9.84,30.67
27674041,0.001714,-0.00141,0.002107,0.03,-0.33,9.85,30.67
27675044,0.000649,-0.002475,0.001042,0.02,-0.31,9.84,30.65
27676050,0.001714,-0.003541,-2.4e-05,0.04,-0.31,9.83,30.66
27677062,0.002779,-0.003541,-0.001089,0.04,-0.35,9.82,30.63
27678070,0.001714,-0.002475,-0.002154,0.06,-0.38,9.79,30.64
27679082,0.001714,-0.000345,-0.002154,0.02,-0.34,9.83,30.64
27680091,0.000649,0.000721,-0.001089,0.0,-0.31,9.81,30.62
27681102,-0.000417,-0.000345,-0.001089,0.02,-0.33,9.79,30.63
27682110,-0.001482,-0.00141,-0.001089,0.02,-0.33,9.85,30.62
27683122,-0.002547,-0.000345,-0.001089,0.04,-0.32,9.85,30.64
27684138,-0.002547,-0.000345,-0.001089,0.03,-0.32,9.83,30.63
27685142,0.000649,0.000721,-2.4e-05,0.01,-0.34,9.81,30.66
27686150,0.003845,-0.00141,-2.4e-05,-0.01,-0.32,9.76,30.67
27687162,0.003845,-0.00141,-0.002154,0.01,-0.31,9.79,30.65
27688170,0.000649,0.000721,-0.002154,0.03,-0.31,9.84,30.64
27689181,-0.002547,0.003916,-2.4e-05,0.04,-0.32,9.78,30.67
27690190,-0.002547,0.004982,0.001042,0.03,-0.3,9.77,30.66
27691201,-0.002547,0.003916,-2.4e-05,0.02,-0.28,9.83,30.67
27692209,-0.003612,0.000721,-2.4e-05,0.06,-0.32,9.84,30.64
27693221,-0.001482,-0.000345,-2.4e-05,0.06,-0.32,9.84,30.66
27694236,-0.000417,-0.00141,-2.4e-05,0.02,-0.33,9.79,30.65
27695242,-0.002547,-0.003541,0.001042,0.0,-0.34,9.79,30.63
27696249,0.000649,0.001786,-2.4e-05,0.03,-0.29,9.76,30.66
27697261,0.001714,0.001786,-2.4e-05,0.01,-0.32,9.79,30.63
27698269,0.000649,0.001786,-0.001089,0.01,-0.32,9.83,30.64
27699281,-0.002547,0.000721,-0.001089,0.01,-0.3,9.87,30.62
27700290,-0.004678,0.000721,-2.4e-05,0.03,-0.32,9.86,30.6
27701301,-0.004678,-0.000345,-2.4e-05,0.01,-0.31,9.78,30.67
27702309,-0.003612,-0.00141,0.001042,0.01,-0.33,9.75,30.67
27703321,-0.001482,-0.000345,0.003172,0.06,-0.36,9.81,30.67
27704337,0.001714,0.001786,0.002107,0.05,-0.34,9.84,30.64
27705341,0.001714,0.001786,0.001042,0.01,-0.34,9.84,30.67
27706349,0.000649,0.000721,-2.4e-05,0.02,-0.36,9.84,30.7
27707361,-0.001482,-0.000345,-0.001089,0.03,-0.35,9.78,30.67
27708369,-0.000417,-0.000345,-0.003219,-0.01,-0.31,9.76,30.66
27709381,-0.000417,-0.000345,-0.004285,-0.02,-0.3,9.79,30.67
27710390,-0.000417,-0.000345,-0.002154,0.01,-0.33,9.84,30.66
27711401,-0.000417,-0.000345,-2.4e-05,0.05,-0.34,9.87,30.68
27712409,-0.000417,0.001786,0.002107,0.05,-0.33,9.83,30.67
27713430,-0.001482,0.002851,0.003172,0.04,-0.29,9.8,30.68
27714429,-0.000417,0.001786,0.004238,0.01,-0.33,9.78,30.67
27715442,-0.000417,0.000721,0.002107,0.0,-0.34,9.8,30.64
27716449,-0.000417,-0.000345,-0.001089,0.01,-0.29,9.81,30.67
27717461,-0.000417,0.000721,-0.004285,0.02,-0.28,9.8,30.68
27718469,0.000649,0.002851,-0.003219,0.05,-0.31,9.78,30.67
27719481,0.002779,0.003916,-0.001089,0.04,-0.34,9.78,30.66
27720490,0.000649,0.004982,-2.4e-05,0.01,-0.34,9.83,30.63
27721501,-0.003612,0.000721,0.002107,-0.01,-0.34,9.87,30.64
27722509,-0.003612,-0.00141,0.002107,0.0,-0.34,9.87,30.66
27723528,-0.003612,-0.00141,0.001042,0.0,-0.37,9.84,30.64
27724529,-0.002547,-0.000345,0.001042,-0.02,-0.36,9.81,30.67
27725541,-0.000417,0.002851,0.001042,-0.01,-0.33,9.83,30.68
27726549,-0.002547,0.001786,-2.4e-05,0.02,-0.32,9.87,30.65
27727561,-0.004678,-0.000345,-0.001089,0.04,-0.32,9.9,30.64
27728571,-0.003612,-0.00141,0.001042,0.03,-0.33,9.89,30.62
27729583,-0.000417,-0.000345,0.003172,0.02,-0.34,9.88,30.64
27730595,0.000649,-0.000345,0.002107,0.05,-0.31,9.91,30.67
27731609,0.000649,-0.000345,0.001042,0.07,-0.31,9.9,30.7
27732615,-0.000417,-0.00141,0.001042,0.04,-0.31,9.83,30.67
27733640,-0.001482,-0.00141,0.002107,0.03,-0.33,9.82,30.68
27734639,-0.001482,0.001786,0.003172,0.03,-0.33,9.83,30.64
27735657,-0.002547,0.001786,0.004238,0.0,-0.28,9.85,30.61
27736661,-0.002547,-0.000345,0.002107,-0.01,-0.28,9.85,30.64
27737673,-0.005743,-0.000345,-2.4e-05,0.0,-0.31,9.82,30.64
27738680,-0.004678,-0.00141,-2.4e-05,0.0,-0.33,9.79,30.66
27739690,-0.001482,-0.00141,0.001042,0.04,-0.33,9.8,30.62
27740701,0.001714,0.000721,0.001042,0.04,-0.31,9.78,30.59
27741753,0.001714,0.001786,0.002107,0.04,-0.31,9.76,30.63
27742724,0.001714,0.002851,0.003172,0.04,-0.34,9.81,30.66
27743745,-0.000417,0.002851,0.002107,0.03,-0.34,9.82,30.67
27744740,-0.000417,-0.000345,-2.4e-05,0.02,-0.34,9.77,30.68
27745755,0.000649,-0.002475,0.001042,-0.01,-0.34,9.78,30.67
27746761,0.002779,-0.002475,0.002107,-0.01,-0.31,9.83,30.66
27747770,0.001714,-0.00141,0.002107,0.01,-0.29,9.84,30.68
27748774,0.001714,-0.00141,-2.4e-05,0.04,-0.3,9.82,30.65
27749786,0.000649,-0.000345,0.001042,0.04,-0.32,9.79,30.66
27750792,0.000649,-0.000345,0.003172,0.04,-0.3,9.79,30.63
27751806,0.001714,-0.00141,0.003172,0.04,-0.3,9.79,30.62
27752814,0.001714,-0.002475,0.002107,0.04,-0.32,9.79,30.64
27753833,0.000649,-0.003541,0.001042,0.04,-0.31,9.79,30.64
27754834,0.001714,-0.00141,-2.4e-05,0.02,-0.28,9.74,30.62
27755846,0.002779,0.000721,-2.4e-05,0.05,-0.3,9.71,30.62
27756851,0.003845,0.002851,-0.001089,0.03,-0.3,9.79,30.63
27757862,0.001714,0.002851,-0.001089,0.02,-0.28,9.9,30.69
27758870,-0.000417,0.000721,-2.4e-05,0.04,-0.29,9.86,30.71
27759882,-0.001482,0.000721,-2.4e-05,0.03,-0.31,9.75,30.68
27760891,0.000649,0.002851,-2.4e-05,0.02,-0.31,9.79,30.68
27761902,0.001714,0.002851,-2.4e-05,0.01,-0.28,9.86,30.67
27762910,-0.000417,0.000721,-0.001089,0.03,-0.3,9.82,30.66
27763929,-0.000417,0.002851,-0.002154,0.05,-0.31,9.76,30.64
27764930,-0.000417,0.004982,-0.001089,0.02,-0.31,9.84,30.63
27765942,0.000649,0.003916,0.002107,0.0,-0.32,9.82,30.61
27766950,-0.000417,0.000721,0.002107,0.02,-0.33,9.79,30.67
27767962,-0.000417,-0.000345,-2.4e-05,0.04,-0.33,9.81,30.64
27768970,-0.000417,0.001786,-0.002154,0.03,-0.33,9.87,30.65
27769982,-0.000417,0.001786,-0.001089,0.02,-0.34,9.87,30.63
27770991,-0.000417,-0.000345,0.001042,0.01,-0.31,9.82,30.62
27772002,0.000649,-0.000345,0.002107,0.03,-0.32,9.85,30.63
27773010,-0.000417,0.000721,-2.4e-05,0.03,-0.34,9.82,30.63
27774031,-0.000417,0.001786,-0.001089,0.01,-0.32,9.82,30.63
27775030,-0.000417,0.002851,-0.003219,0.04,-0.3,9.86,30.64
27776044,-0.001482,0.002851,-0.002154,0.05,-0.3,9.85,30.66
27777050,0.000649,0.000721,-0.001089,0.02,-0.32,9.83,30.61
27778062,0.001714,-0.000345,-2.4e-05,-0.02,-0.32,9.84,30.64
27779070,0.000649,-0.000345,0.002107,0.01,-0.32,9.81,30.64
27780082,0.000649,-0.000345,0.001042,0.03,-0.3,9.79,30.68
27781091,-0.000417,-0.002475,-2.4e-05,0.04,-0.28,9.8,30.72
27782102,-0.000417,-0.000345,-2.4e-05,0.05,-0.29,9.8,30.71
27783110,-0.000417,0.001786,0.001042,0.06,-0.32,9.77,30.63
27784129,0.000649,0.000721,-2.4e-05,0.07,-0.34,9.74,30.6
27785130,0.000649,-0.00141,-0.001089,0.06,-0.34,9.83,30.63
27786142,0.000649,-0.003541,-0.001089,0.06,-0.35,9.87,30.65
27787150,-0.000417,-0.002475,-2.4e-05,0.08,-0.34,9.82,30.66
27788162,0.000649,-0.000345,-0.002154,0.08,-0.32,9.81,30.66
27789170,0.000649,0.001786,-0.002154,0.06,-0.34,9.82,30.62
27790182,-0.001482,0.001786,-0.001089,0.07,-0.35,9.8,30.59
27791191,-0.001482,0.000721,-0.001089,0.07,-0.33,9.78,30.62
27792202,-0.001482,-0.000345,-2.4e-05,0.05,-0.33,9.83,30.64
27793210,-0.002547,-0.000345,0.001042,0.05,-0.35,9.81,30.67
27794231,-0.001482,-0.000345,0.002107,0.07,-0.32,9.79,30.66
27795230,0.000649,-0.000345,0.001042,0.05,-0.29,9.79,30.65
27796244,0.001714,0.000721,0.001042,0.04,-0.34,9.84,30.61
27797250,0.000649,-0.000345,0.002107,0.05,-0.33,9.81,30.61
27798262,-0.000417,-0.000345,0.001042,0.07,-0.31,9.82,30.66
27799270,-0.000417,-0.00141,0.002107,0.07,-0.33,9.85,30.69
27800282,-0.001482,-0.000345,0.002107,0.05,-0.32,9.84,30.64
27801291,-0.000417,-0.000345,0.002107,0.06,-0.32,9.82,30.63
27802335,0.000686,-0.002506,0.001006,0.03,-0.33,9.82,30.67
27803314,0.000686,-0.002506,0.001006,-0.02,-0.32,9.82,30.71
27804329,-0.00251,-0.001441,0.001006,-0.02,-0.32,9.82,30.69
27805330,-0.003575,-0.000375,-0.001125,0.0,-0.34,9.84,30.69
27806342,-0.00251,0.00069,-0.001125,0.02,-0.36,9.86,30.68
27807350,0.000686,0.00069,0.001006,0.03,-0.34,9.84,30.66
27808362,0.002816,-0.000375,0.002071,0.03,-0.36,9.83,30.65
27809370,0.001751,-0.001441,-6e-05,0.04,-0.33,9.83,30.67
27810382,-0.000379,0.00069,-0.00219,0.03,-0.3,9.83,30.65
27811391,-0.00251,0.001755,-0.003256,0.01,-0.32,9.78,30.63
27812402,-0.001445,-0.000375,-0.00219,0.02,-0.32,9.76,30.66
27813417,0.000686,-0.003571,-0.001125,0.06,-0.29,9.87,30.63
27814422,0.002816,-0.003571,-6e-05,0.06,-0.31,9.88,30.61
27815430,0.002816,-0.001441,-6e-05,0.04,-0.32,9.82,30.63
27816444,0.002816,-0.000375,-0.00219,0.03,-0.33,9.82,30.64
27817450,0.001751,0.00069,-0.001125,0.03,-0.35,9.83,30.66
27818462,-0.000379,-0.001441,-0.001125,0.03,-0.34,9.82,30.66
27819470,-0.000379,-0.003571,-0.001125,0.02,-0.32,9.81,30.64
27820482,-0.000379,-0.002506,-0.001125,0.04,-0.32,9.83,30.63
27821491,-0.000379,-0.001441,-0.001125,0.06,-0.32,9.82,30.68
27822502,-0.001445,-0.001441,-6e-05,0.03,-0.32,9.83,30.69
27823518,-0.001445,-0.001441,0.002071,0.03,-0.32,9.81,30.66
27824522,-0.000379,-0.000375,0.001006,0.03,-0.33,9.8,30.66
27825530,0.000686,0.002821,0.001006,0.04,-0.32,9.8,30.66
27826542,0.001751,0.002821,0.002071,0.05,-0.3,9.78,30.64
27827550,0.000686,0.00069,0.001006,0.06,-0.31,9.8,30.62
27828562,-0.000379,-0.002506,-6e-05,0.04,-0.32,9.81,30.64
27829577,-0.000379,-0.001441,-0.001125,0.04,-0.33,9.8,30.63
27830584,-0.000379,0.00069,-0.00219,0.05,-0.31,9.82,30.63
27831595,0.000686,0.001755,-0.001125,0.05,-0.32,9.81,30.64
27832608,0.001751,-0.000375,-6e-05,0.03,-0.35,9.79,30.65
27833628,0.001751,-0.002506,0.002071,0.02,-0.33,9.82,30.67
27834627,0.000686,-0.002506,0.003136,-0.01,-0.31,9.84,30.7
27835640,0.000686,0.00069,0.003136,-0.01,-0.32,9.85,30.67
27836650,0.000686,0.00069,0.001006,0.01,-0.32,9.83,30.65
27837665,0.000686,-0.000375,-6e-05,0.03,-0.32,9.82,30.63
27838669,-0.000379,-0.000375,-0.001125,0.03,-0.33,9.8,30.6
27839681,-0.000379,0.00069,0.001006,0.02,-0.33,9.79,30.63
27840691,-0.00251,-0.001441,0.003136,0.02,-0.34,9.83,30.65
27841701,-0.003575,-0.002506,0.004201,0.03,-0.35,9.85,30.65
27842714,0.001751,-0.001441,0.002071,0.06,-0.36,9.86,30.65
27843741,0.002816,-0.000375,-0.001125,0.05,-0.35,9.89,30.66
27844750,-0.001445,-0.001441,-0.003256,0.02,-0.32,9.82,30.65
27845744,-0.003575,-0.000375,-0.00219,0.01,-0.34,9.81,30.65
27846751,-0.001445,0.002821,-0.001125,0.02,-0.34,9.83,30.67
27847763,0.000686,0.003886,-6e-05,0.02,-0.34,9.8,30.73
27848771,0.001751,0.002821,-6e-05,0.04,-0.35,9.79,30.71
27849776,0.000686,0.002821,0.001006,0.02,-0.34,9.81,30.68
27850786,0.000686,0.002821,0.002071,0.0,-0.31,9.82,30.67
27851791,0.000686,0.001755,0.001006,0.02,-0.32,9.8,30.68
27852806,0.001751,0.001755,-6e-05,0.02,-0.34,9.78,30.66
27853820,-0.000379,0.004951,-6e-05,0.04,-0.35,9.78,30.64
27854827,-0.00251,0.004951,0.002071,0.06,-0.34,9.79,30.65
27855834,-0.00251,0.002821,0.003136,0.06,-0.33,9.8,30.67
27856846,-0.001445,0.00069,0.003136,0.04,-0.32,9.83,30.67
27857851,0.000686,-0.001441,0.001006,0.04,-0.31,9.82,30.65
27858862,0.000686,-0.001441,-6e-05,0.06,-0.34,9.84,30.67
27859870,-0.000379,-0.000375,-0.001125,0.05,-0.33,9.86,30.69
27860882,-0.00251,-0.000375,-6e-05,0.02,-0.33,9.83,30.65
27861891,-0.00251,-0.001441,0.001006,0.0,-0.34,9.8,30.63
27862902,-0.000379,-0.002506,0.002071,0.01,-0.33,9.84,30.64
27863918,0.001751,-0.000375,0.002071,0.03,-0.36,9.84,30.62
27864922,0.001751,-0.000375,0.001006,0.04,-0.33,9.82,30.67
27865930,0.000686,0.00069,0.003136,0.04,-0.31,9.85,30.67
27866942,-0.000379,0.001755,0.004201,0.02,-0.34,9.83,30.69
27867950,0.001751,0.002821,0.001006,0.01,-0.35,9.82,30.68
27868962,0.002816,0.003886,-0.001125,0.03,-0.32,9.82,30.67
27869970,0.002816,0.001755,-0.001125,0.02,-0.27,9.79,30.64
27870982,0.000686,0.001755,0.001006,0.01,-0.28,9.83,30.62
27871991,-0.000379,0.001755,0.002071,0.01,-0.34,9.82,30.62
27873002,0.001751,0.002821,0.002071,0.02,-0.32,9.83,30.6
27874017,0.002816,0.001755,0.001006,0.02,-0.3,9.87,30.62
27875022,0.002816,-0.000375,-0.00219,0.01,-0.32,9.83,30.64
27876030,0.000686,-0.000375,-0.003256,0.02,-0.31,9.82,30.66
27877044,-0.001445,-0.000375,-0.003256,0.02,-0.33,9.82,30.67
27878050,-0.000379,-0.001441,-0.001125,0.02,-0.33,9.81,30.67
27879062,-0.001445,-0.001441,-6e-05,0.03,-0.3,9.86,30.64
27880070,-0.001445,-0.001441,-6e-05,0.01,-0.3,9.86,30.67
27881082,-0.001445,-0.000375,-6e-05,0.03,-0.31,9.75,30.64
27882091,-0.000379,0.00069,-6e-05,0.06,-0.33,9.73,30.62
27883102,-0.001445,-0.000375,-6e-05,0.03,-0.34,9.75,30.64
27884118,-0.00251,-0.001441,0.001006,0.02,-0.32,9.8,30.66
27885122,-0.001445,-0.000375,0.002071,0.07,-0.28,9.85,30.67
27886130,0.001751,0.001755,0.002071,0.04,-0.29,9.84,30.67
27887142,0.002816,0.002821,0.001006,0.01,-0.32,9.82,30.69
