time_us,gyro_x_rad_s,gyro_y_rad_s,gyro_z_rad_s,acc_x_m_s2,acc_y_m_s2,acc_z_m_s2
798968706,-0.001122,0.001583,0.001908,0.03,-0.34,9.82
798969450,0.001008,0.000517,0.001906,0.03,-0.33,9.81
798970455,0.003136,-0.000548,0.000840,0.04,-0.32,9.80
798971465,0.002069,-0.002676,0.000839,0.04,-0.34,9.76
798972475,0.001002,-0.001609,0.001903,0.03,-0.34,9.80
798973485,0.001001,0.000521,0.002965,0.04,-0.31,9.86
798974495,0.002064,0.001585,0.001898,0.04,-0.28,9.84
798975505,0.002062,0.000519,0.000832,0.02,-0.26,9.79
798976515,0.000996,-0.000546,-0.000234,0.02,-0.30,9.79
798977517,-0.001133,-0.000545,-0.001297,0.05,-0.29,9.83
798978535,-0.002196,-0.000545,-0.000232,0.07,-0.24,9.82
798979545,-0.002194,-0.001608,0.001897,0.05,-0.28,9.80
798980555,-0.002192,-0.000542,0.000831,0.04,-0.30,9.78
798981565,-0.002190,-0.000542,-0.001299,0.04,-0.30,9.77
798982575,-0.004316,-0.000541,-0.000233,0.06,-0.30,9.78
798983587,-0.003247,0.001588,0.001895,0.04,-0.32,9.86
798984631,0.001013,0.002650,-0.000235,0.02,-0.35,9.87
798985609,0.002076,0.000519,-0.002363,0.00,-0.32,9.79
798986624,0.002074,-0.001610,-0.001296,0.00,-0.30,9.78
798987636,0.002072,-0.000544,0.000833,0.02,-0.33,9.78
798988645,-0.000059,0.001585,0.001897,0.02,-0.33,9.84
798989651,-0.002187,0.000519,-0.000234,0.02,-0.32,9.88
798990665,-0.001121,-0.000546,-0.001298,0.00,-0.31,9.82
798991675,-0.001120,-0.000545,-0.001296,0.00,-0.28,9.82
798992685,-0.001118,-0.000545,-0.000231,0.03,-0.28,9.82
798993692,-0.000053,0.000520,0.000834,0.04,-0.31,9.83
798994696,-0.002181,0.002648,0.000833,0.04,-0.31,9.79
798995718,-0.004308,0.002645,0.000832,0.04,-0.31,9.77
798996723,-0.004303,0.002643,-0.000233,0.02,-0.29,9.84
798997734,-0.001106,-0.000553,-0.000233,0.03,-0.29,9.86
798998746,-0.000041,-0.000552,0.000832,0.04,-0.33,9.83
798999752,-0.002169,0.000513,0.000831,0.05,-0.32,9.83
799000759,0.001025,-0.000552,-0.000234,0.04,-0.31,9.86
799001768,0.002089,-0.001616,-0.000234,0.00,-0.31,9.84
799002779,-0.001106,-0.001614,-0.000234,-0.01,-0.30,9.82
799003785,-0.003233,0.000516,-0.001298,-0.01,-0.30,9.81
799004799,-0.002166,0.000516,-0.002361,0.01,-0.31,9.80
799005809,-0.002164,-0.001613,-0.001294,0.03,-0.28,9.82
799006819,-0.002162,-0.000548,-0.002357,0.03,-0.29,9.85
799007827,-0.002159,0.000517,-0.003419,0.03,-0.29,9.84
799008828,-0.001093,0.001581,-0.003415,0.02,-0.27,9.84
799009845,-0.001092,0.001579,0.000845,0.01,-0.28,9.82
799010855,0.001038,0.000514,0.004037,0.04,-0.31,9.85
799011865,-0.000028,-0.002680,0.005097,0.04,-0.32,9.87
799012875,-0.001092,-0.003741,0.001899,0.01,-0.31,9.85
799013877,-0.002155,-0.003737,-0.000231,-0.01,-0.32,9.87
799014895,-0.004281,-0.004798,0.000833,-0.02,-0.32,9.82
799015905,-0.004277,-0.003729,0.002961,0.01,-0.30,9.78
799016915,-0.003208,-0.002661,0.002958,0.03,-0.31,9.76
799017925,-0.001077,-0.000530,0.000826,0.02,-0.32,9.78
799018935,0.002117,0.001599,-0.000239,0.01,-0.32,9.83
799019945,0.002115,0.002662,0.000826,0.03,-0.28,9.79
799020955,-0.000016,0.000531,0.000825,0.05,-0.28,9.80
799021957,-0.002144,0.000530,0.001888,0.06,-0.33,9.81
799022975,-0.003206,0.001594,0.001886,0.04,-0.35,9.80
799023985,-0.001074,0.001592,0.001884,0.00,-0.35,9.77
799024995,0.002119,0.001591,0.000818,-0.02,-0.34,9.78
799026005,0.001053,-0.000539,-0.000247,0.03,-0.30,9.80
799027015,-0.000012,0.001590,-0.000246,0.03,-0.27,9.80
799028025,0.002116,0.001588,0.000818,0.05,-0.27,9.83
799029035,0.003178,0.001586,0.001881,0.06,-0.30,9.82
799030045,0.002111,0.001585,0.002944,0.05,-0.33,9.83
799031055,0.001044,0.000519,0.000812,0.05,-0.32,9.80
799032065,-0.001085,-0.001610,0.001876,0.02,-0.33,9.78
799033075,-0.000020,-0.001608,0.002938,0.00,-0.31,9.76
799034085,-0.000020,-0.001607,0.001871,0.03,-0.27,9.78
799035095,0.001044,-0.000541,-0.000260,0.03,-0.27,9.81
799036105,0.002108,-0.001604,-0.002388,0.02,-0.28,9.82
799037115,0.002105,-0.002667,-0.002385,0.06,-0.26,9.82
799038125,0.002103,-0.001600,-0.000254,0.05,-0.29,9.81
799039135,0.002101,-0.000534,0.000810,0.04,-0.35,9.77
799040145,0.002099,0.000530,0.000809,0.04,-0.31,9.77
799041155,0.001033,0.000530,-0.001320,0.04,-0.31,9.82
799042165,-0.000033,-0.000535,-0.001319,0.01,-0.31,9.82
799043175,-0.000032,-0.000534,-0.000253,-0.01,-0.30,9.78
799044177,-0.000032,-0.001598,-0.000253,0.01,-0.33,9.76
799045195,0.002096,-0.001596,-0.000253,0.05,-0.33,9.78
799046205,0.003158,-0.001595,-0.000252,0.09,-0.31,9.82
799047215,0.003155,-0.001593,0.000812,0.06,-0.28,9.84
799048225,0.002088,-0.003720,0.000811,0.01,-0.30,9.82
799049235,0.003150,-0.002652,0.001875,0.00,-0.32,9.82
799050245,0.002082,-0.000521,0.000809,0.01,-0.31,9.78
799051255,-0.000048,-0.000520,-0.001321,0.02,-0.29,9.77
799052257,0.001016,-0.001584,-0.003448,0.06,-0.29,9.76
799053275,0.001015,-0.002647,-0.003444,0.04,-0.28,9.76
799054285,0.001014,-0.001580,-0.001312,0.03,-0.28,9.82
799055295,-0.000051,0.001614,-0.001311,0.04,-0.31,9.82
799056305,-0.000051,0.000549,-0.000246,0.03,-0.33,9.80
799057315,-0.000051,-0.000516,0.000819,0.04,-0.29,9.78
799058325,-0.000051,-0.001580,-0.001310,0.06,-0.28,9.78
799059335,0.001013,-0.000514,-0.003437,0.04,-0.30,9.81
799060345,0.001012,0.000551,-0.003434,-0.01,-0.29,9.80
799061355,0.001011,0.000550,-0.003430,0.00,-0.30,9.77
799062365,0.001010,-0.000515,-0.003427,0.03,-0.31,9.77
799063375,0.001009,-0.002643,-0.002359,0.03,-0.28,9.77
799064385,-0.000056,-0.002640,-0.001293,0.02,-0.28,9.80
799065395,-0.001120,-0.001573,0.000837,0.01,-0.31,9.81
799066405,-0.000055,0.000557,0.001900,0.02,-0.34,9.78
799067415,0.001009,0.001621,0.001898,0.04,-0.34,9.80
799068425,0.002072,0.000555,0.000832,0.04,-0.34,9.82
799069435,0.002070,-0.001574,0.000831,0.02,-0.34,9.83
799070445,0.001004,-0.001573,-0.000234,0.00,-0.33,9.81
799071455,-0.000061,-0.001571,-0.001298,0.03,-0.31,9.84
799072465,-0.000061,-0.001569,-0.001296,0.03,-0.31,9.84
799073475,-0.000061,-0.001568,-0.000231,0.02,-0.31,9.77
799074485,0.001003,0.000562,0.000834,0.00,-0.31,9.83
799075495,0.003131,0.000562,0.000833,0.02,-0.33,9.85
799076505,0.004192,-0.000503,-0.000232,0.04,-0.32,9.85
799077515,-0.000069,-0.001567,-0.001296,0.02,-0.31,9.88
799078525,-0.003262,-0.000501,-0.001295,0.01,-0.32,9.87
799079535,-0.003259,-0.002629,-0.001294,0.03,-0.29,9.82
799080545,-0.003255,-0.002626,0.000836,0.02,-0.30,9.82
799081555,-0.003252,0.000569,0.001900,-0.01,-0.32,9.82
799082565,-0.002185,0.001633,0.001898,0.03,-0.29,9.77
799083575,-0.001118,0.002695,0.001896,0.03,-0.29,9.77
799084577,-0.000053,0.002692,0.001894,0.02,-0.33,9.81
799085597,-0.000053,0.002690,0.000828,0.00,-0.34,9.83
799086609,-0.000053,0.002687,0.000827,-0.01,-0.34,9.84
799087627,0.001012,0.002684,0.000826,0.02,-0.34,9.84
799088637,0.002075,0.000553,-0.000239,0.03,-0.30,9.81
799089645,0.002073,0.000553,-0.002367,0.02,-0.30,9.82
799090651,-0.000058,0.001616,-0.002365,-0.01,-0.33,9.84
799091665,-0.001122,0.000550,-0.001298,0.03,-0.33,9.86
799092675,-0.000057,-0.000514,-0.001297,0.05,-0.32,9.84
799093685,-0.000057,0.001615,-0.000231,0.03,-0.32,9.82
799094693,-0.001121,0.001613,-0.000231,0.02,-0.31,9.79
799095703,-0.002184,-0.000517,-0.000231,0.04,-0.31,9.78
799096718,-0.002182,-0.001581,-0.001295,0.05,-0.30,9.82
799097723,-0.001115,-0.001579,-0.001294,0.04,-0.29,9.77
799098734,0.001014,0.001615,-0.001292,0.00,-0.31,9.79
799099746,0.001013,0.002678,0.000837,-0.01,-0.32,9.80
799100752,-0.001116,0.002675,-0.000228,0.01,-0.30,9.79
799101759,-0.001115,0.000544,-0.002356,0.01,-0.31,9.82
799102768,-0.000050,-0.001585,-0.001289,-0.02,-0.30,9.78
799103779,-0.000050,-0.000519,0.000840,-0.01,-0.28,9.76
799104785,0.001015,0.003738,0.000840,-0.02,-0.30,9.77
799105799,0.001014,0.004798,-0.000225,0.00,-0.30,9.79
799106809,0.002077,0.003729,-0.001289,0.06,-0.29,9.81
799107819,0.001010,0.002661,-0.001288,0.07,-0.28,9.86
799108827,0.001009,-0.000534,0.000842,0.04,-0.27,9.85
799109836,0.001008,-0.001598,0.000841,0.03,-0.29,9.81
799110845,0.001007,-0.001596,-0.001289,0.04,-0.30,9.84
799111855,-0.000058,-0.000530,-0.002351,0.04,-0.31,9.82
799112865,-0.002186,-0.002658,-0.002349,0.01,-0.30,9.79
799113875,-0.001120,-0.003720,-0.001282,0.01,-0.31,9.85
799114885,-0.000054,0.000541,-0.000217,0.05,-0.32,9.81
799115887,0.002074,0.002669,0.000847,0.05,-0.30,9.74
799116905,0.002072,0.001602,0.001911,0.02,-0.31,9.81
799117915,-0.000059,-0.000528,-0.000220,0.03,-0.30,9.86
799118925,-0.001123,0.000537,-0.000219,0.03,-0.28,9.84
799119935,-0.001122,0.002665,-0.000219,0.03,-0.31,9.82
799120945,-0.000056,0.002662,0.000845,0.03,-0.32,9.81
799121955,0.001008,0.000531,0.000844,-0.02,-0.32,9.79
799122965,0.001007,-0.000534,0.000844,0.01,-0.30,9.79
799123975,-0.000058,0.000531,0.000843,0.03,-0.30,9.85
799124985,-0.000058,0.001594,0.000842,0.02,-0.32,9.90
799125995,0.001006,0.001593,0.000841,0.03,-0.30,9.87
799127005,0.003133,0.002655,0.001904,0.01,-0.32,9.83
799128015,0.001002,0.002653,0.000838,0.01,-0.32,9.79
799129025,0.001001,0.000522,0.001902,0.00,-0.30,9.80
799130035,0.001000,0.001585,0.001900,-0.01,-0.31,9.82
799131045,0.000999,0.003712,0.000834,0.03,-0.33,9.79
799132055,0.002062,0.004773,0.000833,0.04,-0.34,9.82
799133065,-0.000068,0.004768,0.000832,0.03,-0.36,9.82
799134075,-0.001133,0.002635,0.000831,0.04,-0.33,9.76
799135085,-0.001131,-0.000561,0.000830,0.03,-0.29,9.73
799136095,-0.001130,-0.000560,-0.000235,0.00,-0.28,9.77
799137105,0.000999,0.000505,-0.001299,0.00,-0.29,9.84
799138115,0.000998,-0.001624,-0.001297,0.02,-0.28,9.83
799139125,-0.001131,-0.002687,-0.000232,0.00,-0.30,9.80
799140135,-0.001130,-0.002684,-0.000232,-0.01,-0.29,9.82
799141145,0.001000,-0.000553,-0.000231,-0.01,-0.28,9.81
799142155,-0.001130,-0.000552,0.000833,0.00,-0.29,9.77
799143165,-0.002193,-0.000552,0.002961,0.01,-0.30,9.77
799144175,-0.003255,-0.001616,0.001893,0.03,-0.29,9.78
799145185,-0.003252,-0.002678,0.000827,0.01,-0.28,9.79
799146195,-0.002184,-0.001611,-0.000238,0.02,-0.29,9.79
799147205,-0.001118,-0.000545,-0.000238,0.03,-0.30,9.77
799148215,-0.000052,-0.001609,0.000827,0.02,-0.29,9.79
799149225,-0.000052,-0.000543,0.000826,0.01,-0.31,9.79
799150235,0.002076,0.002650,-0.001303,-0.01,-0.32,9.79
799151245,0.001010,0.005840,-0.001302,-0.01,-0.29,9.79
799152255,-0.000055,0.005834,-0.000236,0.02,-0.29,9.78
799153265,-0.000055,0.002635,0.001892,0.01,-0.26,9.80
799154275,0.001009,-0.000560,0.001890,0.03,-0.25,9.80
799155285,0.001008,-0.000559,0.001888,0.01,-0.26,9.81
799156295,0.003135,-0.000559,0.000822,-0.02,-0.29,9.83
799157305,0.003132,0.000506,-0.001307,-0.01,-0.30,9.85
799158315,0.003129,0.000506,-0.003434,0.02,-0.30,9.83
799159325,0.003126,0.001569,-0.002366,0.04,-0.32,9.78
799160335,0.002058,0.002632,-0.000235,0.00,-0.31,9.77
799161345,-0.000072,0.000501,-0.001299,-0.02,-0.30,9.76
799162355,-0.001136,-0.001628,-0.002362,0.03,-0.30,9.77
799163365,-0.001135,-0.001626,-0.001296,0.06,-0.32,9.82
799164367,-0.001134,-0.000561,-0.000230,0.02,-0.30,9.84
799165377,-0.002197,0.001568,-0.000230,0.00,-0.28,9.81
799166395,-0.001131,0.002631,-0.002358,0.02,-0.30,9.78
799167405,-0.000065,0.002628,-0.001292,0.03,-0.27,9.81
799168415,-0.000065,0.001561,0.000838,0.04,-0.27,9.83
799169425,0.002063,0.001560,0.002966,0.05,-0.30,9.87
799170435,0.002061,0.004751,0.001898,0.02,-0.29,9.90
799171445,0.000995,0.004746,0.000832,0.01,-0.29,9.82
799172455,-0.000070,0.002613,-0.001297,0.03,-0.28,9.80
799173465,-0.001134,0.001546,-0.002360,0.04,-0.31,9.81
799174475,-0.001133,0.001545,-0.002357,0.03,-0.30,9.80
799175485,-0.001132,0.001543,-0.004483,0.01,-0.26,9.85
799176495,-0.002195,-0.000587,-0.003415,0.00,-0.29,9.86
799177505,-0.001129,-0.001651,-0.000219,0.02,-0.32,9.81
799178515,-0.000063,-0.000585,-0.000218,0.03,-0.31,9.80
799179525,-0.001128,0.001544,-0.000218,0.02,-0.29,9.78
799180535,-0.001126,0.001543,-0.000218,0.03,-0.32,9.79
799181537,-0.002189,0.002605,-0.001282,0.02,-0.31,9.87
799182547,-0.001123,0.003667,-0.002345,0.01,-0.28,9.87
799183565,0.001006,0.002599,0.000850,0.02,-0.30,9.80
799184575,0.002070,0.000468,0.001913,0.02,-0.30,9.79
799185588,0.001003,0.000468,-0.000217,0.03,-0.29,9.82
799186589,-0.000062,0.000467,-0.001281,0.02,-0.28,9.85
799187609,-0.001126,-0.000598,-0.000215,0.00,-0.29,9.82
799188624,-0.000061,-0.001661,-0.002344,0.01,-0.33,9.79
799189653,-0.000061,-0.001660,-0.004470,0.03,-0.33,9.80
799190645,-0.000061,-0.002722,-0.004465,0.01,-0.30,9.85
799191651,0.001004,-0.003784,-0.003396,0.01,-0.28,9.86
799192665,0.003131,-0.003780,-0.002329,0.03,-0.28,9.81
799193675,0.002064,-0.003776,-0.002326,0.04,-0.29,9.80
799194685,-0.000067,-0.002708,-0.003388,0.06,-0.26,9.80
799195692,-0.000067,0.000487,-0.003385,0.05,-0.28,9.80
799196703,0.002062,0.000487,-0.001253,0.07,-0.35,9.84
799197718,0.003124,-0.000578,-0.000188,0.03,-0.34,9.86
799198723,0.002057,-0.003770,-0.001252,0.00,-0.31,9.79
799199734,0.002055,-0.002702,-0.001250,0.02,-0.31,9.75
799200746,0.003117,-0.001635,-0.000185,0.01,-0.32,9.80
799201752,0.003113,-0.001633,0.000880,0.03,-0.32,9.86
799202759,0.002046,-0.000567,-0.001250,0.05,-0.31,9.85
799203787,-0.000084,0.000497,-0.001248,0.04,-0.28,9.80
799204779,-0.000084,0.002625,-0.001247,0.03,-0.30,9.79
799205788,-0.000084,0.002623,-0.002310,0.02,-0.34,9.82
799206799,-0.002212,0.001556,-0.001244,-0.01,-0.33,9.84
799207809,-0.004339,0.001554,0.000886,0.01,-0.29,9.79
799208819,-0.003270,0.000489,0.001949,0.05,-0.28,9.76
799209819,-0.000074,-0.001640,0.003012,0.06,-0.27,9.78
799210836,-0.000074,-0.003767,0.003009,0.05,-0.28,9.83
799211845,-0.002202,-0.001635,0.003006,0.03,-0.32,9.84
799212855,-0.002200,-0.000569,0.000874,0.01,-0.33,9.85
799213865,-0.000070,-0.002697,-0.000191,-0.02,-0.31,9.85
799214875,0.000995,-0.002694,-0.001255,0.01,-0.30,9.81
799215885,0.000994,0.000501,-0.001254,0.04,-0.32,9.79
799216895,-0.002200,0.002629,-0.001252,0.02,-0.31,9.83
799217905,-0.002198,0.001562,-0.001251,0.04,-0.29,9.85
799218915,-0.001131,-0.000568,-0.000186,0.04,-0.29,9.82
799219925,-0.001130,-0.001631,-0.001250,0.00,-0.31,9.80
799220927,-0.001129,0.000499,0.000880,-0.03,-0.32,9.82
799221945,-0.002192,-0.000566,0.003007,-0.02,-0.31,9.81
799222955,-0.000061,-0.001630,0.004069,0.01,-0.30,9.82
799223965,-0.000061,0.000500,0.003000,0.03,-0.30,9.86
799224975,0.001003,0.001564,0.001933,0.03,-0.28,9.84
799225985,0.001002,0.000498,-0.000197,0.04,-0.31,9.79
799226995,-0.000063,0.000498,-0.000197,0.04,-0.32,9.83
799227997,-0.001127,-0.000567,0.000867,0.03,-0.30,9.79
799229007,-0.001126,-0.000566,0.001931,0.04,-0.32,9.79
799230025,0.001003,-0.000566,0.001929,0.01,-0.33,9.82
799231035,0.003131,-0.001629,0.001927,-0.01,-0.30,9.79
799232045,0.002063,-0.003756,0.001925,-0.01,-0.29,9.74
799233055,-0.001131,-0.003752,0.000859,0.02,-0.31,9.74
799234065,-0.002195,-0.004813,-0.000206,0.05,-0.32,9.82
799235075,-0.002192,-0.002680,-0.000206,0.02,-0.32,9.82
799236085,-0.001126,-0.000548,-0.000206,0.01,-0.30,9.80
799237095,0.002068,-0.000548,0.000858,0.02,-0.31,9.81
799238105,0.003130,0.000517,0.001922,0.03,-0.31,9.77
799239115,0.004191,0.001581,0.002984,0.02,-0.29,9.74
799240117,0.003123,0.003707,0.002981,-0.02,-0.29,9.78
799241135,0.003119,0.003704,0.002978,0.00,-0.29,9.82
799242145,0.000988,0.004764,0.001911,0.02,-0.31,9.82
799243186,-0.000077,0.004759,0.002973,0.01,-0.31,9.79
799244165,0.000987,0.003690,0.001906,0.02,-0.29,9.80
799245175,0.002050,0.001558,0.000840,0.04,-0.28,9.77
799246185,0.002048,0.000492,-0.002354,0.05,-0.29,9.73
799247195,0.000982,0.002620,-0.002351,0.00,-0.30,9.78
799248222,0.002045,0.002618,-0.000221,0.00,-0.30,9.77
799249215,0.002043,0.000486,0.000844,0.01,-0.32,9.78
799250225,-0.000088,0.000486,-0.000221,0.00,-0.30,9.83
799251241,-0.003280,-0.000579,-0.001285,0.02,-0.27,9.82
799252245,-0.003277,-0.002707,-0.001284,0.03,-0.30,9.81
799253255,-0.003273,-0.002704,-0.000218,0.04,-0.31,9.78
799254265,-0.001142,-0.000573,-0.000218,0.02,-0.30,9.82
799255275,0.000988,0.001556,-0.000218,-0.02,-0.31,9.86
799256285,0.000987,0.002619,0.000846,-0.01,-0.30,9.85
799257295,0.000986,0.002616,0.001910,0.03,-0.28,9.82
799258305,-0.000079,0.001549,0.000844,0.04,-0.26,9.84
799259315,0.000985,0.001548,-0.000221,0.04,-0.26,9.87
799260325,0.000984,0.000482,-0.001285,0.05,-0.26,9.81
799261335,0.002047,0.000482,-0.001284,0.04,-0.29,9.78
799262345,0.002045,0.000481,-0.001283,-0.01,-0.33,9.78
799263355,0.000979,-0.000584,-0.001282,0.00,-0.30,9.79
799264365,-0.000086,-0.002711,0.000848,0.00,-0.28,9.79
799265375,0.002042,-0.002709,0.001911,0.02,-0.28,9.78
799266385,0.003104,-0.000577,0.002974,0.01,-0.29,9.77
799267395,0.002037,-0.000577,0.001907,0.01,-0.33,9.69
799268405,0.000971,0.000488,-0.001288,0.06,-0.31,9.74
799269407,-0.000095,0.000487,-0.000222,0.06,-0.28,9.82
799270425,-0.001159,0.001551,0.000842,0.04,-0.31,9.83
799271435,-0.002222,0.003678,-0.001287,0.02,-0.33,9.83
799272445,-0.003284,0.004738,-0.000222,0.00,-0.32,9.78
799273455,-0.004344,0.003669,0.000843,0.02,-0.32,9.74
799274465,-0.002212,0.000473,0.001906,0.02,-0.28,9.75
799275475,-0.001145,-0.001656,0.000840,0.03,-0.29,9.77
799276477,-0.001144,-0.000590,-0.000225,0.04,-0.29,9.79
799277495,-0.001143,0.002603,-0.000225,0.02,-0.29,9.79
799278505,-0.001142,0.002601,-0.002353,0.00,-0.30,9.80
799279507,-0.000076,0.000470,-0.001287,-0.01,-0.33,9.78
799280525,-0.000076,-0.000595,0.000843,0.03,-0.34,9.79
799281535,-0.000076,-0.000594,0.000842,0.04,-0.29,9.82
799282545,0.000988,-0.000594,-0.000223,-0.01,-0.31,9.81
799283555,0.000987,0.000471,-0.001287,0.02,-0.33,9.79
799284565,-0.000078,-0.000594,-0.000221,0.05,-0.32,9.75
799285576,-0.001142,0.000471,-0.000221,0.01,-0.31,9.73
799286592,-0.001141,0.000471,-0.000221,0.00,-0.28,9.73
799287597,-0.001140,-0.000594,-0.001285,0.02,-0.28,9.76
799288609,-0.001139,-0.000593,-0.002348,0.03,-0.27,9.79
799289618,0.002055,0.000471,-0.002345,0.02,-0.27,9.84
799290635,0.003117,0.000471,-0.000215,0.03,-0.28,9.85
799291639,0.003114,-0.000594,-0.000214,0.03,-0.30,9.78
799292653,0.003111,-0.000593,0.000850,0.01,-0.32,9.76
799293691,0.002043,0.000472,-0.000215,0.02,-0.31,9.78
799294676,-0.000087,0.002599,-0.000215,0.02,-0.28,9.77
799295683,-0.001151,0.002597,-0.000214,0.01,-0.29,9.79
799296693,0.000978,0.001530,-0.000214,0.01,-0.32,9.82
799297702,0.002042,-0.000600,-0.000214,0.01,-0.29,9.83
799298719,0.002039,-0.003792,-0.000214,0.04,-0.31,9.86
799299719,0.002037,-0.003788,0.000851,0.03,-0.30,9.87
799300724,0.000971,-0.002720,0.000850,-0.02,-0.28,9.81
799301745,-0.000094,-0.000589,0.000849,-0.04,-0.29,9.80
799302752,-0.000094,0.002604,0.000848,-0.02,-0.30,9.79
799303759,0.000970,0.001537,0.000847,0.02,-0.31,9.76
799304768,0.000969,-0.000592,0.000846,0.03,-0.30,9.75
799305783,-0.002224,0.000472,-0.000219,0.03,-0.31,9.78
799306785,-0.007543,0.000472,-0.002347,0.04,-0.33,9.83
799307799,-0.006471,-0.000593,-0.000216,0.04,-0.33,9.84
799308809,-0.000079,-0.000592,0.000848,0.04,-0.33,9.84
799309819,0.003113,-0.001656,0.002976,0.03,-0.34,9.84
799310827,0.004174,-0.004847,0.002973,0.00,-0.33,9.81
799311836,0.005234,-0.003778,0.000841,0.05,-0.30,9.78
799312845,0.004165,-0.001645,0.000841,0.05,-0.30,9.81
799313855,-0.000096,0.000485,0.002968,-0.02,-0.32,9.86
799314865,-0.003289,0.001548,0.001901,-0.01,-0.30,9.86
799315875,-0.001157,0.000483,-0.000229,0.02,-0.28,9.83
799316885,0.000973,0.000482,-0.001293,0.02,-0.28,9.81
799317887,0.003100,0.001546,-0.000228,0.01,-0.30,9.81
799318905,0.002033,0.001544,0.001901,0.03,-0.32,9.81
799319907,0.000966,0.001543,0.001899,0.02,-0.31,9.81
799320925,0.000965,-0.001652,-0.000232,-0.01,-0.32,9.80
799321935,0.000964,-0.003778,-0.000231,-0.01,-0.33,9.79
799322945,-0.000101,-0.001646,0.000833,0.04,-0.30,9.82
799323955,-0.002229,-0.000580,0.001897,0.04,-0.28,9.84
799324957,-0.003291,-0.001644,0.000830,0.01,-0.33,9.77
799325975,-0.000095,-0.002706,-0.002363,0.04,-0.28,9.78
799326977,-0.000095,-0.003768,-0.002361,0.02,-0.32,9.84
799327995,-0.002223,-0.000571,-0.001294,0.00,-0.31,9.83
799329005,-0.002221,0.001558,0.001900,-0.01,-0.33,9.82
799330015,-0.000090,0.000492,0.001898,0.01,-0.34,9.82
799331025,0.003102,-0.001637,-0.001297,0.01,-0.34,9.82
799332035,0.002035,-0.001635,-0.003424,0.00,-0.34,9.84
799333045,-0.000095,-0.001634,-0.002356,0.00,-0.31,9.83
799334055,-0.001160,-0.001632,-0.000225,0.02,-0.29,9.81
799335065,-0.002223,-0.001630,0.000839,0.04,-0.28,9.77
799336075,-0.001156,-0.000565,-0.000226,0.04,-0.28,9.82
799337077,0.000973,0.001564,-0.003418,0.02,-0.30,9.86
799338087,0.003101,0.001563,-0.004479,0.02,-0.31,9.79
799339097,0.003098,-0.000567,-0.004475,0.03,-0.32,9.81
799340115,0.002030,-0.002695,-0.002342,0.00,-0.32,9.83
799341125,0.000964,-0.003756,-0.001275,0.00,-0.31,9.77
799342135,-0.001165,-0.003753,0.000855,0.04,-0.32,9.76
799343145,-0.002228,-0.000556,0.001918,0.03,-0.33,9.78
799344155,-0.002226,0.000508,-0.000212,0.01,-0.32,9.78
799345165,-0.001160,0.000508,-0.000212,0.02,-0.30,9.76
799346175,-0.000094,-0.000557,-0.002340,0.04,-0.29,9.76
799347185,0.002034,0.000508,-0.003402,0.04,-0.31,9.81
799348195,0.003097,0.000508,-0.004463,0.00,-0.33,9.82
799349205,0.003093,0.001571,-0.002330,0.02,-0.32,9.79
799350215,0.003090,0.002634,-0.000199,0.02,-0.33,9.79
799351225,0.000959,0.003695,-0.000199,-0.01,-0.30,9.85
799352235,-0.002235,0.002627,0.000865,0.03,-0.24,9.86
799353245,-0.005425,0.000496,0.000864,0.05,-0.27,9.84
799354255,-0.004356,0.000496,0.000864,0.03,-0.34,9.87
799355265,-0.001159,0.002624,-0.000201,0.03,-0.32,9.89
799356267,-0.000093,0.003685,-0.000201,0.04,-0.29,9.84
799357285,-0.000093,0.004746,0.000863,0.04,-0.32,9.81
799358295,-0.000093,0.002613,0.000862,0.05,-0.28,9.84
799359305,-0.001157,0.000482,0.000861,0.04,-0.29,9.82
799360315,-0.000092,0.000481,-0.001268,-0.02,-0.35,9.78
799361317,0.000973,0.001545,-0.003395,-0.02,-0.34,9.80
799362335,0.000972,0.003672,-0.002327,0.04,-0.32,9.80
799363345,0.002035,0.001540,-0.000197,0.05,-0.32,9.77
799364355,-0.000096,0.000474,-0.000196,0.04,-0.30,9.80
799365365,-0.001160,-0.000591,-0.001260,0.04,-0.30,9.82
799366375,-0.000094,-0.000590,-0.001259,0.03,-0.33,9.80
799367385,-0.000094,0.001539,-0.000194,0.03,-0.29,9.80
799368395,-0.000094,0.001537,-0.001258,0.01,-0.28,9.79
799369405,0.000970,0.000471,-0.001256,-0.01,-0.27,9.81
799370415,0.000969,-0.001657,-0.000191,0.01,-0.29,9.83
799371425,-0.001160,-0.001656,0.001938,0.02,-0.34,9.82
799372435,-0.002223,0.000474,0.003000,0.02,-0.34,9.83
799373445,-0.000093,0.000474,0.000868,0.00,-0.35,9.79
799374455,0.000972,0.000473,-0.001261,-0.01,-0.32,9.74
799375465,0.000971,-0.001656,-0.002324,0.00,-0.30,9.78
799376475,-0.000094,-0.001654,-0.001257,0.01,-0.28,9.83
799377485,0.002034,0.000476,0.001937,0.00,-0.28,9.82
799378495,0.002032,0.002604,0.002999,0.00,-0.31,9.84
799379505,-0.000098,0.002601,0.001932,0.00,-0.32,9.85
799380515,-0.000098,0.000470,0.000866,0.00,-0.31,9.84
799381525,-0.000098,-0.001658,0.000865,0.02,-0.30,9.83
799382535,-0.001162,-0.001657,-0.000200,0.04,-0.32,9.82
799383545,-0.001161,-0.000591,-0.000200,0.03,-0.32,9.80
799384555,-0.002224,-0.000590,-0.001264,0.03,-0.28,9.80
799385557,-0.002222,-0.000590,-0.001263,0.04,-0.27,9.80
799386575,-0.001156,-0.001653,-0.001262,0.03,-0.29,9.81
799387621,0.000974,-0.000587,-0.000196,0.04,-0.28,9.79
799388598,0.000973,0.000477,0.002997,0.04,-0.29,9.77
799389609,0.000972,0.002605,0.004058,0.04,-0.31,9.78
799390618,-0.000093,0.003667,0.001925,0.04,-0.31,9.82
799391636,-0.000093,0.003663,-0.000205,0.02,-0.32,9.86
799392639,0.000971,0.002595,-0.000205,0.03,-0.33,9.86
799393653,-0.001158,0.002593,-0.000205,0.04,-0.33,9.82
799394676,-0.003285,0.003654,-0.002333,0.01,-0.33,9.80
799395674,-0.003282,0.003651,-0.001266,0.01,-0.35,9.82
799396687,-0.002215,0.001518,0.000863,0.03,-0.33,9.81
799397695,-0.002212,-0.001676,-0.000202,0.04,-0.28,9.78
799398703,-0.003274,-0.000610,-0.002330,0.01,-0.27,9.83
799399719,-0.001143,0.001519,-0.001263,-0.02,-0.26,9.84
799400724,-0.001141,0.001518,0.000866,0.00,-0.27,9.81
799401734,-0.002204,-0.000612,0.001930,0.02,-0.30,9.82
799402746,-0.003266,-0.001676,0.001928,0.04,-0.32,9.85
799403749,-0.003263,-0.002738,0.001926,0.03,-0.31,9.84
799404759,-0.002196,-0.001671,-0.000204,0.04,-0.29,9.83
799405774,-0.002193,-0.000606,-0.000204,0.07,-0.29,9.79
799406779,-0.001127,0.001524,-0.000204,0.05,-0.28,9.77
799407785,-0.000062,0.001522,-0.000204,0.02,-0.28,9.78
799408799,0.001003,-0.001672,0.000861,0.04,-0.29,9.81
799409809,0.001002,-0.002735,0.000860,0.03,-0.29,9.80
799410819,-0.000064,-0.001668,-0.001270,0.04,-0.27,9.79
799411827,-0.001128,0.000462,-0.003397,0.04,-0.29,9.81
799412845,-0.000062,0.000462,-0.004458,0.02,-0.31,9.82
799413845,-0.000062,-0.001667,-0.004453,0.04,-0.30,9.80
799414855,-0.000062,-0.001665,-0.004449,0.07,-0.29,9.80
799415865,-0.001126,0.000465,-0.002316,0.05,-0.29,9.84
799416875,-0.002189,0.003657,-0.000185,0.02,-0.28,9.85
799417885,-0.001123,0.003653,0.000880,0.02,-0.30,9.78
799418895,0.002071,0.002585,0.001943,0.03,-0.30,9.76
799419905,0.004197,0.000454,-0.000188,0.04,-0.30,9.80
799420915,0.002064,-0.000610,-0.001252,0.03,-0.32,9.79
799421933,0.000998,-0.000610,-0.001250,0.00,-0.30,9.80
799422935,-0.000067,-0.000609,-0.001249,0.02,-0.29,9.83
799423945,-0.001131,-0.000608,-0.000184,0.02,-0.30,9.84
799424955,-0.001130,-0.000608,0.000881,0.01,-0.28,9.84
799425965,-0.002193,-0.002736,0.003008,0.02,-0.28,9.83
799426975,-0.001127,-0.001669,0.003005,0.01,-0.29,9.83
799427985,-0.001126,-0.001667,0.000874,0.04,-0.31,9.82
799428995,-0.001125,-0.001665,-0.001255,0.04,-0.28,9.86
799430005,-0.001123,0.000465,-0.000190,0.03,-0.25,9.84
799431015,-0.001122,0.001529,0.001939,0.03,-0.28,9.78
799432033,-0.000057,0.002591,0.001937,0.04,-0.29,9.75
799433035,-0.000057,0.001524,-0.000194,0.04,-0.31,9.79
799434045,-0.000057,0.000459,-0.000193,0.02,-0.32,9.76
799435055,-0.001121,-0.000606,0.001935,0.02,-0.30,9.77
799436065,-0.001120,-0.000605,0.002997,0.04,-0.31,9.79
799437075,-0.000054,-0.001669,0.001930,0.02,-0.28,9.77
799438085,0.001010,-0.003796,-0.001264,0.01,-0.25,9.80
799439095,0.002073,-0.004856,-0.003392,0.02,-0.28,9.84
799440105,-0.000058,-0.000594,-0.000196,-0.01,-0.30,9.82
799441115,-0.001122,0.003663,0.000869,-0.02,-0.30,9.81
799442133,-0.001121,0.003659,-0.001260,-0.01,-0.30,9.83
799443135,-0.001119,0.002591,-0.001259,0.03,-0.32,9.82
799444145,-0.001118,-0.000604,-0.001258,0.03,-0.29,9.83
799445155,-0.003246,-0.001667,-0.001257,0.00,-0.25,9.80
799446165,-0.003242,-0.000602,-0.002320,0.03,-0.28,9.73
799447175,-0.000046,0.000463,-0.003381,0.02,-0.30,9.73
799448185,0.003146,0.000463,-0.003378,0.00,-0.29,9.80
799449195,0.003143,0.001527,-0.001246,0.01,-0.29,9.83
799450205,-0.000053,0.001525,0.000884,0.00,-0.30,9.80
799451215,-0.001117,0.002588,0.003011,-0.01,-0.31,9.79
799452233,-0.001116,0.003649,0.001944,0.02,-0.29,9.80
799453235,-0.001115,0.003646,-0.001251,0.02,-0.29,9.77
799454245,-0.001113,0.002578,-0.001250,0.02,-0.31,9.76
799455255,0.001016,0.000447,-0.000184,0.03,-0.30,9.78
799456265,-0.000049,-0.002746,-0.001248,0.02,-0.33,9.78
799457275,-0.000049,-0.004872,-0.001247,0.01,-0.33,9.76
799458285,0.001015,-0.003803,-0.001246,0.01,-0.31,9.83
799459295,-0.001114,-0.000606,-0.000180,0.01,-0.31,9.88
799460305,-0.001113,0.003651,0.000884,0.04,-0.28,9.86
799461307,-0.001112,0.003647,0.000883,0.05,-0.29,9.85
799462332,0.001017,0.000451,-0.000182,0.04,-0.32,9.82
799463335,0.002081,0.000450,-0.001246,0.03,-0.27,9.83
799464345,0.001014,0.000450,-0.000180,0.00,-0.28,9.85
799465355,-0.000051,-0.000615,0.001948,0.01,-0.30,9.84
799466365,-0.001115,-0.000614,0.003011,0.04,-0.28,9.81
799467375,-0.002178,0.000451,0.003008,0.02,-0.27,9.78
799468385,-0.000048,0.000450,-0.000188,0.00,-0.27,9.82
799469395,-0.001112,-0.000614,-0.000188,0.03,-0.28,9.82
799470405,-0.001111,-0.000614,0.000876,0.04,-0.31,9.82
799471415,-0.001109,0.000451,0.000876,0.05,-0.33,9.85
799472433,-0.001108,0.001515,0.000875,0.03,-0.29,9.82
799473435,-0.001107,-0.000615,0.003002,0.02,-0.30,9.78
799474445,-0.001106,-0.000614,0.001935,0.04,-0.30,9.79
799475455,-0.002169,-0.002742,0.000869,0.03,-0.28,9.79
799476465,-0.001103,-0.003804,-0.000196,0.02,-0.28,9.82
799477475,-0.002166,-0.003800,-0.001260,0.04,-0.29,9.81
799478485,-0.002164,-0.003796,-0.002323,0.04,-0.34,9.81
799479495,-0.001097,-0.002728,-0.003385,0.02,-0.33,9.83
799480505,0.001032,-0.000597,-0.001253,0.00,-0.30,9.82
799481507,0.001031,0.000468,-0.000188,-0.01,-0.33,9.80
799482533,-0.000034,0.001532,-0.001252,0.01,-0.29,9.78
799483535,-0.000034,0.001530,-0.001250,0.01,-0.30,9.78
799484545,-0.001098,0.000464,-0.001249,0.01,-0.31,9.79
799485555,-0.002161,-0.001664,-0.001248,0.02,-0.32,9.81
799486565,-0.003223,-0.002727,0.000882,0.01,-0.33,9.82
799487575,-0.003220,-0.002724,-0.000183,0.04,-0.33,9.80
799488591,-0.003217,-0.000593,-0.002312,0.03,-0.31,9.80
799489597,-0.004278,0.001536,-0.002309,0.01,-0.30,9.81
799490613,-0.003209,0.003663,-0.001243,0.03,-0.28,9.80
799491611,-0.001078,0.002595,-0.001241,0.03,-0.30,9.79
799492638,0.001052,0.000464,-0.001240,0.03,-0.31,9.78
799493639,0.002115,-0.001665,0.000889,0.03,-0.32,9.78
799494653,0.002113,-0.000599,0.001953,0.03,-0.31,9.82
799495666,0.002111,0.000466,0.003015,0.03,-0.30,9.82
799496699,0.003173,0.000465,0.001948,0.01,-0.32,9.81
799497692,-0.000023,-0.001664,-0.001247,-0.02,-0.34,9.82
799498694,-0.002151,-0.002726,-0.002310,-0.01,-0.35,9.82
799499702,-0.003213,-0.000595,-0.000179,0.00,-0.32,9.82
799500719,-0.001082,0.001534,0.001949,0.02,-0.29,9.82
799501726,0.001048,0.001532,0.004076,0.03,-0.30,9.80
799502741,0.001047,0.001531,0.004072,0.00,-0.31,9.83
799503745,-0.000019,0.000465,0.000875,0.01,-0.30,9.85
799504752,-0.003211,-0.002728,-0.000190,0.05,-0.27,9.81
799505765,-0.002144,-0.003789,0.000874,0.04,-0.25,9.74
799506768,0.001051,-0.003786,0.000873,0.04,-0.29,9.78
799507779,0.002114,-0.001653,-0.000192,0.04,-0.32,9.80
799508785,0.002112,0.000477,-0.000191,0.00,-0.29,9.78
799509799,-0.000019,0.000476,-0.000191,0.01,-0.30,9.80
799510810,-0.002147,-0.000588,-0.000191,0.05,-0.32,9.80
799511810,-0.002145,-0.002716,-0.001255,0.06,-0.33,9.86
799512835,-0.001078,-0.002714,-0.000190,0.06,-0.34,9.87
799513836,-0.000013,-0.001647,0.001939,0.05,-0.31,9.84
799514845,-0.000013,-0.000581,0.003001,0.01,-0.31,9.83
799515855,-0.000013,0.000484,0.001934,0.01,-0.32,9.81
799516865,-0.000013,0.000484,0.000868,0.04,-0.30,9.80
799517875,0.001051,-0.001645,-0.001261,0.06,-0.28,9.82
799518885,0.002114,-0.002708,-0.002324,0.04,-0.26,9.82
799519895,-0.000016,-0.002705,-0.002322,0.02,-0.28,9.79
799520905,-0.002145,-0.000574,-0.001255,0.03,-0.30,9.82
799521923,-0.003207,0.001555,0.000874,0.02,-0.29,9.80
799522925,-0.003203,0.001553,0.001938,0.01,-0.30,9.77
799523935,-0.001072,0.002616,0.000871,0.03,-0.29,9.80
799524945,0.001058,0.002613,-0.000194,0.04,-0.30,9.81
799525955,0.002121,-0.000582,0.000871,0.05,-0.28,9.86
799526965,0.003183,-0.000581,-0.000194,0.04,-0.27,9.86
799527975,0.001051,-0.000581,-0.001258,0.03,-0.28,9.79
799528985,-0.001078,-0.000580,-0.001257,0.03,-0.30,9.79
799529995,-0.002141,0.001549,0.000873,0.03,-0.31,9.81
799531005,0.001053,0.000483,0.001936,0.02,-0.31,9.82
799532023,0.003181,-0.002710,0.001934,0.02,-0.30,9.83
799533025,0.003178,-0.002707,0.000868,0.04,-0.31,9.86
799534035,0.002110,-0.001640,-0.001262,0.05,-0.30,9.82
799535045,0.001044,-0.000574,-0.002324,0.04,-0.31,9.78
799536055,0.001043,0.001555,-0.000194,0.03,-0.34,9.77
799537065,0.002106,-0.000575,0.000871,0.04,-0.33,9.78
799538075,-0.000025,-0.002703,0.001934,0.04,-0.33,9.83
799539085,-0.002153,-0.002700,0.000868,0.04,-0.33,9.81
799540095,-0.002151,0.000495,-0.000197,0.04,-0.34,9.80
799541105,-0.000020,0.003687,0.000867,0.04,-0.34,9.79
799542123,0.002108,0.004747,0.002995,0.03,-0.32,9.80
799543125,0.001042,0.004743,0.004056,0.04,-0.30,9.78
799544135,-0.000023,0.001545,0.002988,0.04,-0.31,9.75
799545145,-0.000023,-0.001649,0.000856,0.03,-0.33,9.77
799546155,0.001041,-0.002711,-0.000209,0.04,-0.29,9.79
799547165,0.002104,-0.001645,-0.002337,0.02,-0.31,9.82
799548175,0.002102,0.000486,-0.002335,-0.01,-0.35,9.82
799549185,0.001036,0.000485,-0.001268,0.00,-0.30,9.80
799550195,-0.001094,-0.000580,-0.000203,0.00,-0.28,9.80
799551205,-0.000029,-0.001643,-0.000202,-0.01,-0.30,9.80
799552223,-0.001093,-0.001642,-0.001266,0.01,-0.32,9.81
799553225,-0.002156,-0.001640,-0.002329,0.01,-0.33,9.79
799554235,-0.001089,-0.001638,-0.002327,0.00,-0.33,9.82
799555245,-0.000024,0.000492,-0.000196,-0.01,-0.31,9.86
799556255,0.001040,0.000491,0.001932,0.01,-0.30,9.83
799557265,-0.000025,0.001555,0.000866,0.03,-0.32,9.79
799558275,-0.002154,0.003682,-0.000199,0.03,-0.34,9.79
799559285,-0.001087,0.003678,-0.001263,0.01,-0.34,9.82
799560295,-0.001086,0.001546,-0.000197,-0.01,-0.32,9.78
799561305,-0.000021,0.000480,0.000867,0.03,-0.32,9.80
799562323,-0.000021,0.000480,0.000866,0.05,-0.32,9.84
799563325,-0.000021,-0.000585,0.000865,0.03,-0.31,9.81
799564335,0.001043,-0.001649,-0.000200,0.02,-0.31,9.76
799565345,0.001042,-0.000583,-0.000200,0.00,-0.30,9.74
799566355,-0.002151,0.000482,-0.000199,0.01,-0.32,9.79
799567365,-0.002149,0.001546,0.001929,0.06,-0.32,9.82
799568375,-0.001083,0.001544,0.005120,0.09,-0.29,9.82
799569385,0.002111,0.002607,0.002986,0.05,-0.31,9.79
799570395,0.001045,0.002604,-0.001274,0.03,-0.31,9.77
799571405,-0.001085,0.003666,-0.002337,0.05,-0.30,9.81
799572415,-0.002148,0.003662,-0.001270,0.03,-0.29,9.79
799573425,-0.000017,0.003658,0.000860,0.02,-0.28,9.77
799574435,0.002111,0.000462,0.001923,0.04,-0.27,9.80
799575445,0.003173,-0.001667,0.002985,0.01,-0.28,9.82
799576455,0.001042,-0.003793,0.001918,-0.01,-0.32,9.81
799577465,-0.001088,-0.003790,0.000852,0.01,-0.33,9.81
799578467,-0.000023,-0.001657,-0.001277,0.02,-0.32,9.83
799579485,0.001042,0.001537,-0.000212,0.00,-0.33,9.82
799580495,0.002105,0.001535,0.000853,0.04,-0.29,9.81
799581497,0.002103,0.000470,0.000852,0.06,-0.29,9.82
799582507,-0.000028,-0.000595,-0.001278,0.02,-0.32,9.86
799583517,-0.000028,0.000470,-0.002340,0.02,-0.31,9.86
799584527,-0.001092,0.002598,-0.001274,0.02,-0.31,9.81
799585545,-0.001091,-0.000598,-0.000208,0.01,-0.30,9.79
799586547,-0.000026,-0.001661,-0.000208,0.00,-0.28,9.83
799587565,-0.000026,-0.001660,-0.001272,0.00,-0.30,9.80
799588575,-0.001090,-0.000594,-0.000207,0.06,-0.31,9.79
799589578,-0.001089,0.000471,0.000858,0.06,-0.32,9.81
799590597,-0.000023,0.001535,0.002985,0.03,-0.31,9.80
799591609,0.001041,0.001533,0.001918,0.03,-0.29,9.78
799592626,0.001040,0.001532,0.000852,-0.01,-0.30,9.82
799593627,0.001039,-0.000598,-0.001277,-0.02,-0.31,9.82
799594639,-0.001091,-0.002726,-0.001276,-0.01,-0.31,9.76
799595653,-0.001090,-0.000595,-0.001275,0.00,-0.30,9.80
799596665,-0.001089,0.003663,-0.003402,0.02,-0.27,9.78
799597676,0.001041,0.004723,-0.005527,0.02,-0.28,9.80
799598687,0.003168,0.002590,-0.005521,0.02,-0.31,9.86
799599730,0.003165,-0.000605,-0.003387,0.02,-0.33,9.84
799600704,0.002098,-0.002733,-0.001255,0.04,-0.31,9.84
799601719,0.001031,-0.002730,-0.000190,0.02,-0.30,9.79
799602713,-0.000034,-0.000599,-0.002318,0.01,-0.34,9.82
799603734,0.001030,0.001530,-0.003380,0.01,-0.33,9.88
799604746,0.003158,0.001528,-0.001248,-0.04,-0.31,9.86
799605753,0.004219,0.001527,0.001946,-0.03,-0.30,9.83
799606759,0.002086,0.001525,0.001944,-0.01,-0.29,9.80
799607768,0.001020,0.000459,0.003006,-0.01,-0.33,9.76
799608779,0.001019,-0.000605,0.001939,-0.01,-0.34,9.82
799609785,-0.001111,-0.001669,-0.000192,-0.01,-0.30,9.87
799610802,-0.003238,-0.000603,-0.002320,0.02,-0.27,9.84
799611809,-0.002171,0.001526,-0.002318,0.02,-0.26,9.78
799612819,-0.000040,0.003653,-0.002315,0.02,-0.28,9.75
799613827,0.002089,0.002585,-0.002313,0.04,-0.29,9.78
799614836,0.003151,0.002582,-0.001246,0.07,-0.31,9.75
799615845,0.004212,0.001516,-0.001245,0.03,-0.34,9.76
799616847,0.004207,0.001514,-0.000180,0.00,-0.32,9.81
799617857,0.001011,0.000448,0.000885,0.04,-0.28,9.80
799618875,-0.001119,-0.000616,0.000884,0.08,-0.30,9.80
799619885,-0.001118,-0.000616,0.000883,0.05,-0.33,9.84
799620895,-0.000052,-0.000615,-0.001246,0.01,-0.34,9.87
799621905,0.001012,-0.000614,-0.002309,0.01,-0.32,9.86
799622915,0.001011,0.000450,-0.002307,0.01,-0.28,9.83
799623925,-0.001119,0.002578,-0.001240,-0.01,-0.30,9.81
799624935,-0.001117,0.004704,-0.001239,-0.01,-0.32,9.79
799625945,-0.000052,0.003635,-0.003366,0.02,-0.31,9.80
799626955,-0.000052,0.002567,-0.001234,0.03,-0.34,9.80
799627965,0.001012,0.001501,0.000895,0.03,-0.31,9.80
799628975,-0.000053,0.000435,0.000894,-0.01,-0.29,9.78
799629985,-0.001117,0.000434,-0.001235,0.04,-0.31,9.78
799630995,-0.000052,0.000434,-0.002298,0.07,-0.29,9.78
799632005,0.001012,0.000434,-0.005488,0.04,-0.29,9.78
799633015,-0.001117,0.002561,-0.005483,0.01,-0.32,9.78
799634017,-0.002180,0.003623,-0.003349,-0.01,-0.32,9.75
799635035,-0.002178,0.003619,-0.002281,0.01,-0.30,9.78
799636045,-0.004304,0.003616,-0.000151,0.02,-0.32,9.82
799637055,-0.004300,0.004676,0.000914,0.03,-0.31,9.81
799638065,-0.003231,0.003607,-0.000151,0.02,-0.30,9.80
799639067,-0.002164,0.000411,-0.000151,-0.01,-0.30,9.77
799640085,-0.001097,-0.002782,0.000913,-0.01,-0.27,9.74
799641095,0.001032,-0.002779,0.001976,0.03,-0.29,9.77
799642105,0.002095,0.000416,0.003039,0.04,-0.32,9.81
799643115,-0.001099,0.002544,0.003036,0.05,-0.34,9.80
799644125,-0.002163,0.000413,0.001968,0.07,-0.33,9.82
799645135,-0.001096,0.000413,-0.000162,0.07,-0.32,9.82
799646145,-0.001095,0.003605,-0.000162,0.06,-0.31,9.83
799647155,-0.001094,0.006794,-0.000162,0.02,-0.29,9.85
799648165,-0.000029,0.006787,-0.001226,0.00,-0.31,9.81
799649175,-0.000029,0.004652,-0.001225,0.02,-0.32,9.83
799650185,-0.002157,0.001455,-0.000159,0.02,-0.31,9.87
799651195,-0.002155,-0.001739,-0.000159,0.02,-0.28,9.87
799652205,-0.000024,-0.002802,0.000905,0.03,-0.27,9.81
799653215,0.002104,-0.001735,-0.000160,0.04,-0.31,9.79
799654225,0.004231,-0.001733,-0.001224,0.05,-0.32,9.82
799655235,0.003162,-0.002796,-0.000158,0.04,-0.31,9.84
799656245,0.001030,-0.005985,0.003035,0.04,-0.30,9.82
799657255,0.001029,-0.004915,0.003031,0.04,-0.30,9.83
799658265,0.001028,-0.003846,0.001964,0.01,-0.31,9.84
799659275,0.001027,-0.001714,0.001962,0.02,-0.29,9.79
799660285,0.001026,0.000417,0.001960,0.04,-0.27,9.81
799661295,-0.000039,0.001480,0.003022,0.04,-0.29,9.82
799662305,-0.001103,0.004671,0.003019,0.04,-0.30,9.84
799663315,-0.001102,0.004667,0.001952,0.03,-0.30,9.88
799664325,-0.000037,0.002534,-0.000178,0.04,-0.31,9.82
799665335,-0.000037,0.002531,0.001950,0.02,-0.29,9.75
799666345,-0.001101,0.002528,0.004077,0.01,-0.29,9.75
799667355,-0.000036,-0.000667,0.004073,0.04,-0.31,9.77
799668365,0.001029,-0.001730,0.001940,0.04,-0.32,9.78
799669375,0.001028,-0.000664,-0.000190,0.03,-0.31,9.81
799670385,-0.000038,0.000401,-0.001254,0.02,-0.32,9.83
799671395,-0.002166,0.001464,0.001940,0.04,-0.34,9.82
799672405,-0.002164,0.002527,0.000873,0.04,-0.30,9.82
799673415,-0.000033,0.001460,-0.003384,0.01,-0.28,9.81
799674425,0.001031,-0.000669,-0.005509,0.00,-0.28,9.85
799675427,-0.001098,-0.001733,-0.004439,0.03,-0.28,9.84
799676445,-0.002161,0.000397,-0.003371,0.03,-0.29,9.82
799677455,-0.000031,0.000397,-0.003367,-0.01,-0.28,9.76
799678465,0.001033,-0.000668,-0.002300,0.01,-0.31,9.75
799679475,0.002097,-0.001731,-0.000169,0.00,-0.36,9.81
799680485,-0.000034,-0.001730,0.001960,-0.01,-0.37,9.83
799681495,-0.001098,-0.001728,0.003022,0.01,-0.33,9.84
799682505,-0.001097,-0.000662,0.004083,0.01,-0.29,9.83
799683515,-0.000032,0.002531,0.003015,0.02,-0.30,9.81
799684525,0.001032,0.002529,0.000883,0.06,-0.30,9.81
799685535,0.001031,0.002526,-0.001246,0.04,-0.32,9.81
799686545,-0.000034,0.003588,-0.001245,0.01,-0.32,9.79
799687555,-0.001098,0.002520,0.000885,0.00,-0.32,9.78
799688565,-0.001097,0.001453,0.000884,0.00,-0.34,9.78
799689575,-0.001096,0.001452,-0.002310,0.02,-0.34,9.81
799690591,-0.000030,0.001450,-0.004436,0.01,-0.31,9.78
799691597,-0.000030,-0.001744,-0.003367,0.02,-0.28,9.77
799692609,-0.000030,-0.005999,-0.002299,0.02,-0.28,9.80
799693618,0.001034,-0.003864,-0.001233,0.01,-0.31,9.82
799694637,-0.000031,-0.002796,-0.001232,0.01,-0.31,9.82
799695646,-0.000031,-0.004922,0.000898,0.01,-0.28,9.81
799696654,0.001033,-0.005981,0.000897,0.03,-0.27,9.86
799697666,0.001032,-0.003847,-0.001232,0.03,-0.31,9.87
799698675,-0.001098,-0.001714,-0.001231,0.03,-0.30,9.83
799699689,-0.000032,-0.000648,-0.000166,0.03,-0.29,9.80
799700694,0.002096,-0.000648,-0.000165,0.03,-0.31,9.74
799701703,0.001030,0.000417,0.000899,0.06,-0.31,9.76
799702732,-0.002164,-0.000647,0.000898,0.06,-0.28,9.80
799703743,-0.002162,0.000417,0.000897,0.04,-0.27,9.78
799704733,-0.000031,0.001481,-0.000168,0.06,-0.30,9.79
799705753,0.003162,0.000416,0.001961,0.05,-0.33,9.78
799706752,0.003158,0.001479,0.004087,0.04,-0.29,9.79
799707759,-0.000037,0.002542,0.003019,0.02,-0.25,9.85
799708768,-0.001102,0.001475,0.000887,0.00,-0.28,9.87
799709779,-0.001100,-0.000655,-0.000178,-0.02,-0.30,9.86
799710791,0.001029,-0.000654,-0.001242,0.00,-0.30,9.81
799711799,0.001028,0.001475,-0.000176,0.04,-0.30,9.76
799712809,0.001027,0.003602,-0.000176,0.03,-0.29,9.80
799713819,-0.001102,0.002534,-0.002304,0.02,-0.30,9.80
799714827,-0.002165,0.000403,-0.002302,0.02,-0.28,9.78
799715836,-0.001099,0.000403,-0.000171,0.04,-0.27,9.80
799716845,-0.000034,-0.000662,-0.000171,0.04,-0.32,9.81
799717855,-0.000034,-0.001725,-0.001235,0.05,-0.33,9.80
799718865,-0.001098,-0.000659,-0.000170,0.04,-0.31,9.78
799719875,-0.001097,-0.001723,-0.001234,0.01,-0.30,9.77
799720885,-0.000032,-0.002785,-0.001233,0.03,-0.32,9.80
799721895,-0.000031,-0.003847,-0.000167,0.03,-0.33,9.82
799722905,0.001033,-0.003843,-0.001231,0.04,-0.30,9.81
799723915,0.001032,-0.002775,-0.002294,0.04,-0.29,9.81
799724925,0.001031,-0.001708,-0.001228,0.02,-0.29,9.82
799725935,-0.003227,0.002551,-0.001226,0.02,-0.32,9.83
799726945,-0.001096,0.002548,-0.001225,-0.01,-0.31,9.80
799727947,-0.000030,0.000417,-0.002288,0.00,-0.29,9.81
799728965,-0.000030,-0.001712,-0.003350,0.03,-0.30,9.84
799729975,-0.000030,-0.003838,-0.001218,0.00,-0.32,9.88
799730985,-0.001094,-0.002770,0.000911,-0.02,-0.33,9.84
799731995,-0.001093,0.000425,-0.000154,0.00,-0.31,9.79
799733005,-0.000028,0.003617,-0.001218,0.04,-0.29,9.78
799734015,0.001036,0.001485,-0.001216,0.02,-0.29,9.81
799735025,-0.000029,-0.002773,-0.000151,0.01,-0.30,9.79
799736035,-0.003222,-0.002770,-0.000151,0.01,-0.32,9.77
799737045,-0.003218,-0.000639,0.000913,0.03,-0.32,9.80
799738055,-0.002151,0.001490,0.001977,0.03,-0.29,9.82
799739057,-0.001084,0.002553,0.001975,0.01,-0.30,9.82
799740075,-0.001083,0.002550,0.000909,0.00,-0.32,9.80
799741085,-0.003211,-0.000645,-0.001221,0.01,-0.33,9.80
799742095,-0.004272,-0.001709,-0.001219,0.03,-0.32,9.79
799743105,-0.001075,0.000422,-0.001218,0.03,-0.30,9.79
799744115,0.001055,0.002550,-0.000153,0.02,-0.33,9.79
799745125,-0.000010,0.001483,0.001976,-0.01,-0.34,9.78
799746135,-0.000010,-0.000647,0.001974,-0.01,-0.34,9.79
799747145,-0.000010,-0.001711,0.000908,0.00,-0.33,9.82
799748187,-0.000010,-0.000645,0.000907,0.01,-0.32,9.85
799749165,0.001054,0.003613,0.001970,0.02,-0.29,9.83
799750175,0.001053,0.004673,0.001968,0.02,-0.26,9.79
799751185,0.002116,0.002540,0.001966,0.04,-0.29,9.76
799752195,0.002114,0.000409,0.000900,0.00,-0.32,9.76
799753205,0.001047,0.000409,0.001963,0.02,-0.30,9.82
799754215,-0.002146,-0.000656,0.001961,0.05,-0.28,9.84
799755225,-0.003208,-0.000655,0.000895,0.03,-0.29,9.87
799756235,-0.002141,-0.000654,0.000894,0.01,-0.30,9.85
799757245,-0.002139,0.000410,0.000893,0.03,-0.31,9.80
799758255,-0.002137,0.000410,0.001956,0.04,-0.28,9.82
799759265,-0.000006,0.001474,0.003019,0.03,-0.30,9.79
799760275,0.001058,0.003601,0.001951,0.03,-0.32,9.74
799761285,-0.000007,0.004661,-0.000179,0.03,-0.29,9.77
799762295,-0.002135,0.002528,-0.001243,0.02,-0.31,9.81
799763305,-0.000005,0.000397,-0.002306,0.00,-0.32,9.79
799764307,0.002124,0.000397,-0.003368,0.01,-0.33,9.81
799765325,0.001057,0.001461,-0.002300,0.03,-0.34,9.82
799766335,-0.000008,0.001459,-0.001234,0.04,-0.32,9.82
799767345,0.001056,0.000393,0.000896,0.04,-0.31,9.83
799768355,0.003184,0.000393,0.001959,0.03,-0.31,9.78
799769365,0.004244,-0.000672,0.001957,0.01,-0.30,9.73
799770375,0.003176,-0.002799,0.003019,0.01,-0.28,9.74
799771377,-0.000020,-0.002796,0.001952,0.02,-0.29,9.80
799772395,-0.002148,-0.001729,0.000886,0.04,-0.32,9.82
799773397,-0.002146,-0.002792,0.000885,0.04,-0.30,9.82
799774415,-0.002144,-0.002789,-0.000180,0.01,-0.28,9.82
799775417,-0.002142,-0.003850,0.000884,-0.01,-0.28,9.80
799776435,-0.002140,-0.002782,0.001948,-0.01,-0.28,9.80
799777445,-0.000009,-0.002780,0.000882,-0.02,-0.29,9.78
799778455,0.001055,-0.001713,-0.000184,0.00,-0.30,9.76
799779465,-0.000010,-0.001711,-0.000183,0.02,-0.30,9.79
799780475,-0.001074,-0.001709,-0.001247,0.02,-0.31,9.78
799781485,-0.000009,-0.000643,-0.001246,0.02,-0.35,9.79
799782495,-0.001073,0.001486,-0.000181,0.02,-0.34,9.82
799783505,-0.001072,0.001484,0.000884,0.03,-0.29,9.82
799784515,-0.000007,-0.000646,0.003011,0.02,-0.30,9.80
799785525,0.001057,-0.001709,0.001944,0.06,-0.30,9.80
799786527,0.001056,-0.000643,-0.000186,0.04,-0.28,9.78
799787545,0.001055,0.000422,-0.001250,0.01,-0.31,9.82
799788547,0.002118,0.000421,-0.001249,0.04,-0.31,9.82
799789565,0.002116,-0.000643,-0.000184,0.04,-0.26,9.78
799790575,0.002114,-0.001707,-0.000183,0.06,-0.26,9.81
799791591,0.001048,-0.001705,-0.000183,0.05,-0.32,9.82
799792597,0.002111,-0.000639,0.000881,0.00,-0.32,9.82
799793609,0.002109,-0.000639,0.000880,-0.01,-0.28,9.82
799794618,0.002107,-0.000638,0.000879,0.02,-0.29,9.78
799795635,0.003169,-0.000637,0.000878,0.00,-0.32,9.77
799796639,0.003166,0.002556,-0.000187,0.03,-0.32,9.82
799797644,0.001034,0.004682,-0.001251,0.04,-0.29,9.81
799798666,-0.000031,0.004677,0.000879,0.03,-0.28,9.73
799799675,-0.001095,0.002544,0.001942,0.04,-0.31,9.77
799800687,-0.001094,0.000413,0.001940,0.04,-0.32,9.82
799801695,-0.002157,-0.000652,0.001938,0.04,-0.28,9.78
799802703,-0.002155,0.000413,0.001936,0.02,-0.27,9.81
799803719,-0.000025,0.002541,0.000870,0.01,-0.30,9.83
799804724,0.001040,0.003603,-0.000195,0.04,-0.32,9.81
799805741,0.001038,0.000407,-0.000195,0.06,-0.29,9.78
799806746,0.001037,-0.001722,-0.000194,0.06,-0.29,9.77
799807757,0.001036,-0.001721,-0.001258,0.04,-0.31,9.83
799808759,0.001035,-0.000655,-0.001257,0.01,-0.30,9.85
799809768,0.001034,0.001474,-0.000192,0.01,-0.31,9.80
799810785,0.001033,0.001473,-0.000192,0.02,-0.31,9.81
799811834,-0.000032,0.001471,-0.001256,0.01,-0.29,9.81
799812799,-0.000032,0.000406,-0.001254,0.01,-0.30,9.79
799813801,-0.000032,-0.000659,0.000876,0.00,-0.32,9.80
799814819,-0.000032,-0.000658,0.000875,-0.01,-0.32,9.84
799815827,-0.000032,-0.002786,-0.001255,0.02,-0.31,9.83
799816836,0.001032,-0.002783,-0.001253,0.02,-0.31,9.81
799817845,0.001031,-0.000652,-0.000188,-0.01,-0.31,9.86
799818855,-0.002162,0.001477,-0.000188,0.02,-0.31,9.89
799819865,-0.004289,0.002540,0.000877,0.02,-0.31,9.87
799820875,-0.003220,0.000409,-0.000188,0.01,-0.32,9.82
799821885,0.001040,-0.000656,-0.001252,0.01,-0.33,9.79
799822895,0.001039,-0.001719,-0.001251,0.02,-0.33,9.77
799823905,0.002102,-0.000653,-0.000186,0.04,-0.30,9.79
799824915,0.001036,0.000412,0.000879,0.04,-0.29,9.84
799825925,-0.001094,0.001475,0.001942,0.03,-0.31,9.80
799826935,-0.001093,0.000410,0.001940,0.02,-0.30,9.79
799827945,-0.000027,-0.002783,0.001938,0.01,-0.30,9.79
799828947,-0.000027,-0.002781,-0.000192,0.02,-0.30,9.80
799829957,0.001037,-0.000649,-0.001256,0.02,-0.28,9.78
799830967,0.002100,0.000416,-0.000191,0.01,-0.29,9.78
799831985,0.001034,0.002543,0.000874,-0.02,-0.30,9.78
799832995,-0.000031,0.003605,0.000873,-0.01,-0.28,9.80
799834005,-0.001096,0.004666,0.000872,0.04,-0.28,9.81
799835015,-0.000030,0.002533,0.000871,0.05,-0.30,9.80
799836025,-0.001094,0.000402,0.000870,0.02,-0.31,9.82
799837035,-0.004286,-0.000663,-0.000195,0.02,-0.30,9.81
799838045,-0.004282,-0.000662,-0.000195,0.03,-0.29,9.77
799839055,-0.001085,-0.002790,-0.001259,0.04,-0.31,9.72
799840065,0.002109,-0.002787,-0.003386,0.01,-0.34,9.74
799841075,0.002107,-0.001720,-0.001254,-0.01,-0.31,9.76
799842085,0.002105,-0.001719,0.000876,0.04,-0.29,9.75
799843087,0.002103,-0.002781,0.000875,0.04,-0.32,9.83
799844105,0.001036,-0.000650,-0.000190,0.04,-0.33,9.85
799845115,-0.000029,0.001479,-0.001254,0.03,-0.32,9.78
799846125,0.001035,0.002542,-0.000189,0.03,-0.32,9.79
799847135,0.003163,0.001475,-0.000189,0.03,-0.30,9.83
799848145,0.004224,-0.000655,-0.001253,0.02,-0.28,9.84
799849155,0.004219,-0.000654,-0.003380,0.04,-0.30,9.86
799850165,0.002087,-0.001718,-0.003377,0.03,-0.31,9.83
799851175,0.001020,-0.001716,-0.001245,0.01,-0.29,9.80
799852185,-0.000045,-0.001714,0.001949,0.04,-0.28,9.83
799853195,0.001019,-0.000648,0.004076,0.05,-0.30,9.85
799854205,-0.000046,-0.002776,0.003007,0.00,-0.31,9.80
799855215,-0.001110,-0.003837,0.001940,-0.01,-0.30,9.78
799856225,-0.002173,-0.002769,0.000874,0.02,-0.32,9.81
799857235,-0.004299,-0.000638,-0.002320,0.02,-0.31,9.80
799858237,-0.004295,0.001491,-0.003381,0.01,-0.29,9.83
799859247,-0.002162,0.001490,-0.003378,0.04,-0.30,9.82
799860257,-0.000032,-0.000640,-0.001246,0.04,-0.32,9.78
799861275,0.003161,-0.002768,0.000883,0.03,-0.32,9.79
799862285,0.005286,-0.001701,0.003011,0.04,-0.31,9.82
799863295,0.002088,0.001493,0.001944,0.02,-0.28,9.80
799864305,-0.001106,0.001492,0.000877,0.00,-0.24,9.80
799865315,-0.002169,-0.000638,-0.000188,0.02,-0.27,9.84
799866325,-0.000039,0.000427,-0.000187,0.04,-0.28,9.87
799867335,-0.000039,0.000426,-0.000187,0.03,-0.30,9.83
799868345,-0.001103,0.001490,-0.001251,0.00,-0.31,9.80
799869355,-0.000038,0.001488,0.000878,0.00,-0.30,9.78
799870365,-0.000038,0.000423,0.003006,0.02,-0.31,9.76
799871375,-0.000038,0.000422,0.004067,0.04,-0.29,9.80
799872385,0.001027,-0.000642,0.001935,0.03,-0.29,9.85
799873395,0.003154,-0.000642,0.001933,0.00,-0.31,9.83
799874405,0.004215,-0.000641,0.001931,-0.01,-0.32,9.83
799875415,0.003147,-0.000640,0.000865,0.00,-0.33,9.83
799876425,0.001015,-0.000640,0.001928,0.01,-0.31,9.78
799877435,-0.001114,-0.000639,-0.000202,0.01,-0.29,9.76
799878445,-0.002178,0.000426,-0.002331,0.01,-0.32,9.74
799879455,-0.000047,0.002554,-0.002328,0.01,-0.34,9.76
799880465,-0.000047,0.002551,-0.000198,0.04,-0.29,9.81
799881475,-0.001111,0.002549,-0.000197,0.07,-0.26,9.80
799882485,-0.002174,0.002546,0.001931,0.04,-0.28,9.80
799883495,-0.000044,0.001479,0.002993,0.03,-0.31,9.80
799884505,0.002085,0.000414,0.000862,0.02,-0.29,9.81
799885515,-0.000046,-0.000651,-0.001267,-0.01,-0.27,9.79
799886525,0.001019,-0.001715,-0.000202,0.04,-0.25,9.74
799887535,0.002082,-0.000649,-0.000202,0.04,-0.29,9.75
799888545,0.001016,-0.000648,0.000863,0.01,-0.31,9.81
799889555,0.001015,-0.000647,0.001926,0.05,-0.28,9.82
799890565,0.002078,-0.000647,0.001924,0.04,-0.28,9.82
799891575,-0.000053,-0.000646,0.001922,0.02,-0.28,9.86
799892591,-0.002181,-0.001710,0.000856,0.04,-0.28,9.86
799893597,-0.003243,-0.001708,-0.000209,0.00,-0.25,9.84
799894609,-0.001111,-0.000642,-0.000209,-0.02,-0.30,9.79
799895618,-0.000046,0.001487,0.000856,0.03,-0.32,9.78
799896636,-0.000046,0.002550,0.001919,0.03,-0.31,9.79
799897639,0.001018,0.000419,0.000853,0.02,-0.32,9.79
799898642,0.003146,0.000418,-0.002341,0.04,-0.30,9.82
799899678,0.002078,0.002546,-0.004467,0.05,-0.31,9.81
799900676,-0.000052,-0.000649,-0.003398,0.04,-0.32,9.80
799901683,-0.001117,-0.002777,-0.002330,0.02,-0.33,9.82
799902694,-0.003244,-0.001710,-0.002328,0.02,-0.34,9.82
799903702,-0.004305,-0.000644,-0.002326,0.04,-0.33,9.79
799904719,-0.002172,-0.001707,0.000869,0.03,-0.31,9.73
799905726,0.001023,-0.003834,0.000869,0.00,-0.29,9.77
799906754,0.001022,-0.003830,0.000868,0.00,-0.31,9.84
799907743,0.001021,-0.000633,0.004059,0.01,-0.33,9.84
799908757,0.002084,-0.000633,0.004055,0.01,-0.31,9.85
799909759,0.002082,-0.001696,0.001923,0.03,-0.29,9.85
799910772,0.001016,-0.002759,-0.001272,0.06,-0.28,9.82
799911779,-0.001114,-0.001692,-0.004463,0.05,-0.31,9.79
799912785,-0.003241,-0.000626,-0.003394,0.05,-0.32,9.77
799913799,-0.004302,-0.000625,-0.003391,0.04,-0.32,9.76
799914809,-0.002169,0.001504,-0.001259,0.02,-0.31,9.79
799915819,-0.001103,0.003631,-0.000194,0.04,-0.31,9.85
799916827,-0.000038,0.003627,-0.001258,0.03,-0.33,9.86
799917836,-0.001102,-0.000634,-0.001256,0.02,-0.30,9.82
799918845,-0.001101,-0.001697,0.000873,0.02,-0.32,9.80
799919855,-0.001100,0.000433,0.001937,0.02,-0.34,9.82
799920865,-0.003227,0.000432,0.000870,0.03,-0.32,9.79
799921875,-0.003224,-0.000632,-0.001259,0.01,-0.31,9.75
799922885,-0.002156,-0.000632,-0.002322,0.02,-0.30,9.79
799923895,-0.003218,-0.000631,-0.001255,0.04,-0.30,9.84
799924905,-0.001087,-0.000630,-0.000190,0.04,-0.33,9.83
799925915,-0.001085,-0.001694,0.000875,0.01,-0.29,9.78
799926925,-0.001084,-0.000628,-0.000190,0.01,-0.30,9.78
799927935,-0.000019,-0.000627,-0.000190,0.01,-0.30,9.77
799928945,0.001045,-0.001691,-0.000190,0.02,-0.31,9.76
799929955,-0.001084,-0.001689,-0.001254,0.02,-0.31,9.79
799930965,-0.003212,0.001505,-0.002317,0.00,-0.29,9.77
799931975,-0.002144,0.001504,-0.001250,-0.01,-0.27,9.77
799932985,-0.001078,-0.000626,0.000879,0.02,-0.26,9.80
799933995,0.001052,-0.001690,0.000878,0.02,-0.29,9.78
799935005,-0.000014,-0.001688,0.000877,0.02,-0.31,9.79
799936015,-0.001078,-0.001686,-0.000188,0.01,-0.31,9.81
799937025,-0.002141,-0.001685,-0.001252,0.00,-0.31,9.80
799938035,-0.003203,0.000445,-0.001250,0.01,-0.31,9.79
799939045,-0.003200,0.001509,0.000879,0.03,-0.32,9.80
799940055,-0.001068,0.000443,0.003007,0.03,-0.32,9.78
799941065,-0.000003,-0.002750,0.005132,0.00,-0.28,9.78
799942075,-0.001067,-0.002747,0.005127,0.00,-0.28,9.80
799943085,-0.002130,-0.002744,0.001929,-0.02,-0.29,9.79
799944095,-0.002128,-0.000613,-0.001265,-0.06,-0.33,9.77
799945105,-0.002126,-0.000612,-0.002328,-0.02,-0.32,9.81
799946115,-0.001059,-0.001676,-0.002326,0.03,-0.30,9.83
799947125,0.000006,0.000454,-0.000195,0.04,-0.28,9.77
799948135,0.000006,0.002582,-0.000195,0.02,-0.29,9.77
799949145,-0.001058,0.002580,-0.001259,0.01,-0.29,9.78
799950155,-0.002121,0.002577,-0.001258,0.01,-0.26,9.73
799951165,-0.002119,0.002574,-0.000192,0.01,-0.27,9.71
799952175,-0.001053,0.001508,0.000872,0.03,-0.29,9.77
799953185,0.000012,0.000442,-0.000193,0.07,-0.28,9.79
799954195,0.001076,0.000441,-0.000193,0.08,-0.27,9.78
799955205,0.001075,0.001505,0.000872,0.05,-0.29,9.82
799956215,0.000010,0.001504,0.000871,0.02,-0.32,9.81
799957225,0.001074,0.000438,0.001934,0.01,-0.32,9.79
799958235,0.001073,-0.000627,0.001932,0.02,-0.29,9.81
799959245,0.001072,0.000438,-0.000198,0.03,-0.28,9.84
799960255,0.001071,-0.000627,-0.003391,0.03,-0.29,9.78
799961265,0.002134,-0.000626,-0.003387,0.04,-0.32,9.74
799962275,0.003196,0.000439,-0.000191,0.02,-0.32,9.75
799963285,0.001065,-0.000626,0.000873,0.03,-0.29,9.77
799964295,-0.000001,-0.000625,0.001937,0.04,-0.28,9.80
799965305,0.001063,-0.001689,0.001935,0.03,-0.30,9.80
799966315,0.001062,-0.003815,0.000868,0.03,-0.32,9.80
799967325,-0.001067,-0.003812,-0.001261,0.01,-0.31,9.78
799968335,-0.001066,-0.001679,-0.002324,-0.01,-0.29,9.83
799969345,-0.000001,-0.000613,-0.002321,-0.03,-0.30,9.86
799970355,-0.001065,0.001516,-0.003383,0.01,-0.29,9.87
799971365,-0.001064,0.002578,-0.003380,0.07,-0.28,9.85
799972375,0.001066,0.001512,-0.001248,0.03,-0.30,9.78
799973385,0.002129,0.000446,-0.000183,0.02,-0.31,9.80
799974395,0.001062,-0.000619,-0.000182,0.01,-0.28,9.80
799975405,0.001061,-0.001682,0.000882,0.01,-0.27,9.81
799976415,0.002124,-0.001681,0.000881,0.04,-0.26,9.82
799977425,0.003187,-0.001679,0.000880,0.05,-0.27,9.79
799978435,0.003183,-0.001677,0.001944,0.02,-0.33,9.83
799979445,0.004244,-0.001676,0.001942,0.00,-0.33,9.88
799980455,0.004240,-0.001674,-0.000189,0.00,-0.34,9.85
799981465,0.002107,0.000456,-0.003381,0.03,-0.33,9.80
799982475,0.001041,0.000456,-0.003378,0.04,-0.33,9.79
799983485,-0.000024,-0.000609,-0.002310,0.02,-0.33,9.81
799984495,-0.001088,-0.000608,-0.001244,0.02,-0.31,9.82
799985505,-0.000023,0.000456,-0.002307,0.02,-0.32,9.80
799986515,-0.000023,0.001520,-0.002304,0.03,-0.33,9.79
799987525,0.001041,0.002583,-0.000174,0.00,-0.31,9.76
799988535,0.001040,0.002580,0.000891,-0.02,-0.28,9.75
799989545,0.002103,-0.000615,-0.001238,0.00,-0.28,9.76
799990555,0.002101,-0.001679,-0.001237,0.02,-0.28,9.79
799991565,0.001035,0.001516,-0.000172,0.03,-0.28,9.82
799992575,-0.000030,0.000450,0.003021,0.04,-0.29,9.82
799993591,-0.000030,-0.001679,0.001954,0.05,-0.28,9.82
799994597,-0.000030,-0.000613,0.001952,0.04,-0.28,9.78
799995609,-0.001095,0.000452,0.001950,0.03,-0.30,9.74
799996618,-0.001094,0.001516,0.000884,0.03,-0.34,9.74
799997635,-0.001092,0.000450,0.001947,0.03,-0.34,9.80
799998639,0.001037,-0.001679,0.003009,0.03,-0.32,9.83
799999653,0.001036,-0.000613,0.000878,0.04,-0.31,9.76
800000675,-0.000029,0.001516,-0.002316,0.05,-0.28,9.78
800001680,-0.000029,0.000450,-0.002313,0.02,-0.28,9.81
