time_us,gyro_x_rad_s,gyro_y_rad_s,gyro_z_rad_s,acc_x_m_s2,acc_y_m_s2,acc_z_m_s2,temperature_c
99739793,0.000718,0.000673,-0.000966,0.0,-0.32,9.86,30.34
99740556,0.000718,-0.001457,9.9e-05,-0.01,-0.33,9.89,30.4
99741535,-0.000348,-0.001457,9.9e-05,-0.01,-0.34,9.84,30.38
99742547,-0.000348,-0.001457,9.9e-05,0.02,-0.31,9.78,30.36
99743555,0.001783,-0.001457,9.9e-05,0.03,-0.29,9.82,30.39
99744571,0.002848,-0.002523,-0.000966,0.05,-0.34,9.85,30.42
99745579,0.001783,-0.001457,-0.002032,0.05,-0.36,9.79,30.4
99746605,0.000718,0.000673,-0.004162,0.01,-0.36,9.72,30.41
99747599,0.000718,0.000673,-0.003097,0.02,-0.34,9.79,30.4
99748617,0.000718,-0.001457,-0.002032,0.04,-0.3,9.85,30.37
99749626,-0.000348,-0.001457,9.9e-05,0.03,-0.31,9.85,30.37
99750633,-0.001413,-0.002523,-0.002032,0.04,-0.32,9.85,30.39
99751648,-0.002478,-0.002523,-0.004162,0.06,-0.32,9.82,30.41
99752662,-0.003543,-0.002523,-0.003097,0.04,-0.32,9.86,30.41
99753669,-0.003543,-0.001457,-0.000966,0.04,-0.3,9.88,30.4
99754678,-0.002478,0.000673,-0.000966,0.01,-0.29,9.82,30.4
99755684,-0.002478,0.000673,-0.002032,0.01,-0.32,9.85,30.38
99756709,-0.002478,-0.000392,-0.002032,0.04,-0.33,9.86,30.35
99757763,-0.002478,-0.000392,-0.000966,0.04,-0.31,9.82,30.35
99758778,-0.000348,-0.001457,9.9e-05,0.03,-0.32,9.84,30.35
99759734,0.001783,-0.003588,-0.000966,0.02,-0.36,9.85,30.38
99760730,0.003914,-0.004653,-0.002032,0.0,-0.34,9.8,30.42
99761747,0.004979,-0.002523,-0.002032,-0.01,-0.29,9.8,30.37
99762755,0.003914,0.000673,-0.000966,0.01,-0.33,9.79,30.38
99763766,0.000718,0.001738,-0.000966,0.02,-0.34,9.78,30.39
99764787,-0.001413,0.000673,-0.000966,0.01,-0.34,9.82,30.37
99765788,-0.001413,0.001738,9.9e-05,0.01,-0.34,9.84,30.37
99766798,-0.000348,0.001738,0.002229,0.04,-0.33,9.85,30.37
99767800,0.001783,-0.000392,0.001164,0.05,-0.33,9.85,30.37
99768806,0.001783,-0.000392,-0.002032,0.04,-0.36,9.82,30.36
99769825,0.003914,-0.000392,-0.003097,0.03,-0.36,9.87,30.36
99770830,0.003914,-0.001457,-0.002032,0.02,-0.32,9.9,30.39
99771839,0.001783,0.000673,-0.000966,0.04,-0.32,9.82,30.4
99772845,-0.000348,0.000673,9.9e-05,0.04,-0.32,9.82,30.36
99773857,-0.001413,-0.000392,0.001164,0.03,-0.32,9.8,30.32
99774863,-0.000348,-0.003588,9.9e-05,0.06,-0.36,9.8,30.32
99775876,0.001783,-0.004653,0.002229,0.03,-0.34,9.82,30.38
99776891,0.001783,-0.002523,0.003295,0.04,-0.28,9.82,30.38
99777895,-0.001413,0.000673,0.002229,0.05,-0.29,9.84,30.42
99778902,-0.002478,0.002804,0.001164,0.04,-0.33,9.84,30.43
99779915,-0.002478,0.004934,9.9e-05,0.04,-0.33,9.82,30.42
99780926,-0.002478,0.003869,-0.003097,0.04,-0.31,9.8,30.45
99781935,-0.000348,-0.000392,-0.002032,0.05,-0.3,9.82,30.43
99782942,0.000718,-0.000392,9.9e-05,0.05,-0.3,9.84,30.43
99783955,0.000718,0.002804,0.001164,0.04,-0.33,9.8,30.4
99784962,0.000718,0.007065,0.002229,0.04,-0.32,9.77,30.38
99785976,0.003914,0.00813,0.002229,0.05,-0.3,9.86,30.42
99787021,0.004966,0.004939,0.001164,0.03,-0.31,9.88,30.43
99787995,0.002835,0.000678,9.9e-05,0.03,-0.32,9.85,30.43
99789002,-0.000361,-0.000387,0.002229,0.04,-0.32,9.84,30.39
99790015,-0.002491,-0.000387,0.003295,0.04,-0.33,9.85,30.38
99791026,-0.002491,-0.001452,0.001164,0.04,-0.33,9.89,30.4
99792035,-0.001426,-0.003583,0.001164,0.02,-0.34,9.86,30.41
99793042,-0.001426,-0.003583,0.001164,0.02,-0.33,9.83,30.39
99794055,-0.002491,-0.003583,-0.000966,0.0,-0.3,9.84,30.4
99795062,-0.002491,-0.002518,-0.000966,0.0,-0.32,9.83,30.39
99796076,-0.000361,0.000678,9.9e-05,0.04,-0.34,9.82,30.36
99797091,-0.000361,0.001744,0.001164,0.04,-0.34,9.82,30.4
99798095,-0.000361,-0.000387,0.001164,0.02,-0.32,9.84,30.37
99799099,-0.001426,-0.000387,0.001164,0.06,-0.31,9.86,30.33
99800115,-0.001426,0.000678,9.9e-05,0.08,-0.3,9.84,30.35
99801126,-0.002491,0.001744,-0.002032,0.04,-0.29,9.87,30.34
99802135,-0.004622,0.000678,-0.002032,-0.01,-0.31,9.87,30.4
99803142,-0.003557,-0.002518,-0.000966,-0.04,-0.31,9.84,30.42
99804155,-0.001426,-0.002518,9.9e-05,0.0,-0.32,9.81,30.41
99805162,-0.000361,-0.000387,9.9e-05,0.02,-0.33,9.78,30.37
99806176,-0.000361,0.000678,0.001164,0.01,-0.3,9.79,30.35
99807191,-0.001426,-0.000387,0.001164,0.03,-0.3,9.82,30.37
99808195,0.000704,-0.000387,0.001164,0.01,-0.32,9.81,30.41
99809202,0.002835,-0.000387,0.001164,0.0,-0.32,9.79,30.41
99810215,0.00177,-0.000387,0.001164,0.03,-0.33,9.82,30.42
99811226,-0.000361,0.001744,0.002229,0.02,-0.32,9.81,30.43
99812235,-0.000361,0.001744,0.002229,0.02,-0.3,9.78,30.44
99813242,-0.000361,-0.002518,0.002229,0.03,-0.31,9.8,30.45
99814255,0.000704,-0.004648,9.9e-05,0.06,-0.33,9.8,30.41
99815259,0.00177,-0.002518,-0.002032,0.1,-0.33,9.8,30.41
99816284,0.000704,0.001744,-0.000966,0.09,-0.3,9.82,30.4
99817282,0.000704,0.001744,-0.000966,0.07,-0.3,9.83,30.39
99818295,0.000704,0.000678,-0.000966,0.07,-0.3,9.85,30.42
99819302,0.000704,0.000678,-0.000966,0.06,-0.3,9.82,30.38
99820315,-0.000361,0.001744,9.9e-05,0.02,-0.32,9.79,30.39
99821326,-0.000361,-0.000387,0.001164,0.0,-0.32,9.89,30.38
99822335,-0.000361,-0.001452,9.9e-05,0.04,-0.3,9.91,30.41
99823342,-0.000361,-0.002518,-0.002032,0.04,-0.32,9.84,30.43
99824355,-0.001426,-0.001452,-0.003097,0.04,-0.32,9.86,30.4
99825362,-0.002491,0.000678,-0.003097,0.03,-0.31,9.87,30.39
99826385,-0.001426,-0.000387,-0.000966,0.04,-0.33,9.82,30.4
99827382,-0.002491,-0.003583,-0.000966,0.04,-0.36,9.79,30.37
99828395,-0.001426,-0.004648,9.9e-05,0.04,-0.34,9.77,30.36
99829402,-0.000361,-0.003583,0.002229,0.02,-0.3,9.77,30.37
99830415,0.00177,-0.003583,0.002229,0.0,-0.3,9.83,30.38
99831426,0.000704,-0.003583,0.003295,0.03,-0.33,9.87,30.39
99832429,-0.001426,-0.002518,0.002229,0.05,-0.35,9.89,30.42
99833445,-0.002491,-0.002518,9.9e-05,0.06,-0.31,9.82,30.42
99834452,-0.001426,-0.002518,0.001164,0.06,-0.31,9.77,30.41
99835465,-0.000361,-0.002518,0.003295,0.05,-0.33,9.81,30.43
99836482,0.000704,-0.001452,0.003295,0.02,-0.33,9.85,30.43
99837485,-0.001426,-0.000387,0.003295,0.01,-0.3,9.89,30.42
99838489,-0.002491,0.002809,0.001164,0.04,-0.29,9.88,30.41
99839505,-0.003557,0.001744,0.001164,0.04,-0.33,9.84,30.4
99840512,0.000704,-0.002518,0.001164,0.05,-0.32,9.79,30.42
99841528,-0.000361,-0.002518,0.001164,0.07,-0.32,9.84,30.42
99842532,-0.000361,-0.002518,0.001164,0.04,-0.34,9.81,30.42
99843545,0.00177,0.000678,-0.000966,0.04,-0.32,9.81,30.4
99844552,0.00177,0.000678,-0.002032,0.04,-0.3,9.84,30.38
99845565,-0.000361,0.000678,9.9e-05,0.01,-0.31,9.82,30.34
99846583,-0.002491,0.000678,0.002229,0.0,-0.33,9.82,30.35
99847582,-0.002491,0.001744,0.002229,0.01,-0.32,9.83,30.38
99848592,-0.000361,0.002809,9.9e-05,0.04,-0.32,9.82,30.38
99849606,0.000704,0.002809,-0.000966,0.04,-0.31,9.82,30.37
99850625,-0.001426,0.000678,-0.000966,0.03,-0.32,9.84,30.38
99851628,-0.004622,-0.001452,9.9e-05,0.05,-0.31,9.88,30.38
99852647,-0.004622,-0.000387,0.002229,0.04,-0.28,9.86,30.37
99853658,-0.001426,0.000678,0.003295,0.05,-0.29,9.79,30.38
99854670,0.00177,0.000678,0.00436,0.06,-0.31,9.8,30.4
99855674,0.0039,-0.001452,0.003295,0.02,-0.33,9.85,30.42
99856696,0.002835,-0.002518,0.002229,0.01,-0.32,9.84,30.4
99857695,0.000704,-0.001452,0.001164,0.01,-0.33,9.84,30.4
99858702,-0.001426,-0.001452,9.9e-05,0.02,-0.33,9.83,30.43
99859720,-0.001426,0.000678,0.001164,0.04,-0.35,9.78,30.42
99860732,-0.000361,0.001744,0.002229,0.03,-0.34,9.83,30.41
99861742,0.00177,0.000678,0.001164,0.03,-0.32,9.83,30.41
99862743,0.00177,-0.001452,-0.000966,0.02,-0.32,9.8,30.36
99863758,0.000704,-0.002518,-0.002032,0.05,-0.3,9.84,30.39
99864758,0.000704,-0.000387,-0.000966,0.07,-0.31,9.85,30.35
99865778,0.000704,0.001744,0.002229,0.02,-0.33,9.83,30.37
99866842,-0.001426,0.001744,0.003295,0.01,-0.33,9.82,30.36
99867786,-0.001426,-0.000387,0.001164,0.02,-0.33,9.85,30.38
99868795,0.000704,-0.001452,-0.000966,0.01,-0.3,9.82,30.41
99869813,0.000704,-0.000387,-0.003097,-0.02,-0.3,9.79,30.41
99870813,0.000704,0.001744,-0.003097,0.0,-0.32,9.83,30.39
99871832,0.00177,0.001744,-0.004162,0.04,-0.32,9.84,30.38
99872836,0.002835,0.000678,-0.003097,0.05,-0.32,9.83,30.42
99873843,0.002835,-0.001452,9.9e-05,0.06,-0.32,9.83,30.41
99874857,0.002835,-0.000387,0.002229,0.03,-0.31,9.86,30.41
99875859,0.000704,-0.002518,9.9e-05,0.01,-0.34,9.84,30.41
99876878,-0.002491,-0.003583,-0.000966,0.05,-0.32,9.83,30.42
99877879,-0.004622,-0.002518,9.9e-05,0.07,-0.29,9.82,30.37
99878895,-0.004622,-0.000387,9.9e-05,0.03,-0.32,9.84,30.38
99879902,-0.001426,-0.000387,9.9e-05,0.02,-0.36,9.86,30.39
99880915,0.000704,-0.001452,0.001164,0.01,-0.34,9.8,30.44
99881926,0.000704,-0.000387,0.001164,0.01,-0.31,9.8,30.42
99882935,0.000704,-0.000387,-0.000966,0.03,-0.32,9.83,30.36
99883939,0.00177,-0.001452,-0.002032,0.0,-0.33,9.78,30.4
99884955,0.002835,-0.002518,-0.004162,0.01,-0.32,9.8,30.42
99885962,0.00177,-0.000387,-0.003097,0.02,-0.32,9.86,30.42
99886985,0.002835,0.001744,-0.003097,0.01,-0.32,9.85,30.44
99887982,0.00177,0.001744,-0.003097,0.0,-0.29,9.85,30.41
99888995,-0.000361,0.001744,-0.000966,0.03,-0.31,9.84,30.4
99890002,-0.001426,0.001744,-0.000966,0.03,-0.34,9.83,30.38
99891015,-0.000361,-0.001452,9.9e-05,-0.02,-0.31,9.84,30.37
99892026,-0.001426,-0.001452,0.001164,0.04,-0.31,9.86,30.41
99893035,-0.002491,-0.001452,0.001164,0.07,-0.31,9.84,30.38
99894042,-0.001426,-0.001452,9.9e-05,0.03,-0.32,9.83,30.38
99895055,0.000704,-0.003583,-0.000966,0.03,-0.34,9.8,30.41
99896059,0.00177,-0.004648,9.9e-05,0.03,-0.33,9.74,30.39
99897078,-0.000361,-0.002518,0.001164,0.03,-0.35,9.77,30.38
99898085,-0.002491,-0.000387,0.003295,0.04,-0.35,9.82,30.38
99899092,-0.001426,0.000678,0.001164,0.03,-0.32,9.83,30.36
99900105,-0.000361,-0.000387,-0.000966,0.03,-0.34,9.82,30.36
99901112,0.00177,-0.001452,-0.000966,-0.01,-0.36,9.85,30.36
99902128,0.000704,-0.002518,0.001164,-0.01,-0.33,9.85,30.34
99903132,0.000704,-0.002518,9.9e-05,0.03,-0.32,9.85,30.34
99904145,0.000704,-0.002518,-0.000966,0.01,-0.31,9.87,30.32
99905152,-0.000361,-0.002518,-0.000966,0.01,-0.27,9.86,30.36
99906165,-0.000361,-0.003583,-0.002032,0.03,-0.29,9.83,30.4
99907183,0.00177,-0.003583,9.9e-05,0.06,-0.32,9.81,30.43
99908185,0.002835,-0.001452,0.002229,0.02,-0.32,9.84,30.43
99909192,0.006031,0.000678,0.003295,-0.01,-0.32,9.84,30.45
99910205,0.004966,0.001744,9.9e-05,0.02,-0.32,9.86,30.43
99911212,0.00177,0.002809,-0.002032,0.02,-0.34,9.87,30.46
99912228,0.000704,0.003874,-0.000966,0.03,-0.34,9.82,30.47
99913232,0.000704,0.001744,-0.000966,0.05,-0.32,9.8,30.45
99914245,0.000704,-0.000387,0.001164,0.05,-0.31,9.86,30.43
99915252,-0.000361,-0.002518,0.002229,0.04,-0.31,9.88,30.4
99916297,0.000722,-0.002433,6.7e-05,0.02,-0.3,9.8,30.4
99917276,0.002852,-0.002433,-0.000998,0.01,-0.31,9.77,30.42
99918285,0.002852,-0.002433,0.001132,0.05,-0.32,9.81,30.4
99919292,0.000722,-0.003498,0.002198,0.04,-0.33,9.86,30.38
99920299,-0.002474,-0.003498,6.7e-05,0.01,-0.34,9.86,30.4
99921309,-0.003539,-0.001368,-0.002064,0.03,-0.31,9.85,30.42
99922320,-0.002474,-0.001368,-0.000998,0.03,-0.3,9.81,30.37
99923335,-0.000343,-0.002433,0.001132,0.01,-0.31,9.78,30.39
99924342,0.001787,-0.002433,0.002198,0.04,-0.31,9.79,30.39
99925355,0.000722,-0.000302,6.7e-05,0.06,-0.31,9.82,30.39
99926371,-0.001409,0.000763,-0.002064,0.04,-0.34,9.82,30.39
99927377,-0.002474,-0.000302,-0.003129,0.03,-0.36,9.8,30.43
99928382,-0.001409,-0.002433,-0.003129,0.01,-0.36,9.8,30.46
99929395,-0.001409,-0.001368,-0.003129,0.0,-0.35,9.81,30.46
99930402,-0.001409,-0.000302,-0.000998,0.0,-0.34,9.8,30.4
99931415,-0.001409,-0.000302,0.001132,0.04,-0.34,9.81,30.38
99932426,-0.000343,-0.001368,0.001132,0.04,-0.3,9.86,30.36
99933435,0.001787,0.000763,-0.000998,0.0,-0.29,9.81,30.34
99934442,0.002852,0.001828,-0.000998,0.01,-0.32,9.81,30.37
99935455,0.003918,0.001828,-0.000998,0.03,-0.32,9.87,30.4
99936471,0.002852,0.001828,-0.000998,0.03,-0.31,9.86,30.4
99937478,0.000722,0.002893,6.7e-05,0.02,-0.31,9.88,30.43
99938482,-0.001409,0.002893,0.001132,0.02,-0.3,9.88,30.39
99939495,-0.001409,0.002893,-0.000998,0.02,-0.3,9.81,30.4
99940502,-0.000343,0.000763,-0.002064,0.0,-0.33,9.83,30.4
99941515,0.000722,-0.000302,-0.000998,-0.01,-0.34,9.84,30.37
99942524,0.000722,-0.000302,-0.000998,0.04,-0.33,9.82,30.35
99943535,-0.001409,-0.001368,6.7e-05,0.06,-0.34,9.78,30.41
99944542,-0.001409,-0.000302,0.001132,0.03,-0.3,9.82,30.42
99945549,-0.001409,0.001828,0.002198,0.02,-0.27,9.85,30.37
99946577,-0.001409,0.003959,0.002198,0.01,-0.28,9.84,30.37
99947577,-0.001409,0.003959,0.002198,0.03,-0.28,9.83,30.37
99948586,-0.001409,0.000763,0.002198,0.04,-0.32,9.83,30.35
99949597,-0.001409,-0.001368,0.002198,0.06,-0.34,9.83,30.39
99950615,-0.002474,0.001828,6.7e-05,0.06,-0.31,9.85,30.43
99951619,-0.002474,0.002893,-0.002064,0.04,-0.32,9.86,30.44
99952636,-0.002474,0.002893,-0.003129,0.06,-0.31,9.84,30.41
99953643,-0.001409,0.000763,-0.002064,0.06,-0.29,9.82,30.38
99954659,-0.000343,-0.002433,6.7e-05,0.04,-0.31,9.83,30.37
99955664,0.000722,-0.004564,0.001132,0.03,-0.3,9.83,30.42
99956680,0.000722,-0.002433,0.002198,0.01,-0.29,9.8,30.4
99957683,0.001787,0.001828,6.7e-05,0.03,-0.29,9.81,30.4
99958705,0.001787,0.003959,-0.002064,0.02,-0.33,9.82,30.41
99959701,0.001787,0.002893,-0.000998,0.0,-0.36,9.8,30.36
99960722,0.002852,0.000763,0.001132,0.01,-0.33,9.79,30.36
99961730,0.003918,-0.001368,0.002198,0.04,-0.33,9.83,30.39
99962741,0.003918,-0.001368,0.002198,0.05,-0.34,9.86,30.42
99963748,0.002852,-0.001368,0.001132,0.02,-0.32,9.87,30.42
99964751,0.000722,0.000763,0.001132,0.02,-0.31,9.84,30.39
99965760,-0.000343,0.002893,0.001132,0.02,-0.3,9.85,30.36
99966784,0.000722,0.002893,0.001132,0.0,-0.35,9.87,30.38
99967789,0.000722,0.002893,6.7e-05,0.0,-0.39,9.83,30.4
99968846,-0.000343,0.000763,-0.002064,0.03,-0.35,9.81,30.35
99969813,-0.000343,-0.000302,-0.003129,0.04,-0.35,9.81,30.34
99970806,-0.001409,-0.000302,-0.002064,0.05,-0.34,9.84,30.34
99971813,-0.002474,-0.001368,6.7e-05,0.07,-0.33,9.86,30.34
99972832,-0.004605,-0.001368,0.001132,0.07,-0.34,9.83,30.34
99973836,-0.004605,0.000763,6.7e-05,0.06,-0.31,9.8,30.35
99974849,-0.000343,0.001828,-0.002064,0.06,-0.28,9.82,30.38
99975855,0.000722,0.000763,-0.000998,0.03,-0.28,9.83,30.37
99976873,0.000722,-0.000302,6.7e-05,0.02,-0.33,9.81,30.39
99977876,0.000722,-0.001368,-0.000998,0.0,-0.32,9.82,30.4
99978885,-0.001409,-0.002433,-0.002064,-0.02,-0.31,9.84,30.39
99979892,-0.001409,-0.001368,-0.000998,0.03,-0.3,9.81,30.38
99980905,-0.000343,-0.000302,-0.000998,0.04,-0.31,9.8,30.42
99981912,0.001787,-0.000302,-0.000998,0.01,-0.35,9.8,30.4
99982926,0.002852,-0.000302,-0.000998,0.02,-0.36,9.79,30.43
99983932,0.000722,-0.000302,-0.000998,0.0,-0.37,9.82,30.42
99984945,-0.000343,-0.001368,-0.002064,-0.01,-0.34,9.85,30.39
99985952,-0.000343,-0.002433,-0.000998,0.03,-0.3,9.8,30.39
99986973,-0.001409,-0.003498,-0.000998,0.02,-0.34,9.78,30.36
99987974,-0.002474,-0.001368,-0.000998,0.03,-0.33,9.82,30.37
99988985,-0.002474,-0.000302,-0.000998,0.05,-0.31,9.82,30.37
99989992,-0.001409,-0.001368,-0.002064,0.04,-0.32,9.83,30.37
99991005,0.001787,-0.000302,-0.000998,0.0,-0.29,9.86,30.41
99992012,0.002852,0.000763,0.001132,0.0,-0.29,9.81,30.43
99993028,0.001787,-0.000302,0.001132,0.04,-0.31,9.78,30.44
99994032,0.000722,-0.001368,0.001132,0.06,-0.29,9.82,30.43
99995045,0.001787,-0.004564,0.001132,0.05,-0.29,9.82,30.43
99996052,0.002852,-0.004564,0.001132,0.06,-0.32,9.81,30.42
99997073,0.000722,-0.003498,-0.000998,0.06,-0.31,9.8,30.43
99998121,-0.003539,-0.003498,-0.000998,0.05,-0.29,9.8,30.4
99999104,-0.004605,-0.003498,6.7e-05,0.02,-0.3,9.84,30.36
100000095,-0.001409,-0.002433,6.7e-05,0.01,-0.31,9.8,30.39
100001112,0.000722,-0.000302,-0.000998,0.03,-0.28,9.78,30.37
100002117,-0.001409,0.001828,-0.000998,0.01,-0.3,9.85,30.41
100003128,-0.001409,0.001828,0.001132,0.04,-0.31,9.88,30.4
100004135,-0.000343,-0.000302,0.002198,0.06,-0.3,9.9,30.38
100005145,-0.000343,-0.001368,0.001132,0.0,-0.33,9.87,30.37
100006155,-0.001409,0.000763,6.7e-05,-0.04,-0.37,9.85,30.37
100007173,-0.001409,0.000763,-0.000998,-0.03,-0.37,9.83,30.35
100008176,0.000722,0.000763,-0.000998,0.03,-0.33,9.8,30.39
100009185,0.001787,0.001828,-0.002064,0.05,-0.33,9.8,30.39
100010195,0.002852,0.002893,-0.003129,0.03,-0.35,9.82,30.37
100011205,0.001787,0.000763,-0.002064,0.04,-0.32,9.82,30.4
100012215,-0.000343,-0.001368,0.001132,0.05,-0.32,9.85,30.42
100013228,-0.000343,0.000763,0.002198,0.01,-0.35,9.84,30.41
100014235,0.000722,0.001828,0.001132,0.0,-0.34,9.81,30.38
100015245,0.001787,0.001828,6.7e-05,0.02,-0.32,9.85,30.38
100016263,0.000722,0.000763,6.7e-05,0.04,-0.33,9.88,30.38
100017265,0.000722,-0.001368,6.7e-05,0.06,-0.32,9.86,30.4
100018278,0.001787,-0.001368,0.001132,0.03,-0.29,9.84,30.4
100019279,0.000722,-0.003498,0.001132,0.02,-0.32,9.82,30.41
100020289,-0.001409,-0.003498,6.7e-05,0.06,-0.35,9.8,30.44
100021305,-0.001409,-0.001368,-0.000998,0.05,-0.35,9.83,30.44
100022315,-0.000343,-0.000302,6.7e-05,0.01,-0.35,9.84,30.4
100023326,-0.000343,-0.000302,0.001132,0.01,-0.34,9.81,30.38
100024335,0.000722,-0.001368,0.001132,0.02,-0.34,9.79,30.43
100025345,0.000722,-0.002433,6.7e-05,0.01,-0.33,9.78,30.41
100026363,0.000722,-0.000302,-0.000998,0.02,-0.32,9.79,30.41
100027365,-0.000343,0.000763,-0.000998,0.04,-0.33,9.8,30.4
100028376,0.000722,-0.000302,0.001132,0.04,-0.33,9.83,30.39
100029385,0.001787,-0.001368,6.7e-05,0.04,-0.32,9.86,30.41
100030395,0.000722,-0.000302,-0.002064,0.02,-0.34,9.87,30.4
100031405,0.000722,-0.000302,6.7e-05,0.02,-0.34,9.82,30.39
100032415,0.001787,-0.000302,0.003263,0.0,-0.32,9.83,30.36
100033428,0.001787,-0.001368,0.003263,0.02,-0.31,9.88,30.4
100034435,0.000722,-0.001368,0.003263,0.03,-0.32,9.86,30.4
100035445,0.000722,-0.000302,0.003263,0.02,-0.34,9.8,30.38
100036463,0.000722,-0.001368,0.002198,0.03,-0.34,9.82,30.4
100037465,-0.001409,-0.002433,0.002198,0.02,-0.29,9.88,30.43
100038478,-0.002474,-0.003498,0.002198,0.04,-0.28,9.89,30.43
100039485,-0.003539,-0.002433,0.001132,0.07,-0.31,9.83,30.39
100040495,-0.002474,-0.000302,0.001132,0.05,-0.32,9.84,30.37
100041505,-0.000343,0.002893,6.7e-05,0.04,-0.33,9.83,30.34
100042515,0.000722,0.002893,-0.000998,0.01,-0.34,9.8,30.37
100043526,-0.000343,-0.000302,-0.002064,0.01,-0.33,9.75,30.37
100044529,-0.001409,-0.001368,-0.000998,0.03,-0.3,9.73,30.37
100045560,-0.0014,-0.000263,7.2e-05,0.04,-0.32,9.81,30.38
100046563,-0.0014,0.000802,7.2e-05,0.05,-0.32,9.84,30.36
100047565,-0.000335,0.000802,7.2e-05,0.03,-0.3,9.82,30.39
100048586,0.00073,-0.000263,0.001137,0.01,-0.31,9.84,30.39
100049587,0.00073,0.000802,7.2e-05,0.0,-0.32,9.81,30.4
100050600,0.00073,0.000802,-0.000993,0.01,-0.32,9.8,30.41
100051615,-0.000335,-0.000263,-0.002059,0.03,-0.31,9.86,30.39
100052619,-0.002466,-0.002394,-0.002059,0.02,-0.3,9.86,30.38
100053636,-0.0014,-0.001328,0.001137,0.02,-0.31,9.89,30.37
100054644,0.00073,0.000802,0.001137,0.05,-0.34,9.86,30.39
100055650,0.002861,0.000802,7.2e-05,0.06,-0.32,9.81,30.43
100056678,0.002861,-0.000263,-0.000993,0.03,-0.33,9.85,30.39
100057674,0.00073,-0.002394,-0.000993,0.02,-0.35,9.83,30.4
100058691,-0.000335,-0.001328,-0.002059,0.04,-0.32,9.78,30.39
100059697,0.00073,0.000802,-0.000993,0.05,-0.33,9.8,30.4
100060714,-0.000335,0.001868,7.2e-05,0.01,-0.32,9.79,30.43
100061710,-0.0014,0.002933,7.2e-05,0.02,-0.28,9.77,30.4
100062733,0.00073,0.002933,-0.002059,0.02,-0.27,9.8,30.38
100063741,0.001795,0.006129,-0.002059,0.02,-0.27,9.83,30.37
100064820,0.00073,0.006129,7.2e-05,0.03,-0.32,9.81,30.4
100065756,0.00073,0.003998,7.2e-05,0.03,-0.31,9.82,30.4
100066774,0.00073,0.000802,-0.000993,0.02,-0.3,9.82,30.4
100067774,-0.000335,-0.000263,-0.000993,-0.01,-0.32,9.8,30.38
100068787,-0.000335,0.000802,-0.000993,0.03,-0.31,9.82,30.39
100069793,0.00073,0.000802,-0.004189,0.05,-0.31,9.83,30.34
100070801,-0.000335,0.000802,-0.005254,0.02,-0.32,9.84,30.41
100071869,-0.0014,-0.000263,-0.002059,0.02,-0.32,9.84,30.41
100072815,-0.000335,-0.000263,0.001137,0.04,-0.33,9.89,30.4
100073832,0.001795,0.001868,0.002203,0.01,-0.32,9.89,30.41
100074839,0.002861,0.000802,0.002203,0.03,-0.33,9.88,30.37
100075849,0.003926,-0.001328,0.001137,0.02,-0.35,9.86,30.4
100076865,0.003926,-0.002394,-0.000993,0.01,-0.31,9.82,30.4
100077865,0.001795,-0.001328,-0.000993,0.02,-0.28,9.84,30.37
100078878,0.00073,0.001868,7.2e-05,0.03,-0.29,9.79,30.36
100079885,-0.000335,0.003998,0.002203,0.04,-0.31,9.79,30.38
100080895,-0.0014,0.003998,7.2e-05,0.01,-0.29,9.82,30.36
100081905,-0.000335,0.001868,-0.002059,-0.02,-0.32,9.84,30.39
100082915,0.001795,-0.000263,-0.002059,-0.02,-0.34,9.8,30.38
100083926,0.001795,-0.001328,7.2e-05,0.0,-0.35,9.81,30.35
100084935,-0.000335,-0.000263,0.001137,0.02,-0.33,9.85,30.36
100085945,-0.0014,0.002933,0.001137,0.01,-0.33,9.84,30.41
100086963,-0.002466,0.001868,-0.000993,0.03,-0.33,9.83,30.41
100087971,-0.000335,-0.000263,-0.000993,0.03,-0.29,9.8,30.42
100088976,0.002861,0.000802,-0.000993,0.06,-0.31,9.83,30.41
100089985,0.002861,-0.000263,7.2e-05,0.05,-0.34,9.86,30.38
100090989,0.00073,0.000802,-0.000993,0.04,-0.31,9.82,30.39
100092005,-0.002466,0.000802,-0.002059,0.03,-0.31,9.82,30.39
100093015,-0.002466,-0.000263,-0.003124,-0.02,-0.34,9.84,30.41
100094028,-0.0014,-0.001328,-0.002059,-0.01,-0.35,9.83,30.46
100095035,0.001795,0.000802,7.2e-05,0.02,-0.33,9.83,30.46
100096045,0.003926,0.001868,-0.000993,0.03,-0.33,9.82,30.4
100097064,0.003926,0.002933,7.2e-05,0.02,-0.32,9.84,30.42
100098068,0.003926,0.001868,0.002203,-0.01,-0.28,9.86,30.4
100099078,0.001795,-0.001328,0.002203,0.03,-0.3,9.9,30.39
100100085,0.00073,-0.004524,0.001137,0.07,-0.32,9.87,30.43
100101095,0.001795,-0.005589,7.2e-05,0.06,-0.33,9.76,30.42
100102105,0.001795,-0.003459,-0.000993,0.02,-0.31,9.74,30.41
100103115,0.00073,-0.001328,-0.000993,0.02,-0.3,9.79,30.4
100104126,-0.002466,-0.000263,-0.002059,0.04,-0.3,9.78,30.39
100105135,-0.002466,-0.000263,-0.002059,0.02,-0.3,9.84,30.39
100106145,0.00073,-0.001328,-0.002059,0.02,-0.31,9.86,30.38
100107164,0.001795,-0.002394,-0.000993,0.03,-0.31,9.82,30.38
100108168,0.002861,-0.001328,7.2e-05,0.02,-0.33,9.85,30.35
100109176,0.00073,0.000802,0.002203,0.02,-0.32,9.85,30.38
100110185,0.00073,0.002933,0.003268,0.02,-0.32,9.83,30.37
100111195,0.00073,0.003998,0.001137,0.03,-0.34,9.82,30.38
100112199,-0.000335,0.001868,-0.002059,0.04,-0.33,9.78,30.39
100113209,0.00073,0.001868,-0.002059,0.08,-0.31,9.82,30.4
100114228,0.00073,-0.000263,-0.000993,0.07,-0.31,9.85,30.41
100115235,-0.002466,-0.003459,0.001137,0.01,-0.31,9.83,30.4
100116245,-0.0014,-0.002394,0.001137,0.01,-0.31,9.81,30.4
100117264,-0.000335,-0.001328,0.001137,0.03,-0.31,9.84,30.41
100118268,0.00073,0.002933,0.001137,0.05,-0.31,9.84,30.43
100119278,0.00073,0.002933,7.2e-05,0.03,-0.29,9.84,30.43
100120285,0.00073,0.000802,-0.000993,0.0,-0.3,9.84,30.4
100121295,-0.0014,0.000802,-0.000993,0.0,-0.32,9.83,30.41
100122305,-0.003531,0.001868,-0.000993,0.01,-0.3,9.83,30.39
100123315,-0.000335,-0.000263,-0.000993,0.0,-0.29,9.81,30.39
100124326,0.00073,-0.002394,0.001137,0.0,-0.29,9.81,30.39
100125335,0.00073,-0.002394,0.001137,0.02,-0.3,9.82,30.42
100126354,0.001795,-0.001328,7.2e-05,0.02,-0.3,9.81,30.42
100127355,0.002861,-0.001328,-0.002059,0.0,-0.31,9.84,30.41
100128368,0.003926,-0.000263,-0.000993,0.0,-0.31,9.86,30.37
100129376,0.001795,-0.000263,0.002203,-0.02,-0.31,9.83,30.36
100130385,-0.000335,-0.001328,0.003268,0.0,-0.3,9.82,30.4
100131395,-0.0014,-0.001328,0.003268,0.04,-0.3,9.83,30.39
100132405,-0.0014,0.000802,0.003268,0.04,-0.32,9.82,30.4
100133415,-0.000335,0.000802,0.002203,0.06,-0.3,9.8,30.38
100134428,-0.000335,0.000802,0.002203,0.09,-0.3,9.82,30.36
100135435,-0.0014,0.001868,0.002203,0.05,-0.31,9.83,30.37
100136454,-0.000335,0.002933,0.001137,0.03,-0.3,9.82,30.39
100137455,0.00073,0.002933,7.2e-05,0.05,-0.32,9.79,30.35
100138468,0.001795,0.001868,7.2e-05,0.02,-0.33,9.76,30.35
100139478,0.002861,-0.002394,7.2e-05,-0.01,-0.31,9.8,30.41
100140485,0.001795,-0.001328,7.2e-05,0.03,-0.34,9.79,30.4
100141489,0.00073,-0.000263,7.2e-05,0.05,-0.37,9.83,30.4
100142505,-0.0014,-0.001328,7.2e-05,0.03,-0.37,9.84,30.4
100143515,-0.0014,-0.002394,-0.002059,0.03,-0.34,9.82,30.4
100144526,-0.000335,-0.000263,-0.000993,0.05,-0.34,9.85,30.41
100145535,0.00073,0.001868,7.2e-05,0.04,-0.34,9.82,30.42
100146554,0.00073,0.000802,0.001137,0.01,-0.32,9.81,30.38
100147555,-0.000335,0.000802,7.2e-05,0.01,-0.33,9.81,30.37
100148569,-0.002466,0.001868,7.2e-05,0.04,-0.34,9.83,30.39
100149581,-0.002466,0.002933,7.2e-05,0.02,-0.3,9.87,30.37
100150586,-0.0014,0.002933,-0.000993,0.02,-0.31,9.83,30.36
100151601,0.001795,0.001868,-0.002059,0.03,-0.33,9.8,30.39
100152614,0.002861,0.002933,-0.000993,0.04,-0.33,9.79,30.38
100153618,0.001795,0.002933,-0.000993,0.07,-0.34,9.79,30.39
100154644,0.00073,0.001868,0.002203,0.06,-0.36,9.83,30.43
100155640,0.001795,0.001868,0.003268,0.04,-0.34,9.83,30.38
100156662,0.001795,0.000802,0.002203,0.06,-0.31,9.84,30.38
100157667,0.00073,-0.000263,0.002203,0.06,-0.35,9.84,30.36
100158681,-0.000335,0.000802,0.001137,0.03,-0.35,9.88,30.4
100159685,-0.0014,0.001868,7.2e-05,0.02,-0.32,9.87,30.41
100160702,-0.0014,0.000802,-0.000993,0.01,-0.33,9.83,30.45
100161700,-0.0014,0.000802,-0.002059,0.03,-0.31,9.81,30.39
100162721,-0.0014,0.001868,-0.002059,0.04,-0.29,9.78,30.4
100163730,-0.000335,0.002933,7.2e-05,0.0,-0.32,9.77,30.39
100164746,-0.0014,0.002933,7.2e-05,0.04,-0.32,9.8,30.42
100165742,-0.0014,0.001868,0.001137,0.05,-0.31,9.81,30.42
100166766,-0.000335,0.000802,0.002203,0.02,-0.32,9.79,30.37
100167758,-0.0014,0.000802,0.002203,0.03,-0.31,9.78,30.4
100168779,-0.002466,-0.000263,0.001137,0.02,-0.29,9.81,30.4
100169787,-0.002466,-0.000263,0.001137,-0.01,-0.32,9.85,30.44
100170791,-0.003531,0.000802,7.2e-05,0.02,-0.34,9.87,30.41
100171799,-0.003531,0.001868,7.2e-05,0.04,-0.32,9.88,30.42
100172806,-0.002466,0.001868,0.002203,0.02,-0.31,9.85,30.41
100173883,-0.0014,0.001868,0.003268,0.01,-0.34,9.8,30.41
100174854,-0.002487,0.001797,0.001137,0.02,-0.31,9.8,30.43
100175839,-0.003552,0.001797,-0.002059,0.03,-0.31,9.8,30.42
100176858,-0.002487,0.000732,-0.002059,0.01,-0.33,9.83,30.4
100177861,-0.001421,-0.001399,-0.003125,0.0,-0.29,9.84,30.41
100178865,-0.001421,-0.001399,-0.002059,0.0,-0.29,9.8,30.44
100179875,-0.001421,-0.001399,7.1e-05,0.02,-0.29,9.79,30.38
100180888,-0.001421,-0.001399,7.1e-05,0.03,-0.31,9.81,30.39
100181895,-0.000356,-0.000334,7.1e-05,0.03,-0.33,9.81,30.37
100182905,-0.001421,-0.000334,0.001137,0.04,-0.33,9.81,30.41
100183915,-0.001421,-0.002464,0.001137,0.05,-0.32,9.88,30.42
100184925,-0.001421,-0.002464,7.1e-05,0.03,-0.3,9.88,30.41
100185936,-0.002487,-0.001399,-0.003125,0.03,-0.31,9.79,30.4
100186954,-0.003552,0.000732,-0.002059,0.04,-0.33,9.77,30.43
100187958,-0.002487,0.002862,-0.000994,0.02,-0.35,9.78,30.42
100188959,-0.001421,0.003928,7.1e-05,0.01,-0.34,9.78,30.4
100189975,-0.001421,0.002862,0.003267,0.02,-0.3,9.77,30.38
100190986,-0.000356,0.001797,0.004332,0.0,-0.28,9.78,30.41
100191995,0.000709,-0.000334,0.003267,0.0,-0.31,9.78,30.42
100193005,0.00284,-0.001399,7.1e-05,0.0,-0.32,9.82,30.42
100194015,0.003905,-0.001399,-0.002059,0.01,-0.31,9.82,30.4
100195025,0.00284,-0.001399,-0.002059,-0.01,-0.33,9.78,30.4
100196038,0.000709,-0.003529,7.1e-05,-0.02,-0.33,9.79,30.38
100197054,-0.001421,-0.003529,0.002202,0.01,-0.3,9.81,30.39
100198058,-0.001421,-0.001399,0.002202,0.05,-0.29,9.82,30.37
100199065,-0.001421,-0.001399,0.001137,0.05,-0.32,9.8,30.4
100200075,-0.000356,-0.002464,7.1e-05,-0.01,-0.32,9.82,30.39
100201088,0.000709,-0.002464,7.1e-05,-0.02,-0.32,9.82,30.41
100202095,0.001775,-0.001399,7.1e-05,0.0,-0.29,9.84,30.41
100203105,-0.000356,-0.000334,7.1e-05,0.01,-0.28,9.86,30.42
100204115,-0.003552,0.000732,0.001137,0.03,-0.3,9.85,30.39
100205125,-0.005682,0.002862,0.002202,0.04,-0.3,9.82,30.38
100206136,-0.002487,0.002862,0.002202,0.03,-0.3,9.82,30.42
100207154,0.001775,0.001797,0.002202,0.02,-0.32,9.85,30.41
100208158,0.001775,0.000732,-0.000994,0.03,-0.33,9.86,30.41
100209165,-0.000356,0.001797,-0.002059,0.04,-0.34,9.87,30.38
100210175,-0.000356,0.001797,-0.000994,0.03,-0.34,9.82,30.4
100211180,0.000709,0.000732,7.1e-05,0.02,-0.31,9.88,30.4
100212189,0.001775,-0.000334,-0.000994,0.02,-0.32,9.92,30.37
100213205,-0.000356,-0.000334,-0.002059,0.01,-0.33,9.85,30.35
100214215,-0.002487,-0.000334,-0.003125,0.03,-0.32,9.83,30.38
100215225,-0.002487,-0.000334,-0.002059,0.05,-0.28,9.81,30.36
100216248,-0.000356,0.001797,0.001137,0.01,-0.29,9.81,30.37
100217245,0.001775,0.002862,0.002202,-0.02,-0.33,9.84,30.37
100218258,0.001775,0.002862,0.001137,0.01,-0.34,9.87,30.4
100219265,-0.000356,0.000732,-0.000994,0.02,-0.34,9.89,30.4
100220275,-0.001421,-0.000334,-0.000994,0.04,-0.32,9.86,30.37
100221286,-0.001421,-0.001399,-0.000994,0.04,-0.33,9.84,30.39
100222295,-0.001421,-0.002464,0.001137,0.03,-0.35,9.83,30.43
100223305,0.001775,-0.002464,0.002202,0.03,-0.35,9.81,30.4
100224315,0.001775,-0.000334,7.1e-05,-0.01,-0.34,9.83,30.4
100225325,-0.000356,0.003928,-0.000994,-0.01,-0.32,9.83,30.4
100226345,-0.000356,0.001797,0.001137,0.0,-0.32,9.78,30.4
100227345,-0.000356,-0.000334,7.1e-05,0.02,-0.32,9.77,30.4
100228358,-0.000356,0.001797,-0.002059,0.04,-0.31,9.74,30.4
100229365,-0.000356,0.002862,-0.002059,0.04,-0.32,9.77,30.4
100230375,-0.000356,0.001797,-0.000994,0.05,-0.33,9.81,30.4
100231386,0.001775,-0.001399,-0.000994,0.04,-0.34,9.76,30.4
100232395,0.000709,-0.001399,-0.000994,0.01,-0.34,9.84,30.36
100233405,-0.003552,-0.001399,-0.000994,0.0,-0.34,9.86,30.38
100234415,-0.003552,-0.000334,-0.000994,0.03,-0.35,9.82,30.43
100235425,-0.002487,0.000732,-0.000994,0.06,-0.35,9.82,30.43
100236448,-0.000356,-0.000334,-0.003125,0.03,-0.33,9.81,30.4
100237445,-0.000356,-0.001399,-0.00419,-0.01,-0.31,9.81,30.39
100238458,-0.002487,0.000732,-0.000994,0.03,-0.33,9.81,30.4
100239465,0.000709,-0.000334,-0.000994,-0.02,-0.31,9.78,30.41
100240475,0.000709,-0.002464,-0.002059,-0.02,-0.3,9.82,30.4
100241486,-0.000356,-0.003529,-0.002059,0.01,-0.33,9.83,30.37
100242495,-0.000356,-0.001399,-0.002059,0.04,-0.35,9.85,30.37
100243505,0.000709,0.001797,-0.000994,-0.02,-0.34,9.85,30.39
100244515,0.001775,0.001797,-0.002059,-0.02,-0.32,9.84,30.37
100245525,-0.000356,-0.000334,7.1e-05,0.01,-0.32,9.85,30.38
100246545,0.000709,-0.001399,7.1e-05,0.0,-0.32,9.81,30.37
100247545,0.00284,-0.001399,7.1e-05,0.04,-0.34,9.84,30.4
100248555,0.001775,-0.001399,0.001137,0.04,-0.34,9.83,30.43
100249565,-0.001421,-0.002464,0.001137,0.02,-0.32,9.79,30.45
100250582,-0.003552,0.000732,0.001137,0.05,-0.31,9.81,30.43
100251582,-0.003552,0.003928,7.1e-05,0.09,-0.31,9.85,30.39
100252602,-0.001421,0.006058,7.1e-05,0.08,-0.34,9.87,30.39
100253613,0.001775,0.002862,0.003267,0.06,-0.34,9.84,30.39
100254622,0.001775,-0.000334,0.003267,0.04,-0.29,9.82,30.36
100255634,0.000709,-0.000334,0.003267,0.02,-0.3,9.81,30.35
100256665,0.001775,0.000732,0.002202,0.02,-0.34,9.81,30.34
100257655,0.003905,0.001797,0.001137,0.03,-0.32,9.84,30.38
100258676,0.006036,-0.000334,0.002202,0.01,-0.3,9.81,30.39
100259676,0.00284,-0.002464,0.003267,0.01,-0.33,9.81,30.35
100260685,-0.002487,-0.000334,0.002202,0.04,-0.34,9.82,30.36
100261702,-0.004617,-0.000334,0.002202,0.04,-0.31,9.81,30.39
100262704,-0.000356,-0.000334,0.003267,0.04,-0.29,9.8,30.41
100263721,0.003905,0.000732,0.003267,0.05,-0.3,9.78,30.39
100264733,0.007101,0.001797,0.001137,0.05,-0.32,9.82,30.36
100265735,0.00497,0.001797,-0.002059,0.04,-0.34,9.86,30.4
100266756,0.001775,0.001797,-0.003125,0.07,-0.32,9.87,30.39
100267753,-0.000356,0.000732,-0.002059,0.08,-0.29,9.86,30.39
100268766,-0.001421,0.000732,7.1e-05,0.04,-0.3,9.85,30.39
100269785,-0.002487,0.001797,0.003267,0.03,-0.33,9.85,30.38
100270785,-0.002487,0.001797,0.003267,0.04,-0.32,9.84,30.4
100271791,0.001775,0.001797,0.001137,0.02,-0.3,9.88,30.44
100272803,0.000709,0.000732,-0.002059,0.01,-0.35,9.85,30.41
100273806,-0.000356,-0.001399,-0.002059,0.01,-0.33,9.83,30.38
100274809,0.000709,-0.003529,7.1e-05,-0.01,-0.32,9.83,30.4
100275843,0.00284,-0.003529,0.001137,0.04,-0.33,9.79,30.36
100276865,0.001775,-0.001399,0.001137,0.08,-0.28,9.77,30.42
100277849,0.000709,0.000732,-0.002059,0.04,-0.27,9.77,30.43
100278857,-0.000356,0.000732,-0.00419,0.02,-0.3,9.81,30.41
100279865,0.000709,-0.000334,-0.002059,0.04,-0.3,9.83,30.44
100280875,0.001775,-0.002464,0.001137,0.03,-0.29,9.86,30.41
100281886,-0.000356,-0.002464,0.001137,0.02,-0.32,9.83,30.41
100282895,-0.002487,-0.001399,7.1e-05,0.03,-0.34,9.83,30.4
100283905,-0.000356,-0.000334,-0.000994,0.02,-0.33,9.84,30.39
100284909,0.001775,-0.000334,-0.000994,0.03,-0.32,9.78,30.41
100285925,0.00284,-0.000334,-0.000994,0.03,-0.32,9.83,30.43
100286938,0.00284,-0.002464,0.001137,0.02,-0.31,9.89,30.4
100287939,0.000709,-0.004595,0.004332,0.02,-0.29,9.87,30.4
100288955,-0.000356,-0.00566,0.004332,0.03,-0.3,9.86,30.4
100289965,-0.003552,-0.00566,0.001137,0.03,-0.32,9.84,30.4
100290975,-0.004617,-0.001399,7.1e-05,0.02,-0.34,9.81,30.41
100291980,-0.003552,0.001797,7.1e-05,0.03,-0.33,9.82,30.39
100292989,-0.001421,0.000732,-0.002059,0.03,-0.31,9.83,30.36
100293999,-0.001421,-0.000334,-0.003125,0.04,-0.33,9.8,30.37
100295009,-0.002487,-0.000334,-0.003125,0.05,-0.34,9.83,30.39
100296025,-0.001421,-0.002464,-0.003125,0.04,-0.35,9.84,30.37
100297047,0.000709,-0.002464,-0.002059,0.04,-0.34,9.77,30.39
100298045,0.001775,0.001797,7.1e-05,0.05,-0.34,9.78,30.42
100299055,0.000709,0.003928,0.002202,0.07,-0.31,9.84,30.4
100300065,-0.001421,0.001797,0.001137,0.04,-0.3,9.88,30.37
100301075,-0.000356,0.000732,7.1e-05,0.03,-0.32,9.86,30.34
100302086,0.001775,0.000732,0.001137,0.04,-0.33,9.85,30.34
100303095,0.001775,-0.001399,7.1e-05,0.05,-0.33,9.83,30.37
100304126,-0.000337,-0.002447,0.001137,0.04,-0.31,9.81,30.38
100305115,-0.001402,-0.001382,0.002202,0.04,-0.3,9.82,30.39
100306125,-0.000337,-0.000316,7.2e-05,0.04,-0.31,9.84,30.38
100307144,0.000728,-0.001382,-0.002059,0.04,-0.33,9.83,30.36
100308145,-0.000337,-0.002447,-0.000994,0.01,-0.33,9.82,30.38
100309155,-0.000337,-0.001382,0.002202,0.02,-0.32,9.88,30.39
100310165,0.000728,-0.000316,0.003268,0.02,-0.31,9.89,30.41
100311175,-0.001402,-0.001382,7.2e-05,0.01,-0.32,9.81,30.4
100312186,-0.001402,-0.003512,-0.002059,0.03,-0.33,9.79,30.42
100313189,-0.000337,-0.002447,-0.000994,0.03,-0.33,9.77,30.42
100314205,0.000728,-0.000316,7.2e-05,0.02,-0.35,9.79,30.38
100315215,0.000728,0.000749,7.2e-05,0.04,-0.31,9.85,30.37
100316225,0.001793,-0.000316,7.2e-05,0.04,-0.31,9.84,30.4
100317247,0.000728,-0.000316,-0.000994,0.02,-0.33,9.87,30.37
100318245,0.000728,-0.001382,-0.000994,0.01,-0.34,9.85,30.34
100319255,-0.000337,-0.000316,-0.000994,0.01,-0.34,9.77,30.34
100320265,-0.002468,0.000749,-0.000994,0.02,-0.29,9.75,30.36
100321275,-0.004598,0.000749,7.2e-05,0.01,-0.28,9.8,30.37
100322286,-0.004598,-0.000316,-0.000994,0.01,-0.29,9.83,30.35
100323295,-0.002468,-0.000316,7.2e-05,0.01,-0.31,9.84,30.34
100324305,-0.001402,-0.002447,0.001137,0.01,-0.33,9.88,30.34
100325315,-0.002468,0.000749,0.001137,0.05,-0.33,9.93,30.34
100326333,-0.002468,0.002879,7.2e-05,0.06,-0.32,9.9,30.37
100327338,-0.001402,0.001814,0.001137,0.05,-0.33,9.78,30.4
100328345,0.000728,0.000749,0.001137,0.03,-0.32,9.75,30.38
100329355,0.001793,-0.000316,7.2e-05,0.01,-0.29,9.8,30.38
100330365,0.001793,-0.002447,-0.002059,0.03,-0.32,9.83,30.38
100331375,-0.000337,-0.001382,-0.004189,0.02,-0.32,9.82,30.43
100332380,-0.001402,0.001814,-0.003124,0.0,-0.32,9.81,30.43
100333395,0.000728,0.002879,-0.000994,0.0,-0.34,9.81,30.42
100334405,0.000728,0.000749,7.2e-05,0.04,-0.34,9.81,30.41
100335415,-0.001402,-0.001382,-0.000994,0.05,-0.34,9.83,30.44
100336433,-0.002468,-0.000316,-0.000994,0.04,-0.35,9.82,30.39
100337438,-0.002468,-0.000316,-0.002059,0.04,-0.34,9.83,30.37
100338445,-0.000337,-0.000316,-0.000994,0.06,-0.31,9.85,30.4
100339455,0.001793,0.001814,0.002202,0.05,-0.34,9.82,30.41
100340465,0.001793,0.000749,0.002202,0.03,-0.32,9.84,30.4
100341475,-0.001402,0.001814,0.001137,0.02,-0.32,9.86,30.37
100342486,-0.003533,0.002879,7.2e-05,0.0,-0.33,9.86,30.38
100343495,-0.001402,0.001814,7.2e-05,0.03,-0.35,9.82,30.37
100344505,-0.000337,0.000749,0.001137,0.02,-0.32,9.8,30.36
100345515,0.000728,0.000749,0.002202,0.01,-0.32,9.79,30.34
100346533,0.002859,-0.000316,0.002202,0.03,-0.36,9.8,30.36
100347538,0.002859,-0.001382,0.001137,0.01,-0.36,9.78,30.38
100348545,-0.000337,-0.003512,-0.000994,0.02,-0.37,9.75,30.37
100349555,-0.002468,-0.003512,-0.000994,0.03,-0.36,9.82,30.4
100350565,-0.002468,-0.000316,7.2e-05,0.01,-0.32,9.84,30.39
100351580,-0.001402,0.000749,0.001137,0.02,-0.33,9.8,30.42
100352588,-0.000337,-0.000316,7.2e-05,0.04,-0.38,9.8,30.41
100353601,-0.000337,0.000749,7.2e-05,0.03,-0.38,9.8,30.39
100354614,0.000728,0.002879,7.2e-05,0.01,-0.33,9.79,30.38
100355618,0.000728,0.000749,-0.002059,0.02,-0.32,9.83,30.44
100356646,0.000728,-0.000316,-0.002059,0.02,-0.33,9.88,30.45
100357647,-0.000337,-0.001382,-0.000994,0.01,-0.34,9.86,30.47
100358658,0.000728,-0.001382,7.2e-05,0.0,-0.34,9.83,30.43
100359667,0.001793,-0.001382,7.2e-05,0.01,-0.33,9.84,30.42
100360682,0.000728,-0.002447,0.001137,0.01,-0.32,9.83,30.44
100361683,-0.000337,-0.002447,7.2e-05,0.01,-0.32,9.8,30.45
100362703,-0.001402,0.000749,7.2e-05,0.0,-0.32,9.81,30.38
100363700,-0.000337,0.000749,0.002202,0.02,-0.33,9.84,30.42
100364721,0.001793,-0.000316,0.003268,0.02,-0.35,9.83,30.39
100365730,0.000728,-0.001382,0.002202,0.04,-0.31,9.83,30.41
100366754,-0.001402,-0.001382,7.2e-05,0.04,-0.27,9.84,30.43
100367749,-0.003533,-0.000316,-0.000994,-0.01,-0.34,9.85,30.43
100368755,-0.001402,-0.001382,-0.000994,0.01,-0.34,9.81,30.4
100369764,0.000728,-0.002447,7.2e-05,-0.01,-0.32,9.82,30.39
100370777,-0.000337,-0.002447,0.001137,0.01,-0.33,9.84,30.39
100371782,-0.001402,-0.001382,0.002202,0.06,-0.32,9.82,30.36
100372798,-0.002468,-0.000316,0.002202,0.05,-0.32,9.87,30.41
100373795,-0.001402,-0.001382,0.001137,0.04,-0.32,9.86,30.41
100374803,-0.000337,-0.004578,7.2e-05,0.02,-0.32,9.83,30.39
100375809,-0.001402,-0.002447,0.001137,0.02,-0.33,9.86,30.39
100376831,-0.002468,-0.000316,0.002202,0.05,-0.31,9.85,30.41
100377836,-0.002468,0.000749,0.003268,0.03,-0.3,9.79,30.42
100378905,-0.002468,0.000749,0.002202,0.0,-0.3,9.81,30.38
100379857,-0.001402,0.003945,0.001137,0.01,-0.34,9.81,30.39
100380865,-0.000337,0.002879,0.003268,0.03,-0.34,9.74,30.37
100381875,0.000728,0.000749,0.003268,0.06,-0.3,9.73,30.4
100382880,-0.000337,-0.000316,7.2e-05,0.04,-0.33,9.77,30.42
100383895,0.000728,-0.000316,-0.003124,0.0,-0.31,9.8,30.4
100384899,0.002859,-0.003512,-0.002059,0.0,-0.32,9.82,30.4
100385915,0.002859,-0.004578,0.001137,0.01,-0.35,9.86,30.4
100386933,0.000728,-0.001382,0.002202,0.04,-0.34,9.86,30.41
100387938,-0.000337,-0.001382,0.001137,0.05,-0.33,9.86,30.4
100388945,-0.000337,0.000749,0.001137,0.01,-0.33,9.79,30.4
100389955,-0.000337,0.000749,0.001137,0.03,-0.33,9.74,30.4
100390965,-0.000337,-0.000316,7.2e-05,0.04,-0.34,9.84,30.36
100391975,-0.001402,-0.001382,7.2e-05,0.02,-0.3,9.87,30.36
100392980,-0.001402,-0.003512,7.2e-05,0.03,-0.27,9.82,30.38
100393995,0.000728,-0.004578,7.2e-05,0.04,-0.3,9.79,30.4
100395005,0.001793,-0.004578,0.001137,0.02,-0.32,9.84,30.37
100396015,0.001793,-0.001382,0.001137,0.02,-0.33,9.84,30.37
100397033,0.001793,0.000749,7.2e-05,0.05,-0.31,9.77,30.38
100398038,0.000728,-0.000316,-0.000994,0.05,-0.3,9.82,30.37
100399045,-0.002468,-0.001382,-0.000994,0.02,-0.32,9.85,30.39
100400055,-0.001402,-0.000316,7.2e-05,0.0,-0.32,9.82,30.39
100401065,-0.000337,0.000749,-0.000994,0.02,-0.32,9.86,30.4
100402075,-0.000337,0.000749,-0.002059,0.04,-0.33,9.86,30.41
100403086,-0.002468,0.001814,-0.003124,0.06,-0.32,9.82,30.41
100404095,-0.001402,0.002879,-0.002059,0.07,-0.29,9.78,30.4
100405105,-0.001402,0.001814,-0.000994,0.04,-0.27,9.8,30.37
100406115,-0.000337,-0.001382,-0.002059,0.02,-0.3,9.79,30.4
100407133,0.001793,-0.002447,-0.002059,0.01,-0.32,9.81,30.37
100408138,0.003924,-0.001382,7.2e-05,0.02,-0.29,9.87,30.36
100409145,0.003924,-0.001382,7.2e-05,0.06,-0.32,9.86,30.38
100410155,0.002859,-0.002447,0.001137,0.07,-0.33,9.83,30.4
100411165,0.000728,-0.001382,0.002202,0.06,-0.3,9.81,30.41
100412175,-0.000337,-0.002447,0.002202,0.04,-0.34,9.83,30.37
100413186,-0.003533,-0.001382,0.001137,0.02,-0.35,9.82,30.39
100414195,-0.003533,-0.002447,0.001137,0.02,-0.34,9.84,30.4
100415205,-0.000337,-0.003512,7.2e-05,0.03,-0.32,9.87,30.37
100416215,-0.000337,-0.002447,0.001137,0.04,-0.3,9.8,30.39
100417233,-0.002468,-0.002447,0.001137,0.03,-0.31,9.78,30.37
100418238,-0.004598,-0.001382,0.001137,0.04,-0.3,9.79,30.4
100419245,-0.002468,-0.001382,0.001137,0.03,-0.29,9.81,30.4
100420255,0.002859,-0.000316,0.002202,0.05,-0.3,9.86,30.4
100421265,0.006055,0.000749,0.003268,0.03,-0.32,9.87,30.4
100422275,0.002859,0.001814,0.003268,0.01,-0.32,9.83,30.37
100423286,-0.001402,-0.001382,7.2e-05,0.0,-0.34,9.87,30.4
100424289,-0.001402,-0.003512,-0.002059,0.02,-0.36,9.87,30.4
100425305,0.000728,-0.003512,-0.002059,0.03,-0.36,9.86,30.41
100426323,0.000728,-0.000316,-0.000994,0.03,-0.34,9.88,30.41
100427325,-0.000337,0.001814,7.2e-05,0.02,-0.31,9.87,30.43
100428338,0.000728,0.002879,7.2e-05,0.02,-0.32,9.84,30.43
100429345,0.000728,0.000749,-0.000994,0.0,-0.33,9.82,30.39
100430355,-0.001402,0.000749,-0.002059,0.01,-0.29,9.85,30.34
100431365,-0.001402,0.000749,-0.000994,0.04,-0.3,9.84,30.35
100432375,-0.000337,0.001814,-0.000994,0.03,-0.31,9.81,30.37
100433406,-0.001363,0.000814,4.9e-05,0.04,-0.29,9.81,30.37
100434395,-0.001363,-0.000251,-0.001016,0.04,-0.3,9.86,30.37
100435405,-0.001363,-0.001317,-0.002081,0.04,-0.3,9.89,30.37
100436423,-0.001363,-0.002382,-0.001016,0.03,-0.29,9.84,30.39
100437425,0.001833,-0.004512,4.9e-05,0.03,-0.33,9.84,30.37
100438438,0.001833,-0.001317,0.001114,0.03,-0.36,9.85,30.37
100439439,0.000768,0.000814,0.00218,0.04,-0.33,9.82,30.39
100440455,-0.000298,0.000814,4.9e-05,0.03,-0.32,9.8,30.4
100441459,-0.000298,0.000814,-0.001016,0.02,-0.32,9.84,30.4
100442469,-0.001363,-0.000251,-0.002081,0.02,-0.33,9.88,30.4
100443480,-0.000298,-0.000251,4.9e-05,0.0,-0.34,9.87,30.44
100444495,0.000768,0.000814,0.00218,-0.01,-0.33,9.87,30.4
100445505,0.000768,0.001879,0.00431,0.03,-0.31,9.87,30.42
100446523,-0.000298,0.002945,0.00218,0.04,-0.31,9.87,30.4
100447525,-0.001363,0.002945,4.9e-05,-0.01,-0.31,9.85,30.39
100448538,-0.000298,0.002945,4.9e-05,-0.02,-0.31,9.84,30.38
100449545,0.000768,0.002945,-0.001016,0.03,-0.32,9.85,30.38
100450555,0.001833,0.000814,-0.001016,0.07,-0.32,9.87,30.42
100451565,0.000768,-0.001317,4.9e-05,0.07,-0.34,9.82,30.41
100452582,-0.001363,0.000814,0.001114,0.06,-0.38,9.76,30.42
100453587,-0.005624,0.002945,0.00218,0.06,-0.35,9.82,30.4
100454602,-0.003493,0.001879,0.003245,0.05,-0.29,9.83,30.4
100455613,-0.002428,-0.000251,0.001114,0.03,-0.28,9.82,30.4
100456632,-0.002428,-0.000251,0.001114,0.04,-0.29,9.8,30.39
100457634,-0.001363,-0.000251,0.001114,0.07,-0.34,9.81,30.4
100458644,-0.000298,-0.000251,0.001114,0.08,-0.36,9.87,30.38
100459655,0.000768,-0.001317,0.001114,0.06,-0.3,9.88,30.43
100460662,0.002898,-0.001317,4.9e-05,0.04,-0.31,9.83,30.42
100461676,0.005029,-0.002382,0.001114,0.04,-0.32,9.84,30.4
100462688,0.003964,-0.001317,0.00218,0.02,-0.29,9.89,30.39
100463702,0.000768,0.001879,0.001114,0.02,-0.28,9.86,30.4
100464704,0.001833,0.002945,4.9e-05,0.03,-0.28,9.85,30.4
100465721,0.001833,-0.000251,-0.001016,0.01,-0.31,9.88,30.4
100466741,0.000768,-0.003447,-0.001016,0.02,-0.31,9.88,30.39
100467737,-0.001363,-0.003447,-0.001016,0.05,-0.3,9.85,30.34
100468756,-0.002428,-0.002382,0.00218,0.04,-0.31,9.81,30.37
100469759,-0.001363,-0.001317,0.001114,0.03,-0.31,9.84,30.4
100470765,0.000768,-0.000251,-0.001016,0.04,-0.32,9.87,30.43
100471775,0.000768,0.000814,-0.001016,0.01,-0.33,9.85,30.39
100472790,0.000768,0.000814,0.001114,0.0,-0.31,9.8,30.36
100473791,0.000768,0.001879,0.00218,0.02,-0.29,9.79,30.37
100474806,0.000768,0.000814,0.001114,0.01,-0.27,9.85,30.4
100475806,0.001833,-0.003447,4.9e-05,0.01,-0.28,9.89,30.37
100476826,0.001833,-0.003447,-0.001016,0.0,-0.34,9.88,30.4
100477829,0.002898,-0.002382,-0.001016,-0.01,-0.33,9.82,30.41
100478843,0.001833,-0.001317,4.9e-05,0.0,-0.3,9.8,30.37
100479849,0.001833,-0.000251,-0.001016,0.03,-0.3,9.83,30.4
100480905,-0.001363,0.000814,-0.002081,0.02,-0.3,9.86,30.42
100481865,-0.003493,0.001879,-0.001016,0.01,-0.33,9.87,30.39
100482875,-0.003493,-0.000251,4.9e-05,0.02,-0.35,9.87,30.37
100483886,-0.000298,-0.004512,4.9e-05,0.03,-0.31,9.85,30.38
100484895,0.002898,-0.005578,4.9e-05,0.01,-0.31,9.81,30.37
100485905,0.002898,-0.002382,4.9e-05,0.01,-0.31,9.83,30.37
100486923,0.001833,-0.000251,4.9e-05,0.02,-0.3,9.87,30.42
100487925,-0.000298,0.000814,0.001114,0.03,-0.32,9.87,30.41
100488938,-0.000298,0.000814,0.00218,0.03,-0.32,9.87,30.34
100489945,-0.000298,0.001879,0.003245,0.02,-0.32,9.81,30.37
100490955,0.000768,0.000814,0.00218,0.03,-0.31,9.8,30.36
100491965,0.001833,-0.001317,0.001114,0.05,-0.32,9.83,30.33
100492969,0.000768,-0.001317,4.9e-05,0.04,-0.34,9.84,30.38
100493980,-0.000298,-0.002382,4.9e-05,0.02,-0.33,9.83,30.37
100494995,-0.002428,-0.002382,4.9e-05,0.01,-0.32,9.79,30.36
100496005,-0.002428,-0.001317,-0.001016,0.01,-0.33,9.77,30.37
100497023,-0.001363,0.000814,4.9e-05,0.04,-0.32,9.82,30.36
100498025,0.000768,0.001879,0.001114,0.06,-0.32,9.86,30.38
100499067,0.001833,0.001879,-0.001016,0.04,-0.32,9.86,30.39
100500084,0.002898,0.001879,-0.002081,0.03,-0.31,9.88,30.4
100501089,0.001833,0.000814,-0.001016,0.02,-0.29,9.9,30.39
100502065,-0.000298,-0.000251,0.001114,0.04,-0.29,9.84,30.39
100503075,-0.003493,-0.002382,0.001114,0.04,-0.33,9.82,30.41
100504088,-0.001363,-0.004512,4.9e-05,0.04,-0.33,9.87,30.39
100505095,0.000768,-0.002382,-0.002081,0.01,-0.31,9.84,30.39
100506105,-0.000298,0.000814,-0.003147,0.02,-0.33,9.84,30.41
100507117,-0.001363,0.001879,-0.002081,0.04,-0.33,9.87,30.42
100508125,-0.000298,0.000814,4.9e-05,0.04,-0.36,9.86,30.4
100509138,-0.001363,-0.000251,0.00218,0.02,-0.35,9.87,30.37
100510145,-0.001363,-0.000251,0.001114,0.0,-0.32,9.86,30.36
100511155,-0.001363,0.000814,-0.001016,0.02,-0.35,9.81,30.36
100512165,0.000768,0.000814,4.9e-05,0.04,-0.36,9.81,30.32
100513175,0.000768,0.000814,0.001114,0.05,-0.33,9.81,30.35
100514186,-0.001363,0.000814,-0.002081,0.05,-0.3,9.82,30.4
100515195,-0.000298,0.001879,-0.004212,0.04,-0.29,9.85,30.42
100516205,0.001833,0.001879,-0.004212,0.01,-0.3,9.84,30.37
100517223,0.001833,0.001879,-0.002081,0.0,-0.31,9.82,30.4
100518225,0.002898,0.000814,-0.001016,0.01,-0.32,9.86,30.4
100519238,0.000768,-0.000251,4.9e-05,0.02,-0.33,9.81,30.41
100520245,-0.000298,-0.001317,4.9e-05,0.03,-0.34,9.77,30.36
100521255,0.001833,-0.001317,4.9e-05,0.03,-0.28,9.76,30.35
100522265,0.000768,-0.002382,4.9e-05,0.02,-0.27,9.8,30.38
100523275,0.000768,-0.004512,-0.001016,0.02,-0.31,9.81,30.39
100524286,-0.000298,-0.004512,-0.002081,0.03,-0.35,9.82,30.37
100525295,0.000768,-0.003447,-0.002081,0.03,-0.32,9.86,30.36
100526307,0.000768,-0.002382,-0.001016,0.01,-0.29,9.84,30.4
100527315,-0.000298,-0.000251,0.001114,0.02,-0.32,9.83,30.42
100528325,-0.000298,0.000814,0.001114,0.05,-0.33,9.81,30.43
100529333,0.002898,-0.000251,-0.001016,0.02,-0.32,9.79,30.4
100530339,0.002898,-0.001317,-0.002081,0.02,-0.28,9.82,30.4
100531355,0.002898,-0.001317,-0.002081,0.06,-0.28,9.85,30.39
100532365,0.000768,-0.001317,-0.001016,0.07,-0.33,9.84,30.38
100533375,-0.000298,-0.001317,4.9e-05,0.07,-0.35,9.79,30.42
100534386,0.001833,0.000814,4.9e-05,0.04,-0.33,9.76,30.41
100535395,0.002898,0.001879,4.9e-05,0.03,-0.31,9.8,30.39
100536413,0.001833,0.001879,-0.001016,0.05,-0.33,9.82,30.41
100537415,0.002898,-0.000251,4.9e-05,0.04,-0.31,9.86,30.41
100538425,0.001833,-0.001317,4.9e-05,0.02,-0.33,9.8,30.39
100539438,-0.000298,-0.000251,-0.001016,0.02,-0.32,9.78,30.4
100540445,-0.001363,0.000814,4.9e-05,0.03,-0.3,9.83,30.38
100541455,0.000768,0.002945,0.001114,0.03,-0.31,9.82,30.36
100542465,0.001833,0.00401,0.003245,0.04,-0.33,9.82,30.42
100543475,0.003964,0.002945,0.00218,0.07,-0.35,9.85,30.43
100544486,0.005029,0.002945,0.001114,0.06,-0.32,9.88,30.38
100545495,0.005029,0.002945,0.00218,0.02,-0.28,9.85,30.37
100546513,0.002898,0.001879,0.001114,0.03,-0.31,9.85,30.35
100547515,0.001833,-0.002382,-0.002081,0.03,-0.34,9.87,30.39
100548525,0.003964,-0.003447,-0.004212,0.02,-0.33,9.89,30.37
100549540,0.001833,-0.002382,-0.004212,0.04,-0.34,9.83,30.37
100550545,-0.001363,-0.002382,-0.001016,0.04,-0.37,9.78,30.38
100551555,-0.002428,-0.002382,0.001114,0.02,-0.37,9.8,30.38
100552565,-0.000298,-0.001317,0.001114,0.03,-0.33,9.79,30.39
100553580,0.000768,-0.000251,4.9e-05,0.04,-0.31,9.83,30.4
100554588,0.000768,-0.000251,-0.001016,0.04,-0.31,9.83,30.36
100555601,-0.000298,-0.001317,0.001114,0.03,-0.32,9.82,30.4
100556622,-0.001363,-0.001317,0.00218,0.03,-0.29,9.79,30.37
100557620,0.001833,0.001879,4.9e-05,0.04,-0.3,9.81,30.35
100558633,0.003964,0.005075,-0.002081,0.04,-0.33,9.84,30.35
100559643,0.002898,0.00401,-0.001016,0.03,-0.31,9.78,30.37
100560657,-0.000298,-0.000251,4.9e-05,-0.01,-0.3,9.77,30.4
100561663,-0.001363,-0.001317,0.00218,-0.01,-0.29,9.81,30.42
100562698,0.000708,-0.002357,0.001114,0.01,-0.3,9.82,30.38
100563684,0.003904,-0.000226,4.9e-05,0.03,-0.31,9.82,30.39
100564700,0.003904,0.00297,-0.001016,0.03,-0.31,9.84,30.4
100565702,0.000708,0.00297,-0.002081,0.01,-0.33,9.84,30.38
100566733,0.001774,0.000839,-0.002081,0.02,-0.33,9.81,30.41
100567731,0.002839,-0.002357,-0.001016,0.06,-0.32,9.8,30.41
100568735,0.000708,-0.003422,0.001114,0.05,-0.32,9.78,30.45
100569746,-0.002487,-0.002357,-0.001016,0.01,-0.31,9.83,30.44
100570750,-0.001422,-0.001291,4.9e-05,0.01,-0.32,9.85,30.4
100571757,0.000708,0.000839,4.9e-05,0.01,-0.34,9.83,30.38
100572775,0.001774,0.001905,0.001114,0.0,-0.32,9.87,30.39
100573784,-0.001422,0.00297,0.00218,0.02,-0.32,9.84,30.39
100574791,-0.001422,0.001905,0.00218,0.01,-0.33,9.77,30.35
100575800,-0.000357,-0.001291,0.001114,0.0,-0.31,9.78,30.36
100576882,-0.000357,-0.003422,4.9e-05,0.0,-0.32,9.81,30.37
100577815,-0.000357,-0.000226,4.9e-05,0.02,-0.32,9.8,30.39
100578829,0.001774,0.0051,4.9e-05,0.02,-0.28,9.82,30.41
100579843,0.000708,0.006166,-0.001016,0.02,-0.28,9.82,30.4
100580849,-0.001422,0.001905,-0.001016,0.05,-0.28,9.83,30.38
100581857,-0.002487,-0.001291,4.9e-05,0.07,-0.31,9.85,30.43
100582865,-0.002487,-0.001291,-0.001016,0.05,-0.33,9.84,30.4
100583929,-0.001422,-0.001291,-0.001016,0.05,-0.33,9.82,30.4
100584886,-0.001422,-0.001291,-0.002081,0.08,-0.36,9.85,30.4
100585895,-0.002487,-0.000226,-0.003147,0.04,-0.37,9.88,30.4
100586913,-0.004618,0.000839,-0.001016,0.0,-0.34,9.86,30.41
100587915,-0.004618,-0.002357,-0.001016,0.01,-0.32,9.84,30.4
100588925,-0.002487,-0.004487,-0.002081,0.04,-0.33,9.8,30.38
100589935,-0.000357,-0.002357,-0.003147,0.06,-0.3,9.82,30.38
100590948,-0.000357,-0.001291,-0.003147,0.02,-0.29,9.85,30.36
100591955,-0.000357,-0.000226,-0.001016,0.0,-0.32,9.83,30.36
100592959,-0.000357,-0.001291,-0.001016,0.02,-0.32,9.82,30.37
100593975,-0.001422,-0.001291,4.9e-05,0.05,-0.32,9.87,30.38
100594979,-0.003553,-0.001291,4.9e-05,0.05,-0.34,9.89,30.41
100595996,-0.003553,-0.001291,-0.001016,0.04,-0.34,9.82,30.39
100597013,-0.003553,-0.002357,-0.001016,0.01,-0.35,9.78,30.41
100598015,-0.002487,-0.002357,-0.001016,-0.04,-0.33,9.8,30.37
100599025,-0.000357,-0.001291,4.9e-05,-0.02,-0.33,9.86,30.4
100600035,-0.000357,-0.002357,0.001114,0.03,-0.34,9.86,30.41
100601048,-0.000357,-0.002357,0.001114,0.02,-0.33,9.9,30.39
100602055,-0.000357,-0.001291,-0.001016,0.02,-0.32,9.88,30.39
100603065,-0.003553,-0.000226,-0.002081,0.02,-0.33,9.82,30.4
100604075,-0.005683,-0.000226,-0.002081,0.03,-0.34,9.82,30.37
100605085,-0.004618,-0.000226,-0.002081,0.04,-0.33,9.79,30.37
100606096,-0.000357,-0.000226,-0.001016,0.03,-0.35,9.81,30.34
100607113,0.004969,0.00297,4.9e-05,0.04,-0.36,9.79,30.34
100608115,0.0071,0.004035,0.001114,0.04,-0.36,9.79,30.36
100609125,0.004969,0.00297,0.00218,0.04,-0.35,9.83,30.37
100610135,0.000708,0.000839,0.00218,0.05,-0.33,9.83,30.36
100611148,-0.000357,0.000839,4.9e-05,0.05,-0.33,9.84,30.45
100612155,-0.000357,-0.000226,-0.001016,0.04,-0.36,9.82,30.44
100613165,-0.002487,-0.001291,4.9e-05,0.03,-0.36,9.85,30.4
100614175,-0.001422,-0.000226,0.001114,0.01,-0.32,9.83,30.4
100615185,0.001774,-0.000226,0.003245,-0.02,-0.32,9.81,30.46
100616196,0.001774,-0.000226,0.00431,0.03,-0.34,9.87,30.42
100617213,0.001774,0.001905,0.00431,0.04,-0.31,9.9,30.4
100618215,0.001774,0.00297,0.001114,0.0,-0.3,9.89,30.38
100619225,0.002839,0.004035,4.9e-05,0.0,-0.34,9.86,30.39
100620235,0.001774,0.001905,0.001114,0.0,-0.31,9.81,30.4
100621248,0.000708,0.000839,0.003245,0.03,-0.29,9.77,30.4
100622255,-0.000357,0.000839,0.00218,0.03,-0.3,9.78,30.39
100623265,0.000708,-0.000226,0.001114,0.0,-0.31,9.8,30.38
100624275,0.001774,-0.001291,0.00218,0.02,-0.33,9.8,30.36
100625285,0.000708,-0.000226,0.001114,0.01,-0.33,9.82,30.37
100626304,0.001774,0.000839,-0.001016,-0.01,-0.32,9.86,30.38
100627305,0.001774,-0.000226,-0.001016,0.03,-0.34,9.86,30.4
100628315,0.000708,-0.001291,0.00218,0.05,-0.34,9.85,30.41
100629325,-0.000357,-0.002357,0.003245,0.06,-0.31,9.84,30.43
100630335,0.000708,-0.002357,0.001114,0.02,-0.31,9.85,30.4
100631343,0.001774,-0.001291,4.9e-05,0.02,-0.27,9.85,30.33
100632355,0.000708,-0.001291,-0.001016,0.04,-0.28,9.84,30.35
100633365,0.000708,-0.001291,-0.002081,0.02,-0.34,9.85,30.37
100634375,0.000708,-0.001291,-0.001016,0.04,-0.34,9.83,30.4
100635379,0.001774,-0.000226,4.9e-05,0.03,-0.32,9.81,30.39
100636400,0.001774,0.000839,4.9e-05,-0.01,-0.33,9.83,30.4
100637405,-0.002487,-0.001291,-0.002081,0.05,-0.32,9.82,30.38
100638409,-0.001422,0.000839,-0.002081,0.03,-0.33,9.82,30.39
100639419,-0.001422,0.000839,-0.002081,0.0,-0.3,9.78,30.38
100640435,-0.002487,0.000839,-0.001016,0.0,-0.31,9.84,30.39
100641448,-0.002487,0.000839,4.9e-05,0.04,-0.33,9.88,30.41
100642455,-0.000357,-0.002357,-0.001016,0.03,-0.31,9.85,30.43
100643465,0.001774,-0.002357,4.9e-05,0.02,-0.33,9.82,30.42
100644475,0.003904,-0.001291,0.001114,0.01,-0.33,9.82,30.39
100645485,0.001774,0.001905,0.003245,0.0,-0.29,9.85,30.35
100646504,-0.000357,0.004035,0.003245,0.03,-0.3,9.83,30.36
100647505,-0.000357,0.00297,0.00218,0.04,-0.32,9.8,30.4
100648515,-0.000357,0.000839,0.001114,0.01,-0.3,9.83,30.38
100649525,0.000708,-0.001291,0.001114,-0.01,-0.3,9.86,30.34
100650535,0.002839,-0.004487,0.001114,0.0,-0.33,9.83,30.38
100651548,0.004969,-0.006618,4.9e-05,0.02,-0.32,9.8,30.41
100652555,0.003904,-0.003422,4.9e-05,0.01,-0.31,9.8,30.39
100653565,0.001774,-0.000226,4.9e-05,-0.02,-0.3,9.81,30.38
100654580,-0.000357,0.000839,0.001114,0.02,-0.31,9.81,30.36
100655586,-0.001422,0.000839,0.00218,0.05,-0.36,9.84,30.4
100656617,-0.001422,0.001905,0.001114,0.06,-0.36,9.83,30.42
100657615,-0.000357,0.001905,-0.001016,0.06,-0.31,9.85,30.42
100658619,-0.000357,0.00297,-0.002081,0.01,-0.32,9.82,30.4
100659630,-0.001422,0.00297,4.9e-05,0.0,-0.33,9.78,30.39
100660644,-0.000357,0.001905,0.003245,0.04,-0.35,9.79,30.38
100661658,0.000708,-0.000226,0.003245,0.04,-0.33,9.79,30.38
100662667,0.000708,-0.000226,0.001114,0.04,-0.31,9.8,30.39
100663674,-0.001422,-0.000226,-0.001016,0.03,-0.32,9.84,30.38
100664685,-0.003553,0.001905,-0.002081,0.01,-0.31,9.84,30.37
100665689,-0.002487,0.001905,-0.003147,0.04,-0.33,9.78,30.38
100666714,-0.002487,0.000839,-0.002081,0.05,-0.33,9.78,30.39
100667721,-0.002487,-0.001291,0.001114,0.03,-0.3,9.82,30.4
100668725,-0.001422,-0.002357,0.00218,0.04,-0.29,9.82,30.42
100669741,0.000708,-0.002357,0.001114,0.05,-0.31,9.85,30.4
100670747,0.000708,-0.001291,0.001114,0.04,-0.33,9.88,30.37
100671760,0.000708,-0.000226,0.001114,0.03,-0.32,9.86,30.39
100672765,0.001774,-0.000226,4.9e-05,0.01,-0.33,9.8,30.41
100673774,0.001774,0.000839,4.9e-05,0.04,-0.33,9.8,30.39
100674784,0.002839,0.000839,4.9e-05,0.06,-0.29,9.84,30.4
100675794,-0.000357,-0.000226,-0.001016,0.04,-0.26,9.83,30.41
100676809,-0.002487,-0.002357,0.001114,0.02,-0.29,9.82,30.42
100677806,-0.001422,-0.001291,0.00218,-0.02,-0.29,9.83,30.38
100678815,0.001774,0.000839,0.00218,-0.01,-0.31,9.82,30.35
100679829,0.003904,0.000839,4.9e-05,0.0,-0.36,9.79,30.37
100680839,0.002839,-0.001291,-0.002081,0.03,-0.33,9.83,30.37
100681852,0.000708,-0.002357,-0.001016,0.03,-0.3,9.86,30.38
100682857,0.000708,-0.000226,-0.001016,0.0,-0.34,9.87,30.37
100683865,0.002839,0.001905,4.9e-05,-0.02,-0.36,9.84,30.37
100684875,0.000708,0.0051,4.9e-05,-0.01,-0.34,9.82,30.36
100685933,-0.000357,0.0051,4.9e-05,0.02,-0.35,9.83,30.38
100686904,-0.002487,0.00297,-0.001016,0.05,-0.35,9.8,30.41
100687905,-0.003553,-0.001291,4.9e-05,0.04,-0.3,9.79,30.39
100688915,-0.001422,-0.003422,0.001114,0.02,-0.3,9.82,30.4
100689925,0.001774,-0.002357,-0.001016,0.02,-0.35,9.79,30.42
100690935,0.003904,-0.000226,-0.002081,0.03,-0.32,9.79,30.4
100691965,0.001769,-0.000219,-0.002089,0.04,-0.28,9.82,30.42
100692953,0.001769,-0.001284,4.1e-05,0.04,-0.3,9.81,30.42
100693965,0.001769,-0.001284,0.003237,0.04,-0.31,9.78,30.41
100694975,0.000703,-0.000219,0.002172,0.0,-0.28,9.76,30.43
100695985,0.000703,0.001912,0.001107,0.01,-0.29,9.78,30.4
100697003,0.000703,0.002977,4.1e-05,0.07,-0.31,9.79,30.38
100698007,-0.000362,0.001912,0.001107,0.08,-0.31,9.78,30.38
100699015,-0.000362,-0.000219,4.1e-05,0.04,-0.35,9.85,30.39
100700025,-0.000362,-0.001284,0.001107,0.01,-0.34,9.9,30.4
100701035,-0.000362,-0.001284,0.002172,0.03,-0.34,9.86,30.41
100702045,-0.000362,-0.001284,0.002172,0.07,-0.36,9.82,30.4
100703058,-0.000362,-0.002349,4.1e-05,0.05,-0.32,9.8,30.38
100704065,-0.000362,-0.001284,-0.001024,0.03,-0.32,9.79,30.37
100705075,-0.001427,-0.000219,-0.001024,0.03,-0.31,9.79,30.39
100706085,-0.000362,0.000846,0.001107,0.04,-0.32,9.82,30.41
100707103,0.000703,0.000846,4.1e-05,0.06,-0.35,9.84,30.37
100708108,0.000703,-0.000219,-0.001024,0.02,-0.34,9.78,30.38
100709115,-0.000362,-0.002349,-0.002089,0.0,-0.32,9.79,30.36
100710125,-0.001427,-0.001284,-0.001024,0.0,-0.33,9.84,30.39
100711135,0.000703,0.000846,0.001107,0.02,-0.35,9.81,30.38
100712145,0.001769,-0.000219,0.002172,0.05,-0.32,9.82,30.37
100713156,0.001769,-0.001284,0.001107,0.05,-0.33,9.81,30.37
100714165,0.000703,-0.003415,-0.001024,0.03,-0.34,9.84,30.4
100715175,-0.000362,-0.00448,-0.002089,-0.01,-0.34,9.83,30.43
100716185,0.000703,-0.003415,-0.002089,-0.01,-0.34,9.82,30.4
100717203,0.001769,-0.000219,-0.002089,0.02,-0.33,9.89,30.41
100718206,0.000703,0.000846,-0.002089,0.03,-0.34,9.9,30.38
100719215,-0.000362,0.000846,4.1e-05,0.05,-0.33,9.87,30.4
100720225,0.000703,-0.000219,0.001107,0.06,-0.3,9.82,30.36
100721235,0.001769,-0.001284,0.002172,0.04,-0.33,9.82,30.38
100722245,0.002834,-0.00448,4.1e-05,0.02,-0.36,9.86,30.41
100723258,0.001769,-0.005545,-0.001024,0.03,-0.34,9.88,30.4
100724265,0.002834,-0.002349,4.1e-05,0.0,-0.3,9.81,30.42
100725275,0.002834,-0.001284,4.1e-05,-0.01,-0.32,9.8,30.42
100726293,0.000703,-0.000219,0.001107,0.03,-0.35,9.82,30.41
100727295,-0.001427,0.000846,4.1e-05,0.04,-0.36,9.82,30.34
100728308,-0.000362,-0.000219,-0.003155,0.05,-0.34,9.82,30.36
100729315,0.000703,-0.000219,-0.003155,0.04,-0.31,9.81,30.37
100730325,0.001769,0.001912,-0.001024,0.05,-0.3,9.79,30.35
100731335,0.001769,0.004042,-0.001024,0.04,-0.33,9.81,30.36
100732345,-0.001427,0.000846,-0.001024,0.04,-0.32,9.84,30.4
100733356,-0.002493,0.000846,0.001107,0.04,-0.32,9.87,30.41
100734365,-0.002493,0.001912,4.1e-05,0.04,-0.32,9.89,30.42
100735375,-0.000362,0.000846,-0.001024,0.03,-0.31,9.88,30.41
100736393,0.002834,0.000846,-0.001024,0.04,-0.31,9.85,30.4
100737395,0.001769,-0.000219,-0.001024,0.02,-0.32,9.84,30.42
100738410,0.000703,-0.002349,4.1e-05,0.0,-0.33,9.79,30.39
100739409,-0.000362,-0.003415,-0.001024,0.03,-0.31,9.81,30.37
100740419,-0.000362,-0.00448,-0.001024,0.01,-0.31,9.85,30.37
100741435,-0.000362,-0.00448,0.001107,0.01,-0.32,9.82,30.36
100742445,0.000703,-0.002349,0.003237,0.02,-0.33,9.8,30.37
100743458,0.001769,-0.000219,0.002172,0.01,-0.3,9.82,30.36
100744465,0.001769,-0.000219,4.1e-05,0.03,-0.31,9.82,30.4
100745475,-0.000362,-0.001284,0.001107,0.05,-0.32,9.85,30.41
100746494,-0.002493,-0.000219,0.001107,0.06,-0.29,9.85,30.4
100747495,-0.003558,0.000846,4.1e-05,0.05,-0.3,9.86,30.4
100748512,-0.005688,0.001912,-0.001024,0.04,-0.31,9.83,30.44
100749515,-0.004623,0.001912,4.1e-05,0.01,-0.3,9.8,30.4
100750525,-0.001427,-0.000219,0.002172,0.01,-0.34,9.84,30.38
100751535,0.001769,-0.001284,0.002172,0.01,-0.37,9.85,30.39
100752545,0.001769,-0.001284,0.001107,0.04,-0.35,9.82,30.4
100753556,-0.000362,-0.001284,4.1e-05,0.02,-0.34,9.81,30.37
100754565,-0.001427,-0.003415,4.1e-05,-0.03,-0.31,9.8,30.38
100755582,-0.002493,-0.003415,0.001107,0.0,-0.29,9.83,30.39
100756599,-0.003558,-0.003415,0.001107,0.04,-0.33,9.85,30.37
100757602,-0.002493,-0.002349,0.001107,0.01,-0.34,9.82,30.41
100758623,-0.000362,-0.002349,0.001107,0.01,-0.32,9.79,30.4
100759622,-0.000362,-0.003415,-0.001024,0.02,-0.31,9.81,30.38
100760634,-0.000362,-0.001284,-0.002089,0.05,-0.29,9.83,30.39
100761647,0.000703,-0.000219,-0.001024,0.05,-0.31,9.81,30.34
100762659,0.000703,-0.000219,4.1e-05,0.03,-0.32,9.81,30.35
100763672,0.000703,0.000846,4.1e-05,0.01,-0.31,9.82,30.39
100764677,0.000703,0.004042,0.001107,0.04,-0.32,9.83,30.37
100765685,0.000703,0.004042,0.001107,0.04,-0.33,9.85,30.35
100766709,0.000703,0.001912,4.1e-05,0.03,-0.31,9.85,30.39
100767696,0.001769,0.000846,4.1e-05,0.04,-0.32,9.82,30.38
100768733,0.001769,-0.000219,-0.001024,0.03,-0.35,9.79,30.37
100769730,-0.000362,-0.000219,4.1e-05,0.01,-0.35,9.82,30.4
100770737,-0.001427,0.000846,0.001107,0.0,-0.34,9.88,30.39
100771743,-0.000362,0.000846,4.1e-05,0.01,-0.33,9.91,30.41
100772759,-0.001427,0.000846,0.001107,0.04,-0.3,9.84,30.4
