time_us,gyro_x_rad_s,gyro_y_rad_s,gyro_z_rad_s,acc_x_m_s2,acc_y_m_s2,acc_z_m_s2,temperature_c
470746902,0.002202,0.000271,0.005737,0.01,-0.28,9.89,35.33
470747752,7.1e-05,-0.000794,0.003607,0.02,-0.3,9.87,35.37
470748764,-0.000994,-0.001859,0.001476,0.04,-0.31,9.82,35.37
470749769,-0.000994,-0.000794,-0.000655,0.02,-0.29,9.8,35.39
470750777,7.1e-05,0.001337,-0.004916,0.02,-0.28,9.82,35.35
470751786,-0.000994,0.001337,-0.004916,0.01,-0.31,9.85,35.34
470752796,-0.000994,-0.000794,-0.002785,0.0,-0.32,9.86,35.36
470753755,7.1e-05,-0.001859,-0.00172,0.02,-0.31,9.82,35.34
470754764,7.1e-05,0.000271,-0.002785,0.01,-0.29,9.8,35.33
470755779,0.001136,0.000271,-0.00172,0.02,-0.3,9.78,35.36
470756784,0.003267,0.000271,-0.000655,0.02,-0.33,9.78,35.35
470757795,0.002202,0.002402,-0.000655,0.0,-0.3,9.79,35.34
470758762,7.1e-05,0.002402,-0.000655,-0.01,-0.28,9.82,35.34
470759762,7.1e-05,0.002402,-0.000655,0.02,-0.27,9.83,35.33
470760773,7.1e-05,0.002402,-0.000655,0.02,-0.25,9.8,35.33
470761785,-0.000994,0.001337,-0.00172,0.02,-0.25,9.8,35.31
470762793,-0.000994,-0.000794,-0.00172,0.04,-0.27,9.83,35.33
470763750,0.001136,-0.002924,0.000411,0.05,-0.3,9.84,35.35
470764762,0.003267,-0.00399,0.002541,0.06,-0.32,9.85,35.33
470765770,0.003267,-0.001859,0.002541,0.05,-0.31,9.84,35.35
470766782,0.001136,0.001337,0.002541,0.02,-0.31,9.81,35.34
470767790,-0.000994,0.000271,0.000411,0.0,-0.33,9.8,35.36
470768809,-0.003125,-0.001859,-0.00172,0.01,-0.3,9.81,35.34
470769758,-0.003125,-0.001859,-0.00172,0.01,-0.3,9.81,35.34
470770767,-0.002059,0.001337,-0.002785,0.03,-0.3,9.79,35.34
470771807,0.001136,0.001337,0.000411,0.01,-0.29,9.79,35.31
470772789,0.002202,0.001337,0.003607,0.01,-0.3,9.78,35.33
470773798,0.001136,0.000271,0.003607,0.04,-0.3,9.82,35.34
470774807,-0.000994,-0.001859,-0.000655,0.04,-0.29,9.85,35.35
470775818,-0.002059,-0.001859,-0.00385,0.04,-0.27,9.82,35.39
470776827,-0.000994,-0.000794,-0.00385,0.02,-0.29,9.79,35.39
470777841,-0.002059,0.000271,0.001476,0.0,-0.31,9.79,35.36
470778855,7.1e-05,0.001337,0.002541,0.02,-0.26,9.83,35.36
470779858,0.002202,0.002402,0.000411,-0.01,-0.27,9.88,35.33
470780867,7.1e-05,0.002402,-0.000655,-0.02,-0.3,9.87,35.32
470781878,-0.002059,-0.000794,0.001476,0.02,-0.28,9.81,35.35
470782890,-0.003125,-0.001859,0.003607,0.05,-0.29,9.79,35.35
470783898,-0.002059,0.000271,0.002541,0.03,-0.3,9.83,35.38
470784907,7.1e-05,0.000271,0.000411,0.02,-0.33,9.87,35.34
470785917,7.1e-05,-0.002924,-0.000655,0.03,-0.3,9.84,35.34
470786928,7.1e-05,-0.002924,0.000411,0.04,-0.29,9.79,35.37
470787938,7.1e-05,-0.000794,0.001476,0.01,-0.3,9.78,35.36
470788957,7.1e-05,-0.000794,0.001476,0.01,-0.3,9.77,35.33
470789960,7.1e-05,-0.000794,0.002541,0.05,-0.3,9.78,35.32
470790974,7.1e-05,0.000271,0.002541,0.04,-0.26,9.82,35.33
470791987,7.1e-05,0.002402,0.001476,0.05,-0.27,9.82,35.35
470792997,7.1e-05,0.002402,-0.000655,0.05,-0.31,9.82,35.39
470794005,7.1e-05,-0.001859,-0.00172,0.02,-0.3,9.86,35.38
470795019,7.1e-05,-0.005055,-0.000655,0.04,-0.28,9.86,35.34
470796025,0.001136,-0.00399,0.000411,0.02,-0.27,9.83,35.34
470797035,7.1e-05,-0.000794,0.000411,0.0,-0.27,9.82,35.32
470798054,-0.002059,0.002402,0.000411,0.02,-0.28,9.85,35.32
470799067,-0.000994,0.000271,0.002541,0.05,-0.27,9.85,35.3
470800076,7.1e-05,-0.001859,0.002541,0.05,-0.28,9.77,35.32
470801080,7.1e-05,0.000271,0.003607,0.03,-0.3,9.78,35.37
470802094,-0.002059,0.001337,0.002541,0.02,-0.28,9.8,35.38
470803104,-0.002059,0.000271,0.001476,0.01,-0.29,9.82,35.33
470804112,-0.000994,0.000271,-0.000655,0.02,-0.31,9.84,35.35
470805115,7.1e-05,-0.000794,0.000411,0.03,-0.31,9.81,35.36
470806133,0.001136,0.000271,0.001476,0.03,-0.3,9.85,35.37
470807140,0.001136,0.001337,0.000411,0.03,-0.28,9.82,35.38
470808151,7.1e-05,-0.001859,0.001476,0.03,-0.26,9.8,35.42
470809165,7.1e-05,-0.000794,0.001476,0.02,-0.27,9.84,35.38
470810175,0.001136,0.002402,0.002541,0.0,-0.25,9.89,35.36
470811170,0.002202,0.002402,0.001476,0.0,-0.28,9.89,35.34
470812184,7.1e-05,0.000271,-0.00172,0.01,-0.31,9.81,35.33
470813194,-0.002059,-0.000794,-0.002785,0.04,-0.28,9.8,35.37
470814205,-0.00419,-0.001859,-0.00385,0.03,-0.3,9.84,35.34
470815213,-0.002059,-0.001859,-0.00385,-0.01,-0.32,9.83,35.36
470816219,-0.000994,-0.000794,-0.002785,-0.02,-0.3,9.82,35.34
470817230,-0.002059,0.000271,-0.00172,-0.02,-0.28,9.86,35.33
470818270,-0.004171,0.001319,0.000363,0.0,-0.29,9.9,35.3
470819260,-0.004171,0.000254,0.002494,0.04,-0.31,9.87,35.33
470820271,-0.00204,-0.002942,0.002494,0.04,-0.31,9.81,35.34
470821268,-0.00204,-0.005073,0.001429,0.03,-0.28,9.82,35.35
470822278,-0.003105,-0.005073,0.000363,0.02,-0.28,9.81,35.36
470823291,-0.00204,-0.002942,-0.000702,-0.01,-0.28,9.85,35.35
470824297,-0.000975,-0.001877,0.000363,-0.02,-0.27,9.87,35.34
470825308,-0.000975,-0.000811,0.002494,0.0,-0.3,9.83,35.35
470826317,-0.000975,0.001319,0.001429,-0.01,-0.32,9.8,35.32
470827328,0.001156,0.001319,0.000363,-0.01,-0.32,9.78,35.31
470828337,0.002221,-0.000811,-0.000702,0.02,-0.35,9.84,35.33
470829357,0.002221,-0.000811,-0.001767,0.04,-0.35,9.86,35.33
470830374,0.001156,0.000254,0.000363,0.04,-0.34,9.8,35.34
470831371,9.1e-05,0.000254,0.001429,0.01,-0.33,9.8,35.36
470832379,-0.000975,-0.000811,0.002494,0.02,-0.29,9.82,35.36
470833392,-0.000975,-0.000811,0.000363,0.05,-0.28,9.83,35.29
470834399,0.001156,0.000254,-0.002833,0.03,-0.32,9.82,35.31
470835411,0.001156,0.001319,-0.001767,0.0,-0.31,9.82,35.33
470836419,0.001156,0.002384,-0.000702,-0.01,-0.31,9.85,35.36
470837431,0.001156,0.001319,-0.000702,-0.01,-0.33,9.86,35.37
470838442,0.002221,0.000254,0.000363,0.02,-0.29,9.82,35.32
470839458,0.001156,0.001319,0.001429,0.01,-0.29,9.81,35.35
470840471,-0.00204,0.000254,0.001429,0.0,-0.29,9.82,35.34
470841468,-0.000975,-0.001877,0.000363,0.04,-0.27,9.83,35.35
470842477,0.001156,-0.001877,-0.000702,0.07,-0.3,9.81,35.36
470843491,0.001156,-0.000811,-0.000702,0.04,-0.3,9.8,35.35
470844497,-0.000975,0.000254,-0.001767,0.02,-0.26,9.81,35.35
470845508,-0.003105,0.001319,-0.000702,0.03,-0.26,9.79,35.31
470846517,-0.003105,0.001319,0.000363,0.03,-0.26,9.8,35.33
470847528,-0.00204,0.002384,0.000363,0.03,-0.27,9.79,35.34
470848537,-0.00204,0.002384,0.000363,0.05,-0.31,9.82,35.32
470849557,-0.000975,0.001319,0.001429,0.02,-0.31,9.84,35.33
470850574,-0.000975,0.000254,0.002494,0.0,-0.29,9.84,35.34
470851571,-0.003105,0.001319,0.002494,0.02,-0.3,9.78,35.34
470852579,-0.003105,0.002384,-0.000702,0.02,-0.28,9.77,35.31
470853592,-0.00204,0.002384,-0.002833,0.02,-0.26,9.78,35.36
470854599,9.1e-05,0.001319,-0.002833,-0.01,-0.29,9.82,35.36
470855611,9.1e-05,0.000254,-0.001767,-0.01,-0.28,9.83,35.37
470856619,9.1e-05,0.001319,0.000363,0.03,-0.31,9.79,35.34
470857631,0.001156,0.002384,0.000363,0.04,-0.32,9.8,35.36
470858693,0.001156,0.00345,-0.001767,0.03,-0.32,9.78,35.3
470859710,0.001156,0.002384,-0.001767,0.03,-0.33,9.76,35.28
470860681,0.001156,-0.000811,0.000363,0.03,-0.32,9.8,35.3
470861668,0.001156,-0.001877,0.000363,0.04,-0.33,9.81,35.35
470862679,9.1e-05,-0.001877,0.000363,0.06,-0.31,9.79,35.37
470863691,-0.004171,-0.001877,0.001429,0.04,-0.27,9.83,35.33
470864699,-0.005236,-0.000811,0.002494,0.04,-0.29,9.85,35.33
470865708,-0.003105,0.002384,0.002494,0.02,-0.33,9.83,35.34
470866719,-0.000975,0.00345,0.002494,0.0,-0.3,9.84,35.37
470867728,-0.000975,0.002384,0.003559,0.03,-0.28,9.83,35.36
470868749,-0.003105,0.002384,0.002494,0.03,-0.29,9.84,35.33
470869749,-0.003105,0.000254,0.000363,0.01,-0.3,9.8,35.32
470870776,-0.00204,-0.001877,-0.000702,0.0,-0.28,9.77,35.3
470871769,9.1e-05,-0.002942,-0.000702,0.03,-0.26,9.85,35.34
470872781,-0.00204,-0.002942,0.001429,0.04,-0.28,9.8,35.32
470873793,-0.003105,-0.005073,0.002494,0.03,-0.3,9.82,35.32
470874801,-0.004171,-0.002942,-0.001767,-0.01,-0.3,9.84,35.34
470875812,-0.003105,-0.000811,-0.003898,-0.02,-0.34,9.79,35.33
470876821,-0.00204,-0.000811,-0.002833,-0.01,-0.31,9.82,35.36
470877832,9.1e-05,-0.000811,-0.000702,0.02,-0.28,9.89,35.33
470878855,0.002221,0.000254,0.000363,0.0,-0.28,9.83,35.31
470879864,0.002221,-0.000811,0.001429,-0.02,-0.29,9.82,35.31
470880922,9.1e-05,-0.004007,0.000363,0.02,-0.29,9.85,35.34
470881869,0.001156,-0.004007,-0.000702,0.02,-0.28,9.87,35.36
470882878,0.001156,-0.001877,-0.000702,0.0,-0.29,9.86,35.35
470883889,0.001156,-0.001877,-0.000702,0.0,-0.28,9.79,35.34
470884898,9.1e-05,-0.002942,-0.000702,-0.01,-0.3,9.75,35.35
470885909,-0.000975,-0.000811,0.001429,0.0,-0.28,9.8,35.34
470886918,-0.00204,0.000254,-0.000702,0.01,-0.27,9.83,35.33
470887929,9.1e-05,-0.000811,-0.002833,0.03,-0.28,9.84,35.33
470888951,0.002221,-0.000811,-0.000702,0.02,-0.31,9.86,35.32
470889969,0.002221,0.001319,0.001429,0.02,-0.33,9.83,35.31
470890964,9.1e-05,0.00345,0.000363,0.01,-0.31,9.79,35.31
470891979,-0.000975,0.001319,-0.000702,0.02,-0.28,9.79,35.33
470892987,-0.000975,-0.000811,-0.000702,0.03,-0.27,9.81,35.35
470894002,9.1e-05,-0.001877,0.000363,-0.01,-0.3,9.8,35.33
470895007,-0.00204,0.000254,0.001429,0.0,-0.3,9.78,35.28
470896019,-0.000975,0.002384,0.001429,0.03,-0.28,9.83,35.31
470897030,-0.000975,0.002384,0.002494,0.02,-0.28,9.88,35.33
470898039,-0.000975,0.000254,0.001429,0.01,-0.31,9.85,35.33
470899064,-0.000975,-0.001877,0.001429,0.0,-0.33,9.81,35.34
470900103,0.001156,-0.000811,0.002494,0.02,-0.32,9.82,35.37
470901068,0.001156,0.000254,0.003559,0.06,-0.32,9.8,35.37
470902084,-0.000975,-0.000811,0.001429,0.04,-0.35,9.8,35.33
470903094,-0.000975,0.000254,-0.000702,0.04,-0.34,9.84,35.36
470904104,9.1e-05,0.001319,0.000363,0.05,-0.29,9.84,35.32
470905108,9.1e-05,0.001319,0.000363,0.03,-0.28,9.81,35.33
470906119,-0.000975,-0.000811,0.000363,0.03,-0.3,9.82,35.34
470907134,-0.00204,-0.001877,0.001429,0.04,-0.31,9.83,35.35
470908140,-0.003105,0.000254,0.001429,0.04,-0.33,9.81,35.33
470909158,-0.00204,0.001319,0.000363,0.05,-0.34,9.82,35.32
470910172,9.1e-05,0.002384,-0.000702,0.0,-0.29,9.81,35.31
470911162,0.001156,0.000254,-0.002833,0.02,-0.28,9.82,35.31
470912172,0.001156,-0.001877,-0.003898,0.06,-0.31,9.81,35.34
470913184,0.001156,-0.001877,-0.001767,0.03,-0.32,9.8,35.29
470914196,0.002221,-0.000811,0.000363,0.03,-0.29,9.78,35.33
470915205,0.001156,-0.000811,0.002494,0.02,-0.3,9.79,35.33
470916215,-0.000975,0.000254,0.001429,0.01,-0.32,9.79,35.33
470917223,-0.000975,0.002384,0.001429,0.05,-0.35,9.73,35.3
470918232,-0.000975,0.004515,0.001429,0.04,-0.35,9.78,35.35
470919255,-0.00204,0.001319,0.001429,0.0,-0.31,9.85,35.38
470920264,-0.000975,-0.002942,0.000363,0.03,-0.29,9.85,35.37
470921258,9.1e-05,-0.001877,-0.000702,0.02,-0.29,9.86,35.39
470922269,-0.000975,0.001319,-0.001767,0.0,-0.28,9.8,35.36
470923278,-0.00204,0.002384,-0.002833,0.02,-0.28,9.75,35.34
470924288,-0.000975,0.000254,-0.002833,0.03,-0.3,9.82,35.35
470925298,9.1e-05,0.000254,-0.000702,0.04,-0.31,9.83,35.32
470926309,0.002221,0.000254,0.001429,0.04,-0.33,9.81,35.33
470927318,0.001156,0.001319,0.002494,0.02,-0.32,9.78,35.3
470928329,0.001156,0.002384,0.001429,0.02,-0.31,9.79,35.32
470929350,-0.000975,0.00345,0.000363,0.04,-0.27,9.81,35.34
470930366,-0.003105,0.000254,-0.001767,0.04,-0.26,9.78,35.34
470931361,-0.005236,-0.001877,-0.000702,0.03,-0.29,9.82,35.33
470932372,-0.006301,-0.002942,0.002494,0.02,-0.31,9.83,35.33
470933381,-0.005236,-0.000811,0.000363,0.01,-0.32,9.85,35.34
470934393,-0.00204,-0.000811,-0.000702,0.01,-0.3,9.86,35.34
470935399,0.001156,-0.001877,-0.000702,0.01,-0.28,9.85,35.31
470936409,0.001156,-0.002942,0.000363,0.01,-0.27,9.84,35.33
470937421,0.002221,-0.002942,0.000363,0.0,-0.29,9.84,35.32
470938432,0.002221,0.000254,0.000363,-0.01,-0.32,9.84,35.36
470939455,0.001156,0.000254,-0.000702,0.02,-0.3,9.79,35.36
470940464,9.1e-05,-0.001877,-0.002833,0.04,-0.28,9.81,35.36
470941459,-0.000975,-0.001877,0.000363,0.04,-0.27,9.84,35.39
470942468,-0.003105,0.000254,0.002494,0.04,-0.3,9.83,35.36
470943479,-0.003105,0.002384,0.001429,0.03,-0.33,9.84,35.35
470944488,-0.00204,0.002384,-0.000702,0.02,-0.32,9.8,35.32
470945499,9.1e-05,0.002384,-0.000702,0.04,-0.3,9.8,35.36
470946508,9.1e-05,0.001319,-0.000702,0.03,-0.32,9.81,35.36
470947549,0.001234,-0.000801,0.00034,0.01,-0.33,9.81,35.34
470948531,0.001234,-0.000801,0.00034,0.01,-0.31,9.83,35.33
470949549,0.000169,0.00133,0.001405,0.02,-0.3,9.82,35.34
470950565,0.000169,-0.000801,0.001405,0.04,-0.3,9.83,35.37
470951562,0.001234,-0.003997,0.003535,0.03,-0.29,9.83,35.33
470952571,0.002299,-0.003997,0.003535,0.03,-0.28,9.83,35.33
470953582,0.003365,-0.002932,0.001405,0.02,-0.29,9.78,35.34
470954592,0.001234,-0.001866,0.00034,0.02,-0.28,9.77,35.32
470955602,-0.001962,-0.002932,0.00034,0.04,-0.25,9.78,35.31
470956611,-0.001962,-0.002932,-0.000726,0.01,-0.28,9.76,35.37
470957622,0.000169,0.000264,0.00034,0.01,-0.32,9.76,35.38
470958631,0.001234,0.002395,0.00034,0.01,-0.3,9.76,35.38
470959653,0.001234,0.004525,-0.000726,-0.01,-0.31,9.79,35.33
470960664,0.001234,0.004525,-0.001791,0.02,-0.3,9.81,35.32
470961658,0.000169,0.002395,-0.000726,0.04,-0.3,9.78,35.33
470962668,-0.001962,-0.000801,0.001405,0.03,-0.3,9.8,35.36
470963678,-0.001962,0.000264,0.001405,0.04,-0.29,9.85,35.36
470964689,0.000169,0.000264,-0.000726,0.04,-0.28,9.83,35.35
470965698,0.000169,-0.000801,-0.000726,0.02,-0.3,9.81,35.34
470966709,0.000169,-0.001866,0.001405,0.04,-0.32,9.78,35.33
470967718,0.001234,-0.001866,0.001405,0.05,-0.32,9.76,35.33
470968738,0.000169,-0.000801,-0.000726,0.03,-0.31,9.78,35.35
470969742,-0.000896,0.000264,-0.000726,0.02,-0.28,9.78,35.34
470970748,0.002299,0.000264,0.00034,0.04,-0.28,9.82,35.3
470971759,0.003365,0.000264,0.00034,0.02,-0.29,9.84,35.29
470972768,-0.000896,0.000264,-0.001791,0.0,-0.3,9.78,35.35
470973778,-0.000896,0.00133,-0.000726,0.02,-0.32,9.83,35.37
470974791,0.000169,0.00133,0.001405,0.04,-0.33,9.86,35.37
470975798,0.002299,-0.000801,0.00247,0.01,-0.33,9.81,35.31
470976809,0.002299,-0.002932,0.001405,0.0,-0.31,9.84,35.32
470977818,0.001234,-0.001866,-0.000726,0.06,-0.29,9.82,35.35
470978836,0.000169,-0.000801,-0.002856,0.07,-0.32,9.78,35.36
470979842,-0.000896,0.00133,-0.001791,0.03,-0.31,9.82,35.36
470980848,-0.001962,0.000264,-0.000726,0.01,-0.3,9.82,35.34
470981859,-0.000896,-0.000801,0.001405,0.03,-0.31,9.79,35.32
470982868,0.001234,-0.000801,0.001405,0.03,-0.3,9.84,35.33
470983879,0.001234,-0.000801,0.00247,0.03,-0.29,9.84,35.34
470984888,-0.000896,-0.000801,0.00247,0.01,-0.32,9.8,35.3
470985899,0.000169,0.000264,-0.000726,0.02,-0.32,9.8,35.34
470986908,0.001234,0.000264,-0.001791,0.04,-0.29,9.82,35.33
470987919,0.001234,0.00133,0.00034,0.03,-0.28,9.81,35.32
470988940,0.002299,0.00133,0.001405,0.04,-0.29,9.8,35.33
470989944,0.002299,-0.001866,0.001405,0.0,-0.3,9.82,35.35
470990951,0.001234,0.000264,0.001405,0.01,-0.3,9.8,35.38
470991961,0.000169,0.00346,0.00034,0.01,-0.32,9.81,35.36
470992979,0.000169,0.002395,-0.000726,0.01,-0.33,9.8,35.37
470993988,0.001234,0.000264,-0.000726,0.04,-0.29,9.8,35.36
470994999,0.001234,0.000264,0.00034,0.01,-0.3,9.87,35.32
470996006,0.000169,-0.000801,-0.000726,-0.02,-0.35,9.85,35.3
470997020,-0.000896,-0.002932,-0.001791,0.02,-0.35,9.76,35.34
470998024,0.000169,-0.002932,-0.000726,0.07,-0.31,9.77,35.33
470999049,0.001234,-0.001866,-0.001791,0.07,-0.29,9.83,35.34
471000062,0.003365,0.000264,-0.004987,0.05,-0.29,9.82,35.35
471001061,0.00443,0.00133,-0.004987,0.02,-0.27,9.81,35.34
471002069,0.00443,0.00133,-0.002856,0.02,-0.26,9.83,35.35
471003083,0.003365,-0.000801,0.00034,0.03,-0.28,9.86,35.34
471004088,0.001234,-0.001866,0.001405,0.04,-0.33,9.84,35.33
471005106,-0.000896,-0.000801,-0.000726,0.04,-0.36,9.79,35.32
471006112,0.000169,-0.000801,-0.000726,0.02,-0.34,9.84,35.3
471007125,0.001234,0.000264,0.00034,0.0,-0.31,9.87,35.33
471008129,0.001234,0.000264,0.001405,-0.01,-0.28,9.8,35.33
471009148,-0.003027,-0.000801,0.00034,-0.01,-0.3,9.79,35.36
471010147,-0.005158,0.000264,-0.002856,-0.03,-0.3,9.83,35.36
471011158,-0.005158,0.000264,-0.004987,-0.03,-0.29,9.79,35.35
471012160,-0.003027,0.000264,-0.003922,0.0,-0.34,9.76,35.32
471013170,-0.000896,0.00133,-0.000726,0.01,-0.32,9.79,35.35
471014181,0.001234,0.00133,0.001405,0.02,-0.3,9.85,35.35
471015194,0.002299,0.000264,-0.000726,0.0,-0.3,9.87,35.35
471016203,0.00443,0.00133,-0.000726,0.01,-0.32,9.85,35.32
471017213,0.001234,0.000264,0.00034,0.04,-0.33,9.84,35.36
471018220,-0.000896,0.000264,-0.000726,0.0,-0.31,9.83,35.35
471019236,0.000169,0.00133,-0.001791,-0.02,-0.31,9.81,35.35
471020242,0.001234,0.002395,-0.003922,-0.03,-0.3,9.82,35.35
471021248,0.002299,0.002395,-0.001791,-0.03,-0.29,9.85,35.34
471022259,0.00443,0.00133,0.00034,0.01,-0.32,9.82,35.37
471023268,0.003365,0.002395,-0.000726,0.04,-0.33,9.83,35.36
471024279,-0.000896,0.00133,-0.000726,0.04,-0.29,9.86,35.36
471025288,-0.003027,-0.000801,-0.001791,0.04,-0.3,9.86,35.31
471026299,-0.000896,0.000264,-0.001791,0.0,-0.33,9.79,35.29
471027308,0.001234,0.00133,-0.000726,-0.01,-0.33,9.78,35.32
471028319,0.000169,0.000264,0.00034,0.03,-0.31,9.77,35.36
471029338,-0.001962,-0.001866,0.00034,-0.01,-0.3,9.78,35.32
471030341,-0.001962,-0.002932,0.001405,-0.02,-0.28,9.88,35.31
471031349,0.000169,-0.002932,0.00247,0.03,-0.28,9.86,35.32
471032358,0.002299,-0.000801,0.00247,0.04,-0.31,9.83,35.31
471033369,0.001234,0.00133,0.001405,0.02,-0.32,9.84,35.3
471034378,-0.003027,0.002395,0.00034,0.04,-0.3,9.8,35.29
471035391,-0.004092,-0.000801,-0.001791,0.04,-0.31,9.81,35.28
471036398,-0.000896,-0.001866,-0.000726,0.04,-0.33,9.87,35.32
471037409,0.000169,-0.001866,-0.000726,0.05,-0.3,9.84,35.35
471038418,-0.000896,-0.000801,0.00034,0.03,-0.29,9.83,35.36
471039436,-0.003027,0.000264,-0.000726,0.02,-0.29,9.82,35.36
471040442,-0.001962,0.000264,-0.000726,0.03,-0.28,9.8,35.32
471041448,0.000169,0.000264,0.00034,0.04,-0.29,9.83,35.3
471042459,0.000169,0.000264,0.001405,0.06,-0.28,9.84,35.31
471043468,0.001234,0.000264,0.001405,0.04,-0.28,9.79,35.37
471044479,0.000169,0.002395,0.00034,0.03,-0.31,9.8,35.38
471045488,-0.001962,0.00133,-0.001791,0.04,-0.32,9.87,35.32
471046499,-0.001962,0.000264,-0.002856,0.05,-0.3,9.88,35.35
471047508,-0.000896,-0.000801,-0.002856,0.06,-0.33,9.87,35.34
471048519,0.002299,-0.001866,-0.001791,0.03,-0.34,9.85,35.37
471049538,0.00443,0.000264,0.001405,0.02,-0.3,9.79,35.38
471050541,0.002299,0.002395,0.00247,0.05,-0.3,9.79,35.36
471051549,0.002299,0.00133,0.00247,0.02,-0.32,9.83,35.32
471052558,0.001234,0.00133,0.001405,-0.02,-0.31,9.82,35.31
471053569,0.002299,0.000264,0.001405,0.0,-0.29,9.88,35.3
471054578,0.001234,-0.000801,0.00034,0.01,-0.29,9.87,35.29
471055591,0.001234,-0.000801,-0.001791,0.0,-0.3,9.8,35.31
471056598,0.000169,-0.000801,-0.001791,0.03,-0.3,9.8,35.35
471057608,-0.001962,-0.000801,0.00034,0.04,-0.3,9.83,35.39
471058618,-0.004092,0.000264,-0.000726,0.03,-0.32,9.85,35.37
471059638,-0.004092,0.00133,-0.001791,0.03,-0.33,9.84,35.36
471060641,-0.004092,0.000264,-0.002856,0.03,-0.3,9.78,35.37
471061649,-0.000896,-0.001866,-0.002856,0.01,-0.29,9.82,35.36
471062658,-0.000896,-0.000801,-0.002856,-0.01,-0.29,9.86,35.33
471063669,0.001234,0.00133,-0.001791,-0.01,-0.29,9.76,35.32
471064678,0.002299,-0.000801,-0.002856,-0.03,-0.3,9.75,35.33
471065689,-0.000896,-0.001866,-0.002856,-0.02,-0.3,9.81,35.32
471066698,-0.003027,-0.000801,-0.001791,0.01,-0.3,9.84,35.32
471067709,-0.000896,-0.000801,0.00034,0.01,-0.32,9.82,35.36
471068729,0.003365,-0.002932,0.00247,0.04,-0.31,9.78,35.36
471069728,0.005495,-0.000801,0.00247,0.03,-0.28,9.82,35.34
471070742,0.002299,0.00133,0.001405,0.02,-0.29,9.81,35.33
471071749,0.000169,0.000264,0.001405,0.01,-0.32,9.78,35.33
471072758,-0.000896,-0.002932,0.00247,0.01,-0.31,9.78,35.34
471073769,-0.000896,-0.003997,0.001405,0.01,-0.29,9.8,35.32
471074778,0.002299,-0.003997,-0.001791,0.01,-0.3,9.76,35.32
471075791,0.000169,-0.003997,-0.002856,0.02,-0.28,9.82,35.31
471076826,-0.000933,-0.00397,-0.002824,0.03,-0.3,9.85,35.32
471077812,-0.001998,0.000292,-0.001759,0.03,-0.32,9.78,35.34
471078828,-0.000933,0.003487,0.001437,0.04,-0.34,9.74,35.37
471079829,0.001198,0.003487,0.003568,0.04,-0.33,9.79,35.34
471080841,0.001198,0.003487,0.002502,0.02,-0.3,9.82,35.31
471081849,0.000132,0.001357,-0.001759,0.02,-0.28,9.82,35.31
471082858,-0.000933,-0.000774,-0.004955,0.04,-0.28,9.83,35.34
471083869,-0.001998,-0.000774,-0.002824,0.01,-0.29,9.81,35.37
471084878,-0.003063,-0.000774,-0.000693,-0.01,-0.32,9.81,35.36
471085888,-0.001998,0.000292,0.000372,0.01,-0.31,9.82,35.35
471086899,-0.000933,-0.000774,0.001437,0.04,-0.29,9.82,35.37
471087909,0.000132,-0.000774,0.000372,0.06,-0.3,9.79,35.36
471088929,0.001198,-0.000774,0.000372,0.05,-0.31,9.8,35.36
471089928,0.003328,0.001357,0.000372,0.03,-0.31,9.8,35.36
471090945,0.002263,0.001357,-0.001759,0.01,-0.25,9.78,35.32
471091951,0.001198,0.000292,-0.002824,0.02,-0.26,9.79,35.33
471092964,0.001198,-0.001839,-0.002824,0.03,-0.3,9.81,35.33
471093974,0.001198,-0.001839,-0.000693,0.02,-0.3,9.83,35.36
471094989,0.000132,-0.001839,0.001437,0.01,-0.27,9.86,35.37
471095995,0.000132,-0.001839,0.001437,0.02,-0.27,9.84,35.38
471097009,0.001198,-0.001839,-0.000693,0.01,-0.31,9.86,35.36
471098022,0.001198,-0.000774,-0.000693,0.0,-0.31,9.88,35.38
471099037,0.002263,0.000292,-0.000693,0.0,-0.31,9.84,35.36
471100035,0.004394,0.000292,-0.001759,0.03,-0.33,9.85,35.36
471101050,0.002263,-0.002904,0.000372,0.03,-0.32,9.83,35.34
471102065,0.002263,-0.002904,0.002502,0.01,-0.31,9.79,35.28
471103065,0.001198,-0.001839,0.001437,0.04,-0.31,9.82,35.31
471104088,0.001198,0.001357,0.001437,0.05,-0.29,9.86,35.33
471105088,0.000132,0.002422,0.002502,0.02,-0.34,9.82,35.38
471106106,-0.000933,0.002422,0.001437,0.0,-0.32,9.76,35.36
471107120,0.001198,0.002422,-0.000693,0.01,-0.27,9.8,35.33
471108120,0.003328,0.003487,-0.003889,0.03,-0.28,9.86,35.35
471109136,0.002263,0.003487,-0.001759,0.02,-0.29,9.88,35.33
471110141,-0.001998,0.001357,-0.000693,-0.01,-0.27,9.82,35.3
471111148,-0.001998,0.000292,0.000372,-0.03,-0.28,9.74,35.33
471112156,0.000132,-0.00397,0.000372,-0.01,-0.32,9.79,35.32
471113161,0.002263,-0.00397,0.000372,0.01,-0.32,9.87,35.29
471114168,0.001198,-0.002904,0.000372,-0.01,-0.3,9.87,35.3
471115183,-0.000933,-0.000774,0.000372,-0.01,-0.28,9.8,35.33
471116193,-0.003063,0.000292,0.000372,-0.01,-0.28,9.79,35.33
471117204,-0.003063,0.000292,0.000372,0.0,-0.28,9.82,35.38
471118212,-0.001998,0.001357,-0.000693,0.0,-0.29,9.82,35.31
471119230,0.001198,0.003487,0.000372,0.01,-0.3,9.84,35.33
471120229,0.002263,0.003487,0.000372,0.02,-0.28,9.88,35.31
471121241,0.003328,0.001357,-0.001759,0.01,-0.28,9.88,35.33
471122249,0.003328,-0.000774,-0.001759,0.01,-0.31,9.82,35.36
471123258,0.002263,0.000292,-0.001759,0.02,-0.33,9.81,35.35
471124269,0.001198,0.000292,-0.000693,0.03,-0.29,9.86,35.33
471125278,0.000132,-0.001839,-0.001759,0.0,-0.28,9.79,35.31
471126289,-0.000933,-0.000774,-0.001759,-0.02,-0.31,9.77,35.32
471127298,-0.001998,0.002422,-0.001759,0.01,-0.3,9.85,35.35
471128309,-0.001998,0.000292,-0.001759,0.04,-0.31,9.86,35.36
471129329,0.000132,0.000292,-0.001759,0.02,-0.3,9.82,35.39
471130329,-0.001998,0.001357,-0.000693,0.04,-0.28,9.81,35.38
471131341,-0.001998,0.001357,0.001437,0.03,-0.3,9.8,35.4
471132348,0.000132,0.002422,0.000372,0.02,-0.3,9.79,35.39
471133359,-0.000933,0.003487,-0.000693,0.03,-0.28,9.83,35.34
471134368,-0.000933,0.001357,-0.000693,0.02,-0.29,9.88,35.36
471135379,-0.000933,0.000292,0.000372,0.03,-0.33,9.86,35.37
471136389,-0.003063,0.000292,-0.000693,0.0,-0.32,9.8,35.36
471137398,-0.003063,0.001357,-0.001759,-0.01,-0.29,9.81,35.31
471138409,-0.000933,0.000292,-0.000693,0.01,-0.3,9.84,35.31
471139429,0.000132,-0.000774,-0.000693,-0.01,-0.3,9.83,35.34
471140428,0.000132,-0.000774,-0.001759,0.02,-0.32,9.81,35.32
471141442,0.000132,-0.000774,-0.002824,0.02,-0.34,9.82,35.32
471142448,0.001198,-0.000774,-0.003889,0.0,-0.32,9.79,35.37
471143459,0.002263,-0.000774,-0.002824,0.01,-0.31,9.79,35.38
471144468,0.002263,-0.000774,-0.002824,0.01,-0.29,9.77,35.37
471145479,-0.000933,0.002422,-0.000693,0.0,-0.28,9.76,35.37
471146488,-0.003063,0.002422,0.000372,0.0,-0.3,9.83,35.36
471147499,-0.003063,-0.000774,0.000372,0.01,-0.31,9.86,35.37
471148508,-0.000933,-0.00397,0.001437,0.03,-0.28,9.82,35.35
471149528,0.000132,-0.001839,0.000372,0.01,-0.29,9.79,35.36
471150529,-0.001998,-0.000774,0.000372,0.0,-0.32,9.79,35.34
471151541,-0.001998,-0.001839,0.001437,0.03,-0.32,9.82,35.32
471152549,0.000132,-0.00397,0.001437,0.04,-0.29,9.86,35.35
471153558,0.001198,-0.002904,0.000372,0.04,-0.29,9.86,35.35
471154568,0.000132,0.000292,-0.000693,0.05,-0.31,9.88,35.34
471155579,-0.000933,0.001357,-0.000693,0.04,-0.31,9.85,35.32
471156589,-0.000933,0.001357,0.001437,0.03,-0.32,9.83,35.3
471157599,0.000132,-0.000774,0.003568,0.04,-0.29,9.81,35.35
471158608,0.001198,-0.001839,0.001437,0.05,-0.26,9.78,35.34
471159628,0.001198,-0.001839,-0.000693,0.03,-0.25,9.81,35.31
471160629,-0.000933,-0.001839,-0.000693,-0.01,-0.29,9.82,35.35
471161641,-0.000933,-0.000774,0.000372,-0.01,-0.31,9.85,35.35
471162649,-0.000933,-0.000774,0.000372,-0.01,-0.26,9.83,35.4
471163658,-0.001998,-0.000774,-0.000693,0.0,-0.23,9.81,35.39
471164669,-0.000933,-0.002904,-0.000693,0.0,-0.26,9.87,35.34
471165678,0.001198,-0.002904,0.000372,0.01,-0.28,9.85,35.3
471166689,0.002263,-0.000774,0.000372,0.04,-0.27,9.78,35.31
471167698,0.003328,-0.000774,-0.000693,0.06,-0.28,9.8,35.34
471168716,0.001198,-0.001839,-0.001759,0.05,-0.31,9.83,35.38
471169719,0.000132,-0.000774,-0.001759,0.03,-0.31,9.84,35.36
471170728,0.001198,0.000292,-0.000693,0.01,-0.28,9.79,35.36
471171742,0.001198,0.000292,0.001437,-0.01,-0.28,9.78,35.32
471172748,0.001198,-0.000774,0.001437,0.02,-0.31,9.82,35.33
471173759,0.000132,0.000292,0.000372,0.02,-0.34,9.83,35.36
471174769,-0.000933,0.003487,0.000372,0.01,-0.35,9.82,35.36
471175778,-0.000933,0.001357,-0.000693,-0.02,-0.32,9.82,35.32
471176791,-0.001998,0.000292,-0.000693,0.01,-0.29,9.83,35.32
471177798,-0.000933,-0.001839,0.001437,0.03,-0.28,9.82,35.34
471178816,0.001198,-0.001839,0.000372,0.01,-0.31,9.8,35.36
471179819,0.000132,-0.000774,-0.001759,-0.01,-0.3,9.79,35.37
471180828,0.000132,0.002422,-0.001759,-0.02,-0.29,9.79,35.32
471181842,-0.000933,0.003487,-0.000693,0.01,-0.3,9.78,35.33
471182848,0.000132,0.002422,-0.000693,0.04,-0.32,9.78,35.33
471183859,0.001198,0.002422,0.000372,0.02,-0.34,9.83,35.34
471184868,0.000132,0.000292,0.002502,0.0,-0.34,9.84,35.36
471185879,-0.000933,-0.000774,0.002502,0.0,-0.29,9.79,35.35
471186888,-0.000933,0.000292,-0.000693,0.01,-0.25,9.78,35.33
471187957,-0.000933,0.003487,-0.001759,0.02,-0.27,9.79,35.32
471188918,-0.000933,0.003487,0.001437,0.0,-0.29,9.82,35.3
471189918,0.001198,0.003487,0.002502,0.01,-0.3,9.83,35.29
471190929,0.001198,0.003487,0.002502,0.02,-0.31,9.81,35.32
471191944,0.000132,0.003487,0.001437,0.03,-0.3,9.82,35.34
471192951,-0.001998,0.002422,-0.000693,0.03,-0.29,9.77,35.33
471193961,-0.004129,0.000292,-0.001759,0.0,-0.31,9.75,35.31
471194979,-0.004129,-0.002904,-0.001759,-0.03,-0.3,9.83,35.33
471195988,-0.004129,-0.002904,-0.000693,0.01,-0.3,9.86,35.3
471196999,-0.003063,-0.000774,-0.000693,0.04,-0.31,9.86,35.29
471198006,-0.001998,0.000292,-0.000693,-0.01,-0.31,9.86,35.33
471199026,-0.000933,-0.000774,-0.000693,-0.02,-0.3,9.85,35.34
471200038,0.000132,-0.001839,-0.001759,0.03,-0.3,9.8,35.34
471201039,0.002263,-0.001839,-0.000693,0.04,-0.29,9.78,35.35
471202050,0.002263,-0.001839,0.000372,0.03,-0.28,9.82,35.34
471203064,0.000132,-0.001839,0.001437,0.0,-0.3,9.81,35.31
471204068,-0.000933,0.000292,0.000372,0.0,-0.3,9.78,35.33
471205086,0.000132,0.003487,-0.000693,0.04,-0.29,9.8,35.34
471206117,0.000141,0.004538,-0.001727,0.05,-0.29,9.86,35.33
471207111,0.000141,0.001342,-0.002793,0.06,-0.28,9.8,35.32
471208112,0.000141,-0.000789,-0.002793,0.03,-0.27,9.77,35.33
471209126,0.000141,0.000277,-0.000662,0.02,-0.28,9.81,35.32
471210131,0.000141,0.002407,0.001468,0.03,-0.29,9.76,35.3
471211138,-0.00199,0.002407,0.002534,-0.01,-0.31,9.77,35.33
471212147,-0.003055,0.001342,0.003599,0.0,-0.31,9.79,35.35
471213155,-0.004121,0.000277,0.001468,0.02,-0.26,9.79,35.35
471214161,-0.003055,-0.001854,-0.000662,0.01,-0.28,9.83,35.35
471215168,0.000141,-0.003985,-0.001727,0.02,-0.32,9.86,35.33
471216183,0.002271,-0.002919,-0.001727,0.04,-0.32,9.84,35.33
471217194,0.000141,-0.000789,-0.001727,0.04,-0.3,9.79,35.31
471218203,-0.00199,0.001342,0.000403,0.03,-0.29,9.79,35.36
471219220,-0.003055,0.002407,0.001468,0.02,-0.29,9.78,35.33
471220222,-0.00199,0.001342,0.002534,0.03,-0.28,9.83,35.34
471221228,0.000141,0.001342,0.001468,0.04,-0.3,9.82,35.36
471222242,0.000141,-0.000789,0.000403,0.03,-0.3,9.82,35.34
471223248,-0.000925,-0.001854,0.000403,0.02,-0.29,9.85,35.34
471224259,-0.00199,-0.001854,0.000403,0.03,-0.3,9.82,35.31
471225268,-0.00199,-0.000789,0.001468,0.0,-0.3,9.79,35.32
471226278,-0.000925,0.000277,0.002534,-0.02,-0.31,9.78,35.34
471227288,0.001206,0.002407,-0.000662,0.0,-0.28,9.8,35.36
471228299,0.000141,0.003472,-0.001727,0.02,-0.27,9.84,35.36
471229318,0.000141,0.003472,0.000403,0.02,-0.27,9.81,35.37
471230318,0.000141,-0.000789,0.001468,0.0,-0.27,9.77,35.34
471231329,0.001206,-0.002919,-0.000662,0.01,-0.27,9.82,35.36
471232341,0.000141,-0.001854,-0.001727,-0.01,-0.28,9.82,35.41
471233349,-0.003055,0.001342,-0.000662,-0.01,-0.32,9.81,35.36
471234358,-0.004121,0.003472,0.001468,0.03,-0.33,9.82,35.33
471235369,-0.000925,0.002407,0.001468,0.01,-0.3,9.81,35.32
471236378,0.001206,0.002407,0.000403,-0.01,-0.31,9.82,35.33
471237391,-0.000925,0.001342,-0.000662,-0.02,-0.31,9.83,35.36
471238398,-0.00199,0.000277,-0.002793,0.01,-0.27,9.85,35.37
471239416,-0.000925,-0.000789,-0.002793,0.05,-0.28,9.85,35.35
471240419,0.000141,0.000277,-0.001727,0.04,-0.31,9.79,35.38
471241428,-0.000925,-0.000789,0.000403,0.0,-0.31,9.8,35.4
471242441,-0.00199,-0.000789,0.000403,0.0,-0.31,9.81,35.36
471243449,-0.00199,0.000277,-0.000662,0.01,-0.3,9.83,35.36
471244458,-0.00199,0.001342,-0.001727,0.03,-0.27,9.87,35.36
471245469,-0.00199,0.001342,-0.001727,0.02,-0.26,9.83,35.33
471246478,0.000141,0.001342,-0.000662,0.02,-0.29,9.8,35.33
471247489,0.001206,-0.000789,0.000403,0.04,-0.29,9.79,35.33
471248498,0.000141,-0.002919,0.002534,0.04,-0.28,9.81,35.35
471249516,0.001206,-0.001854,0.002534,0.05,-0.28,9.84,35.34
471250519,0.001206,-0.000789,0.002534,0.05,-0.28,9.81,35.35
471251528,0.001206,-0.000789,-0.000662,0.01,-0.29,9.82,35.33
471252542,0.000141,0.001342,-0.002793,0.0,-0.29,9.81,35.34
471253548,-0.000925,0.001342,-0.000662,0.03,-0.3,9.77,35.35
471254559,0.000141,0.001342,0.000403,0.03,-0.3,9.82,35.33
471255568,0.004402,-0.000789,0.000403,0.05,-0.29,9.86,35.33
471256579,0.005467,-0.002919,0.000403,0.04,-0.28,9.82,35.32
471257589,0.004402,-0.000789,0.001468,0.03,-0.27,9.82,35.3
471258599,0.002271,0.002407,0.000403,0.03,-0.25,9.79,35.3
471259618,0.002271,0.003472,-0.000662,0.0,-0.26,9.79,35.37
471260618,0.003336,0.001342,0.000403,-0.02,-0.28,9.86,35.37
471261629,0.004402,-0.001854,0.002534,-0.04,-0.28,9.83,35.36
471262641,0.003336,-0.002919,0.002534,-0.02,-0.29,9.8,35.33
471263649,0.003336,-0.003985,0.003599,-0.01,-0.32,9.78,35.33
471264658,0.004402,-0.001854,0.003599,-0.02,-0.29,9.77,35.31
471265669,0.001206,-0.000789,0.001468,0.0,-0.27,9.84,35.31
471266678,-0.003055,-0.000789,-0.000662,0.02,-0.28,9.84,35.32
471267689,-0.003055,0.000277,0.000403,0.04,-0.3,9.81,35.32
471268709,-0.000925,0.001342,-0.001727,0.04,-0.3,9.81,35.35
471269708,0.001206,-0.000789,-0.002793,0.02,-0.3,9.76,35.36
471270719,0.001206,-0.002919,-0.001727,0.02,-0.3,9.76,35.36
471271729,0.000141,-0.003985,-0.000662,0.04,-0.31,9.82,35.38
471272741,-0.000925,-0.001854,-0.000662,0.04,-0.33,9.81,35.33
471273749,-0.000925,-0.001854,-0.001727,0.03,-0.3,9.8,35.34
471274758,-0.00199,-0.001854,-0.002793,0.04,-0.27,9.86,35.34
471275769,-0.00199,-0.000789,-0.001727,0.05,-0.27,9.81,35.37
471276778,0.000141,0.001342,-0.001727,0.0,-0.28,9.82,35.34
471277791,0.001206,0.001342,-0.000662,0.0,-0.29,9.83,35.33
471278809,0.000141,0.002407,-0.000662,-0.01,-0.32,9.83,35.33
471279808,-0.000925,0.004538,-0.000662,0.02,-0.32,9.86,35.33
471280819,-0.00199,0.002407,-0.000662,0.02,-0.31,9.86,35.33
471281828,-0.00199,0.000277,-0.000662,0.0,-0.29,9.84,35.37
471282842,-0.00199,-0.001854,0.001468,0.02,-0.28,9.82,35.36
471283878,-0.00199,-0.003985,0.000403,0.04,-0.28,9.85,35.36
471284858,-0.00199,-0.002919,0.000403,0.0,-0.27,9.82,35.36
471285869,-0.000925,0.000277,0.002534,0.04,-0.25,9.77,35.34
471286878,0.000141,0.001342,0.004664,0.08,-0.26,9.84,35.33
471287889,-0.000925,-0.000789,0.003599,0.02,-0.28,9.84,35.3
471288909,-0.000925,-0.001854,0.000403,0.01,-0.28,9.85,35.34
471289908,0.000141,-0.000789,-0.000662,0.04,-0.25,9.85,35.34
471290919,0.000141,-0.000789,-0.001727,0.04,-0.26,9.82,35.33
471291928,0.001206,-0.002919,-0.001727,0.03,-0.31,9.82,35.34
471292946,0.003336,-0.003985,-0.001727,0.03,-0.32,9.8,35.33
471293951,0.003336,-0.001854,-0.001727,0.03,-0.32,9.81,35.31
471294964,0.002271,0.000277,-0.000662,0.03,-0.35,9.84,35.33
471295974,0.001206,0.002407,-0.001727,0.01,-0.31,9.86,35.35
471296989,-0.003055,0.002407,-0.001727,-0.02,-0.28,9.86,35.35
471297995,-0.006251,0.001342,-0.001727,-0.03,-0.29,9.84,35.34
471299017,-0.006251,0.001342,-0.002793,-0.02,-0.29,9.83,35.35
471300032,-0.003055,0.001342,-0.001727,0.02,-0.28,9.83,35.36
471301029,-0.00199,0.000277,-0.000662,0.02,-0.29,9.84,35.33
471302039,0.000141,0.000277,0.001468,0.01,-0.29,9.86,35.27
471303051,0.000141,0.000277,0.001468,0.01,-0.31,9.85,35.26
471304062,0.000141,-0.000789,0.002534,0.02,-0.32,9.81,35.32
471305066,0.002271,-0.002919,0.002534,0.05,-0.29,9.78,35.32
471306083,0.001206,-0.006115,0.002534,0.03,-0.28,9.81,35.36
471307099,0.000141,-0.003985,0.002534,0.01,-0.27,9.81,35.34
471308100,0.001206,-0.000789,0.001468,0.0,-0.27,9.79,35.35
471309115,0.002271,0.001342,0.000403,-0.01,-0.28,9.81,35.34
471310120,0.001206,0.000277,-0.000662,-0.01,-0.27,9.82,35.34
471311130,-0.000925,-0.000789,0.000403,0.02,-0.28,9.8,35.33
471312140,-0.004121,-0.000789,0.000403,0.02,-0.3,9.76,35.33
471313148,-0.005186,0.002407,0.001468,0.02,-0.31,9.78,35.34
471314157,-0.00199,0.002407,0.001468,0.05,-0.33,9.82,35.33
471315161,0.001206,0.000277,0.001468,0.03,-0.32,9.81,35.34
471316168,0.003336,-0.001854,0.001468,0.03,-0.3,9.76,35.32
471317183,0.002271,-0.00505,0.001468,0.04,-0.34,9.76,35.34
471318193,0.001206,-0.00505,0.002534,0.01,-0.34,9.78,35.36
471319212,-0.000925,-0.001854,0.002534,-0.02,-0.34,9.78,35.39
471320213,-0.00199,-0.000789,0.002534,-0.01,-0.32,9.83,35.38
471321220,-0.000925,0.000277,0.002534,0.01,-0.28,9.85,35.38
471322229,0.000141,-0.000789,-0.000662,0.02,-0.28,9.81,35.34
471323241,0.001206,-0.001854,-0.000662,0.03,-0.28,9.78,35.33
471324249,0.001206,-0.002919,0.001468,0.03,-0.29,9.76,35.33
471325259,-0.00199,-0.002919,0.001468,0.04,-0.31,9.77,35.33
471326268,-0.003055,-0.002919,0.001468,0.02,-0.29,9.82,35.38
471327279,-0.00199,-0.000789,0.000403,0.03,-0.25,9.81,35.36
471328288,0.000141,0.001342,0.000403,0.05,-0.27,9.82,35.36
471329308,0.002271,0.001342,-0.001727,0.03,-0.29,9.85,35.37
471330309,0.001206,0.001342,-0.001727,-0.01,-0.29,9.81,35.36
471331318,0.001206,0.001342,-0.001727,0.0,-0.3,9.8,35.31
471332329,0.002271,0.000277,-0.000662,0.02,-0.32,9.81,35.29
471333342,0.002271,0.000277,-0.000662,0.04,-0.29,9.79,35.33
471334349,0.002271,-0.000789,-0.001727,0.06,-0.28,9.81,35.36
471335386,0.001222,-0.001817,-0.001745,0.02,-0.31,9.83,35.34
471336372,-0.000909,-0.002882,0.000386,0.01,-0.29,9.8,35.36
471337378,-0.000909,-0.003948,0.001451,0.05,-0.3,9.83,35.36
471338391,0.000157,-0.002882,0.000386,0.04,-0.3,9.84,35.36
471339409,0.000157,-0.000752,-0.001745,0.02,-0.32,9.76,35.35
471340408,0.000157,-0.000752,-0.001745,0.02,-0.31,9.74,35.36
471341419,0.000157,-0.000752,-0.001745,0.02,-0.27,9.81,35.37
471342428,-0.000909,0.000313,-0.00068,0.02,-0.28,9.79,35.36
471343442,-0.001974,0.004574,-0.001745,0.03,-0.27,9.8,35.33
471344448,-0.001974,0.003509,-0.001745,0.02,-0.25,9.82,35.33
471345459,-0.001974,0.001379,0.000386,-0.02,-0.27,9.76,35.34
471346468,-0.000909,0.001379,0.000386,0.0,-0.28,9.74,35.33
471347479,-0.000909,0.002444,-0.001745,0.01,-0.3,9.79,35.33
471348488,-0.001974,0.002444,-0.00068,-0.03,-0.31,9.82,35.34
471349508,-0.001974,0.002444,0.000386,-0.01,-0.3,9.84,35.36
471350509,-0.000909,0.001379,0.000386,0.02,-0.29,9.82,35.35
471351518,0.000157,0.001379,0.001451,0.03,-0.28,9.83,35.34
471352529,0.000157,0.001379,0.001451,0.03,-0.3,9.87,35.36
471353541,-0.000909,0.000313,0.003582,0.01,-0.34,9.83,35.35
471354549,-0.000909,-0.000752,0.003582,0.01,-0.32,9.81,35.35
471355558,0.001222,-0.000752,0.001451,0.0,-0.29,9.83,35.34
471356569,0.002287,0.000313,-0.00281,0.02,-0.28,9.8,35.35
471357578,0.000157,0.002444,-0.004941,0.02,-0.29,9.8,35.35
471358591,-0.003039,0.001379,-0.00281,0.03,-0.31,9.83,35.36
471359608,-0.001974,-0.001817,0.000386,0.03,-0.29,9.83,35.33
471360608,0.001222,-0.002882,-0.00068,0.01,-0.29,9.82,35.34
471361618,0.001222,-0.000752,-0.001745,0.02,-0.29,9.84,35.35
471362628,-0.000909,0.001379,-0.00068,0.0,-0.29,9.86,35.32
471363692,-0.001974,0.003509,0.000386,-0.01,-0.29,9.82,35.35
471364678,-0.001974,0.003509,0.000386,-0.01,-0.29,9.82,35.36
471365657,-0.001974,0.002444,0.000386,0.0,-0.31,9.82,35.36
471366668,0.000157,0.000313,0.001451,0.04,-0.28,9.74,35.34
471367677,0.001222,0.000313,0.001451,0.04,-0.28,9.77,35.33
471368698,0.001222,0.001379,0.000386,0.03,-0.3,9.82,35.35
471369698,0.000157,-0.000752,-0.00068,0.0,-0.32,9.83,35.38
471370708,0.000157,-0.003948,-0.00068,0.0,-0.29,9.8,35.38
471371717,0.001222,-0.006078,-0.001745,0.02,-0.27,9.79,35.32
471372728,0.000157,-0.005013,0.000386,0.01,-0.32,9.83,35.36
471373738,-0.000909,-0.002882,0.002516,0.0,-0.33,9.8,35.37
471374747,-0.000909,-0.001817,0.002516,-0.01,-0.33,9.81,35.38
471375758,0.000157,-0.000752,0.003582,-0.01,-0.33,9.81,35.35
471376767,0.000157,-0.001817,0.003582,0.0,-0.31,9.78,35.34
471377778,-0.000909,-0.001817,-0.00281,0.02,-0.32,9.83,35.36
471378798,-0.001974,0.000313,-0.00281,0.04,-0.33,9.85,35.33
471379797,-0.001974,0.000313,-0.00068,0.04,-0.35,9.85,35.37
471380808,0.000157,-0.000752,0.000386,0.03,-0.33,9.87,35.36
471381817,0.002287,-0.001817,0.001451,0.02,-0.29,9.82,35.35
471382828,0.001222,-0.002882,0.001451,0.02,-0.31,9.79,35.36
471383840,-0.000909,-0.002882,0.002516,0.02,-0.33,9.82,35.36
471384848,-0.000909,-0.001817,0.000386,0.03,-0.3,9.78,35.35
471385857,-0.000909,0.000313,-0.00068,0.02,-0.3,9.78,35.32
471386868,-0.000909,0.001379,-0.00068,0.0,-0.29,9.81,35.31
471387877,0.000157,-0.000752,-0.00068,0.0,-0.29,9.77,35.32
471388895,-0.001974,-0.001817,-0.001745,-0.01,-0.3,9.75,35.36
471389898,-0.003039,-0.002882,-0.00068,0.02,-0.27,9.81,35.33
471390907,-0.003039,-0.001817,0.001451,0.03,-0.27,9.83,35.34
471391918,-0.001974,0.000313,0.002516,0.02,-0.28,9.81,35.35
471392982,-0.000909,0.001379,-0.00068,0.03,-0.29,9.81,35.36
471393947,-0.001974,0.002444,-0.003875,0.01,-0.28,9.8,35.34
471394952,-0.001974,0.001379,-0.00281,-0.01,-0.28,9.81,35.32
471395960,0.000157,-0.001817,0.000386,0.0,-0.32,9.79,35.34
471396974,0.002287,-0.002882,0.001451,0.0,-0.31,9.77,35.36
471397987,0.003353,-0.002882,0.000386,0.03,-0.26,9.81,35.33
471399006,0.001222,-0.000752,-0.001745,0.01,-0.26,9.81,35.35
471400012,-0.001974,-0.001817,-0.001745,-0.02,-0.29,9.8,35.33
471401019,-0.00517,-0.003948,-0.00068,-0.01,-0.29,9.82,35.32
471402025,-0.00517,-0.003948,0.000386,-0.01,-0.3,9.86,35.31
471403035,-0.001974,-0.001817,0.000386,0.04,-0.31,9.88,35.31
471404054,0.000157,-0.001817,0.000386,0.05,-0.32,9.84,35.35
471405062,0.001222,-0.000752,0.000386,0.0,-0.3,9.81,35.33
471406065,0.002287,0.002444,0.001451,0.01,-0.27,9.79,35.29
471407086,0.002287,0.003509,0.000386,0.02,-0.26,9.83,35.32
471408095,0.000157,0.001379,0.000386,0.03,-0.27,9.84,35.32
471409109,-0.000909,-0.000752,-0.00068,0.05,-0.27,9.78,35.35
471410110,-0.000909,0.001379,-0.00068,0.04,-0.27,9.79,35.34
471411116,-0.000909,0.003509,-0.00068,0.02,-0.29,9.83,35.36
471412131,-0.001974,0.002444,-0.001745,0.03,-0.31,9.81,35.32
471413138,-0.001974,0.000313,-0.001745,0.01,-0.31,9.78,35.32
471414154,-0.000909,-0.001817,0.000386,-0.02,-0.3,9.8,35.33
471415157,0.000157,-0.000752,-0.001745,0.0,-0.28,9.83,35.37
471416159,-0.001974,0.001379,-0.001745,0.02,-0.29,9.79,35.33
471417168,-0.003039,0.002444,-0.001745,0.02,-0.3,9.78,35.33
471418180,-0.001974,0.001379,-0.00068,0.04,-0.3,9.79,35.34
471419201,0.001222,-0.001817,0.000386,0.07,-0.31,9.81,35.31
471420201,0.001222,-0.001817,0.001451,0.04,-0.32,9.82,35.28
471421212,0.000157,0.000313,0.000386,0.02,-0.3,9.82,35.3
471422219,-0.000909,0.003509,0.000386,0.04,-0.31,9.81,35.33
471423228,-0.001974,0.00564,0.000386,0.04,-0.32,9.8,35.35
471424240,-0.003039,0.002444,0.001451,0.04,-0.3,9.84,35.36
471425248,-0.001974,0.000313,0.000386,0.04,-0.31,9.84,35.34
471426257,0.000157,-0.000752,-0.001745,0.05,-0.32,9.83,35.32
471427268,0.001222,-0.000752,-0.00068,0.05,-0.29,9.86,35.36
471428277,0.000157,-0.001817,0.000386,0.02,-0.29,9.84,35.35
471429295,-0.003039,-0.002882,-0.00068,0.02,-0.31,9.78,35.34
471430298,-0.00517,-0.002882,-0.001745,0.03,-0.31,9.8,35.31
471431307,-0.004104,-0.000752,-0.001745,0.0,-0.29,9.78,35.3
471432318,-0.000909,0.000313,-0.00281,0.02,-0.28,9.82,35.31
471433327,0.001222,0.000313,-0.00281,0.04,-0.3,9.86,35.3
471434341,0.002287,0.001379,-0.001745,0.04,-0.31,9.78,35.35
471435347,0.001222,0.002444,-0.00068,0.03,-0.31,9.77,35.35
471436358,-0.000909,0.003509,0.000386,0.03,-0.33,9.82,35.35
471437367,-0.003039,0.002444,0.002516,0.02,-0.32,9.83,35.32
471438378,-0.003039,0.002444,0.001451,0.01,-0.31,9.85,35.34
471439398,-0.003039,0.001379,0.000386,0.02,-0.3,9.86,35.33
471440397,-0.000909,-0.000752,-0.00068,-0.01,-0.3,9.85,35.31
471441408,-0.000909,-0.002882,-0.001745,-0.01,-0.29,9.87,35.3
471442417,-0.000909,-0.002882,-0.00068,0.01,-0.3,9.88,35.33
471443428,-0.001974,-0.002882,-0.00068,0.02,-0.3,9.86,35.32
471444440,-0.003039,0.000313,-0.00068,0.04,-0.32,9.84,35.31
471445448,-0.000909,0.002444,-0.00068,0.02,-0.3,9.86,35.34
471446457,0.001222,0.001379,-0.00068,0.02,-0.28,9.84,35.35
471447467,0.002287,-0.001817,-0.00068,0.03,-0.3,9.77,35.36
471448478,0.002287,-0.003948,-0.00068,0.0,-0.31,9.77,35.37
471449496,0.001222,-0.003948,-0.00068,0.0,-0.3,9.8,35.35
471450497,0.001222,-0.002882,0.000386,0.02,-0.28,9.82,35.36
471451507,-0.000909,-0.000752,-0.00068,0.0,-0.27,9.86,35.35
471452518,-0.003039,0.000313,-0.001745,0.01,-0.28,9.84,35.33
471453527,-0.004104,0.000313,-0.001745,0.02,-0.32,9.79,35.34
471454541,-0.001974,0.001379,-0.00068,0.02,-0.36,9.81,35.31
471455547,0.000157,0.002444,0.001451,0.01,-0.34,9.82,35.31
471456558,0.001222,0.002444,0.002516,0.01,-0.29,9.82,35.31
471457567,0.001222,0.001379,0.002516,0.01,-0.28,9.8,35.3
471458578,0.000157,0.000313,0.001451,0.03,-0.28,9.81,35.32
471459596,0.001222,-0.000752,-0.00068,0.02,-0.28,9.85,35.36
471460614,0.000157,0.000313,-0.00068,0.04,-0.3,9.83,35.37
471461611,-0.001974,0.000313,0.000386,0.02,-0.3,9.86,35.36
471462619,0.000157,0.001379,0.000386,0.03,-0.29,9.85,35.37
471463631,0.001222,0.001379,-0.00068,0.03,-0.28,9.77,35.34
471464673,0.002364,0.000326,-0.001721,0.01,-0.26,9.75,35.35
471465653,0.003429,-0.00074,-0.001721,0.02,-0.26,9.8,35.33
471466659,0.002364,-0.00074,-0.001721,0.04,-0.27,9.78,35.32
471467671,0.002364,0.000326,-0.001721,0.01,-0.26,9.73,35.32
471468690,0.002364,0.002456,-0.002786,0.0,-0.29,9.77,35.29
471469692,0.003429,0.004587,-0.002786,0.02,-0.31,9.84,35.3
471470711,0.001298,0.004587,-0.000656,0.03,-0.29,9.81,35.33
471471708,-0.000832,0.001391,-0.000656,0.04,-0.29,9.79,35.32
471472717,-0.000832,-0.00074,-0.001721,0.02,-0.3,9.84,35.28
471473728,0.000233,0.000326,-0.000656,0.03,-0.32,9.83,35.29
471474737,0.000233,0.001391,-0.000656,0.03,-0.29,9.83,35.32
471475748,-0.000832,0.001391,-0.001721,0.0,-0.28,9.85,35.33
471476757,-0.001898,0.003522,-0.000656,0.01,-0.3,9.82,35.35
471477768,-0.001898,0.002456,0.000409,0.04,-0.3,9.8,35.32
471478789,0.001298,0.000326,0.00254,0.04,-0.28,9.85,35.31
471479788,0.000233,0.000326,0.000409,0.0,-0.31,9.83,35.32
471480814,0.000233,0.000326,0.000409,-0.01,-0.34,9.8,35.32
471481811,0.000233,0.000326,0.000409,0.02,-0.32,9.78,35.35
471482819,-0.000832,0.001391,-0.000656,0.04,-0.34,9.84,35.36
471483831,-0.001898,0.000326,-0.001721,0.03,-0.35,9.82,35.35
471484842,-0.001898,-0.001805,-0.000656,0.02,-0.33,9.76,35.39
471485851,0.000233,-0.001805,-0.000656,0.03,-0.31,9.8,35.39
471486859,0.000233,-0.001805,-0.000656,0.02,-0.29,9.81,35.34
471487871,-0.000832,0.000326,-0.001721,-0.01,-0.29,9.81,35.37
471488890,-0.001898,0.002456,-0.002786,0.02,-0.31,9.82,35.36
471489905,-0.001898,0.002456,-0.000656,0.04,-0.29,9.81,35.33
471490897,-0.000832,0.001391,0.00254,0.03,-0.29,9.8,35.3
471491908,-0.000832,-0.00287,0.003605,0.02,-0.31,9.81,35.33
471492917,0.000233,-0.006066,0.001475,0.01,-0.32,9.81,35.36
471493928,-0.000832,-0.006066,0.00254,0.01,-0.32,9.78,35.37
471494957,0.000233,-0.003935,0.003605,-0.02,-0.27,9.79,35.34
471495953,-0.001898,-0.00287,0.003605,-0.03,-0.26,9.81,35.37
471496959,-0.001898,-0.00287,0.001475,-0.01,-0.32,9.8,35.36
471497976,-0.000832,-0.001805,-0.001721,0.01,-0.33,9.83,35.33
471498999,0.001298,-0.00074,-0.001721,0.04,-0.3,9.85,35.3
471500020,0.000233,-0.00074,0.000409,0.04,-0.27,9.82,35.32
471501007,0.000233,0.000326,0.000409,0.01,-0.26,9.84,35.35
471502020,0.000233,0.000326,-0.000656,0.02,-0.3,9.86,35.33
471503033,0.001298,0.000326,0.000409,-0.02,-0.31,9.84,35.32
471504043,0.001298,-0.00074,0.000409,-0.03,-0.28,9.82,35.33
471505051,0.000233,-0.00074,-0.000656,-0.01,-0.3,9.85,35.33
471506067,-0.000832,0.000326,-0.000656,-0.02,-0.3,9.86,35.33
471507078,-0.000832,0.001391,0.001475,0.0,-0.28,9.82,35.39
471508084,-0.000832,0.000326,0.001475,0.01,-0.3,9.8,35.36
471509100,0.000233,0.000326,0.001475,0.03,-0.3,9.78,35.33
471510116,-0.000832,0.000326,0.000409,0.06,-0.26,9.79,35.3
471511110,-0.002963,-0.00074,-0.000656,0.03,-0.29,9.82,35.36
471512116,-0.002963,-0.00074,-0.001721,-0.04,-0.33,9.82,35.4
471513128,-0.000832,0.001391,-0.001721,-0.03,-0.29,9.81,35.33
471514136,0.000233,0.001391,-0.000656,0.02,-0.3,9.82,35.29
471515147,0.000233,0.000326,-0.000656,0.04,-0.31,9.8,35.34
471516157,0.000233,-0.00074,0.000409,0.02,-0.29,9.8,35.38
471517160,-0.000832,-0.00074,-0.000656,0.0,-0.29,9.82,35.36
471518167,-0.000832,-0.001805,-0.001721,0.04,-0.31,9.8,35.32
471519192,-0.000832,0.000326,-0.000656,0.05,-0.31,9.79,35.32
471520211,0.000233,0.000326,0.001475,0.02,-0.3,9.83,35.32
471521204,-0.000832,-0.00287,0.00254,0.01,-0.31,9.82,35.3
471522214,-0.000832,-0.005001,0.00254,-0.01,-0.28,9.81,35.3
471523222,0.000233,-0.003935,0.00254,0.0,-0.26,9.82,35.33
471524230,0.000233,0.000326,0.00254,0.02,-0.29,9.85,35.32
471525242,0.000233,0.001391,0.001475,0.04,-0.3,9.86,35.33
471526251,0.000233,0.001391,0.000409,0.04,-0.32,9.81,35.36
471527258,-0.000832,0.001391,0.001475,0.01,-0.32,9.82,35.36
471528269,-0.000832,0.001391,0.001475,0.03,-0.3,9.84,35.38
471529289,-0.000832,0.000326,0.001475,0.04,-0.26,9.82,35.35
471530304,-0.001898,0.000326,0.00254,0.04,-0.28,9.81,35.31
471531298,0.000233,-0.00074,0.00254,0.03,-0.3,9.83,35.33
471532307,0.001298,0.000326,0.001475,-0.01,-0.27,9.84,35.32
471533318,0.000233,0.001391,0.000409,-0.01,-0.28,9.82,35.33
471534327,-0.001898,0.000326,0.000409,0.03,-0.3,9.78,35.33
471535338,-0.001898,-0.00074,-0.000656,0.02,-0.32,9.78,35.35
471536347,-0.001898,-0.00074,-0.001721,0.0,-0.33,9.84,35.35
471537358,-0.000832,-0.00287,-0.003852,-0.02,-0.3,9.88,35.33
471538367,0.000233,-0.001805,-0.002786,0.0,-0.32,9.86,35.33
471539388,0.000233,0.000326,0.000409,0.02,-0.31,9.84,35.31
471540405,0.000233,0.001391,0.00254,0.0,-0.28,9.82,35.32
471541401,-0.000832,0.002456,0.001475,0.0,-0.3,9.8,35.3
471542409,-0.001898,0.002456,0.000409,0.01,-0.31,9.79,35.34
471543421,-0.001898,0.003522,-0.002786,0.0,-0.29,9.84,35.32
471544429,-0.000832,0.004587,-0.002786,-0.02,-0.28,9.88,35.34
471545443,-0.000832,0.001391,-0.000656,-0.05,-0.3,9.79,35.35
471546449,0.000233,-0.00074,0.001475,-0.03,-0.29,9.75,35.33
471547461,0.001298,0.000326,0.000409,0.02,-0.3,9.78,35.33
471548469,0.003429,0.000326,0.000409,0.02,-0.34,9.78,35.36
471549489,0.004494,-0.001805,0.000409,0.02,-0.35,9.81,35.32
471550504,0.002364,-0.001805,-0.000656,0.01,-0.35,9.84,35.35
471551498,0.002364,0.000326,-0.000656,0.02,-0.33,9.86,35.36
471552507,0.000233,0.002456,-0.000656,-0.01,-0.29,9.82,35.36
471553518,0.000233,0.001391,0.000409,0.0,-0.28,9.8,35.35
471554527,0.001298,0.000326,0.000409,0.04,-0.31,9.81,35.35
471555538,0.003429,-0.00074,0.000409,-0.01,-0.29,9.79,35.33
471556547,0.002364,-0.001805,-0.001721,-0.03,-0.29,9.85,35.37
471557558,0.000233,0.000326,-0.002786,-0.02,-0.32,9.86,35.34
471558567,-0.000832,0.002456,-0.002786,0.0,-0.32,9.84,35.36
471559588,-0.001898,0.003522,-0.000656,0.02,-0.33,9.84,35.34
471560605,0.000233,0.001391,0.000409,-0.01,-0.3,9.87,35.32
471561601,0.000233,-0.00074,0.001475,-0.01,-0.28,9.87,35.28
471562609,0.000233,0.000326,0.001475,0.04,-0.32,9.8,35.34
471563621,0.001298,0.002456,0.000409,0.03,-0.35,9.78,35.33
471564629,0.000233,0.004587,-0.002786,0.02,-0.34,9.8,35.33
471565643,-0.000832,0.005652,-0.002786,0.03,-0.3,9.8,35.36
471566649,-0.000832,0.004587,-0.001721,0.03,-0.27,9.81,35.34
471567661,0.000233,0.004587,0.000409,0.03,-0.28,9.81,35.37
471568679,0.001298,0.004587,0.001475,0.01,-0.3,9.8,35.35
471569678,0.001298,0.002456,0.00254,-0.01,-0.28,9.82,35.36
471570705,-0.000832,0.001391,0.001475,0.01,-0.28,9.84,35.35
471571697,-0.000832,-0.00074,0.000409,-0.01,-0.29,9.78,35.33
471572708,-0.001898,-0.00287,-0.000656,-0.04,-0.33,9.75,35.34
471573717,-0.004028,-0.00287,-0.000656,0.01,-0.32,9.79,35.34
471574728,-0.001898,-0.00287,-0.000656,0.03,-0.27,9.83,35.35
471575737,-0.000832,-0.00287,0.000409,0.02,-0.3,9.81,35.34
471576748,-0.002963,-0.001805,0.001475,0.02,-0.33,9.86,35.37
471577757,-0.004028,0.000326,0.001475,-0.01,-0.3,9.89,35.37
471578776,-0.001898,-0.00074,-0.000656,0.0,-0.31,9.86,35.34
471579778,0.000233,-0.00287,-0.001721,0.01,-0.34,9.85,35.36
471580806,0.001298,0.000326,0.003605,0.08,-0.32,9.9,35.34
471581799,-0.000832,-0.001805,0.003605,0.03,-0.32,9.89,35.36
471582811,-0.001898,-0.00287,0.003605,0.02,-0.32,9.83,35.34
471583819,-0.000832,-0.001805,0.00254,0.02,-0.32,9.79,35.33
471584831,-0.000832,-0.00074,0.001475,0.0,-0.3,9.81,35.38
471585842,0.000233,0.000326,0.001475,0.0,-0.3,9.79,35.33
471586851,-0.000832,0.000326,0.00254,0.03,-0.29,9.83,35.34
471587859,-0.001898,-0.00074,0.003605,0.02,-0.29,9.82,35.35
471588878,-0.001898,0.000326,0.003605,0.03,-0.28,9.79,35.36
471589895,0.000233,0.001391,0.00254,0.04,-0.28,9.82,35.33
471590908,0.002364,-0.00074,0.00254,0.04,-0.31,9.81,35.31
471591901,0.001298,-0.00287,0.001475,0.04,-0.31,9.76,35.34
471592909,0.001298,-0.00287,0.001475,0.02,-0.32,9.78,35.36
471593952,0.000256,-0.005006,0.000377,0.01,-0.31,9.81,35.36
471594933,0.000256,-0.005006,0.000377,0.02,-0.28,9.81,35.36
471595944,0.000256,-0.00181,0.000377,0.02,-0.29,9.83,35.36
471596951,-0.00294,0.000321,0.002508,0.01,-0.32,9.84,35.35
471597969,-0.004005,0.000321,0.004638,0.01,-0.3,9.82,35.31
471598986,-0.001875,-0.00181,0.003573,0.04,-0.29,9.82,35.36
471600006,0.001321,-0.002875,0.001442,0.03,-0.3,9.81,35.35
471600994,0.002387,-0.002875,0.000377,0.0,-0.29,9.83,35.34
471602019,0.003452,-0.000745,0.000377,-0.01,-0.28,9.84,35.35
471603019,0.001321,0.000321,0.001442,0.0,-0.29,9.79,35.35
471604025,-0.001875,-0.000745,0.001442,0.01,-0.31,9.77,35.34
471605035,-0.00294,-0.000745,0.001442,0.02,-0.29,9.77,35.33
471606054,-0.000809,-0.000745,0.000377,0.04,-0.27,9.83,35.37
471607068,0.001321,0.001386,-0.000688,0.02,-0.29,9.84,35.39
471608064,0.001321,0.001386,-0.000688,-0.01,-0.33,9.82,35.35
471609088,0.000256,-0.00181,0.000377,0.0,-0.33,9.84,35.36
471610112,0.001321,-0.003941,0.000377,0.01,-0.32,9.8,35.36
471611107,0.001321,-0.00181,-0.000688,0.01,-0.32,9.79,35.33
471612113,-0.000809,0.001386,-0.001753,0.04,-0.33,9.81,35.33
471613120,-0.00294,0.002451,-0.001753,0.05,-0.29,9.8,35.37
471614133,-0.00294,0.002451,-0.000688,0.04,-0.29,9.78,35.35
471615141,-0.00294,-0.000745,0.002508,0.04,-0.32,9.74,35.31
471616152,-0.001875,-0.003941,0.003573,0.01,-0.29,9.76,35.34
471617159,-0.000809,-0.003941,0.001442,0.02,-0.25,9.78,35.35
471618161,-0.000809,-0.002875,-0.001753,0.04,-0.28,9.78,35.35
471619179,-0.001875,-0.00181,-0.004949,0.01,-0.29,9.8,35.36
471620192,0.000256,-0.00181,-0.003884,0.03,-0.27,9.82,35.34
471621194,0.003452,-0.000745,0.000377,0.04,-0.27,9.86,35.34
471622205,0.005582,-0.000745,0.001442,0.02,-0.28,9.87,35.37
471623213,0.003452,-0.000745,0.000377,0.03,-0.3,9.83,35.32
471624223,0.001321,-0.000745,0.000377,0.01,-0.3,9.81,35.32
471625229,-0.000809,0.001386,0.000377,0.01,-0.29,9.84,35.36
471626243,-0.000809,-0.000745,0.001442,0.03,-0.31,9.84,35.35
471627249,-0.000809,-0.002875,0.000377,0.02,-0.31,9.8,35.33
471628261,-0.001875,-0.00181,-0.001753,0.01,-0.29,9.82,35.36
471629279,-0.00294,-0.00181,-0.000688,-0.01,-0.29,9.84,35.33
471630279,-0.000809,-0.00181,0.000377,-0.01,-0.32,9.84,35.31
471631293,-0.000809,-0.00181,0.000377,0.02,-0.31,9.84,35.3
471632299,-0.001875,0.000321,0.001442,0.0,-0.28,9.85,35.31
471633311,-0.001875,0.001386,0.001442,0.0,-0.29,9.85,35.29
471634319,0.001321,0.001386,-0.000688,0.06,-0.26,9.8,35.3
471635331,0.001321,0.001386,-0.002819,0.04,-0.26,9.78,35.31
471636339,0.001321,0.002451,-0.001753,0.01,-0.27,9.81,35.32
471637351,0.002387,0.002451,-0.000688,0.02,-0.27,9.83,35.33
471638359,0.002387,0.001386,-0.001753,0.01,-0.31,9.88,35.32
471639378,0.001321,0.000321,0.001442,0.0,-0.32,9.91,35.35
471640381,-0.000809,0.001386,0.003573,-0.02,-0.32,9.85,35.35
471641391,0.000256,-0.000745,0.002508,-0.01,-0.31,9.81,35.34
471642401,0.001321,-0.003941,-0.000688,0.03,-0.31,9.82,35.34
471643409,0.003452,-0.005006,-0.000688,0.01,-0.33,9.79,35.34
471644421,0.004517,-0.003941,-0.000688,-0.03,-0.33,9.8,35.34
471645429,0.004517,-0.00181,-0.001753,-0.01,-0.32,9.82,35.34
471646443,0.003452,-0.00181,-0.001753,0.01,-0.31,9.8,35.34
471647449,0.002387,0.000321,-0.001753,0.01,-0.31,9.81,35.35
471648461,0.003452,0.001386,-0.000688,-0.02,-0.29,9.79,35.34
471649479,0.005582,0.001386,0.000377,-0.01,-0.3,9.76,35.35
471650479,0.003452,-0.000745,0.000377,0.0,-0.31,9.83,35.35
471651493,0.001321,-0.00181,-0.000688,0.01,-0.3,9.87,35.35
471652499,-0.000809,-0.00181,-0.001753,0.03,-0.29,9.82,35.35
471653511,-0.00294,-0.00181,-0.000688,0.01,-0.3,9.78,35.36
471654519,0.000256,0.000321,-0.000688,0.01,-0.29,9.82,35.34
471655531,0.001321,0.002451,-0.002819,-0.01,-0.3,9.83,35.37
471656539,0.001321,0.001386,-0.003884,-0.02,-0.34,9.79,35.36
471657551,0.001321,0.001386,-0.002819,0.0,-0.34,9.77,35.36
471658559,0.001321,0.000321,-0.001753,0.02,-0.32,9.79,35.35
471659578,0.002387,-0.00181,0.001442,0.0,-0.3,9.81,35.35
471660581,0.001321,-0.000745,0.002508,0.03,-0.3,9.8,35.32
471661591,-0.001875,0.002451,0.004638,0.04,-0.31,9.82,35.32
471662601,-0.004005,0.003516,0.004638,0.02,-0.32,9.79,35.34
471663609,-0.00294,0.004582,0.002508,0.03,-0.29,9.78,35.34
471664621,-0.001875,0.001386,0.002508,0.04,-0.28,9.82,35.35
471665629,-0.00294,-0.00181,0.003573,0.03,-0.28,9.84,35.31
471666643,-0.00294,-0.002875,0.002508,0.03,-0.28,9.84,35.33
471667649,-0.001875,-0.000745,0.001442,0.06,-0.31,9.83,35.35
471668669,-0.000809,0.002451,-0.001753,0.02,-0.32,9.83,35.35
471669671,-0.001875,0.004582,-0.003884,0.0,-0.32,9.83,35.35
471670679,-0.001875,0.001386,-0.003884,0.01,-0.29,9.83,35.34
471671693,-0.000809,-0.000745,-0.003884,0.01,-0.27,9.84,35.33
471672698,0.001321,-0.00181,-0.003884,0.03,-0.28,9.82,35.33
471673709,-0.000809,-0.00181,-0.001753,0.03,-0.29,9.8,35.35
471674721,-0.00294,0.000321,-0.000688,0.04,-0.3,9.83,35.36
471675729,-0.00294,0.003516,-0.000688,0.02,-0.3,9.84,35.34
471676741,0.000256,0.003516,-0.000688,0.01,-0.3,9.84,35.32
471677749,0.000256,0.000321,-0.000688,0.02,-0.3,9.84,35.34
471678769,0.000256,-0.00181,-0.001753,0.02,-0.28,9.82,35.31
471679771,0.001321,-0.000745,-0.000688,0.01,-0.28,9.84,35.29
471680779,0.002387,0.001386,-0.000688,-0.01,-0.26,9.82,35.3
471681792,0.000256,-0.00181,0.001442,0.02,-0.27,9.83,35.31
471682799,-0.000809,-0.002875,0.000377,0.04,-0.26,9.77,35.34
471683811,-0.000809,0.001386,-0.000688,0.02,-0.29,9.79,35.34
471684819,-0.001875,0.003516,-0.002819,-0.01,-0.34,9.82,35.34
471685831,-0.001875,0.003516,-0.002819,0.03,-0.32,9.83,35.35
471686841,-0.001875,0.003516,-0.000688,0.03,-0.28,9.85,35.36
471687849,-0.001875,0.002451,0.003573,0.01,-0.31,9.82,35.35
471688868,-0.001875,0.000321,0.004638,0.04,-0.34,9.78,35.36
471689869,0.000256,0.001386,0.000377,0.04,-0.31,9.83,35.39
471690881,0.001321,-0.000745,-0.001753,0.04,-0.32,9.89,35.39
471691892,-0.000809,-0.00181,-0.001753,0.05,-0.32,9.86,35.37
471692901,-0.001875,-0.000745,-0.000688,0.03,-0.27,9.81,35.37
471693909,-0.000809,-0.000745,0.001442,0.02,-0.29,9.82,35.39
471694921,0.001321,-0.002875,0.002508,0.01,-0.31,9.81,35.36
471695929,0.002387,-0.00181,0.002508,0.02,-0.31,9.78,35.35
471696944,0.001321,0.001386,0.001442,0.03,-0.29,9.81,35.35
471697953,0.000256,0.002451,0.000377,0.0,-0.29,9.84,35.34
471698979,-0.001875,0.003516,0.000377,0.0,-0.29,9.85,35.39
471700026,-0.00294,0.000321,-0.000688,0.04,-0.28,9.85,35.42
471700988,-0.001875,-0.000745,-0.001753,0.03,-0.29,9.81,35.38
471702004,0.001321,0.000321,-0.001753,0.03,-0.32,9.8,35.38
471703007,0.002387,0.004582,-0.000688,0.03,-0.34,9.78,35.35
471704023,0.000256,0.005647,-0.001753,0.04,-0.33,9.78,35.36
471705033,-0.000809,0.002451,-0.001753,0.02,-0.32,9.8,35.34
471706041,0.000256,0.001386,-0.001753,-0.02,-0.34,9.8,35.37
471707055,0.003452,0.000321,-0.002819,0.0,-0.34,9.79,35.38
471708067,0.004517,-0.000745,-0.003884,0.04,-0.32,9.82,35.37
471709078,0.003452,0.000321,-0.003884,0.04,-0.27,9.86,35.37
471710084,0.001321,0.001386,0.001442,0.02,-0.27,9.85,35.34
471711093,0.001321,0.001386,0.003573,0.03,-0.28,9.82,35.35
471712110,0.001321,0.000321,0.000377,0.03,-0.3,9.79,35.36
471713112,0.001321,-0.000745,-0.001753,0.02,-0.31,9.81,35.37
471714120,0.001321,-0.000745,-0.002819,0.01,-0.29,9.82,35.35
471715131,0.001321,0.000321,-0.002819,-0.01,-0.33,9.82,35.34
471716138,-0.000809,-0.00181,-0.002819,0.0,-0.32,9.82,35.34
471717149,-0.001875,-0.002875,-0.002819,0.0,-0.32,9.82,35.32
471718160,-0.000809,-0.00181,-0.001753,0.01,-0.34,9.86,35.3
471719171,0.001321,-0.000745,-0.001753,0.05,-0.32,9.88,35.35
471720181,0.001321,-0.000745,-0.000688,0.03,-0.28,9.83,35.35
471721183,0.000256,0.000321,0.002508,0.01,-0.27,9.81,35.35
471722192,-0.000809,0.001386,0.002508,0.0,-0.27,9.79,35.35
471723228,0.000239,0.002459,0.001465,0.0,-0.26,9.79,35.34
471724217,-0.000826,0.002459,0.001465,0.04,-0.29,9.82,35.35
471725222,-0.002957,0.001393,0.001465,0.04,-0.31,9.82,35.33
471726230,-0.002957,-0.000737,0.001465,0.03,-0.32,9.82,35.34
471727242,-0.000826,-0.002868,0.001465,0.01,-0.29,9.82,35.33
471728247,0.001305,-0.001802,-0.000665,0.0,-0.31,9.79,35.36
471729268,0.001305,-0.000737,-0.000665,0.0,-0.32,9.79,35.35
471730269,0.001305,-0.000737,-0.000665,-0.01,-0.3,9.82,35.34
471731281,0.000239,0.000328,-0.000665,0.01,-0.32,9.87,35.33
471732292,-0.000826,0.001393,0.0004,0.02,-0.32,9.86,35.33
471733301,-0.000826,0.001393,0.001465,0.02,-0.29,9.83,35.33
471734309,-0.001891,-0.000737,0.001465,0.04,-0.28,9.86,35.33
471735321,-0.000826,-0.004998,0.0004,0.04,-0.26,9.86,35.34
471736329,0.001305,-0.007129,-0.000665,0.01,-0.25,9.8,35.36
471737341,0.00237,-0.003933,0.0004,0.02,-0.29,9.78,35.33
471738349,0.001305,-0.000737,0.0004,0.01,-0.31,9.8,35.34
471739369,-0.001891,0.001393,0.0004,0.01,-0.29,9.78,35.37
471740371,-0.000826,0.001393,0.0004,0.04,-0.29,9.78,35.36
471741379,0.001305,0.000328,0.0004,0.03,-0.32,9.79,35.39
471742392,0.003435,-0.001802,0.0004,-0.01,-0.31,9.77,35.33
471743398,0.005566,0.000328,-0.000665,-0.01,-0.29,9.8,35.3
471744409,0.001305,0.003524,-0.000665,0.0,-0.31,9.82,35.29
471745421,-0.004022,0.001393,-0.000665,0.0,-0.31,9.81,35.3
471746429,-0.005087,-0.000737,0.0004,0.0,-0.32,9.83,35.34
471747443,-0.002957,-0.002868,0.0004,0.0,-0.32,9.83,35.33
471748449,-0.001891,-0.001802,-0.000665,0.0,-0.31,9.78,35.33
471749469,-0.001891,0.001393,-0.001731,-0.02,-0.28,9.8,35.36
471750471,-0.002957,0.001393,-0.000665,-0.02,-0.25,9.82,35.36
471751479,-0.000826,0.001393,-0.001731,0.0,-0.28,9.83,35.33
471752493,0.000239,0.000328,-0.001731,0.02,-0.3,9.81,35.33
471753499,-0.000826,-0.000737,-0.001731,0.02,-0.31,9.79,35.33
471754511,0.001305,0.000328,-0.000665,0.0,-0.31,9.82,35.39
471755519,0.00237,0.001393,0.001465,0.03,-0.29,9.81,35.36
471756531,0.003435,0.000328,0.00253,0.04,-0.31,9.82,35.33
471757538,0.00237,-0.000737,0.001465,0.0,-0.31,9.86,35.37
471758549,0.00237,-0.000737,0.0004,0.01,-0.31,9.86,35.39
471759569,0.00237,0.000328,0.0004,0.03,-0.31,9.87,35.36
471760571,0.003435,0.002459,-0.000665,0.0,-0.28,9.86,35.36
471761579,0.003435,0.002459,0.0004,0.01,-0.31,9.81,35.38
471762592,0.00237,0.001393,0.001465,0.02,-0.33,9.82,35.4
471763599,0.00237,0.000328,0.001465,-0.01,-0.33,9.82,35.37
471764611,0.0045,0.002459,0.0004,0.0,-0.3,9.81,35.38
471765619,0.003435,0.004589,-0.001731,0.03,-0.28,9.83,35.36
471766631,0.001305,0.003524,-0.002796,0.0,-0.28,9.82,35.39
471767642,0.00237,0.001393,-0.001731,0.01,-0.3,9.84,35.38
471768651,0.001305,-0.000737,-0.000665,0.03,-0.3,9.9,35.34
471769667,0.000239,-0.002868,-0.000665,0.01,-0.28,9.88,35.33
471770671,0.00237,-0.000737,-0.001731,0.01,-0.28,9.84,35.31
471771679,0.0045,0.002459,-0.001731,0.03,-0.28,9.78,35.28
471772693,0.003435,0.002459,-0.002796,0.03,-0.29,9.77,35.33
471773699,0.000239,0.000328,-0.002796,0.03,-0.28,9.81,35.34
471774711,-0.002957,-0.002868,-0.001731,0.04,-0.28,9.82,35.35
471775719,-0.004022,-0.004998,-0.001731,0.07,-0.3,9.78,35.36
471776731,-0.001891,-0.002868,-0.002796,0.03,-0.32,9.8,35.36
471777739,-0.001891,0.000328,-0.003861,0.01,-0.34,9.84,35.38
471778758,-0.000826,0.002459,-0.000665,0.04,-0.3,9.8,35.38
471779761,0.001305,0.002459,0.00253,0.03,-0.28,9.79,35.33
