time_us,gyro_x_rad_s,gyro_y_rad_s,gyro_z_rad_s,acc_x_m_s2,acc_y_m_s2,acc_z_m_s2,temperature_c
209814881,-0.001504,0.001757,-0.001025,0.0,-0.33,9.85,30.85
209815896,-0.000439,0.000691,-0.001025,0.02,-0.31,9.85,30.86
209817405,0.000627,-0.000374,-0.001025,0.02,-0.31,9.82,30.89
209818442,0.001692,-0.000374,-0.001025,0.02,-0.3,9.76,30.91
209819450,0.002757,0.000691,4e-05,0.02,-0.3,9.79,30.91
209820461,0.003823,0.001757,0.002171,0.01,-0.31,9.84,30.91
209821470,0.002757,0.004953,4e-05,0.01,-0.29,9.82,30.92
209822481,-0.000439,0.002822,-0.00209,-0.01,-0.27,9.81,30.88
209823496,-0.002569,0.001757,-0.00209,0.01,-0.29,9.82,30.87
209824501,-0.003634,-0.000374,4e-05,0.04,-0.29,9.82,30.86
209825511,-0.001504,-0.001439,0.002171,0.02,-0.31,9.81,30.88
209826520,-0.000439,-0.000374,0.003236,0.0,-0.33,9.83,30.88
209827531,-0.001504,-0.000374,0.002171,0.02,-0.33,9.87,30.89
209828540,-0.001504,-0.001439,0.002171,0.04,-0.31,9.86,30.86
209829552,-0.001504,-0.001439,0.002171,0.04,-0.29,9.86,30.87
209830560,-0.002569,-0.000374,0.003236,0.04,-0.29,9.84,30.91
209831577,-0.003634,-0.000374,0.002171,0.06,-0.28,9.84,30.91
209832581,-0.002569,-0.001439,4e-05,0.07,-0.29,9.85,30.89
209833605,-0.001504,-0.00357,4e-05,0.05,-0.31,9.83,30.91
209834609,0.001692,-0.001439,0.001106,0.05,-0.3,9.78,30.88
209835618,0.003823,0.000691,-0.001025,0.03,-0.32,9.77,30.86
209836628,0.002757,0.000691,-0.003156,0.01,-0.32,9.79,30.87
209837642,0.000627,-0.001439,-0.00209,0.02,-0.3,9.78,30.88
209838649,-0.001504,-0.001439,0.001106,0.02,-0.33,9.76,30.88
209839661,-0.002569,-0.000374,0.004301,0.03,-0.34,9.78,30.88
209840670,-0.002569,-0.000374,0.003236,0.01,-0.35,9.8,30.92
209841687,-0.001504,0.001757,4e-05,0.01,-0.35,9.83,30.89
209842687,-0.001504,0.002822,-0.003156,0.03,-0.33,9.83,30.87
209843714,-0.000439,0.001757,-0.005286,0.03,-0.31,9.82,30.89
209844714,0.000627,0.000691,-0.004221,0.0,-0.35,9.8,30.88
209845722,0.000627,-0.000374,4e-05,0.02,-0.35,9.81,30.88
209846730,-0.000439,0.000691,0.001106,0.02,-0.33,9.8,30.88
209847774,-0.001483,0.001765,0.001123,0.02,-0.32,9.8,30.86
209848756,0.001713,0.000699,0.001123,0.05,-0.32,9.85,30.88
209849766,0.003843,-0.000366,0.001123,0.03,-0.32,9.86,30.88
209850768,0.002778,0.000699,5.8e-05,0.04,-0.3,9.88,30.85
209851777,0.000647,0.00283,-0.002073,0.04,-0.32,9.85,30.85
209852789,0.000647,0.000699,-0.005269,0.03,-0.31,9.79,30.91
209853799,0.001713,-0.000366,-0.003138,0.03,-0.31,9.8,30.92
209854806,0.000647,0.000699,-0.001008,0.03,-0.33,9.81,30.9
209855815,0.000647,0.000699,-0.001008,0.03,-0.34,9.84,30.88
209856823,-0.000418,0.00283,-0.002073,0.04,-0.32,9.83,30.91
209857835,-0.002548,0.001765,-0.002073,0.03,-0.31,9.8,30.9
209858842,-0.001483,0.001765,5.8e-05,0.04,-0.29,9.8,30.87
209859853,-0.000418,-0.000366,0.002188,0.04,-0.28,9.81,30.92
209860860,0.001713,-0.001431,0.004319,0.07,-0.29,9.87,30.91
209861871,0.001713,-0.001431,0.003253,0.1,-0.3,9.87,30.89
209862880,0.001713,-0.001431,0.002188,0.04,-0.28,9.83,30.93
209863897,0.002778,0.000699,0.001123,0.03,-0.3,9.82,30.92
209864901,0.001713,0.001765,-0.001008,0.05,-0.29,9.84,30.88
209865911,0.001713,0.001765,5.8e-05,0.04,-0.28,9.81,30.87
209866920,0.000647,0.00283,0.002188,0.02,-0.29,9.79,30.87
209867931,-0.001483,0.00283,0.002188,0.03,-0.29,9.82,30.88
209868940,-0.002548,0.000699,-0.001008,0.04,-0.3,9.8,30.87
209869952,-0.002548,-0.001431,-0.004204,0.01,-0.31,9.83,30.86
209870960,-0.001483,-0.001431,-0.003138,0.02,-0.31,9.84,30.89
209871971,0.000647,0.001765,-0.001008,0.04,-0.31,9.78,30.91
209872980,0.001713,0.001765,5.8e-05,0.03,-0.31,9.8,30.91
209873997,0.002778,0.000699,0.001123,0.02,-0.29,9.84,30.89
209875001,0.002778,-0.000366,0.001123,0.0,-0.28,9.8,30.87
209876011,0.000647,-0.001431,5.8e-05,0.03,-0.29,9.82,30.9
209877020,-0.000418,-0.003562,-0.001008,0.05,-0.32,9.83,30.91
209878031,-0.002548,-0.001431,-0.001008,0.03,-0.34,9.79,30.87
209879040,-0.001483,0.000699,0.001123,0.0,-0.34,9.84,30.88
209880051,-0.000418,0.001765,0.002188,0.03,-0.33,9.83,30.91
209881060,-0.000418,-0.000366,0.002188,0.03,-0.33,9.81,30.88
209882071,0.000647,-0.002496,0.002188,0.0,-0.32,9.84,30.9
209883080,0.000647,-0.000366,0.004319,0.01,-0.32,9.8,30.89
209884097,0.001713,0.001765,0.004319,0.02,-0.33,9.78,30.86
209885101,0.001713,0.001765,0.002188,0.01,-0.33,9.81,30.88
209886112,-0.000418,0.000699,5.8e-05,0.02,-0.3,9.85,30.87
209887121,-0.000418,-0.001431,-0.001008,0.02,-0.3,9.86,30.91
209888132,0.001713,-0.003562,-0.002073,0.01,-0.3,9.83,30.9
209889141,0.002778,-0.002496,-0.001008,0.01,-0.29,9.83,30.91
209890154,0.001713,-0.001431,0.001123,-0.01,-0.32,9.86,30.9
209891161,-0.000418,-0.000366,0.002188,0.01,-0.3,9.86,30.91
209892172,-0.000418,0.001765,0.001123,0.03,-0.31,9.83,30.91
209893181,-0.000418,0.00283,0.001123,0.0,-0.34,9.79,30.91
209894198,-0.000418,0.00283,5.8e-05,-0.01,-0.32,9.79,30.9
209895202,-0.001483,0.00283,5.8e-05,0.01,-0.33,9.83,30.88
209896212,-0.000418,0.001765,-0.002073,0.05,-0.36,9.84,30.87
209897221,0.001713,0.000699,-0.003138,0.02,-0.33,9.81,30.87
209898232,-0.000418,-0.000366,-0.002073,0.01,-0.33,9.8,30.85
209899241,-0.002548,-0.000366,-0.001008,0.02,-0.36,9.82,30.9
209900252,-0.003614,-0.000366,5.8e-05,0.03,-0.35,9.83,30.92
209901261,-0.002548,-0.001431,5.8e-05,0.02,-0.35,9.79,30.9
209902272,-0.001483,-0.000366,5.8e-05,0.0,-0.34,9.78,30.91
209903281,-0.000418,0.001765,0.002188,0.0,-0.34,9.85,30.88
209904312,-0.001483,0.003895,0.003253,0.02,-0.31,9.86,30.87
209905302,-0.002548,0.003895,0.002188,0.02,-0.28,9.86,30.84
209906312,-0.003614,0.003895,-0.001008,0.03,-0.3,9.82,30.84
209907321,-0.003614,0.00283,-0.003138,0.03,-0.31,9.8,30.86
209908332,-0.001483,0.00283,-0.002073,-0.01,-0.3,9.86,30.86
209909341,-0.000418,0.000699,5.8e-05,0.0,-0.33,9.87,30.89
209910354,-0.000418,-0.001431,0.002188,0.01,-0.34,9.82,30.87
209911361,0.000647,-0.002496,0.002188,0.01,-0.33,9.79,30.86
209912372,0.001713,-0.000366,0.002188,-0.01,-0.32,9.85,30.86
209913381,-0.000418,0.000699,0.002188,-0.02,-0.32,9.85,30.86
209914398,-0.001483,0.000699,0.001123,0.03,-0.33,9.82,30.9
209915402,-0.001483,-0.000366,5.8e-05,0.06,-0.35,9.86,30.89
209916412,-0.001483,-0.001431,-0.001008,0.03,-0.34,9.85,30.82
209917421,-0.000418,-0.001431,-0.002073,0.03,-0.33,9.85,30.85
209918432,0.000647,0.000699,-0.001008,0.07,-0.32,9.82,30.84
209919441,0.000647,0.000699,0.001123,0.06,-0.29,9.78,30.88
209920452,0.000647,-0.001431,0.003253,0.02,-0.3,9.79,30.9
209921461,0.000647,-0.001431,0.003253,0.0,-0.33,9.82,30.91
209922472,0.000647,-0.000366,0.001123,0.02,-0.33,9.86,30.89
209923488,0.002778,-0.001431,0.001123,0.04,-0.32,9.86,30.85
209924491,0.001713,-0.002496,0.001123,0.03,-0.3,9.85,30.87
209925545,-0.000418,-0.001431,5.8e-05,0.0,-0.29,9.88,30.92
209926518,-0.000418,0.001765,5.8e-05,0.02,-0.33,9.81,30.93
209927561,0.000647,0.001765,5.8e-05,0.05,-0.36,9.79,30.88
209928531,0.001713,-0.000366,5.8e-05,0.04,-0.34,9.83,30.88
209929542,0.002778,-0.000366,-0.001008,0.04,-0.29,9.84,30.85
209930552,0.001713,0.000699,-0.002073,0.04,-0.29,9.83,30.87
209931562,-0.001483,0.00283,-0.003138,0.04,-0.33,9.83,30.86
209932578,-0.003614,0.001765,-0.003138,0.0,-0.34,9.8,30.88
209933590,-0.002548,-0.000366,-0.002073,-0.01,-0.34,9.82,30.89
209934595,-0.001483,-0.001431,-0.002073,0.01,-0.33,9.82,30.89
209935609,0.000647,0.000699,5.8e-05,0.01,-0.32,9.8,30.86
209936616,0.001713,0.000699,0.002188,0.02,-0.29,9.84,30.89
209937628,0.000647,-0.000366,0.002188,0.02,-0.28,9.82,30.87
209938640,-0.000418,-0.000366,5.8e-05,0.02,-0.28,9.82,30.86
209939650,-0.001483,-0.000366,-0.001008,0.02,-0.28,9.82,30.88
209940664,-0.003614,-0.001431,5.8e-05,0.03,-0.31,9.83,30.9
209941669,-0.003614,-0.003562,0.001123,0.0,-0.35,9.86,30.88
209942686,-0.001483,-0.003562,0.001123,-0.01,-0.32,9.84,30.88
209943719,0.001713,-0.000366,0.001123,0.01,-0.32,9.85,30.87
209944702,0.002778,0.000699,5.8e-05,0.01,-0.34,9.9,30.88
209945714,-0.000418,0.00283,5.8e-05,0.0,-0.32,9.87,30.87
209946727,-0.002548,0.003895,5.8e-05,0.01,-0.33,9.82,30.87
209947730,-0.003614,0.003895,5.8e-05,0.02,-0.33,9.82,30.87
209948741,-0.001483,0.00283,0.001123,0.02,-0.32,9.8,30.88
209949751,-0.000418,0.001765,0.001123,0.05,-0.29,9.82,30.89
209950765,-0.000418,0.000699,5.8e-05,0.05,-0.28,9.84,30.87
209951771,0.000647,-0.000366,-0.001008,0.0,-0.3,9.9,30.88
209952782,-0.000418,0.001765,-0.001008,0.0,-0.33,9.87,30.91
209953792,-0.001483,0.00283,5.8e-05,0.02,-0.33,9.82,30.87
209954791,-0.000418,0.001765,0.001123,0.02,-0.33,9.85,30.85
209955807,0.002778,0.000699,0.002188,0.02,-0.36,9.86,30.84
209956815,0.003843,0.000699,-0.001008,0.04,-0.29,9.84,30.78
209957825,0.001713,0.00283,-0.001008,0.02,-0.3,9.86,30.85
209958835,0.000647,0.003895,-0.001008,0.02,-0.32,9.84,30.86
209959845,0.001713,0.00283,-0.001008,0.01,-0.31,9.84,30.89
209960853,0.000647,0.000699,5.8e-05,0.0,-0.29,9.87,30.93
209961862,-0.003614,-0.000366,-0.001008,0.03,-0.29,9.86,30.87
209962871,-0.005744,-0.001431,-0.002073,0.05,-0.3,9.81,30.87
209963888,-0.003614,-0.001431,-0.002073,0.06,-0.31,9.81,30.9
209964891,-0.001483,-0.000366,-0.001008,0.02,-0.33,9.81,30.9
209965904,-0.000418,0.001765,-0.001008,0.03,-0.32,9.86,30.91
209966911,0.000647,0.000699,5.8e-05,0.04,-0.33,9.86,30.94
209967922,0.001713,-0.002496,5.8e-05,0.01,-0.32,9.82,30.91
209968931,0.000647,-0.003562,5.8e-05,0.04,-0.29,9.83,30.85
209969942,-0.003614,-0.001431,0.002188,0.02,-0.33,9.82,30.87
209970952,-0.004679,0.000699,0.003253,0.01,-0.31,9.82,30.88
209971962,-0.002548,0.001765,0.003253,0.03,-0.32,9.77,30.85
209972971,-0.001483,0.000699,0.002188,0.03,-0.34,9.79,30.87
209973988,-0.001483,0.00283,0.002188,0.04,-0.28,9.83,30.86
209974991,-0.000418,0.006026,0.002188,0.03,-0.29,9.85,30.84
209976004,0.001713,0.007091,0.002188,0.01,-0.34,9.88,30.9
209977045,0.001736,0.00383,3.2e-05,0.01,-0.32,9.87,30.91
209978026,-0.00146,0.000634,3.2e-05,0.01,-0.3,9.86,30.94
209979031,-0.00146,-0.002562,-0.001034,0.01,-0.32,9.85,30.9
209980042,-0.000395,-0.002562,-0.002099,0.04,-0.34,9.85,30.88
209981051,0.000671,-0.001496,-0.002099,0.06,-0.34,9.87,30.86
209982062,0.000671,-0.000431,-0.002099,0.04,-0.31,9.87,30.87
209983071,0.001736,-0.001496,-0.001034,0.03,-0.3,9.83,30.88
209984088,0.001736,-0.000431,-0.001034,0.04,-0.32,9.79,30.87
209985091,0.000671,0.0017,3.2e-05,0.02,-0.32,9.81,30.88
209986104,-0.00146,0.002765,3.2e-05,0.01,-0.31,9.82,30.88
209987111,-0.00146,0.0017,0.001097,0.03,-0.31,9.8,30.87
209988122,-0.002525,-0.000431,0.002162,0.05,-0.3,9.82,30.84
209989131,-0.00359,0.0017,0.002162,0.04,-0.33,9.84,30.86
209990142,-0.00359,0.0017,0.001097,0.0,-0.31,9.83,30.86
209991152,-0.002525,-0.002562,0.001097,0.01,-0.29,9.86,30.84
209992162,-0.000395,-0.003627,0.002162,0.04,-0.31,9.85,30.84
209993171,0.000671,-0.000431,0.002162,0.03,-0.3,9.82,30.87
209994188,0.000671,0.000634,3.2e-05,0.02,-0.28,9.83,30.9
209995191,0.000671,0.002765,-0.002099,0.02,-0.29,9.81,30.86
209996204,0.000671,0.0017,3.2e-05,0.04,-0.31,9.79,30.85
209997211,-0.000395,-0.001496,0.002162,0.04,-0.32,9.81,30.88
209998222,-0.000395,0.000634,0.001097,0.03,-0.32,9.82,30.89
209999231,0.000671,0.005961,0.001097,0.04,-0.32,9.83,30.89
210000242,-0.000395,0.005961,0.001097,0.04,-0.32,9.78,30.93
210001261,-0.002525,0.0017,0.001097,0.05,-0.31,9.77,30.91
210002264,-0.002525,0.000634,0.001097,0.04,-0.34,9.8,30.89
210003271,-0.002525,0.0017,3.2e-05,0.01,-0.31,9.81,30.9
210004289,-0.00146,0.002765,3.2e-05,0.01,-0.31,9.8,30.88
210005291,-0.00146,0.0017,0.001097,0.0,-0.33,9.82,30.87
210006304,0.000671,0.000634,3.2e-05,-0.01,-0.33,9.81,30.9
210007311,0.002801,0.0017,3.2e-05,0.01,-0.32,9.78,30.91
210008322,0.001736,0.000634,0.001097,0.03,-0.27,9.79,30.91
210009331,-0.000395,0.000634,0.002162,0.03,-0.28,9.82,30.89
210010342,0.001736,0.000634,0.002162,0.03,-0.34,9.88,30.88
210011352,0.002801,-0.000431,0.001097,0.03,-0.34,9.87,30.89
210012362,0.003867,-0.001496,-0.001034,0.03,-0.32,9.83,30.88
210013425,0.002801,-0.001496,-0.002099,0.05,-0.32,9.86,30.88
210014388,0.000671,0.000634,-0.001034,0.05,-0.33,9.87,30.86
210015391,-0.000395,0.0017,3.2e-05,0.01,-0.33,9.88,30.88
210016404,-0.00146,0.0017,0.001097,-0.01,-0.31,9.88,30.87
210017411,-0.000395,-0.000431,0.001097,0.01,-0.32,9.83,30.9
210018422,0.000671,-0.001496,0.001097,0.03,-0.33,9.8,30.91
210019431,0.000671,0.0017,0.001097,0.04,-0.3,9.8,30.91
210020442,0.002801,0.00383,0.001097,0.02,-0.3,9.78,30.92
210021451,0.000671,0.002765,0.002162,0.04,-0.32,9.82,30.9
210022462,-0.002525,-0.000431,3.2e-05,0.05,-0.34,9.87,30.85
210023478,-0.00146,-0.000431,-0.002099,0.04,-0.32,9.86,30.88
210024481,-0.000395,0.0017,-0.002099,0.02,-0.3,9.82,30.88
210025492,-0.000395,0.002765,-0.001034,-0.02,-0.29,9.79,30.9
210026502,0.000671,0.002765,3.2e-05,0.01,-0.33,9.81,30.9
210027512,-0.000395,0.0017,-0.001034,0.05,-0.33,9.81,30.85
210028521,-0.00146,0.000634,-0.003164,0.04,-0.3,9.77,30.82
210029532,-0.00146,0.000634,-0.003164,0.04,-0.3,9.79,30.86
210030541,-0.00146,-0.000431,-0.002099,0.04,-0.29,9.81,30.9
210031554,-0.000395,0.002765,-0.001034,0.04,-0.28,9.78,30.89
210032561,0.001736,0.00383,-0.002099,0.03,-0.28,9.78,30.88
210033579,0.001736,-0.000431,-0.002099,0.03,-0.3,9.83,30.88
210034582,0.001736,-0.001496,3.2e-05,0.03,-0.31,9.85,30.89
210035597,0.000671,-0.000431,0.001097,0.02,-0.31,9.83,30.9
210036609,-0.000395,0.0017,0.001097,0.04,-0.32,9.83,30.9
210037619,0.000671,0.0017,0.001097,0.04,-0.29,9.82,30.92
210038628,0.001736,-0.000431,0.001097,0.01,-0.28,9.8,30.9
210039642,0.000671,0.000634,3.2e-05,0.04,-0.32,9.8,30.85
210040649,-0.000395,0.0017,-0.002099,0.05,-0.33,9.84,30.89
210041660,0.000671,0.00383,-0.003164,0.02,-0.32,9.84,30.93
210042670,0.000671,0.004895,-0.002099,0.01,-0.32,9.86,30.9
210043693,0.000671,0.004895,0.001097,0.02,-0.34,9.88,30.89
210044687,-0.000395,0.002765,0.003227,0.0,-0.32,9.88,30.93
210045702,-0.00146,0.0017,0.001097,0.0,-0.28,9.83,30.91
210046714,-0.00146,-0.000431,3.2e-05,0.01,-0.29,9.82,30.92
210047722,0.001736,-0.001496,3.2e-05,0.01,-0.3,9.87,30.89
210048730,0.002801,-0.001496,0.001097,0.04,-0.31,9.85,30.9
210049741,0.001736,-0.001496,0.001097,0.04,-0.32,9.83,30.9
210050751,0.000671,-0.001496,3.2e-05,0.05,-0.33,9.78,30.88
210051766,-0.000395,-0.001496,-0.001034,0.04,-0.32,9.77,30.89
210052773,-0.000395,-0.000431,-0.002099,0.0,-0.29,9.85,30.87
210053782,-0.000395,-0.001496,3.2e-05,0.01,-0.29,9.84,30.88
210054784,0.001736,-0.002562,3.2e-05,0.04,-0.29,9.79,30.89
210055793,0.001736,-0.001496,3.2e-05,0.03,-0.3,9.78,30.91
210056806,-0.000395,-0.001496,-0.003164,0.06,-0.31,9.79,30.89
210057817,-0.000395,-0.001496,-0.003164,0.03,-0.32,9.82,30.87
210058824,-0.000395,-0.000431,3.2e-05,-0.01,-0.32,9.88,30.88
210059836,0.000671,0.000634,0.002162,0.05,-0.32,9.91,30.85
210060843,0.001736,0.000634,0.001097,0.06,-0.29,9.86,30.85
210061854,0.001736,0.002765,3.2e-05,0.05,-0.28,9.83,30.9
210062861,-0.000395,0.00383,-0.001034,0.04,-0.29,9.82,30.89
210063878,-0.00146,0.000634,-0.002099,0.01,-0.3,9.86,30.9
210064881,-0.00146,-0.000431,-0.003164,0.04,-0.32,9.85,30.91
210065892,-0.00146,0.002765,-0.003164,0.01,-0.32,9.79,30.91
210066902,-0.00146,0.00383,-0.003164,-0.01,-0.29,9.81,30.92
210067912,-0.00146,0.005961,-0.002099,0.03,-0.29,9.85,30.93
210068921,-0.000395,0.004895,0.001097,0.02,-0.33,9.83,30.9
210069932,-0.000395,0.0017,0.003227,0.03,-0.33,9.81,30.9
210070941,-0.00146,-0.002562,0.003227,0.03,-0.3,9.83,30.86
210071954,-0.002525,-0.003627,0.001097,0.02,-0.31,9.85,30.87
210072961,-0.000395,-0.002562,-0.002099,0.04,-0.32,9.77,30.86
210073978,0.001736,-0.000431,-0.002099,0.02,-0.32,9.76,30.87
210074981,0.000671,0.000634,3.2e-05,0.01,-0.33,9.81,30.91
210075992,-0.000395,0.000634,0.001097,0.02,-0.3,9.82,30.9
210077002,-0.00146,0.000634,3.2e-05,0.01,-0.27,9.8,30.89
210078012,-0.000395,0.0017,3.2e-05,0.03,-0.29,9.76,30.92
210079021,-0.000395,0.000634,3.2e-05,0.05,-0.33,9.82,30.91
210080032,-0.000395,0.000634,-0.001034,0.0,-0.31,9.88,30.92
210081041,0.000671,0.000634,-0.001034,-0.02,-0.31,9.82,30.93
210082052,-0.000395,-0.000431,3.2e-05,0.01,-0.32,9.82,30.91
210083061,-0.000395,-0.002562,3.2e-05,0.01,-0.29,9.87,30.9
210084078,-0.000395,-0.005757,0.002162,0.01,-0.31,9.87,30.91
210085081,-0.00146,-0.004692,0.002162,0.02,-0.33,9.82,30.92
210086092,-0.000395,-0.002562,3.2e-05,0.06,-0.29,9.78,30.9
210087102,0.001736,-0.000431,-0.001034,0.07,-0.29,9.81,30.87
210088122,0.002801,-0.000431,0.001097,0.04,-0.32,9.84,30.86
210089121,0.002801,-0.002562,0.001097,0.01,-0.35,9.82,30.88
210090132,0.001736,-0.003627,-0.001034,0.01,-0.33,9.8,30.86
210091141,-0.000395,-0.001496,-0.003164,0.04,-0.3,9.82,30.88
210092154,-0.000395,-0.000431,-0.001034,0.05,-0.3,9.86,30.88
210093161,0.001736,-0.000431,0.001097,0.03,-0.3,9.87,30.84
210094181,0.001736,-0.000431,3.2e-05,0.02,-0.32,9.84,30.84
210095181,0.000671,-0.000431,3.2e-05,0.04,-0.33,9.85,30.85
210096192,-0.000395,-0.000431,0.002162,0.02,-0.32,9.84,30.87
210097202,-0.00146,-0.001496,0.003227,0.01,-0.35,9.81,30.93
210098222,-0.002525,-0.001496,0.002162,0.03,-0.35,9.85,30.92
210099221,-0.000395,-0.002562,3.2e-05,0.07,-0.31,9.84,30.95
210100232,0.000671,-0.001496,-0.002099,0.08,-0.29,9.81,30.92
210101241,0.000671,-0.001496,-0.002099,0.05,-0.32,9.82,30.85
210102252,-0.000395,-0.000431,-0.001034,0.01,-0.32,9.85,30.85
210103261,-0.00146,-0.000431,-0.001034,0.03,-0.32,9.84,30.89
210104279,-0.000395,-0.001496,-0.003164,0.05,-0.32,9.83,30.92
210105281,0.001736,0.000634,-0.00423,0.01,-0.34,9.84,30.89
210106326,0.00067,0.002729,-0.004209,0.01,-0.33,9.87,30.89
210107306,-0.00146,0.003794,-0.005275,0.02,-0.3,9.84,30.87
210108322,-0.000395,0.002729,-0.004209,0.01,-0.32,9.79,30.87
210109321,0.001735,0.002729,-0.002079,0.03,-0.33,9.83,30.85
210110332,0.001735,0.002729,-0.001013,0.01,-0.34,9.81,30.87
210111341,0.002801,0.003794,-0.001013,0.02,-0.3,9.77,30.88
210112354,0.00067,0.003794,0.001117,0.04,-0.26,9.8,30.91
210113360,-0.000395,0.002729,0.001117,0.04,-0.29,9.8,30.91
210114379,-0.000395,-0.000467,0.001117,0.04,-0.34,9.81,30.91
210115415,0.00067,-0.001533,0.001117,0.01,-0.33,9.85,30.95
210116391,0.00067,-0.001533,5.2e-05,0.0,-0.32,9.85,30.89
210117401,-0.000395,-0.001533,-0.002079,0.02,-0.33,9.82,30.89
210118421,-0.000395,-0.002598,-0.003144,0.04,-0.29,9.82,30.91
210119420,0.001735,-0.001533,-0.003144,0.02,-0.3,9.82,30.91
210120431,0.001735,-0.000467,-0.003144,0.01,-0.34,9.84,30.9
210121440,0.002801,-0.000467,-0.003144,0.02,-0.35,9.86,30.93
210122451,0.002801,-0.001533,-0.001013,0.02,-0.3,9.86,30.89
210123468,0.001735,-0.002598,0.001117,0.01,-0.28,9.84,30.86
210124470,-0.000395,-0.001533,0.002182,0.02,-0.34,9.8,30.85
210125481,-0.000395,-0.002598,5.2e-05,0.05,-0.32,9.79,30.87
210126490,-0.00146,-0.003663,-0.001013,0.05,-0.3,9.8,30.89
210127502,-0.000395,-0.005794,-0.002079,0.04,-0.32,9.83,30.88
210128519,0.001735,-0.005794,-0.002079,0.04,-0.31,9.81,30.88
210129521,0.00067,-0.002598,-0.002079,0.04,-0.29,9.78,30.88
210130530,-0.000395,0.000598,5.2e-05,-0.01,-0.29,9.79,30.88
210131541,0.00067,0.002729,0.001117,-0.01,-0.29,9.84,30.9
210132551,0.00067,0.000598,0.001117,0.01,-0.32,9.87,30.91
210133573,-0.000395,-0.002598,0.002182,0.01,-0.32,9.9,30.89
210134573,-0.00146,-0.001533,0.002182,0.02,-0.33,9.91,30.87
210135583,-0.000395,0.002729,5.2e-05,0.02,-0.33,9.86,30.85
210136595,-0.00146,0.004859,-0.002079,-0.01,-0.3,9.81,30.89
210137609,-0.000395,0.002729,-0.002079,0.01,-0.28,9.79,30.86
210138628,0.001735,0.001663,-0.001013,0.03,-0.27,9.78,30.88
210139626,0.003866,0.000598,0.001117,0.03,-0.27,9.81,30.88
210140640,0.005996,-0.000467,0.001117,0.02,-0.25,9.82,30.89
210141649,0.003866,0.001663,-0.002079,0.02,-0.27,9.79,30.89
210142665,0.00067,0.004859,-0.004209,-0.01,-0.31,9.79,30.92
210143680,0.00067,0.003794,-0.004209,0.0,-0.32,9.79,30.95
210144685,0.00067,0.000598,-0.002079,0.02,-0.31,9.8,30.92
210145689,0.00067,-0.001533,-0.001013,0.01,-0.34,9.9,30.93
210146700,0.00067,-0.002598,0.001117,0.01,-0.35,9.89,30.91
210147714,-0.000395,-0.001533,0.002182,0.02,-0.34,9.85,30.86
210148730,-0.000395,-0.000467,5.2e-05,0.03,-0.33,9.85,30.87
210149729,-0.002526,0.001663,-0.002079,0.0,-0.32,9.83,30.91
210150739,-0.002526,0.000598,-0.001013,0.0,-0.3,9.9,30.93
210151751,-0.00146,-0.000467,0.001117,0.03,-0.31,9.93,30.9
210152769,0.00067,-0.002598,0.001117,0.02,-0.32,9.87,30.86
210153779,0.001735,-0.001533,5.2e-05,0.0,-0.32,9.84,30.86
210154777,0.00067,0.001663,5.2e-05,0.02,-0.33,9.82,30.88
210155786,-0.000395,0.000598,0.002182,0.02,-0.32,9.87,30.88
210156791,0.001735,0.000598,-0.002079,0.02,-0.32,9.83,30.87
210157807,0.002801,0.001663,-0.002079,0.0,-0.3,9.78,30.91
210158824,0.002801,0.000598,-0.002079,0.0,-0.31,9.86,30.92
210159826,0.002801,0.000598,5.2e-05,0.03,-0.31,9.9,30.88
210160835,0.00067,0.000598,0.002182,0.03,-0.31,9.83,30.91
210161845,-0.000395,0.001663,0.001117,0.03,-0.28,9.85,30.88
210162853,-0.000395,0.001663,-0.001013,0.05,-0.27,9.83,30.86
210163869,-0.000395,0.000598,-0.001013,0.04,-0.28,9.83,30.88
210164871,-0.00146,-0.000467,0.001117,0.02,-0.28,9.88,30.9
210165882,-0.00146,-0.000467,0.002182,0.02,-0.28,9.84,30.89
210166891,-0.000395,-0.001533,5.2e-05,0.03,-0.28,9.8,30.88
210167913,0.00067,-0.002598,-0.001013,0.01,-0.33,9.8,30.88
210168911,-0.000395,-0.001533,-0.001013,0.0,-0.35,9.82,30.91
210169922,-0.00146,-0.000467,-0.001013,-0.01,-0.34,9.81,30.89
210170931,0.00067,-0.000467,5.2e-05,-0.01,-0.31,9.8,30.87
210171942,0.001735,-0.000467,0.001117,0.03,-0.31,9.87,30.85
210172952,0.001735,0.000598,5.2e-05,0.06,-0.34,9.86,30.86
210173971,0.00067,0.001663,-0.002079,0.07,-0.36,9.81,30.91
210174971,-0.000395,0.001663,5.2e-05,0.03,-0.32,9.78,30.91
210175982,-0.000395,0.000598,0.001117,0.03,-0.28,9.76,30.9
210176991,-0.000395,0.000598,0.002182,0.05,-0.33,9.8,30.87
210178013,-0.00146,-0.000467,0.003248,0.04,-0.35,9.87,30.9
210179011,-0.002526,-0.000467,0.002182,0.04,-0.31,9.89,30.89
210180022,-0.002526,-0.000467,0.001117,0.05,-0.29,9.84,30.89
210181031,-0.002526,-0.001533,0.001117,0.03,-0.3,9.82,30.91
210182042,-0.00146,-0.001533,0.001117,0.0,-0.33,9.82,30.89
210183050,-0.00146,-0.000467,0.001117,0.0,-0.31,9.86,30.91
210184068,-0.000395,0.000598,5.2e-05,-0.01,-0.31,9.87,30.88
210185070,-0.002526,0.001663,5.2e-05,-0.01,-0.34,9.81,30.88
210186081,-0.003591,0.000598,5.2e-05,-0.01,-0.31,9.79,30.9
210187090,-0.003591,0.000598,5.2e-05,0.01,-0.29,9.79,30.86
210188112,-0.002526,-0.000467,5.2e-05,0.07,-0.3,9.78,30.86
210189110,-0.000395,0.000598,5.2e-05,0.08,-0.32,9.81,30.88
210190121,-0.000395,0.002729,5.2e-05,0.03,-0.33,9.87,30.9
210191130,0.00067,0.000598,5.2e-05,0.03,-0.34,9.85,30.92
210192141,0.001735,0.000598,0.001117,0.05,-0.31,9.79,30.9
210193151,0.002801,0.000598,0.003248,0.05,-0.28,9.81,30.93
210194169,-0.000395,0.000598,0.003248,0.01,-0.29,9.87,30.93
210195170,-0.00146,0.000598,0.002182,-0.01,-0.3,9.83,30.9
210196181,-0.000395,-0.000467,0.002182,0.0,-0.32,9.8,30.89
210197190,0.001735,-0.000467,0.002182,0.03,-0.31,9.84,30.87
210198212,0.001735,0.001663,0.002182,0.04,-0.31,9.83,30.85
210199210,0.00067,0.000598,5.2e-05,0.04,-0.32,9.85,30.86
210200221,0.00067,-0.001533,-0.001013,0.06,-0.33,9.84,30.88
210201230,-0.000395,-0.000467,0.001117,0.03,-0.34,9.8,30.88
210202241,-0.000395,0.000598,0.001117,0.02,-0.3,9.81,30.9
210203250,-0.00146,0.001663,5.2e-05,0.04,-0.33,9.78,30.88
210204268,-0.00146,0.000598,-0.001013,0.03,-0.34,9.79,30.88
210205270,-0.002526,-0.000467,-0.002079,0.03,-0.28,9.85,30.88
210206281,-0.003591,-0.000467,-0.004209,0.06,-0.27,9.85,30.89
210207290,-0.002526,0.001663,-0.002079,0.05,-0.28,9.87,30.89
210208312,-0.002526,0.001663,-0.001013,0.05,-0.28,9.88,30.88
210209310,-0.00146,0.000598,0.001117,0.04,-0.3,9.86,30.87
210210321,-0.000395,0.001663,0.001117,0.02,-0.31,9.86,30.85
210211351,-0.000395,0.002729,-0.001013,0.03,-0.31,9.83,30.86
210212341,-0.000395,0.002729,-0.002079,0.02,-0.33,9.82,30.84
210213351,0.00067,0.002729,-0.001013,0.02,-0.34,9.79,30.89
210214369,0.00067,-0.000467,5.2e-05,0.05,-0.34,9.78,30.9
210215370,-0.000395,-0.001533,0.001117,0.07,-0.34,9.79,30.92
210216381,-0.00146,-0.000467,0.001117,0.05,-0.32,9.84,30.89
210217390,-0.000395,0.000598,0.002182,0.02,-0.3,9.82,30.88
210218418,0.00067,0.000598,0.002182,0.0,-0.31,9.8,30.88
210219410,0.001735,-0.000467,5.2e-05,0.03,-0.31,9.85,30.88
210220421,0.002801,-0.000467,5.2e-05,0.05,-0.32,9.85,30.86
210221430,0.001735,-0.000467,5.2e-05,0.06,-0.33,9.81,30.88
210222441,0.00067,0.000598,0.001117,0.04,-0.32,9.79,30.87
210223459,-0.000395,-0.001533,5.2e-05,0.04,-0.33,9.83,30.86
210224460,-0.00146,-0.001533,-0.002079,0.04,-0.33,9.79,30.87
210225471,-0.00146,-0.001533,-0.001013,0.04,-0.34,9.79,30.86
210226480,-0.000395,0.000598,5.2e-05,0.02,-0.32,9.78,30.88
210227491,-0.000395,0.001663,-0.001013,0.01,-0.27,9.75,30.83
210228511,-0.00146,0.001663,-0.001013,0.04,-0.3,9.78,30.86
210229511,0.001735,-0.000467,-0.001013,0.04,-0.31,9.81,30.9
210230520,0.002801,-0.000467,5.2e-05,0.04,-0.29,9.81,30.86
210231531,0.002801,0.001663,0.001117,0.01,-0.29,9.81,30.86
210232540,0.00067,-0.000467,5.2e-05,-0.01,-0.32,9.83,30.87
210233562,0.00067,-0.002598,-0.001013,0.03,-0.33,9.86,30.89
210234560,-0.000395,-0.001533,-0.001013,0.05,-0.32,9.86,30.88
210235606,-0.000404,0.000578,7e-05,0.04,-0.33,9.86,30.89
210236585,-0.000404,0.000578,-0.002061,0.01,-0.29,9.86,30.91
210237596,-0.001469,-0.000487,-0.000996,0.02,-0.27,9.83,30.91
210238616,-0.001469,-0.001552,7e-05,0.05,-0.31,9.82,30.94
210239616,-0.0036,-0.000487,7e-05,0.06,-0.32,9.84,30.91
210240629,-0.002534,0.000578,7e-05,0.04,-0.29,9.84,30.88
210241640,0.000662,-0.000487,-0.000996,0.06,-0.31,9.84,30.88
210242650,0.001727,-0.000487,-0.002061,0.07,-0.31,9.83,30.86
210243666,0.000662,-0.001552,7e-05,0.05,-0.29,9.85,30.86
210244668,0.000662,-0.002618,0.001135,0.05,-0.29,9.88,30.85
210245682,0.000662,-0.001552,-0.000996,0.03,-0.29,9.87,30.86
210246687,0.000662,-0.002618,-0.000996,0.03,-0.3,9.83,30.84
210247701,-0.001469,-0.002618,7e-05,0.04,-0.32,9.83,30.84
210248711,-0.000404,-0.002618,7e-05,0.05,-0.31,9.87,30.83
210249721,0.001727,-0.001552,0.001135,0.06,-0.34,9.87,30.87
210250730,0.002792,-0.001552,0.0022,0.05,-0.37,9.84,30.9
210251741,0.000662,-0.001552,0.003265,0.02,-0.34,9.78,30.91
210252755,-0.002534,0.000578,0.003265,0.03,-0.3,9.78,30.86
210253772,-0.0036,-0.000487,0.0022,0.03,-0.3,9.85,30.86
210254767,-0.002534,-0.000487,0.0022,0.02,-0.33,9.88,30.86
210255776,-0.001469,-0.001552,0.001135,0.04,-0.31,9.86,30.86
210256783,0.001727,-0.000487,-0.003126,-0.01,-0.3,9.82,30.86
210257791,0.001727,0.000578,-0.004192,0.02,-0.32,9.84,30.89
210258805,0.001727,0.001643,-0.002061,0.07,-0.3,9.83,30.87
210259815,0.000662,0.001643,0.001135,0.05,-0.3,9.82,30.87
210260823,-0.000404,0.001643,0.001135,0.01,-0.32,9.86,30.89
210261835,-0.002534,0.000578,0.001135,0.02,-0.28,9.87,30.91
210262860,-0.002534,0.000578,0.0022,0.02,-0.27,9.86,30.94
210263878,-0.000404,-0.000487,0.001135,0.0,-0.29,9.89,30.93
210264860,0.001727,-0.000487,7e-05,0.0,-0.29,9.88,30.92
210265871,0.002792,0.000578,7e-05,0.03,-0.33,9.83,30.9
210266880,0.002792,0.001643,-0.000996,0.04,-0.34,9.83,30.88
210267891,0.001727,0.000578,-0.002061,0.03,-0.3,9.81,30.88
210268901,-0.000404,0.000578,-0.000996,-0.02,-0.3,9.82,30.86
210269911,-0.001469,-0.000487,7e-05,-0.02,-0.3,9.85,30.87
210270920,-0.002534,-0.000487,0.0022,0.02,-0.31,9.84,30.87
210271931,-0.002534,-0.001552,0.001135,0.04,-0.3,9.83,30.92
210272940,-0.001469,-0.003683,7e-05,0.02,-0.3,9.83,30.92
210273961,-0.002534,-0.003683,-0.000996,0.0,-0.32,9.87,30.92
210274960,-0.004665,-0.001552,7e-05,-0.02,-0.35,9.86,30.92
210275971,-0.002534,-0.000487,0.0022,0.02,-0.32,9.8,30.89
210276980,0.001727,0.000578,0.0022,0.05,-0.29,9.81,30.88
210277991,0.003857,0.001643,0.001135,0.03,-0.3,9.85,30.88
210279001,0.002792,0.000578,7e-05,0.03,-0.29,9.84,30.88
210280011,0.002792,-0.000487,-0.002061,0.02,-0.29,9.8,30.88
210281020,0.000662,0.000578,-0.000996,0.0,-0.29,9.79,30.9
210282031,0.000662,0.000578,7e-05,0.02,-0.3,9.82,30.86
210283040,0.000662,-0.000487,7e-05,0.05,-0.32,9.81,30.87
210284059,0.000662,-0.001552,-0.002061,0.02,-0.33,9.82,30.9
210285060,0.001727,-0.001552,-0.002061,0.02,-0.33,9.86,30.88
210286071,0.002792,-0.000487,-0.000996,0.05,-0.33,9.84,30.85
210287080,0.001727,0.000578,0.001135,0.06,-0.34,9.84,30.83
210288091,0.001727,-0.000487,0.001135,0.06,-0.33,9.86,30.86
210289101,-0.000404,-0.003683,0.001135,0.06,-0.3,9.86,30.85
210290111,0.000662,-0.004748,0.001135,0.05,-0.27,9.81,30.86
210291120,0.001727,-0.002618,0.001135,0.02,-0.29,9.76,30.88
210292131,0.000662,-0.000487,7e-05,0.01,-0.31,9.78,30.9
210293140,-0.000404,-0.000487,0.001135,-0.01,-0.3,9.86,30.91
210294161,0.000662,-0.002618,0.001135,0.02,-0.28,9.87,30.82
210295160,-0.000404,-0.001552,7e-05,0.06,-0.29,9.82,30.79
210296171,0.000662,0.000578,-0.002061,0.04,-0.31,9.85,30.8
210297180,0.000662,0.001643,-0.002061,0.04,-0.31,9.87,30.83
210298191,-0.000404,0.002709,-0.000996,0.03,-0.32,9.81,30.86
210299201,-0.001469,-0.000487,0.001135,0.01,-0.32,9.82,30.86
210300211,-0.001469,-0.002618,0.004331,0.0,-0.32,9.82,30.89
210301220,-0.000404,0.000578,0.004331,0.01,-0.33,9.82,30.91
210302231,0.001727,0.001643,0.0022,0.03,-0.3,9.81,30.88
210303240,0.001727,-0.000487,0.0022,0.06,-0.28,9.77,30.88
210304259,-0.000404,-0.000487,0.0022,0.05,-0.29,9.86,30.89
210305260,-0.001469,0.000578,0.001135,0.02,-0.3,9.89,30.89
210306271,-0.001469,0.001643,-0.000996,0.02,-0.35,9.84,30.88
210307281,0.000662,0.001643,-0.000996,0.01,-0.34,9.85,30.88
210308292,0.000662,0.000578,7e-05,0.03,-0.3,9.82,30.91
210309302,-0.000404,0.000578,-0.000996,0.04,-0.29,9.83,30.9
210310312,0.000662,0.000578,-0.002061,0.04,-0.31,9.87,30.92
210311321,-0.000404,0.000578,-0.000996,0.07,-0.35,9.85,30.96
210312332,-0.001469,0.001643,7e-05,0.03,-0.34,9.82,30.9
210313341,-0.001469,0.000578,7e-05,0.01,-0.34,9.83,30.88
210314362,-0.001469,-0.001552,7e-05,0.01,-0.32,9.83,30.88
210315361,-0.001469,-0.003683,7e-05,0.0,-0.31,9.82,30.88
210316372,-0.000404,-0.001552,-0.000996,0.03,-0.33,9.82,30.89
210317381,-0.000404,-0.000487,7e-05,0.04,-0.35,9.8,30.94
210318392,-0.001469,-0.000487,0.0022,0.04,-0.33,9.77,30.92
210319402,-0.000404,0.000578,0.001135,0.01,-0.32,9.79,30.91
210320462,0.000662,0.003774,-0.000996,0.03,-0.32,9.83,30.87
210321421,-0.001469,0.005905,-0.003126,0.04,-0.33,9.83,30.88
210322432,-0.001469,0.005905,-0.002061,0.01,-0.35,9.86,30.9
210323449,0.000662,0.004839,-0.000996,0.01,-0.32,9.86,30.87
210324451,0.000662,0.002709,-0.000996,0.03,-0.34,9.82,30.91
210325462,-0.000404,-0.000487,7e-05,0.03,-0.37,9.8,30.91
210326470,-0.000404,-0.002618,7e-05,0.02,-0.35,9.8,30.9
210327496,0.000662,-0.001552,7e-05,0.01,-0.34,9.86,30.9
210328490,0.001727,0.000578,0.001135,0.01,-0.31,9.85,30.85
210329502,0.001727,-0.001552,0.001135,0.03,-0.28,9.82,30.88
210330510,0.000662,-0.000487,7e-05,0.02,-0.3,9.91,30.88
210331521,-0.002534,0.002709,7e-05,-0.01,-0.32,9.88,30.91
210332530,-0.001469,0.001643,7e-05,-0.01,-0.33,9.85,30.91
210333548,0.000662,-0.000487,7e-05,0.0,-0.34,9.9,30.94
210334551,0.000662,-0.000487,7e-05,0.01,-0.34,9.88,30.91
210335561,-0.000404,0.000578,7e-05,0.01,-0.31,9.87,30.94
210336572,-0.000404,-0.000487,-0.000996,0.04,-0.29,9.86,30.95
210337582,-0.001469,-0.003683,-0.000996,0.04,-0.31,9.81,30.9
210338594,-0.001469,-0.003683,-0.000996,0.02,-0.3,9.83,30.88
210339609,-0.000404,-0.000487,-0.002061,0.02,-0.32,9.87,30.86
210340614,0.001727,0.001643,7e-05,0.03,-0.34,9.79,30.91
210341629,0.001727,0.002709,0.0022,0.04,-0.33,9.76,30.93
210342641,0.000662,0.001643,0.0022,0.05,-0.31,9.83,30.93
210343659,-0.002534,0.000578,0.003265,0.04,-0.31,9.81,30.87
210344660,-0.0036,-0.000487,0.0022,0.03,-0.34,9.78,30.85
210345670,-0.0036,-0.002618,7e-05,0.02,-0.34,9.78,30.85
210346680,-0.0036,-0.001552,0.001135,0.02,-0.36,9.8,30.86
210347691,-0.0036,0.000578,0.0022,0.01,-0.34,9.82,30.87
210348702,-0.001469,0.001643,0.001135,0.04,-0.31,9.81,30.88
210349714,0.000662,0.001643,7e-05,0.05,-0.31,9.83,30.91
210350722,0.000662,0.000578,7e-05,0.03,-0.33,9.83,30.93
210351731,0.000662,0.001643,-0.000996,0.02,-0.33,9.87,30.91
210352744,0.001727,0.001643,-0.000996,0.01,-0.3,9.86,30.92
210353758,0.001727,-0.000487,-0.000996,0.01,-0.27,9.86,30.91
210354763,0.000662,-0.002618,-0.000996,0.03,-0.29,9.87,30.9
210355771,-0.0036,-0.000487,0.001135,0.01,-0.32,9.79,30.85
210356776,-0.002534,0.000578,0.001135,0.03,-0.33,9.87,30.88
210357786,-0.000404,0.000578,0.001135,0.03,-0.33,9.86,30.89
210358791,0.000662,0.000578,7e-05,0.03,-0.33,9.82,30.9
210359807,-0.001469,0.000578,7e-05,0.04,-0.29,9.86,30.88
210360815,-0.000404,0.001643,0.001135,0.04,-0.29,9.87,30.85
210361825,0.002792,0.002709,0.0022,0.03,-0.33,9.84,30.87
210362835,0.001727,0.003774,0.001135,0.02,-0.31,9.81,30.88
210363852,0.000662,0.003774,7e-05,0.01,-0.3,9.84,30.88
210364887,0.001744,0.001647,0.001107,0.02,-0.32,9.86,30.9
210365866,0.001744,0.000582,4.2e-05,0.04,-0.31,9.85,30.88
210366871,-0.001451,-0.001549,-0.002088,0.04,-0.32,9.86,30.85
210367882,-0.001451,-0.001549,-0.003154,0.05,-0.33,9.86,30.88
210368891,0.000679,0.000582,-0.002088,0.03,-0.31,9.82,30.88
210369904,0.001744,0.001647,-0.002088,0.02,-0.31,9.85,30.87
210370911,-0.000386,0.000582,-0.001023,0.02,-0.31,9.85,30.88
210371922,-0.000386,-0.000484,-0.001023,0.0,-0.29,9.85,30.86
210372931,0.000679,0.000582,4.2e-05,-0.02,-0.29,9.89,30.85
210373949,0.000679,-0.000484,4.2e-05,0.0,-0.34,9.88,30.85
210374952,0.001744,-0.001549,4.2e-05,0.0,-0.36,9.84,30.91
210375962,0.001744,-0.001549,0.001107,-0.01,-0.33,9.83,30.89
210376971,0.001744,0.001647,0.001107,0.02,-0.32,9.83,30.85
210377982,0.001744,0.001647,4.2e-05,0.02,-0.33,9.86,30.87
210378991,0.00281,-0.000484,-0.001023,0.04,-0.33,9.9,30.91
210380004,0.003875,-0.003679,-0.002088,0.06,-0.33,9.85,30.93
210381011,0.00281,-0.001549,-0.003154,0.03,-0.34,9.82,30.94
210382022,0.00281,0.000582,-0.001023,0.02,-0.31,9.81,30.91
210383031,0.001744,0.000582,4.2e-05,0.03,-0.29,9.81,30.86
210384049,0.001744,-0.002614,4.2e-05,0.01,-0.32,9.83,30.86
210385051,0.000679,-0.004745,0.001107,0.03,-0.3,9.82,30.87
210386061,-0.000386,-0.004745,0.001107,0.04,-0.29,9.82,30.88
210387070,-0.001451,-0.001549,0.002173,0.03,-0.31,9.84,30.87
210388081,-0.001451,-0.000484,0.003238,0.02,-0.31,9.84,30.86
210389090,-0.002517,-0.001549,0.004303,0.03,-0.31,9.83,30.9
210390104,-0.002517,-0.001549,0.004303,0.02,-0.29,9.86,30.87
210391111,0.000679,-0.001549,0.003238,0.04,-0.29,9.86,30.83
210392122,0.00281,-0.002614,0.001107,0.05,-0.33,9.87,30.83
210393131,0.001744,-0.004745,0.001107,0.05,-0.34,9.87,30.87
210394149,-0.000386,-0.004745,0.002173,0.04,-0.34,9.81,30.87
210395152,-0.001451,-0.003679,0.002173,0.02,-0.34,9.79,30.88
210396162,-0.001451,-0.003679,4.2e-05,0.04,-0.29,9.81,30.89
210397171,-0.000386,-0.002614,0.001107,0.08,-0.3,9.81,30.87
210398182,0.000679,-0.001549,0.002173,0.06,-0.33,9.79,30.88
210399191,0.000679,0.000582,0.002173,0.05,-0.33,9.79,30.85
210400204,0.000679,-0.000484,0.001107,0.02,-0.32,9.79,30.86
210401211,-0.000386,-0.000484,4.2e-05,-0.02,-0.32,9.75,30.83
210402222,-0.001451,0.000582,4.2e-05,0.01,-0.31,9.77,30.88
210403231,-0.001451,0.001647,-0.001023,0.04,-0.3,9.84,30.9
210404249,-0.000386,0.000582,-0.001023,0.04,-0.32,9.83,30.82
210405251,-0.002517,-0.001549,-0.001023,0.04,-0.32,9.8,30.79
210406262,-0.000386,-0.001549,-0.002088,0.02,-0.32,9.84,30.89
210407271,0.000679,0.001647,-0.001023,0.03,-0.33,9.86,30.9
210408282,-0.000386,0.002712,0.001107,0.01,-0.33,9.83,30.87
210409291,0.000679,0.000582,0.001107,-0.01,-0.31,9.81,30.87
210410304,0.000679,-0.000484,-0.001023,0.0,-0.3,9.83,30.87
210411311,0.000679,-0.001549,-0.002088,0.0,-0.29,9.87,30.87
210412322,0.001744,-0.000484,-0.001023,0.01,-0.28,9.83,30.88
210413331,0.001744,0.000582,4.2e-05,0.02,-0.3,9.77,30.88
210414349,-0.000386,0.000582,0.002173,0.03,-0.31,9.8,30.86
210415352,-0.001451,0.000582,0.001107,0.02,-0.31,9.86,30.88
210416376,-0.000386,-0.001549,-0.001023,0.01,-0.32,9.89,30.88
210417371,0.001744,-0.002614,-0.001023,-0.01,-0.31,9.9,30.85
210418382,0.00281,-0.002614,0.001107,0.01,-0.33,9.83,30.86
210419391,0.00281,-0.000484,0.001107,0.05,-0.34,9.78,30.86
210420404,0.003875,-0.000484,0.002173,0.02,-0.32,9.82,30.87
210421411,0.00281,-0.000484,0.003238,0.0,-0.32,9.85,30.87
210422422,0.001744,0.001647,0.002173,0.0,-0.34,9.82,30.88
210423439,0.000679,0.001647,-0.002088,0.01,-0.34,9.83,30.88
210424468,-0.001451,-0.001549,-0.003154,0.03,-0.32,9.86,30.85
210425452,-0.002517,-0.002614,-0.001023,0.02,-0.31,9.85,30.87
210426461,-0.002517,-0.000484,0.003238,0.01,-0.32,9.88,30.86
210427472,-0.001451,0.000582,0.005369,0.04,-0.32,9.88,30.86
210428481,-0.000386,0.001647,0.005369,0.03,-0.3,9.84,30.89
210429492,-0.000386,0.001647,0.004303,0.02,-0.31,9.84,30.9
210430547,0.000679,-0.001549,0.001107,0.04,-0.33,9.84,30.88
210431512,0.001744,-0.001549,4.2e-05,0.02,-0.3,9.85,30.89
210432521,-0.000386,0.000582,-0.001023,0.01,-0.3,9.85,30.9
210433545,-0.002517,0.000582,4.2e-05,0.02,-0.33,9.87,30.89
210434541,-0.001451,0.001647,0.001107,0.04,-0.33,9.9,30.89
210435554,0.000679,0.001647,-0.001023,0.04,-0.33,9.85,30.86
210436561,0.000679,0.000582,-0.001023,0.05,-0.34,9.86,30.83
210437579,-0.000386,-0.002614,-0.001023,0.04,-0.3,9.88,30.84
210438582,-0.000386,-0.002614,4.2e-05,0.02,-0.28,9.85,30.9
210439597,-0.001451,-0.000484,4.2e-05,0.03,-0.29,9.82,30.88
210440608,-0.001451,0.002712,-0.001023,0.02,-0.3,9.82,30.9
210441630,-0.001451,0.003777,4.2e-05,0.0,-0.32,9.8,30.89
210442628,-0.001451,0.001647,0.001107,0.01,-0.31,9.81,30.9
210443658,-0.001451,0.000582,0.003238,0.01,-0.28,9.85,30.88
210444648,-0.000386,0.000582,0.003238,0.02,-0.3,9.83,30.89
210445664,0.001744,-0.000484,-0.001023,0.05,-0.29,9.84,30.89
210446670,0.00281,-0.002614,-0.003154,0.02,-0.3,9.89,30.87
210447685,0.001744,-0.002614,-0.002088,0.01,-0.33,9.84,30.86
210448690,-0.000386,-0.001549,-0.001023,0.02,-0.3,9.81,30.87
210449701,-0.002517,-0.000484,4.2e-05,0.04,-0.29,9.86,30.88
210450714,-0.002517,-0.001549,4.2e-05,0.03,-0.31,9.87,30.88
210451729,0.000679,0.000582,-0.001023,-0.02,-0.31,9.87,30.89
210452740,0.003875,0.003777,-0.001023,0.0,-0.32,9.86,30.91
210453748,0.001744,0.003777,-0.001023,0.04,-0.32,9.88,30.89
210454751,0.000679,-0.000484,-0.003154,0.03,-0.33,9.89,30.91
210455766,-0.000386,0.000582,-0.004219,0.03,-0.26,9.76,30.91
210456770,-0.001451,0.003777,-0.003154,0.04,-0.27,9.82,30.89
210457777,-0.000386,0.003777,-0.001023,0.05,-0.33,9.84,30.9
210458784,-0.000386,-0.000484,-0.001023,0.03,-0.34,9.86,30.86
210459793,-0.002517,-0.002614,-0.001023,0.01,-0.33,9.86,30.84
210460806,-0.004647,-0.000484,4.2e-05,0.01,-0.28,9.84,30.86
210461817,-0.005713,0.001647,0.002173,0.0,-0.25,9.86,30.89
210462824,-0.002517,0.001647,0.001107,0.02,-0.31,9.87,30.88
210463844,0.001744,0.000582,0.001107,0.03,-0.34,9.86,30.86
210464843,0.00494,-0.000484,0.001107,0.03,-0.32,9.81,30.87
210465854,0.001744,0.000582,0.002173,0.04,-0.32,9.78,30.9
210466861,-0.001451,0.000582,4.2e-05,0.02,-0.3,9.84,30.88
210467872,-0.001451,-0.001549,-0.002088,0.02,-0.28,9.89,30.86
210468881,0.001744,-0.001549,-0.003154,0.04,-0.3,9.83,30.86
210469892,0.00494,-0.000484,4.2e-05,0.05,-0.34,9.82,30.85
210470902,0.00494,0.000582,0.001107,0.04,-0.33,9.83,30.87
210471912,0.00281,0.001647,0.001107,0.02,-0.29,9.83,30.86
210472921,0.001744,0.000582,0.001107,0.0,-0.27,9.85,30.91
210473939,0.003875,-0.002614,0.001107,-0.02,-0.27,9.84,30.89
210474941,0.00281,-0.002614,0.001107,0.0,-0.29,9.83,30.86
210475954,0.000679,-0.001549,0.002173,0.01,-0.34,9.82,30.89
210476961,0.000679,-0.001549,0.002173,0.04,-0.34,9.82,30.9
210477972,-0.000386,-0.001549,4.2e-05,0.05,-0.32,9.83,30.85
210478981,-0.001451,-0.000484,-0.002088,0.04,-0.32,9.82,30.85
210479992,0.000679,0.000582,-0.003154,0.02,-0.32,9.78,30.84
210481002,0.003875,0.000582,-0.002088,-0.01,-0.29,9.79,30.85
210482012,0.00281,-0.000484,4.2e-05,0.03,-0.3,9.8,30.87
210483021,-0.000386,-0.001549,0.002173,0.07,-0.33,9.78,30.9
210484039,-0.003582,0.000582,0.002173,0.05,-0.33,9.78,30.85
210485041,-0.002517,0.001647,0.002173,0.05,-0.3,9.82,30.86
210486052,0.000679,0.000582,0.002173,0.06,-0.27,9.86,30.9
210487061,-0.000386,0.000582,0.002173,0.04,-0.29,9.85,30.9
210488072,-0.000386,-0.002614,0.002173,0.01,-0.3,9.78,30.86
210489081,-0.001451,-0.003679,0.001107,0.01,-0.33,9.75,30.84
210490092,0.000679,-0.00581,-0.002088,0.04,-0.34,9.77,30.87
210491102,0.001744,-0.006875,-0.003154,0.02,-0.32,9.77,30.89
210492112,0.00281,-0.00581,-0.004219,0.01,-0.31,9.78,30.89
210493121,0.001744,-0.002614,-0.001023,0.04,-0.34,9.84,30.9
210494174,0.00064,-0.00148,2.2e-05,0.02,-0.34,9.86,30.89
210495145,-0.000425,-0.000414,0.001087,0.04,-0.32,9.82,30.86
210496154,-0.00149,0.001716,0.002153,0.03,-0.32,9.8,30.86
210497161,-0.00149,0.000651,0.002153,0.01,-0.31,9.82,30.9
210498172,-0.002555,-0.000414,2.2e-05,0.03,-0.31,9.83,30.91
210499181,-0.00149,-0.00148,2.2e-05,0.05,-0.33,9.82,30.92
210500192,-0.000425,0.000651,0.001087,0.05,-0.34,9.77,30.91
210501202,-0.000425,0.002781,0.003218,0.03,-0.3,9.78,30.91
210502212,-0.00149,0.002781,0.002153,0.01,-0.28,9.84,30.88
210503221,-0.00149,0.000651,-0.001043,0.02,-0.3,9.85,30.9
210504239,0.00064,-0.00148,-0.002108,0.05,-0.3,9.82,30.91
210505241,0.002771,-0.002545,2.2e-05,0.05,-0.29,9.85,30.92
210506252,0.003836,-0.00148,0.001087,-0.02,-0.29,9.9,30.91
210507261,0.001706,-0.000414,0.001087,-0.02,-0.3,9.84,30.88
210508272,-0.000425,-0.000414,2.2e-05,0.03,-0.31,9.82,30.86
210509281,-0.000425,0.000651,-0.001043,0.02,-0.31,9.82,30.88
210510292,-0.000425,0.001716,0.001087,0.01,-0.35,9.8,30.91
210511302,0.00064,0.000651,0.001087,0.03,-0.34,9.79,30.88
210512312,0.00064,-0.00148,2.2e-05,0.02,-0.31,9.82,30.84
210513321,-0.000425,-0.000414,2.2e-05,0.02,-0.31,9.81,30.86
210514339,-0.002555,0.001716,0.001087,0.02,-0.32,9.8,30.89
210515341,-0.00149,0.000651,0.002153,-0.01,-0.33,9.85,30.83
210516354,-0.000425,-0.000414,0.001087,-0.02,-0.32,9.83,30.85
210517361,0.00064,0.000651,2.2e-05,0.0,-0.31,9.81,30.85
210518372,0.00064,0.002781,2.2e-05,0.01,-0.29,9.82,30.91
210519381,0.00064,0.002781,-0.001043,0.02,-0.25,9.79,30.93
210520392,-0.000425,0.001716,-0.001043,0.05,-0.3,9.84,30.9
210521402,0.00064,-0.000414,2.2e-05,0.06,-0.34,9.86,30.88
210522412,0.00064,-0.002545,2.2e-05,0.04,-0.32,9.82,30.87
210523429,-0.00149,-0.00148,-0.001043,0.01,-0.29,9.84,30.86
210524431,-0.004686,-0.000414,-0.002108,0.02,-0.27,9.82,30.91
210525442,-0.003621,-0.000414,-0.002108,0.02,-0.28,9.82,30.88
210526501,-0.002555,-0.00361,2.2e-05,0.0,-0.3,9.84,30.89
210527462,-0.002555,-0.00361,0.002153,0.01,-0.32,9.84,30.87
210528471,-0.002555,-0.00148,0.002153,0.01,-0.32,9.81,30.89
210529482,-0.000425,0.001716,-0.001043,0.01,-0.31,9.8,30.89
210530491,0.00064,0.004912,-0.003174,0.03,-0.32,9.8,30.93
210531504,-0.000425,0.003847,-0.002108,0.03,-0.31,9.8,30.89
210532511,-0.00149,0.001716,0.001087,0.02,-0.3,9.8,30.89
210533529,-0.00149,-0.000414,0.002153,0.02,-0.32,9.79,30.88
210534531,-0.000425,-0.002545,0.001087,0.02,-0.32,9.8,30.88
210535542,0.00064,-0.00148,-0.001043,0.01,-0.31,9.81,30.87
210536552,0.00064,-0.000414,2.2e-05,0.05,-0.33,9.83,30.89
210537562,0.00064,-0.00148,2.2e-05,0.07,-0.37,9.81,30.89
210538578,0.00064,-0.002545,0.001087,0.04,-0.35,9.81,30.88
210539585,0.001706,-0.00361,0.002153,0.05,-0.35,9.81,30.88
210540595,0.001706,-0.00148,0.001087,0.06,-0.35,9.82,30.89
210541609,0.00064,0.000651,0.001087,0.05,-0.32,9.88,30.88
210542615,-0.00149,0.000651,2.2e-05,0.06,-0.3,9.86,30.89
210543648,-0.002555,0.000651,2.2e-05,0.01,-0.29,9.82,30.89
210544642,-0.002555,0.001716,2.2e-05,0.01,-0.28,9.83,30.9
210545649,-0.004686,0.000651,2.2e-05,0.03,-0.29,9.85,30.89
210546665,-0.004686,0.000651,2.2e-05,0.02,-0.31,9.8,30.89
210547670,-0.00149,-0.00148,2.2e-05,0.04,-0.31,9.84,30.9
210548683,-0.00149,-0.002545,2.2e-05,0.07,-0.31,9.83,30.9
210549688,-0.000425,0.000651,-0.002108,0.09,-0.31,9.76,30.87
210550702,0.001706,0.002781,-0.003174,0.06,-0.32,9.78,30.84
210551714,0.001706,0.001716,-0.001043,0.04,-0.33,9.85,30.84
210552723,-0.000425,0.000651,0.002153,0.04,-0.34,9.87,30.82
210553739,-0.00149,-0.00148,0.003218,0.01,-0.35,9.87,30.88
210554739,-0.000425,-0.002545,0.003218,0.0,-0.32,9.83,30.92
210555752,-0.00149,-0.000414,0.001087,0.03,-0.29,9.84,30.9
210556763,-0.00149,-0.002545,-0.002108,0.03,-0.33,9.83,30.87
210557770,-0.000425,-0.004676,-0.002108,0.03,-0.32,9.86,30.87
210558776,-0.00149,-0.004676,0.001087,0.03,-0.32,9.82,30.91
210559786,-0.00149,-0.002545,0.001087,0.01,-0.33,9.83,30.89
210560791,0.00064,-0.00148,2.2e-05,0.03,-0.29,9.87,30.9
210561807,0.00064,-0.00148,2.2e-05,0.0,-0.3,9.85,30.89
210562815,0.001706,-0.002545,2.2e-05,-0.02,-0.3,9.83,30.87
210563832,0.00064,-0.00361,2.2e-05,0.01,-0.27,9.85,30.85
210564835,0.00064,-0.00361,0.001087,0.02,-0.28,9.83,30.86
210565845,-0.000425,-0.00361,2.2e-05,0.01,-0.31,9.8,30.9
210566853,-0.002555,-0.00148,-0.001043,0.01,-0.32,9.83,30.94
210567862,-0.002555,0.000651,-0.001043,0.02,-0.32,9.87,30.96
210568871,0.00064,-0.000414,2.2e-05,0.04,-0.33,9.86,30.94
210569882,0.001706,-0.00148,-0.001043,0.05,-0.33,9.82,30.89
210570891,-0.000425,-0.000414,-0.002108,-0.02,-0.29,9.86,30.86
210571904,-0.00149,-0.000414,-0.001043,-0.02,-0.3,9.84,30.82
210572911,-0.00149,0.000651,2.2e-05,0.0,-0.32,9.83,30.83
210573929,-0.00149,0.000651,0.001087,0.02,-0.31,9.82,30.83
210574931,-0.002555,0.001716,0.001087,0.03,-0.31,9.81,30.88
210575942,-0.00149,-0.000414,2.2e-05,0.02,-0.31,9.86,30.89
210576952,-0.002555,0.000651,-0.001043,0.02,-0.3,9.9,30.87
210577962,-0.00149,0.001716,-0.001043,0.02,-0.32,9.87,30.85
210578971,0.00064,0.002781,2.2e-05,0.02,-0.34,9.82,30.89
210579982,0.00064,0.002781,0.001087,0.05,-0.33,9.86,30.88
210580991,0.00064,0.002781,0.003218,0.07,-0.32,9.86,30.83
210582004,-0.000425,0.001716,0.002153,0.03,-0.32,9.83,30.87
210583011,-0.002555,0.001716,0.001087,0.02,-0.33,9.81,30.89
210584029,-0.00149,0.000651,0.001087,0.04,-0.32,9.8,30.89
210585031,0.001706,-0.00148,-0.002108,0.03,-0.32,9.83,30.87
210586042,0.001706,-0.002545,-0.002108,0.03,-0.32,9.82,30.86
210587051,0.00064,-0.00361,-0.001043,0.04,-0.29,9.8,30.85
210588062,0.00064,-0.00148,0.001087,0.02,-0.31,9.82,30.86
210589071,-0.000425,-0.000414,0.002153,0.02,-0.33,9.79,30.87
210590082,-0.00149,-0.000414,0.001087,0.02,-0.33,9.78,30.9
210591091,-0.000425,-0.00148,0.001087,-0.02,-0.34,9.8,30.89
210592104,0.00064,-0.002545,2.2e-05,-0.05,-0.32,9.77,30.87
210593111,-0.000425,-0.00148,-0.001043,-0.02,-0.31,9.8,30.89
210594129,-0.000425,-0.000414,-0.002108,0.03,-0.33,9.86,30.84
210595131,0.001706,-0.00148,2.2e-05,0.03,-0.31,9.86,30.86
210596142,0.00064,-0.00148,0.002153,0.02,-0.29,9.83,30.89
210597152,-0.002555,-0.000414,0.002153,0.01,-0.33,9.81,30.94
210598162,-0.002555,0.001716,0.001087,-0.01,-0.33,9.81,30.94
210599171,-0.000425,0.003847,2.2e-05,0.01,-0.3,9.8,30.93
210600182,0.00064,0.002781,2.2e-05,0.04,-0.29,9.8,30.89
210601191,0.00064,0.001716,0.001087,0.04,-0.3,9.79,30.92
210602204,-0.000425,-0.000414,0.003218,0.04,-0.31,9.77,30.91
210603211,-0.000425,-0.00148,0.003218,0.03,-0.31,9.81,30.91
210604229,-0.000425,-0.000414,0.002153,0.02,-0.28,9.82,30.86
210605231,-0.00149,0.000651,0.002153,0.02,-0.3,9.83,30.91
210606242,-0.000425,0.000651,0.003218,0.04,-0.32,9.81,30.87
210607251,0.002771,-0.000414,0.001087,0.02,-0.32,9.8,30.85
210608262,0.001706,0.000651,2.2e-05,0.01,-0.32,9.82,30.88
210609271,-0.000425,0.001716,2.2e-05,0.03,-0.31,9.82,30.89
210610282,-0.000425,0.002781,-0.001043,0.02,-0.32,9.85,30.9
210611291,0.00064,0.001716,2.2e-05,0.01,-0.34,9.83,30.91
210612304,0.001706,0.000651,-0.001043,0.03,-0.32,9.79,30.89
210613311,0.00064,0.001716,-0.001043,0.04,-0.29,9.79,30.88
210614329,0.00064,0.002781,-0.001043,0.01,-0.31,9.83,30.85
210615331,0.001706,0.000651,-0.001043,0.02,-0.31,9.8,30.89
210616342,0.002771,0.000651,-0.001043,0.06,-0.32,9.77,30.9
210617352,0.003836,0.001716,0.001087,0.05,-0.32,9.8,30.86
210618362,0.003836,0.000651,0.001087,0.0,-0.31,9.82,30.86
210619371,-0.000425,-0.000414,-0.002108,0.0,-0.32,9.82,30.88
210620382,-0.003621,-0.00148,-0.001043,0.04,-0.33,9.82,30.87
210621391,-0.005751,-0.00148,0.001087,0.02,-0.35,9.86,30.88
210622404,-0.003621,-0.00148,2.2e-05,0.03,-0.31,9.86,30.87
210623454,-0.000373,-0.000397,-0.002138,0.04,-0.29,9.85,30.91
210624425,0.000693,-0.001462,-0.003203,0.02,-0.31,9.88,30.89
210625432,0.000693,-0.002527,-0.003203,0.0,-0.31,9.87,30.94
210626441,-0.000373,-0.001462,-0.002138,0.01,-0.3,9.82,30.88
210627498,-0.001438,0.000669,-0.002138,0.05,-0.33,9.82,30.87
210628461,-0.000373,0.001734,-0.001073,0.08,-0.34,9.81,30.87
210629472,0.000693,0.001734,-8e-06,0.04,-0.34,9.82,30.88
210630481,-0.000373,0.001734,-8e-06,0.02,-0.34,9.85,30.88
210631492,-0.002503,0.000669,0.001058,0.03,-0.34,9.83,30.86
210632502,-0.004634,-0.001462,0.002123,0.0,-0.35,9.82,30.9
210633519,-0.001438,-0.000397,0.001058,0.0,-0.34,9.82,30.89
210634521,-0.000373,0.001734,-8e-06,0.03,-0.31,9.8,30.91
210635532,-0.001438,0.002799,0.001058,0.01,-0.3,9.82,30.89
210636541,-0.001438,0.002799,0.004254,-0.01,-0.34,9.83,30.88
210637554,0.001758,0.002799,0.003188,0.04,-0.33,9.84,30.88
210638561,0.000693,0.000669,0.003188,0.05,-0.32,9.87,30.85
210639579,0.000693,-0.001462,0.003188,0.03,-0.32,9.9,30.85
210640583,-0.000373,-0.001462,0.002123,0.03,-0.3,9.86,30.86
210641597,-0.000373,-0.000397,-8e-06,0.02,-0.28,9.79,30.86
210642607,0.000693,-0.000397,-8e-06,0.02,-0.31,9.8,30.86
210643637,-0.000373,-0.000397,-8e-06,0.02,-0.34,9.83,30.85
210644628,-0.002503,0.000669,-8e-06,0.04,-0.33,9.84,30.87
210645642,-0.002503,0.000669,-0.001073,0.05,-0.31,9.81,30.89
210646646,-0.000373,-0.000397,-0.001073,0.0,-0.3,9.86,30.91
210647660,0.001758,-0.001462,-8e-06,0.0,-0.31,9.87,30.93
210648669,0.001758,-0.001462,-0.001073,0.05,-0.29,9.81,30.88
210649683,0.000693,-0.000397,-0.001073,0.05,-0.31,9.83,30.86
210650689,0.000693,-0.000397,-0.001073,0.04,-0.31,9.86,30.86
210651701,-0.000373,0.001734,-0.001073,0.02,-0.3,9.88,30.89
210652718,0.000693,0.00493,-0.002138,0.02,-0.31,9.89,30.92
210653728,0.000693,0.00493,-0.002138,0.05,-0.33,9.83,30.91
210654731,-0.001438,0.003865,-0.001073,0.03,-0.34,9.87,30.88
210655741,-0.002503,-0.000397,-0.001073,0.02,-0.36,9.79,30.87
210656751,-0.002503,-0.003592,-0.002138,0.04,-0.33,9.77,30.83
210657766,-0.001438,-0.001462,-0.002138,0.03,-0.33,9.79,30.82
210658768,0.000693,0.001734,-0.002138,0.02,-0.33,9.84,30.81
210659777,0.000693,0.002799,-0.002138,0.04,-0.33,9.82,30.82
210660784,-0.000373,0.001734,-0.002138,0.05,-0.34,9.82,30.88
210661793,-0.000373,0.000669,-0.002138,0.04,-0.32,9.85,30.88
210662806,0.000693,0.000669,-0.002138,0.01,-0.33,9.88,30.9
210663822,0.001758,0.000669,-0.001073,0.02,-0.34,9.89,30.92
210664824,0.001758,-0.000397,-0.001073,0.01,-0.32,9.87,30.9
210665836,0.000693,-0.000397,-0.001073,0.04,-0.3,9.84,30.9
210666843,0.000693,0.002799,-8e-06,0.05,-0.34,9.82,30.87
210667854,0.000693,0.003865,-8e-06,0.02,-0.34,9.78,30.88
210668861,0.000693,0.001734,-8e-06,0.02,-0.3,9.78,30.88
210669872,0.000693,0.000669,0.001058,0.01,-0.3,9.82,30.87
210670881,0.000693,0.001734,0.001058,0.02,-0.29,9.81,30.88
210671892,0.000693,0.001734,-8e-06,0.03,-0.29,9.8,30.87
210672902,-0.000373,0.001734,-8e-06,0.01,-0.31,9.83,30.91
210673919,0.000693,-0.000397,-8e-06,-0.01,-0.31,9.84,30.91
210674921,0.001758,-0.000397,0.001058,0.01,-0.32,9.82,30.89
210675932,0.003888,-0.000397,0.002123,0.04,-0.31,9.81,30.82
210676941,0.004954,-0.002527,0.003188,0.03,-0.3,9.83,30.88
210677954,0.003888,-0.002527,0.002123,0.04,-0.31,9.86,30.91
210678961,0.001758,-0.003592,0.001058,0.06,-0.29,9.84,30.91
210679972,-0.000373,-0.002527,-0.001073,0.05,-0.31,9.84,30.91
210680981,-0.003569,0.000669,-8e-06,0.04,-0.32,9.85,30.87
210681992,-0.003569,0.002799,0.002123,0.04,-0.33,9.81,30.9
210683002,-0.001438,0.002799,0.002123,0.02,-0.33,9.81,30.91
210684019,-0.001438,0.002799,-8e-06,0.02,-0.31,9.81,30.92
210685021,-0.000373,0.000669,-0.001073,0.02,-0.31,9.83,30.88
210686032,0.001758,-0.001462,-0.001073,0.03,-0.29,9.83,30.89
210687041,0.001758,-0.002527,-0.001073,0.0,-0.29,9.85,30.91
210688052,-0.000373,-0.000397,-8e-06,-0.01,-0.3,9.86,30.88
210689061,-0.001438,0.001734,0.001058,0.07,-0.3,9.83,30.86
210690072,-0.002503,0.003865,-8e-06,0.09,-0.32,9.89,30.86
210691081,-0.000373,0.001734,-8e-06,0.03,-0.3,9.87,30.86
210692092,0.001758,-0.000397,-8e-06,0.0,-0.3,9.87,30.9
210693102,0.002823,0.000669,-0.001073,-0.01,-0.32,9.83,30.9
210694119,0.002823,0.000669,-8e-06,-0.02,-0.32,9.74,30.9
210695121,0.001758,0.001734,-0.001073,0.02,-0.32,9.79,30.9
210696132,-0.000373,0.000669,-0.002138,0.04,-0.35,9.84,30.89
210697141,-0.002503,-0.000397,-8e-06,0.02,-0.37,9.84,30.88
210698154,-0.002503,0.000669,0.002123,0.04,-0.31,9.85,30.88
210699161,-0.000373,0.002799,0.003188,0.06,-0.27,9.87,30.89
210700172,-0.000373,0.003865,0.002123,0.05,-0.3,9.85,30.9
210701181,-0.000373,0.00493,0.001058,0.01,-0.28,9.83,30.86
210702192,0.000693,0.003865,0.001058,0.01,-0.27,9.85,30.88
210703202,0.000693,0.001734,0.001058,0.04,-0.28,9.83,30.85
210704219,-0.000373,-0.000397,0.001058,0.02,-0.3,9.82,30.83
210705221,0.000693,-0.001462,0.001058,-0.02,-0.29,9.84,30.85
210706232,0.000693,-0.000397,-8e-06,0.0,-0.28,9.83,30.84
210707241,0.000693,-0.001462,0.001058,0.08,-0.28,9.81,30.87
210708252,0.000693,-0.001462,0.001058,0.08,-0.29,9.84,30.9
210709261,0.000693,-0.002527,-0.001073,0.02,-0.3,9.89,30.89
210710272,-0.000373,-0.002527,-8e-06,0.02,-0.31,9.86,30.9
210711281,-0.002503,-0.001462,0.002123,0.02,-0.32,9.8,30.92
210712292,-0.001438,-0.001462,0.003188,0.0,-0.31,9.81,30.91
210713302,0.001758,-0.000397,0.002123,0.03,-0.3,9.84,30.85
210714319,0.001758,0.000669,-0.001073,0.05,-0.29,9.85,30.85
210715321,-0.001438,0.001734,-0.003203,0.04,-0.31,9.84,30.88
210716332,-0.002503,-0.000397,-0.002138,0.05,-0.32,9.86,30.89
210717341,-0.001438,-0.001462,-8e-06,0.05,-0.32,9.91,30.89
210718354,-0.000373,0.000669,-8e-06,0.06,-0.33,9.87,30.86
210719361,0.000693,0.000669,-8e-06,0.07,-0.36,9.8,30.84
210720372,0.000693,-0.001462,0.001058,0.06,-0.37,9.83,30.87
210721381,0.000693,-0.000397,0.001058,0.05,-0.31,9.84,30.85
210722392,0.000693,0.002799,0.001058,0.03,-0.29,9.85,30.85
210723450,0.001758,0.003865,-8e-06,0.03,-0.32,9.82,30.88
210724411,-0.000373,0.003865,-8e-06,0.04,-0.32,9.78,30.88
210725422,-0.003569,0.001734,0.001058,0.04,-0.32,9.75,30.86
210726431,-0.002503,0.000669,0.001058,0.04,-0.34,9.78,30.88
210727442,-0.000373,0.001734,-8e-06,0.02,-0.33,9.81,30.89
210728451,-0.001438,0.000669,-8e-06,0.0,-0.33,9.86,30.89
210729462,-0.002503,-0.001462,-8e-06,0.01,-0.31,9.85,30.89
210730475,-0.003569,-0.000397,-8e-06,0.01,-0.29,9.82,30.88
210731482,-0.003569,0.000669,-8e-06,0.0,-0.33,9.81,30.85
210732491,-0.001438,-0.000397,0.001058,0.04,-0.33,9.78,30.87
210733512,-0.001438,-0.001462,0.001058,0.05,-0.34,9.81,30.86
210734511,-0.001438,-0.002527,-8e-06,0.04,-0.36,9.85,30.89
210735522,0.000693,-0.003592,0.001058,0.04,-0.34,9.79,30.91
210736531,0.003888,-0.002527,0.002123,0.02,-0.31,9.74,30.91
210737542,0.003888,-0.001462,0.002123,0.01,-0.31,9.76,30.87
210738562,0.002823,-0.001462,0.004254,0.01,-0.32,9.79,30.88
210739562,-0.000373,-0.002527,0.004254,0.02,-0.32,9.83,30.88
210740578,-0.000373,-0.000397,0.002123,0.01,-0.32,9.82,30.9
210741585,-0.000373,0.001734,-8e-06,0.01,-0.3,9.81,30.88
210742595,0.001758,0.001734,-0.002138,0.03,-0.3,9.82,30.85
210743629,0.001758,-0.001462,-0.002138,0.05,-0.28,9.88,30.87
210744615,0.000693,-0.001462,-0.001073,0.06,-0.31,9.87,30.87
210745630,0.000693,-0.000397,-0.001073,0.04,-0.33,9.8,30.89
210746642,-0.001438,-0.000397,-0.002138,0.02,-0.33,9.8,30.88
210747649,-0.002503,-0.000397,-0.001073,0.03,-0.35,9.83,30.88
210748668,-0.001438,0.001734,-8e-06,0.01,-0.34,9.81,30.86
210749670,-0.001438,0.001734,0.001058,0.01,-0.31,9.83,30.85
210750683,-0.000373,-0.001462,0.002123,0.06,-0.29,9.85,30.87
210751688,0.000693,-0.002527,0.001058,0.04,-0.31,9.81,30.88
210752743,-0.000362,-0.002562,0.002103,0.03,-0.32,9.82,30.9
210753725,-0.002492,-0.001496,0.003168,0.04,-0.32,9.84,30.93
210754723,-0.002492,-0.002562,0.003168,0.02,-0.33,9.83,30.88
210755732,-0.001427,-0.000431,0.001038,0.03,-0.31,9.82,30.9
210756739,0.000703,0.00383,-2.8e-05,0.03,-0.28,9.86,30.89
210757751,0.000703,0.004895,-2.8e-05,0.02,-0.28,9.86,30.88
210758772,-0.000362,0.00383,-0.001093,-0.01,-0.29,9.86,30.88
210759768,0.001769,0.0017,-0.003224,0.01,-0.3,9.88,30.89
210760774,0.002834,0.0017,-0.002158,0.03,-0.3,9.88,30.87
210761784,0.002834,0.0017,0.001038,0.02,-0.31,9.85,30.9
210762790,0.001769,0.000634,0.001038,0.03,-0.32,9.81,30.94
210763827,0.002834,0.000634,-0.001093,0.03,-0.33,9.81,30.94
210764814,0.003899,-0.000431,-0.003224,0.06,-0.32,9.82,30.9
210765825,0.000703,-0.002562,-0.002158,0.05,-0.32,9.83,30.91
210766834,-0.002492,-0.002562,-0.001093,0.02,-0.31,9.84,30.86
210767845,-0.002492,-0.002562,-0.001093,0.02,-0.3,9.83,30.85
210768862,-0.002492,-0.002562,-0.002158,0.01,-0.28,9.84,30.89
210769862,-0.001427,-0.003627,-0.002158,0.03,-0.26,9.82,30.89
210770871,-0.000362,0.000634,-2.8e-05,0.06,-0.27,9.82,30.88
210771882,0.000703,0.002765,0.001038,0.05,-0.28,9.8,30.89
210772891,0.000703,-0.000431,-2.8e-05,0.03,-0.32,9.78,30.89
210773912,0.000703,-0.002562,-2.8e-05,0.05,-0.31,9.78,30.9
210774911,0.001769,-0.002562,0.001038,0.05,-0.3,9.81,30.91
210775922,0.001769,-0.001496,0.002103,0.03,-0.33,9.84,30.91
210776931,0.000703,-0.004692,0.003168,0.04,-0.33,9.82,30.88
210777942,-0.000362,-0.003627,0.003168,0.04,-0.32,9.81,30.87
210778962,-0.002492,0.000634,0.002103,0.02,-0.35,9.81,30.89
210779962,-0.003558,0.0017,0.001038,0.02,-0.35,9.82,30.82
210780971,-0.000362,-0.000431,-2.8e-05,0.01,-0.31,9.83,30.86
210781982,0.001769,-0.001496,-0.002158,0.03,-0.3,9.78,30.88
210782991,0.000703,-0.000431,-0.004289,0.06,-0.3,9.78,30.93
210784013,-0.001427,-0.000431,-0.003224,0.05,-0.32,9.81,30.87
210785011,-0.001427,-0.001496,0.001038,0.02,-0.36,9.8,30.88
210786022,0.000703,-0.002562,0.003168,-0.01,-0.38,9.81,30.86
210787031,0.000703,-0.001496,0.002103,0.01,-0.36,9.83,30.9
210788042,-0.001427,-0.000431,0.001038,0.02,-0.34,9.87,30.9
210789061,-0.002492,0.000634,-2.8e-05,0.03,-0.34,9.89,30.9
210790062,-0.002492,0.000634,-0.001093,0.06,-0.35,9.84,30.88
210791071,-0.000362,-0.000431,-0.002158,0.04,-0.37,9.81,30.88
210792082,-0.000362,-0.002562,-0.001093,0.02,-0.34,9.83,30.91
210793091,-0.001427,-0.002562,-0.001093,0.0,-0.31,9.83,30.92
210794112,-0.001427,-0.001496,-2.8e-05,0.0,-0.33,9.86,30.86
210795111,0.000703,-0.001496,-2.8e-05,0.01,-0.33,9.87,30.85
210796122,0.003899,0.000634,-2.8e-05,0.01,-0.34,9.87,30.8
210797131,0.003899,0.0017,-0.001093,0.04,-0.31,9.86,30.83
210798142,0.002834,0.0017,-0.001093,0.06,-0.26,9.81,30.87
210799162,0.000703,0.0017,0.001038,0.03,-0.29,9.8,30.88
210800162,-0.001427,-0.000431,0.003168,0.03,-0.32,9.79,30.88
210801171,-0.001427,-0.002562,0.004233,0.04,-0.31,9.77,30.9
210802182,-0.000362,-0.003627,0.003168,0.03,-0.29,9.82,30.87
210803191,0.000703,-0.004692,0.001038,0.02,-0.28,9.86,30.86
210804213,0.000703,-0.002562,-0.001093,0.04,-0.31,9.82,30.82
210805210,-0.001427,-0.000431,-2.8e-05,0.03,-0.31,9.81,30.88
210806221,-0.001427,0.002765,-2.8e-05,0.03,-0.3,9.82,30.88
210807230,-0.001427,0.002765,-0.001093,0.03,-0.33,9.83,30.88
210808241,0.000703,-0.000431,-0.001093,0.01,-0.33,9.9,30.87
210809259,-0.000362,-0.002562,-0.001093,0.02,-0.33,9.87,30.89
210810261,-0.002492,-0.003627,-2.8e-05,0.04,-0.31,9.81,30.88
210811270,-0.001427,-0.000431,-0.001093,0.03,-0.33,9.79,30.88
210812281,-0.000362,0.000634,-0.003224,0.01,-0.34,9.83,30.91
210813290,-0.000362,0.000634,-0.001093,0.04,-0.33,9.86,30.9
210814311,-0.001427,-0.001496,0.001038,0.05,-0.36,9.84,30.91
210815310,-0.001427,-0.003627,-2.8e-05,0.03,-0.34,9.84,30.94
210816322,-0.001427,-0.004692,-0.002158,0.04,-0.31,9.84,30.92
210817331,-0.000362,-0.002562,-2.8e-05,0.05,-0.3,9.83,30.91
210818342,-0.000362,-0.001496,0.001038,0.01,-0.3,9.81,30.88
210819362,0.000703,-0.000431,-2.8e-05,0.0,-0.32,9.83,30.85
210820362,0.001769,-0.001496,-0.002158,0.04,-0.32,9.85,30.88
210821371,-0.000362,-0.001496,-0.001093,0.02,-0.3,9.84,30.88
210822382,-0.002492,-0.000431,-2.8e-05,0.01,-0.31,9.87,30.9
210823391,-0.002492,0.000634,-2.8e-05,0.02,-0.33,9.86,30.93
210824413,0.000703,-0.000431,-0.002158,0.01,-0.34,9.87,30.9
210825411,0.001769,-0.001496,-0.003224,0.01,-0.3,9.87,30.92
210826422,0.001769,-0.003627,-0.001093,0.02,-0.29,9.84,30.89
210827431,0.000703,-0.003627,0.002103,0.03,-0.33,9.83,30.85
210828442,0.000703,-0.001496,0.002103,0.03,-0.29,9.83,30.84
210829461,0.001769,0.0017,0.003168,0.05,-0.31,9.8,30.86
210830462,0.002834,0.002765,0.005299,0.06,-0.3,9.78,30.88
210831471,0.002834,0.0017,0.006364,0.03,-0.28,9.78,30.91
210832510,0.001769,0.000634,0.004233,0.03,-0.32,9.76,30.87
210833497,0.001769,0.000634,0.003168,0.04,-0.31,9.78,30.86
210834502,0.001769,0.000634,0.003168,0.03,-0.29,9.78,30.87
210835511,0.002834,0.0017,0.002103,0.01,-0.31,9.82,30.88
210836520,0.000703,0.004895,0.001038,0.0,-0.3,9.88,30.87
210837531,-0.000362,0.00383,-2.8e-05,0.04,-0.28,9.9,30.92
210838540,-0.001427,-0.000431,0.001038,0.04,-0.3,9.87,30.88
210839562,-0.000362,-0.002562,0.001038,0.02,-0.32,9.86,30.88
210840560,0.000703,-0.002562,-0.001093,0.04,-0.32,9.84,30.87
210841579,0.000703,-0.001496,-0.003224,0.01,-0.3,9.85,30.86
210842581,0.000703,-0.001496,-0.002158,-0.01,-0.29,9.9,30.87
210843618,0.000703,-0.001496,-2.8e-05,0.02,-0.32,9.84,30.85
210844609,0.000703,-0.000431,0.001038,0.05,-0.33,9.83,30.86
210845618,-0.000362,-0.001496,-2.8e-05,0.05,-0.33,9.85,30.89
210846627,0.000703,-0.002562,-0.001093,0.03,-0.31,9.8,30.91
210847640,0.002834,-0.001496,-0.001093,0.03,-0.29,9.81,30.85
210848648,0.003899,0.000634,-2.8e-05,0.05,-0.3,9.81,30.88
