time_us,gyro_x_rad_s,gyro_y_rad_s,gyro_z_rad_s,acc_x_m_s2,acc_y_m_s2,acc_z_m_s2,temperature_c
343427704,-0.001357,0.001116,1e-06,0.04,-0.33,9.87,31.24
343428584,-0.000292,5.1e-05,0.001067,0.03,-0.33,9.86,31.26
343430306,0.000773,-0.001014,0.001067,0.02,-0.33,9.9,31.28
343431368,-0.001357,-0.001014,0.001067,0.01,-0.32,9.87,31.24
343432387,-0.001428,2.1e-05,-1.7e-05,-0.01,-0.31,9.85,31.2
343433377,-0.000363,0.001086,-1.7e-05,0.0,-0.29,9.81,31.21
343434382,0.002833,0.001086,-1.7e-05,0.04,-0.31,9.82,31.21
343435382,0.002833,-0.001045,-1.7e-05,0.06,-0.32,9.87,31.2
343436403,0.002833,-0.003175,0.001048,0.06,-0.3,9.84,31.23
343437404,0.001767,-0.001045,0.001048,0.07,-0.29,9.81,31.24
343438415,0.000702,0.002151,-1.7e-05,0.05,-0.3,9.83,31.27
343439422,0.001767,0.004282,0.002114,0.0,-0.32,9.84,31.25
343440435,0.001767,0.002151,0.001048,0.01,-0.33,9.86,31.2
343441466,0.001767,2.1e-05,-0.002147,0.03,-0.31,9.87,31.2
343442475,0.001767,2.1e-05,-0.004278,0.03,-0.32,9.82,31.21
343443517,-0.000363,0.001086,-0.003213,0.04,-0.32,9.8,31.19
343444475,-0.000363,0.001086,0.001048,0.03,-0.31,9.79,31.21
343445483,-0.000363,0.001086,0.003179,0.03,-0.32,9.78,31.2
343446505,0.001767,0.001086,0.001048,0.05,-0.33,9.81,31.19
343447504,0.002833,0.002151,-0.002147,0.06,-0.29,9.8,31.2
343448515,0.001767,0.001086,-0.004278,0.04,-0.3,9.81,31.25
343449523,-0.000363,2.1e-05,-0.003213,0.03,-0.34,9.82,31.26
343450535,-0.001428,-0.00211,0.001048,0.03,-0.34,9.84,31.23
343451544,-0.002494,-0.00211,0.001048,0.04,-0.34,9.88,31.2
343452555,-0.002494,2.1e-05,-0.002147,0.04,-0.34,9.88,31.23
343453570,-0.002494,2.1e-05,-0.003213,0.0,-0.31,9.87,31.26
343454579,-0.003559,-0.003175,-0.001082,0.0,-0.3,9.85,31.22
343455585,-0.003559,-0.006371,-0.001082,0.03,-0.3,9.81,31.25
343456610,-0.003559,-0.00424,-1.7e-05,0.0,-0.29,9.81,31.23
343457610,-0.002494,-0.00211,-1.7e-05,0.01,-0.3,9.84,31.22
343458619,0.000702,2.1e-05,0.001048,0.01,-0.32,9.84,31.23
343459629,0.000702,0.001086,-1.7e-05,0.02,-0.28,9.86,31.23
343460642,-0.001428,0.001086,-1.7e-05,0.07,-0.28,9.86,31.23
343461652,-0.001428,2.1e-05,-1.7e-05,0.11,-0.29,9.84,31.2
343462661,-0.000363,-0.001045,-0.001082,0.06,-0.3,9.84,31.22
343463678,0.000702,-0.001045,-0.001082,0.02,-0.32,9.79,31.2
343464686,0.001767,2.1e-05,-0.001082,0.04,-0.32,9.78,31.22
343465690,0.001767,0.004282,-0.001082,0.05,-0.3,9.8,31.22
343466718,0.001767,0.006412,-0.002147,0.03,-0.29,9.82,31.21
343467714,0.000702,0.005347,-0.004278,0.03,-0.32,9.83,31.19
343468723,0.000702,0.001086,-0.005343,0.05,-0.33,9.79,31.2
343469732,0.000702,-0.001045,-0.002147,0.03,-0.32,9.76,31.2
343470743,-0.000363,-0.003175,-0.001082,0.04,-0.33,9.77,31.22
343471752,-0.000363,-0.003175,-1.7e-05,0.04,-0.32,9.79,31.24
343472766,-0.000363,-0.001045,-0.001082,0.02,-0.32,9.81,31.25
343473776,-0.002494,0.003216,-0.001082,0.03,-0.31,9.84,31.22
343474779,-0.001428,0.002151,-0.002147,0.04,-0.3,9.9,31.2
343475787,0.001767,-0.00211,-0.001082,0.02,-0.28,9.91,31.21
343476803,0.001767,-0.003175,-1.7e-05,0.03,-0.32,9.89,31.23
343477807,0.000702,-0.001045,-0.001082,0.03,-0.34,9.89,31.25
343478818,0.000702,0.001086,-0.003213,0.03,-0.28,9.8,31.23
343479826,0.000702,-0.001045,-0.001082,0.02,-0.3,9.73,31.23
343480839,-0.000363,-0.00211,0.001048,0.01,-0.33,9.85,31.21
343481847,-0.002494,-0.00211,0.002114,0.03,-0.33,9.91,31.2
343482856,-0.003559,-0.001045,-1.7e-05,0.04,-0.32,9.89,31.2
343483870,-0.001428,2.1e-05,-0.001082,0.07,-0.32,9.89,31.2
343484875,0.000702,0.001086,-0.002147,0.06,-0.32,9.85,31.23
343485891,0.000702,0.001086,-0.002147,0.04,-0.33,9.81,31.22
343486898,-0.000363,2.1e-05,0.001048,0.0,-0.32,9.85,31.2
343487903,-0.000363,-0.001045,0.003179,0.03,-0.32,9.84,31.17
343488915,-0.001428,-0.00211,0.003179,0.05,-0.31,9.83,31.2
343489923,-0.003559,-0.00211,0.002114,0.05,-0.27,9.84,31.25
343490935,-0.004624,-0.003175,0.001048,0.03,-0.29,9.84,31.24
343491944,-0.004624,-0.003175,-0.002147,0.02,-0.3,9.86,31.26
343492955,-0.001428,2.1e-05,-0.003213,0.03,-0.29,9.83,31.22
343493968,0.000702,0.001086,-0.003213,0.03,-0.29,9.81,31.22
343494975,0.000702,2.1e-05,-0.001082,0.06,-0.31,9.8,31.2
343495991,-0.000363,0.002151,0.001048,0.08,-0.33,9.78,31.2
343496996,-0.001428,0.003216,0.003179,0.06,-0.31,9.89,31.21
343498003,-0.001428,0.001086,0.003179,0.02,-0.32,9.91,31.21
343499015,-0.001428,-0.001045,0.003179,0.02,-0.32,9.84,31.21
343500023,-0.001428,-0.001045,0.002114,0.0,-0.3,9.83,31.22
343501035,-0.000363,2.1e-05,0.003179,0.0,-0.32,9.84,31.23
343502045,-0.000363,0.001086,0.003179,0.0,-0.32,9.82,31.21
343503055,0.001767,0.001086,0.001048,-0.01,-0.28,9.82,31.2
343504070,0.002833,0.001086,-1.7e-05,0.0,-0.29,9.83,31.22
343505075,0.003898,0.002151,-0.001082,0.01,-0.33,9.85,31.24
343506091,0.001767,2.1e-05,-0.001082,0.02,-0.33,9.89,31.22
343507098,-0.000363,-0.001045,-0.001082,0.04,-0.32,9.81,31.23
343508103,-0.000363,-0.001045,-1.7e-05,0.02,-0.33,9.82,31.24
343509115,-0.000363,2.1e-05,-1.7e-05,-0.03,-0.31,9.86,31.23
343510123,-0.000363,0.001086,-1.7e-05,-0.03,-0.3,9.85,31.22
343511135,-0.002494,0.002151,-1.7e-05,0.02,-0.33,9.87,31.22
343512144,-0.003559,0.003216,-1.7e-05,0.02,-0.33,9.82,31.21
343513155,-0.002494,0.001086,-1.7e-05,-0.01,-0.32,9.83,31.22
343514168,-0.000363,-0.00211,-1.7e-05,0.03,-0.32,9.84,31.2
343515175,0.000702,-0.00211,-0.001082,0.06,-0.29,9.82,31.19
343516191,-0.000363,2.1e-05,-0.001082,0.05,-0.3,9.81,31.2
343517196,-0.000363,2.1e-05,-1.7e-05,0.06,-0.31,9.79,31.23
343518203,-0.000363,-0.003175,0.001048,0.05,-0.31,9.78,31.22
343519215,-0.001428,-0.003175,-1.7e-05,0.03,-0.28,9.79,31.18
343520223,-0.001428,-0.001045,-0.001082,0.04,-0.29,9.86,31.21
343521235,-0.002494,0.001086,-0.002147,0.05,-0.29,9.87,31.18
343522245,-0.002494,0.001086,-0.002147,0.04,-0.31,9.83,31.19
343523255,-0.001428,2.1e-05,-1.7e-05,0.01,-0.35,9.85,31.18
343524270,-0.001428,-0.00211,0.001048,0.05,-0.35,9.82,31.2
343525275,-0.002494,-0.003175,-1.7e-05,0.07,-0.28,9.82,31.23
343526291,-0.002494,-0.003175,0.001048,0.02,-0.26,9.87,31.25
343527298,-0.001428,-0.00211,0.002114,-0.01,-0.31,9.85,31.23
343528303,-0.001428,-0.001045,-1.7e-05,-0.01,-0.35,9.84,31.26
343529315,-0.001428,-0.003175,-0.001082,0.0,-0.33,9.84,31.23
343530323,-0.001428,-0.003175,-1.7e-05,0.0,-0.28,9.82,31.21
343531335,-0.000363,2.1e-05,-0.001082,-0.02,-0.29,9.8,31.17
343532344,-0.000363,0.003216,-0.003213,0.0,-0.28,9.85,31.2
343533355,-0.001428,0.004282,-0.002147,0.03,-0.3,9.88,31.22
343534368,-0.000363,0.004282,0.001048,0.05,-0.34,9.84,31.2
343535375,0.000702,0.003216,0.002114,0.05,-0.33,9.79,31.19
343536383,-0.000363,0.003216,0.001048,0.02,-0.31,9.78,31.23
343537395,-0.002494,0.003216,-0.001082,0.03,-0.3,9.83,31.21
343538403,-0.001428,0.001086,-0.002147,0.01,-0.32,9.87,31.23
343539415,-0.000363,-0.00211,-1.7e-05,0.0,-0.32,9.82,31.22
343540423,-0.001428,-0.00211,0.001048,0.02,-0.32,9.8,31.18
343541435,-0.001428,-0.001045,-0.001082,0.04,-0.3,9.86,31.19
343542500,-0.000363,2.1e-05,-0.001082,0.02,-0.29,9.84,31.18
343543461,0.001767,0.001086,-0.001082,0.01,-0.31,9.82,31.18
343544462,0.002833,0.004282,-1.7e-05,0.02,-0.32,9.83,31.2
343545475,0.001767,0.004282,0.002114,0.02,-0.32,9.82,31.16
343546482,0.000702,0.003216,0.002114,0.02,-0.31,9.83,31.18
343547497,-0.000363,0.004282,0.001048,0.02,-0.28,9.83,31.21
343548502,0.000702,0.004282,0.001048,0.03,-0.29,9.86,31.23
343549515,-0.000363,0.002151,0.001048,0.06,-0.3,9.87,31.25
343550522,0.000702,0.001086,-1.7e-05,0.08,-0.29,9.83,31.28
343551535,0.001767,2.1e-05,0.001048,0.08,-0.31,9.82,31.24
343552544,0.002833,-0.001045,0.001048,0.05,-0.34,9.83,31.27
343553561,0.000702,0.001086,-1.7e-05,0.01,-0.32,9.79,31.26
343554562,-0.001428,0.003216,0.001048,0.01,-0.29,9.79,31.2
343555579,-0.001428,2.1e-05,0.003179,0.02,-0.32,9.88,31.19
343556584,-0.002494,2.1e-05,0.003179,0.03,-0.29,9.84,31.17
343557602,-0.001428,2.1e-05,0.001048,0.03,-0.34,9.84,31.19
343558610,-0.000363,0.002151,-0.001082,0.01,-0.33,9.83,31.23
343559621,0.000702,0.002151,-1.7e-05,0.01,-0.31,9.86,31.24
343560627,0.000702,0.001086,-1.7e-05,0.03,-0.3,9.88,31.23
343561674,-0.001385,-4e-06,-0.00106,0.06,-0.32,9.83,31.23
343562661,-0.00245,0.001061,-0.002125,0.04,-0.32,9.8,31.21
343563667,-0.000319,0.002127,-0.003191,0.01,-0.29,9.77,31.2
343564669,0.000746,0.002127,-0.002125,0.04,-0.28,9.83,31.25
343565690,0.000746,0.002127,-0.00106,0.04,-0.29,9.9,31.27
343566687,-0.000319,-0.001069,5e-06,0.02,-0.32,9.84,31.26
343567706,-0.000319,-0.0032,5e-06,0.02,-0.3,9.81,31.28
343568714,0.001811,-0.0032,5e-06,0.01,-0.31,9.83,31.22
343569727,0.000746,-0.0032,0.002136,0.03,-0.31,9.82,31.2
343570734,0.000746,-0.002134,0.003201,0.03,-0.31,9.82,31.23
343571744,0.000746,0.002127,0.003201,0.01,-0.34,9.8,31.25
343572752,-0.000319,0.002127,5e-06,0.02,-0.32,9.81,31.25
343573772,-0.00245,0.002127,5e-06,0.02,-0.3,9.82,31.24
343574770,-0.00245,0.002127,-0.00106,0.03,-0.32,9.79,31.22
343575779,-0.001385,0.002127,-0.003191,0.04,-0.33,9.81,31.24
343576787,0.000746,0.002127,-0.00106,0.04,-0.31,9.84,31.23
343577795,0.000746,0.002127,5e-06,0.02,-0.32,9.85,31.21
343578807,0.000746,0.002127,-0.00106,0.0,-0.32,9.82,31.21
343579818,0.000746,0.002127,5e-06,-0.02,-0.31,9.82,31.23
343580826,0.000746,0.004257,0.003201,0.02,-0.3,9.82,31.22
343581839,0.000746,0.003192,0.004266,0.04,-0.27,9.83,31.21
343582847,0.001811,-4e-06,0.001071,0.05,-0.28,9.82,31.2
343583862,0.000746,-0.002134,-0.002125,0.06,-0.35,9.83,31.22
343584863,0.001811,-4e-06,-0.002125,0.06,-0.35,9.84,31.23
343585875,0.001811,-4e-06,0.001071,0.05,-0.32,9.83,31.23
343586883,0.000746,-0.001069,0.004266,0.04,-0.33,9.85,31.24
343587897,0.001811,-0.001069,0.004266,0.05,-0.33,9.87,31.23
343588903,0.002876,-4e-06,0.002136,0.05,-0.31,9.87,31.24
343589915,0.001811,-4e-06,0.002136,0.03,-0.31,9.83,31.25
343590923,-0.000319,0.001061,0.003201,0.05,-0.32,9.83,31.22
343591935,-0.000319,0.003192,0.004266,0.05,-0.31,9.85,31.24
343592944,-0.001385,0.004257,0.004266,0.04,-0.3,9.84,31.23
343593961,-0.001385,0.002127,0.002136,0.02,-0.32,9.83,31.19
343594963,-0.001385,0.001061,-0.00106,0.0,-0.33,9.79,31.2
343595975,-0.000319,0.003192,-0.002125,0.0,-0.35,9.77,31.19
343596983,-0.000319,0.004257,-0.002125,0.04,-0.34,9.8,31.22
343597995,-0.001385,0.002127,-0.003191,0.05,-0.34,9.77,31.23
343599003,-0.003515,-4e-06,-0.002125,0.06,-0.33,9.76,31.22
343600015,-0.001385,-4e-06,0.001071,0.05,-0.31,9.78,31.21
343601023,0.000746,0.001061,0.001071,0.02,-0.31,9.8,31.2
343602035,0.000746,-4e-06,-0.00106,0.01,-0.32,9.78,31.23
343603045,0.000746,-0.001069,-0.003191,0.03,-0.35,9.84,31.23
343604061,0.000746,0.001061,-0.003191,0.07,-0.34,9.89,31.2
343605063,-0.000319,0.002127,-0.002125,0.06,-0.33,9.81,31.23
343606075,0.000746,-4e-06,5e-06,0.03,-0.34,9.8,31.21
343607083,0.000746,-4e-06,0.001071,0.01,-0.31,9.8,31.21
343608097,0.001811,0.001061,0.002136,-0.01,-0.34,9.77,31.2
343609103,0.000746,0.001061,5e-06,0.01,-0.35,9.81,31.19
343610115,-0.001385,-4e-06,-0.00106,0.01,-0.33,9.88,31.23
343611123,-0.001385,-4e-06,5e-06,0.01,-0.33,9.86,31.25
343612135,-0.000319,-0.002134,5e-06,0.02,-0.32,9.84,31.21
343613144,0.000746,-0.002134,-0.00106,0.04,-0.34,9.85,31.25
343614161,-0.000319,-0.002134,5e-06,0.04,-0.36,9.83,31.22
343615163,0.000746,-0.002134,0.002136,0.01,-0.31,9.83,31.22
343616175,0.001811,-0.002134,0.003201,0.02,-0.3,9.84,31.21
343617183,0.000746,-0.001069,0.003201,0.04,-0.32,9.79,31.22
343618195,-0.00245,-4e-06,0.002136,0.06,-0.28,9.79,31.23
343619203,-0.003515,-4e-06,0.001071,0.05,-0.29,9.76,31.23
343620215,-0.00245,-4e-06,0.001071,0.03,-0.31,9.75,31.23
343621223,0.000746,0.002127,0.002136,-0.01,-0.31,9.81,31.22
343622235,0.002876,0.002127,0.002136,-0.03,-0.32,9.81,31.25
343623245,0.001811,-0.001069,0.001071,0.02,-0.32,9.82,31.22
343624261,0.002876,-0.0032,0.002136,0.02,-0.32,9.84,31.26
343625263,0.005007,-0.0032,0.002136,0.04,-0.3,9.83,31.23
343626275,0.002876,-0.001069,0.001071,0.06,-0.31,9.81,31.21
343627283,-0.000319,-4e-06,5e-06,0.04,-0.31,9.82,31.21
343628297,-0.00245,0.001061,5e-06,0.02,-0.29,9.83,31.19
343629303,-0.001385,0.002127,5e-06,0.02,-0.3,9.86,31.19
343630315,-0.00245,0.001061,0.001071,0.0,-0.3,9.89,31.2
343631323,-0.001385,-0.001069,0.001071,-0.01,-0.3,9.86,31.23
343632335,-0.000319,0.001061,0.001071,0.02,-0.34,9.85,31.21
343633344,0.002876,0.003192,0.001071,0.05,-0.35,9.85,31.22
343634361,0.005007,0.004257,-0.00106,0.03,-0.33,9.82,31.21
343635363,0.005007,0.002127,-0.002125,0.0,-0.28,9.81,31.24
343636375,0.002876,-4e-06,-0.003191,0.0,-0.32,9.85,31.24
343637383,0.000746,-0.001069,-0.002125,0.03,-0.33,9.86,31.23
343638403,-0.000319,-0.001069,-0.00106,0.07,-0.32,9.82,31.21
343639403,-0.001385,-0.001069,-0.002125,0.07,-0.31,9.84,31.21
343640415,-0.001385,-4e-06,-0.002125,0.04,-0.28,9.85,31.18
343641423,-0.000319,0.002127,0.001071,0.0,-0.32,9.83,31.18
343642435,-0.000319,0.001061,0.003201,-0.02,-0.34,9.82,31.22
343643452,0.000746,-0.002134,0.002136,0.0,-0.31,9.79,31.18
343644455,0.000746,-0.0032,0.001071,0.01,-0.3,9.77,31.18
343645463,0.001811,-0.001069,-0.00106,0.02,-0.3,9.8,31.22
343646475,0.001811,0.001061,-0.002125,0.04,-0.29,9.84,31.23
343647483,0.001811,0.001061,-0.002125,0.03,-0.31,9.83,31.2
343648496,0.000746,-4e-06,-0.002125,0.04,-0.34,9.85,31.2
343649503,-0.000319,-0.001069,-0.002125,0.06,-0.32,9.86,31.2
343650515,-0.000319,-0.001069,-0.003191,0.04,-0.32,9.85,31.23
343651523,0.000746,-4e-06,-0.002125,0.0,-0.3,9.86,31.24
343652535,0.000746,-0.001069,-0.00106,0.02,-0.28,9.82,31.23
343653551,0.000746,-0.002134,0.001071,0.03,-0.31,9.82,31.25
343654555,-0.00245,-0.0032,0.001071,0.04,-0.36,9.86,31.2
343655563,-0.00245,0.001061,5e-06,0.02,-0.35,9.87,31.18
343656579,-0.000319,0.006388,-0.00106,0.03,-0.33,9.84,31.2
343657585,0.001811,0.006388,-0.00106,0.05,-0.31,9.81,31.24
343658603,0.001811,0.003192,5e-06,0.05,-0.28,9.81,31.27
343659613,0.002876,-4e-06,0.002136,0.05,-0.28,9.83,31.26
343660619,-0.000319,-0.002134,0.003201,0.01,-0.31,9.82,31.22
343661631,-0.00245,-0.002134,0.001071,0.04,-0.34,9.78,31.19
343662643,-0.00245,-0.002134,-0.002125,0.07,-0.34,9.79,31.19
343663663,-0.00245,-0.001069,-0.002125,0.04,-0.33,9.81,31.22
343664666,-0.001385,0.002127,-0.00106,0.03,-0.32,9.82,31.2
343665670,-0.000319,0.003192,-0.00106,0.06,-0.31,9.83,31.24
343666684,0.001811,0.001061,5e-06,0.04,-0.32,9.79,31.22
343667689,0.001811,-4e-06,0.003201,0.01,-0.32,9.78,31.19
343668705,0.000746,-0.0032,0.004266,0.03,-0.33,9.81,31.19
343669719,-0.000319,-0.00533,0.005332,0.04,-0.32,9.83,31.19
343670725,0.000746,-0.0032,0.004266,0.05,-0.3,9.82,31.2
343671731,0.001811,-4e-06,0.003201,0.04,-0.31,9.82,31.23
343672744,0.001811,-4e-06,0.002136,0.01,-0.33,9.86,31.25
343673762,-0.000319,-0.001069,5e-06,0.02,-0.36,9.87,31.24
343674767,-0.000319,-0.002134,5e-06,0.06,-0.34,9.83,31.25
343675769,-0.001385,-4e-06,0.002136,0.04,-0.34,9.78,31.2
343676779,-0.001385,0.002127,0.002136,0.01,-0.35,9.81,31.2
343677787,-0.001385,0.001061,0.001071,0.01,-0.32,9.84,31.18
343678795,-0.000319,-0.002134,5e-06,0.02,-0.29,9.82,31.22
343679807,0.001811,-0.0032,5e-06,0.01,-0.3,9.86,31.22
343680818,0.001811,-0.0032,0.002136,0.02,-0.32,9.89,31.17
343681825,0.000746,-0.001069,0.002136,0.04,-0.29,9.85,31.16
343682837,-0.000319,0.002127,5e-06,0.04,-0.28,9.84,31.19
343683853,-0.001385,0.002127,5e-06,0.04,-0.29,9.82,31.23
343684855,-0.001385,-0.001069,0.002136,0.03,-0.3,9.78,31.24
343685861,-0.001385,-0.0032,0.003201,0.02,-0.32,9.81,31.21
343686874,-0.001385,-4e-06,0.002136,0.04,-0.31,9.81,31.24
343687881,0.000746,0.003192,5e-06,0.07,-0.3,9.79,31.24
343688895,0.003942,0.004257,-0.00106,0.03,-0.31,9.75,31.24
343689901,0.003942,0.001061,-0.002125,0.04,-0.29,9.79,31.25
343690947,0.002843,-0.001098,-0.001107,0.06,-0.31,9.87,31.26
343691925,-0.000353,-0.001098,0.001024,0.03,-0.32,9.86,31.24
343692934,-0.002484,-3.2e-05,0.002089,0.02,-0.34,9.82,31.22
343693950,-0.001418,0.001033,0.001024,0.03,-0.35,9.8,31.23
343694954,-0.001418,0.001033,0.001024,0.05,-0.33,9.83,31.23
343695961,-0.002484,0.001033,-4.1e-05,0.04,-0.29,9.87,31.17
343696974,-0.003549,0.001033,0.001024,0.03,-0.27,9.86,31.17
343697981,-0.003549,0.002098,0.001024,0.02,-0.32,9.84,31.21
343698994,-0.001418,0.002098,0.002089,0.01,-0.32,9.86,31.21
343700001,0.000712,0.001033,-4.1e-05,0.02,-0.32,9.86,31.23
343701014,-0.001418,-0.001098,-0.002172,0.03,-0.33,9.86,31.24
343702021,-0.002484,-3.2e-05,-0.001107,0.04,-0.32,9.88,31.2
343703034,-0.001418,0.001033,-0.001107,0.03,-0.3,9.86,31.19
343704051,0.001777,0.001033,-4.1e-05,0.03,-0.3,9.87,31.21
343705054,0.002843,0.003163,-0.001107,0.04,-0.32,9.9,31.2
343706061,0.002843,0.002098,-0.002172,0.04,-0.31,9.88,31.21
343707074,0.000712,0.002098,-0.001107,0.04,-0.32,9.86,31.23
343708081,0.001777,0.002098,-0.001107,0.02,-0.33,9.83,31.25
343709095,0.001777,-3.2e-05,-0.003237,0.0,-0.29,9.82,31.19
343710101,0.000712,-0.001098,-0.003237,0.0,-0.28,9.8,31.19
343711114,0.001777,-3.2e-05,-4.1e-05,0.01,-0.3,9.83,31.2
343712121,0.001777,0.001033,0.003154,0.01,-0.33,9.86,31.21
343713134,0.001777,-3.2e-05,0.003154,0.01,-0.34,9.8,31.21
343714150,0.001777,-3.2e-05,0.002089,-0.01,-0.31,9.79,31.23
343715154,0.002843,-0.001098,0.002089,0.01,-0.28,9.85,31.22
343716161,0.000712,-0.002163,0.003154,0.04,-0.3,9.84,31.23
343717174,-0.001418,-0.002163,0.002089,0.02,-0.29,9.81,31.24
343718181,-0.002484,-3.2e-05,0.001024,-0.01,-0.29,9.81,31.22
343719194,-0.001418,-3.2e-05,-4.1e-05,0.02,-0.3,9.78,31.22
343720201,-0.000353,0.001033,-4.1e-05,0.03,-0.33,9.82,31.2
343721214,-0.001418,0.002098,0.001024,0.02,-0.33,9.89,31.21
343722221,-0.000353,0.001033,-0.001107,0.03,-0.31,9.91,31.2
343723234,-0.000353,0.001033,-0.002172,0.03,-0.32,9.86,31.21
343724251,0.001777,0.001033,-0.003237,0.04,-0.32,9.84,31.23
343725254,0.001777,0.002098,-0.004303,0.04,-0.32,9.87,31.21
343726261,0.000712,0.004229,-0.003237,0.02,-0.32,9.87,31.2
343727274,-0.000353,0.004229,-0.002172,0.02,-0.31,9.83,31.2
343728281,-0.001418,0.002098,-4.1e-05,0.06,-0.32,9.8,31.24
343729295,-0.000353,-0.001098,-4.1e-05,0.04,-0.34,9.83,31.21
343730301,-0.001418,-0.002163,-0.001107,-0.01,-0.34,9.86,31.21
343731314,-0.001418,-0.002163,-0.001107,0.0,-0.33,9.81,31.2
343732321,-0.001418,-3.2e-05,0.001024,0.01,-0.32,9.8,31.18
343733334,-0.002484,0.002098,0.001024,0.02,-0.29,9.86,31.22
343734350,-0.002484,0.002098,-4.1e-05,0.04,-0.3,9.86,31.21
343735354,-0.002484,-3.2e-05,-0.001107,0.03,-0.32,9.83,31.19
343736361,-0.002484,-3.2e-05,-0.001107,0.02,-0.33,9.86,31.23
343737374,-0.001418,0.001033,-4.1e-05,0.05,-0.31,9.86,31.25
343738381,0.000712,0.001033,-4.1e-05,0.04,-0.33,9.8,31.23
343739394,-0.000353,0.002098,0.001024,0.0,-0.32,9.82,31.25
343740401,-0.002484,0.003163,0.001024,0.03,-0.32,9.85,31.2
343741414,0.000712,0.003163,-0.001107,0.06,-0.3,9.82,31.22
343742421,0.002843,0.001033,-0.001107,0.05,-0.29,9.76,31.22
343743438,0.002843,-0.001098,-0.001107,0.02,-0.34,9.74,31.25
343744444,0.000712,-0.002163,0.001024,0.04,-0.33,9.8,31.25
343745454,0.000712,-0.001098,0.00422,0.05,-0.33,9.86,31.24
343746461,-0.000353,-0.002163,0.003154,0.01,-0.34,9.85,31.23
343747493,-0.002484,-0.003228,0.001024,0.04,-0.32,9.82,31.22
343748481,-0.002484,-0.002163,-0.002172,0.03,-0.29,9.85,31.23
343749495,-0.000353,-0.001098,-0.003237,0.01,-0.3,9.85,31.22
343750501,0.000712,0.001033,-0.002172,0.04,-0.32,9.86,31.25
343751514,-0.000353,0.003163,-4.1e-05,0.05,-0.31,9.87,31.23
343752521,-0.000353,0.001033,-4.1e-05,0.03,-0.31,9.83,31.19
343753539,0.001777,-3.2e-05,-0.001107,0.02,-0.3,9.84,31.2
343754544,-0.002484,0.003163,0.001024,0.04,-0.29,9.85,31.21
343755554,-0.002484,0.002098,0.002089,0.04,-0.29,9.83,31.19
343756561,-0.000353,-0.002163,0.003154,0.03,-0.31,9.84,31.18
343757577,0.001777,-0.001098,0.002089,-0.02,-0.32,9.87,31.16
343758582,0.000712,-3.2e-05,-4.1e-05,-0.02,-0.3,9.88,31.22
343759604,-0.001418,-3.2e-05,-4.1e-05,0.01,-0.3,9.83,31.24
343760609,-0.003549,-0.002163,0.001024,0.02,-0.28,9.82,31.24
343761617,-0.003549,-0.002163,0.001024,0.0,-0.28,9.83,31.21
343762629,-0.002484,0.001033,-4.1e-05,0.02,-0.31,9.84,31.23
343763666,-0.000353,0.002098,-4.1e-05,0.01,-0.32,9.8,31.22
343764651,0.000712,-3.2e-05,0.002089,-0.01,-0.33,9.78,31.23
343765664,0.001777,-0.002163,0.00422,0.03,-0.33,9.82,31.21
343766670,-0.000353,-0.002163,0.002089,0.04,-0.31,9.82,31.2
343767683,0.000712,-3.2e-05,-0.002172,0.04,-0.31,9.81,31.21
343768691,0.001777,0.001033,-0.002172,0.07,-0.34,9.83,31.24
343769706,0.000712,-3.2e-05,0.001024,0.04,-0.31,9.86,31.23
343770711,0.001777,-0.002163,0.001024,0.03,-0.29,9.87,31.2
343771726,0.001777,-0.002163,-4.1e-05,0.05,-0.32,9.85,31.17
343772731,-0.000353,0.001033,-0.002172,0.04,-0.3,9.81,31.22
343773750,-0.000353,-3.2e-05,-0.003237,0.03,-0.31,9.76,31.22
343774755,0.000712,-0.002163,-0.001107,0.03,-0.34,9.77,31.22
343775764,0.000712,-0.002163,0.001024,0.03,-0.31,9.79,31.24
343776767,0.000712,-0.001098,0.002089,0.03,-0.28,9.75,31.24
343777778,0.000712,-0.002163,0.003154,0.03,-0.27,9.77,31.23
343778786,-0.000353,-0.002163,0.002089,0.0,-0.28,9.81,31.22
343779794,-0.000353,-3.2e-05,0.002089,0.0,-0.32,9.82,31.19
343780806,0.001777,-3.2e-05,-4.1e-05,0.0,-0.33,9.84,31.19
343781816,0.002843,-3.2e-05,-0.001107,0.01,-0.31,9.84,31.18
343782825,0.000712,-3.2e-05,-0.001107,0.02,-0.3,9.84,31.19
343783843,-0.002484,-0.002163,-4.1e-05,0.02,-0.3,9.85,31.25
343784846,-0.002484,-0.002163,0.001024,0.04,-0.31,9.83,31.2
343785855,-0.000353,0.001033,0.001024,0.02,-0.32,9.83,31.18
343786861,0.001777,0.002098,-0.001107,0.01,-0.33,9.87,31.2
343787874,0.001777,0.001033,-0.002172,0.01,-0.31,9.89,31.23
343788881,0.000712,-3.2e-05,-0.002172,0.02,-0.31,9.84,31.23
343789895,0.000712,-0.002163,-4.1e-05,0.05,-0.33,9.82,31.24
343790901,0.000712,-0.002163,0.002089,0.05,-0.32,9.85,31.28
343791914,0.000712,-0.002163,-4.1e-05,0.01,-0.3,9.86,31.26
343792921,0.000712,-0.002163,-0.001107,-0.01,-0.3,9.86,31.23
343793939,-0.001418,0.001033,-4.1e-05,0.04,-0.29,9.84,31.23
343794944,-0.003549,0.004229,0.001024,0.06,-0.28,9.81,31.23
343795954,-0.002484,0.003163,0.001024,0.04,-0.29,9.8,31.22
343796961,0.001777,-3.2e-05,-4.1e-05,0.02,-0.3,9.81,31.22
343797974,0.002843,-0.001098,-4.1e-05,0.03,-0.3,9.82,31.21
343798981,0.001777,-3.2e-05,0.002089,0.04,-0.29,9.84,31.23
343799994,0.001777,-3.2e-05,0.002089,0.07,-0.29,9.87,31.24
343801001,0.000712,0.001033,0.002089,0.06,-0.33,9.86,31.23
343802014,-0.000353,0.005294,-4.1e-05,0.01,-0.32,9.85,31.25
343803021,-0.001418,0.004229,-0.001107,0.02,-0.31,9.86,31.23
343804039,-0.000353,-3.2e-05,-0.001107,0.04,-0.29,9.85,31.16
343805044,-0.000353,-0.001098,-4.1e-05,0.02,-0.29,9.84,31.2
343806054,-0.001418,-3.2e-05,-4.1e-05,0.03,-0.31,9.84,31.22
343807061,-0.003549,-3.2e-05,-0.001107,0.02,-0.31,9.84,31.23
343808074,-0.003549,-3.2e-05,-4.1e-05,0.02,-0.27,9.85,31.19
343809081,-0.000353,0.001033,-4.1e-05,0.04,-0.29,9.9,31.19
343810095,0.001777,-3.2e-05,0.001024,0.04,-0.32,9.86,31.18
343811101,0.000712,-0.001098,0.002089,0.05,-0.31,9.83,31.17
343812114,-0.001418,0.001033,0.001024,0.05,-0.31,9.82,31.23
343813121,-0.002484,-3.2e-05,-0.001107,0.05,-0.32,9.77,31.28
343814139,-0.001418,-0.003228,-0.001107,0.03,-0.33,9.77,31.28
343815144,-0.001418,-0.003228,-4.1e-05,0.0,-0.3,9.82,31.27
343816154,-0.003549,-0.001098,0.001024,0.0,-0.27,9.84,31.24
343817161,-0.003549,-0.001098,-4.1e-05,0.04,-0.29,9.88,31.25
343818174,-0.000353,-0.003228,0.001024,0.02,-0.33,9.84,31.24
343819181,-0.000353,-0.002163,0.002089,0.02,-0.32,9.77,31.22
343820225,-0.000319,-0.001109,0.003135,0.04,-0.32,9.82,31.24
343821205,0.000747,-0.001109,0.00207,0.04,-0.28,9.83,31.26
343822214,0.002877,-0.003239,-6.1e-05,0.02,-0.26,9.8,31.23
343823221,0.002877,-0.003239,-0.001126,0.01,-0.27,9.8,31.21
343824239,0.001812,-4.4e-05,-0.001126,0.03,-0.32,9.81,31.19
343825245,0.002877,0.001022,0.001005,0.03,-0.32,9.82,31.27
343826255,0.002877,-4.4e-05,0.00207,0.04,-0.27,9.85,31.24
343827263,0.000747,-0.001109,0.00207,0.02,-0.28,9.84,31.26
343828275,0.000747,-0.001109,0.001005,0.02,-0.3,9.82,31.24
343829283,-0.000319,-0.001109,0.001005,0.03,-0.28,9.84,31.2
343830296,-0.001384,-4.4e-05,0.00207,0.01,-0.27,9.85,31.19
343831303,0.000747,-0.001109,0.00207,0.02,-0.29,9.84,31.21
343832315,0.002877,-0.001109,-0.001126,0.01,-0.3,9.83,31.22
343833323,0.002877,-4.4e-05,-0.003256,0.01,-0.31,9.84,31.23
343834341,0.002877,-4.4e-05,-6.1e-05,0.02,-0.33,9.86,31.23
343835345,0.003943,-0.001109,0.00207,0.02,-0.31,9.83,31.23
343836355,0.002877,-0.003239,0.001005,0.01,-0.33,9.81,31.21
343837363,0.000747,-0.001109,-6.1e-05,0.02,-0.33,9.86,31.2
343838375,0.000747,0.002087,-6.1e-05,0.04,-0.29,9.88,31.21
343839383,-0.000319,0.002087,0.001005,0.04,-0.31,9.87,31.22
343840395,-0.000319,-4.4e-05,0.001005,0.0,-0.33,9.85,31.23
343841403,0.001812,-0.002174,0.001005,0.01,-0.34,9.82,31.23
343842415,0.001812,-0.004305,0.001005,0.03,-0.34,9.82,31.18
343843428,0.000747,-0.003239,-6.1e-05,0.04,-0.33,9.83,31.19
343844435,-0.000319,-0.001109,-6.1e-05,0.04,-0.31,9.85,31.2
343845445,0.001812,-0.001109,-6.1e-05,0.01,-0.28,9.88,31.22
343846455,0.002877,-4.4e-05,0.001005,0.04,-0.29,9.87,31.27
343847463,0.000747,-4.4e-05,0.001005,0.04,-0.3,9.8,31.27
343848475,-0.002449,-4.4e-05,-6.1e-05,0.0,-0.3,9.77,31.25
343849525,-0.002449,-0.001109,-0.001126,0.0,-0.33,9.79,31.24
343850496,-0.000319,-4.4e-05,-0.002191,0.02,-0.33,9.78,31.24
343851503,-0.000319,0.001022,-0.002191,0.02,-0.33,9.79,31.23
343852515,0.000747,0.002087,-0.001126,0.04,-0.32,9.81,31.3
343853528,-0.000319,0.001022,-6.1e-05,0.04,-0.31,9.78,31.31
343854535,0.001812,-0.001109,-6.1e-05,-0.01,-0.33,9.81,31.26
343855545,0.002877,-0.002174,-0.002191,0.0,-0.31,9.8,31.25
343856555,0.000747,-0.001109,-0.002191,0.01,-0.3,9.77,31.21
343857563,-0.000319,0.001022,-6.1e-05,0.0,-0.31,9.81,31.22
343858579,-0.000319,0.002087,0.001005,0.02,-0.31,9.91,31.21
343859585,0.000747,0.002087,-6.1e-05,0.02,-0.33,9.89,31.23
343860603,-0.000319,0.001022,-0.002191,0.0,-0.33,9.86,31.2
343861613,-0.002449,0.001022,-0.001126,0.02,-0.32,9.82,31.21
343862619,-0.000319,-0.001109,-0.001126,0.04,-0.32,9.81,31.2
343863638,0.000747,-0.002174,-6.1e-05,0.03,-0.3,9.82,31.24
343864643,-0.000319,-0.002174,0.001005,0.05,-0.28,9.8,31.24
343865652,-0.001384,-0.001109,0.00207,0.04,-0.28,9.85,31.24
343866665,0.000747,-4.4e-05,0.001005,0.03,-0.32,9.9,31.26
343867671,0.001812,-0.002174,-0.001126,0.03,-0.32,9.82,31.23
343868683,0.000747,-0.002174,-0.002191,0.0,-0.31,9.79,31.24
343869694,-0.000319,0.001022,0.001005,0.03,-0.34,9.8,31.2
343870704,0.000747,0.004218,0.001005,0.05,-0.34,9.8,31.19
343871714,0.002877,0.004218,-0.001126,0.05,-0.32,9.79,31.21
343872723,0.002877,0.001022,-0.002191,0.04,-0.33,9.78,31.23
343873738,0.001812,-0.001109,-0.002191,0.01,-0.33,9.82,31.23
343874744,0.000747,-0.001109,-6.1e-05,0.02,-0.32,9.85,31.24
343875756,-0.000319,-4.4e-05,0.001005,0.04,-0.31,9.81,31.23
343876767,-0.000319,-4.4e-05,0.001005,0.06,-0.29,9.79,31.19
343877769,0.000747,0.001022,-6.1e-05,0.05,-0.29,9.78,31.2
343878779,-0.001384,0.003152,-0.002191,0.02,-0.29,9.81,31.21
343879787,-0.001384,0.002087,-0.001126,0.04,-0.31,9.85,31.18
343880795,0.001812,-4.4e-05,-6.1e-05,0.04,-0.33,9.85,31.21
343881807,0.002877,-0.003239,0.001005,0.02,-0.32,9.8,31.2
343882818,0.001812,0.001022,0.001005,-0.01,-0.28,9.81,31.21
343883832,-0.000319,0.005283,-6.1e-05,0.02,-0.3,9.83,31.23
343884839,0.000747,0.004218,-0.001126,0.03,-0.35,9.82,31.24
343885847,0.001812,0.002087,-0.001126,0.02,-0.34,9.82,31.26
343886856,0.001812,-4.4e-05,-6.1e-05,0.05,-0.31,9.82,31.2
343887863,0.000747,-4.4e-05,0.00207,0.07,-0.31,9.79,31.2
343888874,-0.001384,0.002087,0.00207,0.06,-0.33,9.79,31.2
343889881,-0.002449,0.003152,0.00207,0.01,-0.32,9.79,31.2
343890896,-0.001384,0.001022,0.00207,0.0,-0.32,9.79,31.22
343891903,-0.002449,-4.4e-05,0.001005,0.01,-0.34,9.81,31.23
343892915,-0.00458,0.001022,-0.001126,0.01,-0.33,9.81,31.24
343893928,-0.002449,0.003152,-0.002191,-0.02,-0.33,9.82,31.22
343894935,0.001812,0.005283,-0.002191,-0.01,-0.32,9.82,31.2
343895945,0.000747,0.003152,-0.001126,-0.01,-0.29,9.83,31.19
343896955,-0.001384,0.002087,0.001005,-0.02,-0.3,9.86,31.21
343897963,-0.002449,0.003152,0.00207,0.04,-0.31,9.85,31.21
343898975,-0.000319,0.005283,0.00207,0.03,-0.32,9.83,31.2
343899983,0.000747,0.005283,0.00207,0.01,-0.31,9.87,31.2
343900995,-0.000319,0.004218,-6.1e-05,0.06,-0.29,9.86,31.25
343902003,-0.001384,0.002087,-0.002191,0.06,-0.3,9.81,31.23
343903015,0.000747,0.002087,-0.002191,0.02,-0.32,9.81,31.23
343904028,0.001812,0.001022,-0.001126,0.04,-0.34,9.81,31.23
343905035,0.000747,0.001022,0.001005,0.05,-0.33,9.79,31.27
343906045,-0.001384,0.001022,0.003135,0.04,-0.34,9.82,31.22
343907055,-0.000319,-4.4e-05,0.00207,0.02,-0.35,9.85,31.21
343908063,0.000747,-4.4e-05,-0.001126,0.03,-0.36,9.81,31.21
343909075,0.000747,0.001022,-0.002191,0.03,-0.35,9.82,31.22
343910083,0.001812,0.001022,-6.1e-05,0.03,-0.31,9.84,31.22
343911096,0.001812,-4.4e-05,0.001005,0.01,-0.31,9.87,31.23
343912103,0.000747,-4.4e-05,0.001005,0.02,-0.32,9.9,31.24
343913115,0.000747,0.001022,-6.1e-05,0.07,-0.33,9.88,31.23
343914128,0.000747,-4.4e-05,-0.001126,0.05,-0.33,9.84,31.2
343915135,-0.000319,-0.001109,-0.002191,0.02,-0.32,9.87,31.19
343916145,-0.000319,-0.002174,-6.1e-05,0.03,-0.3,9.86,31.23
343917155,-0.001384,-0.003239,0.00207,0.01,-0.29,9.82,31.2
343918163,-0.002449,-4.4e-05,0.003135,0.05,-0.31,9.83,31.18
343919175,-0.001384,0.003152,0.00207,0.05,-0.32,9.86,31.17
343920183,-0.001384,0.003152,0.001005,0.01,-0.32,9.87,31.2
343921195,-0.000319,0.001022,0.00207,0.02,-0.33,9.85,31.22
343922203,0.000747,0.002087,0.001005,0.01,-0.31,9.86,31.19
343923215,-0.000319,0.003152,-6.1e-05,0.03,-0.31,9.85,31.2
343924228,-0.000319,0.002087,-0.001126,0.05,-0.32,9.8,31.2
343925235,0.000747,-4.4e-05,-0.002191,0.02,-0.32,9.79,31.21
343926245,0.001812,-0.001109,-0.002191,0.02,-0.31,9.77,31.21
343927255,0.001812,-0.001109,-6.1e-05,0.02,-0.29,9.77,31.18
343928263,-0.000319,-0.001109,0.001005,0.01,-0.3,9.87,31.2
343929275,-0.001384,-0.002174,0.001005,0.04,-0.31,9.88,31.22
343930283,-0.000319,-0.003239,-0.001126,0.06,-0.31,9.79,31.23
343931296,0.001812,-0.002174,-0.002191,0.02,-0.32,9.74,31.22
343932303,0.002877,0.002087,-0.002191,0.04,-0.33,9.78,31.2
343933315,0.002877,0.005283,-0.002191,0.06,-0.33,9.82,31.21
343934328,0.000747,0.004218,-0.002191,0.04,-0.31,9.79,31.23
343935335,0.000747,-4.4e-05,-0.001126,0.05,-0.33,9.76,31.23
343936345,-0.000319,-0.001109,-6.1e-05,0.06,-0.33,9.8,31.24
343937355,-0.000319,0.001022,-6.1e-05,0.06,-0.32,9.82,31.25
343938363,-0.001384,0.003152,-0.001126,0.04,-0.32,9.86,31.23
343939375,0.000747,0.004218,-0.001126,0.03,-0.32,9.89,31.24
343940383,0.005008,0.003152,-0.001126,0.02,-0.35,9.86,31.25
343941395,0.006073,0.001022,0.001005,0.02,-0.33,9.88,31.2
343942401,0.005008,-4.4e-05,0.00207,0.01,-0.31,9.85,31.21
343943414,0.000747,-4.4e-05,-6.1e-05,0.02,-0.34,9.83,31.2
343944427,-0.000319,0.001022,-0.003256,0.04,-0.33,9.82,31.23
343945461,0.000747,0.002087,-0.002191,0.05,-0.33,9.83,31.2
343946477,0.001812,-4.4e-05,-0.001126,0.04,-0.35,9.85,31.17
343947454,0.000747,-0.001109,-0.001126,0.03,-0.34,9.84,31.2
343948473,-0.001384,-4.4e-05,-0.001126,0.01,-0.34,9.86,31.21
343949508,-0.001449,0.002025,-5e-05,0.01,-0.34,9.81,31.25
343950485,-0.000383,0.002025,0.001015,0.03,-0.31,9.76,31.25
343951496,0.000682,-0.001171,-5e-05,0.03,-0.28,9.75,31.23
343952552,0.000682,-0.002236,-5e-05,0.01,-0.29,9.74,31.21
343953529,-0.001449,-0.000105,0.001015,0.02,-0.36,9.84,31.26
343954521,-0.001449,0.00309,-5e-05,0.02,-0.34,9.87,31.22
343955534,-0.001449,0.004156,-5e-05,0.02,-0.32,9.84,31.23
343956544,0.000682,0.00309,-0.001116,0.02,-0.31,9.82,31.23
343957554,0.001747,0.002025,0.001015,0.01,-0.33,9.81,31.22
343958561,0.002812,-0.001171,0.001015,0.01,-0.35,9.83,31.18
343959577,0.002812,-0.002236,0.001015,0.02,-0.32,9.85,31.19
343960582,0.001747,-0.002236,0.001015,0.02,-0.3,9.83,31.2
343961604,-0.001449,-0.001171,0.00208,0.03,-0.3,9.87,31.19
343962609,-0.001449,-0.002236,0.00208,0.02,-0.33,9.93,31.18
343963624,-0.002514,-0.002236,0.00208,0.03,-0.31,9.91,31.22
343964629,-0.002514,-0.000105,0.001015,0.03,-0.3,9.87,31.25
343965643,-0.001449,0.00096,-5e-05,0.04,-0.29,9.87,31.24
343966651,-0.000383,-0.001171,-0.003246,0.03,-0.3,9.85,31.25
343967664,-0.000383,-0.003301,-0.004311,0.01,-0.33,9.83,31.23
343968670,-0.000383,-0.002236,-0.002181,0.02,-0.33,9.82,31.24
343969700,-0.001449,0.00096,-5e-05,0.02,-0.31,9.84,31.21
343970691,-0.003579,0.00309,-0.001116,0.0,-0.33,9.83,31.23
343971704,-0.002514,0.004156,-0.001116,0.0,-0.36,9.82,31.22
343972711,-0.001449,0.00096,-5e-05,0.02,-0.35,9.85,31.22
343973731,0.000682,-0.001171,-0.001116,0.02,-0.32,9.85,31.22
343974731,0.001747,-0.001171,-0.002181,0.02,-0.3,9.84,31.23
343975741,0.002812,0.002025,-0.002181,0.05,-0.28,9.82,31.22
343976755,0.002812,0.00309,-5e-05,0.04,-0.32,9.84,31.22
343977764,0.001747,0.002025,0.001015,0.02,-0.35,9.84,31.26
343978767,0.001747,-0.000105,0.00208,0.01,-0.31,9.86,31.26
343979778,-0.000383,0.002025,0.00208,0.0,-0.28,9.88,31.23
343980786,-0.001449,0.00309,0.001015,0.02,-0.29,9.84,31.21
343981794,-0.001449,0.00309,-0.001116,0.03,-0.34,9.88,31.18
343982806,-0.001449,-0.000105,-0.002181,0.04,-0.34,9.93,31.24
343983825,-0.001449,-0.002236,-0.002181,0.04,-0.33,9.92,31.23
343984825,-0.001449,-0.001171,-0.002181,0.02,-0.31,9.89,31.22
343985837,-0.002514,-0.001171,-0.001116,-0.02,-0.32,9.87,31.2
343986846,-0.002514,-0.001171,-5e-05,-0.02,-0.31,9.86,31.21
343987855,-0.001449,-0.000105,-0.001116,0.01,-0.33,9.82,31.22
343988861,-0.001449,0.002025,-0.002181,0.03,-0.33,9.8,31.21
343989874,0.000682,-0.000105,-0.004311,0.05,-0.31,9.81,31.25
343990881,0.000682,-0.003301,-0.004311,0.05,-0.31,9.81,31.22
343991895,-0.000383,-0.005432,-0.001116,0.04,-0.3,9.82,31.27
343992901,-0.001449,-0.004367,-5e-05,0.0,-0.32,9.85,31.23
343993919,-0.000383,-0.000105,-0.001116,0.03,-0.3,9.86,31.21
343994921,0.000682,0.002025,-0.002181,0.03,-0.29,9.83,31.21
343995934,0.000682,0.00096,-0.002181,-0.01,-0.3,9.82,31.2
343996944,-0.000383,-0.000105,-0.001116,-0.01,-0.3,9.88,31.22
343997955,-0.001449,-0.000105,-0.001116,0.0,-0.32,9.86,31.2
343998963,-0.001449,0.00096,-0.001116,0.01,-0.31,9.8,31.24
343999975,-0.001449,0.002025,-5e-05,0.02,-0.32,9.83,31.24
344000983,-0.003579,0.00096,0.003146,0.02,-0.34,9.82,31.23
344001995,-0.003579,-0.001171,0.003146,0.03,-0.32,9.79,31.22
344003003,-0.003579,-0.003301,-5e-05,0.05,-0.3,9.81,31.2
344004021,-0.002514,-0.003301,0.001015,0.06,-0.31,9.78,31.24
344005023,-0.003579,-0.001171,0.00208,0.05,-0.34,9.79,31.23
344006035,-0.004645,0.002025,0.003146,0.06,-0.32,9.83,31.18
344007045,-0.003579,0.00309,-5e-05,0.06,-0.3,9.85,31.2
344008055,-0.001449,0.00309,-0.002181,0.05,-0.3,9.86,31.2
344009063,0.000682,0.00096,-0.002181,0.03,-0.32,9.82,31.18
344010075,0.002812,-0.002236,-0.001116,0.0,-0.34,9.8,31.19
344011083,0.002812,-0.002236,-0.001116,0.03,-0.34,9.83,31.21
344012096,0.002812,-0.001171,-0.001116,0.07,-0.34,9.84,31.26
344013103,-0.000383,-0.000105,-0.001116,0.06,-0.32,9.79,31.2
344014121,-0.002514,-0.002236,-0.002181,0.04,-0.3,9.79,31.18
344015123,-0.001449,-0.002236,-0.003246,0.03,-0.28,9.82,31.22
344016135,-0.002514,-0.000105,-0.002181,0.02,-0.27,9.81,31.2
344017145,-0.003579,0.00096,-5e-05,0.01,-0.3,9.82,31.2
344018155,-0.003579,0.002025,0.00208,-0.01,-0.34,9.82,31.24
344019163,-0.000383,0.00096,0.00208,0.0,-0.35,9.82,31.21
344020175,0.002812,0.00096,0.001015,0.01,-0.32,9.86,31.21
344021183,0.003878,0.00309,-5e-05,-0.02,-0.29,9.87,31.19
344022195,0.001747,0.002025,0.001015,0.01,-0.31,9.87,31.22
344023203,-0.000383,-0.000105,0.001015,0.04,-0.32,9.83,31.2
344024221,-0.000383,-0.001171,0.001015,0.03,-0.31,9.81,31.23
344025223,0.000682,-0.001171,-5e-05,0.03,-0.31,9.85,31.24
344026243,0.002812,-0.001171,0.001015,0.03,-0.31,9.86,31.24
344027246,0.002812,-0.002236,-5e-05,0.04,-0.32,9.82,31.23
344028255,-0.000383,-0.002236,-0.003246,0.05,-0.33,9.83,31.24
344029263,-0.001449,-0.004367,-0.003246,0.03,-0.3,9.9,31.25
344030275,0.000682,-0.005432,-0.002181,0.04,-0.26,9.88,31.24
344031283,0.002812,-0.003301,-0.002181,0.02,-0.27,9.83,31.24
344032296,-0.000383,-0.000105,-0.002181,-0.02,-0.31,9.78,31.22
344033303,-0.002514,0.005221,-0.002181,-0.01,-0.34,9.76,31.21
344034322,-0.001449,0.005221,-0.002181,0.01,-0.35,9.81,31.23
344035323,0.000682,-0.001171,-0.002181,0.03,-0.34,9.82,31.23
344036343,0.001747,-0.002236,-0.001116,0.05,-0.35,9.78,31.22
344037346,0.001747,-0.000105,-0.001116,0.06,-0.37,9.84,31.25
344038355,-0.000383,0.002025,-0.001116,0.06,-0.34,9.86,31.26
344039363,-0.002514,0.00309,-0.002181,0.04,-0.3,9.83,31.2
344040375,-0.002514,0.00096,-0.002181,0.0,-0.31,9.82,31.19
344041383,-0.001449,-0.001171,-5e-05,-0.01,-0.32,9.83,31.21
344042395,0.000682,-0.000105,-5e-05,0.01,-0.33,9.86,31.23
344043403,0.001747,0.002025,-0.001116,0.03,-0.33,9.81,31.22
344044421,0.001747,0.00309,-0.003246,-0.01,-0.31,9.8,31.2
344045423,0.001747,0.002025,-0.003246,-0.02,-0.3,9.81,31.19
344046443,0.002812,0.00096,-0.001116,0.04,-0.28,9.82,31.19
344047446,0.001747,-0.002236,-5e-05,0.06,-0.3,9.85,31.19
344048455,0.000682,-0.002236,-5e-05,0.04,-0.34,9.8,31.17
344049463,-0.000383,-0.001171,-5e-05,0.02,-0.32,9.81,31.21
344050475,-0.001449,-0.000105,-5e-05,-0.01,-0.29,9.82,31.2
344051483,-0.000383,-0.000105,0.003146,0.0,-0.29,9.78,31.22
344052496,0.000682,-0.000105,0.003146,0.02,-0.29,9.77,31.25
344053510,-0.001449,-0.001171,0.001015,0.02,-0.31,9.79,31.22
344054565,-0.002514,-0.000105,-0.001116,0.01,-0.31,9.84,31.23
344055523,-0.000383,0.00096,-0.001116,0.01,-0.33,9.82,31.2
344056543,0.000682,0.002025,-5e-05,0.02,-0.34,9.83,31.2
344057546,0.001747,-0.000105,-5e-05,0.02,-0.32,9.88,31.19
344058555,0.001747,-0.002236,-5e-05,0.03,-0.34,9.88,31.18
344059563,0.000682,-0.001171,0.001015,0.01,-0.33,9.87,31.26
344060579,-0.000383,-0.001171,0.001015,0.03,-0.3,9.89,31.26
344061585,0.000682,-0.001171,0.001015,0.01,-0.3,9.86,31.23
344062603,0.003878,-0.000105,-5e-05,-0.01,-0.3,9.84,31.25
344063616,0.001747,0.00096,0.00208,0.04,-0.31,9.85,31.25
344064619,-0.000383,-0.000105,0.004211,0.07,-0.32,9.86,31.22
344065631,-0.001449,-0.000105,0.004211,0.06,-0.33,9.85,31.2
344066648,-0.002514,0.00096,0.003146,0.04,-0.32,9.79,31.2
344067653,-0.001449,0.002025,0.001015,0.04,-0.32,9.78,31.23
344068666,-0.000383,0.00096,-5e-05,0.05,-0.3,9.82,31.23
344069679,0.000682,-0.002236,-0.001116,0.04,-0.3,9.81,31.23
344070685,0.000682,-0.003301,0.001015,0.02,-0.31,9.8,31.23
344071689,0.000682,-0.002236,0.00208,0.05,-0.31,9.82,31.23
344072705,0.000682,-0.002236,0.00208,0.07,-0.3,9.82,31.22
344073722,0.001747,-0.002236,0.001015,0.03,-0.3,9.84,31.24
344074726,0.002812,-0.000105,-5e-05,0.02,-0.32,9.81,31.24
344075731,0.001747,-0.000105,-5e-05,0.02,-0.31,9.76,31.28
344076752,-0.000383,-0.000105,-0.001116,0.01,-0.26,9.82,31.28
344077755,-0.001449,-0.000105,0.001015,0.02,-0.28,9.85,31.25
344078798,-0.001422,-9.2e-05,0.001046,0.04,-0.34,9.86,31.21
344079772,0.000709,-9.2e-05,-1.9e-05,0.04,-0.33,9.88,31.19
344080779,0.000709,-9.2e-05,-1.9e-05,0.01,-0.3,9.85,31.19
344081787,-0.001422,0.002039,-1.9e-05,0.01,-0.29,9.83,31.18
344082795,-0.002487,0.003104,-1.9e-05,0.05,-0.3,9.8,31.23
344083816,0.000709,0.002039,-1.9e-05,0.06,-0.32,9.83,31.22
344084818,0.000709,-9.2e-05,0.001046,0.04,-0.34,9.84,31.22
344085826,-0.000356,-9.2e-05,0.001046,0.03,-0.31,9.82,31.21
344086847,-0.001422,0.000974,0.002111,0.02,-0.33,9.83,31.24
344087848,-0.001422,0.002039,0.002111,0.01,-0.35,9.81,31.24
344088856,-0.001422,0.002039,-1.9e-05,0.04,-0.31,9.85,31.21
344089863,0.000709,0.000974,-0.00215,0.03,-0.25,9.86,31.2
344090875,0.000709,0.000974,-0.001084,0.01,-0.28,9.87,31.22
344091883,0.000709,0.003104,-1.9e-05,-0.01,-0.31,9.85,31.24
344092896,0.000709,0.000974,-1.9e-05,0.0,-0.27,9.81,31.24
344093910,0.001774,-0.001157,-0.00215,0.01,-0.29,9.82,31.25
344094915,0.00284,-0.001157,-0.00215,0.02,-0.32,9.81,31.22
344095931,-0.000356,-0.002222,-0.001084,0.05,-0.34,9.83,31.23
344096936,-0.001422,-0.001157,-1.9e-05,0.06,-0.34,9.82,31.25
344097945,-0.001422,-0.001157,0.001046,0.05,-0.31,9.81,31.25
344098955,-0.001422,-9.2e-05,0.001046,0.05,-0.29,9.84,31.21
344099963,-0.002487,0.002039,0.001046,0.03,-0.3,9.8,31.2
344100975,-0.002487,-9.2e-05,-1.9e-05,0.02,-0.34,9.8,31.2
344101983,-0.003552,-0.002222,-1.9e-05,0.02,-0.37,9.84,31.21
344102995,-0.002487,-0.002222,0.001046,0.01,-0.34,9.84,31.21
344104008,0.000709,-0.002222,0.002111,0.04,-0.29,9.82,31.19
344105015,0.003905,-0.002222,-0.001084,0.07,-0.29,9.8,31.2
344106031,0.00497,-0.001157,-0.00215,0.04,-0.3,9.83,31.23
344107036,0.000709,0.002039,-0.001084,0.01,-0.3,9.87,31.2
344108045,-0.002487,0.002039,0.001046,0.04,-0.29,9.84,31.23
344109055,-0.002487,0.000974,0.002111,0.04,-0.3,9.84,31.21
344110063,-0.000356,0.000974,0.003177,0.0,-0.3,9.85,31.22
344111075,0.001774,-9.2e-05,0.002111,0.02,-0.3,9.86,31.21
344112083,0.00284,-9.2e-05,0.001046,0.02,-0.3,9.84,31.2
344113096,0.00284,-0.001157,-0.001084,0.04,-0.31,9.82,31.21
344114110,0.001774,-0.001157,-0.001084,0.03,-0.34,9.87,31.23
344115115,0.001774,-0.001157,-0.001084,0.03,-0.33,9.88,31.24
344116131,0.001774,-0.001157,-1.9e-05,0.07,-0.32,9.87,31.24
344117136,0.001774,-0.002222,0.002111,0.07,-0.34,9.86,31.26
344118145,-0.000356,-0.001157,0.004242,0.05,-0.35,9.85,31.28
344119155,-0.000356,-0.002222,0.003177,0.01,-0.33,9.81,31.25
344120163,-0.000356,-0.004353,0.003177,0.0,-0.33,9.78,31.2
344121175,0.000709,-0.005418,0.002111,-0.01,-0.37,9.78,31.27
344122183,0.001774,-0.005418,-1.9e-05,-0.01,-0.36,9.76,31.23
344123195,0.00284,-0.003288,-0.00215,0.01,-0.32,9.78,31.19
344124207,0.001774,-9.2e-05,-0.00215,0.01,-0.34,9.8,31.21
344125214,-0.000356,-9.2e-05,-1.9e-05,0.03,-0.33,9.79,31.2
344126230,-0.001422,-0.001157,0.001046,0.04,-0.3,9.8,31.2
344127235,-0.000356,-0.001157,0.002111,0.04,-0.3,9.81,31.26
344128244,-0.000356,0.000974,0.002111,0.04,-0.32,9.8,31.23
344129254,0.000709,0.004169,0.001046,0.03,-0.32,9.81,31.22
344130261,0.000709,0.005235,0.001046,0.03,-0.31,9.81,31.23
344131274,-0.001422,0.003104,-1.9e-05,0.03,-0.32,9.79,31.22
344132281,-0.001422,-9.2e-05,-0.001084,0.03,-0.35,9.82,31.2
344133295,-0.000356,-0.002222,-0.001084,0.01,-0.34,9.84,31.2
344134308,-0.001422,-0.003288,-0.00215,0.0,-0.32,9.81,31.23
344135314,-0.001422,-0.004353,-0.001084,0.01,-0.3,9.84,31.21
344136330,0.000709,-0.002222,-1.9e-05,0.03,-0.28,9.88,31.22
344137335,0.00284,0.000974,0.001046,0.04,-0.3,9.86,31.2
344138344,0.003905,-9.2e-05,0.003177,0.03,-0.3,9.81,31.21
344139354,0.000709,-0.001157,0.002111,0.06,-0.31,9.82,31.21
344140361,-0.000356,-0.001157,-0.001084,0.04,-0.33,9.84,31.24
344141374,-0.001422,-9.2e-05,-0.00215,0.02,-0.3,9.82,31.26
344142381,-0.003552,0.000974,-0.001084,0.04,-0.27,9.83,31.23
344143394,-0.002487,-9.2e-05,-1.9e-05,0.02,-0.3,9.86,31.21
344144407,-0.000356,-0.001157,-1.9e-05,0.02,-0.31,9.89,31.21
344145414,-0.001422,-0.002222,-1.9e-05,0.02,-0.31,9.85,31.2
344146430,-0.002487,-0.001157,-0.001084,0.03,-0.32,9.8,31.2
344147435,-0.002487,0.000974,-0.00215,0.03,-0.31,9.82,31.21
344148444,-0.002487,0.002039,-0.001084,0.0,-0.32,9.85,31.24
344149454,-0.003552,0.000974,0.002111,0.0,-0.34,9.87,31.24
344150461,-0.003552,0.000974,0.004242,0.01,-0.35,9.88,31.21
344151474,-0.001422,0.002039,0.004242,0.02,-0.34,9.88,31.17
344152481,-0.001422,0.000974,0.005307,0.02,-0.34,9.86,31.19
344153503,-0.003552,0.002039,0.004242,0.02,-0.36,9.82,31.22
344154501,-0.000356,0.002039,0.004242,0.05,-0.33,9.83,31.22
344155514,0.000709,0.002039,0.002111,0.06,-0.31,9.85,31.24
344156534,-0.000356,0.003104,0.002111,0.04,-0.28,9.83,31.25
344157535,-0.002487,0.002039,0.001046,0.03,-0.29,9.82,31.25
344158544,-0.002487,-9.2e-05,-0.001084,0.03,-0.29,9.83,31.23
344159554,-0.000356,-0.001157,-0.001084,0.02,-0.32,9.81,31.21
344160561,0.000709,0.000974,-0.001084,0.04,-0.35,9.82,31.2
344161577,0.000709,0.000974,-0.00215,0.06,-0.32,9.84,31.18
344162582,0.000709,0.002039,-0.001084,0.02,-0.32,9.83,31.2
344163604,-0.001422,0.002039,-0.00215,0.03,-0.32,9.81,31.21
344164609,-0.000356,-0.001157,-0.003215,0.04,-0.32,9.8,31.23
344165617,0.00284,-0.003288,-0.003215,0.04,-0.32,9.85,31.22
344166642,0.003905,-0.003288,-1.9e-05,0.04,-0.3,9.82,31.24
344167643,0.001774,-0.002222,0.001046,0.01,-0.32,9.77,31.23
344168651,0.000709,-9.2e-05,-1.9e-05,0.01,-0.31,9.82,31.23
344169663,-0.001422,0.002039,-1.9e-05,0.01,-0.28,9.82,31.2
344170671,-0.002487,0.000974,-0.001084,0.0,-0.27,9.79,31.18
344171682,-0.002487,-9.2e-05,-0.001084,-0.01,-0.27,9.78,31.22
344172691,-0.000356,-9.2e-05,-1.9e-05,-0.01,-0.3,9.77,31.21
344173717,0.000709,0.000974,0.001046,0.0,-0.32,9.78,31.2
344174711,0.00284,0.003104,0.001046,0.02,-0.3,9.8,31.18
344175726,0.006035,0.004169,-0.00215,0.04,-0.32,9.79,31.19
344176739,0.006035,0.003104,-0.00215,0.01,-0.35,9.81,31.22
344177743,0.003905,-9.2e-05,-1.9e-05,0.0,-0.33,9.85,31.22
344178756,0.001774,-0.003288,0.003177,0.02,-0.3,9.88,31.21
344179764,0.001774,-0.004353,0.003177,0.02,-0.3,9.87,31.21
344180769,0.000709,-0.001157,-1.9e-05,0.0,-0.32,9.85,31.19
344181778,-0.000356,-9.2e-05,-0.001084,0.04,-0.31,9.81,31.23
344182786,0.000709,-0.001157,-1.9e-05,0.05,-0.29,9.76,31.27
344183814,0.00284,-0.003288,-0.001084,0.0,-0.31,9.76,31.23
344184806,0.00284,-0.003288,-1.9e-05,-0.01,-0.32,9.82,31.2
344185816,0.001774,-0.002222,0.001046,0.02,-0.33,9.86,31.26
344186825,0.001774,-9.2e-05,0.001046,0.03,-0.33,9.85,31.26
344187837,0.001774,-0.001157,0.001046,0.04,-0.31,9.82,31.26
344188846,0.000709,-0.003288,0.001046,0.05,-0.32,9.79,31.22
344189855,-0.000356,-9.2e-05,-1.9e-05,0.06,-0.34,9.79,31.22
344190861,-0.001422,0.003104,-0.001084,0.08,-0.31,9.82,31.24
344191874,0.000709,0.005235,-0.001084,0.06,-0.3,9.83,31.23
344192881,0.001774,0.002039,-1.9e-05,0.01,-0.33,9.82,31.23
344193902,0.003905,-9.2e-05,0.002111,0.01,-0.34,9.84,31.21
344194901,0.00284,0.000974,0.002111,0.0,-0.35,9.82,31.22
344195914,-0.000356,0.002039,0.001046,-0.02,-0.34,9.81,31.24
344196921,-0.002487,0.002039,0.001046,0.02,-0.31,9.82,31.23
344197934,-0.002487,-9.2e-05,0.002111,0.05,-0.32,9.8,31.18
344198944,-0.002487,-9.2e-05,0.001046,0.06,-0.34,9.78,31.21
344199954,-0.003552,0.002039,0.001046,0.04,-0.31,9.79,31.22
344200961,-0.002487,-9.2e-05,0.002111,0.06,-0.3,9.84,31.21
344201974,-0.001422,-9.2e-05,0.003177,0.1,-0.31,9.82,31.21
344202981,-0.001422,-9.2e-05,0.002111,0.05,-0.32,9.81,31.21
344204001,-0.001422,-0.001157,0.002111,0.02,-0.32,9.83,31.21
344205003,-0.001422,-0.002222,0.002111,0.01,-0.29,9.85,31.23
344206015,-0.001422,-0.003288,-1.9e-05,0.01,-0.31,9.83,31.25
344207023,0.000709,-0.002222,-0.001084,0.04,-0.32,9.87,31.24
344208067,0.002834,-7.9e-05,0.000994,0.06,-0.3,9.87,31.24
344209048,0.002834,0.000987,0.00206,0.07,-0.32,9.81,31.22
344210055,0.000704,0.000987,-7.1e-05,0.04,-0.33,9.79,31.2
344211063,-0.001427,-7.9e-05,0.000994,0.02,-0.31,9.79,31.2
344212075,-0.002492,-0.002209,0.003125,0.01,-0.33,9.79,31.18
344213083,-0.002492,-0.003275,0.00206,0.01,-0.34,9.79,31.2
344214103,-0.001427,-0.00434,-0.001136,0.04,-0.35,9.79,31.2
344215103,-0.002492,-0.00434,-0.002201,0.02,-0.35,9.81,31.18
344216115,-0.003557,-0.003275,-7.1e-05,-0.01,-0.33,9.85,31.21
344217123,-0.003557,-0.001144,0.00206,0.02,-0.31,9.86,31.21
344218135,-0.004623,-7.9e-05,-7.1e-05,0.0,-0.31,9.85,31.21
344219145,-0.004623,-0.001144,-0.002201,0.0,-0.34,9.81,31.2
344220155,-0.000362,-0.003275,-0.001136,0.02,-0.34,9.84,31.26
344221163,0.0039,-0.002209,0.00206,0.03,-0.34,9.89,31.24
344222175,0.0039,-0.002209,0.00419,0.03,-0.32,9.86,31.24
344223183,0.002834,-0.002209,0.00419,0.04,-0.29,9.86,31.22
344224202,0.002834,-0.001144,0.003125,0.06,-0.29,9.86,31.21
344225203,0.001769,-7.9e-05,0.003125,0.03,-0.31,9.8,31.23
344226215,-0.001427,0.000987,0.00206,0.01,-0.32,9.8,31.23
344227223,-0.001427,0.002052,0.000994,0.01,-0.33,9.87,31.23
344228235,0.000704,0.003117,-7.1e-05,0.03,-0.31,9.88,31.24
344229245,0.001769,0.000987,-7.1e-05,0.02,-0.27,9.86,31.21
344230255,0.000704,-7.9e-05,-7.1e-05,0.0,-0.27,9.83,31.21
344231263,-0.000362,-7.9e-05,-7.1e-05,0.02,-0.31,9.81,31.23
344232275,-0.001427,-7.9e-05,-0.001136,0.03,-0.33,9.8,31.23
344233283,-0.001427,0.000987,-0.001136,0.02,-0.31,9.81,31.23
344234303,0.000704,0.002052,-7.1e-05,0.06,-0.32,9.85,31.2
344235303,0.000704,0.004182,0.000994,0.09,-0.32,9.86,31.24
344236315,0.000704,0.002052,0.000994,0.05,-0.3,9.82,31.24
344237323,0.001769,-7.9e-05,-7.1e-05,0.01,-0.28,9.79,31.25
344238335,0.000704,-7.9e-05,-0.001136,0.0,-0.29,9.82,31.23
344239345,0.001769,0.000987,-0.001136,-0.01,-0.29,9.87,31.22
344240355,0.0039,0.000987,-7.1e-05,0.01,-0.28,9.89,31.19
344241363,0.004965,0.000987,-7.1e-05,0.03,-0.29,9.84,31.23
344242375,0.002834,-7.9e-05,-0.001136,0.02,-0.31,9.83,31.24
344243383,-0.000362,-0.00434,-7.1e-05,0.01,-0.31,9.81,31.22
344244402,-0.001427,-0.00434,-7.1e-05,0.02,-0.3,9.8,31.22
344245403,0.000704,-7.9e-05,-0.001136,0.02,-0.31,9.79,31.2
344246415,0.000704,0.003117,-0.003267,0.04,-0.31,9.78,31.2
344247423,-0.000362,0.002052,-0.001136,0.05,-0.29,9.82,31.23
344248435,-0.000362,0.000987,0.003125,0.0,-0.31,9.82,31.25
344249445,-0.001427,-7.9e-05,0.00419,-0.01,-0.33,9.83,31.24
344250455,-0.002492,-7.9e-05,0.00206,0.03,-0.34,9.86,31.26
344251463,-0.002492,0.002052,0.00206,0.02,-0.35,9.87,31.24
344252475,-0.003557,0.004182,0.00206,0.04,-0.35,9.85,31.23
344253488,-0.002492,0.003117,0.000994,0.07,-0.37,9.85,31.21
344254497,-0.000362,-0.00434,-7.1e-05,0.04,-0.35,9.82,31.23
344255503,-0.002492,-0.003275,-7.1e-05,0.03,-0.33,9.84,31.22
344256515,-0.003557,-7.9e-05,-0.002201,0.03,-0.33,9.8,31.2
344257523,-0.002492,0.002052,-0.002201,0.01,-0.33,9.8,31.21
344258535,-0.000362,0.003117,0.000994,-0.01,-0.32,9.86,31.22
344259544,-0.000362,0.003117,0.00206,0.0,-0.33,9.85,31.22
344260555,-0.000362,0.002052,0.00206,0.02,-0.34,9.83,31.21
344261562,0.000704,-7.9e-05,0.000994,0.05,-0.33,9.82,31.25
344262583,0.001769,-0.002209,-0.001136,0.05,-0.34,9.82,31.23
344263596,0.000704,-0.00434,-7.1e-05,0.03,-0.34,9.82,31.26
344264603,0.000704,-0.003275,-7.1e-05,0.06,-0.33,9.8,31.25
344265613,0.000704,-0.002209,-7.1e-05,0.09,-0.33,9.81,31.23
344266619,-0.000362,-0.00434,0.000994,0.06,-0.3,9.82,31.22
344267631,-0.001427,-0.003275,0.00206,0.03,-0.28,9.85,31.25
344268643,-0.002492,-7.9e-05,0.003125,0.03,-0.32,9.85,31.24
344269669,-0.001427,-7.9e-05,0.00206,0.02,-0.34,9.8,31.27
344270665,-0.001427,0.000987,0.000994,0.02,-0.31,9.8,31.24
344271671,-0.000362,0.003117,-0.001136,0.03,-0.28,9.79,31.23
344272683,-0.000362,0.002052,-0.003267,0.02,-0.31,9.82,31.22
344273697,0.000704,0.000987,-0.003267,0.03,-0.33,9.88,31.19
344274706,0.002834,-7.9e-05,-0.001136,0.03,-0.32,9.85,31.21
344275714,0.002834,0.000987,-7.1e-05,0.02,-0.35,9.79,31.24
344276723,0.000704,0.004182,-7.1e-05,0.0,-0.37,9.79,31.24
344277732,-0.000362,0.005248,-0.001136,-0.02,-0.33,9.83,31.23
344278744,-0.001427,0.002052,-0.001136,0.0,-0.3,9.85,31.22
344279756,-0.000362,-7.9e-05,-7.1e-05,0.0,-0.28,9.81,31.21
344280767,0.001769,-0.001144,-0.001136,-0.01,-0.31,9.8,31.23
344281769,0.002834,0.000987,-0.002201,-0.01,-0.34,9.8,31.25
344282779,0.002834,0.002052,-0.001136,0.0,-0.33,9.81,31.23
344283797,0.001769,-7.9e-05,-7.1e-05,0.0,-0.33,9.83,31.22
344284795,0.000704,-0.002209,0.000994,0.0,-0.32,9.83,31.23
344285807,-0.000362,-0.002209,-7.1e-05,0.03,-0.32,9.83,31.25
344286818,-0.000362,-0.001144,0.000994,0.02,-0.32,9.82,31.25
344287826,-0.000362,-7.9e-05,0.003125,0.01,-0.31,9.85,31.2
344288839,-0.001427,-7.9e-05,0.003125,0.04,-0.32,9.89,31.24
344289847,-0.001427,-0.001144,0.00206,0.04,-0.34,9.92,31.22
344290856,-0.000362,-0.003275,0.000994,0.07,-0.33,9.86,31.26
344291863,-0.000362,-0.00434,0.00206,0.05,-0.33,9.82,31.22
344292875,-0.001427,-0.003275,0.00206,0.04,-0.33,9.82,31.24
344293888,-0.002492,-0.001144,0.000994,0.06,-0.32,9.82,31.23
344294897,-0.002492,0.000987,-0.001136,0.04,-0.31,9.88,31.23
344295903,-0.001427,-7.9e-05,-0.001136,0.02,-0.33,9.85,31.25
344296915,0.000704,-0.001144,-7.1e-05,0.04,-0.35,9.82,31.25
344297923,0.001769,-0.001144,-0.002201,0.04,-0.36,9.83,31.26
344298935,-0.000362,0.000987,-0.004332,0.0,-0.35,9.8,31.28
344299944,-0.001427,0.000987,-0.005397,0.03,-0.3,9.81,31.24
344300955,-0.001427,-7.9e-05,-0.005397,0.03,-0.31,9.83,31.23
344301963,-0.002492,0.000987,-0.003267,-0.01,-0.31,9.82,31.22
344302975,-0.002492,0.000987,-0.001136,0.0,-0.28,9.77,31.22
344303988,-0.000362,0.000987,-0.001136,0.03,-0.29,9.78,31.23
344304995,0.000704,0.002052,-0.001136,0.03,-0.33,9.8,31.23
344306003,-0.000362,0.000987,-0.001136,0.01,-0.35,9.82,31.21
344307015,-0.002492,-7.9e-05,0.000994,0.01,-0.32,9.84,31.2
344308023,-0.001427,-0.001144,0.000994,0.02,-0.31,9.8,31.18
344309035,-0.000362,-0.001144,0.000994,0.04,-0.34,9.83,31.23
344310045,0.000704,-0.001144,0.000994,0.02,-0.34,9.83,31.24
344311055,0.001769,-0.001144,0.00206,0.0,-0.32,9.81,31.23
344312063,0.001769,-0.002209,0.000994,0.01,-0.31,9.86,31.2
344313075,0.000704,-0.002209,-0.001136,0.01,-0.33,9.86,31.22
344314088,-0.000362,-0.001144,-0.001136,0.01,-0.3,9.84,31.22
344315097,-0.001427,0.000987,-7.1e-05,0.03,-0.29,9.82,31.22
344316103,-0.002492,0.004182,-7.1e-05,0.06,-0.33,9.78,31.22
344317115,-0.000362,0.003117,-7.1e-05,0.04,-0.32,9.81,31.24
344318123,0.002834,0.002052,-7.1e-05,0.01,-0.31,9.88,31.23
344319135,0.0039,0.000987,0.000994,0.01,-0.33,9.87,31.21
344320144,0.001769,-7.9e-05,0.000994,0.01,-0.33,9.83,31.21
344321155,-0.001427,-7.9e-05,-7.1e-05,0.03,-0.29,9.8,31.23
344322163,-0.002492,-0.001144,-7.1e-05,0.0,-0.29,9.79,31.24
344323175,-0.000362,-0.001144,-7.1e-05,0.01,-0.33,9.83,31.24
344324188,-0.000362,0.000987,-7.1e-05,0.04,-0.35,9.85,31.25
344325195,-0.001427,-7.9e-05,-0.002201,0.07,-0.36,9.84,31.21
344326203,-0.002492,-0.002209,-0.002201,0.03,-0.32,9.8,31.22
344327215,-0.001427,-0.003275,-0.001136,-0.02,-0.31,9.79,31.25
344328223,-0.001427,-0.00434,-7.1e-05,0.0,-0.32,9.78,31.25
344329235,-0.000362,-0.003275,-0.001136,0.0,-0.32,9.81,31.22
344330245,0.001769,-0.001144,-0.002201,-0.01,-0.33,9.83,31.19
344331255,0.0039,-0.001144,-0.001136,0.03,-0.33,9.88,31.23
344332263,0.002834,0.002052,-7.1e-05,0.05,-0.33,9.88,31.25
344333275,0.000704,0.004182,-7.1e-05,0.02,-0.34,9.82,31.25
344334288,-0.001427,0.005248,-0.002201,0.03,-0.33,9.82,31.28
344335297,-0.000362,0.004182,-0.002201,0.03,-0.31,9.86,31.29
344336303,-0.000362,0.000987,-0.001136,0.01,-0.33,9.88,31.23
344337347,-0.000339,-0.001133,-0.001136,0.04,-0.3,9.82,31.2
344338326,0.001792,-0.001133,-0.001136,0.04,-0.3,9.79,31.22
344339335,0.002857,0.000998,-0.002201,0.04,-0.33,9.82,31.23
344340344,0.002857,0.003129,-0.002201,0.06,-0.29,9.85,31.21
344341355,0.002857,0.000998,-0.001136,0.04,-0.28,9.85,31.16
344342363,0.002857,0.000998,-0.001136,0.02,-0.34,9.8,31.18
344343375,0.001792,0.000998,0.000995,0.04,-0.34,9.81,31.18
344344388,-0.000339,-0.001133,0.00206,0.02,-0.3,9.82,31.21
344345395,-0.00247,-0.002198,0.000995,0.0,-0.31,9.8,31.2
344346403,-0.00247,-0.001133,-7e-05,0.03,-0.31,9.81,31.23
344347415,0.000726,-0.001133,0.00206,0.06,-0.32,9.82,31.23
344348423,-0.000339,-0.003263,0.00206,0.05,-0.32,9.79,31.23
344349435,-0.000339,-0.002198,0.00206,0.07,-0.31,9.79,31.22
344350445,-0.000339,-6.7e-05,0.003125,0.08,-0.33,9.8,31.2
344351455,-0.000339,-0.003263,0.00206,0.04,-0.35,9.8,31.21
344352463,0.000726,-0.006459,-7e-05,0.01,-0.34,9.83,31.2
344353481,0.000726,-0.005394,-0.001136,0.02,-0.32,9.82,31.2
344354483,0.002857,0.000998,0.000995,0.04,-0.34,9.87,31.19
344355497,0.000726,0.003129,0.00206,0.05,-0.34,9.88,31.2
344356503,-0.001404,0.003129,-7e-05,0.05,-0.3,9.87,31.21
344357515,-0.001404,0.002063,-0.003266,0.01,-0.29,9.83,31.24
344358523,-0.001404,0.000998,-0.003266,0.01,-0.3,9.83,31.21
344359535,-0.001404,0.000998,-0.001136,0.02,-0.32,9.85,31.24
344360544,-0.00247,0.002063,0.000995,0.01,-0.32,9.84,31.23
344361596,-0.00247,0.002063,0.003125,0.02,-0.32,9.82,31.23
344362562,-0.001404,0.003129,0.003125,0.04,-0.33,9.84,31.25
344363581,-0.001404,0.004194,0.003125,0.02,-0.33,9.81,31.23
344364585,-0.000339,0.004194,0.00206,0.04,-0.32,9.8,31.2
344365604,0.000726,0.003129,0.000995,0.05,-0.33,9.83,31.22
344366609,0.002857,-6.7e-05,-7e-05,0.04,-0.31,9.82,31.21
344367619,0.000726,-0.002198,-7e-05,0.04,-0.31,9.79,31.21
344368629,-0.000339,-0.001133,0.000995,0.03,-0.32,9.75,31.2
344369652,-0.001404,-6.7e-05,0.000995,0.02,-0.31,9.78,31.21
344370652,-0.00247,-6.7e-05,-7e-05,0.01,-0.29,9.85,31.23
344371663,-0.001404,-0.002198,-0.001136,0.05,-0.33,9.82,31.25
344372673,-0.000339,-0.003263,-0.001136,0.05,-0.36,9.82,31.21
344373688,0.000726,-0.001133,0.000995,0.0,-0.32,9.84,31.22
344374691,0.001792,-0.001133,0.00206,0.0,-0.33,9.87,31.22
344375711,0.000726,-0.002198,0.00206,0.03,-0.34,9.87,31.2
344376711,-0.000339,-0.002198,0.000995,0.01,-0.33,9.82,31.2
344377728,-0.000339,-0.001133,0.000995,0.01,-0.35,9.79,31.23
344378732,-0.000339,0.000998,-7e-05,0.02,-0.34,9.79,31.24
344379743,-0.000339,-6.7e-05,0.00206,0.01,-0.32,9.81,31.23
344380755,-0.000339,-0.001133,0.003125,0.02,-0.33,9.82,31.21
344381765,0.000726,-0.001133,0.003125,0.03,-0.34,9.84,31.2
344382770,0.000726,-0.001133,0.00206,0.04,-0.33,9.79,31.24
344383790,0.001792,-6.7e-05,0.00206,0.0,-0.31,9.77,31.24
344384787,0.000726,0.000998,0.003125,0.02,-0.33,9.84,31.23
344385795,0.000726,-6.7e-05,0.00206,0.03,-0.35,9.84,31.21
344386807,0.000726,-0.001133,0.000995,0.04,-0.34,9.84,31.22
344387818,-0.000339,-0.002198,-7e-05,0.04,-0.33,9.87,31.21
344388826,-0.000339,-0.002198,-0.001136,0.02,-0.3,9.87,31.18
344389839,-0.000339,-0.002198,-7e-05,0.03,-0.32,9.88,31.21
344390847,0.000726,-0.001133,-7e-05,0.03,-0.34,9.87,31.22
344391856,0.001792,-0.001133,-0.002201,0.04,-0.31,9.86,31.23
344392863,0.000726,-0.002198,-0.003266,0.03,-0.34,9.84,31.24
344393881,-0.000339,-0.002198,-0.002201,0.04,-0.33,9.87,31.2
344394883,-0.001404,-0.002198,-0.003266,0.03,-0.32,9.86,31.2
344395897,-0.000339,0.000998,-0.002201,0.04,-0.33,9.84,31.23
344396903,-0.001404,0.002063,-0.002201,0.04,-0.34,9.85,31.29
344397915,0.000726,0.000998,-0.002201,0.01,-0.34,9.85,31.26
344398923,0.001792,0.000998,-0.001136,0.0,-0.36,9.9,31.23
344399935,-0.000339,0.003129,0.000995,0.02,-0.34,9.84,31.26
344400944,-0.000339,0.003129,0.00206,0.05,-0.3,9.8,31.24
344401955,-0.00247,0.000998,0.00206,0.03,-0.32,9.85,31.23
344402963,-0.00247,-0.001133,0.00206,0.02,-0.32,9.89,31.25
344403981,-0.001404,-0.003263,0.00206,0.02,-0.33,9.83,31.19
344404983,-0.000339,-0.002198,0.00206,0.05,-0.34,9.8,31.21
344405995,-0.00247,-6.7e-05,0.000995,0.05,-0.33,9.84,31.23
344407003,-0.00247,0.000998,-7e-05,0.02,-0.32,9.86,31.23
344408015,-0.000339,-6.7e-05,-7e-05,0.02,-0.28,9.87,31.23
344409023,0.000726,-0.001133,0.000995,0.0,-0.28,9.87,31.23
344410035,0.000726,0.000998,-7e-05,0.0,-0.3,9.86,31.24
344411045,-0.001404,0.000998,-7e-05,0.03,-0.28,9.87,31.24
344412055,-0.00247,-6.7e-05,0.000995,0.03,-0.3,9.88,31.22
344413063,-0.00247,-0.002198,0.003125,0.02,-0.33,9.85,31.23
344414081,-0.001404,-0.001133,0.00206,0.05,-0.33,9.82,31.23
344415083,-0.00247,-0.001133,-7e-05,0.04,-0.31,9.83,31.23
344416097,-0.00247,-6.7e-05,-7e-05,0.01,-0.32,9.83,31.22
344417103,-0.001404,-6.7e-05,-7e-05,0.01,-0.31,9.8,31.2
344418115,-0.001404,-0.001133,-7e-05,0.02,-0.28,9.79,31.22
344419123,0.000726,-0.003263,-7e-05,0.04,-0.3,9.83,31.23
344420135,0.001792,-0.003263,-0.002201,0.04,-0.3,9.85,31.21
344421144,0.001792,-6.7e-05,-0.003266,0.0,-0.28,9.86,31.17
344422155,-0.000339,0.003129,-0.001136,-0.02,-0.3,9.83,31.21
344423163,-0.00247,0.002063,0.00206,0.0,-0.3,9.85,31.23
344424181,-0.003535,-0.001133,0.003125,0.03,-0.28,9.84,31.25
344425183,-0.003535,-0.001133,0.000995,0.01,-0.29,9.82,31.24
344426195,-0.00247,-6.7e-05,-0.001136,0.02,-0.31,9.81,31.24
344427203,-0.00247,-6.7e-05,-0.002201,0.04,-0.29,9.82,31.26
344428215,0.000726,-0.001133,-0.002201,0.04,-0.3,9.85,31.28
344429223,0.001792,-6.7e-05,-0.003266,0.05,-0.32,9.81,31.24
344430235,0.000726,-0.001133,-0.002201,0.07,-0.33,9.81,31.21
344431245,-0.000339,-0.002198,-0.001136,0.04,-0.32,9.81,31.24
344432255,-0.001404,-0.001133,0.000995,0.04,-0.28,9.78,31.26
344433263,-0.001404,-0.001133,-7e-05,0.05,-0.3,9.79,31.24
344434281,-0.000339,-0.001133,0.000995,0.05,-0.34,9.79,31.27
344435283,0.000726,0.002063,0.00206,0.03,-0.36,9.8,31.26
344436297,0.001792,0.003129,0.003125,0.01,-0.33,9.82,31.26
344437303,0.000726,0.000998,0.00206,0.02,-0.31,9.84,31.26
344438315,0.000726,-0.001133,-7e-05,0.02,-0.28,9.84,31.24
344439323,-0.000339,-0.001133,-0.001136,0.05,-0.28,9.82,31.24
344440335,-0.000339,-0.001133,0.000995,0.04,-0.29,9.81,31.2
344441344,0.000726,-0.003263,0.00206,-0.01,-0.33,9.82,31.19
344442355,-0.000339,-0.001133,0.000995,0.0,-0.36,9.86,31.2
344443363,-0.0046,0.003129,-0.001136,0.04,-0.32,9.85,31.26
344444381,-0.003535,0.004194,-0.001136,0.04,-0.3,9.82,31.23
344445383,-0.000339,0.000998,-7e-05,0.03,-0.3,9.82,31.21
344446395,0.000726,0.002063,0.000995,0.06,-0.29,9.82,31.18
344447403,0.001792,0.003129,0.00206,0.08,-0.29,9.82,31.16
344448415,0.002857,0.002063,0.00206,0.04,-0.3,9.82,31.16
344449423,0.001792,0.000998,0.000995,0.0,-0.31,9.83,31.17
344450435,-0.000339,0.000998,-7e-05,0.0,-0.33,9.85,31.24
344451489,-0.000339,0.000998,-7e-05,0.04,-0.3,9.81,31.24
344452495,0.000726,0.002063,-7e-05,0.04,-0.29,9.79,31.23
344453468,0.001792,-6.7e-05,-7e-05,0.03,-0.32,9.84,31.23
344454475,0.000726,-0.001133,0.000995,0.02,-0.33,9.89,31.17
344455482,-0.00247,-6.7e-05,-7e-05,0.02,-0.32,9.9,31.18
344456497,-0.000339,-6.7e-05,-7e-05,0.02,-0.3,9.87,31.17
344457553,0.000726,-6.7e-05,0.000995,0.07,-0.31,9.84,31.19
344458515,-0.000339,-0.001133,0.00206,0.05,-0.3,9.86,31.21
344459523,-0.003535,-0.002198,0.00206,0.01,-0.3,9.84,31.22
344460535,-0.00247,-6.7e-05,-7e-05,0.02,-0.31,9.84,31.21
344461544,0.000726,-0.001133,-7e-05,0.03,-0.31,9.85,31.2
