time_us,gyro_x_rad_s,gyro_y_rad_s,gyro_z_rad_s,acc_x_m_s2,acc_y_m_s2,acc_z_m_s2,temperature_c
276616161,-0.00022,0.000775,-0.003139,0.02,-0.31,9.82,31.03
276617000,-0.00022,-0.002421,-0.001008,0.06,-0.31,9.83,31.07
276618037,0.000845,-0.002421,0.001122,0.06,-0.33,9.8,31.07
276618997,0.000845,-0.002421,0.001122,0.06,-0.33,9.8,31.07
276620004,0.000845,-0.001356,5.7e-05,0.03,-0.36,9.76,31.05
276621011,-0.001286,-0.004551,0.002187,0.04,-0.35,9.8,31.08
276622022,-0.002351,-0.004551,0.004318,0.05,-0.34,9.85,31.08
276623030,-0.003416,-0.003486,0.005383,0.03,-0.34,9.86,31.03
276624051,-0.002351,-0.002421,0.005383,0.03,-0.32,9.82,31.08
276625000,-0.001286,-0.00029,0.002187,0.03,-0.32,9.79,31.1
276626010,-0.001286,0.00184,0.002187,0.04,-0.31,9.86,31.03
276627018,-0.001286,0.000775,0.002187,0.05,-0.32,9.85,31.06
276628030,-0.001286,-0.001356,0.001122,0.02,-0.31,9.8,31.08
276629038,-0.001286,-0.001356,-0.001008,0.03,-0.31,9.8,31.05
276629998,-0.001286,-0.001356,-0.001008,0.03,-0.31,9.8,31.05
276631007,-0.00022,0.002906,0.001122,0.03,-0.34,9.84,31.05
276632018,-0.001286,0.002906,0.003253,0.01,-0.34,9.85,31.05
276633026,-0.002351,0.002906,0.002187,0.01,-0.3,9.82,31.08
276634045,-0.001286,0.000775,-0.001008,0.03,-0.33,9.81,31.1
276635046,-0.001286,-0.00029,-0.001008,0.04,-0.34,9.78,31.09
276636004,-0.001286,-0.00029,-0.001008,0.04,-0.34,9.78,31.09
276637011,-0.00022,-0.001356,5.7e-05,0.02,-0.31,9.83,31.08
276638024,-0.00022,0.00184,0.003253,0.04,-0.31,9.87,31.05
276639031,-0.00022,0.00184,0.002187,0.05,-0.33,9.84,31.08
276640044,-0.00022,0.000775,0.001122,0.05,-0.33,9.84,31.07
276641051,0.000845,0.000775,5.7e-05,0.0,-0.32,9.88,31.09
276642066,0.00191,-0.00029,-0.001008,0.0,-0.3,9.86,31.11
276643071,0.00191,-0.001356,-0.002074,0.02,-0.3,9.85,31.09
276644091,-0.001286,-0.001356,-0.002074,0.01,-0.31,9.86,31.08
276645091,-0.003416,-0.00029,-0.001008,0.04,-0.29,9.84,31.05
276646104,-0.003416,-0.00029,-0.001008,0.08,-0.28,9.83,31.07
276647114,-0.002351,-0.00029,-0.002074,0.05,-0.3,9.84,31.07
276648124,-0.00022,0.00184,-0.002074,0.01,-0.31,9.85,31.04
276649131,0.000845,0.00184,-0.001008,0.0,-0.32,9.83,31.04
276650144,0.00191,0.000775,0.002187,0.01,-0.33,9.82,31.06
276651151,0.00191,-0.00029,0.001122,0.03,-0.33,9.83,31.08
276652165,0.000845,0.00184,5.7e-05,0.03,-0.29,9.84,31.07
276653171,0.000845,0.003971,5.7e-05,0.03,-0.29,9.84,31.08
276654191,0.002975,0.002906,5.7e-05,0.02,-0.34,9.84,31.1
276655191,0.002975,0.000775,0.001122,0.02,-0.35,9.84,31.08
276656204,0.00191,0.000775,5.7e-05,0.01,-0.34,9.83,31.04
276657211,-0.001286,-0.00029,-0.001008,0.0,-0.33,9.83,31.05
276658224,-0.002351,-0.00029,-0.002074,0.04,-0.32,9.85,31.06
276659231,-0.00022,-0.001356,5.7e-05,0.05,-0.3,9.85,31.05
276660244,0.00191,-0.002421,5.7e-05,0.02,-0.28,9.82,31.05
276661251,-0.001286,-0.003486,0.001122,0.0,-0.32,9.82,31.07
276662266,-0.002351,-0.004551,0.001122,0.01,-0.36,9.81,31.07
276663271,-0.00022,-0.002421,0.001122,0.01,-0.34,9.82,31.08
276664291,0.000845,-0.00029,0.001122,-0.01,-0.34,9.86,31.05
276665291,-0.00022,-0.00029,5.7e-05,0.01,-0.35,9.84,31.04
276666304,-0.00022,-0.001356,5.7e-05,0.0,-0.33,9.79,31.02
276667314,0.00191,-0.00029,-0.001008,0.0,-0.32,9.76,31.02
276668324,0.002975,-0.00029,-0.001008,0.04,-0.32,9.75,31.04
276669331,0.004041,-0.002421,-0.001008,0.04,-0.31,9.76,31.07
276670344,0.002975,-0.003486,-0.001008,0.04,-0.31,9.79,31.06
276671351,0.000845,-0.003486,-0.001008,0.04,-0.32,9.82,31.05
276672365,-0.00022,-0.003486,-0.002074,0.05,-0.3,9.79,31.05
276673371,-0.001286,-0.001356,-0.003139,0.06,-0.29,9.79,31.08
276674391,-0.001286,0.000775,-0.001008,0.04,-0.29,9.82,31.11
276675444,-0.00022,0.000775,5.7e-05,0.02,-0.28,9.8,31.05
276676404,0.000845,0.000775,5.7e-05,0.02,-0.27,9.78,31.03
276677411,0.000845,-0.00029,5.7e-05,0.04,-0.3,9.77,31.03
276678424,0.000845,-0.00029,5.7e-05,0.03,-0.33,9.78,31.04
276679431,0.00191,-0.00029,-0.001008,0.04,-0.27,9.82,31.05
276680444,0.00191,-0.001356,-0.001008,0.06,-0.27,9.81,31.06
276681451,0.000845,-0.002421,-0.001008,0.02,-0.29,9.82,31.05
276682466,0.000845,-0.002421,-0.002074,0.0,-0.31,9.82,31.07
276683478,0.000845,-0.001356,-0.002074,0.01,-0.3,9.78,31.05
276684484,-0.00022,-0.00029,5.7e-05,0.02,-0.28,9.76,31.06
276685491,-0.001286,0.000775,0.002187,0.03,-0.3,9.78,31.04
276686504,-0.002351,0.000775,0.001122,0.03,-0.3,9.82,30.98
276687514,-0.001286,0.000775,0.001122,0.02,-0.3,9.87,31.01
276688524,0.000845,-0.00029,0.001122,0.02,-0.29,9.84,31.06
276689531,0.00191,-0.001356,0.001122,0.05,-0.31,9.8,31.04
276690544,0.000845,-0.00029,-0.001008,0.04,-0.3,9.84,31.04
276691551,-0.00022,0.000775,-0.002074,0.03,-0.3,9.85,31.02
276692565,-0.00022,-0.001356,5.7e-05,0.03,-0.32,9.83,31.07
276693579,-0.00022,-0.003486,0.003253,0.05,-0.34,9.85,31.08
276694586,-0.00022,-0.003486,0.002187,0.06,-0.34,9.86,31.01
276695597,-0.00022,-0.004551,0.001122,0.06,-0.32,9.84,31.05
276696613,-0.001286,-0.002421,5.7e-05,0.02,-0.31,9.84,31.05
276697614,-0.002351,-0.001356,5.7e-05,-0.01,-0.3,9.86,31.06
276698629,-0.001286,-0.00029,0.001122,0.0,-0.31,9.85,31.08
276699640,0.000845,-0.001356,0.001122,-0.01,-0.32,9.84,31.07
276700652,0.00191,-0.002421,-0.001008,0.01,-0.32,9.85,31.07
276701662,0.002975,-0.003486,-0.001008,0.03,-0.33,9.82,31.06
276702671,0.00191,-0.001356,-0.001008,0.04,-0.31,9.83,31.08
276703689,0.002975,0.000775,0.001122,0.02,-0.31,9.82,31.07
276704726,0.004048,0.002954,0.002167,-0.01,-0.32,9.82,31.07
276705704,0.005114,0.004019,0.002167,0.03,-0.32,9.84,31.09
276706718,0.006179,0.002954,0.003232,0.04,-0.34,9.78,31.08
276707726,0.002983,0.000823,0.002167,0.04,-0.34,9.74,31.1
276708735,0.000852,-0.001308,3.6e-05,0.04,-0.29,9.76,31.07
276709741,0.001918,-0.002373,-0.002095,0.04,-0.28,9.84,31.05
276710752,0.002983,-0.001308,-0.001029,0.04,-0.28,9.86,31.07
276711764,0.001918,-0.002373,3.6e-05,0.02,-0.26,9.81,31.06
276712772,-0.000213,-0.003438,-0.001029,0.02,-0.28,9.78,31.03
276713783,-0.003409,-0.002373,-0.001029,0.01,-0.32,9.8,31.06
276714787,-0.004474,-0.001308,3.6e-05,0.0,-0.31,9.85,31.07
276715792,-0.003409,0.001888,0.001101,0.0,-0.32,9.87,31.07
276716807,0.000852,0.004019,0.001101,0.01,-0.34,9.83,31.04
276717815,0.001918,0.001888,3.6e-05,0.03,-0.32,9.78,31.06
276718826,0.000852,-0.000242,-0.001029,0.02,-0.32,9.79,31.02
276719835,-0.000213,-0.000242,-0.002095,0.04,-0.31,9.8,31.03
276720846,-0.001278,-0.000242,3.6e-05,0.02,-0.32,9.82,31.05
276721853,-0.001278,-0.002373,0.002167,0.01,-0.31,9.83,31.04
276722866,-0.000213,-0.002373,3.6e-05,0.04,-0.3,9.81,31.05
276723878,0.000852,-0.000242,-0.002095,0.03,-0.33,9.85,31.08
276724884,0.000852,0.000823,-0.002095,0.02,-0.33,9.88,31.06
276725891,-0.000213,-0.001308,-0.001029,0.0,-0.34,9.85,31.05
276726904,-0.001278,-0.001308,3.6e-05,0.04,-0.33,9.81,31.05
276727914,-0.001278,-0.000242,3.6e-05,0.04,-0.31,9.78,31.02
276728924,-0.001278,0.001888,-0.001029,0.01,-0.33,9.8,31.04
276729931,-0.001278,0.002954,-0.002095,0.01,-0.34,9.85,31.03
276730944,-0.001278,-0.001308,-0.001029,0.0,-0.34,9.86,31.06
276731951,-0.000213,-0.003438,3.6e-05,0.02,-0.35,9.86,31.06
276732965,0.001918,-0.002373,0.001101,0.0,-0.31,9.83,31.06
276733978,0.001918,-0.001308,3.6e-05,0.0,-0.28,9.79,31.04
276734984,0.001918,-0.000242,3.6e-05,0.02,-0.3,9.78,31.06
276735991,-0.000213,-0.001308,-0.001029,-0.01,-0.33,9.81,31.05
276737004,-0.002343,-0.000242,-0.001029,0.02,-0.31,9.82,31.06
276738011,-0.000213,-0.000242,3.6e-05,0.04,-0.35,9.85,31.1
276739024,-0.001278,-0.003438,0.002167,0.06,-0.34,9.84,31.07
276740031,-0.001278,-0.003438,0.002167,0.08,-0.31,9.79,31.08
276741044,-0.001278,-0.000242,3.6e-05,0.04,-0.27,9.78,31.09
276742051,-0.001278,0.000823,-0.001029,0.0,-0.27,9.8,31.08
276743066,-0.001278,0.000823,-0.002095,0.0,-0.3,9.84,31.09
276744078,-0.001278,0.002954,-0.00316,0.03,-0.31,9.84,31.06
276745084,-0.000213,0.004019,-0.002095,0.09,-0.32,9.82,31.04
276746091,-0.000213,0.001888,-0.001029,0.07,-0.32,9.84,31.04
276747104,-0.000213,-0.002373,3.6e-05,0.02,-0.32,9.88,31.05
276748114,-0.000213,-0.003438,0.003232,0.03,-0.31,9.84,31.05
276749124,0.001918,-0.002373,0.003232,0.04,-0.3,9.8,31.06
276750131,0.000852,-0.002373,3.6e-05,0.02,-0.31,9.83,31.02
276751144,-0.000213,-0.000242,-0.001029,0.04,-0.32,9.84,31.04
276752151,-0.000213,-0.000242,3.6e-05,0.05,-0.32,9.82,31.03
276753165,0.000852,-0.000242,-0.001029,0.03,-0.36,9.82,31.07
276754178,0.000852,0.002954,-0.002095,0.01,-0.33,9.82,31.07
276755184,-0.001278,0.002954,3.6e-05,0.01,-0.29,9.82,31.08
276756191,-0.002343,0.000823,0.001101,0.04,-0.3,9.78,31.06
276757204,-0.002343,-0.001308,0.001101,0.04,-0.31,9.76,31.04
276758211,-0.002343,-0.002373,0.001101,0.03,-0.32,9.81,31.05
276759224,-0.002343,-0.002373,0.001101,0.03,-0.33,9.8,31.05
276760231,-0.002343,-0.000242,3.6e-05,0.02,-0.33,9.79,31.06
276761244,-0.001278,0.001888,3.6e-05,0.05,-0.32,9.78,31.06
276762251,0.001918,0.001888,3.6e-05,0.06,-0.34,9.78,31.12
276763266,0.005114,-0.002373,0.001101,0.03,-0.32,9.8,31.1
276764278,0.004048,-0.005569,0.001101,0.03,-0.31,9.82,31.1
276765284,0.001918,-0.004503,3.6e-05,0.06,-0.32,9.82,31.08
276766291,-0.000213,-0.001308,-0.002095,0.04,-0.31,9.78,31.07
276767304,0.001918,-0.001308,-0.00316,0.01,-0.3,9.81,31.06
276768314,0.002983,-0.000242,-0.001029,0.0,-0.31,9.87,31.08
276769324,0.004048,-0.000242,-0.001029,0.01,-0.33,9.84,31.06
276770331,0.004048,-0.000242,-0.001029,0.02,-0.3,9.82,31.04
276771356,-0.000213,0.001888,-0.002095,0.01,-0.3,9.87,31.09
276772351,-0.003409,0.001888,-0.002095,0.02,-0.32,9.87,31.08
276773365,-0.002343,0.000823,3.6e-05,0.02,-0.3,9.84,31.1
276774378,-0.000213,-0.001308,0.001101,0.01,-0.28,9.82,31.05
276775384,0.001918,-0.000242,3.6e-05,0.04,-0.32,9.82,31.08
276776391,0.004048,-0.001308,3.6e-05,0.03,-0.31,9.8,31.11
276777404,0.004048,-0.001308,0.001101,0.04,-0.3,9.8,31.09
276778411,0.001918,-0.001308,0.001101,0.06,-0.34,9.85,31.05
276779424,0.001918,-0.000242,3.6e-05,0.06,-0.32,9.88,31.02
276780431,0.001918,-0.001308,-0.001029,0.05,-0.32,9.87,31.03
276781444,-0.000213,-0.001308,-0.001029,0.04,-0.33,9.85,31.07
276782451,0.000852,-0.001308,3.6e-05,0.03,-0.3,9.83,31.07
276783474,-0.000213,-0.000242,3.6e-05,0.03,-0.31,9.8,31.05
276784471,-0.002343,0.001888,-0.002095,0.03,-0.33,9.79,31.08
276785484,-0.000213,0.004019,-0.00316,-0.01,-0.31,9.78,31.05
276786491,0.000852,0.002954,-0.002095,0.02,-0.31,9.74,31.05
276787504,0.001918,0.001888,-0.001029,0.04,-0.34,9.76,31.07
276788513,0.001918,-0.000242,-0.001029,-0.02,-0.34,9.8,31.08
276789524,-0.000213,-0.000242,3.6e-05,0.03,-0.33,9.83,31.07
276790531,-0.000213,0.001888,0.001101,0.07,-0.32,9.79,31.07
276791544,-0.000213,0.002954,0.001101,0.04,-0.31,9.78,31.08
276792551,-0.001278,0.002954,0.001101,0.05,-0.28,9.84,31.06
276793580,-0.000213,0.001888,3.6e-05,0.05,-0.28,9.81,31.05
276794578,-0.000213,-0.000242,0.001101,0.05,-0.29,9.85,31.01
276795587,-0.000213,-0.001308,0.001101,0.04,-0.31,9.89,31.03
276796596,-0.002343,-0.000242,3.6e-05,-0.01,-0.31,9.86,31.08
276797609,-0.002343,0.001888,-0.001029,0.02,-0.28,9.85,31.08
276798616,-0.001278,0.001888,3.6e-05,0.07,-0.31,9.86,31.03
276799632,-0.002343,0.002954,0.001101,0.07,-0.31,9.86,31.05
276800643,-0.003409,0.001888,3.6e-05,0.02,-0.29,9.85,31.06
276801653,-0.002343,0.000823,-0.001029,0.0,-0.3,9.83,31.07
276802659,0.001918,-0.000242,-0.001029,0.04,-0.3,9.78,31.09
276803685,0.006179,-0.002373,3.6e-05,0.05,-0.33,9.78,31.08
276804683,0.006179,-0.002373,3.6e-05,0.01,-0.34,9.84,31.07
276805692,0.004048,-0.000242,-0.00316,0.0,-0.32,9.86,31.05
276806714,0.004048,-0.000242,-0.00316,-0.01,-0.34,9.82,31.09
276807718,0.002983,-0.001308,3.6e-05,-0.01,-0.33,9.79,31.07
276808722,-0.000213,-0.001308,0.002167,0.02,-0.3,9.8,31.06
276809732,-0.001278,0.000823,0.001101,0.03,-0.32,9.81,31.08
276810739,-0.003409,0.002954,3.6e-05,0.04,-0.33,9.83,31.08
276811754,-0.002343,0.004019,-0.002095,0.03,-0.33,9.84,31.08
276812761,-0.002343,0.004019,-0.002095,0.04,-0.33,9.8,31.06
276813781,-0.002343,0.002954,-0.001029,0.04,-0.3,9.78,31.05
276814776,-0.002343,-0.001308,0.001101,0.02,-0.33,9.82,31.08
276815787,-0.001278,-0.003438,0.002167,0.0,-0.34,9.84,31.06
276816792,-0.000213,-0.002373,0.001101,0.01,-0.33,9.86,31.07
276817807,-0.000213,-0.000242,3.6e-05,0.04,-0.31,9.82,31.07
276818815,0.000852,0.001888,3.6e-05,0.04,-0.29,9.79,31.07
276819826,0.000852,0.001888,0.001101,0.03,-0.29,9.8,31.08
276820835,0.000852,-0.000242,0.002167,0.01,-0.31,9.82,31.05
276821846,0.001918,-0.001308,0.004297,0.0,-0.33,9.87,31.03
276822853,0.001918,-0.001308,0.004297,0.0,-0.31,9.83,31.0
276823874,-0.000213,-0.001308,0.002167,0.02,-0.31,9.83,31.03
276824871,-0.001278,-0.000242,0.001101,0.01,-0.34,9.87,31.05
276825884,-0.001278,-0.000242,0.001101,0.0,-0.33,9.84,31.04
276826891,-0.001278,-0.002373,0.001101,0.03,-0.3,9.8,31.07
276827904,-0.000213,-0.003438,0.001101,0.02,-0.31,9.78,31.11
276828912,0.000852,-0.001308,3.6e-05,0.03,-0.32,9.8,31.08
276829924,0.000852,0.000823,-0.001029,0.03,-0.32,9.81,31.06
276830931,0.001918,0.001888,-0.002095,0.03,-0.3,9.82,31.03
276831944,-0.000213,0.000823,-0.001029,0.08,-0.3,9.83,31.02
276832951,-0.001278,-0.001308,3.6e-05,0.04,-0.32,9.81,31.04
276834005,-0.002365,-0.000227,0.001108,-0.02,-0.32,9.82,31.03
276834975,-0.0013,0.000838,0.002173,0.01,-0.3,9.84,31.06
276835984,-0.000234,0.000838,0.001108,0.04,-0.29,9.86,31.06
276836991,-0.000234,-0.002358,0.003239,0.04,-0.31,9.81,31.04
276838004,-0.000234,-0.001292,0.001108,0.06,-0.31,9.89,31.05
276839011,0.000831,-0.001292,-0.002088,0.07,-0.31,9.88,31.06
276840024,0.000831,-0.002358,-0.002088,0.05,-0.32,9.82,31.07
276841031,0.000831,-0.000227,4.3e-05,0.02,-0.33,9.82,31.05
276842044,0.002961,0.000838,0.001108,0.04,-0.31,9.83,31.06
276843051,0.004027,0.000838,-0.001023,0.07,-0.29,9.87,31.02
276844074,0.002961,0.001903,-0.001023,0.04,-0.29,9.88,31.02
276845071,-0.0013,0.001903,4.3e-05,0.01,-0.32,9.87,31.05
276846084,-0.00343,-0.000227,0.001108,0.0,-0.33,9.81,31.08
276847091,-0.002365,-0.000227,4.3e-05,0.01,-0.32,9.78,31.05
276848104,0.000831,0.001903,-0.001023,0.04,-0.3,9.82,31.05
276849112,0.001896,0.000838,-0.001023,0.05,-0.28,9.78,31.1
276850124,0.000831,-0.001292,4.3e-05,0.05,-0.29,9.79,31.07
276851131,-0.000234,-0.001292,0.001108,0.04,-0.29,9.82,31.03
276852144,-0.0013,-0.000227,-0.002088,0.05,-0.31,9.77,31.0
276853151,-0.0013,0.000838,-0.004218,0.07,-0.31,9.77,31.02
276854173,-0.0013,0.001903,-0.002088,0.04,-0.29,9.82,31.07
276855171,-0.000234,0.001903,4.3e-05,0.02,-0.3,9.87,31.06
276856184,-0.000234,0.001903,0.001108,0.03,-0.32,9.83,31.06
276857191,-0.0013,0.002969,0.001108,0.04,-0.33,9.81,31.08
276858204,-0.0013,0.001903,4.3e-05,0.02,-0.31,9.84,31.11
276859211,-0.000234,-0.001292,-0.001023,0.01,-0.32,9.83,31.1
276860223,0.000831,-0.003423,4.3e-05,0.01,-0.33,9.8,31.09
276861231,0.001896,-0.001292,0.002173,0.03,-0.3,9.78,31.09
276862244,0.001896,-0.000227,0.002173,0.06,-0.29,9.77,31.08
276863251,-0.000234,-0.001292,0.002173,0.04,-0.33,9.76,31.07
276864274,-0.000234,-0.002358,4.3e-05,0.05,-0.31,9.78,31.09
276865271,0.000831,-0.001292,-0.001023,0.04,-0.28,9.79,31.08
276866284,0.001896,-0.001292,-0.002088,0.02,-0.3,9.85,31.05
276867291,0.000831,-0.003423,-0.002088,0.03,-0.33,9.87,31.07
276868304,0.000831,-0.004488,-0.001023,0.06,-0.35,9.85,31.06
276869312,0.000831,-0.003423,-0.001023,0.06,-0.33,9.82,31.05
276870324,0.000831,-0.001292,-0.001023,0.05,-0.31,9.81,31.07
276871331,0.000831,-0.000227,-0.002088,0.05,-0.31,9.83,31.1
276872344,-0.000234,-0.000227,-0.003153,0.02,-0.3,9.81,31.08
276873351,-0.000234,-0.000227,-0.002088,0.03,-0.3,9.8,31.05
276874373,-0.000234,0.000838,-0.001023,0.07,-0.34,9.81,31.05
276875371,0.000831,0.000838,4.3e-05,0.04,-0.33,9.82,31.06
276876384,0.000831,-0.000227,4.3e-05,0.02,-0.32,9.83,31.05
276877391,0.000831,-0.001292,0.001108,0.0,-0.33,9.83,31.09
276878404,0.000831,-0.002358,0.001108,-0.02,-0.35,9.88,31.08
276879411,0.000831,-0.002358,4.3e-05,0.04,-0.33,9.85,31.02
276880448,0.000831,0.000838,4.3e-05,0.05,-0.31,9.81,31.01
276881431,-0.000234,0.002969,0.002173,0.01,-0.31,9.86,31.03
276882444,-0.000234,0.002969,0.003239,0.03,-0.3,9.84,31.06
276883457,0.001896,-0.000227,0.003239,0.04,-0.29,9.79,31.07
276884466,0.001896,-0.000227,0.002173,0.02,-0.26,9.85,31.08
276885471,-0.000234,0.000838,0.001108,0.03,-0.28,9.88,31.04
276886484,-0.0013,-0.001292,4.3e-05,0.04,-0.31,9.84,31.03
276887491,-0.000234,-0.002358,-0.001023,0.05,-0.31,9.88,31.04
276888504,0.001896,-0.003423,-0.003153,0.04,-0.31,9.88,31.06
276889512,0.000831,-0.002358,-0.003153,0.03,-0.29,9.84,31.05
276890524,-0.000234,-0.001292,-0.002088,0.04,-0.31,9.84,31.04
276891531,0.000831,-0.000227,0.001108,0.05,-0.32,9.84,31.08
276892544,0.000831,0.000838,0.003239,0.04,-0.29,9.83,31.06
276893558,0.000831,0.001903,0.001108,0.01,-0.26,9.82,31.06
276894567,0.000831,0.001903,-0.004218,0.0,-0.25,9.8,31.06
276895579,0.000831,0.001903,-0.005284,0.02,-0.26,9.82,31.06
276896586,0.001896,0.000838,-0.002088,0.0,-0.29,9.83,31.06
276897597,0.001896,0.000838,-0.002088,0.01,-0.3,9.81,31.05
276898613,0.002961,-0.000227,-0.002088,-0.02,-0.32,9.77,31.03
276899614,0.004027,-0.000227,-0.001023,-0.01,-0.35,9.79,31.07
276900629,0.002961,-0.002358,4.3e-05,0.04,-0.3,9.86,31.08
276901640,0.000831,-0.001292,-0.002088,0.05,-0.28,9.88,31.06
276902653,-0.002365,0.000838,-0.001023,0.02,-0.3,9.85,31.04
276903666,-0.000234,0.001903,0.001108,0.01,-0.3,9.81,31.08
276904671,0.001896,-0.000227,0.002173,0.01,-0.31,9.81,31.06
276905683,0.004027,-0.002358,-0.001023,0.02,-0.31,9.88,31.08
276906697,0.000831,-0.001292,-0.002088,0.03,-0.29,9.9,31.08
276907704,-0.000234,-0.000227,-0.001023,0.02,-0.32,9.88,31.08
276908715,-0.000234,-0.000227,4.3e-05,0.03,-0.3,9.83,31.06
276909722,0.000831,-0.001292,0.004304,0.02,-0.29,9.81,31.04
276910735,0.002961,-0.000227,0.005369,0.0,-0.3,9.84,31.05
276911741,0.004027,0.001903,0.003239,0.01,-0.31,9.83,31.08
276912754,0.004027,0.000838,0.002173,0.0,-0.34,9.85,31.05
276913770,0.002961,-0.000227,0.002173,0.03,-0.33,9.83,31.08
276914774,0.001896,-0.001292,0.002173,0.04,-0.33,9.8,31.05
276915776,0.000831,-0.001292,-0.001023,0.02,-0.31,9.8,31.04
276916787,0.001896,-0.001292,4.3e-05,0.02,-0.3,9.84,31.07
276917792,-0.000234,-0.003423,0.001108,0.02,-0.32,9.88,31.04
276918807,-0.0013,-0.005554,0.001108,0.05,-0.33,9.89,31.07
276919815,-0.0013,-0.004488,4.3e-05,0.04,-0.34,9.87,31.05
276920826,-0.000234,-0.002358,4.3e-05,0.0,-0.35,9.86,31.08
276921835,0.001896,-0.001292,-0.001023,-0.01,-0.34,9.87,31.05
276922846,-0.000234,-0.001292,-0.001023,-0.01,-0.34,9.88,31.05
276923860,-0.0013,-0.001292,4.3e-05,-0.01,-0.32,9.88,31.06
276924866,-0.0013,-0.001292,0.001108,0.04,-0.29,9.87,31.05
276925871,-0.000234,-0.001292,0.002173,0.08,-0.29,9.85,31.06
276926884,-0.000234,-0.002358,0.002173,0.04,-0.29,9.81,31.09
276927891,-0.0013,-0.002358,0.002173,0.02,-0.31,9.82,31.09
276928904,-0.000234,-0.001292,0.004304,0.03,-0.32,9.84,31.07
276929912,-0.000234,-0.000227,0.003239,0.02,-0.31,9.86,31.07
276930924,-0.0013,-0.000227,-0.001023,0.04,-0.31,9.87,31.03
276931931,-0.0013,-0.001292,-0.002088,0.03,-0.32,9.89,31.03
276932944,-0.002365,-0.000227,-0.002088,0.01,-0.3,9.84,31.04
276933958,-0.00343,0.000838,-0.002088,0.04,-0.3,9.85,31.03
276934966,-0.00343,0.001903,-0.001023,0.04,-0.32,9.85,31.06
276935971,-0.00343,0.002969,-0.001023,0.04,-0.31,9.81,31.03
276936984,-0.004495,0.001903,4.3e-05,0.04,-0.33,9.86,31.04
276937991,-0.002365,0.002969,-0.001023,0.05,-0.35,9.86,31.05
276939004,0.000831,0.004034,4.3e-05,0.04,-0.34,9.89,31.06
276940011,0.004027,0.002969,0.001108,0.03,-0.33,9.86,31.05
276941024,0.004027,-0.000227,4.3e-05,0.03,-0.31,9.85,31.07
276942031,0.002961,-0.000227,-0.003153,0.03,-0.3,9.84,31.08
276943044,0.000831,-0.001292,-0.004218,0.05,-0.3,9.78,31.06
276944058,-0.002365,-0.002358,-0.002088,0.05,-0.28,9.78,31.08
276945102,-0.002365,-0.002358,-0.001023,0.04,-0.28,9.82,31.06
276946096,0.000831,-0.002358,-0.002088,0.06,-0.3,9.89,31.05
276947084,0.001896,-0.001292,-0.003153,0.04,-0.28,9.87,31.07
276948091,-0.0013,-0.001292,-0.003153,0.0,-0.31,9.79,31.08
276949104,-0.004495,0.000838,-0.001023,0.02,-0.31,9.76,31.08
276950114,-0.0013,0.001903,-0.001023,0.04,-0.28,9.81,31.07
276951124,0.000831,0.000838,-0.004218,0.03,-0.3,9.85,31.06
276952131,0.002961,-0.003423,-0.004218,0.03,-0.3,9.82,31.05
276953144,0.001896,-0.004488,-0.002088,0.03,-0.31,9.83,31.04
276954158,-0.000234,-0.003423,4.3e-05,0.04,-0.35,9.84,31.03
276955166,-0.000234,-0.001292,0.001108,0.05,-0.33,9.8,31.06
276956171,0.001896,0.000838,0.001108,0.03,-0.31,9.79,31.06
276957184,-0.000234,0.001903,0.001108,0.04,-0.33,9.83,31.05
276958191,-0.002365,0.001903,4.3e-05,0.02,-0.33,9.86,31.07
276959204,-0.002365,-0.001292,-0.001023,0.02,-0.32,9.85,31.08
276960211,-0.002365,-0.003423,-0.001023,0.02,-0.31,9.82,31.09
276961224,-0.0013,-0.002358,0.001108,0.03,-0.32,9.79,31.08
276962230,0.000831,0.001903,0.001108,0.03,-0.33,9.78,31.0
276963276,0.002926,0.006213,0.001133,0.03,-0.33,9.8,31.05
276964261,0.00186,0.008343,0.001133,0.02,-0.31,9.82,31.06
276965265,-0.001336,0.006213,6.8e-05,0.01,-0.29,9.84,31.09
276966271,-0.002401,0.001952,-0.003128,0.01,-0.28,9.82,31.1
276967284,-0.002401,-0.001244,-0.005259,0.02,-0.31,9.8,31.07
276968290,-0.001336,-0.002309,-0.004194,0.02,-0.33,9.82,31.09
276969302,-0.00027,-0.002309,-0.002063,0.02,-0.33,9.83,31.1
276970311,-0.00027,-0.000179,0.002198,0.04,-0.3,9.82,31.13
276971322,-0.002401,0.000886,0.004329,0.03,-0.29,9.85,31.11
276972330,-0.003466,0.000886,0.002198,0.02,-0.3,9.83,31.06
276973342,-0.001336,0.000886,-0.002063,0.02,-0.28,9.86,31.01
276974357,0.00186,-0.000179,-0.003128,0.02,-0.28,9.89,31.06
276975365,0.003991,-0.000179,-0.002063,0.01,-0.33,9.82,31.04
276976370,0.002926,0.000886,0.001133,0.0,-0.36,9.83,31.02
276977382,0.00186,0.000886,0.004329,0.01,-0.32,9.83,31.06
276978390,0.00186,-0.000179,0.004329,0.04,-0.28,9.82,31.08
276979402,0.00186,0.000886,0.002198,0.06,-0.29,9.82,31.07
276980410,-0.001336,0.001952,0.001133,0.02,-0.28,9.83,31.04
276981422,-0.004531,0.000886,6.8e-05,0.0,-0.28,9.85,31.08
276982430,-0.003466,-0.000179,0.001133,0.03,-0.29,9.85,31.09
276983449,-0.001336,-0.002309,0.002198,0.07,-0.31,9.82,31.06
276984450,-0.00027,0.001952,0.002198,0.06,-0.32,9.8,31.05
276985465,-0.00027,0.004082,0.002198,0.02,-0.32,9.84,31.05
276986519,0.000795,0.001952,0.001133,0.01,-0.34,9.85,31.05
276987484,0.003991,-0.000179,6.8e-05,0.04,-0.34,9.82,31.06
276988491,0.003991,0.000886,6.8e-05,0.05,-0.33,9.83,31.06
276989504,0.003991,0.004082,6.8e-05,0.04,-0.33,9.84,31.09
276990513,0.00186,0.003017,-0.000998,0.03,-0.33,9.82,31.07
276991524,0.00186,-0.000179,-0.002063,0.01,-0.32,9.82,31.06
276992531,0.002926,-0.000179,6.8e-05,0.01,-0.31,9.84,31.05
276993551,0.003991,-0.001244,0.002198,0.04,-0.33,9.85,31.05
276994551,0.002926,0.000886,0.001133,0.02,-0.34,9.84,31.06
276995567,0.00186,0.003017,-0.002063,0.0,-0.33,9.8,31.07
276996577,0.000795,0.001952,-0.003128,0.03,-0.32,9.79,31.05
276997586,0.00186,-0.000179,-0.000998,0.03,-0.3,9.83,31.01
276998596,-0.001336,-0.001244,6.8e-05,0.04,-0.3,9.85,31.02
276999610,-0.004531,-0.001244,6.8e-05,0.03,-0.32,9.84,31.02
277000616,-0.004531,-0.001244,6.8e-05,0.0,-0.31,9.87,31.05
277001630,-0.004531,-0.000179,-0.000998,0.01,-0.34,9.88,31.06
277002640,-0.001336,0.000886,-0.002063,0.03,-0.35,9.8,31.08
277003659,0.000795,0.001952,-0.002063,0.03,-0.31,9.8,31.09
277004661,0.000795,-0.000179,6.8e-05,0.04,-0.31,9.82,31.08
277005675,0.00186,-0.000179,0.003263,0.04,-0.32,9.85,31.1
277006688,0.002926,0.000886,0.003263,0.01,-0.3,9.86,31.09
277007696,0.002926,0.001952,6.8e-05,0.0,-0.3,9.82,31.07
277008701,0.00186,0.001952,-0.000998,0.01,-0.31,9.83,31.09
277009715,0.000795,0.001952,6.8e-05,0.03,-0.3,9.84,31.08
277010722,-0.00027,0.001952,0.001133,0.02,-0.3,9.84,31.05
277011732,-0.001336,0.001952,6.8e-05,0.01,-0.32,9.84,31.05
277012741,-0.001336,0.001952,-0.002063,0.04,-0.33,9.85,31.03
277013761,-0.002401,0.001952,-0.002063,0.02,-0.32,9.81,31.03
277014762,-0.002401,0.000886,6.8e-05,0.0,-0.31,9.81,31.05
277015774,-0.00027,-0.000179,0.001133,0.04,-0.33,9.79,31.07
277016776,0.000795,-0.001244,0.002198,0.05,-0.33,9.76,31.09
277017787,0.000795,-0.000179,0.001133,0.04,-0.33,9.81,31.08
277018792,-0.001336,0.001952,0.001133,0.05,-0.33,9.8,31.05
277019807,-0.001336,0.003017,6.8e-05,0.03,-0.32,9.79,31.03
277020815,0.00186,-0.000179,-0.000998,0.03,-0.3,9.8,31.09
277021826,0.00186,-0.002309,6.8e-05,0.05,-0.3,9.83,31.06
277022835,0.000795,0.000886,-0.000998,0.02,-0.33,9.86,31.05
277023853,-0.00027,0.004082,-0.002063,0.01,-0.32,9.83,31.07
277024853,-0.002401,0.004082,-0.000998,0.0,-0.3,9.84,31.08
277025866,-0.004531,-0.000179,6.8e-05,0.01,-0.28,9.87,31.05
277026871,-0.002401,-0.002309,6.8e-05,0.06,-0.27,9.87,31.05
277027884,-0.00027,-0.002309,0.001133,0.04,-0.3,9.87,31.05
277028891,-0.00027,0.000886,0.002198,0.03,-0.31,9.84,31.05
277029904,-0.002401,0.000886,0.003263,0.03,-0.31,9.81,31.05
277030912,-0.004531,-0.000179,0.002198,0.03,-0.32,9.85,31.04
277031924,-0.002401,0.000886,0.001133,0.04,-0.34,9.85,31.04
277032931,-0.001336,0.003017,6.8e-05,0.05,-0.32,9.83,31.05
277033951,-0.001336,0.001952,0.001133,0.06,-0.32,9.82,31.03
277034951,-0.001336,0.001952,0.001133,0.02,-0.32,9.79,31.06
277035966,0.000795,-0.000179,-0.000998,-0.02,-0.3,9.8,31.07
277036971,0.002926,-0.003375,6.8e-05,0.03,-0.3,9.8,31.05
277037984,0.00186,-0.003375,0.001133,0.02,-0.33,9.78,31.08
277038991,0.000795,-0.002309,0.003263,0.04,-0.32,9.8,31.07
277040004,-0.001336,0.000886,0.004329,0.04,-0.3,9.79,31.06
277041011,-0.003466,0.001952,0.002198,0.05,-0.31,9.8,31.06
277042024,-0.001336,-0.000179,6.8e-05,0.03,-0.31,9.81,31.08
277043031,-0.00027,-0.002309,-0.004194,0.01,-0.31,9.86,31.08
277044051,0.00186,-0.002309,-0.005259,-0.01,-0.32,9.85,31.05
277045051,0.002926,-0.002309,-0.003128,-0.01,-0.32,9.76,31.03
277046066,0.005056,-0.003375,0.002198,0.0,-0.31,9.81,31.03
277047071,0.003991,-0.002309,0.004329,0.02,-0.31,9.85,31.07
277048084,0.00186,0.000886,0.002198,0.03,-0.31,9.78,31.1
277049091,0.000795,0.001952,-0.002063,0.03,-0.29,9.82,31.06
277050104,-0.00027,0.000886,-0.003128,0.03,-0.3,9.85,31.05
277051112,-0.00027,0.000886,-0.002063,0.06,-0.32,9.84,31.05
277052124,-0.002401,-0.000179,-0.000998,0.05,-0.33,9.86,31.06
277053131,-0.002401,0.000886,6.8e-05,0.03,-0.36,9.82,31.05
277054151,-0.001336,0.003017,6.8e-05,0.03,-0.33,9.81,31.06
277055151,0.000795,0.005148,6.8e-05,0.04,-0.29,9.82,31.04
277056166,0.000795,0.003017,-0.000998,0.05,-0.3,9.81,31.07
277057171,0.000795,0.000886,-0.000998,0.07,-0.31,9.79,31.05
277058184,-0.00027,-0.000179,6.8e-05,0.07,-0.33,9.77,31.07
277059191,-0.001336,-0.001244,0.001133,0.05,-0.32,9.8,31.03
277060204,-0.002401,-0.000179,-0.002063,0.04,-0.31,9.82,31.05
277061211,-0.001336,0.001952,-0.003128,0.04,-0.3,9.8,31.07
277062224,-0.001336,0.000886,6.8e-05,0.03,-0.3,9.82,31.02
277063231,-0.00027,-0.001244,0.002198,0.04,-0.31,9.85,31.02
277064251,-0.00027,-0.002309,0.002198,0.03,-0.32,9.81,31.05
277065251,-0.001336,-0.001244,6.8e-05,0.03,-0.31,9.84,31.05
277066266,-0.001336,0.000886,6.8e-05,0.04,-0.3,9.85,31.04
277067271,0.000795,0.000886,6.8e-05,0.03,-0.31,9.79,31.05
277068284,0.000795,0.000886,0.001133,0.03,-0.31,9.83,31.06
277069301,0.00186,-0.001244,0.001133,0.0,-0.32,9.82,31.05
277070304,0.00186,-0.001244,6.8e-05,0.0,-0.29,9.78,31.04
277071312,0.002926,-0.000179,6.8e-05,0.01,-0.27,9.8,31.05
277072324,0.000795,0.000886,0.001133,0.01,-0.29,9.86,31.01
277073331,-0.001336,0.001952,6.8e-05,0.05,-0.32,9.87,31.04
277074349,0.000795,0.001952,-0.002063,0.04,-0.3,9.84,31.03
277075351,-0.00027,-0.000179,-0.002063,0.0,-0.3,9.86,31.04
277076366,-0.003466,-0.001244,6.8e-05,-0.02,-0.31,9.84,31.06
277077371,-0.003466,-0.000179,0.001133,-0.04,-0.29,9.83,31.05
277078415,-0.001336,-0.000179,6.8e-05,0.01,-0.3,9.8,31.07
277079401,0.000795,-0.001244,6.8e-05,0.05,-0.33,9.76,31.05
277080404,0.000795,-0.001244,0.003263,0.03,-0.31,9.76,31.07
277081411,-0.001336,-0.000179,0.003263,0.02,-0.29,9.78,31.06
277082424,-0.002401,0.000886,0.001133,0.01,-0.28,9.8,31.05
277083438,-0.001336,-0.000179,-0.000998,0.04,-0.29,9.78,31.07
277084444,-0.00027,-0.001244,-0.000998,0.04,-0.33,9.82,31.05
277085451,-0.00027,-0.002309,-0.000998,0.03,-0.37,9.85,31.04
277086466,-0.00027,-0.003375,-0.000998,0.03,-0.35,9.87,31.03
277087471,-0.00027,-0.002309,6.8e-05,0.03,-0.31,9.88,31.02
277088484,0.000795,-0.000179,0.003263,0.04,-0.3,9.84,31.06
277089501,-0.001336,0.000886,0.003263,0.03,-0.3,9.83,31.07
277090504,-0.002401,-0.001244,6.8e-05,0.02,-0.3,9.86,31.05
277091512,-0.001336,-0.002309,-0.000998,0.0,-0.31,9.86,31.03
277092557,0.000812,-0.000223,4.6e-05,0.0,-0.32,9.8,31.07
277093541,-0.000254,-0.001289,0.001112,0.01,-0.31,9.83,31.06
277094544,-0.002384,-0.001289,0.002177,0.0,-0.3,9.88,31.05
277095551,-0.001319,-0.000223,0.002177,0.0,-0.3,9.81,31.04
277096566,-0.002384,0.002972,0.001112,0.02,-0.31,9.79,31.04
277097578,-0.002384,0.002972,0.001112,0.04,-0.35,9.82,31.05
277098585,-0.000254,0.000842,0.001112,0.01,-0.33,9.8,31.06
277099605,0.001877,-0.000223,0.002177,-0.01,-0.31,9.82,31.06
277100609,0.002942,0.000842,0.002177,0.0,-0.32,9.85,31.06
277101619,0.000812,0.000842,0.002177,0.0,-0.3,9.84,31.08
277102628,-0.000254,-0.000223,0.001112,0.0,-0.31,9.8,31.06
277103645,-0.000254,0.002972,-0.002084,0.01,-0.31,9.79,31.08
277104650,-0.000254,0.005103,-0.002084,0.03,-0.3,9.81,31.07
277105660,0.000812,0.004038,-0.001019,0.04,-0.29,9.81,31.05
277106675,0.002942,0.002972,4.6e-05,0.04,-0.27,9.78,31.06
277107686,0.001877,0.001907,0.001112,0.04,-0.28,9.81,31.08
277108693,-0.000254,-0.000223,0.003242,0.06,-0.32,9.88,31.05
277109715,-0.002384,-0.002354,0.002177,0.05,-0.32,9.81,31.04
277110714,-0.00345,-0.002354,4.6e-05,0.03,-0.29,9.75,31.03
277111727,-0.001319,-0.000223,-0.001019,0.03,-0.31,9.79,31.05
277112731,-0.000254,0.000842,0.001112,0.06,-0.32,9.85,31.05
277113746,0.001877,-0.001289,0.004308,0.06,-0.29,9.87,31.06
277114752,0.002942,-0.003419,0.003242,0.03,-0.27,9.84,31.05
277115764,0.000812,-0.002354,4.6e-05,0.03,-0.28,9.81,31.04
277116774,-0.000254,-0.000223,-0.002084,0.04,-0.31,9.83,31.03
277117777,-0.001319,-0.001289,-0.001019,0.02,-0.31,9.86,31.08
277118787,-0.001319,-0.003419,4.6e-05,0.04,-0.31,9.86,31.07
277119801,-0.002384,-0.000223,4.6e-05,0.05,-0.31,9.86,31.07
277120807,-0.00345,0.001907,-0.001019,0.02,-0.3,9.83,31.08
277121815,-0.004515,0.002972,-0.001019,0.0,-0.29,9.82,31.06
277122828,-0.00558,-0.000223,4.6e-05,0.0,-0.3,9.82,31.04
277123842,-0.002384,-0.003419,4.6e-05,0.03,-0.31,9.86,31.01
277124846,0.002942,-0.002354,-0.001019,0.03,-0.3,9.86,31.08
277125853,0.002942,0.000842,4.6e-05,0.02,-0.29,9.81,31.05
277126866,0.000812,0.001907,-0.002084,0.01,-0.29,9.84,31.04
277127871,0.000812,-0.000223,-0.003149,-0.01,-0.28,9.82,31.05
277128893,0.000812,-0.001289,-0.001019,0.0,-0.27,9.81,31.07
277129891,0.000812,-0.001289,0.001112,0.03,-0.28,9.86,31.07
277130904,-0.000254,-0.000223,0.001112,0.02,-0.32,9.86,31.05
277131912,-0.000254,0.000842,4.6e-05,0.02,-0.33,9.83,31.03
277132924,-0.001319,0.000842,-0.001019,0.02,-0.3,9.84,31.05
277133937,-0.000254,-0.001289,-0.001019,0.0,-0.29,9.88,31.06
277134944,0.000812,-0.000223,-0.002084,0.02,-0.31,9.83,31.06
277135951,-0.000254,0.000842,-0.003149,0.04,-0.35,9.79,31.07
277136966,-0.002384,-0.001289,-0.001019,0.03,-0.29,9.89,31.08
277137971,-0.001319,-0.002354,-0.001019,0.03,-0.31,9.91,31.02
277138993,0.001877,-0.002354,4.6e-05,0.04,-0.3,9.85,31.01
277139991,0.002942,-0.001289,4.6e-05,0.05,-0.33,9.81,31.05
277141004,0.001877,-0.000223,4.6e-05,0.05,-0.34,9.85,31.04
277142011,0.000812,0.000842,4.6e-05,0.04,-0.34,9.86,31.02
277143024,0.000812,0.001907,-0.001019,0.03,-0.35,9.81,31.04
277144038,-0.000254,0.002972,-0.003149,0.05,-0.34,9.78,31.06
277145044,0.000812,0.004038,-0.001019,0.04,-0.32,9.81,31.05
277146051,0.001877,0.002972,0.002177,0.03,-0.3,9.84,31.02
277147066,0.000812,0.002972,0.004308,0.04,-0.28,9.84,31.1
277148071,0.000812,0.001907,0.002177,0.03,-0.29,9.85,31.1
277149093,-0.000254,0.001907,-0.001019,0.03,-0.31,9.83,31.08
277150091,0.000812,0.000842,-0.002084,0.0,-0.28,9.81,31.1
277151104,0.000812,-0.002354,-0.001019,-0.02,-0.32,9.85,31.11
277152112,-0.000254,-0.003419,4.6e-05,0.01,-0.33,9.85,31.14
277153124,-0.000254,-0.002354,-0.001019,0.04,-0.32,9.8,31.12
277154137,0.002942,-0.000223,-0.001019,0.02,-0.33,9.81,31.08
277155144,0.001877,0.000842,4.6e-05,0.01,-0.3,9.83,31.11
277156151,-0.000254,-0.000223,4.6e-05,0.02,-0.31,9.82,31.1
277157166,0.000812,-0.001289,0.001112,0.0,-0.34,9.85,31.07
277158171,0.002942,-0.000223,0.001112,0.03,-0.33,9.88,31.04
277159193,0.002942,-0.001289,-0.001019,0.04,-0.33,9.85,31.08
277160191,0.000812,-0.001289,-0.002084,0.03,-0.34,9.86,31.08
277161204,-0.000254,-0.001289,4.6e-05,0.03,-0.34,9.86,31.02
277162211,-0.001319,-0.002354,0.001112,0.03,-0.31,9.84,31.07
277163224,-0.001319,-0.001289,0.001112,0.05,-0.31,9.82,31.08
277164238,-0.001319,0.001907,4.6e-05,0.06,-0.31,9.82,31.08
277165244,0.001877,0.002972,0.001112,0.04,-0.28,9.86,31.07
277166251,0.002942,-0.000223,0.003242,0.03,-0.25,9.86,31.04
277167266,0.001877,-0.002354,0.003242,0.07,-0.31,9.86,31.03
277168271,0.001877,0.000842,4.6e-05,0.06,-0.34,9.86,31.05
277169293,0.000812,0.002972,-0.003149,0.05,-0.3,9.85,31.05
277170291,-0.000254,0.001907,-0.001019,0.04,-0.28,9.86,31.04
277171304,-0.001319,0.000842,0.002177,0.0,-0.29,9.9,31.04
277172312,0.000812,0.000842,0.003242,0.02,-0.29,9.88,31.06
277173324,-0.000254,-0.000223,0.004308,0.01,-0.3,9.79,31.05
277174337,-0.001319,0.000842,0.004308,-0.01,-0.31,9.77,31.03
277175344,0.000812,-0.000223,0.001112,0.01,-0.32,9.84,31.05
277176351,0.004007,-0.001289,-0.001019,0.04,-0.33,9.86,31.08
277177366,0.004007,-0.001289,-0.001019,0.04,-0.32,9.86,31.06
277178371,0.001877,-0.001289,4.6e-05,0.04,-0.31,9.85,31.04
277179393,0.000812,-0.001289,4.6e-05,0.04,-0.32,9.82,31.06
277180391,-0.000254,-0.000223,4.6e-05,0.01,-0.3,9.82,31.08
277181404,-0.002384,0.001907,4.6e-05,0.03,-0.31,9.83,31.05
277182411,-0.000254,0.001907,-0.001019,0.02,-0.34,9.82,31.05
277183431,0.000812,-0.001289,-0.001019,0.0,-0.32,9.84,31.05
277184431,0.001877,-0.003419,0.001112,0.02,-0.33,9.83,31.06
277185444,0.001877,-0.003419,0.001112,0.0,-0.34,9.86,31.09
277186451,0.000812,-0.004485,-0.001019,0.0,-0.35,9.83,31.07
277187520,0.000812,-0.002354,-0.003149,0.04,-0.33,9.8,31.07
277188471,0.002942,0.000842,-0.003149,0.06,-0.29,9.81,31.07
277189493,0.004007,0.002972,-0.002084,0.02,-0.27,9.82,31.06
277190491,0.005073,0.002972,-0.001019,0.02,-0.28,9.83,31.04
277191504,0.005073,0.002972,0.001112,0.04,-0.32,9.77,31.06
277192512,0.001877,0.001907,0.001112,0.0,-0.35,9.77,31.05
277193529,-0.000254,-0.000223,4.6e-05,0.02,-0.34,9.82,31.04
277194531,-0.002384,-0.001289,-0.001019,0.02,-0.32,9.8,31.04
277195544,-0.002384,-0.000223,4.6e-05,0.01,-0.32,9.79,31.07
277196551,-0.002384,-0.000223,4.6e-05,0.02,-0.32,9.81,31.06
277197567,-0.000254,-0.000223,0.001112,0.01,-0.31,9.77,31.08
277198577,0.002942,-0.000223,0.001112,-0.01,-0.3,9.81,31.07
277199602,0.004007,-0.000223,0.001112,0.03,-0.29,9.86,31.08
277200596,0.001877,0.000842,4.6e-05,0.04,-0.3,9.84,31.04
277201610,-0.000254,0.000842,4.6e-05,0.02,-0.31,9.86,31.07
277202617,-0.001319,0.001907,0.001112,0.02,-0.28,9.87,31.04
277203639,-0.000254,0.000842,0.002177,0.03,-0.3,9.84,31.02
277204640,0.001877,0.001907,4.6e-05,-0.01,-0.33,9.86,31.02
277205652,0.002942,0.001907,-0.001019,0.01,-0.33,9.91,31.04
277206659,-0.000254,0.001907,4.6e-05,0.05,-0.34,9.9,31.08
277207680,-0.000254,0.000842,4.6e-05,0.03,-0.33,9.88,31.04
277208681,0.001877,-0.000223,0.001112,0.0,-0.29,9.9,31.03
277209703,0.001877,0.001907,4.6e-05,0.02,-0.33,9.85,31.07
277210701,-0.000254,0.005103,4.6e-05,0.02,-0.34,9.78,31.08
277211715,0.000812,0.005103,4.6e-05,0.01,-0.33,9.82,31.03
277212722,0.002942,0.002972,4.6e-05,0.02,-0.33,9.87,31.05
277213738,0.001877,-0.000223,-0.001019,0.04,-0.33,9.87,31.05
277214741,-0.000254,-0.004485,-0.001019,0.04,-0.34,9.85,31.08
277215754,-0.000254,-0.004485,-0.001019,0.06,-0.34,9.86,31.05
277216762,0.001877,-0.000223,-0.001019,0.05,-0.32,9.87,31.04
277217774,0.000812,0.000842,-0.001019,0.02,-0.3,9.82,31.06
277218776,-0.000254,-0.002354,4.6e-05,0.02,-0.29,9.81,31.06
277219797,0.001877,-0.004485,4.6e-05,0.02,-0.31,9.84,31.06
277220792,0.004007,-0.001289,4.6e-05,0.04,-0.32,9.85,31.06
277221838,0.002878,0.000829,-0.001032,0.05,-0.31,9.84,31.05
277222818,-0.000317,-0.001302,-0.001032,0.01,-0.31,9.85,31.04
277223833,-0.001383,0.000829,-0.001032,-0.01,-0.31,9.86,31.02
277224835,-0.001383,0.002959,-0.002098,0.02,-0.31,9.8,31.03
277225846,0.001813,0.000829,-0.003163,0.06,-0.31,9.82,30.99
277226853,0.002878,-0.003432,-0.002098,0.05,-0.32,9.85,31.02
277227866,0.002878,-0.005563,-0.001032,0.05,-0.31,9.83,31.04
277228871,0.001813,-0.003432,3.3e-05,0.04,-0.31,9.81,31.07
277229884,0.000748,-0.001302,0.001098,0.02,-0.32,9.81,31.07
277230891,0.000748,-0.001302,0.002163,0.04,-0.31,9.83,31.09
277231904,0.001813,-0.000237,0.001098,0.05,-0.29,9.83,31.06
277232912,0.002878,-0.000237,3.3e-05,0.02,-0.29,9.81,31.0
277233931,0.005009,0.000829,-0.001032,-0.01,-0.3,9.82,31.04
277234931,0.003944,0.000829,0.001098,0.01,-0.31,9.85,31.04
277235944,0.000748,0.000829,0.003229,0.05,-0.3,9.82,31.04
277236951,-0.001383,0.002959,0.001098,0.07,-0.29,9.81,31.05
277237966,-0.000317,0.000829,0.002163,0.06,-0.3,9.82,31.06
277238971,0.000748,-0.003432,0.002163,0.06,-0.31,9.82,31.07
277239984,-0.000317,-0.004498,0.002163,0.04,-0.28,9.87,31.06
277240991,-0.002448,-0.002367,3.3e-05,0.01,-0.28,9.88,31.04
277242004,0.000748,-0.001302,3.3e-05,0.01,-0.32,9.83,31.04
277243011,0.001813,-0.001302,3.3e-05,0.02,-0.34,9.82,31.06
277244031,0.001813,-0.003432,0.001098,0.0,-0.31,9.81,31.04
277245031,-0.000317,-0.003432,0.001098,0.01,-0.28,9.8,31.04
277246044,-0.000317,-0.002367,0.001098,0.05,-0.3,9.82,31.08
277247051,0.000748,-0.000237,-0.001032,0.06,-0.32,9.83,31.08
277248066,0.000748,0.001894,-0.002098,0.06,-0.32,9.84,31.07
277249071,-0.001383,0.004025,-0.002098,0.05,-0.29,9.83,31.05
277250084,-0.001383,0.002959,-0.001032,0.03,-0.31,9.8,31.05
277251091,0.000748,0.000829,3.3e-05,0.04,-0.36,9.8,31.07
277252104,0.002878,-0.000237,-0.002098,0.03,-0.34,9.85,31.06
277253112,0.002878,0.000829,-0.003163,0.03,-0.31,9.88,31.04
277254131,0.000748,0.000829,-0.001032,0.03,-0.34,9.87,31.02
277255131,-0.000317,0.000829,0.001098,0.0,-0.33,9.82,31.02
277256144,-0.001383,-0.000237,0.003229,0.02,-0.33,9.79,31.04
277257151,-0.000317,0.000829,0.002163,0.04,-0.33,9.79,31.05
277258166,-0.001383,-0.000237,0.001098,0.04,-0.29,9.81,31.05
277259171,-0.002448,-0.002367,0.001098,0.02,-0.3,9.83,31.06
277260184,-0.001383,-0.002367,0.002163,0.0,-0.3,9.82,31.03
277261191,-0.001383,-0.001302,0.002163,0.01,-0.31,9.82,31.05
277262204,-0.002448,-0.000237,0.001098,0.02,-0.32,9.82,31.05
277263211,-0.003513,-0.002367,3.3e-05,0.03,-0.33,9.84,31.04
277264231,-0.003513,-0.002367,3.3e-05,0.04,-0.33,9.86,31.08
277265231,-0.002448,-0.002367,0.001098,0.06,-0.32,9.82,31.08
277266244,-0.002448,-0.001302,0.003229,0.05,-0.34,9.8,31.03
277267251,-0.003513,-0.001302,0.003229,0.01,-0.32,9.79,31.07
277268266,-0.003513,-0.000237,0.001098,0.02,-0.29,9.81,31.09
277269271,0.000748,0.001894,-0.002098,0.02,-0.31,9.86,31.06
277270284,0.001813,0.002959,-0.002098,0.02,-0.34,9.83,31.03
277271291,0.000748,0.001894,-0.001032,0.03,-0.34,9.77,31.05
277272304,-0.001383,0.001894,-0.001032,0.03,-0.29,9.79,31.06
277273312,-0.001383,-0.000237,-0.002098,0.05,-0.28,9.8,31.08
277274331,-0.001383,-0.001302,-0.001032,0.05,-0.29,9.82,31.08
277275331,-0.001383,-0.002367,3.3e-05,0.01,-0.32,9.86,31.09
277276344,-0.000317,-0.000237,3.3e-05,0.02,-0.31,9.83,31.09
277277351,-0.001383,0.000829,3.3e-05,0.03,-0.31,9.83,31.13
277278366,-0.000317,0.001894,-0.001032,0.03,-0.32,9.85,31.07
277279371,0.000748,0.002959,-0.001032,0.03,-0.29,9.83,31.04
277280384,-0.000317,0.002959,3.3e-05,0.04,-0.29,9.81,31.02
277281391,-0.002448,-0.000237,3.3e-05,0.04,-0.31,9.82,31.05
277282404,-0.004578,-0.001302,0.001098,0.03,-0.32,9.81,31.04
277283419,-0.003513,-0.002367,0.001098,0.03,-0.3,9.84,31.07
277284424,-0.000317,-0.002367,-0.001032,0.02,-0.25,9.85,31.05
277285431,0.001813,-0.001302,-0.002098,0.04,-0.29,9.78,31.07
277286444,0.001813,-0.001302,-0.001032,0.04,-0.35,9.78,31.04
277287451,0.001813,-0.001302,-0.001032,0.02,-0.34,9.79,31.02
277288466,0.001813,-0.000237,-0.003163,0.04,-0.32,9.81,31.05
277289471,0.002878,0.000829,-0.002098,0.06,-0.32,9.87,31.04
277290486,0.003944,0.000829,3.3e-05,0.05,-0.3,9.83,31.07
277291491,0.002878,-0.001302,0.001098,0.03,-0.3,9.79,31.05
277292504,-0.000317,-0.002367,-0.001032,0.02,-0.31,9.81,31.08
277293521,-0.001383,-0.000237,-0.002098,0.04,-0.3,9.8,31.05
277294524,-0.000317,-0.000237,-0.002098,0.02,-0.32,9.85,31.1
277295531,-0.000317,-0.002367,-0.002098,0.0,-0.32,9.85,31.08
277296544,0.000748,-0.004498,-0.003163,0.01,-0.33,9.84,31.06
277297551,0.001813,-0.002367,-0.003163,0.03,-0.33,9.83,31.06
277298566,0.000748,0.000829,-0.002098,0.01,-0.33,9.81,31.05
277299578,-0.000317,0.001894,-0.001032,0.04,-0.33,9.83,31.06
277300585,-0.000317,-0.001302,0.001098,0.02,-0.35,9.84,31.06
277301595,-0.000317,-0.000237,0.002163,0.01,-0.35,9.85,31.08
277302609,0.000748,-0.000237,0.002163,0.02,-0.31,9.81,31.05
277303628,0.001813,-0.001302,0.001098,-0.01,-0.3,9.78,31.04
277304628,0.002878,-0.001302,-0.001032,0.01,-0.32,9.77,31.03
277305641,0.002878,0.000829,-0.001032,0.04,-0.31,9.78,31.06
277306654,0.001813,-0.000237,0.001098,0.01,-0.31,9.84,31.07
277307663,-0.000317,-0.001302,3.3e-05,0.0,-0.34,9.87,31.05
277308672,-0.000317,-0.000237,-0.001032,0.03,-0.33,9.85,31.04
277309686,-0.001383,-0.000237,-0.001032,0.05,-0.3,9.83,31.06
277310693,-0.001383,-0.001302,-0.001032,0.03,-0.29,9.84,31.05
277311701,-0.000317,-0.003432,-0.001032,0.0,-0.3,9.87,31.08
277312714,0.000748,-0.002367,-0.001032,0.03,-0.29,9.88,31.06
277313733,-0.000317,-0.000237,-0.001032,0.05,-0.28,9.85,31.07
277314731,-0.001383,0.000829,0.001098,0.04,-0.3,9.82,31.08
277315741,-0.000317,0.000829,0.003229,0.04,-0.34,9.83,31.05
277316752,0.000748,-0.000237,0.003229,0.04,-0.34,9.85,31.06
277317764,0.000748,-0.001302,0.002163,0.05,-0.31,9.8,31.05
277318774,-0.000317,-0.000237,0.002163,0.04,-0.28,9.81,31.05
277319777,-0.001383,-0.000237,0.002163,-0.02,-0.29,9.84,31.07
277320787,-0.002448,0.000829,0.002163,0.0,-0.3,9.84,31.08
277321791,-0.003513,0.001894,3.3e-05,0.02,-0.3,9.82,31.09
277322807,-0.002448,0.001894,3.3e-05,0.0,-0.32,9.82,31.08
277323823,-0.001383,0.000829,0.001098,0.01,-0.29,9.84,31.08
277324828,0.000748,-0.000237,3.3e-05,0.0,-0.26,9.86,31.01
277325835,0.000748,0.000829,3.3e-05,0.0,-0.29,9.87,31.05
277326846,-0.001383,0.001894,-0.001032,0.03,-0.33,9.9,31.04
277327853,-0.000317,0.000829,-0.002098,0.02,-0.33,9.87,31.05
277328866,0.000748,-0.000237,-0.003163,0.01,-0.31,9.79,31.05
277329871,0.000748,0.001894,-0.003163,0.02,-0.3,9.82,31.03
277330884,0.001813,0.000829,-0.004228,0.05,-0.29,9.86,31.04
277331891,0.002878,-0.001302,-0.003163,0.02,-0.29,9.86,31.06
277332904,0.002878,0.000829,-0.002098,-0.02,-0.3,9.86,31.04
277333921,0.001813,0.004025,-0.002098,0.0,-0.31,9.86,31.05
277334924,0.001813,0.004025,-0.001032,0.01,-0.33,9.85,31.03
277335931,0.000748,0.002959,3.3e-05,0.03,-0.34,9.8,31.06
277336944,-0.000317,0.000829,0.002163,0.02,-0.35,9.82,31.08
277337951,-0.000317,-0.001302,0.001098,0.03,-0.34,9.82,31.07
277338966,-0.000317,-0.000237,-0.001032,0.02,-0.33,9.85,31.05
277339971,-0.002448,-0.001302,-0.001032,0.05,-0.32,9.82,31.05
277340984,-0.002448,-0.001302,-0.001032,0.06,-0.29,9.78,31.05
277341991,0.001813,-0.000237,3.3e-05,0.04,-0.31,9.83,31.05
277343004,0.005009,-0.000237,-0.002098,0.06,-0.33,9.86,31.08
277344019,0.002878,-0.000237,-0.002098,0.05,-0.31,9.89,31.06
277345024,-0.000317,0.001894,-0.001032,0.0,-0.32,9.83,31.05
277346031,-0.002448,0.002959,3.3e-05,0.0,-0.32,9.78,31.07
277347044,-0.004578,0.002959,0.001098,0.0,-0.32,9.82,31.07
277348051,-0.002448,0.004025,0.001098,-0.01,-0.34,9.85,31.04
277349066,-0.000317,0.002959,3.3e-05,0.02,-0.34,9.82,31.07
277350071,-0.001383,0.000829,-0.001032,0.04,-0.31,9.78,31.1
277351117,-0.001383,-0.000219,5.7e-05,0.03,-0.33,9.76,31.09
277352095,-0.000317,-0.00235,0.002187,0.06,-0.33,9.8,31.1
277353104,-0.000317,-0.00235,0.002187,0.05,-0.34,9.83,31.04
277354121,-0.001383,0.001911,0.002187,0.01,-0.34,9.77,31.02
277355124,0.000748,0.004042,0.002187,0.03,-0.32,9.78,31.02
277356131,0.001813,0.002977,0.002187,0.02,-0.29,9.86,31.03
277357144,0.001813,0.000846,0.003253,0.02,-0.32,9.86,31.08
277358151,0.001813,-0.001284,0.003253,0.06,-0.31,9.81,31.09
277359166,-0.000317,-0.00448,0.001122,0.06,-0.29,9.85,31.07
277360171,-0.000317,-0.00448,-0.001008,0.06,-0.32,9.9,31.08
277361184,0.000748,-0.001284,-0.002074,0.05,-0.32,9.83,31.1
277362191,0.001813,0.001911,5.7e-05,0.03,-0.31,9.81,31.05
277363204,0.000748,0.001911,0.003253,0.0,-0.32,9.81,31.03
277364219,0.001813,0.001911,0.002187,-0.03,-0.33,9.78,31.03
277365224,0.001813,0.000846,5.7e-05,-0.01,-0.32,9.8,31.03
277366231,0.000748,0.000846,-0.001008,0.03,-0.32,9.76,31.04
277367244,-0.001383,0.001911,0.001122,0.01,-0.31,9.74,31.04
277368251,-0.001383,0.000846,0.001122,0.0,-0.29,9.82,31.03
277369266,-0.002448,0.000846,0.001122,0.03,-0.31,9.83,31.04
277370271,-0.001383,0.002977,0.001122,0.04,-0.33,9.84,31.05
277371284,-0.000317,0.001911,0.003253,0.02,-0.34,9.87,31.03
277372291,0.000748,-0.001284,0.002187,0.0,-0.32,9.82,31.05
277373304,0.000748,-0.001284,0.001122,-0.01,-0.29,9.8,31.08
277374321,-0.000317,-0.000219,0.001122,-0.01,-0.31,9.83,31.05
277375324,-0.000317,-0.000219,5.7e-05,0.03,-0.34,9.88,31.04
277376331,-0.002448,-0.000219,-0.001008,0.04,-0.34,9.85,31.02
277377344,-0.001383,-0.000219,-0.001008,0.02,-0.3,9.81,31.02
277378351,-0.000317,0.000846,-0.001008,0.0,-0.31,9.83,31.03
277379366,0.000748,0.000846,5.7e-05,0.0,-0.29,9.83,31.08
277380371,-0.000317,-0.000219,5.7e-05,0.04,-0.28,9.82,31.07
277381384,-0.000317,-0.000219,5.7e-05,0.03,-0.3,9.84,31.07
277382391,0.000748,0.000846,-0.001008,0.03,-0.33,9.83,31.07
277383404,-0.000317,0.001911,-0.001008,0.02,-0.34,9.86,31.04
277384419,-0.001383,0.001911,5.7e-05,0.02,-0.34,9.9,31.04
277385424,-0.000317,0.000846,-0.001008,-0.01,-0.31,9.82,31.04
277386431,-0.000317,-0.000219,-0.001008,0.02,-0.31,9.81,31.05
277387444,-0.000317,-0.001284,5.7e-05,0.07,-0.33,9.82,31.08
277388451,-0.000317,-0.000219,0.001122,0.05,-0.31,9.8,31.05
277389466,-0.001383,0.000846,0.001122,0.04,-0.32,9.82,31.05
277390471,-0.001383,0.001911,0.001122,0.02,-0.31,9.83,31.05
277391484,0.000748,0.001911,-0.001008,0.01,-0.28,9.85,31.08
277392502,0.003944,-0.000219,-0.001008,0.02,-0.29,9.87,31.05
277393511,0.002879,-0.001284,0.001122,0.02,-0.32,9.85,31.09
277394514,0.000748,-0.001284,0.001122,0.04,-0.33,9.86,31.07
277395524,-0.000317,-0.001284,-0.001008,0.01,-0.31,9.83,31.04
277396531,-0.000317,-0.001284,-0.002074,0.01,-0.29,9.82,31.02
277397544,0.000748,-0.003415,-0.002074,0.05,-0.3,9.77,31.05
277398551,0.000748,-0.001284,-0.001008,0.05,-0.28,9.75,31.05
277399565,-0.000317,-0.000219,0.001122,0.06,-0.29,9.82,31.04
277400577,-0.000317,0.000846,0.001122,0.05,-0.33,9.81,31.09
277401586,0.000748,0.002977,0.001122,0.05,-0.3,9.82,31.09
277402596,0.000748,0.002977,5.7e-05,0.03,-0.29,9.85,31.09
277403616,0.000748,0.002977,-0.001008,0.02,-0.32,9.82,31.09
277404616,-0.000317,0.004042,-0.001008,0.04,-0.31,9.78,31.08
277405630,0.000748,0.004042,5.7e-05,0.04,-0.28,9.78,31.04
277406640,0.002879,-0.000219,-0.001008,0.02,-0.29,9.87,31.03
277407663,0.001813,-0.001284,5.7e-05,0.02,-0.32,9.88,31.08
277408661,0.000748,0.000846,0.002187,0.03,-0.31,9.82,31.06
277409675,0.001813,0.001911,0.004318,0.02,-0.3,9.82,31.07
277410682,0.001813,0.000846,0.003253,0.02,-0.32,9.83,31.04
277411691,0.000748,-0.00235,0.003253,0.03,-0.3,9.85,31.04
277412701,-0.001383,-0.00448,0.002187,0.04,-0.31,9.83,31.07
277413724,-0.001383,-0.003415,0.002187,0.04,-0.3,9.81,31.04
277414723,-0.000317,0.000846,0.002187,0.04,-0.28,9.87,31.02
277415732,-0.000317,0.002977,5.7e-05,0.05,-0.28,9.87,31.01
277416741,-0.000317,0.001911,5.7e-05,0.04,-0.28,9.83,31.04
277417754,0.000748,-0.001284,0.001122,0.03,-0.33,9.81,31.05
277418762,-0.000317,-0.001284,0.002187,0.01,-0.36,9.78,31.08
277419772,-0.002448,-0.001284,0.001122,0.01,-0.36,9.72,31.05
277420776,-0.001383,-0.000219,-0.001008,0.01,-0.34,9.77,31.09
277421787,0.000748,-0.000219,-0.001008,0.0,-0.33,9.84,31.08
277422792,0.000748,-0.000219,0.002187,0.03,-0.33,9.81,31.05
277423814,-0.002448,-0.001284,0.001122,0.04,-0.29,9.82,31.06
277424815,-0.002448,-0.00235,-0.001008,0.05,-0.3,9.82,31.07
277425826,-0.000317,-0.001284,-0.002074,0.03,-0.3,9.78,31.07
277426835,-0.000317,0.000846,-0.002074,0.0,-0.28,9.78,31.06
277427846,0.000748,0.002977,5.7e-05,0.02,-0.28,9.81,31.07
277428853,0.001813,0.001911,0.002187,0.03,-0.3,9.86,31.05
277429866,0.002879,-0.001284,0.002187,0.02,-0.28,9.84,31.03
277430871,0.002879,-0.00235,0.002187,0.02,-0.28,9.8,31.04
277431884,0.003944,-0.001284,0.002187,0.03,-0.31,9.81,31.05
277432891,0.006074,-0.000219,0.001122,0.01,-0.32,9.86,31.09
277433911,0.005009,-0.000219,5.7e-05,0.01,-0.34,9.85,31.08
277434914,0.001813,0.001911,-0.002074,0.04,-0.34,9.84,31.08
277435924,-0.001383,0.001911,5.7e-05,0.06,-0.31,9.81,31.05
277436931,-0.001383,0.000846,5.7e-05,0.04,-0.33,9.85,31.04
277437944,-0.003513,-0.000219,5.7e-05,0.04,-0.31,9.83,31.03
277438951,-0.003513,-0.001284,-0.001008,0.06,-0.32,9.84,31.05
277439965,-0.001383,-0.001284,-0.001008,0.03,-0.31,9.89,31.05
277440971,-0.001383,-0.001284,5.7e-05,-0.01,-0.27,9.88,31.08
277441984,-0.001383,-0.001284,0.001122,0.03,-0.31,9.85,31.09
277442991,-0.001383,0.001911,0.001122,0.05,-0.31,9.82,31.07
277444011,-0.000317,0.004042,0.002187,0.04,-0.31,9.78,31.05
277445011,0.000748,0.002977,0.002187,0.01,-0.33,9.76,31.07
277446024,-0.000317,-0.000219,0.001122,0.02,-0.34,9.82,31.05
277447031,-0.000317,-0.001284,5.7e-05,0.03,-0.32,9.82,31.07
277448044,-0.000317,0.000846,-0.001008,0.02,-0.32,9.82,31.09
277449051,-0.000317,0.002977,0.001122,0.01,-0.33,9.84,31.06
277450112,0.001813,0.002977,0.001122,0.02,-0.33,9.82,31.02
277451078,0.003944,0.002977,0.001122,0.04,-0.33,9.85,31.06
277452119,0.000748,0.001911,-0.001008,0.04,-0.31,9.86,31.04
277453091,-0.001383,0.001911,-0.001008,0.02,-0.3,9.81,31.04
277454109,0.000748,-0.000219,-0.001008,0.04,-0.28,9.8,31.07
277455114,0.000748,-0.00235,-0.001008,0.04,-0.28,9.78,31.06
277456124,-0.001383,-0.001284,5.7e-05,0.04,-0.3,9.78,31.07
277457131,-0.003513,0.000846,-0.001008,0.05,-0.28,9.79,31.02
277458144,-0.003513,0.001911,-0.002074,0.05,-0.27,9.82,31.05
277459151,-0.000317,0.002977,-0.002074,0.01,-0.28,9.78,31.06
277460165,-0.001383,0.002977,5.7e-05,-0.01,-0.32,9.73,31.05
277461171,-0.000317,0.002977,0.002187,0.03,-0.34,9.75,31.03
277462184,0.001813,0.004042,0.002187,0.01,-0.32,9.8,31.05
277463191,0.003944,0.000846,-0.001008,-0.02,-0.32,9.82,31.06
277464211,0.001813,-0.003415,-0.002074,0.01,-0.34,9.85,31.06
277465211,-0.001383,-0.003415,5.7e-05,0.03,-0.33,9.85,31.04
277466224,-0.003513,-0.001284,5.7e-05,0.0,-0.33,9.81,31.04
277467231,-0.000317,-0.000219,0.002187,0.02,-0.34,9.81,31.07
277468244,0.000748,-0.001284,0.003253,0.02,-0.32,9.82,31.03
277469251,0.000748,-0.000219,0.003253,0.0,-0.3,9.82,31.04
277470266,0.001813,0.000846,0.002187,0.03,-0.32,9.81,31.04
277471271,0.002879,0.002977,0.001122,0.07,-0.32,9.83,31.04
277472284,0.001813,0.004042,5.7e-05,0.04,-0.32,9.82,31.04
277473291,-0.001383,-0.000219,-0.001008,0.0,-0.34,9.84,31.06
277474311,-0.001383,-0.003415,5.7e-05,0.03,-0.35,9.84,31.05
277475314,0.000748,-0.003415,0.001122,0.05,-0.35,9.79,31.07
277476324,0.001813,-0.001284,0.002187,0.05,-0.3,9.78,31.04
277477331,-0.000317,0.001911,0.002187,0.08,-0.28,9.79,31.04
277478344,-0.003513,0.002977,0.003253,0.08,-0.32,9.81,31.08
277479351,-0.003513,0.002977,0.003253,0.04,-0.33,9.79,31.05
277480397,-0.001394,0.00187,0.002115,0.02,-0.3,9.81,31.06
277481375,0.001801,-0.000261,0.001049,0.03,-0.31,9.83,31.07
277482384,0.002867,-0.000261,-1.6e-05,0.04,-0.31,9.83,31.08
277483391,0.001801,0.00187,-0.002147,0.06,-0.31,9.84,31.07
277484411,0.002867,0.002935,-0.001081,0.04,-0.31,9.83,31.06
277485411,0.003932,0.00187,0.001049,0.02,-0.29,9.8,31.08
277486424,0.001801,0.00187,-1.6e-05,0.02,-0.3,9.82,31.06
277487431,-0.00246,0.00187,-0.001081,0.01,-0.3,9.82,31.09
277488444,-0.00246,0.000804,-1.6e-05,-0.01,-0.28,9.82,31.08
277489451,0.001801,-0.001326,-1.6e-05,0.01,-0.31,9.82,31.06
277490466,0.002867,-0.001326,0.002115,0.03,-0.33,9.79,31.08
277491471,0.000736,0.00187,0.002115,0.03,-0.33,9.81,31.07
277492484,-0.00246,0.005066,-0.001081,0.04,-0.33,9.83,31.04
277493498,-0.001394,0.002935,-0.004277,0.03,-0.32,9.82,31.05
277494549,-0.001394,-0.000261,-0.004277,0.0,-0.33,9.8,31.04
277495533,-0.000329,-0.002391,-0.002147,0.01,-0.34,9.79,31.09
277496524,-0.001394,-0.004522,0.001049,0.03,-0.32,9.78,31.09
277497531,-0.00459,-0.002391,0.001049,0.02,-0.31,9.83,31.06
277498544,-0.003525,-0.000261,-1.6e-05,0.01,-0.33,9.83,31.02
277499551,-0.000329,-0.000261,-0.001081,0.01,-0.33,9.78,31.02
277500564,-0.000329,-0.001326,-1.6e-05,0.03,-0.31,9.77,31.07
277501577,0.000736,-0.001326,0.002115,0.06,-0.31,9.79,31.06
277502586,0.001801,-0.001326,0.002115,0.08,-0.33,9.85,31.08
277503606,0.001801,-0.000261,-1.6e-05,0.09,-0.35,9.85,31.09
277504610,0.001801,0.00187,-1.6e-05,0.06,-0.34,9.84,31.07
277505617,0.002867,0.00187,0.001049,0.06,-0.32,9.82,31.05
277506632,0.000736,0.00187,-0.002147,0.07,-0.31,9.83,31.04
277507646,-0.00246,0.00187,-0.004277,0.07,-0.32,9.87,31.02
277508652,-0.001394,0.002935,-0.001081,0.09,-0.32,9.84,31.03
277509660,0.000736,0.00187,0.001049,0.06,-0.31,9.78,31.06
277510675,0.000736,0.000804,-0.001081,0.03,-0.31,9.85,31.07
277511685,0.000736,-0.000261,-0.001081,-0.01,-0.3,9.9,31.09
277512691,0.001801,-0.002391,-1.6e-05,0.0,-0.3,9.85,31.08
277513711,0.001801,-0.004522,0.001049,0.05,-0.32,9.83,31.09
277514715,0.000736,-0.003457,0.00318,0.06,-0.34,9.83,31.05
277515721,-0.00246,-0.003457,0.00318,0.06,-0.33,9.81,31.04
277516734,-0.000329,-0.001326,0.002115,0.06,-0.3,9.82,31.04
277517741,0.000736,0.00187,0.001049,0.07,-0.3,9.86,31.07
277518754,0.001801,0.002935,-1.6e-05,0.05,-0.3,9.88,31.05
277519762,0.000736,0.000804,-1.6e-05,0.03,-0.34,9.87,31.06
277520771,-0.000329,-0.003457,-1.6e-05,0.03,-0.35,9.86,31.06
277521777,-0.001394,-0.006653,-1.6e-05,0.01,-0.32,9.8,31.05
277522787,-0.001394,-0.005587,-1.6e-05,0.03,-0.32,9.79,31.06
277523799,-0.001394,-0.002391,-1.6e-05,0.08,-0.31,9.83,31.06
277524807,-0.000329,-0.000261,-1.6e-05,0.06,-0.31,9.82,31.07
277525815,0.000736,0.000804,-0.002147,0.02,-0.33,9.78,31.05
277526826,0.000736,0.00187,-0.004277,-0.01,-0.3,9.78,31.05
277527835,0.000736,0.00187,-0.004277,-0.03,-0.28,9.83,31.09
277528846,0.000736,-0.000261,-0.002147,-0.03,-0.3,9.84,31.08
277529853,0.001801,-0.001326,-1.6e-05,0.02,-0.29,9.84,31.05
277530864,0.001801,-0.000261,-0.002147,0.04,-0.29,9.84,31.06
277531874,0.001801,0.000804,-0.004277,0.02,-0.31,9.85,31.04
277532884,0.000736,0.000804,-0.002147,0.05,-0.32,9.82,31.02
277533898,0.000736,0.000804,0.002115,0.04,-0.32,9.82,31.03
277534904,-0.000329,-0.000261,0.002115,0.02,-0.29,9.85,31.08
277535911,0.000736,0.000804,0.00318,0.02,-0.3,9.87,31.06
277536926,-0.001394,0.00187,0.00318,0.0,-0.29,9.85,31.05
277537931,-0.001394,-0.000261,0.002115,0.01,-0.29,9.79,31.08
277538944,-0.001394,-0.001326,-0.001081,0.02,-0.33,9.8,31.05
277539951,-0.000329,-0.001326,-0.001081,0.02,-0.31,9.79,31.05
277540964,0.001801,-0.001326,-1.6e-05,0.02,-0.3,9.8,31.08
277541972,0.000736,-0.001326,-1.6e-05,0.05,-0.34,9.85,31.08
277542984,-0.001394,-0.002391,-1.6e-05,0.06,-0.34,9.87,31.04
277543998,-0.001394,-0.002391,-0.002147,0.03,-0.35,9.86,31.03
277545004,-0.001394,-0.001326,-0.003212,0.0,-0.31,9.83,31.08
277546011,-0.00246,-0.000261,-0.002147,0.01,-0.31,9.82,31.04
277547024,-0.001394,-0.000261,-1.6e-05,0.01,-0.35,9.85,31.04
277548031,0.000736,-0.000261,0.001049,0.0,-0.34,9.84,31.08
277549044,0.001801,0.000804,0.002115,0.03,-0.31,9.83,31.07
277550051,0.001801,-0.001326,0.00318,0.03,-0.28,9.84,31.05
277551064,0.001801,-0.001326,0.002115,0.03,-0.27,9.85,31.03
277552074,-0.000329,-0.002391,-1.6e-05,0.03,-0.28,9.85,31.03
277553084,-0.001394,-0.003457,-0.002147,0.01,-0.31,9.85,31.06
277554098,-0.000329,-0.002391,-0.002147,0.01,-0.33,9.84,31.07
277555104,0.001801,-0.001326,-0.001081,0.05,-0.33,9.82,31.06
277556111,0.001801,-0.001326,-1.6e-05,0.06,-0.32,9.86,31.05
277557126,0.000736,-0.001326,-1.6e-05,0.05,-0.3,9.89,31.05
277558131,-0.001394,-0.003457,0.001049,0.06,-0.28,9.83,31.02
277559144,-0.001394,-0.004522,0.002115,0.07,-0.28,9.8,31.05
277560151,-0.000329,-0.002391,0.001049,0.08,-0.3,9.84,31.07
277561164,0.001801,-0.000261,0.001049,0.05,-0.32,9.85,31.08
277562172,0.002867,-0.000261,0.001049,0.02,-0.32,9.85,31.09
277563184,0.002867,-0.001326,-0.001081,0.02,-0.31,9.88,31.07
277564198,0.000736,-0.001326,-0.001081,0.01,-0.29,9.87,31.07
277565204,-0.001394,-0.000261,-1.6e-05,0.03,-0.28,9.85,31.06
277566211,-0.000329,-0.001326,0.001049,0.01,-0.28,9.86,31.05
277567224,0.001801,-0.002391,0.001049,-0.01,-0.32,9.86,31.06
277568231,0.001801,-0.001326,-1.6e-05,0.0,-0.33,9.86,31.05
277569244,0.001801,0.000804,-0.001081,0.0,-0.33,9.86,31.05
277570251,0.003932,0.00187,-0.001081,0.0,-0.32,9.82,31.07
277571264,0.004997,0.000804,-1.6e-05,-0.01,-0.29,9.8,31.04
277572274,0.004997,-0.001326,0.001049,0.03,-0.31,9.78,31.02
277573284,0.002867,-0.002391,0.001049,0.04,-0.32,9.79,31.01
277574298,0.001801,-0.001326,0.001049,0.01,-0.32,9.82,31.03
277575304,0.002867,0.002935,0.002115,0.02,-0.34,9.83,31.05
277576311,0.001801,0.002935,0.002115,-0.01,-0.32,9.79,31.07
277577326,0.000736,0.000804,-1.6e-05,0.0,-0.29,9.78,31.06
277578331,0.000736,-0.000261,-0.003212,0.01,-0.33,9.84,31.06
277579344,0.001801,-0.000261,-0.004277,0.05,-0.32,9.82,31.04
277580351,0.002867,0.002935,-0.004277,0.06,-0.31,9.78,31.03
277581364,0.002867,0.000804,-0.003212,0.04,-0.33,9.82,31.04
277582372,0.001801,-0.001326,-0.001081,0.05,-0.34,9.82,31.04
277583384,-0.001394,-0.001326,-0.002147,0.02,-0.34,9.78,31.06
277584398,-0.00246,-0.000261,-0.002147,-0.01,-0.34,9.82,31.05
277585404,-0.001394,-0.000261,-0.001081,0.0,-0.32,9.83,31.1
277586411,-0.001394,-0.000261,-0.001081,0.0,-0.32,9.79,31.11
277587424,-0.000329,0.000804,-1.6e-05,0.0,-0.32,9.84,31.07
277588431,0.002867,0.00187,-1.6e-05,-0.02,-0.27,9.81,31.06
277589444,0.004997,0.002935,-0.001081,-0.03,-0.28,9.82,31.06
277590478,0.002867,0.004,-1.6e-05,0.0,-0.3,9.86,31.08
277591464,0.000736,0.004,-1.6e-05,0.0,-0.32,9.8,31.08
277592474,-0.001394,0.002935,-1.6e-05,0.01,-0.32,9.78,31.08
277593491,-0.001394,0.000804,-1.6e-05,0.03,-0.3,9.81,31.06
277594491,0.000736,0.000804,-1.6e-05,0.02,-0.34,9.79,31.09
277595504,0.002867,0.00187,-0.001081,0.05,-0.33,9.79,31.06
277596511,0.003932,0.00187,-0.003212,0.05,-0.29,9.83,31.07
277597526,0.002867,0.00187,-0.002147,0.05,-0.27,9.87,31.04
277598531,0.001801,0.002935,-0.001081,0.05,-0.29,9.88,31.03
277599544,-0.000329,0.002935,-1.6e-05,0.01,-0.32,9.82,31.05
277600551,-0.000329,0.000804,0.001049,-0.01,-0.3,9.83,31.07
277601564,-0.001394,-0.000261,0.001049,-0.01,-0.28,9.82,31.08
277602578,-0.00246,-0.002391,0.00318,-0.02,-0.29,9.78,31.09
277603593,-0.001394,-0.002391,0.004245,0.01,-0.28,9.79,31.1
277604596,-0.00246,-0.000261,0.00318,0.06,-0.28,9.83,31.05
277605609,-0.00459,0.000804,0.002115,0.04,-0.3,9.86,31.05
277606615,-0.003525,-0.001326,0.001049,0.04,-0.3,9.87,31.07
277607636,-0.000329,-0.003457,0.00318,0.06,-0.28,9.87,31.07
277608641,0.001801,-0.003457,0.00318,0.05,-0.29,9.84,31.07
277609681,-0.000384,-0.002364,0.001062,0.04,-0.33,9.82,31.07
277610666,-0.000384,0.000832,-0.001068,0.04,-0.33,9.8,31.06
277611672,0.000682,0.002962,-0.002134,0.01,-0.31,9.82,31.06
277612687,0.000682,0.001897,-3e-06,0.0,-0.31,9.83,31.02
277613696,0.000682,-0.000233,0.001062,-0.01,-0.28,9.82,31.0
277614701,-0.000384,-0.000233,-3e-06,0.0,-0.29,9.84,30.99
277615714,-0.000384,-0.000233,-0.001068,0.05,-0.32,9.82,31.02
277616727,-0.001449,0.001897,-3e-06,0.08,-0.29,9.85,31.01
277617734,-0.001449,0.001897,0.001062,0.04,-0.3,9.88,30.98
277618741,-0.000384,0.000832,0.001062,0.02,-0.31,9.85,31.0
277619752,-0.000384,-0.001299,-3e-06,0.03,-0.3,9.85,31.05
277620764,-0.001449,-0.000233,0.001062,0.04,-0.31,9.82,31.05
277621772,-0.001449,-0.000233,0.002127,0.03,-0.32,9.8,31.08
277622778,-0.000384,0.000832,-0.001068,0.01,-0.32,9.85,31.08
277623794,0.000682,0.001897,-0.001068,0.03,-0.3,9.82,31.04
277624791,0.002812,0.000832,-0.003199,0.01,-0.3,9.76,31.04
277625807,0.000682,0.002962,-0.002134,0.01,-0.31,9.83,31.04
277626815,-0.001449,0.004028,-3e-06,0.02,-0.31,9.88,31.06
277627828,-0.002514,0.002962,-3e-06,0.01,-0.33,9.85,31.05
277628835,-0.002514,0.001897,-3e-06,0.01,-0.31,9.77,31.06
277629846,-0.00358,-0.000233,-3e-06,-0.01,-0.31,9.78,31.04
277630853,-0.002514,-0.001299,0.001062,0.01,-0.34,9.82,31.04
277631864,-0.001449,-0.001299,0.001062,0.03,-0.34,9.82,31.03
277632874,-0.001449,0.000832,-3e-06,0.02,-0.32,9.82,31.09
277633891,-0.002514,0.001897,-3e-06,0.02,-0.32,9.81,31.08
277634891,-0.002514,0.000832,-3e-06,0.02,-0.32,9.82,31.06
277635904,0.000682,-0.001299,-3e-06,0.02,-0.3,9.86,31.04
277636911,0.001747,0.000832,-0.001068,0.04,-0.3,9.84,31.06
277637926,0.000682,0.000832,-0.001068,0.04,-0.3,9.84,31.08
277638931,0.001747,-0.001299,-0.002134,0.05,-0.3,9.82,31.05
277639944,0.001747,-0.004495,-0.001068,0.06,-0.32,9.81,31.05
277640951,-0.001449,-0.004495,0.001062,0.05,-0.3,9.82,31.07
277641964,-0.00358,-0.004495,0.001062,0.04,-0.28,9.79,31.05
277642972,-0.002514,-0.002364,0.002127,0.02,-0.32,9.84,31.03
277643991,0.000682,0.000832,0.002127,0.01,-0.35,9.85,31.02
277644991,0.001747,0.002962,0.002127,0.03,-0.33,9.85,31.0
277646004,0.001747,0.002962,-3e-06,0.04,-0.31,9.85,31.05
277647011,0.000682,0.001897,-0.002134,0.02,-0.28,9.86,31.05
277648024,-0.000384,0.001897,-0.002134,0.01,-0.31,9.87,31.07
277649031,0.001747,0.001897,-0.001068,-0.01,-0.32,9.82,31.07
