t,dt_s,gyro_x,gyro_y,gyro_z,acc_x,acc_y,acc_z,rates.x,rates.y,rates.z,ratesTarget.x,ratesTarget.y,ratesTarget.z,attitude.x,attitude.y,attitude.z,attitudeTarget.x,attitudeTarget.y,attitudeTarget.z,thrustTarget,battery_v,rc_roll,rc_pitch,rc_yaw,rc_throttle,rc_mode,flight_mode,rc_age_s,armed,fault_mask,motor_rl,motor_rr,motor_fr,motor_fl,rate_i_x,rate_i_y,rate_i_z,mix_scale,control_source,accel_correction_confidence
760.445,0.001013,-0.05859375,0.07617188,0.07617188,-4.703125,3.851562,24.75781,-0.02734375,0.00390625,0.09179688,0.1484375,0.01367188,0,-0.0246582,-0.002441406,0.7830811,0,0,0.7830811,0.3500061,3.398,0,0,0,0,nan,4,0.03,1,0,0.6291809,0.1679382,0,0.6029053,0.2998047,0.05566406,0,0.8500977,6,0
760.455,0.001015,0.07421875,0.1855469,0.1347656,-4.789062,3.8125,26.35938,0.046875,0.009765625,0.09765625,0.1464844,0.015625,0,-0.02453613,-0.002441406,0.7840576,0,0,0.7840576,0.3500061,3.398,0,0,0,0,nan,4,0.04,1,0,0.7436523,0.05725098,0.04486084,0.5542297,0.2998047,0.05566406,0,1,6,0
760.465,0.001011,0.06640625,0.2148438,0.09375,-6.015625,5.976562,30.02344,0.0546875,0.03710938,0.1230469,0.1464844,0.015625,0,-0.02429199,-0.002441406,0.7850342,0,0,0.7850342,0.3500061,3.398,0,0,0,0,nan,4,0.05,1,0,0.762085,0.02703857,0.07785034,0.5330505,0.2998047,0.05566406,0,1,6,0
760.475,0.001031,-0.02929688,-0.04101562,-0.02734375,-4.890625,4.734375,25.21094,0.0234375,-0.001953125,0.078125,0.1464844,0.01367188,0,-0.02441406,-0.002441406,0.7861328,0,0,0.7861328,0.3500061,3.398,0,0,0,0,nan,4,0.061,1,0,0.6351929,0.1685181,0,0.596283,0.2998047,0.05566406,0,0.8757324,6,0
760.485,0.001011,-0.06445312,-0.07421875,0.001953125,-2.5625,2.648438,23.46094,0.01367188,-0.04101562,0.0390625,0.1445312,0.015625,0,-0.02404785,-0.002685547,0.7867432,0,0,0.7867432,0.3500061,3.398,0,0,0,0,nan,4,0.071,1,0,0.6214905,0.1843262,0,0.5941467,0.2998047,0.05566406,0,0.8264465,6,0
760.494,0.001009,0.009765625,-0.1699219,0.1386719,3.796875,-5.273438,-5.34375,-0.0703125,-0.01367188,0.09375,0.1464844,0.015625,0,-0.02441406,-0.002563477,0.7874756,0,0,0.7874756,0.3500061,3.398,0,0,0,0,nan,4,0.08,1,0,0.7939758,0.03381348,0.02511597,0.5470886,0.2998047,0.05566406,0,1,6,0
760.504,0.001013,0.07617188,-0.2207031,0.1679688,3.273438,-4.578125,-5.789062,-0.01757812,-0.05664062,0.1289062,0.1484375,0.01171875,0,-0.02478027,-0.002075195,0.7886963,0,0,0.7886963,0.3500061,3.398,0,0,0,0,nan,4,0.09,1,0,0.7973022,0.05886841,0.02914429,0.5147095,0.2998047,0.05566406,0,1,6,0
760.515,0.001013,0.1679688,-0.03515625,0.1523438,2.046875,-5.140625,1.609375,0.08007812,-0.06835938,0.1523438,0.1445312,0.015625,0,-0.02416992,-0.002563477,0.7900391,0,0,0.7900391,0.3500061,3.398,0,0,0,0,nan,4,0.1,1,0,0.7931213,0.03445435,0.07104492,0.5014038,0.2998047,0.05566406,0,1,6,0
760.525,0.001013,0.04101562,-0.03125,0.1386719,5.835938,-5.296875,-9.023438,-0.0234375,0.0625,0.1660156,0.1445312,0.015625,0,-0.02416992,-0.002563477,0.7915039,0,0,0.7915039,0.3500061,3.398,0,0,0,0,nan,4,0.11,1,0,0.7828369,0,0.07406616,0.5431213,0.2998047,0.05566406,0,0.9954529,6,0
760.535,0.001013,0.1894531,-0.2226562,0.1015625,4.671875,-0.6875,-0.5390625,0.02734375,0.0078125,0.1367188,0.1464844,0.01171875,0,-0.02441406,-0.001953125,0.7930908,0,0,0.7930908,0.3500061,3.398,0,0,0,0,nan,4,0.12,1,0,0.688385,0.1332703,0,0.5783386,0.2998047,0.05566406,0,0.9571228,6,0
760.545,0.001009,0.1074219,-0.3164062,0.1738281,5.398438,-1.125,-1.5625,0.04101562,-0.078125,0.1542969,0.1464844,0.01367188,0,-0.02429199,-0.002197266,0.7946777,0,0,0.7946777,0.3500061,3.398,0,0,0,0,nan,4,0.13,1,0,0.7795715,0.07171631,0.02340698,0.5252991,0.2998047,0.05566406,0,1,6,0
760.555,0.001013,-0.00390625,-0.04101562,0.1699219,3.539062,-3.125,-4.546875,-0.078125,0.01367188,0.1523438,0.1484375,0.01171875,0,-0.02478027,-0.002075195,0.7962646,0,0,0.7962646,0.3500061,3.398,0,0,0,0,nan,4,0.14,1,0,0.7570801,0.05618286,0.005432129,0.5812988,0.2998047,0.05566406,0,1,6,0
760.565,0.001013,0.1171875,0.04492188,0.2070312,1.6875,1.328125,0.921875,0.005859375,0.046875,0.1757812,0.1523438,0.009765625,0,-0.02526855,-0.001708984,0.7978516,0,0,0.7978516,0.3500061,3.398,0,0,0,0,nan,4,0.15,1,0,0.7973328,0,0.1073608,0.4953308,0.2998047,0.05566406,0,0.9922485,6,0
760.575,0.001015,-0.09765625,-0.0859375,0.140625,-1.46875,-0.328125,9.960938,0.0546875,-0.05078125,0.1835938,0.1484375,0.01171875,0,-0.02478027,-0.002075195,0.7996826,0,0,0.7996826,0.3500061,3.398,0,0,0,0,nan,4,0.161,1,0,0.7667542,0.06048584,0.03295898,0.5397949,0.2998047,0.05566406,0,1,6,0.1587302
760.585,0.001013,-0.1914062,0.2441406,0.1152344,-5.828125,2.75,25.70312,-0.03125,0.02734375,0.1621094,0.1484375,0.01367188,0,-0.0246582,-0.002197266,0.8015137,0,0,0.8015137,0.3500061,3.398,0,0,0,0,nan,4,0.171,1,0,0.7071838,0.07846069,0,0.6143494,0.2998047,0.05566406,0,0.9668274,6,0
760.594,0.001007,0.046875,0.03710938,0.1914062,3.515625,-3.914062,2.914062,-0.03125,0.05078125,0.140625,0.1484375,0.01171875,0,-0.02490234,-0.001831055,0.8028564,0,0,0.8028564,0.3500061,3.398,0,0,0,0,nan,4,0.18,1,0,0.7406921,0.05618286,0.01766968,0.5854187,0.2998047,0.05566406,0,1,6,0
760.604,0.000966,0.1542969,-0.2480469,0.2246094,6.125,-3.609375,-1.953125,0.0859375,-0.05273438,0.1816406,0.1484375,0.01171875,0,-0.02453613,-0.001953125,0.8044434,0,0,0.8044434,0.3500061,3.398,0,0,0,0,nan,4,0.007,1,0,0.8165894,0.02008057,0.09661865,0.4667053,0.2998047,0.05566406,0,1,6,0
760.615,0.001043,-0.2578125,0.08203125,0.1191406,0.8828125,0.0546875,15.22656,-0.09960938,0.03125,0.1445312,0.1464844,0.01171875,0,-0.02453613,-0.001953125,0.8060303,0,0,0.8060303,0.3500061,3.398,0,0,0,0,nan,4,0.017,1,0,0.7381592,0.05578613,0,0.6060486,0.2998047,0.05566406,0,0.961792,6,0
760.625,0.001011,0.1699219,0.06835938,0.1777344,-0.3515625,-0.859375,10.21094,-0.0234375,0.02734375,0.1503906,0.1503906,0.009765625,0,-0.02502441,-0.001586914,0.8074951,0,0,0.8074951,0.3500061,3.398,0,0,0,0,nan,4,0.027,1,0,0.761261,0.04794312,0.04101562,0.5497742,0.2998047,0.05566406,0,1,6,0.06349207
760.635,0.001011,0.07421875,0.046875,0.1484375,2.046875,-2.65625,-1.953125,0.02539062,0.01367188,0.1523438,0.1503906,0.009765625,0,-0.02490234,-0.001708984,0.809082,0,0,0.809082,0.3500061,3.398,0,0,0,0,nan,4,0.037,1,0,0.7479858,0.0513916,0.04281616,0.5578308,0.2998047,0.05566406,0,1,6,0
760.645,0.001015,0.06640625,-0.1503906,0.1640625,4.414062,-0.4765625,-1.625,0.01367188,-0.015625,0.1503906,0.1503906,0.0078125,0,-0.02502441,-0.001342773,0.8105469,0,0,0.8105469,0.3500061,3.398,0,0,0,0,nan,4,0.047,1,0,0.7706299,0.06008911,0.03024292,0.5390625,0.2998047,0.05566406,0,1,6,0
760.655,0.00101,0.1582031,0,0.1894531,2.6875,-1.242188,-0.96875,0.02929688,-0.0390625,0.1445312,0.1484375,0.009765625,0,-0.02490234,-0.001708984,0.8118896,0,0,0.8118896,0.3500061,3.398,0,0,0,0,nan,4,0.058,1,0,0.7678528,0.05328369,0.03765869,0.5411682,0.2998047,0.05566406,0,1,6,0
760.665,0.001009,0.09179688,-0.08007812,0.1992188,5.59375,-2.960938,-0.578125,-0.0078125,0.009765625,0.1445312,0.1484375,0.009765625,0,-0.02478027,-0.001586914,0.8132324,0,0,0.8132324,0.3500061,3.398,0,0,0,0,nan,4,0.068,1,0,0.7877502,0.01965332,0.05499268,0.5375977,0.2998047,0.05566406,0,1,6,0
760.675,0.001014,0.203125,-0.1835938,0.1269531,5.28125,-2.65625,0.3203125,0.03710938,-0.01171875,0.1171875,0.1503906,0.0078125,0,-0.02502441,-0.001464844,0.8144531,0,0,0.8144531,0.3500061,3.398,0,0,0,0,nan,4,0.078,1,0,0.7357483,0.08990479,0.02389526,0.5504456,0.2998047,0.05566406,0,1,6,0
760.685,0.001013,0.01757812,-0.1015625,0.078125,2.085938,-1.382812,-1.8125,-0.001953125,-0.07617188,0.1015625,0.1484375,0.009765625,0,-0.02478027,-0.001831055,0.8156738,0,0,0.8156738,0.3500061,3.398,0,0,0,0,nan,4,0.088,1,0,0.6863708,0.1374512,0,0.5762024,0.2998047,0.05566406,0,0.8977051,6,0
760.694,0.001006,-0.1210938,0.1933594,0.06835938,-5.648438,2.585938,26.26562,-0.08203125,0.04882812,0.08007812,0.1503906,0.009765625,0,-0.02514648,-0.001586914,0.8165283,0,0,0.8165283,0.3500061,3.398,0,0,0,0,nan,4,0.097,1,0,0.6819153,0.1002808,0,0.6177979,0.2998047,0.05566406,0,0.9248352,6,0
760.704,0.001011,0.1914062,0.1113281,0.1054688,-4.53125,4.367188,25.82031,0.0234375,0.02539062,0.1035156,0.1523438,0.009765625,0,-0.02526855,-0.001586914,0.8175049,0,0,0.8175049,0.3500061,3.398,0,0,0,0,nan,4,0.107,1,0,0.7390747,0.0597229,0.04281616,0.5583801,0.2998047,0.05566406,0,1,6,0
760.715,0.001011,-0.05664062,-0.1367188,0.1347656,1.09375,-0.3984375,-3.171875,0.0234375,-0.02539062,0.1269531,0.1503906,0.009765625,0,-0.02514648,-0.001586914,0.8186035,0,0,0.8186035,0.3500061,3.398,0,0,0,0,nan,4,0.117,1,0,0.7914734,0.03430176,0.0531311,0.5210876,0.2998047,0.05566406,0,1,6,0
760.725,0.001011,-0.1992188,-0.08203125,0.2050781,-2.71875,-4.492188,4.164062,-0.1015625,0.00390625,0.1757812,0.1542969,0.0078125,0,-0.02563477,-0.001342773,0.8201904,0,0,0.8201904,0.3500061,3.398,0,0,0,0,nan,4,0.127,1,0,0.8171082,0,0.07107544,0.5117798,0.2998047,0.05566406,0,0.9630737,6,0
760.735,0.001008,0.09765625,0.05078125,0.1503906,-1.882812,-0.75,13.03906,0.03125,-0.01953125,0.1621094,0.1542969,0.005859375,0,-0.02587891,-0.001098633,0.8220215,0,0,0.8220215,0.3500061,3.398,0,0,0,0,nan,4,0.137,1,0,0.7348633,0.08847046,0.01385498,0.5628357,0.2998047,0.05566406,0,1,6,0
760.745,0.001007,0.08398438,0.1308594,0.1191406,-4.875,4.921875,13.80469,0.08203125,0.001953125,0.1289062,0.1503906,0.009765625,0,-0.02514648,-0.001586914,0.8234863,0,0,0.8234863,0.3500061,3.398,0,0,0,0,nan,4,0.147,1,0,0.7053223,0.08685303,0.01626587,0.5915527,0.2998047,0.05566406,0,1,6,0
760.755,0.001009,-0.1308594,0.1445312,0.06445312,-4.6875,2.21875,19.9375,-0.07617188,0.08203125,0.0859375,0.1523438,0.0078125,0,-0.02539062,-0.001220703,0.824585,0,0,0.824585,0.3500061,3.398,0,0,0,0,nan,4,0.158,1,0,0.6584473,0.1183167,0,0.62323,0.2998047,0.05566406,0,0.9007568,6,0
760.765,0.000975,-0.09375,-0.001953125,0.1484375,-5.195312,3.8125,23.8125,0.01171875,-0.04882812,0.1308594,0.1542969,0.005859375,0,-0.02563477,-0.001098633,0.8256836,0,0,0.8256836,0.3500061,3.398,0,0,0,0,nan,4,0.168,1,0,0.7977905,0.04223633,0.04837036,0.5115967,0.2998047,0.05566406,0,1,6,0
760.775,0.001006,0.0234375,0.1542969,0.1621094,-4.273438,6.039062,24.4375,0.02734375,-0.03125,0.1621094,0.1503906,0.009765625,0,-0.02514648,-0.001586914,0.8272705,0,0,0.8272705,0.3500061,3.398,0,0,0,0,nan,4,0.178,1,0,0.780426,0.02505493,0.05621338,0.5382996,0.2998047,0.05566406,0,1,6,0
760.784,0.001026,0.2636719,-0.04492188,0.1601562,5.828125,-2.414062,-2.421875,0.01171875,0.01757812,0.1484375,0.1503906,0.009765625,0,-0.02514648,-0.001464844,0.8286133,0,0,0.8286133,0.3500061,3.398,0,0,0,0,nan,4,0.187,1,0,0.7450256,0.05957031,0.03259277,0.5627747,0.2998047,0.05566406,0,1,6,0
760.794,0.001017,0.109375,-0.2441406,0.1347656,5,-2.546875,-2.84375,0.0546875,-0.03320312,0.1484375,0.1503906,0.0078125,0,-0.02514648,-0.001342773,0.8300781,0,0,0.8300781,0.3500061,3.398,0,0,0,0,nan,4,0.197,1,0,0.7691956,0.06326294,0.04656982,0.5209656,0.2998047,0.05566406,0,1,6,0
760.804,0.000984,0.09375,-0.1699219,0.06054688,4.8125,1.84375,-0.2109375,0.01367188,-0.02734375,0.09375,0.1484375,0.009765625,0,-0.02490234,-0.001586914,0.8312988,0,0,0.8312988,0.3500061,3.398,0,0,0,0,nan,4,0.007,1,0,0.6488953,0.1593628,0,0.5917358,0.2998047,0.05566406,0,0.8733826,6,0
760.815,0.001043,0.001953125,0.06445312,0.1601562,-2.273438,1.132812,23.42188,-0.06835938,0.06054688,0.109375,0.1523438,0.005859375,0,-0.02539062,-0.0009765625,0.8321533,0,0,0.8321533,0.3500061,3.398,0,0,0,0,nan,4,0.017,1,0,0.7850037,0.01608276,0.05322266,0.5456848,0.2998047,0.05566406,0,1,6,0
760.825,0.00101,0.3144531,0.015625,0.1523438,-2.226562,1.953125,20.27344,0.09570312,-0.015625,0.1621094,0.1523438,0.005859375,0,-0.0255127,-0.0009765625,0.8336182,0,0,0.8336182,0.3500061,3.398,0,0,0,0,nan,4,0.027,1,0,0.7878418,0.03295898,0.1057739,0.4734192,0.2998047,0.05566406,0,1,6,0
760.835,0.00099,-0.06640625,-0.05273438,0.1171875,-0.359375,0.03125,12.50781,0.046875,-0.01757812,0.1621094,0.1503906,0.0078125,0,-0.02490234,-0.001464844,0.835083,0,0,0.835083,0.3500061,3.398,0,0,0,0,nan,4,0.037,1,0,0.7732239,0.03521729,0.05349731,0.5380554,0.2998047,0.05566406,0,1,6,0
760.845,0.001036,-0.01171875,-0.005859375,0.1015625,2.640625,2.46875,14.39062,-0.05859375,0.02148438,0.1308594,0.1523438,0.005859375,0,-0.0255127,-0.0008544922,0.8366699,0,0,0.8366699,0.3500061,3.398,0,0,0,0,nan,4,0.048,1,0,0.6993408,0.1118469,0,0.5888062,0.2998047,0.05566406,0,0.9347839,6,0
760.855,0.000981,0.1503906,-0.1015625,0.1894531,1.992188,-4.851562,0.5703125,0.0390625,-0.07421875,0.1523438,0.1523438,0.005859375,0,-0.0255127,-0.0008544922,0.8381348,0,0,0.8381348,0.3500061,3.398,0,0,0,0,nan,4,0.058,1,0,0.7828674,0.06542969,0.03335571,0.5183411,0.2998047,0.05566406,0,1,6,0
760.865,0.001022,0.1445312,-0.02539062,0.1894531,4.828125,-3.867188,-7.046875,0.015625,0.02148438,0.1621094,0.1503906,0.005859375,0,-0.02514648,-0.001098633,0.8397217,0,0,0.8397217,0.3500061,3.398,0,0,0,0,nan,4,0.068,1,0,0.7726135,0.02230835,0.06204224,0.5430298,0.2998047,0.05566406,0,1,6,0
760.875,0.001012,0.05078125,-0.1816406,0.1152344,6.523438,-2.820312,-0.3828125,0.00390625,0.009765625,0.140625,0.1523438,0.00390625,0,-0.02539062,-0.0007324219,0.8410645,0,0,0.8410645,0.3500061,3.398,0,0,0,0,nan,4,0.078,1,0,0.7544861,0.06582642,0.02786255,0.5518188,0.2998047,0.05566406,0,1,6,0
760.885,0.001011,-0.05859375,-0.1621094,0.078125,5.5,-2.84375,-3.078125,-0.02734375,-0.0390625,0.1191406,0.1542969,0.00390625,0,-0.02563477,-0.0004882812,0.8424072,0,0,0.8424072,0.3500061,3.396,0,0,0,0,nan,4,0.088,1,0,0.7223206,0.1095276,0,0.5681763,0.2998047,0.05566406,0,0.9388733,6,0
760.894,0.001004,-0.03320312,0,0.1464844,-5.945312,1.929688,18.99219,0.0546875,-0.03125,0.1289062,0.1503906,0.00390625,0,-0.02502441,-0.0007324219,0.8435059,0,0,0.8435059,0.3500061,3.396,0,0,0,0,nan,4,0.097,1,0,0.7635803,0.05374146,0.03289795,0.5497742,0.2998047,0.05566406,0,1,6,0
760.905,0.001047,0.009765625,0.2910156,0.1113281,-4.96875,7.523438,27.28906,-0.05078125,0.1113281,0.1367188,0.1503906,0.00390625,0,-0.02502441,-0.0006103516,0.8449707,0,0,0.8449707,0.3500061,3.396,0,0,0,0,nan,4,0.107,1,0,0.7311707,0.02920532,0.03118896,0.608429,0.2998047,0.05566406,0,1,6,0
760.915,0.001008,0.1054688,-0.4179688,0.2324219,6.132812,-4.414062,-3.890625,0.0390625,-0.08203125,0.1816406,0.1523438,0,0,-0.0255127,-0.0001220703,0.8464355,0,0,0.8464355,0.3500061,3.396,0,0,0,0,nan,4,0.117,1,0,0.8345642,0.0357666,0.07974243,0.4499512,0.2998047,0.05566406,0,1,6,0
760.925,0.001009,-0.1308594,-0.078125,0.2148438,2.648438,-4.648438,-2.585938,-0.01171875,-0.05859375,0.203125,0.1503906,0.00390625,0,-0.02490234,-0.0007324219,0.8485107,0,0,0.8485107,0.3500061,3.396,0,0,0,0,nan,4,0.127,1,0,0.811554,0.01217651,0.04269409,0.5335693,0.2998047,0.05566406,0,1,6,0
760.935,0.001008,-0.07226562,0.1269531,0.1972656,3.023438,-2.773438,-3.28125,-0.07226562,0.05859375,0.1777344,0.1503906,0.001953125,0,-0.02514648,-0.0003662109,0.8502197,0,0,0.8502197,0.3500061,3.396,0,0,0,0,nan,4,0.137,1,0,0.7738037,0.0145874,0.03942871,0.5721741,0.2998047,0.05566406,0,1,6,0
760.945,0.001007,0.09765625,-0.04492188,0.171875,2.429688,-2.898438,-5.742188,0.09765625,-0.0234375,0.1796875,0.1503906,0,0,-0.02502441,-0.0001220703,0.8520508,0,0,0.8520508,0.3500061,3.396,0,0,0,0,nan,4,0.147,1,0,0.7498169,0.07653809,0.04904175,0.5245972,0.2998047,0.05566406,0,1,6,0
760.955,0.001009,-0.2070312,0.02539062,0.1464844,2.5,-1.8125,-1.492188,-0.015625,-0.04882812,0.1582031,0.1464844,0.00390625,0,-0.02429199,-0.0007324219,0.8538818,0,0,0.8538818,0.3500061,3.396,0,0,0,0,nan,4,0.158,1,0,0.7267456,0.08184814,0,0.5914001,0.2998047,0.05566406,0,0.9449463,6,0
760.965,0.001008,-0.1835938,0.04101562,0.1855469,0.28125,-4.882812,2.6875,-0.09375,0.08398438,0.1503906,0.1484375,0,0,-0.02478027,0,0.8553467,0,0,0.8553467,0.3500061,3.396,0,0,0,0,nan,4,0.168,1,0,0.775238,0.01681519,0.03033447,0.5776062,0.2998047,0.05566406,0,1,6,0
760.975,0.001008,0.1875,0.04296875,0.2128906,1.179688,-1.226562,5.125,0.04296875,-0.04101562,0.1757812,0.1484375,0,0,-0.02478027,0,0.8570557,0,0,0.8570557,0.3500061,3.396,0,0,0,0,nan,4,0.178,1,0,0.793335,0.03070068,0.07406616,0.5019226,0.2998047,0.05566406,0,1,6,0
760.985,0.001004,0.046875,0.03515625,0.125,-1.890625,0.234375,5.382812,0.05078125,0.02539062,0.1445312,0.1445312,0.001953125,0,-0.02416992,-0.0002441406,0.8586426,0,0,0.8586426,0.3500061,3.396,0,0,0,0,nan,4,0.188,1,0,0.7062988,0.08288574,0.01187134,0.598938,0.2998047,0.05566406,0,1,6,0
760.994,0.001022,-0.009765625,-0.04492188,0.06640625,-1.359375,1.828125,20.89844,0,0.0234375,0.125,0.1464844,0,0,-0.02453613,0,0.8598633,0,0,0.8598633,0.3500061,3.396,0,0,0,0,nan,4,0.004,1,0,0.7023621,0.1055603,0,0.5920715,0.2998047,0.05566406,0,0.9750061,6,0
761.004,0.001016,-0.005859375,-0.05664062,0.109375,-1.179688,2.03125,18.65625,0.04492188,-0.06054688,0.1074219,0.1445312,0.001953125,0,-0.02429199,-0.0002441406,0.861084,0,0,0.861084,0.3500061,3.396,0,0,0,0,nan,4,0.014,1,0,0.7125854,0.1196289,0,0.5678101,0.2998047,0.05566406,0,0.9545898,6,0
761.015,0.001016,-0.1582031,0.1757812,0.2050781,0.03125,-0.7578125,8.234375,-0.07617188,0.07226562,0.1777344,0.1445312,0.001953125,0,-0.02429199,-0.0002441406,0.8626709,0,0,0.8626709,0.3500061,3.396,0,0,0,0,nan,4,0.024,1,0,0.7634583,0,0.1126404,0.5238953,0.2998047,0.05566406,0,0.8949585,6,0
761.025,0.001016,0.1445312,0.171875,0.1191406,-2.695312,1.953125,11.78906,-0.02929688,0.08984375,0.1503906,0.1503906,-0.001953125,0,-0.02502441,0.0003662109,0.8642578,0,0,0.8642578,0.3500061,3.396,0,0,0,0,nan,4,0.034,1,0,0.7189636,0.0642395,0.0329895,0.5838013,0.2998047,0.05566406,0,1,6,0
761.035,0.001016,-0.02148438,-0.1445312,0.1308594,-0.921875,1.148438,11.28125,0.05859375,-0.08984375,0.1640625,0.1484375,0,0,-0.0246582,0.0001220703,0.8659668,0,0,0.8659668,0.3500061,3.396,0,0,0,0,nan,4,0.044,1,0,0.770752,0.07763672,0.01898193,0.5326233,0.2998047,0.05566406,0,1,6,0
761.045,0.001019,-0.2890625,0.09765625,0.1210938,-2.992188,-0.9765625,12.92188,-0.09179688,0.06445312,0.1386719,0.1464844,0,0,-0.02453613,0,0.8674316,0,0,0.8674316,0.3500061,3.396,0,0,0,0,nan,4,0.055,1,0,0.7118225,0.0602417,0,0.6278992,0.2998047,0.05566406,0,0.9538269,6,0
761.055,0.001015,0.09765625,-0.0234375,0.1464844,-1.929688,1.1875,12.61719,-0.01367188,-0.0078125,0.1425781,0.1523438,-0.00390625,0,-0.02539062,0.0007324219,0.8688965,0,0,0.8688965,0.3500061,3.396,0,0,0,0,nan,4,0.065,1,0,0.756012,0.08016968,0.02111816,0.5426941,0.2998047,0.05566406,0,1,6,0
761.065,0.001013,0.1582031,0.1015625,0.1699219,-2.445312,2.265625,8.84375,0.1269531,-0.03710938,0.1582031,0.1484375,0,0,-0.0246582,-0.0001220703,0.8703613,0,0,0.8703613,0.3500061,3.396,0,0,0,0,nan,4,0.075,1,0,0.7671204,0.03353882,0.09402466,0.5053101,0.2998047,0.05566406,0,1,6,0.1904762
761.075,0.001016,-0.1777344,0.0546875,0.1269531,-2.234375,1.070312,14.66406,-0.0703125,0.04296875,0.1484375,0.1464844,0.001953125,0,-0.02453613,-0.0002441406,0.8718262,0,0,0.8718262,0.3500061,3.396,0,0,0,0,nan,4,0.085,1,0,0.7640991,0.02264404,0.01867676,0.594574,0.2998047,0.05566406,0,1,6,0
761.085,0.001016,-0.1464844,-0.2109375,0.1367188,-2.929688,-1.476562,8.179688,-0.0625,-0.04882812,0.125,0.1503906,-0.001953125,0,-0.02526855,0.0004882812,0.8731689,0,0,0.8731689,0.3500061,3.396,0,0,0,0,nan,4,0.095,1,0,0.7306824,0.1146545,0,0.554657,0.2998047,0.05566406,0,0.9246521,6,0
761.095,0.001016,-0.01171875,0.06835938,0.2421875,-3.132812,-0.015625,11.13281,0.02929688,-0.046875,0.1953125,0.1484375,0,0,-0.0246582,-0.0001220703,0.8748779,0,0,0.8748779,0.3500061,3.396,0,0,0,0,nan,4,0.105,1,0,0.8065186,0,0.1199951,0.4734802,0.2998047,0.05566406,0,0.931488,6,0
761.104,0.001004,-0.03320312,0.15625,0.2226562,-1.90625,-2.625,13.79688,-0.07421875,0.08789062,0.2304688,0.1484375,-0.001953125,0,-0.02478027,0.0001220703,0.8769531,0,0,0.8769531,0.3500061,3.396,0,0,0,0,nan,4,0.114,1,0,0.7662964,0,0.1120911,0.521637,0.2998047,0.05566406,0,0.907959,6,0
761.115,0.001008,-0.1542969,-0.1054688,0.1679688,-4.328125,1.085938,22.92188,-0.005859375,-0.05273438,0.1835938,0.1503906,-0.001953125,0,-0.02514648,0.0003662109,0.8790283,0,0,0.8790283,0.3500061,3.396,0,0,0,0,nan,4,0.124,1,0,0.7309265,0.1071777,0,0.5618896,0.2998047,0.05566406,0,0.9618225,6,0
761.125,0.001009,-0.0859375,0.3320312,0.1386719,-4.46875,5.570312,26.30469,0.01757812,0.001953125,0.1542969,0.1484375,0.001953125,0,-0.0246582,-0.0002441406,0.8808594,0,0,0.8808594,0.3500061,3.396,0,0,0,0,nan,4,0.134,1,0,0.6869507,0.09378052,0,0.6192627,0.2998047,0.05566406,0,0.9682922,6,0
761.135,0.001008,-0.09765625,0.234375,0.1425781,-4.8125,4.617188,30.98438,-0.08203125,0.1113281,0.1660156,0.1503906,-0.001953125,0,-0.02502441,0.0002441406,0.8824463,0,0,0.8824463,0.3500061,3.396,0,0,0,0,nan,4,0.144,1,0,0.7532349,0.01412964,0.04296875,0.5896301,0.2998047,0.05566406,0,1,6,0
761.145,0.001015,-0.02539062,-0.05273438,0.171875,-7.265625,6.117188,26.94531,0.04492188,-0.02148438,0.1699219,0.1523438,-0.00390625,0,-0.02539062,0.0007324219,0.8841553,0,0,0.8841553,0.3500061,3.396,0,0,0,0,nan,4,0.155,1,0,0.7695312,0.06420898,0.04690552,0.5193176,0.2998047,0.05566406,0,1,6,0
761.155,0.001011,-0.08398438,0.328125,0.1367188,-3.273438,1.273438,27.10156,0.005859375,-0.01953125,0.1679688,0.1503906,0,0,-0.02490234,-0.0001220703,0.8861084,0,0,0.8861084,0.3500061,3.396,0,0,0,0,nan,4,0.165,1,0,0.7301025,0.059021,0.008300781,0.6026001,0.2998047,0.05566406,0,1,6,0
761.165,0.001005,-0.02734375,0.1835938,0.1796875,-5.1875,2.78125,26.48438,-0.0859375,0.08007812,0.1777344,0.1523438,-0.00390625,0,-0.0255127,0.0006103516,0.8876953,0,0,0.8876953,0.3500061,3.396,0,0,0,0,nan,4,0.175,1,0,0.787262,0.0003967285,0.05856323,0.5538025,0.2998047,0.05566406,0,1,6,0
761.175,0.001026,0.1875,-0.03710938,0.1601562,-3.070312,3.765625,22.67188,0.07421875,-0.03710938,0.1972656,0.1542969,-0.00390625,0,-0.02563477,0.0006103516,0.8896484,0,0,0.8896484,0.3500061,3.396,0,0,0,0,nan,4,0.185,1,0,0.7755432,0.05450439,0.07104492,0.4989014,0.2998047,0.05566406,0,1,6,0
761.185,0.000997,-0.140625,0.03710938,0.2148438,0.796875,1.421875,16.73438,-0.00390625,-0.02148438,0.2167969,0.1523438,-0.001953125,0,-0.02539062,0.0003662109,0.8917236,0,0,0.8917236,0.3500061,3.396,0,0,0,0,nan,4,0.195,1,0,0.809906,0.003326416,0.06576538,0.5209961,0.2998047,0.05566406,0,1,6,0
761.194,0.001027,-0.2460938,-0.04296875,0.1933594,0.40625,-2.140625,-4.460938,-0.1054688,0.0390625,0.1933594,0.1542969,-0.00390625,0,-0.02575684,0.0007324219,0.8936768,0,0,0.8936768,0.3500061,3.396,0,0,0,0,nan,4,0.204,1,0,0.7427673,0.0569458,0,0.6002808,0.2998047,0.05566406,0,0.9732971,6,0
761.204,0.001008,0.1777344,-0.06835938,0.21875,3.328125,-1.140625,-4.007812,0.04296875,-0.04101562,0.1972656,0.15625,-0.00390625,0,-0.02600098,0.0007324219,0.8955078,0,0,0.8955078,0.3500061,3.396,0,0,0,0,nan,4,0.009,1,0,0.7756348,0.05065918,0.06060791,0.5131226,0.2998047,0.05566406,0,1,6,0
761.215,0.001016,-0.06640625,0.00390625,0.1445312,3.242188,-3.632812,-2.65625,0.009765625,-0.005859375,0.1816406,0.1542969,-0.001953125,0,-0.0255127,0.0004882812,0.8974609,0,0,0.8974609,0.3500061,3.396,0,0,0,0,nan,4,0.019,1,0,0.7552185,0.04934692,0.02334595,0.5720825,0.2998047,0.05566406,0,1,6,0
761.225,0.001016,0.0625,-0.1484375,0.1816406,3.601562,-1.59375,3.695312,0,-0.04101562,0.1835938,0.1542969,-0.00390625,0,-0.02575684,0.0007324219,0.8994141,0,0,0.8994141,0.3500061,3.396,0,0,0,0,nan,4,0.029,1,0,0.7655945,0.07073975,0.01544189,0.5482483,0.2998047,0.05566406,0,1,6,0
761.235,0.001016,0.1992188,-0.01757812,0.28125,6.765625,-2.242188,1.421875,0.0546875,-0.015625,0.2148438,0.1523438,-0.00390625,0,-0.0255127,0.0004882812,0.9013672,0,0,0.9013672,0.3500061,3.396,0,0,0,0,nan,4,0.039,1,0,0.809021,0,0.107605,0.4833679,0.2998047,0.05566406,0,0.9888,6,0
761.245,0.001016,0.06445312,-0.1132812,0.2128906,5.273438,-4.375,-2.1875,-0.00390625,0.046875,0.2167969,0.1523438,-0.005859375,0,-0.02539062,0.0008544922,0.9035645,0,0,0.9035645,0.3500061,3.396,0,0,0,0,nan,4,0.049,1,0,0.7791443,0.01812744,0.06246948,0.5402222,0.2998047,0.05566406,0,1,6,0
761.255,0.001016,0.06835938,-0.234375,0.1914062,6.828125,-2.140625,-2.625,0.02539062,-0.06054688,0.2070312,0.1523438,-0.005859375,0,-0.02539062,0.0009765625,0.9055176,0,0,0.9055176,0.3500061,3.396,0,0,0,0,nan,4,0.06,1,0,0.7948914,0.05096436,0.04086304,0.5132751,0.2998047,0.05566406,0,1,6,0
761.265,0.000995,0.0234375,0.01953125,0.2109375,2.804688,-1.835938,-3.859375,0.001953125,0.03320312,0.1757812,0.1523438,-0.005859375,0,-0.02526855,0.0009765625,0.9074707,0,0,0.9074707,0.3500061,3.396,0,0,0,0,nan,4,0.07,1,0,0.7407837,0.05258179,0.02679443,0.5798645,0.2998047,0.05566406,0,1,6,0
761.275,0.001016,0.09570312,-0.2265625,0.2578125,2.765625,-3.40625,-3.273438,0.0078125,0.001953125,0.2226562,0.1523438,-0.0078125,0,-0.0255127,0.001342773,0.9094238,0,0,0.9094238,0.3500061,3.396,0,0,0,0,nan,4,0.08,1,0,0.8213196,0,0.1020813,0.4766235,0.2998047,0.05566406,0,0.9877014,6,0
761.285,0.001016,-0.009765625,-0.02929688,0.2226562,-0.1328125,-2.234375,-1.84375,0.0234375,-0.0625,0.2167969,0.1523438,-0.005859375,0,-0.0255127,0.001098633,0.9116211,0,0,0.9116211,0.3500061,3.396,0,0,0,0,nan,4,0.09,1,0,0.7851257,0.04949951,0.04351807,0.5218506,0.2998047,0.05566406,0,1,6,0
761.294,0.001038,-0.07421875,0.2109375,0.2207031,-0.6328125,-0.7734375,17.51562,-0.04492188,0.01367188,0.2128906,0.1523438,-0.005859375,0,-0.0255127,0.0009765625,0.9136963,0,0,0.9136963,0.3500061,3.396,0,0,0,0,nan,4,0.099,1,0,0.7619019,0.02865601,0.0295105,0.5799255,0.2998047,0.05566406,0,1,6,0
761.304,0.001009,0.046875,-0.15625,0.2148438,0.5703125,-2.515625,8.054688,0.01367188,-0.01757812,0.2128906,0.1542969,-0.0078125,0,-0.02563477,0.001220703,0.9157715,0,0,0.9157715,0.3500061,3.396,0,0,0,0,nan,4,0.109,1,0,0.7964783,0.02932739,0.06362915,0.5105286,0.2998047,0.05566406,0,1,6,0
761.315,0.001008,-0.1660156,0.25,0.25,-5.546875,4.65625,22.76562,-0.03125,-0.015625,0.2382812,0.1523438,-0.005859375,0,-0.0255127,0.0008544922,0.9180908,0,0,0.9180908,0.3500061,3.396,0,0,0,0,nan,4,0.119,1,0,0.7967529,0,0.08432007,0.5189209,0.2998047,0.05566406,0,0.9620361,6,0
761.325,0.001009,-0.01757812,0.1367188,0.2089844,-4.960938,5.453125,32.51562,-0.01367188,0.08007812,0.2597656,0.1542969,-0.0078125,0,-0.02575684,0.001220703,0.9205322,0,0,0.9205322,0.3500061,3.396,0,0,0,0,nan,4,0.129,1,0,0.7701416,0,0.1075745,0.5222778,0.2998047,0.05566406,0,0.9602966,6,0
761.335,0.001008,0.08007812,-0.2011719,0.1933594,-2.40625,3.132812,21.77344,0.08203125,-0.1113281,0.2382812,0.1523438,-0.005859375,0,-0.0255127,0.0008544922,0.9230957,0,0,0.9230957,0.3500061,3.396,0,0,0,0,nan,4,0.139,1,0,0.7646484,0.09518433,0.01916504,0.5209961,0.2998047,0.05566406,0,1,6,0
761.345,0.001009,-0.04882812,0.2148438,0.2519531,-1.0625,-1.617188,7.085938,-0.06835938,0.08984375,0.2304688,0.1542969,-0.005859375,0,-0.02575684,0.0009765625,0.9255371,0,0,0.9255371,0.3500061,3.396,0,0,0,0,nan,4,0.149,1,0,0.7526245,0.01351929,0.04208374,0.5917664,0.2998047,0.05566406,0,1,6,0
761.355,0.001008,0.08984375,-0.2910156,0.2558594,3.929688,-1.742188,0.375,0.01171875,-0.015625,0.2246094,0.1582031,-0.0078125,0,-0.02624512,0.001464844,0.9277344,0,0,0.9277344,0.3500061,3.396,0,0,0,0,nan,4,0.16,1,0,0.796051,0.03912354,0.06158447,0.5032654,0.2998047,0.05566406,0,1,6,0
761.365,0.001004,0.078125,0.02148438,0.2675781,7.015625,-2.804688,3.179688,0.0390625,-0.0703125,0.2402344,0.15625,-0.005859375,0,-0.02587891,0.0009765625,0.9300537,0,0,0.9300537,0.3500061,3.396,0,0,0,0,nan,4,0.17,1,0,0.8273621,0.001037598,0.08892822,0.482666,0.2998047,0.05566406,0,1,6,0
761.375,0.001007,-0.03710938,-0.2695312,0.2109375,6.664062,-4.007812,-5.085938,-0.009765625,-0.001953125,0.234375,0.1542969,-0.005859375,0,-0.02575684,0.001098633,0.9324951,0,0,0.9324951,0.3500061,3.396,0,0,0,0,nan,4,0.18,1,0,0.7763367,0.03744507,0.0362854,0.5499268,0.2998047,0.05566406,0,1,6,0
761.385,0.001007,0.08984375,-0.1230469,0.2109375,2.0625,-3.859375,-4.742188,0.03710938,-0.04101562,0.2285156,0.1542969,-0.005859375,0,-0.02563477,0.001098633,0.9346924,0,0,0.9346924,0.3500061,3.396,0,0,0,0,nan,4,0.19,1,0,0.7837219,0.04949951,0.04437256,0.5223999,0.2998047,0.05566406,0,1,6,0
761.395,0.00099,-0.1914062,0.06445312,0.1757812,-1.429688,-0.9453125,4.445312,-0.04101562,0.03320312,0.1679688,0.1523438,-0.005859375,0,-0.0255127,0.0008544922,0.9367676,0,0,0.9367676,0.3500061,3.396,0,0,0,0,nan,4,0.2,1,0,0.6992798,0.08227539,0,0.6184387,0.2998047,0.05566406,0,0.9566956,6,0
761.404,0.000972,0.1425781,-0.0234375,0.1660156,3.773438,-0.390625,11.53906,-0.04101562,0.04882812,0.1582031,0.15625,-0.0078125,0,-0.02587891,0.001342773,0.9382324,0,0,0.9382324,0.3500061,3.396,0,0,0,0,nan,4,0.209,1,0,0.7376709,0.06298828,0.01870728,0.5806274,0.2998047,0.05566406,0,1,6,0
761.414,0.001014,-0.1367188,0.125,0.2753906,-7.179688,5.617188,26.32031,0.009765625,-0.0390625,0.25,0.15625,-0.0078125,0,-0.02587891,0.001220703,0.9404297,0,0,0.9404297,0.3500061,3.396,0,0,0,0,nan,4,0.219,1,0,0.8078308,0,0.1536255,0.4385681,0.2998047,0.05566406,0,0.885498,6,0
761.425,0.001014,-0.1015625,0.1777344,0.1503906,-4.992188,6.398438,26.90625,-0.05664062,0.07226562,0.2011719,0.1542969,-0.005859375,0,-0.02575684,0.0009765625,0.942627,0,0,0.942627,0.3500061,3.396,0,0,0,0,nan,4,0.229,1,0,0.73526,0.03033447,0.02124023,0.6131897,0.2998047,0.05566406,0,1,6,0
761.435,0.001014,-0.05273438,0,0.2246094,0.6015625,-2.75,18.625,-0.05078125,0.00390625,0.2128906,0.1582031,-0.009765625,0,-0.02648926,0.001464844,0.9445801,0,0,0.9445801,0.3500061,3.396,0,0,0,0,nan,4,0.239,1,0,0.8130188,0.01266479,0.06542969,0.5088806,0.2998047,0.05566406,0,1,6,0
761.445,0.001014,0.1640625,0.06445312,0.2324219,0.8203125,-0.390625,4.953125,0.07617188,-0.01757812,0.2265625,0.1582031,-0.0078125,0,-0.02624512,0.001342773,0.9468994,0,0,0.9468994,0.3500061,3.396,0,0,0,0,nan,4,0.249,1,0,0.7660522,0.04071045,0.06903076,0.524231,0.2998047,0.05566406,0,1,6,0
761.455,0.001017,0.08984375,-0.3964844,0.1054688,2.007812,-1.328125,-4.4375,0.0234375,-0.046875,0.1503906,0.15625,-0.0078125,0,-0.02587891,0.001098633,0.9488525,0,0,0.9488525,0.3500061,3.396,0,0,0,0,nan,4,0.26,1,0,0.6524048,0.1638794,0,0.5837402,0.2998047,0.05566406,0,0.8685303,6,0
761.465,0.001011,0.1035156,-0.04492188,0.1640625,4.976562,-2.132812,-3.453125,0.02148438,-0.03125,0.1367188,0.15625,-0.0078125,0,-0.02612305,0.001220703,0.9500732,0,0,0.9500732,0.3500061,3.396,0,0,0,0,nan,4,0.27,1,0,0.7559509,0.07235718,0.02593994,0.5457458,0.2998047,0.05566406,0,1,6,0
761.475,0.000974,-0.009765625,-0.06835938,0.1640625,5.242188,-1.195312,-3.585938,-0.01953125,-0.001953125,0.1289062,0.15625,-0.005859375,0,-0.02587891,0.001098633,0.951416,0,0,0.951416,0.3500061,3.396,0,0,0,0,nan,4,0.007,1,0,0.7522278,0.05178833,0.01303101,0.5829468,0.2998047,0.05566406,0,1,6,0
761.485,0.000983,0.0703125,-0.1601562,0.1445312,2.421875,-3.6875,-0.546875,0.04101562,-0.00390625,0.1171875,0.15625,-0.0078125,0,-0.02612305,0.001342773,0.9525146,0,0,0.9525146,0.3500061,3.396,0,0,0,0,nan,4,0.017,1,0,0.7529297,0.0690918,0.04046631,0.5375061,0.2998047,0.05566406,0,1,6,0
761.495,0.001011,-0.1699219,-0.00390625,0.1308594,-0.671875,-3.484375,-0.9375,-0.03125,-0.05859375,0.1425781,0.15625,-0.0078125,0,-0.02612305,0.001342773,0.9539795,0,0,0.9539795,0.3500061,3.396,0,0,0,0,nan,4,0.027,1,0,0.7861633,0.05010986,0.01345825,0.550293,0.2998047,0.05566406,0,1,6,0
761.504,0.001009,-0.1386719,0.08398438,0.0859375,-1.054688,-1.84375,16.78125,-0.0234375,-0.01757812,0.109375,0.15625,-0.0078125,0,-0.02587891,0.001220703,0.9552002,0,0,0.9552002,0.3500061,3.396,0,0,0,0,nan,4,0.036,1,0,0.6812744,0.1165161,0,0.6022034,0.2998047,0.05566406,0,0.9077759,6,0
761.514,0.000976,0.009765625,0.1835938,0.140625,-3.453125,1.046875,16.01562,-0.009765625,0.04882812,0.1347656,0.1582031,-0.0078125,0,-0.02636719,0.001220703,0.9562988,0,0,0.9562988,0.3500061,3.396,0,0,0,0,nan,4,0.046,1,0,0.7659607,0.01922607,0.07217407,0.5426331,0.2998047,0.05566406,0,1,6,0
761.525,0.001009,-0.04296875,0.06054688,0.046875,-5.507812,3.265625,23.33594,0.02929688,0.01757812,0.08789062,0.1582031,-0.0078125,0,-0.02648926,0.001342773,0.9575195,0,0,0.9575195,0.3500061,3.396,0,0,0,0,nan,4,0.057,1,0,0.6720886,0.1241455,0,0.6037598,0.2998047,0.05566406,0,0.9552917,6,0
761.535,0.001009,-0.1484375,0.09375,0.08789062,-4.726562,1.273438,32.22656,-0.009765625,0.015625,0.09960938,0.1582031,-0.005859375,0,-0.02636719,0.001098633,0.958374,0,0,0.958374,0.3500061,3.399,0,0,0,0,nan,4,0.067,1,0,0.7468262,0.05007935,0.02288818,0.5802002,0.2998047,0.05566406,0,1,6,0
761.545,0.001009,0,0.1113281,0.07617188,-5.84375,1.851562,27.89844,-0.03125,0,0.08789062,0.1621094,-0.0078125,0,-0.02685547,0.001464844,0.9594727,0,0,0.9594727,0.3500061,3.399,0,0,0,0,nan,4,0.077,1,0,0.6812439,0.1292419,0,0.5895386,0.2998047,0.05566406,0,0.9226074,6,0
761.555,0.001005,0.2128906,0.1230469,0.1875,-2.242188,4.070312,23.54688,0.08007812,0.0078125,0.1464844,0.1601562,-0.009765625,0,-0.02661133,0.001464844,0.9605713,0,0,0.9605713,0.3500061,3.399,0,0,0,0,nan,4,0.087,1,0,0.8015137,0,0.1209717,0.4775085,0.2998047,0.05566406,0,0.9940491,6,0
761.565,0.001007,0.0078125,0.07421875,0.1113281,3.03125,0.9140625,17.82812,0.015625,0.00390625,0.1425781,0.1582031,-0.0078125,0,-0.02624512,0.001342773,0.9620361,0,0,0.9620361,0.3500061,3.399,0,0,0,0,nan,4,0.097,1,0,0.7726746,0.03079224,0.04681396,0.5497437,0.2998047,0.05566406,0,1,6,0
761.575,0.001008,-0.0546875,-0.06835938,0.08007812,1.304688,-1.242188,10.625,-0.04296875,-0.005859375,0.1191406,0.1582031,-0.009765625,0,-0.02648926,0.001586914,0.9633789,0,0,0.9633789,0.3500061,3.399,0,0,0,0,nan,4,0.107,1,0,0.7090149,0.1030884,0,0.5878906,0.2998047,0.05566406,0,0.9354858,6,0
761.585,0.001009,0.234375,0,0.1347656,3.5,-2.554688,-0.359375,0.03125,0.001953125,0.1191406,0.1601562,-0.009765625,0,-0.02661133,0.001586914,0.9645996,0,0,0.9645996,0.3500061,3.399,0,0,0,0,nan,4,0.117,1,0,0.7262878,0.0821228,0.02297974,0.5686035,0.2998047,0.05566406,0,1,6,0
761.595,0.000993,0.009765625,-0.05273438,0.1699219,3.898438,-1.835938,-3.210938,0.02148438,-0.009765625,0.1445312,0.1582031,-0.009765625,0,-0.02636719,0.001464844,0.9659424,0,0,0.9659424,0.3500061,3.399,0,0,0,0,nan,4,0.127,1,0,0.7791748,0.0307312,0.05340576,0.5366516,0.2998047,0.05566406,0,1,6,0
761.604,0.001011,-0.1152344,-0.01757812,0.1542969,-2.96875,1.78125,17.80469,0,0.001953125,0.1582031,0.1582031,-0.009765625,0,-0.02648926,0.001708984,0.9674072,0,0,0.9674072,0.3500061,3.399,0,0,0,0,nan,4,0.136,1,0,0.7723083,0.04040527,0.04104614,0.5462646,0.2998047,0.05566406,0,1,6,0
761.615,0.001002,0.06835938,-0.09960938,0.1816406,5.992188,-1.3125,-0.7734375,-0.005859375,-0.02148438,0.1601562,0.1582031,-0.0078125,0,-0.02636719,0.001464844,0.9688721,0,0,0.9688721,0.3500061,3.399,0,0,0,0,nan,4,0.146,1,0,0.776123,0.03466797,0.04110718,0.5480652,0.2998047,0.05566406,0,1,6,0
761.625,0.001048,0.03710938,0.001953125,0.1269531,2.414062,-4.914062,-3.984375,0.015625,0.02539062,0.1386719,0.1582031,-0.009765625,0,-0.02648926,0.001464844,0.970459,0,0,0.970459,0.3500061,3.399,0,0,0,0,nan,4,0.002,1,0,0.7255859,0.07022095,0.02191162,0.5822449,0.2998047,0.05566406,0,1,6,0
761.635,0.001016,-0.1484375,-0.1679688,0.08398438,0.8984375,-4.617188,-2.757812,-0.02539062,-0.04492188,0.09570312,0.1582031,-0.009765625,0,-0.02648926,0.001464844,0.9715576,0,0,0.9715576,0.3500061,3.399,0,0,0,0,nan,4,0.012,1,0,0.6799927,0.1373291,0,0.5827026,0.2998047,0.05566406,0,0.8887329,6,0
761.645,0.001024,-0.0859375,0.1328125,0.1484375,-2.1875,-0.5625,14.84375,-0.009765625,0.02929688,0.1074219,0.1582031,-0.0078125,0,-0.02636719,0.001464844,0.9726562,0,0,0.9726562,0.3500061,3.399,0,0,0,0,nan,4,0.022,1,0,0.7373047,0.05166626,0.01977539,0.5912476,0.2998047,0.05566406,0,1,6,0
761.655,0.00102,0.03710938,0.1445312,0.125,-5.640625,3.65625,19.38281,0.009765625,0.03515625,0.1289062,0.1601562,-0.009765625,0,-0.0267334,0.001586914,0.973877,0,0,0.973877,0.3500061,3.399,0,0,0,0,nan,4,0.032,1,0,0.7565918,0.03845215,0.05859375,0.5463257,0.2998047,0.05566406,0,1,6,0
761.665,0.001017,-0.1035156,0.01757812,0.078125,-6.875,3.5,28.53906,0.005859375,-0.001953125,0.1152344,0.1601562,-0.009765625,0,-0.02661133,0.001586914,0.9750977,0,0,0.9750977,0.3500061,3.399,0,0,0,0,nan,4,0.042,1,0,0.7445679,0.065979,0.01605225,0.5734253,0.2998047,0.05566406,0,1,6,0
761.675,0.001014,-0.2128906,0.08398438,0.07421875,-3.460938,3.171875,27.82031,-0.04492188,0.02929688,0.1074219,0.1601562,-0.009765625,0,-0.02685547,0.001708984,0.9761963,0,0,0.9761963,0.3500061,3.399,0,0,0,0,nan,4,0.052,1,0,0.7106323,0.08618164,0,0.6031799,0.2998047,0.05566406,0,0.9591064,6,0
761.685,0.001002,0.04492188,0.2246094,0.1308594,-5.960938,4.140625,29.04688,-0.01367188,0.01171875,0.1132812,0.1601562,-0.01171875,0,-0.02685547,0.001953125,0.977417,0,0,0.977417,0.3500061,3.399,0,0,0,0,nan,4,0.063,1,0,0.7385864,0.06567383,0.009857178,0.5858765,0.2998047,0.05566406,0,1,6,0
761.695,0.001016,0.1835938,0.1308594,0.1757812,-2.90625,3.070312,27.92188,0.0625,0.001953125,0.1601562,0.1601562,-0.01171875,0,-0.0267334,0.001953125,0.9788818,0,0,0.9788818,0.3500061,3.399,0,0,0,0,nan,4,0.073,1,0,0.7954407,0.008758545,0.1047668,0.4910583,0.2998047,0.05566406,0,1,6,0
761.704,0.001004,0.01367188,-0.1464844,0.1914062,7.390625,-4.804688,-3.804688,0.01367188,0.0234375,0.171875,0.1601562,-0.01171875,0,-0.02661133,0.002075195,0.9803467,0,0,0.9803467,0.3500061,3.399,0,0,0,0,nan,4,0.082,1,0,0.7837219,0.0161438,0.06808472,0.532074,0.2998047,0.0546875,0,1,6,0
761.714,0.001009,-0.04296875,0.046875,0.1054688,0.1875,-2.992188,15.92969,-0.01171875,0.001953125,0.125,0.1601562,-0.01367188,0,-0.02648926,0.002197266,0.9818115,0,0,0.9818115,0.3500061,3.399,0,0,0,0,nan,4,0.092,1,0,0.7035217,0.1051331,0,0.5913391,0.2998047,0.0546875,0,0.9484863,6,0
761.725,0.001009,0.1601562,0.04101562,0.1445312,-1.476562,1.179688,11.34375,0.04882812,-0.02148438,0.1269531,0.1582031,-0.01367188,0,-0.02636719,0.002197266,0.9830322,0,0,0.9830322,0.3500061,3.399,0,0,0,0,nan,4,0.102,1,0,0.739502,0.07452393,0.02719116,0.5588074,0.2998047,0.0546875,0,1,6,0
761.735,0.001009,0.02929688,-0.05273438,0.1152344,1.960938,-3.476562,4.890625,-0.009765625,0.01367188,0.1386719,0.1582031,-0.01171875,0,-0.02624512,0.002075195,0.9844971,0,0,0.9844971,0.3500061,3.399,0,0,0,0,nan,4,0.112,1,0,0.7582703,0.04354858,0.03112793,0.5670471,0.2998047,0.0546875,0,1,6,0
761.745,0.001009,0.07226562,-0.234375,0.2070312,4.75,-1.53125,11.5625,0.046875,-0.0703125,0.1582031,0.1582031,-0.01367188,0,-0.02636719,0.002319336,0.9858398,0,0,0.9858398,0.3500061,3.399,0,0,0,0,nan,4,0.122,1,0,0.8178711,0.03250122,0.07342529,0.4762268,0.2998047,0.0546875,0,1,6,0
761.755,0.001005,0.03515625,0.06054688,0.1855469,2.5,-6.203125,1.210938,0.0078125,-0.02929688,0.1914062,0.15625,-0.01171875,0,-0.02587891,0.001831055,0.987793,0,0,0.987793,0.3500061,3.399,0,0,0,0,nan,4,0.132,1,0,0.7731323,0.0328064,0.03637695,0.5577087,0.2998047,0.0546875,0,1,6,0
761.765,0.000983,0.1308594,-0.1757812,0.15625,5.0625,-2.695312,-4.257812,-0.001953125,0.01171875,0.1660156,0.15625,-0.01171875,0,-0.02600098,0.002075195,0.989502,0,0,0.989502,0.3500061,3.399,0,0,0,0,nan,4,0.142,1,0,0.7497559,0.06045532,0.02670288,0.5630798,0.2998047,0.0546875,0,1,6,0
761.775,0.001009,0.046875,-0.2011719,0.1386719,4.445312,1.007812,-3.296875,0.05664062,-0.01757812,0.1503906,0.15625,-0.01367188,0,-0.02600098,0.002197266,0.9910889,0,0,0.9910889,0.3500061,3.399,0,0,0,0,nan,4,0.152,1,0,0.7392273,0.08493042,0.02484131,0.5509644,0.2998047,0.0546875,0,1,6,0
761.784,0.001016,-0.2539062,0.04296875,0.1171875,-3.554688,4.09375,26.46094,-0.05664062,-0.01757812,0.1328125,0.15625,-0.01171875,0,-0.02612305,0.002075195,0.9924316,0,0,0.9924316,0.3500061,3.399,0,0,0,0,nan,4,0.162,1,0,0.7310791,0.0763855,0,0.5925293,0.2998047,0.0546875,0,0.9615173,6,0
761.794,0.001053,-0.1269531,0.09960938,0.1113281,-3.46875,4.140625,25.78125,-0.0703125,0.01171875,0.1308594,0.1601562,-0.01367188,0,-0.02661133,0.002319336,0.9938965,0,0,0.9938965,0.3500061,3.399,0,0,0,0,nan,4,0.172,1,0,0.7308655,0.07409668,0,0.5950623,0.2998047,0.0546875,0,0.9815979,6,0
761.804,0.001019,0.2089844,0.1835938,0.1347656,-6.328125,6.570312,31.85938,0.08984375,-0.01367188,0.1464844,0.1582031,-0.01171875,0,-0.02648926,0.002075195,0.9953613,0,0,0.9953613,0.3500061,3.399,0,0,0,0,nan,4,0.182,1,0,0.7373657,0.0642395,0.06015015,0.5382385,0.2998047,0.0546875,0,1,6,0
761.814,0.001016,-0.04492188,-0.08203125,0.08203125,3.78125,-1.476562,-3.648438,-0.0390625,0.0234375,0.08398438,0.1582031,-0.01367188,0,-0.02636719,0.002197266,0.9963379,0,0,0.9963379,0.3500061,3.399,0,0,0,0,nan,4,0.008,1,0,0.6701355,0.1224976,0,0.6073608,0.2998047,0.0546875,0,0.9027405,6,0
761.825,0.001016,-0.01953125,-0.1191406,0.1347656,1.085938,-5.328125,-2.734375,-0.0390625,-0.03125,0.1015625,0.1621094,-0.01367188,0,-0.02685547,0.002441406,0.9973145,0,0,0.9973145,0.3500061,3.399,0,0,0,0,nan,4,0.018,1,0,0.7703552,0.06170654,0.01211548,0.5558167,0.2998047,0.0546875,0,1,6,0
761.835,0.000997,0.046875,-0.05859375,0.2128906,5.84375,-3.304688,-3.257812,0.005859375,-0.0546875,0.1660156,0.1601562,-0.01367188,0,-0.02661133,0.002319336,0.9986572,0,0,0.9986572,0.3500061,3.399,0,0,0,0,nan,4,0.028,1,0,0.8230286,0,0.103363,0.4736328,0.2998047,0.0546875,0,0.9624023,6,0
761.845,0.00102,-0.109375,0.03320312,0.1523438,1.179688,-0.46875,-1.539062,-0.04492188,0.06640625,0.1503906,0.1601562,-0.01367188,0,-0.0267334,0.002441406,1.000244,0,0,1.000244,0.3500061,3.399,0,0,0,0,nan,4,0.038,1,0,0.7555847,0.02429199,0.03826904,0.5818481,0.2998047,0.0546875,0,1,6,0
761.855,0.001007,-0.1660156,-0.09960938,0.1035156,0.328125,-3.007812,3.085938,-0.02929688,0.001953125,0.109375,0.1621094,-0.015625,0,-0.02709961,0.002685547,1.001465,0,0,1.001465,0.3500061,3.399,0,0,0,0,nan,4,0.048,1,0,0.7138367,0.09963989,0,0.5865173,0.2998047,0.0546875,0,0.9582214,6,0
761.865,0.001027,-0.125,0.09570312,0.1464844,-1.976562,-2.132812,19.54688,0.01171875,0.0078125,0.1347656,0.1601562,-0.015625,0,-0.0267334,0.002563477,1.002808,0,0,1.002808,0.3500061,3.399,0,0,0,0,nan,4,0.059,1,0,0.7587891,0.03643799,0.03250122,0.5722961,0.2998047,0.0546875,0,1,6,0
761.875,0.00102,-0.1679688,0.1875,0.1835938,-2.78125,-1.578125,13.28906,-0.06054688,0.08984375,0.1679688,0.1621094,-0.01757812,0,-0.02685547,0.002807617,1.004395,0,0,1.004395,0.3500061,3.399,0,0,0,0,nan,4,0.069,1,0,0.7693176,0,0.07470703,0.5559998,0.2998047,0.0546875,0,0.9708252,6,0
761.885,0.001016,0.06640625,-0.1113281,0.1757812,-4.835938,1.195312,15.86719,0.0859375,-0.0390625,0.1621094,0.1621094,-0.01953125,0,-0.02685547,0.003051758,1.005981,0,0,1.005981,0.3500061,3.399,0,0,0,0,nan,4,0.079,1,0,0.7633057,0.07000732,0.05151367,0.5151672,0.2998047,0.0546875,0,1,6,0
761.895,0.001016,-0.1738281,0.1132812,0.1464844,-4.351562,4.734375,25.23438,-0.001953125,-0.03515625,0.1972656,0.1582031,-0.01367188,0,-0.02624512,0.002441406,1.008057,0,0,1.008057,0.3500061,3.399,0,0,0,0,nan,4,0.089,1,0,0.7701721,0.03259277,0.02264404,0.574585,0.2998047,0.0546875,0,1,6,0
761.904,0.001004,-0.04296875,0.06445312,0.2265625,1.25,-3.828125,5.257812,-0.09765625,0.06445312,0.171875,0.1601562,-0.01757812,0,-0.02661133,0.002807617,1.009644,0,0,1.009644,0.3500061,3.399,0,0,0,0,nan,4,0.098,1,0,0.7690125,0.01541138,0.02880859,0.5867615,0.2998047,0.0546875,0,1,6,0
761.915,0.001037,0.1542969,-0.1171875,0.1601562,-6.226562,5.4375,29.53125,0.0859375,-0.0703125,0.1738281,0.1601562,-0.01757812,0,-0.0267334,0.002807617,1.011353,0,0,1.011353,0.3500061,3.399,0,0,0,0,nan,4,0.108,1,0,0.7598877,0.08007812,0.05056763,0.5094604,0.2998047,0.0546875,0,1,6,0
761.925,0.001009,-0.1523438,0.2402344,0.1757812,1.796875,0.171875,18.41406,-0.0234375,0.01953125,0.1855469,0.1582031,-0.01367188,0,-0.02624512,0.002197266,1.013184,0,0,1.013184,0.3500061,3.399,0,0,0,0,nan,4,0.118,1,0,0.7719727,0.005981445,0.04699707,0.5750122,0.2998047,0.0546875,0,1,6,0
761.935,0.001008,-0.01953125,0.08789062,0.1992188,0.0390625,-2.65625,13.75,-0.1054688,0.08789062,0.1796875,0.1640625,-0.01953125,0,-0.02734375,0.003051758,1.015015,0,0,1.015015,0.3500061,3.399,0,0,0,0,nan,4,0.128,1,0,0.7698669,0.01828003,0.04187012,0.5699768,0.2998047,0.0546875,0,1,6,0
761.945,0.001009,0.2382812,-0.4492188,0.1503906,3.289062,-2.429688,-1.6875,0.1445312,-0.1484375,0.1875,0.1621094,-0.01757812,0,-0.02697754,0.002807617,1.016846,0,0,1.016846,0.3500061,3.399,0,0,0,0,nan,4,0.138,1,0,0.7740479,0.1009216,0.04623413,0.4788208,0.2998047,0.0546875,0,1,6,0
761.955,0.001009,-0.0859375,-0.01953125,0.1171875,5.867188,0.3515625,-5.414062,0.02929688,-0.009765625,0.1367188,0.15625,-0.01171875,0,-0.02612305,0.002075195,1.018433,0,0,1.018433,0.3500061,3.399,0,0,0,0,nan,4,0.148,1,0,0.7106628,0.07952881,0,0.6098022,0.2998047,0.0546875,0,0.9821167,6,0
761.965,0.001007,-0.01171875,-0.015625,0.1464844,3.710938,-0.6640625,3.625,-0.0859375,0.04296875,0.1171875,0.1621094,-0.01757812,0,-0.02685547,0.002807617,1.019775,0,0,1.019775,0.3500061,3.399,0,0,0,0,nan,4,0.159,1,0,0.7162781,0.0847168,0,0.598999,0.2998047,0.0546875,0,0.9620972,6,0
761.975,0.001008,0.1601562,-0.1914062,0.2363281,5.945312,-3.125,-3.03125,0.06445312,-0.04492188,0.1601562,0.1601562,-0.015625,0,-0.0267334,0.002563477,1.020996,0,0,1.020996,0.3500061,3.399,0,0,0,0,nan,4,0.169,1,0,0.8205261,0.001525879,0.1065979,0.471344,0.2998047,0.0546875,0,1,6,0
761.985,0.001009,0.02929688,-0.07421875,0.2246094,4.070312,-1.625,0.0390625,-0.02539062,0.03320312,0.1914062,0.1601562,-0.015625,0,-0.02661133,0.002441406,1.022827,0,0,1.022827,0.3500061,3.399,0,0,0,0,nan,4,0.179,1,0,0.7861938,0,0.1010742,0.5127563,0.2998047,0.0546875,0,0.9472046,6,0
761.995,0.001008,-0.06054688,-0.1523438,0.1386719,2.921875,-4.953125,-2.367188,-0.04101562,-0.02734375,0.1816406,0.1621094,-0.01757812,0,-0.02697754,0.002807617,1.02478,0,0,1.02478,0.3500061,3.399,0,0,0,0,nan,4,0.189,1,0,0.7445374,0.08554077,0,0.5699158,0.2998047,0.0546875,0,0.9777527,6,0
762.005,0.001008,0.04882812,-0.04101562,0.1835938,1.75,-3.6875,-1.421875,-0.01757812,-0.00390625,0.1660156,0.1621094,-0.015625,0,-0.02697754,0.002685547,1.026489,0,0,1.026489,0.3500061,3.399,0,0,0,0,nan,4,0.199,1,0,0.7593384,0.0473938,0.02703857,0.5662231,0.2998047,0.0546875,0,1,6,0
762.014,0.000989,-0.03125,-0.03320312,0.2167969,-0.1796875,-0.6953125,2.09375,0.01367188,0.03515625,0.2128906,0.1621094,-0.01757812,0,-0.02709961,0.002929688,1.02832,0,0,1.02832,0.3500061,3.399,0,0,0,0,nan,4,0.208,1,0,0.7927246,0,0.1044006,0.5028687,0.2998047,0.0546875,0,0.979187,6,0
762.025,0.001009,-0.08203125,-0.04296875,0.1679688,-3.117188,-0.984375,12.82812,-0.001953125,-0.02148438,0.1738281,0.1621094,-0.01757812,0,-0.02697754,0.002807617,1.030151,0,0,1.030151,0.3500061,3.399,0,0,0,0,nan,4,0.001,1,0,0.7579651,0.05703735,0.01873779,0.5662537,0.2998047,0.0546875,0,1,6,0
762.035,0.001014,-0.09570312,0.1191406,0.2050781,-2.710938,0.15625,17.65625,-0.03320312,0.04296875,0.1992188,0.1621094,-0.015625,0,-0.02697754,0.002807617,1.031982,0,0,1.031982,0.3500061,3.399,0,0,0,0,nan,4,0.011,1,0,0.7807312,0,0.07833862,0.5409546,0.2998047,0.0546875,0,0.9793701,6,0
762.045,0.001014,-0.001953125,0.1347656,0.171875,-4.796875,4.09375,21.69531,-0.005859375,0.046875,0.1894531,0.1640625,-0.01757812,0,-0.02722168,0.002929688,1.034058,0,0,1.034058,0.3500061,3.399,0,0,0,0,nan,4,0.021,1,0,0.737854,0.04803467,0.04095459,0.5731506,0.2998047,0.0546875,0,1,6,0
762.055,0.00102,-0.09765625,0.1171875,0.1738281,-6.109375,2.195312,32.10156,0.015625,-0.04882812,0.1992188,0.1621094,-0.015625,0,-0.02697754,0.002441406,1.036133,0,0,1.036133,0.3500061,3.399,0,0,0,0,nan,4,0.031,1,0,0.7604675,0.05322266,0.02508545,0.5612183,0.2998047,0.0546875,0,1,6,0
762.065,0.001014,-0.1875,0.15625,0.1875,-3.585938,0.625,24.24219,-0.0625,0.05664062,0.1875,0.1621094,-0.01367188,0,-0.02709961,0.002319336,1.038086,0,0,1.038086,0.3500061,3.399,0,0,0,0,nan,4,0.041,1,0,0.7616577,0.01080322,0.04217529,0.5853882,0.2998047,0.0546875,0,1,6,0
762.075,0.001011,0.03515625,0.03710938,0.1875,-2.085938,4.90625,22.64062,-0.03320312,0.03710938,0.2128906,0.1660156,-0.01757812,0,-0.02770996,0.002929688,1.040161,0,0,1.040161,0.3500061,3.399,0,0,0,0,nan,4,0.051,1,0,0.7891846,0.01550293,0.06781006,0.5274963,0.2998047,0.0546875,0,1,6,0
762.085,0.001014,-0.1132812,0,0.2480469,1.140625,-3.304688,13.15625,-0.00390625,-0.04882812,0.2207031,0.1640625,-0.015625,0,-0.02746582,0.002685547,1.042236,0,0,1.042236,0.3500061,3.399,0,0,0,0,nan,4,0.062,1,0,0.8209534,0.004211426,0.06546021,0.5093689,0.2998047,0.0546875,0,1,6,0
762.095,0.001014,0.06054688,0.1015625,0.2285156,1.3125,-3.5625,8.507812,-0.01757812,0.046875,0.2402344,0.1660156,-0.01757812,0,-0.02770996,0.002807617,1.044678,0,0,1.044678,0.3500061,3.399,0,0,0,0,nan,4,0.072,1,0,0.7815552,0.002105713,0.07696533,0.5393677,0.2998047,0.0546875,0,1,6,0
762.105,0.001013,-0.0859375,-0.04296875,0.234375,-6.078125,3.984375,26.75781,0.005859375,-0.02734375,0.2578125,0.1660156,-0.01757812,0,-0.02770996,0.002807617,1.047241,0,0,1.047241,0.3500061,3.399,0,0,0,0,nan,4,0.082,1,0,0.7974243,0.02429199,0.05963135,0.5186768,0.2998047,0.0546875,0,1,6,0
762.114,0.000976,0.07226562,-0.009765625,0.328125,4.960938,-2.21875,-0.4765625,0.03320312,-0.00390625,0.28125,0.1660156,-0.01757812,0,-0.02758789,0.003051758,1.049683,0,0,1.049683,0.3500061,3.399,0,0,0,0,nan,4,0.091,1,0,0.8085022,0,0.1111755,0.4803162,0.2998047,0.0546875,0,0.9715271,6,0
762.125,0.001007,0.04882812,-0.06445312,0.2949219,4.984375,-3.164062,-2.40625,0.01757812,0.03515625,0.2617188,0.1640625,-0.01757812,0,-0.02746582,0.003051758,1.052368,0,0,1.052368,0.3500061,3.399,0,0,0,0,nan,4,0.101,1,0,0.7788391,0.008148193,0.07531738,0.5377197,0.2998047,0.0546875,0,1,6,0
762.135,0.001006,-0.09570312,-0.04101562,0.3027344,0.1875,-2.84375,2.25,-0.03320312,-0.04882812,0.2929688,0.1640625,-0.01757812,0,-0.02734375,0.002929688,1.055176,0,0,1.055176,0.3500061,3.399,0,0,0,0,nan,4,0.111,1,0,0.8169861,0,0.1042175,0.4788208,0.2998047,0.0546875,0,0.9311523,6,0
762.145,0.001007,-0.1386719,0.2265625,0.28125,-3.726562,2,19.51562,-0.01757812,0.04101562,0.296875,0.1640625,-0.01953125,0,-0.02746582,0.003173828,1.058105,0,0,1.058105,0.3500061,3.399,0,0,0,0,nan,4,0.121,1,0,0.7781067,0,0.1022339,0.5196533,0.2998047,0.0546875,0,0.9533997,6,0
762.155,0.00101,-0.0859375,-0.04101562,0.2441406,-7.335938,3.414062,26.32812,-0.04101562,-0.03320312,0.2597656,0.1679688,-0.01953125,0,-0.0279541,0.003295898,1.060913,0,0,1.060913,0.3500061,3.399,0,0,0,0,nan,4,0.131,1,0,0.7762451,0.05175781,0.02127075,0.5507202,0.2998047,0.0546875,0,1,6,0
762.165,0.001005,0.02734375,0.1933594,0.2539062,-3.203125,5.773438,27.03906,0.01367188,0.06054688,0.2773438,0.1679688,-0.01953125,0,-0.0279541,0.003295898,1.063721,0,0,1.063721,0.3500061,3.399,0,0,0,0,nan,4,0.141,1,0,0.7700806,0.004425049,0.08511353,0.5403748,0.2998047,0.0546875,0,1,6,0
762.175,0.001004,0.1542969,-0.08007812,0.2246094,0.4765625,-1.304688,14.07031,0.04882812,-0.05664062,0.2480469,0.1660156,-0.01953125,0,-0.02770996,0.003295898,1.066406,0,0,1.066406,0.3500061,3.399,0,0,0,0,nan,4,0.151,1,0,0.7610474,0.07150269,0.02734375,0.5401001,0.2998047,0.0546875,0,1,6,0
762.185,0.001007,0.0703125,-0.03515625,0.1972656,4.101562,-4.359375,-6.476562,0.01953125,0.01953125,0.1933594,0.1660156,-0.01953125,0,-0.02758789,0.003295898,1.068359,0,0,1.068359,0.3500061,3.397,0,0,0,0,nan,4,0.162,1,0,0.7338257,0.05908203,0.02746582,0.5795898,0.2998047,0.0546875,0,1,6,0
762.195,0.001011,0.078125,-0.1914062,0.1640625,3.992188,-0.2890625,-1.898438,0,-0.015625,0.1542969,0.1660156,-0.01953125,0,-0.02770996,0.003295898,1.070068,0,0,1.070068,0.3500061,3.397,0,0,0,0,nan,4,0.172,1,0,0.7349854,0.08279419,0.001190186,0.5810242,0.2998047,0.0546875,0,1,6,0
762.205,0.001011,0.08007812,0.1816406,0.1992188,0.90625,0.234375,10.50781,-0.009765625,0.02734375,0.1855469,0.1679688,-0.02148438,0,-0.0279541,0.003417969,1.071899,0,0,1.071899,0.3500061,3.397,0,0,0,0,nan,4,0.182,1,0,0.7807617,0.01223755,0.07299805,0.5340271,0.2998047,0.0546875,0,1,6,0
762.214,0.001009,0.009765625,-0.1523438,0.1972656,-0.46875,0.5546875,0.859375,0.015625,0.005859375,0.1914062,0.1679688,-0.02148438,0,-0.0279541,0.003540039,1.073608,0,0,1.073608,0.3500061,3.397,0,0,0,0,nan,4,0.191,1,0,0.7736511,0.03216553,0.05841064,0.5357971,0.2998047,0.0546875,0,1,6,0
762.225,0.000998,-0.1035156,-0.02148438,0.1230469,-4.820312,1.429688,11.77344,0.00390625,-0.04296875,0.1523438,0.1679688,-0.01953125,0,-0.02783203,0.003295898,1.075195,0,0,1.075195,0.3500061,3.397,0,0,0,0,nan,4,0.201,1,0,0.7348022,0.08786011,0,0.5773315,0.2998047,0.0546875,0,0.98172,6,0
762.235,0.00101,-0.140625,0.2304688,0.1484375,-6.710938,3.96875,26.16406,-0.08203125,0.07421875,0.1484375,0.1699219,-0.02148438,0,-0.02832031,0.003662109,1.076782,0,0,1.076782,0.3500061,3.397,0,0,0,0,nan,4,0.005,1,0,0.7520447,0.02252197,0.03100586,0.5944214,0.2998047,0.0546875,0,1,6,0
762.245,0.001013,-0.01953125,-0.1152344,0.2285156,-4.828125,2.5,23.25,0.005859375,-0.046875,0.2324219,0.1699219,-0.0234375,0,-0.02844238,0.00378418,1.078857,0,0,1.078857,0.3500061,3.397,0,0,0,0,nan,4,0.015,1,0,0.8296509,0,0.1025391,0.4678345,0.2998047,0.0546875,0,0.9726868,6,0
762.255,0.000973,0.01171875,0.1816406,0.28125,-3.453125,-0.9453125,21.53906,0.02148438,-0.03320312,0.2480469,0.1699219,-0.01953125,0,-0.02819824,0.003417969,1.081299,0,0,1.081299,0.3500061,3.397,0,0,0,0,nan,4,0.025,1,0,0.8051758,0,0.09362793,0.5011902,0.2998047,0.0546875,0,0.9860535,6,0
762.265,0.001016,-0.02734375,-0.01953125,0.2324219,3.757812,-2.125,3.710938,-0.046875,0.05664062,0.2441406,0.1699219,-0.02148438,0,-0.02844238,0.003540039,1.08374,0,0,1.08374,0.3500061,3.397,0,0,0,0,nan,4,0.035,1,0,0.7792053,0,0.06704712,0.553772,0.2998047,0.0546875,0,0.9952393,6,0
762.275,0.001012,0.1796875,-0.1132812,0.2460938,5.875,0.9765625,3.164062,0.03515625,-0.06445312,0.2421875,0.1699219,-0.02148438,0,-0.02832031,0.003540039,1.086182,0,0,1.086182,0.3500061,3.397,0,0,0,0,nan,4,0.045,1,0,0.7863159,0.04782104,0.04718018,0.5186768,0.2998047,0.0546875,0,1,6,0
762.285,0.001013,-0.1113281,-0.005859375,0.2578125,5.0625,-6.53125,-3.476562,-0.0078125,0.03710938,0.2480469,0.1699219,-0.02148438,0,-0.02819824,0.003540039,1.088745,0,0,1.088745,0.3500061,3.397,0,0,0,0,nan,4,0.056,1,0,0.7827759,0,0.07006836,0.5471191,0.2998047,0.05371094,0,0.9987488,6,0
762.295,0.001014,-0.02734375,-0.1523438,0.1953125,0.875,-2.132812,0.5390625,-0.01171875,-0.01757812,0.1914062,0.1699219,-0.02148438,0,-0.02819824,0.003662109,1.09082,0,0,1.09082,0.3500061,3.397,0,0,0,0,nan,4,0.066,1,0,0.737793,0.07901001,0,0.5831909,0.2998047,0.05371094,0,0.9885254,6,0
762.305,0.001013,0.06054688,-0.046875,0.2714844,5.226562,-3.914062,-3.960938,0.0078125,0.02734375,0.2285156,0.1699219,-0.0234375,0,-0.02844238,0.00378418,1.092896,0,0,1.092896,0.3500061,3.397,0,0,0,0,nan,4,0.076,1,0,0.7883606,0,0.1312256,0.4804077,0.2998047,0.05371094,0,0.9315491,6,0
762.314,0.001006,-0.03515625,-0.08789062,0.1972656,-5.984375,1.140625,26.09375,0.01171875,-0.0390625,0.2363281,0.1699219,-0.02148438,0,-0.02832031,0.003662109,1.095093,0,0,1.095093,0.3500061,3.397,0,0,0,0,nan,4,0.085,1,0,0.7889709,0.03256226,0.04922485,0.5292358,0.2998047,0.05371094,0,1,6,0
762.325,0.001011,-0.0625,0.2636719,0.1542969,-5.203125,2.601562,31.0625,-0.01757812,0.02734375,0.2089844,0.1679688,-0.02148438,0,-0.02807617,0.003540039,1.097412,0,0,1.097412,0.3500061,3.397,0,0,0,0,nan,4,0.095,1,0,0.7059326,0.0786438,0,0.6154175,0.2998047,0.05371094,0,0.9830627,6,0
762.335,0.001011,0.01367188,0.046875,0.1425781,0.265625,-0.53125,20.60938,0.001953125,0.0234375,0.1523438,0.1699219,-0.0234375,0,-0.02844238,0.00378418,1.099243,0,0,1.099243,0.3500061,3.397,0,0,0,0,nan,4,0.105,1,0,0.7011719,0.09396362,0,0.6048584,0.2998047,0.05371094,0,0.9906311,6,0
762.345,0.001011,0.078125,-0.1347656,0.1777344,2.070312,-1.203125,3.28125,0.03125,-0.07617188,0.140625,0.1699219,-0.02148438,0,-0.02832031,0.003540039,1.100586,0,0,1.100586,0.3500061,3.397,0,0,0,0,nan,4,0.115,1,0,0.7755127,0.06039429,0.03494263,0.5291443,0.2998047,0.05371094,0,1,6,0
762.355,0.001011,0.1191406,0.1269531,0.1835938,2.664062,-3.4375,-1.328125,-0.01367188,0.06640625,0.1484375,0.171875,-0.02148438,0,-0.02856445,0.003662109,1.101929,0,0,1.101929,0.3500061,3.397,0,0,0,0,nan,4,0.125,1,0,0.7614746,0.008911133,0.07443237,0.5551453,0.2998047,0.05371094,0,1,6,0
762.365,0.001012,0.1015625,-0.2539062,0.1308594,3.234375,-1.476562,-0.546875,0.03125,0,0.1484375,0.171875,-0.0234375,0,-0.02868652,0.00378418,1.103394,0,0,1.103394,0.3500061,3.397,0,0,0,0,nan,4,0.135,1,0,0.7525024,0.05899048,0.03915405,0.5493469,0.2998047,0.05371094,0,1,6,0
762.375,0.001006,0.0234375,-0.1328125,0.1757812,5.9375,-0.65625,0.390625,0.01171875,-0.01757812,0.1679688,0.171875,-0.0234375,0,-0.02868652,0.00378418,1.10498,0,0,1.10498,0.3500061,3.397,0,0,0,0,nan,4,0.145,1,0,0.7901001,0.02856445,0.05514526,0.5261841,0.2998047,0.05371094,0,1,6,0
762.385,0.001009,-0.0234375,-0.1289062,0.2226562,4.007812,-1.492188,-5.484375,0.01757812,-0.0390625,0.1875,0.171875,-0.02148438,0,-0.02856445,0.003662109,1.106812,0,0,1.106812,0.3500061,3.397,0,0,0,0,nan,4,0.156,1,0,0.7836304,0.03427124,0.04818726,0.5339355,0.2998047,0.05371094,0,1,6,0
762.395,0.001011,-0.0546875,-0.078125,0.2089844,0.78125,-0.1875,-1.804688,0.00390625,0.001953125,0.1972656,0.1699219,-0.01953125,0,-0.02832031,0.003417969,1.108887,0,0,1.108887,0.3500061,3.397,0,0,0,0,nan,4,0.166,1,0,0.7794495,0.01815796,0.05276489,0.5496216,0.2998047,0.05371094,0,1,6,0
762.405,0.001024,0.0078125,0.09765625,0.125,4.0625,-4.40625,1.617188,-0.05273438,0.0625,0.1308594,0.171875,-0.02148438,0,-0.02856445,0.00378418,1.110474,0,0,1.110474,0.3500061,3.397,0,0,0,0,nan,4,0.176,1,0,0.6818542,0.09680176,0,0.6213379,0.2998047,0.05371094,0,0.9421692,6,0
762.414,0.001009,0.02148438,0.04296875,0.1542969,-6.710938,4.242188,23.86719,-0.00390625,0.05273438,0.171875,0.1738281,-0.02539062,0,-0.02880859,0.004150391,1.111694,0,0,1.111694,0.3500061,3.397,0,0,0,0,nan,4,0.185,1,0,0.7932129,0,0.09490967,0.5119019,0.2998047,0.05371094,0,0.9916382,6,0
762.424,0.001014,0.01171875,-0.0390625,0.109375,-4.15625,2.265625,26.95312,0.05078125,-0.0703125,0.1621094,0.171875,-0.0234375,0,-0.02856445,0.00390625,1.113525,0,0,1.113525,0.3500061,3.397,0,0,0,0,nan,4,0.195,1,0,0.7262573,0.105835,0,0.5679016,0.2998047,0.05371094,0,0.9857178,6,0
762.435,0.001011,-0.05859375,0.2695312,0.1503906,-2.570312,1.1875,22.46094,-0.03710938,0.05273438,0.1308594,0.1699219,-0.0234375,0,-0.02844238,0.00378418,1.115112,0,0,1.115112,0.3500061,3.397,0,0,0,0,nan,4,0.205,1,0,0.7034302,0.06445312,0,0.6321106,0.2998047,0.05371094,0,0.9891663,6,0
762.445,0.000985,0.1445312,-0.15625,0.1328125,1.726562,-0.9375,10.58594,-0.0078125,-0.009765625,0.1386719,0.1738281,-0.02539062,0,-0.02893066,0.004272461,1.116455,0,0,1.116455,0.3500061,3.397,0,0,0,0,nan,4,0.003,1,0,0.762146,0.06106567,0.03256226,0.5441895,0.2998047,0.05371094,0,1,6,0
762.455,0.000983,0.1347656,-0.09570312,0.1367188,3.390625,-1.007812,1.6875,0.05078125,-0.0703125,0.1328125,0.171875,-0.0234375,0,-0.02880859,0.00390625,1.117798,0,0,1.117798,0.3500061,3.397,0,0,0,0,nan,4,0.013,1,0,0.7572632,0.07492065,0.02828979,0.5395203,0.2998047,0.05371094,0,1,6,0
762.465,0.000998,0.02148438,-0.0234375,0.1210938,5.695312,-1.835938,-1.75,-0.02734375,0.04296875,0.1171875,0.1738281,-0.0234375,0,-0.02880859,0.00402832,1.119019,0,0,1.119019,0.3500061,3.397,0,0,0,0,nan,4,0.023,1,0,0.7303467,0.05203247,0.01693726,0.600708,0.2998047,0.05371094,0,1,6,0
762.475,0.001012,0.05078125,-0.2128906,0.1289062,5.421875,-1.492188,-0.4765625,0.015625,-0.0234375,0.1210938,0.1738281,-0.02539062,0,-0.02893066,0.00402832,1.120239,0,0,1.120239,0.3500061,3.397,0,0,0,0,nan,4,0.033,1,0,0.7504578,0.07089233,0.02075195,0.5579224,0.2998047,0.05371094,0,1,6,0
762.485,0.001013,-0.09179688,0.00390625,0.1621094,2.132812,-5.828125,-4.460938,-0.02148438,-0.00390625,0.1445312,0.1738281,-0.02539062,0,-0.02893066,0.004272461,1.121582,0,0,1.121582,0.3500061,3.397,0,0,0,0,nan,4,0.043,1,0,0.7861938,0.02508545,0.04367065,0.5450745,0.2998047,0.05371094,0,1,6,0
762.495,0.001014,0.02929688,-0.00390625,0.1347656,-0.578125,0.7265625,5.085938,0.03125,0.0234375,0.1347656,0.171875,-0.02539062,0,-0.02868652,0.004150391,1.123047,0,0,1.123047,0.3500061,3.397,0,0,0,0,nan,4,0.054,1,0,0.7306213,0.05563354,0.03030396,0.5834656,0.2998047,0.05371094,0,1,6,0
762.505,0.001014,-0.0703125,-0.078125,0.1289062,6.726562,-2.046875,-2.65625,-0.0078125,-0.0390625,0.1464844,0.171875,-0.0234375,0,-0.02856445,0.00390625,1.124512,0,0,1.124512,0.3500061,3.397,0,0,0,0,nan,4,0.064,1,0,0.771698,0.04724121,0.02426147,0.5567932,0.2998047,0.05371094,0,1,6,0
762.514,0.001006,-0.2363281,0.1992188,0.1269531,-4.023438,3.734375,25.27344,-0.03515625,0,0.1445312,0.171875,-0.0234375,0,-0.02856445,0.00390625,1.125854,0,0,1.125854,0.3500061,3.397,0,0,0,0,nan,4,0.073,1,0,0.7479553,0.04537964,0.009399414,0.5972595,0.2998047,0.05371094,0,1,6,0
762.524,0.001011,0.07421875,0.109375,0.08007812,-5.859375,4.679688,32.52344,0.03320312,0.015625,0.1191406,0.1699219,-0.0234375,0,-0.02844238,0.00390625,1.127197,0,0,1.127197,0.3500061,3.397,0,0,0,0,nan,4,0.083,1,0,0.7033691,0.09121704,0.001861572,0.6035767,0.2998047,0.05371094,0,1,6,0
762.535,0.001012,-0.1308594,0.07617188,0.06445312,-3.25,1.984375,23.375,-0.0390625,0.009765625,0.1035156,0.171875,-0.0234375,0,-0.02856445,0.00402832,1.128418,0,0,1.128418,0.3500061,3.397,0,0,0,0,nan,4,0.093,1,0,0.7199707,0.07974243,0,0.6002808,0.2998047,0.05371094,0,0.9718628,6,0
762.545,0.001011,-0.06054688,0.05859375,0.1308594,-2.617188,-0.140625,19.47656,-0.02734375,0.005859375,0.1191406,0.171875,-0.0234375,0,-0.02856445,0.00402832,1.129517,0,0,1.129517,0.3500061,3.397,0,0,0,0,nan,4,0.103,1,0,0.7667236,0.03512573,0.02938843,0.5687561,0.2998047,0.05371094,0,1,6,0
762.555,0.001012,0.1035156,0.0234375,0.2109375,-0.546875,-2.710938,10.40625,0.009765625,0.015625,0.1640625,0.1699219,-0.02539062,0,-0.02844238,0.00402832,1.130981,0,0,1.130981,0.3500061,3.397,0,0,0,0,nan,4,0.113,1,0,0.7919006,0,0.1028442,0.5052185,0.2998047,0.05371094,0,0.9700317,6,0
762.565,0.001001,0.05078125,-0.1503906,0.140625,3.484375,-4.429688,-2.921875,0.00390625,-0.00390625,0.1660156,0.171875,-0.02539062,0,-0.02856445,0.004272461,1.132568,0,0,1.132568,0.3500061,3.397,0,0,0,0,nan,4,0.123,1,0,0.7762756,0.03704834,0.04821777,0.5384216,0.2998047,0.05371094,0,1,6,0
762.575,0.001011,0.06445312,-0.1679688,0.1171875,4.460938,-0.8125,-3.53125,0.02734375,-0.07421875,0.1464844,0.1699219,-0.0234375,0,-0.02844238,0.00402832,1.134155,0,0,1.134155,0.3500061,3.397,0,0,0,0,nan,4,0.133,1,0,0.7288208,0.1027832,0,0.5683899,0.2998047,0.05371094,0,0.9790649,6,0
762.585,0.001011,0.01367188,0.02734375,0.2558594,4.460938,-1.234375,1.65625,-0.02539062,0.04296875,0.171875,0.171875,-0.02539062,0,-0.02856445,0.00402832,1.135742,0,0,1.135742,0.3500061,3.397,0,0,0,0,nan,4,0.143,1,0,0.7823181,0,0.07989502,0.5377808,0.2998047,0.05371094,0,0.9849243,6,0
762.595,0.001012,0.046875,-0.046875,0.171875,6.007812,-5.070312,0.8984375,-0.01171875,0.02148438,0.1542969,0.1738281,-0.02734375,0,-0.02893066,0.004516602,1.137451,0,0,1.137451,0.3500061,3.397,0,0,0,0,nan,4,0.154,1,0,0.7413635,0.06152344,0.02764893,0.5694885,0.2998047,0.05371094,0,1,6,0
762.605,0.001011,0.06054688,-0.01953125,0.1113281,-0.03125,-1.148438,13.04688,0.01953125,-0.05664062,0.1425781,0.1738281,-0.02539062,0,-0.02880859,0.004150391,1.138916,0,0,1.138916,0.3500061,3.397,0,0,0,0,nan,4,0.164,1,0,0.7420959,0.07785034,0.008758545,0.5713196,0.2998047,0.05371094,0,1,6,0
762.614,0.001008,0.046875,0.02539062,0.1894531,3.945312,-3.320312,-1.601562,0.0078125,0.01171875,0.1738281,0.171875,-0.02539062,0,-0.02856445,0.004150391,1.140381,0,0,1.140381,0.3500061,3.397,0,0,0,0,nan,4,0.173,1,0,0.78125,0.01168823,0.06460571,0.5424805,0.2998047,0.05371094,0,1,6,0
762.624,0.000972,0.00390625,0.1132812,0.1972656,0.359375,-1.617188,2.085938,0.01367188,0.0234375,0.1660156,0.171875,-0.02539062,0,-0.02856445,0.004150391,1.14209,0,0,1.14209,0.3500061,3.397,0,0,0,0,nan,4,0.183,1,0,0.7515259,0.03619385,0.04873657,0.5635681,0.2998047,0.05371094,0,1,6,0
762.635,0.001014,-0.078125,-0.078125,0.140625,-2.84375,0.1171875,7.921875,0.001953125,-0.01757812,0.1582031,0.171875,-0.02539062,0,-0.02856445,0.004394531,1.143799,0,0,1.143799,0.3500061,3.397,0,0,0,0,nan,4,0.193,1,0,0.7522888,0.06509399,0.01342773,0.5691833,0.2998047,0.05371094,0,1,6,0
762.645,0.000995,-0.1289062,0.07617188,0.1523438,-4.070312,2.28125,17.72656,-0.015625,0.01757812,0.1542969,0.171875,-0.02539062,0,-0.02856445,0.004394531,1.145264,0,0,1.145264,0.3500061,3.397,0,0,0,0,nan,4,0.203,1,0,0.7645569,0.03204346,0.0368042,0.5666199,0.2998047,0.05371094,0,1,6,0
762.655,0.00101,-0.08007812,0.1582031,0.1992188,-6.554688,1.992188,20.58594,-0.0078125,0.01171875,0.1816406,0.171875,-0.02539062,0,-0.02856445,0.004394531,1.147095,0,0,1.147095,0.3500061,3.397,0,0,0,0,nan,4,0.005,1,0,0.7857056,0.007476807,0.06729126,0.5395508,0.2998047,0.05371094,0,1,6,0
762.665,0.001008,-0.06640625,0.1015625,0.171875,-5.601562,3.960938,27.38281,-0.02539062,0.04101562,0.1972656,0.171875,-0.02539062,0,-0.02868652,0.004394531,1.149048,0,0,1.149048,0.3500061,3.397,0,0,0,0,nan,4,0.015,1,0,0.7701721,0.01364136,0.05645752,0.5597229,0.2998047,0.05371094,0,1,6,0
762.675,0.001013,-0.109375,0.04101562,0.1835938,-3.65625,1.5625,26.11719,-0.0390625,-0.03125,0.2011719,0.1738281,-0.02734375,0,-0.02905273,0.004516602,1.151001,0,0,1.151001,0.3500061,3.397,0,0,0,0,nan,4,0.025,1,0,0.788269,0.0319519,0.04058838,0.5391846,0.2998047,0.05371094,0,1,6,0
762.685,0.001014,0.04492188,0.0703125,0.1816406,-1.171875,-0.0546875,21.875,0.03125,0,0.1914062,0.1738281,-0.02734375,0,-0.02893066,0.004516602,1.153076,0,0,1.153076,0.3500061,3.397,0,0,0,0,nan,4,0.035,1,0,0.7488098,0.0506897,0.04190063,0.5585938,0.2998047,0.05371094,0,1,6,0
762.695,0.001012,0,0.03515625,0.2011719,3.9375,-0.3359375,9.867188,0.001953125,0,0.2226562,0.1738281,-0.02734375,0,-0.02880859,0.004516602,1.155151,0,0,1.155151,0.3500061,3.397,0,0,0,0,nan,4,0.045,1,0,0.7940369,0.004943848,0.07330322,0.5277405,0.2998047,0.05371094,0,1,6,0
762.705,0.001011,-0.1171875,0.2246094,0.2109375,-6.632812,1.984375,24.39844,-0.02539062,0.01757812,0.21875,0.1738281,-0.02734375,0,-0.02893066,0.004516602,1.157471,0,0,1.157471,0.3500061,3.397,0,0,0,0,nan,4,0.056,1,0,0.7658081,0.02130127,0.04464722,0.5682678,0.2998047,0.05371094,0,1,6,0
762.714,0.001007,0.08984375,-0.1464844,0.234375,5.25,-1.351562,-1.15625,0.00390625,0.01171875,0.2167969,0.1738281,-0.02734375,0,-0.02880859,0.004516602,1.159424,0,0,1.159424,0.3500061,3.397,0,0,0,0,nan,4,0.065,1,0,0.7835083,0.01657104,0.06573486,0.5341797,0.2998047,0.05273438,0,1,6,0
762.724,0.001008,0.01171875,-0.1386719,0.2070312,3.601562,-1.609375,-1.617188,-0.001953125,-0.01367188,0.2167969,0.1738281,-0.02734375,0,-0.02880859,0.004638672,1.161621,0,0,1.161621,0.3500061,3.397,0,0,0,0,nan,4,0.075,1,0,0.7763672,0.03692627,0.04174805,0.5449524,0.2998047,0.05273438,0,1,6,0
762.735,0.001047,-0.0234375,0.05273438,0.1972656,0.8671875,-1.578125,-3.867188,-0.01171875,0.03320312,0.2109375,0.1738281,-0.02929688,0,-0.02893066,0.004760742,1.163818,0,0,1.163818,0.3500061,3.397,0,0,0,0,nan,4,0.085,1,0,0.7449646,0.04058838,0.03591919,0.5785522,0.2998047,0.05273438,0,1,6,0
762.745,0.001008,-0.015625,-0.09375,0.2011719,-2.789062,-1.632812,8.609375,0.009765625,-0.04101562,0.1796875,0.1738281,-0.02929688,0,-0.02893066,0.004760742,1.165771,0,0,1.165771,0.3500061,3.397,0,0,0,0,nan,4,0.095,1,0,0.7586975,0.06335449,0.02127075,0.5566711,0.2998047,0.05273438,0,1,6,0
762.755,0.001007,-0.1386719,0.3066406,0.1191406,-4.710938,3.601562,22.46094,-0.03125,0.03125,0.1503906,0.171875,-0.02734375,0,-0.02868652,0.004516602,1.16748,0,0,1.16748,0.3500061,3.397,0,0,0,0,nan,4,0.105,1,0,0.7168884,0.05633545,0.001861572,0.624939,0.2998047,0.05273438,0,1,6,0
762.765,0.001017,-0.06640625,0.06835938,0.1152344,-6.859375,2.664062,24.67188,-0.0234375,0.04101562,0.1425781,0.1738281,-0.02929688,0,-0.02880859,0.004760742,1.168945,0,0,1.168945,0.3500061,3.397,0,0,0,0,nan,4,0.115,1,0,0.7313538,0.05682373,0.01446533,0.5973206,0.2998047,0.05273438,0,1,6,0
762.775,0.001009,-0.03515625,0.078125,0.1328125,-3.65625,1.296875,27.27344,0.02929688,-0.03125,0.140625,0.171875,-0.02929688,0,-0.02868652,0.004760742,1.17041,0,0,1.17041,0.3500061,3.397,0,0,0,0,nan,4,0.125,1,0,0.7496033,0.06607056,0.0218811,0.562439,0.2998047,0.05273438,0,1,6,0
762.785,0.001007,-0.06835938,0.1464844,0.140625,1.617188,1.117188,16.60156,-0.05273438,0.04882812,0.1328125,0.171875,-0.02929688,0,-0.02868652,0.004882812,1.171753,0,0,1.171753,0.3500061,3.397,0,0,0,0,nan,4,0.135,1,0,0.741333,0.03457642,0.01858521,0.6054993,0.2998047,0.05273438,0,1,6,0
762.795,0.001006,0.0625,-0.1855469,0.15625,3.632812,-2.390625,7.90625,0.01367188,-0.03710938,0.1679688,0.1738281,-0.03125,0,-0.02893066,0.005126953,1.17334,0,0,1.17334,0.3500061,3.397,0,0,0,0,nan,4,0.145,1,0,0.7903748,0.04260254,0.05090332,0.5161438,0.2998047,0.05273438,0,1,6,0
762.805,0.001007,0.1054688,0.1542969,0.1621094,-5.367188,5.625,30.02344,0.08398438,-0.0234375,0.1640625,0.171875,-0.02929688,0,-0.02856445,0.004760742,1.174927,0,0,1.174927,0.3500061,3.397,0,0,0,0,nan,4,0.156,1,0,0.758728,0.03775024,0.07086182,0.5326538,0.2998047,0.05273438,0,1,6,0
762.814,0.001028,0.06445312,-0.2148438,0.1601562,5.0625,-2.6875,-2.773438,0.01757812,-0.02148438,0.171875,0.1699219,-0.02734375,0,-0.02819824,0.004516602,1.176636,0,0,1.176636,0.3500061,3.397,0,0,0,0,nan,4,0.165,1,0,0.7606812,0.04299927,0.03399658,0.5623474,0.2998047,0.05273438,0,1,6,0
762.825,0.001008,0.01953125,-0.02539062,0.1660156,2.1875,-0.2421875,-2.484375,-0.02148438,0.009765625,0.1621094,0.1699219,-0.02734375,0,-0.02844238,0.004638672,1.178223,0,0,1.178223,0.3500061,3.397,0,0,0,0,nan,4,0.175,1,0,0.7644348,0.04052734,0.03500366,0.5600586,0.2998047,0.05273438,0,1,6,0
762.835,0.001011,0.0078125,-0.02734375,0.2089844,1.0625,-3.609375,-3.046875,0.01953125,-0.0234375,0.1679688,0.1699219,-0.02734375,0,-0.02832031,0.004638672,1.17981,0,0,1.17981,0.3500061,3.396,0,0,0,0,nan,4,0.185,1,0,0.77948,0.0274353,0.05484009,0.5382385,0.2998047,0.05273438,0,1,6,0
762.845,0.000994,-0.046875,0.03125,0.1640625,-4.085938,1.164062,11.44531,0.009765625,0.03320312,0.1601562,0.1679688,-0.02734375,0,-0.02807617,0.004516602,1.181519,0,0,1.181519,0.3500061,3.396,0,0,0,0,nan,4,0.195,1,0,0.7353821,0.04693604,0.03405762,0.5836487,0.2998047,0.05273438,0,1,6,0
762.855,0.000985,-0.1386719,0.1113281,0.1933594,-4.898438,3.554688,21.14844,-0.03125,0.01757812,0.1914062,0.1699219,-0.02929688,0,-0.02832031,0.004882812,1.183228,0,0,1.183228,0.3500061,3.396,0,0,0,0,nan,4,0.205,1,0,0.802002,0,0.07211304,0.5259094,0.2998047,0.05273438,0,0.9957275,6,0
762.865,0.001,-0.03320312,0.2011719,0.1445312,-4.6875,4.585938,30.66406,0,0.04101562,0.1582031,0.1699219,-0.02929688,0,-0.02832031,0.004882812,1.185059,0,0,1.185059,0.3500061,3.396,0,0,0,0,nan,4,0.215,1,0,0.7236938,0.05288696,0.02435303,0.5990601,0.2998047,0.05273438,0,1,6,0
762.875,0.001044,-0.08398438,-0.0078125,0.1347656,-2.695312,2.484375,23.82812,-0.01757812,-0.01367188,0.1816406,0.1699219,-0.02929688,0,-0.02819824,0.004760742,1.18689,0,0,1.18689,0.3500061,3.396,0,0,0,0,nan,4,0.225,1,0,0.7685242,0.04104614,0.02999878,0.5604248,0.2998047,0.05273438,0,1,6,0
762.885,0.001019,0.04492188,0.01757812,0.1875,-1.59375,-0.3359375,13.44531,-0.0234375,0.01171875,0.1796875,0.171875,-0.03125,0,-0.02868652,0.005126953,1.188599,0,0,1.188599,0.3500061,3.396,0,0,0,0,nan,4,0.002,1,0,0.7719116,0.03436279,0.04733276,0.5463867,0.2998047,0.05273438,0,1,6,0
762.895,0.001014,0.1191406,-0.234375,0.2207031,2.976562,-2.851562,2.828125,0.02539062,-0.01953125,0.2109375,0.171875,-0.03125,0,-0.02868652,0.005249023,1.190552,0,0,1.190552,0.3500061,3.396,0,0,0,0,nan,4,0.012,1,0,0.7999573,0.01831055,0.07901001,0.5027466,0.2998047,0.05273438,0,1,6,0
762.905,0.001014,-0.125,0.2304688,0.1777344,-6.320312,2.789062,25.67188,-0.03125,0.00390625,0.203125,0.171875,-0.02929688,0,-0.02868652,0.005004883,1.192749,0,0,1.192749,0.3500061,3.396,0,0,0,0,nan,4,0.022,1,0,0.7587585,0.02825928,0.0357666,0.5772095,0.2998047,0.05273438,0,1,6,0
762.915,0.001014,0.07421875,-0.0078125,0.1347656,-3.898438,4.507812,29.3125,-0.009765625,0.02734375,0.1855469,0.1738281,-0.03320312,0,-0.02893066,0.005371094,1.194824,0,0,1.194824,0.3500061,3.396,0,0,0,0,nan,4,0.032,1,0,0.7309265,0.06637573,0.01904297,0.5836792,0.2998047,0.05273438,0,1,6,0
762.925,0.001045,0.1132812,-0.2285156,0.1601562,4.117188,-2.15625,-3.828125,0.0625,-0.08398438,0.1582031,0.171875,-0.02929688,0,-0.02868652,0.005004883,1.196289,0,0,1.196289,0.3500061,3.396,0,0,0,0,nan,4,0.041,1,0,0.7413635,0.09286499,0.009307861,0.5564575,0.2998047,0.05273438,0,1,6,0
762.935,0.001011,-0.1796875,0.1367188,0.2246094,0.9765625,-2.796875,-1,-0.05859375,0.06835938,0.2011719,0.171875,-0.03125,0,-0.02856445,0.005126953,1.19812,0,0,1.19812,0.3500061,3.396,0,0,0,0,nan,4,0.051,1,0,0.7624512,0,0.1134338,0.5241089,0.2998047,0.05273438,0,0.8979797,6,0
762.945,0.001011,0.001953125,-0.1308594,0.21875,-1.625,-1.992188,6.179688,0.04296875,-0.01367188,0.21875,0.1699219,-0.03125,0,-0.02844238,0.005371094,1.200195,0,0,1.200195,0.3500061,3.396,0,0,0,0,nan,4,0.062,1,0,0.7921753,0.01922607,0.07229614,0.5162964,0.2998047,0.05273438,0,1,6,0
762.955,0.001011,-0.08984375,0.08984375,0.1621094,-6.640625,3.078125,21.40625,-0.0078125,-0.001953125,0.171875,0.1699219,-0.03125,0,-0.02819824,0.005126953,1.202148,0,0,1.202148,0.3500061,3.396,0,0,0,0,nan,4,0.072,1,0,0.7346191,0.05917358,0.01159668,0.5946045,0.2998047,0.05273438,0,1,6,0
762.965,0.001008,0.015625,0.07421875,0.1621094,-6.023438,5.382812,25.30469,0.01367188,0.02148438,0.1875,0.1699219,-0.03125,0,-0.02832031,0.005249023,1.204102,0,0,1.204102,0.3500061,3.396,0,0,0,0,nan,4,0.082,1,0,0.7520447,0.04019165,0.04995728,0.5578308,0.2998047,0.05273438,0,1,6,0
762.975,0.001012,-0.03320312,-0.02148438,0.1640625,-3.25,-0.2578125,24.53125,0.04882812,-0.06445312,0.1855469,0.1679688,-0.02929688,0,-0.0279541,0.005004883,1.206055,0,0,1.206055,0.3500061,3.396,0,0,0,0,nan,4,0.092,1,0,0.7610168,0.06445312,0.02542114,0.5491028,0.2998047,0.05273438,0,1,6,0
762.985,0.00101,0.06054688,0.1777344,0.1914062,-0.1015625,0.2265625,18.53125,-0.01367188,0.0390625,0.1855469,0.1679688,-0.03125,0,-0.02807617,0.005126953,1.207764,0,0,1.207764,0.3500061,3.396,0,0,0,0,nan,4,0.102,1,0,0.7704163,0.01086426,0.06570435,0.553009,0.2998047,0.05273438,0,1,6,0
762.995,0.001011,0.1445312,-0.09179688,0.203125,2.757812,-2.007812,6.914062,0.02148438,-0.00390625,0.2089844,0.1699219,-0.03320312,0,-0.02819824,0.005493164,1.209717,0,0,1.209717,0.3500061,3.396,0,0,0,0,nan,4,0.112,1,0,0.7908936,0.02185059,0.07940674,0.507843,0.2998047,0.05273438,0,1,6,0
763.005,0.001011,-0.1367188,0.2285156,0.1855469,-4.851562,4.078125,29.92188,-0.01953125,-0.01367188,0.2128906,0.1699219,-0.03125,0,-0.02832031,0.005249023,1.211914,0,0,1.211914,0.3500061,3.396,0,0,0,0,nan,4,0.122,1,0,0.767395,0.02893066,0.04125977,0.5624084,0.2998047,0.05273438,0,1,6,0
763.014,0.001009,-0.01367188,-0.1367188,0.25,6.414062,-4.09375,-2.351562,-0.0234375,0.01171875,0.2128906,0.171875,-0.03125,0,-0.02856445,0.005371094,1.213867,0,0,1.213867,0.3500061,3.396,0,0,0,0,nan,4,0.131,1,0,0.7747803,0.02050781,0.05514526,0.5495605,0.2998047,0.05273438,0,1,6,0
763.024,0.001013,0.03515625,-0.1640625,0.2421875,5.65625,-2.429688,-2.796875,-0.009765625,-0.03320312,0.2070312,0.171875,-0.03125,0,-0.02868652,0.005371094,1.216064,0,0,1.216064,0.3500061,3.396,0,0,0,0,nan,4,0.141,1,0,0.7828064,0.03421021,0.04803467,0.5349426,0.2998047,0.05273438,0,1,6,0
763.035,0.001014,-0.06835938,0.140625,0.2382812,1.4375,-2.78125,0.75,-0.0078125,-0.001953125,0.2460938,0.171875,-0.03125,0,-0.02856445,0.005249023,1.218384,0,0,1.218384,0.3500061,3.396,0,0,0,0,nan,4,0.151,1,0,0.7852783,0,0.1095276,0.505188,0.2998047,0.05273438,0,0.9393616,6,0
763.045,0.001034,-0.03710938,0.05664062,0.1757812,-5.03125,0.484375,19.80469,0.01367188,0.03710938,0.1992188,0.1699219,-0.03125,0,-0.02832031,0.005249023,1.220581,0,0,1.220581,0.3500061,3.396,0,0,0,0,nan,4,0.162,1,0,0.7325439,0.04898071,0.02966309,0.5888062,0.2998047,0.05273438,0,1,6,0
763.055,0.001014,-0.1347656,0.1074219,0.1132812,-8.40625,4.265625,29.54688,-0.01953125,-0.0078125,0.1523438,0.171875,-0.03320312,0,-0.02844238,0.005493164,1.22229,0,0,1.22229,0.3500061,3.396,0,0,0,0,nan,4,0.172,1,0,0.6863403,0.1138916,0,0.599762,0.2998047,0.05273438,0,0.93396,6,0
763.065,0.000993,0.078125,0.2207031,0.125,-3.460938,4.679688,26.58594,0.03320312,0.02734375,0.1484375,0.1699219,-0.03125,0,-0.02819824,0.005371094,1.223877,0,0,1.223877,0.3500061,3.396,0,0,0,0,nan,4,0.182,1,0,0.7169495,0.05908203,0.02990723,0.5940247,0.2998047,0.05273438,0,1,6,0
763.075,0.001054,-0.05273438,0.015625,0.1152344,1.195312,-0.8828125,19.03906,-0.04101562,0.005859375,0.1386719,0.1699219,-0.03125,0,-0.02819824,0.005249023,1.225342,0,0,1.225342,0.3500061,3.396,0,0,0,0,nan,4,0.004,1,0,0.7544556,0.04382324,0.01657104,0.5851746,0.2998047,0.05175781,0,1,6,0
763.085,0.001013,0.06054688,-0.0546875,0.1523438,2.671875,-0.203125,10.34375,0.01171875,-0.04492188,0.1445312,0.1699219,-0.03320312,0,-0.02844238,0.005371094,1.226807,0,0,1.226807,0.3500061,3.396,0,0,0,0,nan,4,0.014,1,0,0.7620544,0.06341553,0.02731323,0.5472412,0.2998047,0.05175781,0,1,6,0
763.095,0.001014,0.1953125,-0.005859375,0.234375,2.078125,-1.71875,2.21875,0.02929688,-0.01367188,0.1835938,0.1699219,-0.03320312,0,-0.02819824,0.005371094,1.228394,0,0,1.228394,0.3500061,3.396,0,0,0,0,nan,4,0.024,1,0,0.8038635,0,0.09494019,0.5012207,0.2998047,0.05175781,0,0.9950867,6,0
763.105,0.001013,0.005859375,0.09570312,0.1035156,-6.8125,2.84375,29.03906,0.02734375,0.0078125,0.1503906,0.1679688,-0.03320312,0,-0.0279541,0.005493164,1.230103,0,0,1.230103,0.3500061,3.396,0,0,0,0,nan,4,0.034,1,0,0.7228394,0.07394409,0.01113892,0.5920715,0.2998047,0.05175781,0,1,6,0
763.115,0.001014,-0.06835938,0.01953125,0.1308594,-2.65625,3.1875,25.10938,0.00390625,-0.0078125,0.1660156,0.1660156,-0.03320312,0,-0.02783203,0.005493164,1.231689,0,0,1.231689,0.3500061,3.396,0,0,0,0,nan,4,0.044,1,0,0.7641296,0.04019165,0.03411865,0.5615234,0.2998047,0.05175781,0,1,6,0
763.124,0.001007,-0.00390625,-0.05859375,0.1679688,2.898438,-1.226562,-3.242188,-0.005859375,-0.02734375,0.1367188,0.1660156,-0.03125,0,-0.02770996,0.005371094,1.233154,0,0,1.233154,0.3500061,3.396,0,0,0,0,nan,4,0.054,1,0,0.6925964,0.1081848,0,0.5992432,0.2998047,0.05175781,0,0.9423218,6,0
763.135,0.001011,0.02539062,-0.140625,0.2363281,3.078125,-2.804688,-6.328125,-0.02539062,-0.009765625,0.1738281,0.1660156,-0.03320312,0,-0.02783203,0.005371094,1.234741,0,0,1.234741,0.3500061,3.396,0,0,0,0,nan,4,0.064,1,0,0.8043823,0,0.07955933,0.5160522,0.2998047,0.05175781,0,0.9890137,6,0
763.145,0.001035,-0.001953125,-0.1914062,0.1914062,-0.2890625,-2.476562,-1.0625,0.005859375,-0.0234375,0.171875,0.1679688,-0.03320312,0,-0.0279541,0.005615234,1.23645,0,0,1.23645,0.3500061,3.396,0,0,0,0,nan,4,0.074,1,0,0.7892456,0.02944946,0.05895996,0.5223389,0.2998047,0.05175781,0,1,6,0
763.155,0.001011,-0.0703125,0.07226562,0.1367188,0.0546875,-1.898438,7.820312,-0.02929688,-0.001953125,0.1601562,0.1679688,-0.03320312,0,-0.02807617,0.005493164,1.238159,0,0,1.238159,0.3500061,3.396,0,0,0,0,nan,4,0.084,1,0,0.7437744,0.05215454,0.01397705,0.5900879,0.2998047,0.05175781,0,1,6,0
763.165,0.001014,-0.04492188,0.08007812,0.1777344,-6.0625,1.078125,14.75781,0.001953125,0.00390625,0.1757812,0.1679688,-0.03320312,0,-0.02783203,0.005493164,1.239868,0,0,1.239868,0.3500061,3.396,0,0,0,0,nan,4,0.094,1,0,0.7679443,0.02783203,0.04690552,0.5572815,0.2998047,0.05175781,0,1,6,0
763.175,0.001008,-0.09179688,0.05273438,0.1894531,-4.257812,2.304688,21.23438,-0.015625,0.02148438,0.1855469,0.1660156,-0.03320312,0,-0.02783203,0.005493164,1.241699,0,0,1.241699,0.3500061,3.396,0,0,0,0,nan,4,0.104,1,0,0.7702942,0.01989746,0.0508728,0.5589294,0.2998047,0.05175781,0,1,6,0
763.185,0.001008,-0.06835938,0.06054688,0.1992188,-6.125,0.203125,26.04688,-0.01367188,-0.02734375,0.2050781,0.1679688,-0.03320312,0,-0.02807617,0.005615234,1.243774,0,0,1.243774,0.3500061,3.396,0,0,0,0,nan,4,0.114,1,0,0.7830505,0.02813721,0.05178833,0.5370178,0.2998047,0.05175781,0,1,6,0
763.195,0.001011,0.04492188,0.05859375,0.2089844,-3.226562,3.132812,28,0.01953125,-0.00390625,0.2246094,0.1660156,-0.03320312,0,-0.02783203,0.005493164,1.245972,0,0,1.245972,0.3500061,3.396,0,0,0,0,nan,4,0.124,1,0,0.791687,0.0050354,0.07913208,0.5241394,0.2998047,0.05175781,0,1,6,0
763.205,0.001011,-0.15625,0.05859375,0.1582031,-3.820312,1.390625,11.21094,-0.0234375,0.0078125,0.1933594,0.1679688,-0.03320312,0,-0.0279541,0.005615234,1.248047,0,0,1.248047,0.3500061,3.396,0,0,0,0,nan,4,0.134,1,0,0.7375793,0.05984497,0.0100708,0.5925293,0.2998047,0.05175781,0,1,6,0
763.215,0.001011,-0.03320312,0.1835938,0.1484375,-6.46875,3.59375,25.77344,0.0078125,0.06445312,0.1738281,0.1679688,-0.03320312,0,-0.02807617,0.005615234,1.25,0,0,1.25,0.3500061,3.396,0,0,0,0,nan,4,0.144,1,0,0.7094727,0.05349731,0.03466797,0.6023865,0.2998047,0.05175781,0,1,6,0
763.224,0.001009,0.0546875,-0.2265625,0.1542969,3.789062,-0.5546875,-0.8828125,0.01953125,-0.03515625,0.1542969,0.1679688,-0.03320312,0,-0.02783203,0.005615234,1.251465,0,0,1.251465,0.3500061,3.396,0,0,0,0,nan,4,0.153,1,0,0.7464294,0.07028198,0.01428223,0.5690002,0.2998047,0.05175781,0,1,6,0
763.235,0.001014,0.02539062,-0.125,0.1933594,3.429688,-0.6875,-0.5078125,-0.0078125,-0.01953125,0.1699219,0.1660156,-0.03320312,0,-0.02783203,0.005493164,1.253052,0,0,1.253052,0.3500061,3.396,0,0,0,0,nan,4,0.164,1,0,0.7805176,0.02886963,0.04516602,0.5454407,0.2998047,0.05175781,0,1,6,0
763.245,0.001013,-0.02539062,-0.0390625,0.2109375,5.609375,-1.828125,-4.203125,-0.02929688,0.001953125,0.1835938,0.1679688,-0.03515625,0,-0.0279541,0.005737305,1.254883,0,0,1.254883,0.3500061,3.396,0,0,0,0,nan,4,0.174,1,0,0.7848206,0.01672363,0.05410767,0.544342,0.2998047,0.05175781,0,1,6,0
763.255,0.001014,0.00390625,-0.1875,0.1894531,-0.4140625,-2.046875,-1.96875,0.001953125,-0.02929688,0.1777344,0.1679688,-0.03515625,0,-0.02807617,0.005737305,1.256714,0,0,1.256714,0.3500061,3.396,0,0,0,0,nan,4,0.184,1,0,0.7702942,0.04608154,0.03753662,0.5460815,0.2998047,0.05175781,0,1,6,0
763.265,0.001013,-0.1425781,-0.009765625,0.1503906,-1.34375,-4.601562,2.554688,-0.015625,-0.0234375,0.1542969,0.1679688,-0.03320312,0,-0.02807617,0.005615234,1.258301,0,0,1.258301,0.3500061,3.396,0,0,0,0,nan,4,0.194,1,0,0.7539673,0.05169678,0.0177002,0.5766296,0.2998047,0.05175781,0,1,6,0
763.275,0.000989,-0.09179688,0.1503906,0.1289062,-2.5,-2.726562,13.20312,-0.0390625,0.02734375,0.1347656,0.1699219,-0.03320312,0,-0.02819824,0.005615234,1.259766,0,0,1.259766,0.3500061,3.396,0,0,0,0,nan,4,0.204,1,0,0.7335205,0.04867554,0.01525879,0.6025696,0.2998047,0.05175781,0,1,6,0
763.285,0.001015,0.09960938,0.04101562,0.1777344,-5.65625,2.945312,17.91406,0.04492188,0.02929688,0.1914062,0.1679688,-0.03515625,0,-0.02807617,0.005859375,1.261475,0,0,1.261475,0.3500061,3.396,0,0,0,0,nan,4,0.214,1,0,0.7782288,0.008911133,0.09112549,0.5217285,0.2998047,0.05175781,0,1,6,0
763.295,0.001013,-0.1953125,0.09375,0.1660156,-4.617188,3.09375,26.92969,-0.03710938,0.01171875,0.1757812,0.1679688,-0.03320312,0,-0.0279541,0.005737305,1.263428,0,0,1.263428,0.3500061,3.396,0,0,0,0,nan,4,0.224,1,0,0.7503967,0.03991699,0.01586914,0.5938416,0.2998047,0.05175781,0,1,6,0
763.305,0.0009860001,0.1933594,-0.1679688,0.2246094,5.890625,-3.023438,-6,0.04296875,-0.03515625,0.1796875,0.1660156,-0.03320312,0,-0.02783203,0.005737305,1.265137,0,0,1.265137,0.3500061,3.396,0,0,0,0,nan,4,0.007,1,0,0.7747192,0.04089355,0.05899048,0.5254211,0.2998047,0.05175781,0,1,6,0
763.314,0.001028,0.03710938,0.1503906,0.1679688,-2.890625,5.15625,29.90625,0.02929688,0.009765625,0.1816406,0.1640625,-0.03320312,0,-0.02734375,0.005493164,1.266846,0,0,1.266846,0.3500061,3.396,0,0,0,0,nan,4,0.016,1,0,0.7649231,0.019104,0.06500244,0.5509949,0.2998047,0.05175781,0,1,6,0
763.324,0.001011,-0.09765625,-0.046875,0.1542969,0.2578125,1.640625,23.17188,0.009765625,-0.01367188,0.1875,0.1660156,-0.03515625,0,-0.02758789,0.005737305,1.268677,0,0,1.268677,0.3500061,3.396,0,0,0,0,nan,4,0.026,1,0,0.7760925,0.03659058,0.04821777,0.539093,0.2998047,0.05175781,0,1,6,0
763.334,0.001007,0.00390625,0.06054688,0.1796875,-0.25,-0.8359375,6.679688,0.00390625,-0.009765625,0.1835938,0.1640625,-0.03320312,0,-0.02746582,0.005615234,1.270508,0,0,1.270508,0.3500061,3.396,0,0,0,0,nan,4,0.036,1,0,0.7601929,0.03674316,0.04083252,0.5622253,0.2998047,0.05175781,0,1,6,0
763.345,0.001008,0.07226562,-0.1113281,0.25,4.398438,-5.234375,-1.804688,-0.046875,0.00390625,0.2167969,0.1660156,-0.03515625,0,-0.02783203,0.005737305,1.272583,0,0,1.272583,0.3500061,3.396,0,0,0,0,nan,4,0.046,1,0,0.7996216,0.002166748,0.06811523,0.5300903,0.2998047,0.05175781,0,1,6,0
763.355,0.000964,0.02148438,-0.04492188,0.2519531,5.257812,-2.148438,-1.414062,0.009765625,0.00390625,0.25,0.1660156,-0.03320312,0,-0.02783203,0.005737305,1.275024,0,0,1.275024,0.3500061,3.396,0,0,0,0,nan,4,0.057,1,0,0.7869263,0,0.12323,0.4898376,0.2998047,0.05175781,0,0.9431763,6,0
763.365,0.001008,0.0390625,-0.0625,0.2207031,2.851562,0.53125,-1.09375,-0.001953125,-0.0234375,0.2128906,0.1679688,-0.03515625,0,-0.0279541,0.005737305,1.277222,0,0,1.277222,0.3500061,3.396,0,0,0,0,nan,4,0.067,1,0,0.7525635,0.05554199,0.0256958,0.5662231,0.2998047,0.05175781,0,1,6,0
763.375,0.001011,-0.01367188,-0.07421875,0.1972656,2.25,-0.25,-2.851562,-0.04101562,0.03710938,0.1816406,0.1699219,-0.03515625,0,-0.02832031,0.005859375,1.279175,0,0,1.279175,0.3500061,3.396,0,0,0,0,nan,4,0.077,1,0,0.7402954,0.04580688,0.02929688,0.5845947,0.2998047,0.05175781,0,1,6,0
763.385,0.001001,-0.078125,-0.06640625,0.1777344,-1.585938,-2.929688,3.898438,-0.01757812,-0.0078125,0.1738281,0.1699219,-0.03710938,0,-0.02844238,0.006103516,1.281006,0,0,1.281006,0.3500061,3.396,0,0,0,0,nan,4,0.087,1,0,0.7553406,0.05197144,0.02236938,0.5703125,0.2998047,0.05175781,0,1,6,0
763.395,0.001004,-0.04882812,0.140625,0.2011719,-4.171875,-0.7578125,15.5625,-0.001953125,0.005859375,0.1796875,0.1699219,-0.03515625,0,-0.02844238,0.005981445,1.282715,0,0,1.282715,0.3500061,3.396,0,0,0,0,nan,4,0.097,1,0,0.7770691,0.01080322,0.06506348,0.5470581,0.2998047,0.05078125,0,1,6,0
763.405,0.001007,0.1210938,-0.2011719,0.1699219,2.734375,0.5546875,0.21875,0.03710938,-0.02929688,0.1601562,0.1699219,-0.03515625,0,-0.02844238,0.005981445,1.284424,0,0,1.284424,0.3500061,3.396,0,0,0,0,nan,4,0.107,1,0,0.7446289,0.07055664,0.02920532,0.5556335,0.2998047,0.05078125,0,1,6,0
763.415,0.001006,-0.03710938,0.03515625,0.1425781,4.3125,-2.070312,-1.804688,-0.04296875,-0.00390625,0.1386719,0.1699219,-0.03515625,0,-0.02832031,0.005737305,1.285889,0,0,1.285889,0.3500061,3.396,0,0,0,0,nan,4,0.117,1,0,0.7426758,0.0506897,0.00604248,0.6005859,0.2998047,0.05078125,0,1,6,0
763.424,0.001012,-0.04296875,0.2109375,0.1757812,-5.429688,2.140625,23.85938,0.001953125,0.02734375,0.1640625,0.1699219,-0.03515625,0,-0.02844238,0.005859375,1.287231,0,0,1.287231,0.3500061,3.396,0,0,0,0,nan,4,0.126,1,0,0.7788391,0.002410889,0.08078003,0.5379944,0.2998047,0.05078125,0,1,6,0
763.435,0.001012,0.0703125,0.01953125,0.1484375,-1.570312,4.664062,23.32812,-0.001953125,0.02539062,0.1796875,0.171875,-0.03515625,0,-0.02844238,0.005859375,1.28894,0,0,1.28894,0.3500061,3.396,0,0,0,0,nan,4,0.136,1,0,0.7691345,0.01580811,0.0663147,0.5487366,0.2998047,0.05078125,0,1,6,0
763.445,0.001028,-0.0078125,-0.03515625,0.1542969,1.648438,-1.851562,11.07031,0,-0.03710938,0.1679688,0.171875,-0.03515625,0,-0.02844238,0.005859375,1.290771,0,0,1.290649,0,3.396,0,0,0,0,nan,4,0.146,0,64,0,0,0,0,0,0,0,1,6,0
763.455,0.000992,0.06835938,-0.05273438,0.2402344,3.445312,-2.0625,0.3671875,-0.0234375,-0.009765625,0.1894531,0.171875,-0.03515625,0,-0.02868652,0.005737305,1.292603,0,0,1.290649,0,3.396,0,0,0,0,nan,4,0.157,0,64,0,0,0,0,0,0,0,1,6,0
763.465,0.001018,0.1054688,-0.2148438,0.1953125,2.890625,-1.539062,0.015625,0.03320312,-0.009765625,0.1777344,0.171875,-0.03515625,0,-0.02880859,0.005859375,1.294434,0,0,1.290649,0,3.396,0,0,0,0,nan,4,0.167,0,64,0,0,0,0,0,0,0,1,6,0
763.475,0.001022,-0.04296875,0.1679688,0.08984375,-6.601562,-1.15625,36.61719,-0.01367188,0.03515625,0.125,0.171875,-0.03515625,0,-0.02893066,0.005859375,1.295898,0,0,1.290649,0,3.396,0,0,0,0,nan,4,0.177,0,64,0,0,0,0,0,0,0,1,6,0
763.485,0.001011,0.009765625,-0.2617188,0.08007812,0.8984375,4.3125,5.429688,0.001953125,-0.04492188,0.09375,0.171875,-0.03515625,0,-0.02880859,0.005859375,1.296997,0,0,1.290649,0,3.492,0,0,0,0,nan,4,0.006,0,64,0,0,0,0,0,0,0,1,6,0
763.495,0.00103,-0.0625,0.02734375,0.1328125,1.054688,0.3828125,14.70312,-0.03125,-0.00390625,0.1132812,0.171875,-0.03515625,0,-0.02880859,0.005737305,1.297974,0,0,1.290649,0,3.492,0,0,0,0,nan,4,0.016,0,64,0,0,0,0,0,0,0,1,6,0
763.505,0.001014,-0.03515625,0.1816406,0.1816406,-2.054688,1.570312,10.67969,-0.04101562,0.01367188,0.1894531,0.171875,-0.03515625,0,-0.02905273,0.005615234,1.299561,0,0,1.290649,0,3.492,0,0,0,0,nan,4,0.026,0,64,0,0,0,0,0,0,0,1,6,0
763.515,0.000993,0.09375,0.09960938,0.28125,-4.664062,-0.8359375,16.8125,0.00390625,0.01757812,0.2851562,0.171875,-0.03515625,0,-0.0291748,0.005737305,1.302002,0,0,1.290649,0,3.492,0,0,0,0,nan,4,0.036,0,64,0,0,0,0,0,0,0,1,6,0
763.525,0.001022,0.1386719,-0.2460938,0.3632812,5.171875,2.09375,11.26562,0.009765625,-0.06054688,0.328125,0.171875,-0.03515625,0,-0.02929688,0.005737305,1.305176,0,0,1.290649,0,3.492,0,0,0,0,nan,4,0.046,0,64,0,0,0,0,0,0,0,1,6,0
763.534,0.00101,-0.1367188,0.1054688,0.2949219,-5.234375,-2.921875,7.28125,0.01953125,0.05273438,0.3125,0.171875,-0.03515625,0,-0.02929688,0.005737305,1.308105,0,0,1.290649,0,3.492,0,0,0,0,nan,4,0.056,0,64,0,0,0,0,0,0,0,1,6,1
763.544,0.001015,0.2636719,0.078125,0.265625,-5.085938,-0.4140625,10.13281,0.09960938,-0.0078125,0.3203125,0.171875,-0.03515625,0,-0.02941895,0.005615234,1.311279,0,0,1.290649,0,3.492,0,0,0,0,nan,4,0.066,0,64,0,0,0,0,0,0,0,1,6,0
763.555,0.001023,-0.009765625,-0.1210938,0.2480469,7.382812,-2.273438,11.45312,0.02148438,-0.001953125,0.2539062,0.171875,-0.03515625,0,-0.02941895,0.005615234,1.314209,0,0,1.290649,0,3.492,0,0,0,0,nan,4,0.076,0,64,0,0,0,0,0,0,0,1,6,0
763.565,0.001015,0.09570312,-0.03125,0.08789062,-4.015625,1.34375,8.296875,0.0625,-0.00390625,0.1660156,0.171875,-0.03515625,0,-0.02941895,0.005371094,1.316162,0,0,1.290649,0,3.492,0,0,0,0,nan,4,0.086,0,64,0,0,0,0,0,0,0,1,6,1
763.575,0.00101,0.01757812,0.0859375,0.03125,0.0859375,-2.578125,11.32031,0.0234375,0,0.0703125,0.171875,-0.03515625,0,-0.02941895,0.005371094,1.317505,0,0,1.290649,0,3.492,0,0,0,0,nan,4,0.096,0,64,0,0,0,0,0,0,0,1,6,0
763.585,0.001007,0.2695312,-0.125,-0.1308594,1.039062,-0.1953125,8.132812,0.0234375,0.005859375,-0.08007812,0.171875,-0.03515625,0,-0.02954102,0.005371094,1.317383,0,0,1.290649,0,3.492,0,0,0,0,nan,4,0.106,0,64,0,0,0,0,0,0,0,1,6,0
763.595,0.001007,0.1894531,0.1074219,-0.3105469,-3.429688,1.570312,3.492188,0.04882812,0.01953125,-0.2402344,0.171875,-0.03515625,0,-0.02941895,0.005249023,1.315674,0,0,1.290649,0,3.492,0,0,0,0,nan,4,0.116,0,64,0,0,0,0,0,0,0,1,6,0
763.605,0.001003,-0.05859375,-0.2363281,-0.203125,4.695312,2.367188,11.58594,-0.015625,0.03515625,-0.2421875,0.171875,-0.03515625,0,-0.02941895,0.005371094,1.31311,0,0,1.290649,0,3.492,0,0,0,0,nan,4,0.126,0,64,0,0,0,0,0,0,0,1,6,0
763.615,0.001007,-0.01171875,-0.1582031,-0.1933594,6.234375,0.3515625,9.46875,-0.0234375,-0.01171875,-0.2285156,0.171875,-0.03515625,0,-0.02954102,0.005126953,1.310791,0,0,1.290649,0,3.492,0,0,0,0,nan,4,0.136,0,64,0,0,0,0,0,0,0,1,6,0
763.625,0.001003,-0.001953125,0.00390625,-0.15625,0.15625,-1.78125,9.695312,-0.03515625,0.01367188,-0.1816406,0.171875,-0.03515625,0,-0.02941895,0.005249023,1.308716,0,0,1.290649,0,3.492,0,0,0,0,nan,4,0.146,0,64,0,0,0,0,0,0,0,1,6,1
763.635,0.001007,-0.1308594,0.07421875,-0.1035156,-3.390625,-2.25,14.98438,-0.05273438,0.00390625,-0.1289062,0.171875,-0.03515625,0,-0.02954102,0.005004883,1.307129,0,0,1.290649,0,3.492,0,0,0,0,nan,4,0.156,0,64,0,0,0,0,0,0,0,1,6,0
763.644,0.001012,-0.02539062,0.08007812,-0.00390625,1.046875,1.296875,10.36719,-0.005859375,0.02734375,-0.06054688,0.171875,-0.03515625,0,-0.02954102,0.005126953,1.306274,0,0,1.290649,0,3.492,0,0,0,0,nan,4,0.166,0,64,0,0,0,0,0,0,0,1,6,1
763.655,0.001008,-0.1855469,0.1425781,-0.04882812,-7.359375,-3.601562,12.53125,-0.04101562,0.009765625,-0.005859375,0.171875,-0.03515625,0,-0.02954102,0.005126953,1.306152,0,0,1.290649,0,3.492,0,0,0,0,nan,4,0.176,0,64,0,0,0,0,0,0,0,1,6,0
763.665,0.001012,0.05078125,-0.01953125,0.1035156,4.390625,-0.0078125,4.8125,0.03125,-0.01367188,0.06054688,0.171875,-0.03515625,0,-0.02954102,0.005126953,1.306396,0,0,1.290649,0,3.492,0,0,0,0,nan,4,0.186,0,64,0,0,0,0,0,0,0,1,6,0
763.675,0.000983,-0.1445312,-0.08203125,0.07421875,-2.789062,-3.085938,11.66406,-0.04296875,-0.05664062,0.08984375,0.171875,-0.03515625,0,-0.02954102,0.005126953,1.307251,0,0,1.290649,0,3.492,0,0,0,0,nan,4,0.196,0,64,0,0,0,0,0,0,0,1,6,0
763.685,0.001036,0.109375,-0.203125,0.1796875,3.78125,2.453125,7.640625,0.02539062,-0.01367188,0.1464844,0.171875,-0.03515625,0,-0.02941895,0.005249023,1.308472,0,0,1.290649,0,3.492,0,0,0,0,nan,4,0.006,0,64,0,0,0,0,0,0,0,1,6,1
763.695,0.000995,-0.1445312,0.1054688,0.1191406,-4.460938,0.53125,14.35156,0.0078125,0.02539062,0.15625,0.171875,-0.03515625,0,-0.02954102,0.005126953,1.310059,0,0,1.290649,0,3.492,0,0,0,0,nan,4,0.016,0,64,0,0,0,0,0,0,0,1,6,0
763.705,0.000993,0.4960938,0.2460938,0.1445312,-1.34375,2.265625,7.96875,0.08007812,0.01953125,0.1757812,0.171875,-0.03515625,0,-0.02941895,0.004882812,1.31189,0,0,1.290649,0,3.492,0,0,0,0,nan,4,0.026,0,64,0,0,0,0,0,0,0,1,6,0
763.715,0.001041,-0.06054688,-0.3164062,0.2441406,5.304688,-1.25,4.898438,0.009765625,-0.04492188,0.1757812,0.171875,-0.03515625,0,-0.02929688,0.005004883,1.313477,0,0,1.290649,0,3.492,0,0,0,0,nan,4,0.036,0,64,0,0,0,0,0,0,0,1,6,0
763.725,0.00098,-0.3027344,0.0078125,0.1816406,-0.3671875,-3.164062,8.820312,-0.02148438,-0.0078125,0.1875,0.171875,-0.03515625,0,-0.02929688,0.004882812,1.315308,0,0,1.290649,0,3.492,0,0,0,0,nan,4,0.046,0,64,0,0,0,0,0,0,0,1,6,1
763.735,0.001018,-0.2460938,-0.046875,0.09570312,-0.5,-0.6171875,15.38281,-0.08203125,-0.04296875,0.1035156,0.171875,-0.03515625,0,-0.02929688,0.004760742,1.31665,0,0,1.290649,0,3.492,0,0,0,0,nan,4,0.057,0,64,0,0,0,0,0,0,0,1,6,0
763.744,0.001008,-0.2011719,-0.00390625,0.1523438,2.328125,-1.453125,7.929688,-0.02539062,-0.001953125,0.1152344,0.171875,-0.03515625,0,-0.02941895,0.004760742,1.317505,0,0,1.290649,0,3.492,0,0,0,0,nan,4,0.066,0,64,0,0,0,0,0,0,0,1,6,0
763.755,0.001007,-0.2578125,-0.109375,0.03125,1.132812,2.257812,9.125,-0.0625,-0.02539062,0.06640625,0.171875,-0.03515625,0,-0.02941895,0.004638672,1.318481,0,0,1.290649,0,3.492,0,0,0,0,nan,4,0.076,0,64,0,0,0,0,0,0,0,1,6,1
763.765,0.001044,-0.0859375,-0.0078125,0.05273438,1.367188,1.101562,12.64844,-0.0390625,-0.02734375,0.02539062,0.171875,-0.03515625,0,-0.02954102,0.004516602,1.318726,0,0,1.290649,0,3.492,0,0,0,0,nan,4,0.086,0,64,0,0,0,0,0,0,0,1,6,0
763.775,0.001008,-0.1601562,-0.05664062,-0.00390625,0.8984375,-0.0703125,8.898438,-0.02734375,-0.009765625,0.00390625,0.171875,-0.03515625,0,-0.02954102,0.004516602,1.318726,0,0,1.290649,0,3.492,0,0,0,0,nan,4,0.096,0,64,0,0,0,0,0,0,0,1,6,1
763.785,0.001002,-0.1367188,-0.078125,0.04492188,1.648438,0.3125,6.960938,-0.02148438,-0.02148438,-0.0078125,0.171875,-0.03515625,0,-0.02954102,0.004516602,1.318604,0,0,1.290649,0,3.492,0,0,0,0,nan,4,0.106,0,64,0,0,0,0,0,0,0,1,6,0
763.795,0.001009,-0.03710938,-0.00390625,0.046875,1.476562,-0.3046875,8.304688,0.001953125,0.00390625,-0.0078125,0.171875,-0.03515625,0,-0.02941895,0.004516602,1.318481,0,0,1.290649,0,3.492,0,0,0,0,nan,4,0.116,0,64,0,0,0,0,0,0,0,1,6,0
763.805,0.000979,-0.04492188,-0.06054688,0.01953125,0.9453125,-1.703125,5.859375,0.005859375,-0.0078125,0.001953125,0.171875,-0.03515625,0,-0.02941895,0.004638672,1.318481,0,0,1.290649,0,3.492,0,0,0,0,nan,4,0.126,0,64,0,0,0,0,0,0,0,1,6,0
763.815,0.001016,0.03515625,0.0078125,-0.009765625,0.0390625,-0.4921875,11.4375,0.00390625,0.005859375,-0.01953125,0.171875,-0.03515625,0,-0.02941895,0.004638672,1.318481,0,0,1.290649,0,3.492,0,0,0,0,nan,4,0.136,0,64,0,0,0,0,0,0,0,1,6,0
763.825,0.00101,0.01953125,0.078125,-0.015625,-0.84375,1.046875,12.67969,-0.009765625,0.0078125,0,0.171875,-0.03515625,0,-0.02941895,0.004638672,1.318359,0,0,1.290649,0,3.492,0,0,0,0,nan,4,0.146,0,64,0,0,0,0,0,0,0,1,6,0
763.835,0.001007,-0.04492188,-0.01367188,0,1.101562,-0.171875,7.460938,0,-0.01171875,0.0078125,0.171875,-0.03515625,0,-0.02941895,0.004516602,1.318359,0,0,1.290649,0,3.492,0,0,0,0,nan,4,0.157,0,64,0,0,0,0,0,0,0,1,6,0
763.844,0.00101,0.125,0.01367188,-0.02929688,-0.40625,-0.7578125,10.16406,0.01953125,0.02148438,0,0.171875,-0.03515625,0,-0.02941895,0.004638672,1.318359,0,0,1.290649,0,3.492,0,0,0,0,nan,4,0.166,0,64,0,0,0,0,0,0,0,1,6,1
763.855,0.001002,-0.02929688,0.08789062,-0.005859375,-0.578125,0.9453125,12.9375,-0.01367188,0.00390625,-0.00390625,0.171875,-0.03515625,0,-0.02941895,0.004516602,1.318359,0,0,1.290649,0,3.492,0,0,0,0,nan,4,0.176,0,64,0,0,0,0,0,0,0,1,6,0
763.865,0.001003,-0.046875,-0.05664062,0.02929688,1.492188,-0.5625,5.171875,0.005859375,-0.01171875,-0.005859375,0.171875,-0.03515625,0,-0.02941895,0.004638672,1.318359,0,0,1.290649,0,3.492,0,0,0,0,nan,4,0.186,0,64,0,0,0,0,0,0,0,1,6,0
763.875,0.001009,0.04296875,0.001953125,-0.07226562,-1.414062,0.25,11.72656,0.00390625,0.009765625,0.001953125,0.171875,-0.03515625,0,-0.02941895,0.004638672,1.318359,0,0,1.290649,0,3.492,0,0,0,0,nan,4,0.196,0,64,0,0,0,0,0,0,0,1,6,0
763.885,0.000998,-0.0703125,0.03125,0.04101562,0.28125,0.09375,9.203125,-0.0078125,0,0.005859375,0.171875,-0.03515625,0,-0.02941895,0.004638672,1.318359,0,0,1.290649,0,3.492,0,0,0,0,nan,4,0.206,0,64,0,0,0,0,0,0,0,1,6,1
763.895,0.001038,0.015625,-0.04882812,-0.0234375,-0.0625,-0.7578125,8.695312,-0.001953125,-0.00390625,-0.009765625,0.171875,-0.03515625,0,-0.02941895,0.004638672,1.318359,0,0,1.290649,0,3.492,0,0,0,0,nan,4,0.001,0,64,0,0,0,0,0,0,0,1,6,0
763.905,0.001017,-0.0234375,0.02539062,0.046875,0.21875,1.4375,10.95312,-0.015625,0.009765625,0.01171875,0.171875,-0.03515625,0,-0.02954102,0.004638672,1.318359,0,0,1.290649,0,3.492,0,0,0,0,nan,4,0.011,0,64,0,0,0,0,0,0,0,1,6,0
763.915,0.001015,0.04492188,-0.05078125,-0.02148438,-0.28125,-0.7421875,9.109375,0.005859375,-0.01171875,-0.01171875,0.171875,-0.03515625,0,-0.02954102,0.004638672,1.318359,0,0,1.290649,0,3.492,0,0,0,0,nan,4,0.021,0,64,0,0,0,0,0,0,0,1,6,1
763.925,0.001017,-0.0390625,0.0390625,0.03515625,0.59375,0.859375,10.21875,-0.01171875,0.005859375,0.0078125,0.171875,-0.03515625,0,-0.02954102,0.004638672,1.318359,0,0,1.290649,0,3.492,0,0,0,0,nan,4,0.031,0,64,0,0,0,0,0,0,0,1,6,1
763.935,0.001015,0.01171875,-0.0234375,-0.05664062,-0.9609375,0.125,9.304688,-0.00390625,-0.005859375,-0.01757812,0.171875,-0.03515625,0,-0.02954102,0.004638672,1.318359,0,0,1.290649,0,3.492,0,0,0,0,nan,4,0.041,0,64,0,0,0,0,0,0,0,1,6,1
763.944,0.001012,0,-0.02734375,-0.005859375,0.0859375,-0.953125,9.054688,0.005859375,-0.009765625,-0.01757812,0.171875,-0.03515625,0,-0.02954102,0.004638672,1.318359,0,0,1.290649,0,3.492,0,0,0,0,nan,4,0.051,0,64,0,0,0,0,0,0,0,1,6,1
763.954,0.00101,-0.05078125,0.00390625,0.03125,-0.0546875,0.203125,10.82812,-0.009765625,0.001953125,0.009765625,0.171875,-0.03515625,0,-0.02954102,0.004638672,1.318359,0,0,1.290649,0,3.492,0,0,0,0,nan,4,0.061,0,64,0,0,0,0,0,0,0,1,6,0
763.965,0.0009869999,-0.00390625,-0.01757812,-0.07226562,-1.398438,0.34375,9.359375,-0.005859375,-0.001953125,-0.009765625,0.171875,-0.03515625,0,-0.02954102,0.004516602,1.318359,0,0,1.290649,0,3.492,0,0,0,0,nan,4,0.071,0,64,0,0,0,0,0,0,0,1,6,1
763.975,0.001012,0.001953125,-0.005859375,-0.00390625,-0.140625,-1.421875,9.765625,0.0078125,-0.009765625,-0.01171875,0.171875,-0.03515625,0,-0.02954102,0.004516602,1.318359,0,0,1.290649,0,3.492,0,0,0,0,nan,4,0.081,0,64,0,0,0,0,0,0,0,1,6,1
763.985,0.001012,-0.03125,0.01367188,0.046875,0.4609375,-0.2578125,10.14844,-0.001953125,0.005859375,0.02148438,0.171875,-0.03515625,0,-0.02954102,0.004516602,1.318359,0,0,1.290649,0,3.492,0,0,0,0,nan,4,0.091,0,64,0,0,0,0,0,0,0,1,6,1
763.995,0.001009,0.0078125,-0.02539062,-0.06445312,-0.8203125,-0.6328125,9.539062,0,0.001953125,0.001953125,0.171875,-0.03515625,0,-0.02966309,0.004516602,1.318359,0,0,1.290649,0,3.492,0,0,0,0,nan,4,0.101,0,64,0,0,0,0,0,0,0,1,6,1
764.005,0.001015,0.02148438,0.009765625,0.03515625,0.4140625,-0.9296875,10.24219,0.005859375,0.001953125,-0.00390625,0.171875,-0.03515625,0,-0.02966309,0.004394531,1.318359,0,0,1.290649,0,3.492,0,0,0,0,nan,4,0.111,0,64,0,0,0,0,0,0,0,1,6,1
764.015,0.001012,-0.0078125,0.03125,0.08789062,0.6875,-0.125,9.1875,-0.001953125,0.009765625,0.01953125,0.171875,-0.03515625,0,-0.02966309,0.004394531,1.318359,0,0,1.290649,0,3.492,0,0,0,0,nan,4,0.121,0,64,0,0,0,0,0,0,0,1,6,1
764.025,0.001015,-0.02148438,0.0234375,-0.03125,0.8984375,-0.1953125,9.9375,-0.01171875,0.0078125,0.005859375,0.171875,-0.03515625,0,-0.02966309,0.004394531,1.318481,0,0,1.290649,0,3.492,0,0,0,0,nan,4,0.131,0,64,0,0,0,0,0,0,0,1,6,1
764.035,0.001007,-0.03515625,-0.03125,-0.08007812,-0.5859375,0.3125,11.125,-0.01367188,-0.001953125,-0.01757812,0.171875,-0.03515625,0,-0.02966309,0.004394531,1.318481,0,0,1.290649,0,3.492,0,0,0,0,nan,4,0.141,0,64,0,0,0,0,0,0,0,1,6,0
764.044,0.001007,-0.01171875,-0.02148438,-0.05273438,-0.6796875,0,10.84375,-0.0078125,-0.001953125,-0.015625,0.171875,-0.03515625,0,-0.02966309,0.004394531,1.318481,0,0,1.290649,0,3.492,0,0,0,0,nan,4,0.15,0,64,0,0,0,0,0,0,0,1,6,0
764.055,0.001013,0.03125,-0.00390625,0.05078125,-0.3203125,-0.1171875,9.289062,0,0.001953125,0,0.171875,-0.03515625,0,-0.02966309,0.004394531,1.318359,0,0,1.290649,0,3.492,0,0,0,0,nan,4,0.161,0,64,0,0,0,0,0,0,0,1,6,1
764.065,0.001009,0.02539062,0.001953125,0.04882812,-0.171875,-0.828125,8.460938,0,0,0.01171875,0.171875,-0.03515625,0,-0.02966309,0.004394531,1.318359,0,0,1.290649,0,3.492,0,0,0,0,nan,4,0.171,0,64,0,0,0,0,0,0,0,1,6,0
764.075,0.001014,-0.00390625,-0.005859375,-0.04492188,-0.3046875,-0.71875,9.40625,0,-0.00390625,-0.005859375,0.171875,-0.03515625,0,-0.02978516,0.004272461,1.318359,0,0,1.290649,0,3.492,0,0,0,0,nan,4,0.181,0,64,0,0,0,0,0,0,0,1,6,1
764.085,0.001015,0.009765625,0,-0.0390625,0.2734375,-0.7421875,10.26562,0.005859375,0,-0.009765625,0.171875,-0.03515625,0,-0.02978516,0.004272461,1.318359,0,0,1.290649,0,3.492,0,0,0,0,nan,4,0.007,0,64,0,0,0,0,0,0,0,1,6,1
764.095,0.00101,-0.001953125,0.01953125,0.05664062,0.8828125,-0.890625,10.22656,0,0.0078125,0.0078125,0.171875,-0.03515625,0,-0.02978516,0.004272461,1.318359,0,0,1.290649,0,3.492,0,0,0,0,nan,4,0.017,0,64,0,0,0,0,0,0,0,1,6,1
764.105,0.001012,-0.01171875,0.01953125,0.046875,0.609375,-0.71875,9.742188,-0.00390625,0.005859375,0.01171875,0.171875,-0.03515625,0,-0.02978516,0.004272461,1.318359,0,0,1.290649,0,3.492,0,0,0,0,nan,4,0.027,0,64,0,0,0,0,0,0,0,1,6,1
764.115,0.001012,-0.0234375,-0.00390625,-0.01757812,0.0703125,-0.5703125,9.953125,-0.00390625,-0.001953125,0.00390625,0.171875,-0.03515625,0,-0.02978516,0.004272461,1.318359,0,0,1.290649,0,3.492,0,0,0,0,nan,4,0.037,0,64,0,0,0,0,0,0,0,1,6,1
764.125,0.001012,0,0.001953125,-0.009765625,0.59375,-0.2890625,9.859375,0.005859375,0.00390625,0.001953125,0.171875,-0.03515625,0,-0.02978516,0.004272461,1.318359,0,0,1.290649,0,3.492,0,0,0,0,nan,4,0.047,0,64,0,0,0,0,0,0,0,1,6,1
764.135,0.001013,-0.01367188,0.02539062,0.03320312,0.8515625,-0.390625,10.22656,-0.00390625,0.0078125,0,0.171875,-0.03515625,0,-0.02990723,0.004150391,1.318359,0,0,1.290649,0,3.804,0,0,0,0,nan,4,0.058,0,0,0,0,0,0,0,0,0,1,6,1
764.144,0.001008,-0.0078125,0.015625,0.01757812,0.1015625,-0.984375,9.921875,0.005859375,0,-0.001953125,0.171875,-0.03515625,0,-0.02978516,0.004150391,1.318359,0,0,1.290649,0,3.804,0,0,0,0,nan,4,0.067,0,0,0,0,0,0,0,0,0,1,6,1
764.155,0.001007,0.001953125,0.0234375,0.03710938,0.53125,-0.6328125,9.898438,0.00390625,0.005859375,0.01171875,0.171875,-0.03515625,0,-0.02990723,0.004150391,1.318359,0,0,1.290649,0,3.804,0,0,0,0,nan,4,0.077,0,0,0,0,0,0,0,0,0,1,6,1
764.165,0.001008,0.001953125,0.0234375,0,0.078125,-0.546875,10.08594,0.001953125,0.001953125,-0.009765625,0.171875,-0.03515625,0,-0.02990723,0.00402832,1.318359,0,0,1.290649,0,3.804,0,0,0,0,nan,4,0.087,0,0,0,0,0,0,0,0,0,1,6,1
764.175,0.001011,0.0078125,0.015625,-0.005859375,-0.1640625,-0.875,10.14844,0.009765625,0.001953125,-0.00390625,0.171875,-0.03515625,0,-0.02990723,0.00402832,1.318359,0,0,1.290649,0,3.804,0,0,0,0,nan,4,0.097,0,0,0,0,0,0,0,0,0,1,6,1
764.185,0.001013,0.01953125,0.01953125,0.001953125,0.3125,-0.3515625,10.10156,0.005859375,0.0078125,-0.005859375,0.171875,-0.03515625,0,-0.02990723,0.00402832,1.318359,0,0,1.290649,0,3.804,0,0,0,0,nan,4,0.107,0,0,0,0,0,0,0,0,0,1,6,1
764.195,0.001004,-0.001953125,0.00390625,-0.01757812,-0.3828125,-0.5234375,9.796875,-0.001953125,0,-0.009765625,0.171875,-0.03515625,0,-0.02990723,0.00402832,1.318359,0,0,1.290649,0,3.804,0,0,0,0,nan,4,0.117,0,0,0,0,0,0,0,0,0,1,6,1
764.205,0.001008,0.01171875,-0.02148438,-0.01367188,-0.3984375,-0.375,9.640625,0.00390625,-0.00390625,0.00390625,0.171875,-0.03515625,0,-0.02990723,0.00390625,1.318359,0,0,1.290649,0,3.804,0,0,0,0,nan,4,0.127,0,0,0,0,0,0,0,0,0,1,6,1
764.215,0.001007,-0.0078125,0.00390625,-0.01367188,-0.203125,0.3984375,9.976562,-0.009765625,0.00390625,-0.005859375,0.171875,-0.03515625,0,-0.0300293,0.00390625,1.318359,0,0,1.290649,0,3.804,0,0,0,0,nan,4,0.137,0,0,0,0,0,0,0,0,0,1,6,1
764.225,0.001008,-0.01367188,-0.01953125,-0.005859375,-0.3125,-0.296875,9.65625,-0.00390625,-0.001953125,0.009765625,0.171875,-0.03515625,0,-0.0300293,0.00390625,1.318481,0,0,1.290649,0,3.804,0,0,0,0,nan,4,0.147,0,0,0,0,0,0,0,0,0,1,6,1
764.235,0.001007,-0.01367188,0.009765625,0.02539062,0.8125,-0.03125,9.773438,-0.0078125,0.01367188,0.009765625,0.171875,-0.03515625,0,-0.0300293,0.00390625,1.318359,0,0,1.290649,0,3.804,0,0,0,0,nan,4,0.158,0,0,0,0,0,0,0,0,0,1,6,1
764.244,0.001012,-0.001953125,-0.00390625,-0.00390625,-0.2265625,-1.0625,9.765625,0.005859375,-0.0078125,-0.005859375,0.171875,-0.03515625,0,-0.0300293,0.00378418,1.318359,0,0,1.290649,0,3.804,0,0,0,0,nan,4,0.167,0,0,0,0,0,0,0,0,0,1,6,1
764.254,0.001013,0.01367188,-0.001953125,0.00390625,0.015625,-0.125,9.835938,0.001953125,0.001953125,-0.00390625,0.171875,-0.03515625,0,-0.0300293,0.00378418,1.318359,0,0,1.290649,0,3.804,0,0,0,0,nan,4,0.177,0,0,0,0,0,0,0,0,0,1,6,1
764.265,0.000998,-0.00390625,-0.01757812,-0.03710938,-0.9140625,-0.2890625,9.859375,-0.001953125,-0.01171875,-0.009765625,0.171875,-0.03515625,0,-0.0300293,0.00378418,1.318481,0,0,1.290649,0,3.804,0,0,0,0,nan,4,0.187,0,0,0,0,0,0,0,0,0,1,6,1
764.275,0.001048,-0.005859375,-0.005859375,0.01953125,0.328125,0.3203125,9.953125,-0.005859375,0.005859375,0.01367188,0.171875,-0.03515625,0,-0.03015137,0.00378418,1.318359,0,0,1.290649,0,3.804,0,0,0,0,nan,4,0.197,0,0,0,0,0,0,0,0,0,1,6,1
764.285,0.001009,-0.015625,0.005859375,-0.00390625,-0.1484375,-0.6953125,9.84375,0,0,-0.00390625,0.171875,-0.03515625,0,-0.03015137,0.003662109,1.318481,0,0,1.290649,0,3.804,0,0,0,0,nan,4,0.207,0,0,0,0,0,0,0,0,0,1,6,1
764.295,0.001015,0.005859375,0,0.03320312,0.5625,-0.5859375,9.96875,0.001953125,0.005859375,0.0078125,0.171875,-0.03515625,0,-0.03015137,0.00378418,1.318359,0,0,1.290649,0,3.804,0,0,0,0,nan,4,0.217,0,0,0,0,0,0,0,0,0,1,6,1
764.305,0.001012,0.0078125,0.0078125,-0.0390625,-0.6484375,-0.4296875,9.789062,0,-0.005859375,-0.02148438,0.171875,-0.03515625,0,-0.03015137,0.003662109,1.318359,0,0,1.290649,0,3.804,0,0,0,0,nan,4,0.227,0,0,0,0,0,0,0,0,0,1,6,1
764.315,0.001013,0.00390625,-0.01953125,0.009765625,0.2890625,0.2109375,9.851562,-0.00390625,0,0.015625,0.171875,-0.03515625,0,-0.03015137,0.003662109,1.318359,0,0,1.290649,0,3.804,0,0,0,0,nan,4,0.237,0,0,0,0,0,0,0,0,0,1,6,1
764.325,0.001004,-0.01953125,0.0078125,-0.005859375,0.078125,-0.4453125,9.695312,-0.00390625,0.001953125,-0.001953125,0.171875,-0.03515625,0,-0.03015137,0.003662109,1.318359,0,0,1.290649,0,3.804,0,0,0,0,nan,4,0.247,0,0,0,0,0,0,0,0,0,1,6,1
764.335,0.001013,0.015625,-0.00390625,0.02734375,0.59375,-0.3671875,9.9375,0.00390625,0.005859375,0.00390625,0.171875,-0.03515625,0,-0.03015137,0.003662109,1.318359,0,0,1.290649,0,3.804,0,0,0,0,nan,4,0.258,0,0,0,0,0,0,0,0,0,1,6,1
764.344,0.000992,-0.001953125,-0.00390625,-0.0390625,-0.7421875,-0.265625,9.789062,-0.001953125,-0.009765625,-0.005859375,0.171875,-0.03515625,0,-0.03015137,0.003417969,1.318481,0,0,1.290649,0,3.804,0,0,0,0,nan,4,0.267,0,0,0,0,0,0,0,0,0,1,6,1
764.355,0.001002,-0.01367188,0.005859375,0.03710938,0.8828125,0.15625,9.921875,-0.009765625,0.015625,0.009765625,0.171875,-0.03515625,0,-0.03027344,0.003540039,1.318359,0,0,1.290649,0,3.804,0,0,0,0,nan,4,0.004,0,0,0,0,0,0,0,0,0,1,6,1
764.365,0.000992,0.009765625,0.01171875,-0.009765625,-0.3359375,-1.03125,9.890625,0.009765625,-0.005859375,0,0.171875,-0.03515625,0,-0.03015137,0.003417969,1.318359,0,0,1.290649,0,3.804,0,0,0,0,nan,4,0.014,0,0,0,0,0,0,0,0,0,1,6,1
764.375,0.000966,-0.00390625,-0.00390625,-0.0234375,0.15625,0.5,9.851562,-0.01367188,0.005859375,-0.015625,0.171875,-0.03515625,0,-0.03027344,0.003540039,1.318359,0,0,1.290649,0,3.804,0,0,0,0,nan,4,0.024,0,0,0,0,0,0,0,0,0,1,6,1
764.385,0.001002,0,-0.01367188,0.0234375,-0.015625,-0.5703125,9.804688,0.005859375,-0.005859375,0.02734375,0.171875,-0.03515625,0,-0.03015137,0.003417969,1.318481,0,0,1.290649,0,3.804,0,0,0,0,nan,4,0.034,0,0,0,0,0,0,0,0,0,1,6,1
764.395,0.000997,-0.0078125,0.01953125,0.00390625,0.453125,-0.375,9.898438,-0.00390625,0.0078125,-0.015625,0.171875,-0.03515625,0,-0.03027344,0.003417969,1.318359,0,0,1.290649,0,3.804,0,0,0,0,nan,4,0.044,0,0,0,0,0,0,0,0,0,1,6,1
764.404,0.001192,0.01757812,-0.0234375,0.0078125,-0.359375,-0.1328125,9.835938,0.001953125,-0.01171875,0.015625,0.171875,-0.03515625,0,-0.03015137,0.003295898,1.318481,0,0,1.290649,0,3.804,0,0,0,0,nan,4,0.054,0,0,0,0,0,0,0,0,0,1,6,1
764.415,0.001151,-0.0234375,0.005859375,-0.0078125,0.359375,-0.40625,9.898438,-0.00390625,0.005859375,0,0.171875,-0.03515625,0,-0.03015137,0.003295898,1.318481,0,0,1.290649,0,3.804,0,0,0,0,nan,4,0.064,0,0,0,0,0,0,0,0,0,1,6,1
764.425,0.001208,0.01953125,0.001953125,-0.001953125,-0.1875,-0.34375,9.820312,0.00390625,-0.001953125,-0.01367188,0.171875,-0.03515625,0,-0.03015137,0.003295898,1.318359,0,0,1.290649,0,3.804,0,0,0,0,nan,4,0.074,0,0,0,0,0,0,0,0,0,1,6,1
764.435,0.001007,-0.01171875,-0.01171875,-0.01953125,-0.2578125,-0.0234375,9.8125,-0.005859375,-0.00390625,0.01171875,0.171875,-0.03515625,0,-0.03027344,0.003173828,1.318604,0,0,1.290649,0,3.804,0,0,0,0,nan,4,0.085,0,0,0,0,0,0,0,0,0,1,6,1
