t,dt_s,gyro_x,gyro_y,gyro_z,acc_x,acc_y,acc_z,rates.x,rates.y,rates.z,ratesTarget.x,ratesTarget.y,ratesTarget.z,attitude.x,attitude.y,attitude.z,attitudeTarget.x,attitudeTarget.y,attitudeTarget.z,thrustTarget,battery_v,rc_roll,rc_pitch,rc_yaw,rc_throttle,rc_mode,flight_mode,rc_age_s,armed,fault_mask,motor_rl,motor_rr,motor_fr,motor_fl,rate_i_x,rate_i_y,rate_i_z,mix_scale,control_source,accel_correction_confidence
1047.476,0.001006,-0.0078125,0.01757812,-0.0234375,0.78125,6.3125,10.64062,-0.009765625,0.0078125,0.00390625,0.4082031,0.05273438,0,-0.09130859,-0.02111816,0.4290771,0,0,0.1604004,0,3.985,0,0,0,0,nan,2,0.265,1,0,0.1000061,0.1000061,0.1000061,0.1000061,0,0,0,1,2,0
1047.486,0.001009,0,-0.009765625,-0.03710938,0.3046875,-0.109375,9.5625,-0.005859375,0.001953125,-0.0390625,0.4082031,0.05273438,0,-0.09130859,-0.02111816,0.4287109,0,0,0.1604004,0,3.985,0,0,0,0,nan,2,0.275,1,0,0.1000061,0.1000061,0.1000061,0.1000061,0,0,0,1,2,0.4444444
1047.496,0.001009,0.02929688,0.0234375,0.03515625,-0.6953125,-1.117188,2.882812,0.01171875,0.001953125,0.01171875,0.4082031,0.05273438,0,-0.09118652,-0.02124023,0.4285889,0,0,0.1604004,0,3.985,0,0,0,0,nan,2,0.285,1,0,0.1000061,0.1000061,0.1000061,0.1000061,0,0,0,1,2,0
1047.506,0.001048,-0.03125,-0.00390625,0.001953125,-2.390625,4.140625,12,-0.015625,0.005859375,0.015625,0.4082031,0.05273438,0,-0.09118652,-0.02111816,0.428833,0,0,0.1604004,0,3.985,0,0,0,0,nan,2,0.295,1,0,0.1000061,0.1000061,0.1000061,0.1000061,0,0,0,1,2,0
1047.516,0.001009,-0.0234375,0.01171875,-0.03320312,-1.3125,-0.953125,14.17188,-0.009765625,0.005859375,-0.02929688,0.4082031,0.05273438,0,-0.09130859,-0.02111816,0.4287109,0,0,0.1604004,0,3.985,0,0,0,0,nan,2,0.305,1,0,0.1000061,0.1000061,0.1000061,0.1000061,0,0,0,1,2,0
1047.527,0.001009,0.02148438,-0.01171875,0.03125,-1.6875,-5.757812,8.429688,0.005859375,-0.001953125,0.00390625,0.4082031,0.05273438,0,-0.09130859,-0.02111816,0.4284668,0,0,0.1604004,0,3.985,0,0,0,0,nan,2,0.315,1,0,0.1000061,0.1000061,0.1000061,0.1000061,0,0,0,1,2,0
1047.537,0.001009,-0.0078125,0.02148438,0.02734375,0.5859375,-0.8671875,7.992188,0.001953125,-0.00390625,0.03320312,0.4082031,0.05273438,0,-0.09130859,-0.02111816,0.428833,0,0,0.1604004,0,3.985,0,0,0,0,nan,2,0.325,1,0,0.1000061,0.1000061,0.1000061,0.1000061,0,0,0,1,2,0
1047.546,0.001009,0.0234375,0.01953125,-0.03320312,1.640625,0.140625,11.16406,0.00390625,0.001953125,-0.015625,0.4082031,0.05273438,0,-0.09118652,-0.02111816,0.428833,0,0,0.1604004,0,3.985,0,0,0,0,nan,2,0.334,1,0,0.1000061,0.1000061,0.1000061,0.1000061,0,0,0,1,2,0
1047.556,0.001009,0.01171875,0.009765625,0.005859375,-0.2265625,-2.929688,10.77344,0,0.001953125,-0.015625,0.4082031,0.05273438,0,-0.09118652,-0.02111816,0.4285889,0,0,0.1604004,0,3.985,0,0,0,0,nan,2,0.344,1,0,0.1000061,0.1000061,0.1000061,0.1000061,0,0,0,1,2,0
1047.566,0.000993,-0.01953125,-0.02148438,0.02148438,0.09375,-2.179688,2.054688,-0.01367188,-0.00390625,0.01757812,0.4082031,0.05273438,0,-0.09130859,-0.02111816,0.4287109,0,0,0.1604004,0,3.985,0,0,0,0,nan,2,0.354,1,0,0.1000061,0.1000061,0.1000061,0.1000061,0,0,0,1,2,0
1047.576,0.001033,-0.0078125,0.01367188,0.015625,-0.4609375,4.875,5.9375,0.00390625,0.00390625,0.0234375,0.4082031,0.05273438,0,-0.09130859,-0.02111816,0.4289551,0,0,0.1604004,0,3.985,0,0,0,0,nan,2,0.365,1,0,0.1000061,0.1000061,0.1000061,0.1000061,0,0,0,1,2,0
1047.586,0.001008,0.009765625,0.005859375,-0.05273438,-1.945312,6.140625,14.50781,-0.0078125,0.00390625,-0.03125,0.4082031,0.05273438,0,-0.09143066,-0.02111816,0.428833,0,0,0.1604004,0,3.985,0,0,0,0,nan,2,0.375,1,0,0.1000061,0.1000061,0.1000061,0.1000061,0,0,0,1,2,0
1047.596,0.001011,0.009765625,-0.00390625,0.005859375,-1.476562,-1.046875,11.625,-0.00390625,0.0078125,-0.01367188,0.4082031,0.05273438,0,-0.09143066,-0.02099609,0.4285889,0,0,0.1604004,0,3.985,0,0,0,0,nan,2,0.385,1,0,0.1000061,0.1000061,0.1000061,0.1000061,0,0,0,1,2,0
1047.606,0.001011,0.01953125,0.01953125,0.04492188,-1.820312,-5.179688,3.0625,0,0.00390625,0.03515625,0.4082031,0.05273438,0,-0.09143066,-0.02099609,0.4287109,0,0,0.1604004,0,3.985,0,0,0,0,nan,2,0.395,1,0,0.1000061,0.1000061,0.1000061,0.1000061,0,0,0,1,2,0
1047.616,0.001011,-0.001953125,0.00390625,-0.03320312,-0.5078125,1.515625,8.789062,-0.00390625,-0.001953125,-0.0078125,0.4082031,0.05273438,0,-0.09143066,-0.02099609,0.428833,0,0,0.1604004,0,3.985,0,0,0,0,nan,2,0.405,1,0,0.1000061,0.1000061,0.1000061,0.1000061,0,0,0,1,2,0
1047.626,0.001011,0.001953125,-0.00390625,-0.02148438,-0.4375,0.3046875,12.0625,-0.005859375,0.0078125,-0.02539062,0.4082031,0.05273438,0,-0.09143066,-0.02099609,0.4285889,0,0,0.1604004,0,3.985,0,0,0,0,nan,2,0.415,1,0,0.1000061,0.1000061,0.1000061,0.1000061,0,0,0,1,2,0
1047.637,0.001011,0.01171875,0.0078125,0.03320312,-0.8515625,-6.34375,6.203125,-0.001953125,0,0.01367188,0.4082031,0.05273438,0,-0.09155273,-0.02099609,0.4285889,0,0,0.1604004,0,3.985,0,0,0,0,nan,2,0.425,1,0,0.1000061,0.1000061,0.1000061,0.1000061,0,0,0,1,2,0
1047.646,0.001009,-0.046875,-0.0078125,-0.00390625,2.125,-0.6875,13.38281,-0.01171875,0.00390625,0.01171875,0.4082031,0.05273438,0,-0.09155273,-0.02087402,0.4287109,0,0,0.1604004,0,3.985,0,0,0,0,nan,2,0.434,1,0,0.1000061,0.1000061,0.1000061,0.1000061,0,0,0,1,2,0
1047.656,0.001009,0,-0.00390625,0.01757812,-1.585938,4.585938,7.03125,-0.00390625,-0.0078125,0.01367188,0.4082031,0.05273438,0,-0.09155273,-0.02087402,0.428833,0,0,0.1604004,0,3.985,0,0,0,0,nan,2,0.444,1,0,0.1000061,0.1000061,0.1000061,0.1000061,0,0,0,1,2,0
1047.666,0.001006,-0.00390625,0.0078125,-0.015625,-1.835938,5.273438,15.60156,-0.00390625,0.005859375,0.001953125,0.4082031,0.05273438,0,-0.0916748,-0.02087402,0.4289551,0,0,0.1604004,0,3.985,0,0,0,0,nan,2,0.454,1,0,0.1000061,0.1000061,0.1000061,0.1000061,0,0,0,1,2,0
1047.676,0.001009,-0.009765625,0.005859375,-0.0078125,-2.804688,-1.398438,12.24219,-0.001953125,0.009765625,-0.01367188,0.4082031,0.05273438,0,-0.0916748,-0.02087402,0.428833,0,0,0.1604004,0,3.985,0,0,0,0,nan,2,0.465,1,0,0.1000061,0.1000061,0.1000061,0.1000061,0,0,0,1,2,0
1047.686,0.00101,-0.00390625,0.0078125,0.05078125,-0.84375,-2.921875,4.875,0.00390625,0.0078125,0.03125,0.4082031,0.05273438,0,-0.0916748,-0.02075195,0.428833,0,0,0.1604004,0,3.985,0,0,0,0,nan,2,0.475,1,0,0.1000061,0.1000061,0.1000061,0.1000061,0,0,0,1,2,0
1047.696,0.001035,0.02148438,-0.00390625,-0.001953125,0.03125,3.570312,8.671875,0.0078125,-0.005859375,0.02148438,0.4082031,0.05273438,0,-0.09155273,-0.02075195,0.4291992,0,0,0.1604004,0,3.985,0,0,0,0,nan,2,0.485,1,0,0.1000061,0.1000061,0.1000061,0.1000061,0,0,0,1,2,0.07936508
1047.706,0.001011,-0.009765625,0.01953125,-0.05273438,0.0078125,2.898438,14.38281,0.005859375,0.009765625,-0.04492188,0.4082031,0.05273438,0,-0.09143066,-0.02075195,0.4290771,0,0,0.1604004,0,3.985,0,0,0,0,nan,2,0.495,1,0,0.1000061,0.1000061,0.1000061,0.1000061,0,0,0,1,2,0
1047.716,0.001011,0.0078125,0.00390625,0.04101562,1.109375,-4.78125,8.789062,0.01367188,0,0.009765625,0.4082031,0.05273438,0,-0.09130859,-0.02075195,0.428833,0,0,0.1604004,0,3.985,0,0,0,0,nan,2,0.505,1,0,0.1000061,0.1000061,0.1000061,0.1000061,0,0,0,1,2,0.3174603
1047.726,0.001011,-0.009765625,0.001953125,0.01953125,2.09375,-3.953125,2.203125,0.005859375,-0.00390625,0.03320312,0.4082031,0.05273438,0,-0.09118652,-0.02075195,0.4290771,0,0,0.1604004,0,3.985,0,0,0,0,nan,2,0.515,1,0,0.1000061,0.1000061,0.1000061,0.1000061,0,0,0,1,2,0
1047.737,0.001011,-0.015625,0.01171875,-0.03320312,-0.046875,1.578125,9.546875,0,0.001953125,-0.015625,0.4082031,0.05273438,0,-0.09118652,-0.02075195,0.4291992,0,0,0.1604004,0,3.985,0,0,0,0,nan,2,0.525,1,0,0.1000061,0.1000061,0.1000061,0.1000061,0,0,0,1,2,0.6666667
1047.746,0.001003,-0.02539062,0,-0.01757812,3.335938,1.78125,8.648438,-0.005859375,0,-0.02539062,0.4082031,0.05273438,0,-0.09118652,-0.02075195,0.4289551,0,0,0.1604004,0,3.987,0,0,0,0,nan,2,0.534,1,0,0.1000061,0.1000061,0.1000061,0.1000061,0,0,0,1,2,0.2063492
1047.756,0.001003,-0.009765625,0.0078125,0.03320312,-0.640625,-3,15.11719,-0.005859375,0,0.01953125,0.4082031,0.05273438,0,-0.09118652,-0.02075195,0.4289551,0,0,0.1604004,0,3.987,0,0,0,0,nan,2,0.544,1,0,0.1000061,0.1000061,0.1000061,0.1000061,0,0,0,1,2,0
1047.766,0.001,0.03515625,-0.015625,0.01171875,1.445312,-4.070312,9,0.015625,0,0.0234375,0.4082031,0.05273438,0,-0.09118652,-0.02075195,0.4291992,0,0,0.1604004,0,3.987,0,0,0,0,nan,2,0.554,1,0,0.1000061,0.1000061,0.1000061,0.1000061,0,0,0,1,2,0.5079365
1047.776,0.00104,-0.02148438,0.0078125,-0.04296875,3.398438,2.328125,8.40625,-0.01171875,0,-0.02734375,0.4082031,0.05273438,0,-0.09118652,-0.02075195,0.4291992,0,0,0.1604004,0,3.987,0,0,0,0,nan,2,0.565,1,0,0.1000061,0.1000061,0.1000061,0.1000061,0,0,0,1,2,0.03174603
1047.786,0.001001,-0.001953125,-0.001953125,0.009765625,4.007812,6.523438,15.09375,-0.001953125,0.001953125,-0.009765625,0.4082031,0.05273438,0,-0.09130859,-0.02075195,0.4289551,0,0,0.1604004,0,3.987,0,0,0,0,nan,2,0.575,1,0,0.1000061,0.1000061,0.1000061,0.1000061,0,0,0,1,2,0
1047.796,0.001003,-0.00390625,-0.04296875,0.02148438,2.492188,1.179688,14.39062,0.001953125,-0.009765625,0.01757812,0.4082031,0.05273438,0,-0.09118652,-0.02075195,0.4290771,0,0,0.1604004,0,3.987,0,0,0,0,nan,2,0.585,1,0,0.1000061,0.1000061,0.1000061,0.1000061,0,0,0,1,2,0
1047.806,0.001003,0.03710938,-0.03515625,0,1.453125,-2.632812,8.039062,0.0078125,-0.001953125,0.01367188,0.4082031,0.05273438,0,-0.09130859,-0.02075195,0.4291992,0,0,0.1604004,0,3.987,0,0,0,0,nan,2,0.595,1,0,0.1000061,0.1000061,0.1000061,0.1000061,0,0,0,1,2,0
1047.817,0.001012,0.01171875,-0.009765625,-0.04492188,-0.125,-2.203125,7.695312,-0.00390625,0.009765625,-0.03515625,0.4082031,0.05273438,0,-0.09118652,-0.02075195,0.4290771,0,0,0.1604004,0,3.987,0,0,0,0,nan,2,0.605,1,0,0.1000061,0.1000061,0.1000061,0.1000061,0,0,0,1,2,0
1047.826,0.001003,0.01171875,0.01757812,0.03320312,-1.710938,1.3125,12.19531,0.001953125,0.00390625,0.009765625,0.4082031,0.05273438,0,-0.09130859,-0.02075195,0.4289551,0,0,0.1604004,0,3.987,0,0,0,0,nan,2,0.615,1,0,0.1000061,0.1000061,0.1000061,0.1000061,0,0,0,1,2,0
1047.837,0.001003,-0.03125,-0.03125,0.0390625,-0.8515625,-0.7890625,15.94531,0,-0.01171875,0.03515625,0.4082031,0.05273438,0,-0.09118652,-0.02075195,0.4291992,0,0,0.1604004,0,3.987,0,0,0,0,nan,2,0.625,1,0,0.1000061,0.1000061,0.1000061,0.1000061,0,0,0,1,2,0
1047.846,0.001017,-0.04882812,0.05078125,-0.05859375,-2.34375,5.257812,16.03906,-0.0078125,0.01171875,-0.015625,0.4082031,0.05273438,0,-0.09130859,-0.02062988,0.4293213,0,0,0.1604004,0,3.987,0,0,0,0,nan,2,0.634,1,0,0.1000061,0.1000061,0.1000061,0.1000061,0,0,0,1,2,0
1047.856,0.001017,-0.01757812,-0.01367188,0.009765625,-1.226562,-4.921875,1.546875,-0.01757812,-0.001953125,-0.0234375,0.4082031,0.05273438,0,-0.09143066,-0.02062988,0.4289551,0,0,0.1604004,0,3.987,0,0,0,0,nan,2,0.644,1,0,0.1000061,0.1000061,0.1000061,0.1000061,0,0,0,1,2,0
1047.866,0.001022,-0.046875,0.01367188,0.05078125,-1.21875,3.601562,5.96875,-0.01953125,-0.01953125,0.046875,0.4082031,0.05273438,0,-0.09155273,-0.02075195,0.4291992,0,0,0.1604004,0,3.987,0,0,0,0,nan,2,0.654,1,0,0.1000061,0.1000061,0.1000061,0.1000061,0,0,0,1,2,0
1047.876,0.001017,-0.04296875,0.03125,-0.06054688,-0.6484375,4.679688,12.5,-0.02734375,0.001953125,-0.01367188,0.4082031,0.05273438,0,-0.0916748,-0.02075195,0.4294434,0,0,0.1604004,0,3.987,0,0,0,0,nan,2,0.665,1,0,0.1000061,0.1000061,0.1000061,0.1000061,0,0,0,1,2,0
1047.886,0.001017,0.001953125,-0.005859375,-0.04101562,-1.804688,0.625,8.960938,-0.01757812,0.00390625,-0.06054688,0.4082031,0.05273438,0,-0.09179688,-0.02075195,0.428833,0,0,0.1604004,0,3.987,0,0,0,0,nan,2,0.675,1,0,0.1000061,0.1000061,0.1000061,0.1000061,0,0,0,1,2,0
1047.896,0.001017,0.04296875,-0.05078125,0.06835938,-0.6328125,-0.609375,6.515625,0.001953125,-0.009765625,0.03710938,0.4082031,0.05273438,0,-0.09191895,-0.02087402,0.428833,0,0,0.1604004,0,3.987,0,0,0,0,nan,2,0.685,1,0,0.1000061,0.1000061,0.1000061,0.1000061,0,0,0,1,2,0
1047.906,0.001017,0.01953125,-0.05273438,-0.03320312,0.7734375,2.921875,11.17969,0.00390625,-0.015625,0.009765625,0.4082031,0.05273438,0,-0.09191895,-0.02099609,0.4291992,0,0,0.1604004,0,3.987,0,0,0,0,nan,2,0.695,1,0,0.1000061,0.1000061,0.1000061,0.1000061,0,0,0,1,2,0
1047.916,0.001017,-0.04492188,0.0078125,-0.05664062,1.617188,3.09375,18.52344,-0.015625,0,-0.06835938,0.4082031,0.05273438,0,-0.09216309,-0.02099609,0.4287109,0,0,0.1604004,0,3.987,0,0,0,0,nan,2,0.705,1,0,0.1000061,0.1000061,0.1000061,0.1000061,0,0,0,1,2,0
1047.926,0.001017,-0.04882812,-0.03515625,0.0859375,2.46875,-5.820312,11.44531,0.001953125,-0.02148438,0.0390625,0.4082031,0.05273438,0,-0.09228516,-0.02099609,0.4285889,0,0,0.1604004,0,3.987,0,0,0,0,nan,2,0.715,1,0,0.1000061,0.1000061,0.1000061,0.1000061,0,0,0,1,2,0
1047.937,0.001015,-0.03125,0.046875,-0.01757812,3.101562,-6.210938,4.445312,0.0078125,0.009765625,0.03125,0.4082031,0.05273438,0,-0.09216309,-0.02099609,0.4290771,0,0,0.1604004,0,3.987,0,0,0,0,nan,2,0.725,1,0,0.1000061,0.1000061,0.1000061,0.1000061,0,0,0,1,2,0
1047.946,0.001035,-0.009765625,0.0234375,-0.06640625,-1.03125,-3.4375,3.875,-0.00390625,0.009765625,-0.0546875,0.4082031,0.05273438,0,-0.09216309,-0.02075195,0.428833,0,0,0.1604004,0,3.987,0,0,0,0,nan,2,0.734,1,0,0.1000061,0.1000061,0.1000061,0.1000061,0,0,0,1,2,0
1047.956,0.001009,-0.03320312,0.01171875,0.078125,-1.21875,1.828125,12.25781,0.001953125,-0.01171875,0.03515625,0.4082031,0.05273438,0,-0.09204102,-0.02087402,0.4287109,0,0,0.1604004,0,3.987,0,0,0,0,nan,2,0.744,1,0,0.1000061,0.1000061,0.1000061,0.1000061,0,0,0,1,2,0
1047.966,0.001009,-0.01953125,0.0234375,-0.02148438,-3.234375,-3.523438,9.703125,-0.009765625,0,0.02148438,0.4082031,0.05273438,0,-0.09216309,-0.02075195,0.4291992,0,0,0.1604004,0,3.987,0,0,0,0,nan,2,0.754,1,0,0.1000061,0.1000061,0.1000061,0.1000061,0,0,0,1,2,0
1047.976,0.001003,-0.0234375,0.02148438,-0.046875,-2.273438,-2.554688,3.820312,-0.01171875,0.0078125,-0.05078125,0.4082031,0.05273438,0,-0.09228516,-0.02075195,0.428833,0,0,0.1604004,0,3.987,0,0,0,0,nan,2,0.765,1,0,0.1000061,0.1000061,0.1000061,0.1000061,0,0,0,1,2,0
1047.986,0.00101,0.046875,-0.046875,0.06445312,-1.695312,2.515625,11.02344,0.02734375,-0.01171875,0.02929688,0.4082031,0.05273438,0,-0.09216309,-0.02062988,0.4287109,0,0,0.1604004,0,3.987,0,0,0,0,nan,2,0.775,1,0,0.1000061,0.1000061,0.1000061,0.1000061,0,0,0,1,2,0
1047.996,0.001009,-0.001953125,0.001953125,-0.01367188,-1.046875,4.304688,13.41406,-0.001953125,0.01171875,0.01953125,0.4082031,0.05273438,0,-0.09216309,-0.02050781,0.4290771,0,0,0.1604004,0,3.987,0,0,0,0,nan,2,0.785,1,0,0.1000061,0.1000061,0.1000061,0.1000061,0,0,0,1,2,0
1048.006,0.001009,0.0078125,0.03710938,-0.04492188,1.1875,-2.25,8.570312,-0.01367188,0.01757812,-0.04101562,0.4082031,0.05273438,0,-0.09216309,-0.02050781,0.428833,0,0,0.1604004,0,3.987,0,0,0,0,nan,2,0.795,1,0,0.1000061,0.1000061,0.1000061,0.1000061,0,0,0,1,2,0
1048.016,0.000998,0.01757812,-0.0390625,0.0546875,2.289062,-4.171875,3.710938,0.015625,-0.01367188,0.01953125,0.4082031,0.05273438,0,-0.09204102,-0.02038574,0.4287109,0,0,0.1604004,0,3.987,0,0,0,0,nan,2,0.805,1,0,0.1000061,0.1000061,0.1000061,0.1000061,0,0,0,1,2,0
1048.026,0.001009,-0.0234375,0.015625,-0.01367188,1.476562,-0.3984375,8.671875,0.001953125,-0.005859375,0.01757812,0.4082031,0.05273438,0,-0.09191895,-0.02050781,0.4290771,0,0,0.1604004,0,3.987,0,0,0,0,nan,2,0.815,1,0,0.1000061,0.1000061,0.1000061,0.1000061,0,0,0,1,2,0
1048.037,0.001009,0,0.01757812,-0.03515625,-1.171875,3.171875,16.14062,-0.001953125,0.01953125,-0.04101562,0.4082031,0.05273438,0,-0.09204102,-0.02038574,0.428833,0,0,0.1604004,0,3.987,0,0,0,0,nan,2,0.825,1,0,0.1000061,0.1000061,0.1000061,0.1000061,0,0,0,1,2,0
1048.047,0.001009,0.01367188,-0.0078125,0.04296875,-0.078125,-2.304688,16.57812,0.01953125,0.009765625,0.02539062,0.4082031,0.05273438,0,-0.09191895,-0.02026367,0.4287109,0,0,0.1604004,0,3.987,0,0,0,0,nan,2,0.835,1,0,0.1000061,0.1000061,0.1000061,0.1000061,0,0,0,1,2,0
1048.056,0.001011,0,-0.01953125,-0.01953125,0.3046875,-4.148438,4.257812,0.005859375,-0.009765625,0.01171875,0.4082031,0.05273438,0,-0.09179688,-0.02026367,0.4289551,0,0,0.1604004,0,3.987,0,0,0,0,nan,2,0.844,1,0,0.1000061,0.1000061,0.1000061,0.1000061,0,0,0,1,2,0
1048.066,0.001013,-0.02734375,-0.02734375,-0.03320312,1.023438,0.9609375,1.257812,0.00390625,-0.02734375,-0.03515625,0.4082031,0.05273438,0,-0.0916748,-0.02050781,0.4287109,0,0,0.1604004,0,3.987,0,0,0,0,nan,2,0.854,1,0,0.1000061,0.1000061,0.1000061,0.1000061,0,0,0,1,2,0
1048.076,0.001006,0.009765625,-0.03710938,0.06835938,-2.375,4.84375,9.015625,0.009765625,-0.04101562,0.03320312,0.4082031,0.05273438,0,-0.0916748,-0.02087402,0.4287109,0,0,0.1604004,0,3.987,0,0,0,0,nan,2,0.865,1,0,0.1000061,0.1000061,0.1000061,0.1000061,0,0,0,1,2,0
1048.086,0.00099,0.0078125,-0.03320312,-0.02148438,-1.445312,0.4765625,14.52344,0.02148438,-0.0234375,0.01367188,0.4082031,0.05273438,0,-0.09143066,-0.02111816,0.4291992,0,0,0.1604004,0,3.987,0,0,0,0,nan,2,0.875,1,0,0.1000061,0.1000061,0.1000061,0.1000061,0,0,0,1,2,0
1048.096,0.001011,0.0234375,-0.03125,-0.03125,-2.609375,-5.09375,8.796875,0.0078125,-0.02539062,-0.04296875,0.4082031,0.05273438,0,-0.09130859,-0.0213623,0.4289551,0,0,0.1604004,0,3.987,0,0,0,0,nan,2,0.885,1,0,0.1000061,0.1000061,0.1000061,0.1000061,0,0,0,1,2,0
1048.106,0.001011,0.00390625,0.0078125,0.04296875,0.1015625,-4.671875,8.273438,0.009765625,-0.009765625,0.02734375,0.4082031,0.05273438,0,-0.09118652,-0.02160645,0.4289551,0,0,0.1604004,0,3.987,0,0,0,0,nan,2,0.895,1,0,0.1000061,0.1000061,0.1000061,0.1000061,0,0,0,1,2,0.3174603
1048.116,0.001011,-0.0078125,0.0234375,-0.03320312,2.4375,4.148438,11.14844,-0.01171875,0.01953125,-0.001953125,0.4082031,0.05273438,0,-0.09130859,-0.02148438,0.4290771,0,0,0.1604004,0,3.987,0,0,0,0,nan,2,0.905,1,0,0.1000061,0.1000061,0.1000061,0.1000061,0,0,0,1,2,0
1048.127,0.000992,-0.009765625,0.03710938,-0.01953125,3.796875,2.90625,15.5,0.00390625,0.01953125,-0.02929688,0.4082031,0.05273438,0,-0.09130859,-0.02124023,0.428833,0,0,0.1604004,0,3.987,0,0,0,0,nan,2,0.915,1,0,0.1000061,0.1000061,0.1000061,0.1000061,0,0,0,1,2,0
1048.137,0.001009,-0.06054688,0.001953125,0.03710938,1.75,-3.59375,7,-0.01171875,0.009765625,0.01953125,0.4082031,0.05273438,0,-0.09130859,-0.02111816,0.4287109,0,0,0.1604004,0,3.987,0,0,0,0,nan,2,0.925,1,0,0.1000061,0.1000061,0.1000061,0.1000061,0,0,0,1,2,0
1048.146,0.001005,-0.0078125,0.01757812,-0.01367188,-2.3125,-6.296875,6.875,-0.009765625,0.005859375,0.0078125,0.4082031,0.05273438,0,-0.09143066,-0.02099609,0.4289551,0,0,0.1604004,0,3.987,0,0,0,0,nan,2,0.934,1,0,0.1000061,0.1000061,0.1000061,0.1000061,0,0,0,1,2,0.3650794
1048.156,0.001003,0.06640625,-0.04492188,0.01367188,-2.53125,3.273438,11.89062,0.01367188,-0.02539062,-0.0078125,0.4082031,0.05273438,0,-0.09155273,-0.02111816,0.428833,0,0,0.1604004,0,3.987,0,0,0,0,nan,2,0.944,1,0,0.1000061,0.1000061,0.1000061,0.1000061,0,0,0,1,2,0
1048.166,0.001001,0.04296875,-0.00390625,0.02929688,-4.039062,-2.84375,12.02344,0.0234375,-0.03515625,0.02929688,0.4082031,0.05273438,0,-0.09143066,-0.02160645,0.4290771,0,0,0.1604004,0,3.987,0,0,0,0,nan,2,0.954,1,0,0.1000061,0.1000061,0.1000061,0.1000061,0,0,0,1,2,0
1048.176,0.001004,0.01953125,-0.009765625,-0.02734375,-1.960938,-3.90625,5.007812,0.01171875,-0.0234375,-0.02148438,0.4082031,0.05273438,0,-0.09130859,-0.02185059,0.4290771,0,0,0.1604004,0,3.987,0,0,0,0,nan,2,0.965,1,0,0.1000061,0.1000061,0.1000061,0.1000061,0,0,0,1,2,0
1048.186,0.001056,0.02539062,-0.02929688,0.05078125,1.8125,3.835938,9.25,0.03320312,-0.03320312,0.02734375,0.4082031,0.05273438,0,-0.09106445,-0.02209473,0.4290771,0,0,0.1604004,0,3.987,0,0,0,0,nan,2,0.975,1,0,0.1000061,0.1000061,0.1000061,0.1000061,0,0,0,1,2,0.2380952
1048.196,0.001035,0.01953125,-0.0390625,-0.04296875,1.351562,2.382812,15.10938,0.02734375,-0.02148438,-0.00390625,0.4082031,0.05273438,0,-0.09069824,-0.02233887,0.4293213,0,0,0.1604004,0,3.987,0,0,0,0,nan,2,0.985,1,0,0.1000061,0.1000061,0.1000061,0.1000061,0,0,0,1,2,0
1048.206,0.001003,0.06054688,-0.03125,0.001953125,3.210938,-3.929688,8.609375,0.01953125,-0.02148438,-0.03125,0.4082031,0.05273438,0,-0.09057617,-0.02258301,0.4289551,0,0,0.1604004,0,3.987,0,0,0,0,nan,2,0.995,1,0,0.1000061,0.1000061,0.1000061,0.1000061,0,0,0,1,2,0.4444444
1048.216,0.001003,-0.0390625,0.00390625,0.03125,3.640625,-2.40625,6.320312,-0.0078125,-0.02539062,0.0390625,0.4082031,0.05273438,0,-0.09057617,-0.02294922,0.4291992,0,0,0.1604004,0,3.987,0,0,0,0,nan,2,1.005,1,0,0.1000061,0.1000061,0.1000061,0.1000061,0,0,0,1,2,0
1048.226,0.001003,-0.01953125,0.04882812,-0.046875,-0.046875,3.632812,15.17188,-0.01953125,0.009765625,-0.02539062,0.4082031,0.05273438,0,-0.09069824,-0.02294922,0.4291992,0,0,0.1604004,0,3.987,0,0,0,0,nan,2,1.015,1,0,0.1000061,0.1000061,0.1000061,0.1000061,0,0,0,1,2,0
1048.237,0.001003,-0.001953125,0.015625,0.04101562,-1.515625,-2.765625,10.64844,-0.01171875,0.02734375,0.01367188,0.4082031,0.05273438,0,-0.09082031,-0.02270508,0.4290771,0,0,0.1604004,0,3.987,0,0,0,0,nan,2,1.025,1,0,0.1000061,0.1000061,0.1000061,0.1000061,0,0,0,1,2,0
1048.247,0.001005,0.03710938,0.02734375,-0.0390625,-2.25,0.6015625,5.21875,-0.001953125,0.01953125,-0.0078125,0.4082031,0.05273438,0,-0.09094238,-0.02246094,0.4291992,0,0,0.1604004,0,3.987,0,0,0,0,nan,2,1.035,1,0,0.1000061,0.1000061,0.1000061,0.1000061,0,0,0,1,2,0
1048.256,0.001015,0.04296875,0.04296875,0.005859375,-1.101562,3.140625,13.84375,0.00390625,0.03125,-0.01757812,0.4082031,0.05273438,0,-0.09094238,-0.02233887,0.4289551,0,0,0.1604004,0,3.987,0,0,0,0,nan,2,1.044,1,0,0.1000061,0.1000061,0.1000061,0.1000061,0,0,0,1,2,0
1048.266,0.001019,-0.01367188,0.015625,-0.00390625,-2.382812,-3.726562,9.570312,-0.00390625,0.01171875,0.00390625,0.4082031,0.05273438,0,-0.09094238,-0.02209473,0.4289551,0,0,0.1604004,0,3.987,0,0,0,0,nan,2,1.054,1,0,0.1000061,0.1000061,0.1000061,0.1000061,0,0,0,1,2,0
1048.276,0.001019,-0.01171875,0.05273438,0.00390625,1.976562,-1.625,3.9375,0.00390625,0.03515625,-0.001953125,0.4082031,0.05273438,0,-0.09094238,-0.02197266,0.4289551,0,0,0.1604004,0,3.987,0,0,0,0,nan,2,1.065,1,0,0.1000061,0.1000061,0.1000061,0.1000061,0,0,0,1,2,0
1048.286,0.00101,-0.02539062,0.009765625,-0.0078125,1.117188,0.1328125,12.17969,-0.00390625,0.015625,0.005859375,0.4082031,0.05273438,0,-0.09094238,-0.02160645,0.4289551,0,0,0.1604004,0,3.987,0,0,0,0,nan,2,1.075,1,0,0.1000061,0.1000061,0.1000061,0.1000061,0,0,0,1,2,0
1048.296,0.000998,-0.046875,0.0078125,-0.01367188,1.210938,-3.640625,6.976562,-0.02734375,0.02539062,-0.01757812,0.4082031,0.05273438,0,-0.09106445,-0.02148438,0.428833,0,0,0.1604004,0,3.987,0,0,0,0,nan,2,1.085,1,0,0.1000061,0.1000061,0.1000061,0.1000061,0,0,0,1,2,0
1048.306,0.00099,-0.00390625,-0.02148438,0.005859375,0.625,3.507812,9.125,-0.005859375,-0.01367188,0.0078125,0.4082031,0.05273438,0,-0.09118652,-0.0213623,0.428833,0,0,0.1604004,0,3.987,0,0,0,0,nan,2,1.095,1,0,0.1000061,0.1000061,0.1000061,0.1000061,0,0,0,1,2,0.8095238
1048.316,0.001011,0.01953125,-0.0234375,0.005859375,-1.070312,2.117188,18.66406,0.01757812,-0.0234375,-0.00390625,0.4082031,0.05273438,0,-0.09118652,-0.02160645,0.428833,0,0,0.1604004,0,3.987,0,0,0,0,nan,2,1.105,1,0,0.1000061,0.1000061,0.1000061,0.1000061,0,0,0,1,2,0
1048.326,0.001011,0.01757812,0.01367188,0.01171875,-1.15625,-3.382812,5.929688,0.005859375,0.0078125,0.01757812,0.4082031,0.05273438,0,-0.09106445,-0.02160645,0.4289551,0,0,0.1604004,0,3.987,0,0,0,0,nan,2,1.115,1,0,0.1000061,0.1000061,0.1000061,0.1000061,0,0,0,1,2,0
1048.337,0.001011,0.015625,0.001953125,-0.02734375,-1.320312,3.695312,13.59375,-0.009765625,0.0078125,-0.01757812,0.4082031,0.05273438,0,-0.09118652,-0.02148438,0.4289551,0,0,0.1604004,0,3.987,0,0,0,0,nan,2,1.125,1,0,0.1000061,0.1000061,0.1000061,0.1000061,0,0,0,1,2,0
1048.347,0.001011,-0.01953125,-0.0078125,0.02148438,-1.335938,-3.8125,11.70312,0.00390625,-0.01757812,0.0078125,0.4082031,0.05273438,0,-0.09106445,-0.02160645,0.4289551,0,0,0.1604004,0,3.987,0,0,0,0,nan,2,1.135,1,0,0.1000061,0.1000061,0.1000061,0.1000061,0,0,0,1,2,0
1048.356,0.001009,-0.01171875,0.06054688,-0.01953125,0.3671875,-0.7578125,17.85938,-0.0078125,0.02148438,-0.0078125,0.4082031,0.05273438,0,-0.09118652,-0.02160645,0.4289551,0,0,0.1604004,0,3.987,0,0,0,0,nan,2,1.144,1,0,0.1000061,0.1000061,0.1000061,0.1000061,0,0,0,1,2,0
1048.366,0.001013,-0.03515625,-0.03125,0.02539062,1.203125,3.398438,10.85156,-0.01367188,-0.01367188,0.01171875,0.4082031,0.05273438,0,-0.09118652,-0.02148438,0.4289551,0,0,0.1604004,0,3.987,0,0,0,0,nan,2,1.154,1,0,0.1000061,0.1000061,0.1000061,0.1000061,0,0,0,1,2,0
1048.376,0.001004,-0.009765625,-0.01757812,-0.0234375,-0.15625,-0.328125,11.89844,0.00390625,-0.02148438,-0.001953125,0.4082031,0.05273438,0,-0.09118652,-0.02172852,0.4290771,0,0,0.1604004,0,3.987,0,0,0,0,nan,2,1.164,1,0,0.1000061,0.1000061,0.1000061,0.1000061,0,0,0,1,2,0
1048.386,0.001013,-0.03515625,0.03320312,0.01367188,1.59375,-0.6171875,6.046875,0,0.0078125,-0.001953125,0.4082031,0.05273438,0,-0.09106445,-0.02185059,0.4289551,0,0,0.1604004,0,3.987,0,0,0,0,nan,2,1.175,1,0,0.1000061,0.1000061,0.1000061,0.1000061,0,0,0,1,2,0
1048.396,0.001011,0.009765625,0.0234375,-0.02148438,0.2265625,6.671875,15.24219,-0.00390625,0.0234375,-0.005859375,0.4082031,0.05273438,0,-0.09106445,-0.02160645,0.4289551,0,0,0.1604004,0,3.988,0,0,0,0,nan,2,1.185,1,0,0.1000061,0.1000061,0.1000061,0.1000061,0,0,0,1,2,0
1048.406,0.001011,-0.00390625,-0.04101562,0.01953125,-1.640625,-4.578125,13.69531,-0.01953125,-0.01757812,0,0.4082031,0.05273438,0,-0.09130859,-0.02148438,0.428833,0,0,0.1604004,0,3.988,0,0,0,0,nan,2,1.195,1,0,0.1000061,0.1000061,0.1000061,0.1000061,0,0,0,1,2,0
1048.416,0.001011,0.01171875,-0.03515625,-0.001953125,-0.9375,-5.414062,6.601562,0.005859375,-0.03515625,0.01757812,0.4082031,0.05273438,0,-0.09130859,-0.02185059,0.4290771,0,0,0.1604004,0,3.988,0,0,0,0,nan,2,1.205,1,0,0.1000061,0.1000061,0.1000061,0.1000061,0,0,0,1,2,0
1048.426,0.001011,0.03710938,0.02734375,-0.01367188,-1.273438,3.617188,11.21094,0.01953125,0,-0.01757812,0.4082031,0.05273438,0,-0.09118652,-0.02197266,0.4289551,0,0,0.1604004,0,3.988,0,0,0,0,nan,2,1.215,1,0,0.1000061,0.1000061,0.1000061,0.1000061,0,0,0,1,2,0
1048.437,0.001011,-0.015625,0.001953125,0.01757812,-0.5390625,-0.46875,11.11719,0.01171875,0.0078125,0.01757812,0.4082031,0.05273438,0,-0.09106445,-0.02197266,0.4290771,0,0,0.1604004,0,3.988,0,0,0,0,nan,2,1.225,1,0,0.1000061,0.1000061,0.1000061,0.1000061,0,0,0,1,2,0
1048.446,0.001009,-0.009765625,0.04101562,-0.04296875,1.171875,0.3359375,18.54688,-0.01367188,0.02148438,-0.02734375,0.4082031,0.05273438,0,-0.09106445,-0.02185059,0.4289551,0,0,0.1604004,0,3.988,0,0,0,0,nan,2,1.234,1,0,0.1000061,0.1000061,0.1000061,0.1000061,0,0,0,1,2,0
1048.456,0.001011,-0.01171875,0.0390625,0.04101562,2.492188,-6.671875,6.679688,-0.01757812,0.04296875,0.009765625,0.4082031,0.05273438,0,-0.09118652,-0.02148438,0.4287109,0,0,0.1604004,0,3.988,0,0,0,0,nan,2,1.244,1,0,0.1000061,0.1000061,0.1000061,0.1000061,0,0,0,1,2,0.5079365
1048.466,0.001009,-0.0078125,0.00390625,-0.01367188,1.945312,2.429688,15.35938,-0.01171875,0.015625,0.005859375,0.4082031,0.05273438,0,-0.09130859,-0.02124023,0.4289551,0,0,0.1604004,0,3.988,0,0,0,0,nan,2,1.254,1,0,0.1000061,0.1000061,0.1000061,0.1000061,0,0,0,1,2,0
1048.476,0.001008,-0.04296875,0,-0.001953125,-0.9375,-4.507812,7.390625,-0.0234375,0.0234375,-0.01367188,0.4082031,0.05273438,0,-0.09143066,-0.02099609,0.4287109,0,0,0.1604004,0,3.988,0,0,0,0,nan,2,1.264,1,0,0.1000061,0.1000061,0.1000061,0.1000061,0,0,0,1,2,0
1048.486,0.000995,-0.009765625,-0.03515625,-0.005859375,-0.1171875,-1.71875,8.398438,-0.01367188,-0.0234375,0.001953125,0.4082031,0.05273438,0,-0.0916748,-0.02111816,0.4287109,0,0,0.1604004,0,3.988,0,0,0,0,nan,2,0,1,0,0.1000061,0.1000061,0.1000061,0.1000061,0,0,0,1,2,0
1048.496,0.000999,0.009765625,-0.005859375,0.001953125,-0.2890625,3.8125,17.74219,0.009765625,-0.02148438,-0.01367188,0.4082031,0.05273438,0,-0.0916748,-0.02124023,0.4287109,0,0,0.1604004,0,3.988,0,0,0,0,nan,2,0.01,1,0,0.1000061,0.1000061,0.1000061,0.1000061,0,0,0,1,2,0
1048.506,0.001009,-0.01171875,0.01757812,0.02539062,-1.09375,-2.890625,10.28125,0.001953125,0.0078125,0.0234375,0.4082031,0.05273438,0,-0.09155273,-0.0213623,0.4287109,0,0,0.1604004,0,3.988,0,0,0,0,nan,2,0.004,1,0,0.1000061,0.1000061,0.1000061,0.1000061,0,0,0,1,2,0
1048.516,0.001014,-0.02734375,0.03515625,-0.04492188,-0.203125,-2.25,1.976562,-0.01953125,0.0234375,-0.02539062,0.4082031,0.05273438,0,-0.09155273,-0.02124023,0.4287109,0,0,0.1604004,0,3.988,0,0,0,0,nan,2,0.002,1,0,0.1000061,0.1000061,0.1000061,0.1000061,0,0,0,1,2,0
1048.526,0.00101,0.02734375,0,0.05273438,0.6953125,4.445312,9.484375,0.01953125,-0.015625,0.02148438,0.4082031,0.05273438,0,-0.0916748,-0.02124023,0.4287109,0,0,0.1604004,0,3.988,0,0,0,0,nan,2,0.012,1,0,0.1000061,0.1000061,0.1000061,0.1000061,0,0,0,1,2,0
1048.537,0.001007,-0.02539062,-0.01953125,-0.015625,0.9140625,-0.4609375,11.44531,-0.01171875,0.00390625,0.009765625,0.4082031,0.05273438,0,-0.0916748,-0.02124023,0.4289551,0,0,0.1604004,0,3.988,0,0,0,0,nan,2,0.008,1,0,0.1000061,0.1000061,0.1000061,0.1000061,0,0,0,1,2,0
1048.546,0.000985,0.03515625,-0.0390625,-0.03710938,3.289062,2.351562,14.41406,0.001953125,-0.02929688,-0.03710938,0.4082031,0.05273438,0,-0.0916748,-0.0213623,0.4287109,0,0,0.1604004,0,3.988,0,0,0,0,nan,2,0.006,1,0,0.1000061,0.1000061,0.1000061,0.1000061,0,0,0,1,2,0
1048.556,0.001005,-0.01757812,-0.009765625,0.03125,0.5703125,-2.546875,7.101562,-0.009765625,0,0.01757812,0.4082031,0.05273438,0,-0.0916748,-0.0213623,0.4287109,0,0,0.1604004,0,3.988,0,0,0,0,nan,2,0.016,1,0,0.1000061,0.1000061,0.1000061,0.1000061,0,0,0,1,2,0
1048.566,0.001005,0.009765625,0.02539062,-0.03710938,0.796875,5.742188,16.99219,0.005859375,0,-0.01757812,0.4082031,0.05273438,0,-0.09179688,-0.0213623,0.4287109,0,0,0.1604004,0,3.988,0,0,0,0,nan,2,0.026,1,0,0.1000061,0.1000061,0.1000061,0.1000061,0,0,0,1,2,0
1048.576,0.001009,0.04296875,-0.02148438,0.03125,-0.53125,-1.859375,15.60156,0.01757812,-0.009765625,0.0078125,0.4082031,0.05273438,0,-0.09179688,-0.0213623,0.4285889,0,0,0.1604004,0,3.988,0,0,0,0,nan,2,0.036,1,0,0.1000061,0.1000061,0.1000061,0.1000061,0,0,0,1,2,0
1048.586,0.000994,-0.015625,0.01367188,0,0.1640625,-4.328125,1.945312,-0.01171875,0.01171875,0.015625,0.4082031,0.05273438,0,-0.09179688,-0.02124023,0.428833,0,0,0.1604004,0,3.988,0,0,0,0,nan,2,0.046,1,0,0.1000061,0.1000061,0.1000061,0.1000061,0,0,0,1,2,0
1048.596,0.001025,0.02539062,0.03515625,-0.005859375,-0.9296875,2.046875,7.117188,0.01171875,-0.00390625,-0.01171875,0.4082031,0.05273438,0,-0.09179688,-0.0213623,0.4287109,0,0,0.1604004,0,3.988,0,0,0,0,nan,2,0.057,1,0,0.1000061,0.1000061,0.1000061,0.1000061,0,0,0,1,2,0
1048.606,0.001005,-0.0078125,0.0078125,0.01171875,-1.289062,-0.421875,9.929688,0,-0.01367188,0.015625,0.4082031,0.05273438,0,-0.0916748,-0.0213623,0.428833,0,0,0.1604004,0,3.988,0,0,0,0,nan,2,0.067,1,0,0.1000061,0.1000061,0.1000061,0.1000061,0,0,0,1,2,0.5555556
1048.616,0.001005,-0.01367188,0.005859375,-0.03125,-0.6875,-2.734375,5.671875,-0.009765625,0.01953125,-0.01953125,0.4082031,0.05273438,0,-0.09179688,-0.0213623,0.428833,0,0,0.1604004,0,3.988,0,0,0,0,nan,2,0.077,1,0,0.1000061,0.1000061,0.1000061,0.1000061,0,0,0,1,2,0
1048.626,0.001005,0.04882812,0.05664062,0.01953125,-0.765625,1.4375,8.570312,0.015625,0.00390625,0.001953125,0.4082031,0.05273438,0,-0.09179688,-0.0213623,0.4285889,0,0,0.1604004,0,3.988,0,0,0,0,nan,2,0.087,1,0,0.1000061,0.1000061,0.1000061,0.1000061,0,0,0,1,2,0
1048.636,0.001005,-0.02148438,-0.009765625,0.005859375,0.578125,6.289062,16.10156,-0.015625,0.009765625,0.01367188,0.4082031,0.05273438,0,-0.09179688,-0.02124023,0.428833,0,0,0.1604004,0,3.988,0,0,0,0,nan,2,0.097,1,0,0.1000061,0.1000061,0.1000061,0.1000061,0,0,0,1,2,0
1048.647,0.001004,-0.00390625,0.05273438,0.005859375,0.421875,-0.9609375,15.5625,0.009765625,0.01953125,-0.005859375,0.4082031,0.05273438,0,-0.09179688,-0.02124023,0.4287109,0,0,0.1604004,0,3.988,0,0,0,0,nan,2,0.107,1,0,0.1000061,0.1000061,0.1000061,0.1000061,0,0,0,1,2,0
1048.656,0.001015,0.03125,-0.0546875,0.02734375,-2.617188,-0.1640625,12.92188,0.005859375,-0.02148438,0.02539062,0.4082031,0.05273438,0,-0.09179688,-0.02124023,0.428833,0,0,0.1604004,0,3.988,0,0,0,0,nan,2,0.116,1,0,0.1000061,0.1000061,0.1000061,0.1000061,0,0,0,1,2,0
1048.666,0.001015,-0.00390625,0.03515625,-0.0390625,0.1875,0.5078125,9.179688,-0.0078125,0.0078125,-0.02734375,0.4082031,0.05273438,0,-0.09179688,-0.0213623,0.428833,0,0,0.1604004,0,3.988,0,0,0,0,nan,2,0.126,1,0,0.1000061,0.1000061,0.1000061,0.1000061,0,0,0,1,2,0
1048.676,0.001016,0,-0.05078125,0.0390625,-2.132812,0.0078125,10.66406,-0.01367188,-0.01367188,0.01757812,0.4082031,0.05273438,0,-0.09191895,-0.02124023,0.4287109,0,0,0.1604004,0,3.988,0,0,0,0,nan,2,0.136,1,0,0.1000061,0.1000061,0.1000061,0.1000061,0,0,0,1,2,0
1048.686,0.001019,-0.01367188,-0.00390625,-0.02929688,-1.03125,-3.742188,4.601562,-0.00390625,-0.01757812,-0.001953125,0.4082031,0.05273438,0,-0.09191895,-0.02148438,0.4289551,0,0,0.1604004,0,3.988,0,0,0,0,nan,2,0.146,1,0,0.1000061,0.1000061,0.1000061,0.1000061,0,0,0,1,2,0
1048.696,0.001048,-0.015625,0.046875,0.001953125,1.335938,0.96875,2.539062,-0.015625,0.03320312,-0.0234375,0.4082031,0.05273438,0,-0.09204102,-0.0213623,0.4287109,0,0,0.1604004,0,3.988,0,0,0,0,nan,2,0.157,1,0,0.1000061,0.1000061,0.1000061,0.1000061,0,0,0,1,2,0
1048.706,0.0009869999,-0.01953125,-0.005859375,0.03710938,0.8671875,5.8125,12.03906,-0.01367188,0,0.03710938,0.4082031,0.05273438,0,-0.09216309,-0.02111816,0.428833,0,0,0.1604004,0,3.988,0,0,0,0,nan,2,0.167,1,0,0.1000061,0.1000061,0.1000061,0.1000061,0,0,0,1,2,0
1048.716,0.001017,0.0234375,-0.02734375,-0.04101562,1.796875,0.734375,18.3125,-0.001953125,-0.01757812,-0.03125,0.4082031,0.05273438,0,-0.09228516,-0.0213623,0.428833,0,0,0.1604004,0,3.988,0,0,0,0,nan,2,0.177,1,0,0.1000061,0.1000061,0.1000061,0.1000061,0,0,0,1,2,0
1048.726,0.001017,-0.00390625,0.0078125,0.04296875,-0.5625,-6.5,8.492188,0.01953125,-0.01367188,0.01953125,0.4082031,0.05273438,0,-0.09216309,-0.02148438,0.4287109,0,0,0.1604004,0,3.988,0,0,0,0,nan,2,0.187,1,0,0.1000061,0.1000061,0.1000061,0.1000061,0,0,0,1,2,0
1048.737,0.001018,-0.02148438,0,-0.04492188,-0.0625,-3.382812,8.609375,-0.0078125,0.005859375,-0.0078125,0.4082031,0.05273438,0,-0.09204102,-0.02148438,0.4289551,0,0,0.1604004,0,3.988,0,0,0,0,nan,2,0.197,1,0,0.1000061,0.1000061,0.1000061,0.1000061,0,0,0,1,2,0
1048.747,0.00104,0.001953125,0.00390625,0.00390625,0.609375,4.492188,15.48438,-0.01171875,0.02148438,-0.02148438,0.4082031,0.05273438,0,-0.09216309,-0.0213623,0.4285889,0,0,0.1604004,0,3.988,0,0,0,0,nan,2,0.207,1,0,0.1000061,0.1000061,0.1000061,0.1000061,0,0,0,1,2,0
1048.756,0.001003,0.07421875,-0.03125,0.02929688,-1.179688,3.8125,10.60938,0.0234375,-0.03125,0.02539062,0.4082031,0.05273438,0,-0.09216309,-0.02148438,0.4287109,0,0,0.1604004,0,3.988,0,0,0,0,nan,2,0.216,1,0,0.1000061,0.1000061,0.1000061,0.1000061,0,0,0,1,2,0
1048.766,0.000967,-0.02148438,0.02929688,-0.0546875,-0.171875,-3.09375,3.015625,-0.0078125,0.01953125,-0.02929688,0.4082031,0.05273438,0,-0.09204102,-0.02148438,0.4287109,0,0,0.1604004,0,3.988,0,0,0,0,nan,2,0.226,1,0,0.1000061,0.1000061,0.1000061,0.1000061,0,0,0,1,2,0
1048.776,0.001028,0.0078125,-0.02929688,0.05273438,0.7734375,1.539062,5.757812,0.01171875,-0.0234375,0.015625,0.4082031,0.05273438,0,-0.09216309,-0.02148438,0.4284668,0,0,0.1604004,0,3.988,0,0,0,0,nan,2,0.236,1,0,0.1000061,0.1000061,0.1000061,0.1000061,0,0,0,1,2,0
1048.786,0.001011,-0.01367188,0.009765625,0.001953125,0.90625,3.796875,13.03906,0.00390625,0.005859375,0.02734375,0.4082031,0.05273438,0,-0.09204102,-0.02148438,0.428833,0,0,0.1604004,0,3.988,0,0,0,0,nan,2,0.246,1,0,0.1000061,0.1000061,0.1000061,0.1000061,0,0,0,1,2,0
1048.796,0.000972,0.005859375,-0.04101562,-0.03320312,1.273438,-3.351562,13.09375,-0.01171875,-0.009765625,-0.03515625,0.4082031,0.05273438,0,-0.09216309,-0.02148438,0.4287109,0,0,0.1604004,0,3.988,0,0,0,0,nan,2,0.257,1,0,0.1000061,0.1000061,0.1000061,0.1000061,0,0,0,1,2,0
1048.806,0.001011,0.001953125,0.0078125,0.04101562,-0.6484375,-2.984375,7.710938,0.001953125,0.009765625,0.02148438,0.4082031,0.05273438,0,-0.09216309,-0.02160645,0.4285889,0,0,0.1604004,0,3.988,0,0,0,0,nan,2,0.267,1,0,0.1000061,0.1000061,0.1000061,0.1000061,0,0,0,1,2,0
1048.816,0.001012,0.001953125,-0.009765625,-0.0390625,0.5078125,2.867188,11.23438,0.01171875,-0.005859375,-0.015625,0.4082031,0.05273438,0,-0.09216309,-0.02160645,0.4287109,0,0,0.1604004,0,3.988,0,0,0,0,nan,2,0.277,1,0,0.1000061,0.1000061,0.1000061,0.1000061,0,0,0,1,2,0
1048.826,0.001011,0.046875,-0.04882812,0.02929688,-0.0234375,3.171875,15.55469,0,-0.001953125,-0.001953125,0.4082031,0.05273438,0,-0.09216309,-0.02148438,0.4284668,0,0,0.1604004,0,3.988,0,0,0,0,nan,2,0.287,1,0,0.1000061,0.1000061,0.1000061,0.1000061,0,0,0,1,2,0
1048.837,0.001011,0.01171875,-0.00390625,-0.001953125,-2.929688,-3.070312,8.429688,-0.00390625,0.00390625,0.0234375,0.4082031,0.05273438,0,-0.09216309,-0.02148438,0.4287109,0,0,0.1604004,0,3.988,0,0,0,0,nan,2,0.297,1,0,0.1000061,0.1000061,0.1000061,0.1000061,0,0,0,1,2,0.2063492
1048.847,0.001011,0.03710938,-0.03125,-0.01953125,-0.296875,-3.429688,5.632812,0.01171875,-0.015625,-0.02539062,0.4082031,0.05273438,0,-0.09216309,-0.02148438,0.4285889,0,0,0.1604004,0,3.988,0,0,0,0,nan,2,0.307,1,0,0.1000061,0.1000061,0.1000061,0.1000061,0,0,0,1,2,0
1048.856,0.001009,-0.04882812,0.0234375,0.04296875,0.7734375,-5.75,7.046875,-0.01757812,0.02148438,0.02734375,0.4082031,0.05273438,0,-0.09216309,-0.02148438,0.4285889,0,0,0.1604004,0,3.988,0,0,0,0,nan,2,0.316,1,0,0.1000061,0.1000061,0.1000061,0.1000061,0,0,0,1,2,0
1048.866,0.001009,-0.01367188,-0.00390625,-0.04882812,1.09375,-0.4375,13.64062,0.001953125,-0.005859375,-0.01953125,0.4082031,0.05273438,0,-0.09216309,-0.0213623,0.4287109,0,0,0.1604004,0,3.988,0,0,0,0,nan,2,0.326,1,0,0.1000061,0.1000061,0.1000061,0.1000061,0,0,0,1,2,0
1048.876,0.001013,0.03710938,0.02539062,0.005859375,1.414062,-2.828125,7.25,0.01171875,0.02539062,-0.01953125,0.4082031,0.05273438,0,-0.09216309,-0.0213623,0.4283447,0,0,0.1604004,0,3.988,0,0,0,0,nan,2,0.336,1,0,0.1000061,0.1000061,0.1000061,0.1000061,0,0,0,1,2,0
1048.886,0.001007,0,-0.005859375,0.03515625,1.9375,0.75,5.296875,-0.001953125,0.001953125,0.03515625,0.4082031,0.05273438,0,-0.09216309,-0.02111816,0.4285889,0,0,0.1604004,0,3.988,0,0,0,0,nan,2,0.346,1,0,0.1000061,0.1000061,0.1000061,0.1000061,0,0,0,1,2,0
1048.896,0.001049,-0.02148438,-0.00390625,-0.04492188,0.609375,5.78125,12.34375,-0.009765625,0,-0.02539062,0.4082031,0.05273438,0,-0.09216309,-0.02111816,0.4285889,0,0,0.1604004,0,3.988,0,0,0,0,nan,2,0.357,1,0,0.1000061,0.1000061,0.1000061,0.1000061,0,0,0,1,2,0
1048.906,0.001011,-0.02539062,-0.01757812,0.02734375,-1.320312,0.671875,16.41406,-0.01171875,-0.02539062,-0.001953125,0.4082031,0.05273438,0,-0.09240723,-0.0213623,0.4283447,0,0,0.1604004,0,3.988,0,0,0,0,nan,2,0.367,1,0,0.1000061,0.1000061,0.1000061,0.1000061,0,0,0,1,2,0
1048.916,0.001011,0.03515625,0.01367188,0.0078125,-0.9453125,-6.109375,9.007812,0.005859375,-0.009765625,0.0234375,0.4082031,0.05273438,0,-0.09240723,-0.02160645,0.4285889,0,0,0.1604004,0,3.988,0,0,0,0,nan,2,0.377,1,0,0.1000061,0.1000061,0.1000061,0.1000061,0,0,0,1,2,0
1048.926,0.001011,0.015625,-0.009765625,-0.04296875,-1.375,-5.257812,3.164062,-0.00390625,0.001953125,-0.0390625,0.4082031,0.05273438,0,-0.0925293,-0.02148438,0.4284668,0,0,0.1604004,0,3.988,0,0,0,0,nan,2,0.387,1,0,0.1000061,0.1000061,0.1000061,0.1000061,0,0,0,1,2,0
1048.936,0.001011,-0.03515625,0.0078125,0.03710938,0.203125,2.796875,5.90625,-0.03125,0.01757812,0.01367188,0.4082031,0.05273438,0,-0.09265137,-0.0213623,0.4282227,0,0,0.1604004,0,3.988,0,0,0,0,nan,2,0.397,1,0,0.1000061,0.1000061,0.1000061,0.1000061,0,0,0,1,2,0
1048.947,0.001011,-0.0234375,0.04101562,-0.03320312,-1.234375,3.304688,14.00781,-0.01953125,0.03515625,0.001953125,0.4082031,0.05273438,0,-0.09289551,-0.02111816,0.4284668,0,0,0.1604004,0,3.988,0,0,0,0,nan,2,0.407,1,0,0.1000061,0.1000061,0.1000061,0.1000061,0,0,0,1,2,0
1048.957,0.001011,0.0078125,-0.01171875,-0.02734375,-1.492188,0.28125,10.69531,0.0078125,0,-0.0390625,0.4082031,0.05273438,0,-0.09301758,-0.02099609,0.4281006,0,0,0.1604004,0,3.988,0,0,0,0,nan,2,0.417,1,0,0.1000061,0.1000061,0.1000061,0.1000061,0,0,0,1,2,0
1048.966,0.001009,0.08203125,-0.01367188,0.04882812,0.3203125,-2.65625,7.1875,0.015625,0.009765625,0.02734375,0.4082031,0.05273438,0,-0.09301758,-0.02087402,0.4281006,0,0,0.1604004,0,3.988,0,0,0,0,nan,2,0.426,1,0,0.1000061,0.1000061,0.1000061,0.1000061,0,0,0,1,2,0
1048.976,0.001012,-0.02148438,0.02539062,-0.04101562,0.875,2.421875,14.35938,-0.015625,0.005859375,-0.01171875,0.4082031,0.05273438,0,-0.09301758,-0.02099609,0.4282227,0,0,0.1604004,0,3.988,0,0,0,0,nan,2,0.436,1,0,0.1000061,0.1000061,0.1000061,0.1000061,0,0,0,1,2,0
1048.986,0.001029,-0.01953125,0.009765625,-0.01171875,2.554688,-0.0703125,14.78906,-0.01757812,0.0078125,-0.02734375,0.4082031,0.05273438,0,-0.09301758,-0.02087402,0.4279785,0,0,0.1604004,0,3.988,0,0,0,0,nan,2,0.446,1,0,0.1000061,0.1000061,0.1000061,0.1000061,0,0,0,1,2,0
1048.996,0.001012,0.0234375,-0.02734375,0.03320312,2.03125,-5.148438,7.421875,0.01953125,-0.0078125,0.02734375,0.4082031,0.05273438,0,-0.09313965,-0.02087402,0.4279785,0,0,0.1604004,0,3.988,0,0,0,0,nan,2,0.456,1,0,0.1000061,0.1000061,0.1000061,0.1000061,0,0,0,1,2,0
1049.006,0.001011,0.005859375,-0.015625,-0.04882812,0.7265625,0.5625,6.007812,-0.00390625,0.0078125,-0.02148438,0.4082031,0.05273438,0,-0.09301758,-0.02087402,0.4281006,0,0,0.1604004,0,3.988,0,0,0,0,nan,2,0.467,1,0,0.1000061,0.1000061,0.1000061,0.1000061,0,0,0,1,2,0
1049.016,0.001032,-0.009765625,-0.0078125,0.0234375,-1.578125,5.164062,10.4375,0.0078125,-0.015625,-0.001953125,0.4082031,0.05273438,0,-0.09301758,-0.02087402,0.4278564,0,0,0.1604004,0,3.988,0,0,0,0,nan,2,0.477,1,0,0.1000061,0.1000061,0.1000061,0.1000061,0,0,0,1,2,0
1049.026,0.0009860001,-0.005859375,0.02539062,0.03125,-2.296875,-0.9921875,13.72656,-0.005859375,0.001953125,0.03515625,0.4082031,0.05273438,0,-0.09301758,-0.02099609,0.4281006,0,0,0.1604004,0,3.988,0,0,0,0,nan,2,0.487,1,0,0.1000061,0.1000061,0.1000061,0.1000061,0,0,0,1,2,0
1049.036,0.001011,0.009765625,-0.01171875,-0.04101562,-1.570312,-6.6875,4.90625,0.009765625,-0.005859375,-0.03125,0.4082031,0.05273438,0,-0.09301758,-0.02099609,0.4281006,0,0,0.1604004,0,3.988,0,0,0,0,nan,2,0.497,1,0,0.1000061,0.1000061,0.1000061,0.1000061,0,0,0,1,2,0
1049.047,0.001024,-0.0078125,0.01171875,0.04296875,0.5625,-2.0625,4.0625,-0.001953125,0.015625,0.015625,0.4082031,0.05273438,0,-0.09313965,-0.02099609,0.4278564,0,0,0.1604004,0,3.988,0,0,0,0,nan,2,0.507,1,0,0.1000061,0.1000061,0.1000061,0.1000061,0,0,0,1,2,0
1049.057,0.001011,0.015625,-0.0078125,0.0078125,-0.984375,3.59375,11.82812,0.0078125,-0.001953125,0.02539062,0.4082031,0.05273438,0,-0.09313965,-0.02099609,0.4282227,0,0,0.1604004,0,3.988,0,0,0,0,nan,2,0.517,1,0,0.1000061,0.1000061,0.1000061,0.1000061,0,0,0,1,2,0
1049.066,0.001003,-0.03125,-0.005859375,-0.03320312,-1.914062,0.203125,12.46875,-0.009765625,-0.001953125,-0.02734375,0.4082031,0.05273438,0,-0.09301758,-0.02099609,0.4281006,0,0,0.1604004,0,3.988,0,0,0,0,nan,2,0.526,1,0,0.1000061,0.1000061,0.1000061,0.1000061,0,0,0,1,2,0
1049.076,0.000999,0.02539062,-0.03515625,0.04882812,-1.0625,-1.164062,6.5625,0.005859375,-0.009765625,0.01757812,0.4082031,0.05273438,0,-0.09313965,-0.02111816,0.4279785,0,0,0.1604004,0,3.988,0,0,0,0,nan,2,0.536,1,0,0.1000061,0.1000061,0.1000061,0.1000061,0,0,0,1,2,0
1049.086,0.000951,0.00390625,-0.0234375,-0.001953125,0.8359375,2.054688,13.16406,0.01171875,-0.005859375,0.015625,0.4082031,0.05273438,0,-0.09301758,-0.02111816,0.4283447,0,0,0.1604004,0,3.988,0,0,0,0,nan,2,0.546,1,0,0.1000061,0.1000061,0.1000061,0.1000061,0,0,0,1,2,0
1049.096,0.001002,0.0234375,0.00390625,-0.03515625,2.414062,2.914062,18.35156,0,0.009765625,-0.03710938,0.4082031,0.05273438,0,-0.09313965,-0.02111816,0.4281006,0,0,0.1604004,0,3.988,0,0,0,0,nan,2,0.556,1,0,0.1000061,0.1000061,0.1000061,0.1000061,0,0,0,1,2,0
1049.106,0.001003,0.05859375,0,0.04492188,2.335938,-6.289062,10.53125,0.00390625,0.0078125,0.01171875,0.4082031,0.05273438,0,-0.09313965,-0.02111816,0.4278564,0,0,0.1604004,0,3.988,0,0,0,0,nan,2,0.567,1,0,0.1000061,0.1000061,0.1000061,0.1000061,0,0,0,1,2,0
1049.116,0.001003,-0.009765625,0.03710938,-0.005859375,2.34375,-3.195312,6.3125,-0.001953125,-0.001953125,0.01367188,0.4082031,0.05273438,0,-0.09313965,-0.02111816,0.4281006,0,0,0.1604004,0,3.988,0,0,0,0,nan,2,0.577,1,0,0.1000061,0.1000061,0.1000061,0.1000061,0,0,0,1,2,0
1049.126,0.001003,-0.01953125,0.01953125,-0.02148438,2.34375,6.367188,11.29688,-0.005859375,0.00390625,-0.02539062,0.4082031,0.05273438,0,-0.09313965,-0.02111816,0.4279785,0,0,0.1604004,0,3.988,0,0,0,0,nan,2,0.587,1,0,0.1000061,0.1000061,0.1000061,0.1000061,0,0,0,1,2,0
1049.137,0.001008,0.0390625,-0.03320312,0.03320312,-1.132812,0.46875,15.32812,0.005859375,-0.001953125,0.01757812,0.4082031,0.05273438,0,-0.09313965,-0.02111816,0.4279785,0,0,0.1604004,0,3.988,0,0,0,0,nan,2,0.597,1,0,0.1000061,0.1000061,0.1000061,0.1000061,0,0,0,1,2,0
1049.147,0.001026,-0.009765625,0.001953125,-0.009765625,-1.117188,-2.789062,5.484375,0.001953125,-0.0078125,0.009765625,0.4082031,0.05273438,0,-0.09313965,-0.02111816,0.4282227,0,0,0.1604004,0,3.988,0,0,0,0,nan,2,0.607,1,0,0.1000061,0.1000061,0.1000061,0.1000061,0,0,0,1,2,0
1049.157,0.001005,0.01953125,-0.005859375,-0.03320312,-1.773438,-0.15625,8.757812,-0.0078125,-0.00390625,-0.03125,0.4082031,0.05273438,0,-0.09313965,-0.02111816,0.4279785,0,0,0.1604004,0,3.988,0,0,0,0,nan,2,0.617,1,0,0.1000061,0.1000061,0.1000061,0.1000061,0,0,0,1,2,0
1049.166,0.001008,0,-0.01171875,0.0546875,-2.054688,1.09375,17.1875,0,0,0.0234375,0.4082031,0.05273438,0,-0.09326172,-0.02124023,0.4279785,0,0,0.1604004,0,3.988,0,0,0,0,nan,2,0.626,1,0,0.1000061,0.1000061,0.1000061,0.1000061,0,0,0,1,2,0
1049.176,0.001017,-0.0078125,-0.03320312,-0.02734375,-1.460938,-5.703125,6.78125,0,0.001953125,0.001953125,0.4082031,0.05273438,0,-0.09326172,-0.02124023,0.4282227,0,0,0.1604004,0,3.988,0,0,0,0,nan,2,0.636,1,0,0.1000061,0.1000061,0.1000061,0.1000061,0,0,0,1,2,0
1049.186,0.001014,0.046875,0.0078125,-0.0078125,-0.1484375,-1.28125,3.351562,-0.001953125,0.009765625,-0.02539062,0.4082031,0.05273438,0,-0.09338379,-0.02124023,0.4278564,0,0,0.1604004,0,3.988,0,0,0,0,nan,2,0.009,1,0,0.1000061,0.1000061,0.1000061,0.1000061,0,0,0,1,2,0
1049.196,0.0009869999,0.0078125,0.01953125,0.0390625,0.6171875,5.84375,10.82031,0,0.01757812,0.03515625,0.4082031,0.05273438,0,-0.09338379,-0.02124023,0.4281006,0,0,0.1604004,0,3.988,0,0,0,0,nan,2,0.006,1,0,0.1000061,0.1000061,0.1000061,0.1000061,0,0,0,1,2,0
1049.206,0.001049,-0.009765625,0.015625,-0.04882812,-0.3046875,2.085938,14.01562,-0.005859375,0,-0.0234375,0.4082031,0.05273438,0,-0.09338379,-0.02124023,0.4281006,0,0,0.1604004,0,3.988,0,0,0,0,nan,2,0.016,1,0,0.1000061,0.1000061,0.1000061,0.1000061,0,0,0,1,2,0
1049.216,0.001009,-0.04882812,-0.04492188,0.03125,-0.96875,-3.78125,9.09375,0.001953125,-0.01953125,0,0.4082031,0.05273438,0,-0.09326172,-0.02124023,0.4278564,0,0,0.1604004,0,3.988,0,0,0,0,nan,2,0.026,1,0,0.1000061,0.1000061,0.1000061,0.1000061,0,0,0,1,2,0.8253968
1049.226,0.001009,-0.00390625,-0.009765625,-0.015625,0.9453125,-1.539062,9.507812,-0.01367188,0.0078125,0.01367188,0.4082031,0.05273438,0,-0.09338379,-0.02124023,0.4281006,0,0,0.1604004,0,3.988,0,0,0,0,nan,2,0.036,1,0,0.1000061,0.1000061,0.1000061,0.1000061,0,0,0,1,2,0.6349207
1049.236,0.001009,-0.046875,0.02734375,-0.03320312,0.734375,3.421875,15.94531,-0.02148438,0.001953125,-0.03125,0.4082031,0.05273438,0,-0.09350586,-0.0213623,0.4279785,0,0,0.1604004,0,3.988,0,0,0,0,nan,2,0.046,1,0,0.1000061,0.1000061,0.1000061,0.1000061,0,0,0,1,2,0
1049.247,0.001007,-0.015625,0.001953125,0.03710938,1.609375,-3.46875,11.57031,-0.009765625,0.01953125,0.02539062,0.4082031,0.05273438,0,-0.09362793,-0.02111816,0.4278564,0,0,0.1604004,0,3.988,0,0,0,0,nan,2,0.057,1,0,0.1000061,0.1000061,0.1000061,0.1000061,0,0,0,1,2,0
1049.257,0.001009,0.0234375,-0.005859375,-0.04492188,1.890625,-1.929688,2.914062,0.0078125,-0.00390625,-0.0078125,0.4082031,0.05273438,0,-0.09350586,-0.02111816,0.4281006,0,0,0.1604004,0,3.988,0,0,0,0,nan,2,0.067,1,0,0.1000061,0.1000061,0.1000061,0.1000061,0,0,0,1,2,0
1049.266,0.001009,-0.04296875,0.001953125,0.0078125,-0.5625,6.1875,6.820312,-0.02734375,-0.00390625,-0.02148438,0.4082031,0.05273438,0,-0.09362793,-0.02124023,0.4278564,0,0,0.1604004,0,3.988,0,0,0,0,nan,2,0.076,1,0,0.1000061,0.1000061,0.1000061,0.1000061,0,0,0,1,2,0
1049.276,0.001014,0.02148438,-0.01171875,0.04882812,-1.210938,2.796875,13.61719,-0.01367188,0,0.04296875,0.4082031,0.05273438,0,-0.09387207,-0.02124023,0.4279785,0,0,0.1604004,0,3.988,0,0,0,0,nan,2,0.086,1,0,0.1000061,0.1000061,0.1000061,0.1000061,0,0,0,1,2,0
1049.286,0.00101,-0.01953125,0.04101562,-0.04882812,-3.40625,-6.390625,6.484375,-0.0078125,0.02734375,-0.01953125,0.4082031,0.05273438,0,-0.09387207,-0.02099609,0.4281006,0,0,0.1604004,0,3.988,0,0,0,0,nan,2,0.096,1,0,0.1000061,0.1000061,0.1000061,0.1000061,0,0,0,1,2,0.8095238
1049.296,0.001007,-0.03320312,0.015625,0.01757812,-1.515625,-3.09375,6.171875,0.00390625,0.015625,-0.01171875,0.4082031,0.05273438,0,-0.09387207,-0.02087402,0.4278564,0,0,0.1604004,0,3.988,0,0,0,0,nan,2,0.106,1,0,0.1000061,0.1000061,0.1000061,0.1000061,0,0,0,1,2,0
1049.306,0.001011,-0.00390625,0.01953125,0.01757812,0.4609375,3.40625,15.36719,0,0.02734375,0.0234375,0.4082031,0.05273438,0,-0.09387207,-0.02062988,0.4279785,0,0,0.1604004,0,3.988,0,0,0,0,nan,2,0.116,1,0,0.1000061,0.1000061,0.1000061,0.1000061,0,0,0,1,2,0
1049.316,0.001036,-0.046875,0.04101562,-0.03710938,2.679688,-1.742188,11.65625,-0.0078125,0.0234375,-0.02539062,0.4082031,0.05273438,0,-0.09387207,-0.02038574,0.4278564,0,0,0.1604004,0,3.988,0,0,0,0,nan,2,0.001,1,0,0.1000061,0.1000061,0.1000061,0.1000061,0,0,0,1,2,0
1049.326,0.001022,-0.015625,0.01171875,0.03125,4.523438,-0.0546875,5.796875,-0.01367188,0.02148438,0.015625,0.4082031,0.05273438,0,-0.09399414,-0.0201416,0.4277344,0,0,0.1604004,0,3.988,0,0,0,0,nan,2,0.011,1,0,0.1000061,0.1000061,0.1000061,0.1000061,0,0,0,1,2,0
1049.337,0.001036,-0.03125,0.0078125,-0.015625,2.03125,6.257812,13.17188,-0.01953125,0.0078125,-0.00390625,0.4082031,0.05273438,0,-0.09411621,-0.02001953,0.4278564,0,0,0.1604004,0,3.988,0,0,0,0,nan,2,0.021,1,0,0.1000061,0.1000061,0.1000061,0.1000061,0,0,0,1,2,0
1049.347,0.001009,-0.04492188,-0.05664062,0.03320312,-2.0625,-4.203125,11.17969,-0.015625,-0.02734375,0.01757812,0.4082031,0.05273438,0,-0.09423828,-0.0201416,0.4279785,0,0,0.1604004,0,3.988,0,0,0,0,nan,2,0.031,1,0,0.1000061,0.1000061,0.1000061,0.1000061,0,0,0,1,2,0
1049.357,0.001,0.03320312,-0.02929688,-0.03710938,-2.84375,-4.101562,4.96875,0.015625,-0.03710938,-0.009765625,0.4082031,0.05273438,0,-0.09423828,-0.02038574,0.4281006,0,0,0.1604004,0,3.988,0,0,0,0,nan,2,0.041,1,0,0.1000061,0.1000061,0.1000061,0.1000061,0,0,0,1,2,0
1049.366,0.001033,0.005859375,0.005859375,0.01953125,-3.304688,2.585938,13.29688,0.009765625,-0.00390625,-0.009765625,0.4082031,0.05273438,0,-0.09411621,-0.02050781,0.4278564,0,0,0.1604004,0,3.988,0,0,0,0,nan,2,0.051,1,0,0.1000061,0.1000061,0.1000061,0.1000061,0,0,0,1,2,0
1049.376,0.001004,-0.005859375,0.01367188,0,-2.851562,-2.9375,10.19531,-0.00390625,0.0078125,0.01367188,0.4082031,0.05273438,0,-0.09399414,-0.02050781,0.4279785,0,0,0.1604004,0,3.988,0,0,0,0,nan,2,0.061,1,0,0.1000061,0.1000061,0.1000061,0.1000061,0,0,0,1,2,0
1049.386,0.001019,0.0078125,0.0625,0,0.7265625,2.390625,7.085938,-0.0078125,0.03515625,-0.0078125,0.4082031,0.05273438,0,-0.09411621,-0.02038574,0.4279785,0,0,0.1604004,0,3.988,0,0,0,0,nan,2,0.071,1,0,0.1000061,0.1000061,0.1000061,0.1000061,0,0,0,1,2,0
1049.396,0.001009,-0.03710938,0.01367188,-0.01953125,1.648438,0.375,13.99219,-0.009765625,0.02539062,-0.005859375,0.4082031,0.05273438,0,-0.09411621,-0.02001953,0.4278564,0,0,0.1604004,0,3.988,0,0,0,0,nan,2,0.081,1,0,0.1000061,0.1000061,0.1000061,0.1000061,0,0,0,1,2,0
1049.406,0.001005,0.01367188,0.03125,0.0078125,3.3125,-3.679688,5.523438,-0.009765625,0.01757812,-0.01171875,0.4082031,0.05273438,0,-0.09411621,-0.01989746,0.4277344,0,0,0.1604004,0,3.988,0,0,0,0,nan,2,0.091,1,0,0.1000061,0.1000061,0.1000061,0.1000061,0,0,0,1,2,0
1049.416,0.000957,-0.0234375,0.015625,0.009765625,1.476562,3.539062,11.53906,-0.01953125,0.005859375,0.015625,0.4082031,0.05273438,0,-0.09423828,-0.01977539,0.4278564,0,0,0.1604004,0,3.988,0,0,0,0,nan,2,0.101,1,0,0.1000061,0.1000061,0.1000061,0.1000061,0,0,0,1,2,0
1049.426,0.001034,0.05078125,-0.04296875,0.005859375,-0.640625,-2.804688,13.75,0,-0.02734375,0,0.4082031,0.05273438,0,-0.09448242,-0.01989746,0.4278564,0,0,0.1604004,0,3.988,0,0,0,0,nan,2,0.111,1,0,0.1000061,0.1000061,0.1000061,0.1000061,0,0,0,1,2,0
1049.437,0.000993,-0.015625,-0.00390625,-0.0234375,-0.953125,-0.0546875,7.203125,0.00390625,-0.009765625,-0.01171875,0.4082031,0.05273438,0,-0.09436035,-0.0201416,0.4278564,0,0,0.1604004,0,3.988,0,0,0,0,nan,2,0.121,1,0,0.1000061,0.1000061,0.1000061,0.1000061,0,0,0,1,2,0
1049.446,0.00104,0.02148438,0.04101562,0.01367188,-1.40625,3.171875,8.015625,0.005859375,0.02539062,-0.005859375,0.4082031,0.05273438,0,-0.09436035,-0.02001953,0.4277344,0,0,0.1604004,0,3.988,0,0,0,0,nan,2,0.13,1,0,0.1000061,0.1000061,0.1000061,0.1000061,0,0,0,1,2,0
1049.456,0.001037,0.005859375,-0.009765625,0.009765625,-1.289062,-1.984375,16.10938,-0.005859375,-0.005859375,0.01367188,0.4082031,0.05273438,0,-0.09436035,-0.01989746,0.4277344,0,0,0.1604004,0,3.988,0,0,0,0,nan,2,0.14,1,0,0.1000061,0.1000061,0.1000061,0.1000061,0,0,0,1,2,0
1049.466,0.000991,-0.009765625,0.03710938,-0.005859375,0.5,1.453125,11.96875,0.0078125,0.001953125,-0.001953125,0.4082031,0.05273438,0,-0.09436035,-0.0201416,0.4278564,0,0,0.1604004,0,3.988,0,0,0,0,nan,2,0.151,1,0,0.1000061,0.1000061,0.1000061,0.1000061,0,0,0,1,2,0
1049.476,0.001008,0.02148438,-0.00390625,-0.01171875,1.734375,-5.164062,4.242188,-0.001953125,-0.001953125,-0.015625,0.4082031,0.05273438,0,-0.09436035,-0.02001953,0.4277344,0,0,0.1604004,0,3.988,0,0,0,0,nan,2,0.161,1,0,0.1000061,0.1000061,0.1000061,0.1000061,0,0,0,1,2,0
1049.486,0.001041,-0.01367188,-0.009765625,0.02148438,1.617188,1.859375,13.0625,0,0.001953125,0.01757812,0.4082031,0.05273438,0,-0.09423828,-0.02001953,0.4277344,0,0,0.1604004,0,3.988,0,0,0,0,nan,2,0.006,1,0,0.1000061,0.1000061,0.1000061,0.1000061,0,0,0,1,2,0
1049.496,0.001023,-0.009765625,0.01757812,-0.01757812,2.4375,0.2734375,5.367188,0.0078125,-0.005859375,-0.00390625,0.4082031,0.05273438,0,-0.09423828,-0.02001953,0.4278564,0,0,0.1604004,0,3.988,0,0,0,0,nan,2,0.016,1,0,0.1000061,0.1000061,0.1000061,0.1000061,0,0,0,1,2,0
1049.506,0.001,-0.02539062,0.03125,-0.001953125,0.1640625,1.570312,16.53906,-0.01757812,0.0234375,-0.01367188,0.4082031,0.05273438,0,-0.09436035,-0.01989746,0.4277344,0,0,0.1604004,0,3.988,0,0,0,0,nan,2,0,1,0,0.1000061,0.1000061,0.1000061,0.1000061,0,0,0,1,2,0
1049.516,0.001028,0.01367188,-0.015625,0.001953125,-0.265625,2.328125,7.570312,0.01757812,-0.01367188,0.0078125,0.4082031,0.05273438,0,-0.09423828,-0.02001953,0.4277344,0,0,0.1604004,0,3.988,0,0,0,0,nan,2,0.01,1,0,0.1000061,0.1000061,0.1000061,0.1000061,0,0,0,1,2,0
1049.526,0.000977,-0.04492188,-0.005859375,0.005859375,-3.21875,-4.445312,9.992188,-0.01757812,0.009765625,0.001953125,0.4082031,0.05273438,0,-0.09423828,-0.01989746,0.4277344,0,0,0.1604004,0,3.988,0,0,0,0,nan,2,0.02,1,0,0.1000061,0.1000061,0.1000061,0.1000061,0,0,0,1,2,0
1049.537,0.001052,0.01367188,-0.02539062,-0.009765625,-3.171875,1.273438,12.69531,-0.005859375,-0.015625,-0.001953125,0.4082031,0.05273438,0,-0.09436035,-0.01989746,0.4278564,0,0,0.1604004,0,3.988,0,0,0,0,nan,2,0.002,1,0,0.1000061,0.1000061,0.1000061,0.1000061,0,0,0,1,2,0
1049.547,0.001021,0.01757812,0.04882812,-0.00390625,-1.445312,-5.484375,6.367188,-0.01171875,0.01953125,-0.001953125,0.4082031,0.05273438,0,-0.09436035,-0.02001953,0.4277344,0,0,0.1604004,0,3.988,0,0,0,0,nan,2,0.012,1,0,0.1000061,0.1000061,0.1000061,0.1000061,0,0,0,1,2,0
1049.556,0.001011,-0.0625,-0.02929688,0.0234375,2.007812,-1.429688,7.710938,-0.015625,0,0.01171875,0.4082031,0.05273438,0,-0.09436035,-0.01989746,0.4277344,0,0,0.1604004,0,3.988,0,0,0,0,nan,2,0.021,1,0,0.1000061,0.1000061,0.1000061,0.1000061,0,0,0,1,2,0
1049.566,0.001009,-0.01757812,-0.02539062,-0.01757812,1.945312,0.3359375,18.15625,-0.01171875,-0.009765625,-0.0078125,0.4082031,0.05273438,0,-0.09448242,-0.01989746,0.4278564,0,0,0.1604004,0,3.988,0,0,0,0,nan,2,0.031,1,0,0.1000061,0.1000061,0.1000061,0.1000061,0,0,0,1,2,0
1049.576,0.001018,-0.001953125,-0.0078125,0.0078125,3.515625,3.875,13.48438,0.01367188,-0.02539062,0.001953125,0.4082031,0.05273438,0,-0.09436035,-0.0201416,0.4278564,0,0,0.1604004,0,3.988,0,0,0,0,nan,2,0.007,1,0,0.1000061,0.1000061,0.1000061,0.1000061,0,0,0,1,2,0
1049.586,0.001003,-0.005859375,0,0.00390625,2.78125,-0.46875,7.835938,0.0078125,0.005859375,0.0078125,0.4082031,0.05273438,0,-0.09423828,-0.0201416,0.4278564,0,0,0.1604004,0,3.988,0,0,0,0,nan,2,0.017,1,0,0.1000061,0.1000061,0.1000061,0.1000061,0,0,0,1,2,0
1049.596,0.001022,-0.01171875,0.005859375,-0.009765625,-0.015625,-0.8046875,15.8125,-0.015625,0.015625,-0.009765625,0.4082031,0.05273438,0,-0.09423828,-0.02001953,0.4278564,0,0,0.1604004,0,3.988,0,0,0,0,nan,2,0,1,0,0.1000061,0.1000061,0.1000061,0.1000061,0,0,0,1,2,0
1049.606,0.001002,0.02148438,0.04101562,-0.005859375,-1.492188,-1.46875,7.226562,0.01367188,0.02539062,0,0.4082031,0.05273438,0,-0.09423828,-0.01977539,0.4278564,0,0,0.1604004,0,3.988,0,0,0,0,nan,2,0.01,1,0,0.1000061,0.1000061,0.1000061,0.1000061,0,0,0,1,2,0
1049.616,0.000997,0.001953125,0.02148438,0.005859375,-4.03125,-4.664062,10.1875,-0.00390625,0.03320312,-0.00390625,0.4082031,0.05273438,0,-0.09436035,-0.01953125,0.4277344,0,0,0.1604004,0,3.988,0,0,0,0,nan,2,0.001,1,0,0.1000061,0.1000061,0.1000061,0.1000061,0,0,0,1,2,0
1049.626,0.001019,-0.009765625,-0.046875,0.005859375,-0.9140625,3.367188,10.5625,-0.001953125,-0.01171875,-0.001953125,0.4082031,0.05273438,0,-0.09436035,-0.01928711,0.4277344,0,0,0.1604004,0,3.988,0,0,0,0,nan,2,0.011,1,0,0.1000061,0.1000061,0.1000061,0.1000061,0,0,0,1,2,0
1049.637,0.001002,-0.01171875,-0.009765625,-0.01367188,-0.859375,-2.289062,9.101562,0.01367188,-0.0078125,0,0.4082031,0.05273438,0,-0.09411621,-0.01940918,0.4277344,0,0,0.1604004,0,3.988,0,0,0,0,nan,2,0.021,1,0,0.1000061,0.1000061,0.1000061,0.1000061,0,0,0,1,2,0.1428571
1049.647,0.001041,0,-0.005859375,0.009765625,0.515625,5.125,8.859375,0.00390625,-0.02734375,-0.009765625,0.4082031,0.05273438,0,-0.09399414,-0.01965332,0.4276123,0,0,0.1604004,0,3.988,0,0,0,0,nan,2,0.003,1,0,0.1000061,0.1000061,0.1000061,0.1000061,0,0,0,1,2,0.07936508
1049.657,0.001056,-0.01171875,0.00390625,0.00390625,1.921875,-4.34375,7.25,-0.01367188,-0.015625,0.0078125,0.4082031,0.05273438,0,-0.09399414,-0.01989746,0.4277344,0,0,0.1604004,0,3.988,0,0,0,0,nan,2,0.013,1,0,0.1000061,0.1000061,0.1000061,0.1000061,0,0,0,1,2,0
1049.666,0.001044,-0.04296875,-0.01953125,-0.00390625,2.046875,2.335938,11.07812,-0.02734375,0.005859375,0.001953125,0.4082031,0.05273438,0,-0.09423828,-0.01989746,0.4277344,0,0,0.1604004,0,3.988,0,0,0,0,nan,2,0.001,1,0,0.1000061,0.1000061,0.1000061,0.1000061,0,0,0,1,2,0
1049.676,0.001003,0,0.04882812,0.001953125,0.0859375,-2.835938,9.265625,-0.009765625,0.03710938,-0.001953125,0.4082031,0.05273438,0,-0.09436035,-0.01965332,0.4276123,0,0,0.1604004,0,3.988,0,0,0,0,nan,2,0.011,1,0,0.1000061,0.1000061,0.1000061,0.1000061,0,0,0,1,2,0.6666667
1049.686,0.000984,-0.01367188,0.02734375,-0.015625,-0.90625,4.546875,14.33594,-0.02148438,0.02539062,-0.005859375,0.4082031,0.05273438,0,-0.09448242,-0.01940918,0.4276123,0,0,0.1604004,0,3.988,0,0,0,0,nan,2,0.001,1,0,0.1000061,0.1000061,0.1000061,0.1000061,0,0,0,1,2,0
1049.696,0.001016,-0.03515625,0.02148438,0.02734375,-1.710938,-4.085938,7.296875,-0.009765625,0.02734375,0.01171875,0.4082031,0.05273438,0,-0.09460449,-0.01904297,0.4276123,0,0,0.1604004,0,3.989,0,0,0,0,nan,2,0.011,1,0,0.1000061,0.1000061,0.1000061,0.1000061,0,0,0,1,2,0
1049.706,0.001002,0.0234375,0.03515625,-0.015625,-1.28125,4.414062,12.19531,0.00390625,0.02539062,0,0.4082031,0.05273438,0,-0.09472656,-0.0189209,0.4276123,0,0,0.1604004,0,3.989,0,0,0,0,nan,2,0.021,1,0,0.1000061,0.1000061,0.1000061,0.1000061,0,0,0,1,2,0
1049.716,0.0009869999,-0.03125,-0.0078125,-0.001953125,-1.296875,-5.796875,7.921875,-0.009765625,0.009765625,-0.009765625,0.4082031,0.05273438,0,-0.09472656,-0.01867676,0.4274902,0,0,0.1604004,0,3.989,0,0,0,0,nan,2,0.006,1,0,0.1000061,0.1000061,0.1000061,0.1000061,0,0,0,1,2,0.7777778
1049.726,0.000975,0.0078125,0.0078125,0.02734375,-0.78125,1.289062,8.546875,-0.01367188,0.01367188,0.01367188,0.4082031,0.05273438,0,-0.0949707,-0.01855469,0.4274902,0,0,0.1604004,0,3.989,0,0,0,0,nan,2,0.016,1,0,0.1000061,0.1000061,0.1000061,0.1000061,0,0,0,1,2,0
1049.737,0.000997,0.01953125,-0.00390625,-0.01367188,0.1953125,-5.109375,7.375,0.00390625,-0.015625,0.00390625,0.4082031,0.05273438,0,-0.0949707,-0.01867676,0.4277344,0,0,0.1604004,0,3.989,0,0,0,0,nan,2,0.026,1,0,0.1000061,0.1000061,0.1000061,0.1000061,0,0,0,1,2,0
1049.746,0.001019,0.02148438,-0.0390625,-0.001953125,2.53125,-2.484375,8.914062,0.01171875,-0.02148438,-0.0078125,0.4082031,0.05273438,0,-0.0949707,-0.01879883,0.4276123,0,0,0.1604004,0,3.989,0,0,0,0,nan,2,0.006,1,0,0.1000061,0.1000061,0.1000061,0.1000061,0,0,0,1,2,0.5396826
1049.756,0.001036,0.02734375,-0.00390625,-0.001953125,2.546875,4.429688,11.6875,0.01367188,-0.0234375,0.001953125,0.4082031,0.05273438,0,-0.09484863,-0.01904297,0.4276123,0,0,0.1604004,0,3.989,0,0,0,0,nan,2,0.016,1,0,0.1000061,0.1000061,0.1000061,0.1000061,0,0,0,1,2,0
1049.766,0.001002,0.02539062,0.0078125,0.01171875,0.4140625,-6.265625,4.601562,0.001953125,-0.0078125,0.009765625,0.4082031,0.05273438,0,-0.09472656,-0.01928711,0.4277344,0,0,0.1604004,0,3.989,0,0,0,0,nan,2,0.003,1,0,0.1000061,0.1000061,0.1000061,0.1000061,0,0,0,1,2,0
1049.776,0.001017,0.00390625,0.005859375,-0.015625,-0.5234375,1.210938,15.96094,-0.00390625,0.01367188,-0.01171875,0.4082031,0.05273438,0,-0.09484863,-0.01916504,0.4277344,0,0,0.1604004,0,3.989,0,0,0,0,nan,2,0.013,1,0,0.1000061,0.1000061,0.1000061,0.1000061,0,0,0,1,2,0
1049.786,0.001028,-0.01367188,0.0234375,0.015625,-0.9140625,-6.257812,4.640625,-0.001953125,0.02734375,0.0078125,0.4082031,0.05273438,0,-0.09484863,-0.0189209,0.4276123,0,0,0.1604004,0,3.989,0,0,0,0,nan,2,0.007,1,0,0.1000061,0.1000061,0.1000061,0.1000061,0,0,0,1,2,0
1049.796,0.001035,-0.02148438,0.0546875,-0.001953125,-1.890625,3.289062,14.42188,-0.015625,0.03320312,0,0.4082031,0.05273438,0,-0.09484863,-0.01855469,0.4276123,0,0,0.1604004,0,3.989,0,0,0,0,nan,2,0.004,1,0,0.1000061,0.1000061,0.1000061,0.1000061,0,0,0,1,2,0
1049.806,0.001026,0.02539062,0.015625,-0.01757812,-1.710938,-5.203125,4.953125,-0.009765625,0.0390625,-0.001953125,0.4082031,0.05273438,0,-0.0949707,-0.01818848,0.4276123,0,0,0.1604004,0,3.989,0,0,0,0,nan,2,0.014,1,0,0.1000061,0.1000061,0.1000061,0.1000061,0,0,0,1,2,0
1049.816,0.000989,0.00390625,0.06054688,0.005859375,-0.5234375,3.09375,6.960938,0.001953125,0.03125,-0.01171875,0.4082031,0.05273438,0,-0.09509277,-0.01794434,0.4274902,0,0,0.1604004,0,3.989,0,0,0,0,nan,2,0.024,1,0,0.1000061,0.1000061,0.1000061,0.1000061,0,0,0,1,2,0
1049.826,0.001015,-0.00390625,0.0390625,-0.0078125,1.265625,1.570312,11.9375,-0.005859375,0.03710938,0.0078125,0.4082031,0.05273438,0,-0.09509277,-0.01745605,0.4274902,0,0,0.1604004,0,3.989,0,0,0,0,nan,2,0.034,1,0,0.1000061,0.1000061,0.1000061,0.1000061,0,0,0,1,2,0
1049.836,0.001015,0.01367188,0.0625,-0.009765625,1.765625,0.015625,6.109375,-0.00390625,0.03320312,-0.01757812,0.4082031,0.05273438,0,-0.09509277,-0.01721191,0.4273682,0,0,0.1604004,0,3.989,0,0,0,0,nan,2,0.044,1,0,0.1000061,0.1000061,0.1000061,0.1000061,0,0,0,1,2,0
1049.847,0.001015,-0.0390625,-0.00390625,0.001953125,2.203125,3.945312,12.90625,-0.01367188,0.01953125,0.00390625,0.4082031,0.05273438,0,-0.09521484,-0.01696777,0.4272461,0,0,0.1604004,0,3.989,0,0,0,0,nan,2,0.055,1,0,0.1000061,0.1000061,0.1000061,0.1000061,0,0,0,1,2,0
1049.857,0.001015,0.01367188,-0.01757812,-0.001953125,0.8046875,-2.5625,15.39844,0.01953125,-0.01367188,-0.005859375,0.4082031,0.05273438,0,-0.09509277,-0.01696777,0.4272461,0,0,0.1604004,0,3.989,0,0,0,0,nan,2,0.065,1,0,0.1000061,0.1000061,0.1000061,0.1000061,0,0,0,1,2,0
1049.866,0.001024,-0.001953125,0,0.001953125,-1.28125,-0.9453125,9.609375,0.00390625,0.01367188,0.00390625,0.4082031,0.05273438,0,-0.0949707,-0.0168457,0.4272461,0,0,0.1604004,0,3.989,0,0,0,0,nan,2,0.074,1,0,0.1000061,0.1000061,0.1000061,0.1000061,0,0,0,1,2,0.8571429
1049.876,0.00101,0,0.03710938,-0.0234375,0.640625,4.414062,15.61719,-0.00390625,0.02734375,-0.02148438,0.4082031,0.05273438,0,-0.09509277,-0.01660156,0.427124,0,0,0.1604004,0,3.989,0,0,0,0,nan,2,0.084,1,0,0.1000061,0.1000061,0.1000061,0.1000061,0,0,0,1,2,0
1049.886,0.001015,-0.015625,-0.0234375,0.02734375,-1.429688,-1.992188,11.38281,-0.01367188,0.00390625,0.015625,0.4082031,0.05273438,0,-0.09521484,-0.01635742,0.427002,0,0,0.1604004,0,3.989,0,0,0,0,nan,2,0.094,1,0,0.1000061,0.1000061,0.1000061,0.1000061,0,0,0,1,2,0
1049.896,0.001007,-0.01171875,-0.046875,-0.01953125,-0.2421875,-3.09375,3.78125,-0.01171875,-0.02148438,-0.009765625,0.4082031,0.05273438,0,-0.09533691,-0.01647949,0.427124,0,0,0.1604004,0,3.989,0,0,0,0,nan,2,0.104,1,0,0.1000061,0.1000061,0.1000061,0.1000061,0,0,0,1,2,0
1049.906,0.001012,0.01953125,0.01757812,0.0390625,0.6171875,2.726562,6.875,0.01367188,0.01171875,0.01757812,0.4082031,0.05273438,0,-0.09521484,-0.01660156,0.427124,0,0,0.1604004,0,3.989,0,0,0,0,nan,2,0.114,1,0,0.1000061,0.1000061,0.1000061,0.1000061,0,0,0,1,2,0
1049.916,0.000979,0.01171875,-0.01953125,-0.02539062,0.296875,-2.039062,11.16406,0.00390625,-0.01367188,-0.00390625,0.4082031,0.05273438,0,-0.09521484,-0.01660156,0.4272461,0,0,0.1604004,0,3.989,0,0,0,0,nan,2,0.124,1,0,0.1000061,0.1000061,0.1000061,0.1000061,0,0,0,1,2,0
1049.926,0.001036,-0.0234375,-0.005859375,0,0.8828125,-1.46875,4.390625,-0.0078125,0.00390625,-0.01367188,0.4082031,0.05273438,0,-0.09509277,-0.01672363,0.427124,0,0,0.1604004,0,3.989,0,0,0,0,nan,2,0.134,1,0,0.1000061,0.1000061,0.1000061,0.1000061,0,0,0,1,2,0
1049.936,0.00101,0.0078125,-0.0234375,0,-0.3671875,6.578125,14.30469,0.0078125,-0.01757812,0.005859375,0.4082031,0.05273438,0,-0.09521484,-0.01672363,0.427124,0,0,0.1604004,0,3.989,0,0,0,0,nan,2,0.144,1,0,0.1000061,0.1000061,0.1000061,0.1000061,0,0,0,1,2,0
1049.946,0.001009,-0.001953125,-0.005859375,0.01757812,-0.9296875,-1.515625,15.91406,0.0078125,0.01171875,0.009765625,0.4082031,0.05273438,0,-0.09509277,-0.01672363,0.427124,0,0,0.1604004,0,3.989,0,0,0,0,nan,2,0.154,1,0,0.1000061,0.1000061,0.1000061,0.1000061,0,0,0,1,2,0
1049.957,0.001011,0.0078125,0.01953125,-0.01171875,-0.3828125,-4.304688,4.976562,-0.00390625,-0.001953125,0.00390625,0.4082031,0.05273438,0,-0.0949707,-0.0168457,0.4272461,0,0,0.1604004,0,3.989,0,0,0,0,nan,2,0.165,1,0,0.1000061,0.1000061,0.1000061,0.1000061,0,0,0,1,2,0
1049.966,0.001027,-0.02929688,-0.01757812,-0.02734375,-3.84375,-4.335938,3.515625,-0.009765625,0.0078125,-0.02148438,0.4082031,0.05273438,0,-0.09509277,-0.01672363,0.427124,0,0,0.1604004,0,3.989,0,0,0,0,nan,2,0.174,1,0,0.1000061,0.1000061,0.1000061,0.1000061,0,0,0,1,2,0
1049.976,0.001004,0.0234375,0.01953125,0.03125,-1.75,-1.664062,12,0.001953125,0.00390625,0.01953125,0.4082031,0.05273438,0,-0.09509277,-0.01672363,0.427124,0,0,0.1604004,0,3.989,0,0,0,0,nan,2,0.184,1,0,0.1000061,0.1000061,0.1000061,0.1000061,0,0,0,1,2,0
1049.986,0.001006,-0.0234375,-0.01953125,-0.04492188,-1.46875,-6.078125,2.148438,-0.0078125,0.005859375,-0.01757812,0.4082031,0.05273438,0,-0.09509277,-0.01660156,0.4272461,0,0,0.1604004,0,3.989,0,0,0,0,nan,2,0.194,1,0,0.1000061,0.1000061,0.1000061,0.1000061,0,0,0,1,2,0
1049.996,0.001002,0.04492188,0.03710938,0.03710938,1.601562,1.359375,5.859375,0.02734375,0,0.0078125,0.4082031,0.05273438,0,-0.09484863,-0.01672363,0.427124,0,0,0.1604004,0,3.989,0,0,0,0,nan,2,0.204,1,0,0.1000061,0.1000061,0.1000061,0.1000061,0,0,0,1,2,0
1050.006,0.001031,-0.02539062,-0.01953125,-0.009765625,2.046875,6.203125,13.30469,-0.00390625,0.009765625,0.01757812,0.4082031,0.05273438,0,-0.09484863,-0.01647949,0.4273682,0,0,0.1604004,0,3.989,0,0,0,0,nan,2,0.214,1,0,0.1000061,0.1000061,0.1000061,0.1000061,0,0,0,1,2,0
1050.016,0.001009,0.04296875,-0.02929688,-0.005859375,0.734375,-0.6015625,14.72656,0.01757812,-0.015625,-0.01953125,0.4082031,0.05273438,0,-0.09484863,-0.01647949,0.4272461,0,0,0.1604004,0,3.989,0,0,0,0,nan,2,0.224,1,0,0.1000061,0.1000061,0.1000061,0.1000061,0,0,0,1,2,0
1050.026,0.000964,0.01171875,0.02929688,0.03125,1.148438,-4.960938,9.023438,0.02734375,0.0078125,0.02539062,0.4082031,0.05273438,0,-0.09448242,-0.01660156,0.4273682,0,0,0.1604004,0,3.989,0,0,0,0,nan,2,0.234,1,0,0.1000061,0.1000061,0.1000061,0.1000061,0,0,0,1,2,0
1050.036,0.001009,-0.01757812,-0.01757812,-0.05273438,0.953125,0.84375,11.125,-0.015625,0.005859375,-0.03320312,0.4082031,0.05273438,0,-0.09448242,-0.01647949,0.4272461,0,0,0.1604004,0,3.989,0,0,0,0,nan,2,0.244,1,0,0.1000061,0.1000061,0.1000061,0.1000061,0,0,0,1,2,0
1050.046,0.000981,0.015625,-0.05664062,0.05273438,-1.234375,-0.8203125,12.65625,0.01171875,-0.02929688,0.01367188,0.4082031,0.05273438,0,-0.09448242,-0.01660156,0.427124,0,0,0.1604004,0,3.989,0,0,0,0,nan,2,0.254,1,0,0.1000061,0.1000061,0.1000061,0.1000061,0,0,0,1,2,0
1050.057,0.001011,0.001953125,-0.01953125,-0.04101562,-1.046875,-5.539062,4.039062,0.01171875,-0.03125,0.001953125,0.4082031,0.05273438,0,-0.09436035,-0.01696777,0.4273682,0,0,0.1604004,0,3.989,0,0,0,0,nan,2,0.265,1,0,0.1000061,0.1000061,0.1000061,0.1000061,0,0,0,1,2,0
1050.066,0.001003,-0.01757812,0.01171875,-0.04882812,1.757812,-3.148438,13.26562,-0.005859375,0,-0.05273438,0.4082031,0.05273438,0,-0.09436035,-0.01708984,0.427002,0,0,0.1604004,0,3.989,0,0,0,0,nan,2,0.274,1,0,0.1000061,0.1000061,0.1000061,0.1000061,0,0,0,1,2,0
1050.076,0.001003,-0.009765625,0.01953125,0.06054688,-2.101562,6.078125,10.125,0,0.03125,0.0390625,0.4082031,0.05273438,0,-0.09436035,-0.01696777,0.427002,0,0,0.1604004,0,3.989,0,0,0,0,nan,2,0.284,1,0,0.1000061,0.1000061,0.1000061,0.1000061,0,0,0,1,2,0
1050.086,0.001006,-0.02148438,0.04101562,-0.07617188,-0.1328125,1.734375,17.97656,-0.01171875,0.03320312,-0.02734375,0.4082031,0.05273438,0,-0.09448242,-0.01660156,0.427124,0,0,0.1604004,0,3.989,0,0,0,0,nan,2,0.294,1,0,0.1000061,0.1000061,0.1000061,0.1000061,0,0,0,1,2,0
1050.096,0.001011,-0.05078125,-0.02929688,0.01757812,0.4140625,-5.351562,11.71094,-0.03515625,0.005859375,-0.02929688,0.4082031,0.05273438,0,-0.09472656,-0.01635742,0.4266357,0,0,0.1604004,0,3.989,0,0,0,0,nan,2,0.304,1,0,0.1000061,0.1000061,0.1000061,0.1000061,0,0,0,1,2,0
1050.106,0.001002,0.01953125,-0.01757812,0.06054688,2.1875,-5.429688,5.28125,0.01367188,-0.0234375,0.0625,0.4082031,0.05273438,0,-0.09472656,-0.01660156,0.427002,0,0,0.1604004,0,3.989,0,0,0,0,nan,2,0.314,1,0,0.1000061,0.1000061,0.1000061,0.1000061,0,0,0,1,2,0
1050.116,0.001003,-0.03515625,0.03125,-0.0859375,1.882812,3.054688,9.8125,-0.009765625,0.001953125,-0.0390625,0.4082031,0.05273438,0,-0.09460449,-0.01660156,0.427124,0,0,0.1604004,0,3.989,0,0,0,0,nan,2,0.324,1,0,0.1000061,0.1000061,0.1000061,0.1000061,0,0,0,1,2,0
1050.126,0.001003,0.0078125,0.015625,0.04882812,-1.234375,5.25,14.64062,-0.0078125,0.0234375,0.001953125,0.4082031,0.05273438,0,-0.09472656,-0.01647949,0.4267578,0,0,0.1604004,0,3.989,0,0,0,0,nan,2,0.334,1,0,0.1000061,0.1000061,0.1000061,0.1000061,0,0,0,1,2,0
1050.136,0.001003,0.01171875,-0.005859375,0.02148438,-2.664062,-1.351562,10.50781,0.005859375,-0.01171875,0.0390625,0.4082031,0.05273438,0,-0.09472656,-0.01660156,0.427124,0,0,0.1604004,0,3.989,0,0,0,0,nan,2,0.344,1,0,0.1000061,0.1000061,0.1000061,0.1000061,0,0,0,1,2,0
1050.146,0.001003,-0.01171875,0.05664062,-0.05664062,-1.640625,-3.929688,6.867188,-0.01171875,0.02539062,-0.04296875,0.4082031,0.05273438,0,-0.09460449,-0.01647949,0.427002,0,0,0.1604004,0,3.989,0,0,0,0,nan,2,0.354,1,0,0.1000061,0.1000061,0.1000061,0.1000061,0,0,0,1,2,0
1050.157,0.001003,0.0234375,-0.04492188,0.05273438,0.7109375,-2.898438,2.734375,0.001953125,-0.0234375,0.015625,0.4082031,0.05273438,0,-0.09472656,-0.01647949,0.4268799,0,0,0.1604004,0,3.989,0,0,0,0,nan,2,0.365,1,0,0.1000061,0.1000061,0.1000061,0.1000061,0,0,0,1,2,0
1050.167,0.001005,-0.02148438,-0.001953125,-0.01367188,0.8984375,3.382812,10.80469,-0.0078125,0.005859375,0.01171875,0.4082031,0.05273438,0,-0.09460449,-0.01647949,0.427124,0,0,0.1604004,0,3.989,0,0,0,0,nan,2,0.375,1,0,0.1000061,0.1000061,0.1000061,0.1000061,0,0,0,1,2,0
1050.176,0.001017,0.0078125,-0.03515625,-0.03710938,1,0.7421875,14.32031,0.015625,-0.01757812,-0.03515625,0.4082031,0.05273438,0,-0.09460449,-0.01647949,0.427002,0,0,0.1604004,0,3.989,0,0,0,0,nan,2,0.384,1,0,0.1000061,0.1000061,0.1000061,0.1000061,0,0,0,1,2,0
1050.186,0.001029,0.01171875,-0.015625,0.03320312,-0.3984375,-2.023438,9.367188,0.00390625,-0.0078125,0.015625,0.4082031,0.05273438,0,-0.09448242,-0.01660156,0.4268799,0,0,0.1604004,0,3.989,0,0,0,0,nan,2,0.394,1,0,0.1000061,0.1000061,0.1000061,0.1000061,0,0,0,1,2,0.4444444
1050.196,0.001016,-0.0078125,0.02148438,-0.02148438,1.609375,-0.671875,9.09375,-0.01367188,0.01171875,-0.001953125,0.4082031,0.05273438,0,-0.09448242,-0.01660156,0.427002,0,0,0.1604004,0,3.989,0,0,0,0,nan,2,0.404,1,0,0.1000061,0.1000061,0.1000061,0.1000061,0,0,0,1,2,0
1050.206,0.001019,0.005859375,-0.01953125,-0.01953125,0.8984375,5.21875,13.64062,-0.0078125,-0.02148438,-0.02929688,0.4082031,0.05273438,0,-0.09460449,-0.01672363,0.4267578,0,0,0.1604004,0,3.989,0,0,0,0,nan,2,0.414,1,0,0.1000061,0.1000061,0.1000061,0.1000061,0,0,0,1,2,0
1050.216,0.001017,0.01171875,-0.05664062,0.02929688,-0.375,-0.890625,13.84375,-0.01171875,-0.01367188,0.01367188,0.4082031,0.05273438,0,-0.09484863,-0.01672363,0.4267578,0,0,0.1604004,0,3.989,0,0,0,0,nan,2,0.424,1,0,0.1000061,0.1000061,0.1000061,0.1000061,0,0,0,1,2,0
1050.226,0.001017,-0.02929688,0.01367188,-0.04492188,-1.070312,-7.257812,4.367188,-0.005859375,0.00390625,-0.015625,0.4082031,0.05273438,0,-0.09484863,-0.0168457,0.4267578,0,0,0.1604004,0,3.989,0,0,0,0,nan,2,0.434,1,0,0.1000061,0.1000061,0.1000061,0.1000061,0,0,0,1,2,0
1050.236,0.001017,0.08007812,-0.04101562,0.01757812,-0.6015625,-2.132812,3.054688,0.009765625,-0.009765625,-0.01171875,0.4082031,0.05273438,0,-0.0949707,-0.0168457,0.4265137,0,0,0.1604004,0,3.989,0,0,0,0,nan,2,0.444,1,0,0.1000061,0.1000061,0.1000061,0.1000061,0,0,0,1,2,0
1050.246,0.001017,0.02148438,0.03320312,0.03710938,0.0703125,5.257812,10.25781,0.009765625,0.02539062,0.0390625,0.4082031,0.05273438,0,-0.09472656,-0.01672363,0.4267578,0,0,0.1604004,0,3.989,0,0,0,0,nan,2,0.454,1,0,0.1000061,0.1000061,0.1000061,0.1000061,0,0,0,1,2,0
1050.257,0.001017,-0.009765625,-0.02734375,-0.06054688,-0.5703125,4.320312,18.10156,-0.01757812,-0.015625,-0.03515625,0.4082031,0.05273438,0,-0.0949707,-0.01672363,0.4267578,0,0,0.1604004,0,3.989,0,0,0,0,nan,2,0.465,1,0,0.1000061,0.1000061,0.1000061,0.1000061,0,0,0,1,2,0
1050.267,0.001015,0.01171875,0.01367188,0.04101562,0.3515625,-1.742188,13.25,0,0.005859375,0.005859375,0.4082031,0.05273438,0,-0.09484863,-0.0168457,0.4266357,0,0,0.1604004,0,3.989,0,0,0,0,nan,2,0.475,1,0,0.1000061,0.1000061,0.1000061,0.1000061,0,0,0,1,2,0
1050.276,0.001009,0.0078125,-0.02734375,0.02734375,2.351562,-5.539062,6.484375,0,-0.0078125,0.04296875,0.4082031,0.05273438,0,-0.09484863,-0.01672363,0.4268799,0,0,0.1604004,0,3.989,0,0,0,0,nan,2,0.484,1,0,0.1000061,0.1000061,0.1000061,0.1000061,0,0,0,1,2,0
1050.286,0.001014,-0.015625,-0.005859375,-0.078125,1.648438,-0.8671875,5.875,-0.009765625,-0.009765625,-0.05859375,0.4082031,0.05273438,0,-0.09484863,-0.0168457,0.4267578,0,0,0.1604004,0,3.989,0,0,0,0,nan,2,0.494,1,0,0.1000061,0.1000061,0.1000061,0.1000061,0,0,0,1,2,0
1050.296,0.001008,0.001953125,0.0390625,0.0703125,-0.65625,2.539062,10.49219,-0.00390625,0.02734375,0.0234375,0.4082031,0.05273438,0,-0.0949707,-0.0168457,0.4265137,0,0,0.1604004,0,3.989,0,0,0,0,nan,2,0.504,1,0,0.1000061,0.1000061,0.1000061,0.1000061,0,0,0,1,2,0
1050.306,0.001003,-0.03515625,-0.01953125,-0.01171875,-2.390625,-2.367188,8.5,-0.02148438,-0.00390625,0.02734375,0.4082031,0.05273438,0,-0.09509277,-0.01672363,0.427002,0,0,0.1604004,0,3.989,0,0,0,0,nan,2,0.514,1,0,0.1000061,0.1000061,0.1000061,0.1000061,0,0,0,1,2,0
1050.316,0.001011,-0.01171875,-0.03515625,-0.06640625,-3.632812,-0.3125,4.4375,-0.0078125,-0.02148438,-0.0625,0.4082031,0.05273438,0,-0.09521484,-0.0168457,0.4266357,0,0,0.1604004,0,3.989,0,0,0,0,nan,2,0.524,1,0,0.1000061,0.1000061,0.1000061,0.1000061,0,0,0,1,2,0
1050.326,0.001011,0.05078125,-0.005859375,0.07617188,-1.984375,0.7890625,5.109375,0.03710938,-0.01953125,0.03710938,0.4082031,0.05273438,0,-0.0949707,-0.01708984,0.4265137,0,0,0.1604004,0,3.989,0,0,0,0,nan,2,0.534,1,0,0.1000061,0.1000061,0.1000061,0.1000061,0,0,0,1,2,0
1050.337,0.001053,-0.02539062,0.03710938,-0.02929688,-0.3359375,4,14.36719,0.00390625,0.009765625,0.01171875,0.4082031,0.05273438,0,-0.09484863,-0.01721191,0.427002,0,0,0.1604004,0,3.989,0,0,0,0,nan,2,0.544,1,0,0.1000061,0.1000061,0.1000061,0.1000061,0,0,0,1,2,0
1050.346,0.001009,0.005859375,0.02539062,-0.04296875,1.40625,0.4296875,18.07812,-0.0078125,0.0234375,-0.05664062,0.4082031,0.05273438,0,-0.09484863,-0.01696777,0.4265137,0,0,0.1604004,0,3.986,0,0,0,0,nan,2,0.554,1,0,0.1000061,0.1000061,0.1000061,0.1000061,0,0,0,1,2,0
1050.357,0.001009,-0.04492188,0.02148438,0.06640625,0.53125,-6.171875,10.67188,-0.0234375,0.0234375,0.03320312,0.4082031,0.05273438,0,-0.0949707,-0.0168457,0.4263916,0,0,0.1604004,0,3.986,0,0,0,0,nan,2,0.565,1,0,0.1000061,0.1000061,0.1000061,0.1000061,0,0,0,1,2,0
1050.367,0.001024,0.00390625,0.01953125,-0.02539062,1.96875,-4.625,4.742188,-0.00390625,0.015625,0.01171875,0.4082031,0.05273438,0,-0.09509277,-0.01660156,0.4267578,0,0,0.1604004,0,3.986,0,0,0,0,nan,2,0.575,1,0,0.1000061,0.1000061,0.1000061,0.1000061,0,0,0,1,2,0
1050.376,0.001011,0.009765625,-0.02929688,-0.02539062,0.4296875,5.515625,7.421875,-0.0078125,-0.0078125,-0.03320312,0.4082031,0.05273438,0,-0.09521484,-0.01647949,0.4265137,0,0,0.1604004,0,3.986,0,0,0,0,nan,2,0.584,1,0,0.1000061,0.1000061,0.1000061,0.1000061,0,0,0,1,2,0
1050.386,0.001015,0.01367188,-0.04101562,0.03710938,-0.140625,2.898438,10.35938,0.0234375,-0.04296875,0.02734375,0.4082031,0.05273438,0,-0.09509277,-0.0168457,0.4265137,0,0,0.1604004,0,3.986,0,0,0,0,nan,2,0.594,1,0,0.1000061,0.1000061,0.1000061,0.1000061,0,0,0,1,2,0
1050.396,0.00101,-0.04101562,0.02734375,-0.05078125,-1.6875,-1.039062,9.9375,-0.02148438,0.005859375,-0.0234375,0.4082031,0.05273438,0,-0.09509277,-0.01696777,0.4266357,0,0,0.1604004,0,3.986,0,0,0,0,nan,2,0.604,1,0,0.1000061,0.1000061,0.1000061,0.1000061,0,0,0,1,2,0.2857143
1050.406,0.000984,-0.01171875,0.00390625,0.01367188,-1.828125,-2.882812,1.773438,-0.015625,0.015625,-0.01171875,0.4082031,0.05273438,0,-0.09521484,-0.0168457,0.4263916,0,0,0.1604004,0,3.986,0,0,0,0,nan,2,0.614,1,0,0.1000061,0.1000061,0.1000061,0.1000061,0,0,0,1,2,0
1050.416,0.001011,0.02929688,-0.02929688,0.02539062,-2.210938,-0.46875,8.039062,0.01367188,-0.01757812,0.03125,0.4082031,0.05273438,0,-0.09533691,-0.0168457,0.4265137,0,0,0.1604004,0,3.986,0,0,0,0,nan,2,0.624,1,0,0.1000061,0.1000061,0.1000061,0.1000061,0,0,0,1,2,0
1050.426,0.001011,-0.00390625,0.01953125,-0.0390625,0.3984375,2.453125,17.72656,0.001953125,0.005859375,-0.02148438,0.4082031,0.05273438,0,-0.09521484,-0.0168457,0.4266357,0,0,0.1604004,0,3.986,0,0,0,0,nan,2,0.634,1,0,0.1000061,0.1000061,0.1000061,0.1000061,0,0,0,1,2,0
1050.436,0.001008,-0.03125,0.01367188,0.01953125,0.546875,-1.625,14.46094,-0.015625,0.0078125,-0.005859375,0.4082031,0.05273438,0,-0.09533691,-0.0168457,0.4263916,0,0,0.1604004,0,3.986,0,0,0,0,nan,2,0.644,1,0,0.1000061,0.1000061,0.1000061,0.1000061,0,0,0,1,2,0
1050.446,0.001011,0.0234375,-0.04296875,0.009765625,2.648438,-3.609375,6.757812,0.00390625,-0.02734375,0.02148438,0.4082031,0.05273438,0,-0.09533691,-0.01696777,0.4265137,0,0,0.1604004,0,3.986,0,0,0,0,nan,2,0.654,1,0,0.1000061,0.1000061,0.1000061,0.1000061,0,0,0,1,2,0
1050.457,0.001011,0.009765625,-0.03710938,-0.0390625,2.1875,2.101562,6.351562,0.01171875,-0.02734375,-0.02539062,0.4082031,0.05273438,0,-0.09533691,-0.01721191,0.4265137,0,0,0.1604004,0,3.986,0,0,0,0,nan,2,0.665,1,0,0.1000061,0.1000061,0.1000061,0.1000061,0,0,0,1,2,0
1050.467,0.001011,-0.02929688,0.02929688,0.03320312,-1.234375,2.953125,9.484375,0.001953125,-0.005859375,0.01171875,0.4082031,0.05273438,0,-0.09521484,-0.01745605,0.4263916,0,0,0.1604004,0,3.986,0,0,0,0,nan,2,0.675,1,0,0.1000061,0.1000061,0.1000061,0.1000061,0,0,0,1,2,0.3809524
1050.476,0.00101,-0.015625,0.0234375,-0.0078125,-2.59375,-4.25,9.984375,-0.01171875,0.01757812,0.015625,0.4082031,0.05273438,0,-0.09521484,-0.01733398,0.4266357,0,0,0.1604004,0,3.986,0,0,0,0,nan,2,0.684,1,0,0.1000061,0.1000061,0.1000061,0.1000061,0,0,0,1,2,0
1050.486,0.001012,-0.04882812,0.001953125,-0.05664062,-4.765625,-3.859375,1.328125,-0.02539062,0.01171875,-0.04492188,0.4082031,0.05273438,0,-0.09533691,-0.01708984,0.4263916,0,0,0.1604004,0,3.986,0,0,0,0,nan,2,0.694,1,0,0.1000061,0.1000061,0.1000061,0.1000061,0,0,0,1,2,0
1050.496,0.0009869999,-0.0078125,-0.015625,0.05664062,-2.5,3.609375,10.00781,-0.01757812,-0.01757812,0.02148438,0.4082031,0.05273438,0,-0.09558105,-0.01721191,0.4262695,0,0,0.1604004,0,3.986,0,0,0,0,nan,2,0.004,1,0,0.1000061,0.1000061,0.1000061,0.1000061,0,0,0,1,2,0
1050.506,0.001005,0.009765625,-0.01953125,-0.0234375,0.7109375,2.421875,17.625,-0.0078125,-0.01367188,0.009765625,0.4082031,0.05273438,0,-0.09570312,-0.01733398,0.4265137,0,0,0.1604004,0,3.986,0,0,0,0,nan,2,0.014,1,0,0.1000061,0.1000061,0.1000061,0.1000061,0,0,0,1,2,0
1050.516,0.001023,0,-0.04492188,-0.0078125,2.195312,-2.484375,8.273438,-0.01367188,-0.03710938,-0.02734375,0.4082031,0.05273438,0,-0.0958252,-0.01745605,0.4262695,0,0,0.1604004,0,3.986,0,0,0,0,nan,2,0.024,0,0,0,0,0,0,0,0,0,1,2,0
1050.526,0.001063,-0.01171875,0.02148438,0.02734375,3.15625,1.851562,10.41406,-0.00390625,-0.001953125,0.02929688,0.4082031,0.05273438,0,-0.09594727,-0.0177002,0.4263916,0,0,0.4263916,0,3.986,0,0,0,0,nan,2,0.034,0,0,0,0,0,0,0,0,0,1,2,0
1050.536,0.001015,-0.04492188,0.03125,-0.01953125,0.0390625,-2.671875,9.40625,-0.0078125,0.015625,-0.009765625,0.4082031,0.05273438,0,-0.09606934,-0.01757812,0.4265137,0,0,0.4265137,0,3.986,0,0,0,0,nan,2,0.044,0,0,0,0,0,0,0,0,0,1,2,1
1050.546,0.001005,-0.01953125,-0.02148438,0,-0.7734375,3.757812,13.53125,0.001953125,-0.005859375,-0.0078125,0.4082031,0.05273438,0,-0.09594727,-0.01757812,0.4263916,0,0,0.4263916,0,3.986,0,0,0,0,nan,2,0,0,0,0,0,0,0,0,0,0,1,2,0
1050.556,0.001283,-0.03515625,0.01171875,-0.009765625,0.2578125,-0.671875,3.757812,-0.01171875,-0.005859375,-0.009765625,0.4082031,0.05273438,0,-0.09606934,-0.01757812,0.4262695,0,0,0.4262695,0,3.986,0,0,0,0,nan,2,0.009,0,0,0,0,0,0,0,0,0,1,2,0
1050.566,0.001055,-0.0390625,0.01953125,0.009765625,0.3125,0.2578125,8.484375,-0.0078125,0.00390625,0,0.4082031,0.05273438,0,-0.09606934,-0.0177002,0.4262695,0,0,0.4262695,0,3.986,0,0,0,0,nan,2,0.019,0,0,0,0,0,0,0,0,0,1,2,0
1050.576,0.000734,-0.02539062,0.005859375,0,0.3515625,1.828125,10.54688,-0.00390625,-0.005859375,0.009765625,0.4082031,0.05273438,0,-0.09594727,-0.0177002,0.4263916,0,0,0.4263916,0,3.986,0,0,0,0,nan,2,0.029,0,0,0,0,0,0,0,0,0,1,2,1
1050.586,0.001067,0.009765625,-0.02929688,-0.0234375,2.070312,-0.40625,9.367188,0.005859375,0.001953125,-0.015625,0.4082031,0.05273438,0,-0.09570312,-0.01757812,0.4262695,0,0,0.4262695,0,3.986,0,0,0,0,nan,2,0.04,0,0,0,0,0,0,0,0,0,1,2,1
1050.597,0.00113,0,0.0234375,0.01757812,0.15625,1.71875,8.820312,0,-0.005859375,0.009765625,0.4082031,0.05273438,0,-0.09570312,-0.0177002,0.4262695,0,0,0.4262695,0,3.986,0,0,0,0,nan,2,0.05,0,0,0,0,0,0,0,0,0,1,2,1
1050.607,0.001074,0.005859375,-0.00390625,-0.00390625,1.210938,0.4453125,13.86719,0,0.00390625,0.001953125,0.4082031,0.05273438,0,-0.09570312,-0.01757812,0.4263916,0,0,0.4263916,0,3.986,0,0,0,0,nan,2,0.006,0,0,0,0,0,0,0,0,0,1,2,0
1050.617,0.001222,0.0234375,-0.015625,0.005859375,0.109375,2.007812,7.085938,0,-0.005859375,0.00390625,0.4082031,0.05273438,0,-0.09558105,-0.01757812,0.4263916,0,0,0.4263916,0,3.986,0,0,0,0,nan,2,0.016,0,0,0,0,0,0,0,0,0,1,2,0
1050.627,0.001167,-0.009765625,0.005859375,-0.0078125,-0.1171875,-0.9453125,9.070312,-0.001953125,-0.001953125,-0.005859375,0.4082031,0.05273438,0,-0.09545898,-0.01757812,0.4263916,0,0,0.4263916,0,3.986,0,0,0,0,nan,2,0.026,0,0,0,0,0,0,0,0,0,1,2,1
1050.682,0.001575,-0.0234375,-0.01171875,-0.005859375,-0.0546875,0.4140625,9.703125,-0.0078125,-0.00390625,-0.005859375,0.4082031,0.05273438,0,-0.09545898,-0.01757812,0.4263916,0,0,0.4263916,0,3.986,0,0,0,0,nan,2,0.028,0,128,0,0,0,0,0,0,0,1,2,1
1050.686,0.001563,0,0.0390625,-0.00390625,-0.484375,-0.8203125,13.52344,0,0.005859375,0.01171875,0.4082031,0.05273438,0,-0.09521484,-0.01818848,0.4278564,0,0,0.4278564,0,3.986,0,0,0,0,nan,2,0.086,0,128,0,0,0,0,0,0,0,1,2,0
1050.696,0.000749,-0.0078125,-0.02929688,-0.04882812,1.445312,1.703125,4.898438,0.005859375,-0.005859375,-0.03320312,0.4082031,0.05273438,0,-0.09521484,-0.01831055,0.4276123,0,0,0.4276123,0,3.986,0,0,0,0,nan,2,0.096,0,128,0,0,0,0,0,0,0,1,2,0
1050.706,0.000976,0.015625,0,0.04296875,-0.6953125,-1.703125,15.57031,-0.005859375,0.001953125,0.0078125,0.4082031,0.05273438,0,-0.09521484,-0.01831055,0.4274902,0,0,0.4274902,0,3.986,0,0,0,0,nan,2,0.107,0,128,0,0,0,0,0,0,0,1,2,0
1050.717,0.001015,-0.0234375,0.04492188,0.00390625,-1.367188,-2.375,10.57812,0.001953125,-0.009765625,0.01367188,0.4082031,0.05273438,0,-0.09509277,-0.01843262,0.4276123,0,0,0.4276123,0,3.986,0,0,0,0,nan,2,0.117,0,128,0,0,0,0,0,0,0,1,2,0
1050.726,0.001015,0.02734375,0.01757812,0.005859375,-1.265625,-1.546875,9.953125,0.005859375,-0.001953125,-0.0078125,0.4082031,0.05273438,0,-0.09472656,-0.01843262,0.4276123,0,0,0.4276123,0,3.986,0,0,0,0,nan,2,0.126,0,128,0,0,0,0,0,0,0,1,2,1
1050.736,0.001017,0.01953125,0.01757812,0.01367188,0.4921875,2.226562,10.74219,0.0078125,0.009765625,0.01757812,0.4082031,0.05273438,0,-0.09472656,-0.01831055,0.4276123,0,0,0.4276123,0,3.986,0,0,0,0,nan,2,0.136,0,128,0,0,0,0,0,0,0,1,2,0
1050.746,0.001058,0.00390625,0.04882812,-0.02539062,-0.859375,0.1875,12.33594,0.00390625,0,0.00390625,0.4082031,0.05273438,0,-0.09460449,-0.01831055,0.4278564,0,0,0.4278564,0,3.986,0,0,0,0,nan,2,0.146,0,128,0,0,0,0,0,0,0,1,2,0
1050.756,0.001012,0.001953125,0.07617188,-0.0078125,-1.734375,-2.28125,15.6875,0.001953125,0.01367188,-0.03320312,0.4082031,0.05273438,0,-0.09460449,-0.01831055,0.4276123,0,0,0.4276123,0,3.986,0,0,0,0,nan,2,0.156,0,128,0,0,0,0,0,0,0,1,2,0
1050.766,0.001007,-0.00390625,0.01171875,0.0703125,-1.320312,2.960938,13.03125,0.00390625,0.00390625,0.04296875,0.4082031,0.05273438,0,-0.09448242,-0.01831055,0.4276123,0,0,0.4276123,0,3.986,0,0,0,0,nan,2,0.166,0,128,0,0,0,0,0,0,0,1,2,0
1050.776,0.001015,0.01171875,-0.005859375,-0.02734375,1.742188,2.335938,11.5,0.01171875,-0.009765625,0.01757812,0.4082031,0.05273438,0,-0.09436035,-0.01831055,0.4281006,0,0,0.4281006,0,3.986,0,0,0,0,nan,2,0.176,0,128,0,0,0,0,0,0,0,1,2,0
1050.786,0.001013,-0.03125,0.0078125,-0.03710938,-0.84375,-6.984375,12.01562,-0.0078125,0.001953125,-0.04296875,0.4082031,0.05273438,0,-0.09423828,-0.01831055,0.4278564,0,0,0.4278564,0,3.986,0,0,0,0,nan,2,0.186,0,128,0,0,0,0,0,0,0,1,2,0
1050.796,0.000989,0.0546875,-0.01367188,-0.009765625,0.8046875,3.390625,7.914062,0.0078125,0.0078125,-0.01171875,0.4082031,0.05273438,0,-0.09423828,-0.01818848,0.4274902,0,0,0.4274902,0,3.986,0,0,0,0,nan,2,0.196,0,128,0,0,0,0,0,0,0,1,2,0
1050.806,0.001012,-0.015625,-0.02734375,0.001953125,0.453125,1.476562,10.92969,-0.0078125,0,0.005859375,0.4082031,0.05273438,0,-0.09411621,-0.01806641,0.4274902,0,0,0.4274902,0,3.986,0,0,0,0,nan,2,0.207,0,128,0,0,0,0,0,0,0,1,2,0
1050.817,0.001056,-0.001953125,-0.02929688,0,0.1796875,-2.1875,8.609375,-0.001953125,0,0,0.4082031,0.05273438,0,-0.09399414,-0.01806641,0.4276123,0,0,0.4276123,0,3.986,0,0,0,0,nan,2,0.217,0,128,0,0,0,0,0,0,0,1,2,1
1050.826,0.001006,-0.0078125,-0.03515625,-0.009765625,1.398438,-1.648438,8.789062,-0.001953125,-0.005859375,-0.00390625,0.4082031,0.05273438,0,-0.09387207,-0.01806641,0.4274902,0,0,0.4274902,0,3.986,0,0,0,0,nan,2,0.226,0,128,0,0,0,0,0,0,0,1,2,1
1050.836,0.001012,0.03515625,0.02734375,0.001953125,-2.101562,2.953125,10.94531,0.001953125,0.00390625,-0.00390625,0.4082031,0.05273438,0,-0.09362793,-0.01806641,0.4274902,0,0,0.4274902,0,3.986,0,0,0,0,nan,2,0.236,0,128,0,0,0,0,0,0,0,1,2,0
1050.846,0.001007,0.02148438,0.01367188,-0.0078125,-1.179688,-1.164062,9.640625,0.001953125,0.0078125,-0.00390625,0.4082031,0.05273438,0,-0.09326172,-0.01794434,0.4274902,0,0,0.4274902,0,3.986,0,0,0,0,nan,2,0.246,0,128,0,0,0,0,0,0,0,1,2,1
1050.856,0.001033,-0.005859375,-0.04492188,0.015625,0.4609375,-2.242188,8.21875,0.005859375,-0.015625,0.00390625,0.4082031,0.05273438,0,-0.09313965,-0.01794434,0.4274902,0,0,0.4274902,0,3.986,0,0,0,0,nan,2,0.256,0,128,0,0,0,0,0,0,0,1,2,0
1050.866,0.001011,-0.005859375,-0.04882812,-0.001953125,2.640625,-0.671875,7.984375,0.0078125,-0.005859375,0.00390625,0.4082031,0.05273438,0,-0.09301758,-0.01794434,0.4274902,0,0,0.4274902,0,3.986,0,0,0,0,nan,2,0.266,0,128,0,0,0,0,0,0,0,1,2,0
1050.876,0.001007,0.09375,-0.04492188,-0.00390625,2.507812,2.359375,9.664062,0.005859375,-0.00390625,-0.00390625,0.4082031,0.05273438,0,-0.09277344,-0.01794434,0.4274902,0,0,0.4274902,0,3.986,0,0,0,0,nan,2,0.276,0,128,0,0,0,0,0,0,0,1,2,1
1050.886,0.001012,-0.03710938,0.03125,0.02148438,-1.015625,-0.265625,9.4375,-0.009765625,0.005859375,0,0.4082031,0.05273438,0,-0.0925293,-0.01794434,0.4274902,0,0,0.4274902,0,3.986,0,0,0,0,nan,2,0.286,0,128,0,0,0,0,0,0,0,1,2,1
1050.896,0.001007,0.06640625,-0.05859375,-0.03125,1.992188,2.554688,10.28906,0.01171875,-0.0078125,0.0078125,0.4082031,0.05273438,0,-0.09228516,-0.01782227,0.4276123,0,0,0.4276123,0,3.986,0,0,0,0,nan,2,0.296,0,128,0,0,0,0,0,0,0,1,2,1
1050.906,0.00101,-0.1191406,0.06835938,0,-1.65625,-3.726562,10.63281,-0.03320312,0.005859375,0,0.4082031,0.05273438,0,-0.09216309,-0.01782227,0.4276123,0,0,0.4276123,0,3.986,0,0,0,0,nan,2,0.307,0,128,0,0,0,0,0,0,0,1,2,0
1050.917,0.001015,0.08398438,-0.04882812,-0.01171875,1.390625,1.492188,10.00781,0.02539062,0.001953125,-0.0234375,0.4082031,0.05273438,0,-0.09179688,-0.01782227,0.4274902,0,0,0.4274902,0,3.986,0,0,0,0,nan,2,0.317,0,128,0,0,0,0,0,0,0,1,2,1
1050.927,0.001005,-0.1074219,0.02539062,-0.00390625,-0.4296875,-0.7578125,9.570312,-0.01953125,-0.001953125,0.00390625,0.4082031,0.05273438,0,-0.09155273,-0.01782227,0.4273682,0,0,0.4273682,0,3.986,0,0,0,0,nan,2,0.327,0,128,0,0,0,0,0,0,0,1,2,1
1050.936,0.00101,-0.02539062,-0.04296875,0.02539062,0.71875,-0.5,8.828125,-0.01757812,-0.005859375,0.01171875,0.4082031,0.05273438,0,-0.09143066,-0.01782227,0.4274902,0,0,0.4274902,0,3.986,0,0,0,0,nan,2,0.336,0,128,0,0,0,0,0,0,0,1,2,1
1050.946,0.001015,0.1367188,0.0390625,-0.005859375,-1.632812,-0.359375,10.14844,0.01367188,0.005859375,-0.009765625,0.4082031,0.05273438,0,-0.09130859,-0.01782227,0.4273682,0,0,0.4273682,0,3.986,0,0,0,0,nan,2,0.346,0,128,0,0,0,0,0,0,0,1,2,1
1050.956,0.001013,0.05078125,0.04296875,0.01367188,-1.640625,-0.0390625,9.695312,0.009765625,0.0078125,0.001953125,0.4082031,0.05273438,0,-0.09106445,-0.0177002,0.4273682,0,0,0.4273682,0,3.986,0,0,0,0,nan,2,0.356,0,128,0,0,0,0,0,0,0,1,2,1
1050.966,0.00101,0.02539062,-0.02148438,0.01953125,1.382812,-0.96875,9.367188,0.00390625,0,0.005859375,0.4082031,0.05273438,0,-0.09069824,-0.01757812,0.4273682,0,0,0.4273682,0,3.986,0,0,0,0,nan,2,0.366,0,128,0,0,0,0,0,0,0,1,2,1
1050.976,0.00101,0.09960938,-0.02734375,0.0078125,0.515625,-1.195312,9.367188,0.01367188,-0.005859375,-0.001953125,0.4082031,0.05273438,0,-0.09033203,-0.01757812,0.4273682,0,0,0.4273682,0,3.986,0,0,0,0,nan,2,0.376,0,128,0,0,0,0,0,0,0,1,2,1
1050.986,0.00101,0.04101562,-0.01757812,0.015625,-0.7421875,-1.015625,8.601562,0.0078125,-0.001953125,0.001953125,0.4082031,0.05273438,0,-0.09008789,-0.01757812,0.4273682,0,0,0.4273682,0,3.986,0,0,0,0,nan,2,0.386,0,128,0,0,0,0,0,0,0,1,2,0
1050.996,0.001012,-0.01367188,0.02539062,-0.01367188,-0.65625,-0.21875,10.10156,0.005859375,0.005859375,-0.0078125,0.4082031,0.05273438,0,-0.08984375,-0.01745605,0.4273682,0,0,0.4273682,0,4.031,0,0,0,0,nan,2,0.396,0,128,0,0,0,0,0,0,0,1,2,1
1051.007,0.001012,-0.01171875,0.0390625,-0.02929688,-0.359375,-0.8203125,9.960938,0.009765625,0.00390625,-0.00390625,0.4082031,0.05273438,0,-0.08947754,-0.01733398,0.4273682,0,0,0.4273682,0,4.031,0,0,0,0,nan,2,0.407,0,128,0,0,0,0,0,0,0,1,2,1
1051.017,0.001012,0.01367188,0.01367188,-0.0078125,-0.9765625,-1.476562,10.00781,0.00390625,0.00390625,0.001953125,0.4082031,0.05273438,0,-0.0892334,-0.01733398,0.4273682,0,0,0.4273682,0,4.031,0,0,0,0,nan,2,0.417,0,128,0,0,0,0,0,0,0,1,2,1
1051.026,0.001008,-0.0078125,0.05664062,0,1.109375,-0.1640625,10.71875,-0.001953125,0.005859375,0.001953125,0.4082031,0.05273438,0,-0.08886719,-0.01721191,0.4273682,0,0,0.4273682,0,4.031,0,0,0,0,nan,2,0.426,0,128,0,0,0,0,0,0,0,1,2,1
1051.036,0.00101,0.02929688,0.01757812,0.01171875,0.9140625,-0.984375,10.13281,0.001953125,0,0.005859375,0.4082031,0.05273438,0,-0.08862305,-0.01721191,0.4273682,0,0,0.4273682,0,4.031,0,0,0,0,nan,2,0.436,0,128,0,0,0,0,0,0,0,1,2,1
1051.046,0.001016,-0.01953125,-0.01171875,0.00390625,0.125,0.296875,9.757812,-0.005859375,0,-0.00390625,0.4082031,0.05273438,0,-0.08837891,-0.01708984,0.4272461,0,0,0.4272461,0,4.031,0,0,0,0,nan,2,0.446,0,128,0,0,0,0,0,0,0,1,2,1
1051.056,0.001012,0.00390625,-0.015625,0.009765625,-0.5,-0.109375,9.796875,0,0,0,0.4082031,0.05273438,0,-0.08813477,-0.01696777,0.4272461,0,0,0.4272461,0,4.031,0,0,0,0,nan,2,0.456,0,128,0,0,0,0,0,0,0,1,2,1
1051.066,0.00101,0.009765625,0.005859375,-0.02539062,0.21875,-0.8203125,9.601562,0.001953125,0.001953125,0.001953125,0.4082031,0.05273438,0,-0.08776855,-0.01696777,0.4272461,0,0,0.4272461,0,4.031,0,0,0,0,nan,2,0.466,0,128,0,0,0,0,0,0,0,1,2,1
1051.076,0.00101,-0.015625,0.00390625,0.01757812,0.25,-0.1015625,9.875,-0.001953125,0.00390625,-0.001953125,0.4082031,0.05273438,0,-0.08752441,-0.0168457,0.4272461,0,0,0.4272461,0,4.031,0,0,0,0,nan,2,0.476,0,128,0,0,0,0,0,0,0,1,2,1
1051.086,0.00101,-0.0078125,-0.00390625,-0.015625,0.28125,0.0625,9.890625,-0.001953125,0.001953125,-0.001953125,0.4082031,0.05273438,0,-0.08728027,-0.01672363,0.4272461,0,0,0.4272461,0,4.031,0,0,0,0,nan,2,0.486,0,128,0,0,0,0,0,0,0,1,2,1
1051.096,0.00101,-0.001953125,-0.01367188,0.01953125,-0.3828125,-0.1484375,10.07812,-0.005859375,-0.00390625,0,0.4082031,0.05273438,0,-0.08691406,-0.01672363,0.4272461,0,0,0.4272461,0,4.031,0,0,0,0,nan,2,0.496,0,128,0,0,0,0,0,0,0,1,2,1
1051.106,0.00101,0.005859375,-0.01367188,0.00390625,-0.4296875,-0.5390625,9.195312,0.001953125,-0.00390625,0.005859375,0.4082031,0.05273438,0,-0.08654785,-0.01660156,0.4272461,0,0,0.4272461,0,4.031,0,0,0,0,nan,2,0.507,0,128,0,0,0,0,0,0,0,1,2,1
1051.117,0.001025,-0.001953125,-0.0078125,-0.005859375,-0.109375,0.4921875,10.40625,-0.00390625,-0.0078125,-0.005859375,0.4082031,0.05273438,0,-0.08630371,-0.01660156,0.4272461,0,0,0.4272461,0,4.031,0,0,0,0,nan,2,0.517,0,128,0,0,0,0,0,0,0,1,2,1
1051.126,0.001003,0.005859375,-0.001953125,0.001953125,0.171875,0.15625,10.54688,-0.001953125,0,-0.01171875,0.4082031,0.05273438,0,-0.08605957,-0.01660156,0.4272461,0,0,0.4272461,0,4.031,0,0,0,0,nan,2,0.526,0,128,0,0,0,0,0,0,0,1,2,1
1051.136,0.001003,-0.00390625,0,0.015625,-0.125,-0.484375,9.414062,0,0.001953125,0,0.4082031,0.05273438,0,-0.08581543,-0.01647949,0.4272461,0,0,0.4272461,0,4.031,0,0,0,0,nan,2,0.536,0,128,0,0,0,0,0,0,0,1,2,1
1051.146,0.001,-0.009765625,-0.0078125,-0.005859375,-0.0234375,-0.5078125,10.14062,0,0,-0.00390625,0.4082031,0.05273438,0,-0.08557129,-0.01635742,0.4272461,0,0,0.4272461,0,4.031,0,0,0,0,nan,2,0.546,0,128,0,0,0,0,0,0,0,1,2,1
1051.156,0.001028,0,0.0078125,-0.01367188,-0.203125,-0.5703125,10.32031,0.001953125,0,-0.001953125,0.4082031,0.05273438,0,-0.08520508,-0.01635742,0.4272461,0,0,0.4272461,0,4.031,0,0,0,0,nan,2,0.556,0,128,0,0,0,0,0,0,0,1,2,1
1051.166,0.001006,-0.001953125,0.001953125,0.001953125,-0.5625,0.140625,9.71875,-0.005859375,-0.005859375,0.001953125,0.4082031,0.05273438,0,-0.08496094,-0.01635742,0.427124,0,0,0.427124,0,4.031,0,0,0,0,nan,2,0.566,0,128,0,0,0,0,0,0,0,1,2,1
1051.176,0.001003,-0.02148438,-0.01171875,-0.00390625,-0.421875,0.0859375,9.804688,-0.009765625,-0.00390625,-0.001953125,0.4082031,0.05273438,0,-0.0847168,-0.01623535,0.427124,0,0,0.427124,0,4.031,0,0,0,0,nan,2,0.576,0,128,0,0,0,0,0,0,0,1,2,1
1051.186,0.001003,0.001953125,-0.001953125,0.005859375,0,-0.7421875,10,0.005859375,0.001953125,0.00390625,0.4082031,0.05273438,0,-0.08447266,-0.01611328,0.427124,0,0,0.427124,0,4.031,0,0,0,0,nan,2,0.586,0,128,0,0,0,0,0,0,0,1,2,1
1051.196,0.000948,-0.001953125,-0.005859375,-0.015625,-0.1015625,-0.2734375,9.789062,-0.001953125,-0.00390625,-0.01367188,0.4082031,0.05273438,0,-0.08422852,-0.01611328,0.427124,0,0,0.427124,0,4.031,0,0,0,0,nan,2,0.596,0,128,0,0,0,0,0,0,0,1,2,1
1051.206,0.001003,-0.001953125,-0.01171875,-0.00390625,0.125,-0.5,9.789062,0.00390625,-0.001953125,0.01171875,0.4082031,0.05273438,0,-0.0838623,-0.01611328,0.427124,0,0,0.427124,0,4.031,0,0,0,0,nan,2,0.606,0,128,0,0,0,0,0,0,0,1,2,1
1051.217,0.001005,0.005859375,0.005859375,0.00390625,0.3984375,-0.1875,9.945312,0.001953125,0.00390625,-0.005859375,0.4082031,0.05273438,0,-0.08361816,-0.01599121,0.427124,0,0,0.427124,0,4.031,0,0,0,0,nan,2,0.617,0,128,0,0,0,0,0,0,0,1,2,1
1051.226,0.001015,0.005859375,-0.00390625,0.009765625,-0.296875,0.0390625,9.890625,-0.001953125,-0.005859375,0.0078125,0.4082031,0.05273438,0,-0.08337402,-0.01599121,0.427124,0,0,0.427124,0,4.031,0,0,0,0,nan,2,0.626,0,128,0,0,0,0,0,0,0,1,2,1
1051.236,0.001017,-0.0078125,-0.005859375,-0.01171875,-0.0078125,-0.03125,9.976562,-0.001953125,-0.001953125,-0.009765625,0.4082031,0.05273438,0,-0.08312988,-0.01586914,0.427124,0,0,0.427124,0,4.031,0,0,0,0,nan,2,0.636,0,128,0,0,0,0,0,0,0,1,2,1
1051.246,0.001045,0.009765625,0.00390625,0.009765625,0.2890625,-0.671875,10.04688,0.005859375,0.001953125,0.01171875,0.4082031,0.05273438,0,-0.08276367,-0.01586914,0.427124,0,0,0.427124,0,4.031,0,0,0,0,nan,2,0.646,0,128,0,0,0,0,0,0,0,1,2,1
1051.256,0.001021,0,0.001953125,-0.015625,0.0390625,0.0703125,9.8125,-0.00390625,0,-0.015625,0.4082031,0.05273438,0,-0.08251953,-0.01574707,0.427124,0,0,0.427124,0,4.031,0,0,0,0,nan,2,0.656,0,128,0,0,0,0,0,0,0,1,2,1
1051.266,0.001053,-0.0078125,-0.0078125,0.009765625,-0.1328125,-0.34375,9.78125,0,-0.005859375,0.01171875,0.4082031,0.05273438,0,-0.08227539,-0.01574707,0.427124,0,0,0.427124,0,4.031,0,0,0,0,nan,2,0.666,0,128,0,0,0,0,0,0,0,1,2,1
1051.276,0.00102,-0.001953125,0.005859375,-0.005859375,0.2578125,-0.3515625,9.859375,-0.001953125,0.00390625,-0.01171875,0.4082031,0.05273438,0,-0.08203125,-0.015625,0.427124,0,0,0.427124,0,4.031,0,0,0,0,nan,2,0.676,0,128,0,0,0,0,0,0,0,1,2,1
1051.286,0.000992,0.001953125,0,0.005859375,-0.1484375,-0.3984375,9.773438,0.001953125,-0.001953125,0.009765625,0.4082031,0.05273438,0,-0.08166504,-0.015625,0.427124,0,0,0.427124,0,4.031,0,0,0,0,nan,2,0.686,0,128,0,0,0,0,0,0,0,1,2,1
1051.297,0.001045,-0.005859375,0.001953125,-0.01171875,0.0703125,-0.2109375,9.78125,-0.00390625,0.001953125,-0.01171875,0.4082031,0.05273438,0,-0.08154297,-0.01550293,0.427002,0,0,0.427002,0,4.031,0,0,0,0,nan,2,0.696,0,128,0,0,0,0,0,0,0,1,2,1
1051.306,0.001,0.0078125,0,0.01367188,0.0859375,-0.421875,9.859375,0.00390625,0,0.0078125,0.4082031,0.05273438,0,-0.08117676,-0.01550293,0.427002,0,0,0.427002,0,4.031,0,0,0,0,nan,2,0.006,0,128,0,0,0,0,0,0,0,1,2,1
1051.316,0.001011,-0.001953125,0,-0.015625,-0.0390625,-0.1640625,9.789062,-0.001953125,-0.001953125,-0.005859375,0.4082031,0.05273438,0,-0.08093262,-0.01538086,0.427124,0,0,0.427124,0,4.031,0,0,0,0,nan,2,0.016,0,128,0,0,0,0,0,0,0,1,2,1
1051.326,0.000994,0,-0.005859375,0.015625,-0.03125,-0.1640625,9.8125,0,0,0.00390625,0.4082031,0.05273438,0,-0.08068848,-0.01538086,0.427002,0,0,0.427002,0,4.031,0,0,0,0,nan,2,0.026,0,128,0,0,0,0,0,0,0,1,2,1
1051.336,0.00103,-0.00390625,0,-0.009765625,0.0859375,-0.3359375,9.835938,-0.001953125,-0.001953125,-0.005859375,0.4082031,0.05273438,0,-0.08044434,-0.01525879,0.427002,0,0,0.427002,0,4.031,0,0,0,0,nan,2,0.036,0,128,0,0,0,0,0,0,0,1,2,1
1051.346,0.001015,0,-0.00390625,0.005859375,0.0625,-0.2265625,9.757812,0,-0.00390625,0,0.4082031,0.05273438,0,-0.0802002,-0.01525879,0.427002,0,0,0.427002,0,4.031,0,0,0,0,nan,2,0.009,0,128,0,0,0,0,0,0,0,1,2,1
1051.356,0.000975,-0.001953125,0.001953125,-0.001953125,-0.0390625,-0.2734375,9.789062,0,0,0,0.4082031,0.05273438,0,-0.07995605,-0.01525879,0.427002,0,0,0.427002,0,4.031,0,0,0,0,nan,2,0.005,0,128,0,0,0,0,0,0,0,1,2,1
1051.366,0.001012,0,-0.001953125,0.005859375,0.078125,-0.2109375,9.820312,0,0,0,0.4082031,0.05273438,0,-0.07971191,-0.01513672,0.427002,0,0,0.427002,0,4.031,0,0,0,0,nan,2,0.015,0,128,0,0,0,0,0,0,0,1,2,1
1051.376,0.001035,0,0.00390625,-0.00390625,0.0234375,-0.359375,9.773438,0,0.001953125,0,0.4082031,0.05273438,0,-0.07946777,-0.01513672,0.427002,0,0,0.427002,0,4.031,0,0,0,0,nan,2,0.025,0,128,0,0,0,0,0,0,0,1,2,1
1051.386,0.00101,0.001953125,-0.00390625,0.001953125,0.046875,-0.1875,9.796875,0,0,0,0.4082031,0.05273438,0,-0.07922363,-0.01513672,0.427002,0,0,0.427002,0,4.031,0,0,0,0,nan,2,0.035,0,128,0,0,0,0,0,0,0,1,2,1
1051.396,0.00101,-0.00390625,0.001953125,-0.00390625,0.03125,-0.3125,9.84375,0,0,-0.001953125,0.4082031,0.05273438,0,-0.07885742,-0.01501465,0.427002,0,0,0.427002,0,4.031,0,0,0,0,nan,2,0.045,0,128,0,0,0,0,0,0,0,1,2,1
1051.406,0.00101,0,0,-0.001953125,0.0859375,-0.28125,9.804688,0,0,-0.001953125,0.4082031,0.05273438,0,-0.07861328,-0.01501465,0.427002,0,0,0.427002,0,4.031,0,0,0,0,nan,2,0.056,0,128,0,0,0,0,0,0,0,1,2,1
1051.417,0.001011,0,0,-0.001953125,0.0078125,-0.3125,9.914062,0,-0.001953125,0,0.4082031,0.05273438,0,-0.07836914,-0.01489258,0.427002,0,0,0.427002,0,4.031,0,0,0,0,nan,2,0.066,0,128,0,0,0,0,0,0,0,1,2,1
1051.426,0.001008,-0.001953125,0.00390625,0,0.046875,-0.2734375,9.78125,-0.001953125,0.001953125,0,0.4082031,0.05273438,0,-0.07824707,-0.01489258,0.427002,0,0,0.427002,0,4.031,0,0,0,0,nan,2,0.075,0,128,0,0,0,0,0,0,0,1,2,1
1051.436,0.00101,-0.001953125,0.00390625,-0.001953125,0.0625,-0.28125,9.882812,-0.001953125,0,0,0.4082031,0.05273438,0,-0.07800293,-0.01477051,0.427002,0,0,0.427002,0,4.031,0,0,0,0,nan,2,0.085,0,128,0,0,0,0,0,0,0,1,2,1
1051.446,0.001014,0,0.001953125,0.001953125,0.03125,-0.2734375,9.851562,0,0.001953125,0,0.4082031,0.05273438,0,-0.07775879,-0.01477051,0.4268799,0,0,0.4268799,0,4.031,0,0,0,0,nan,2,0.095,0,128,0,0,0,0,0,0,0,1,2,1
1051.456,0.001036,0,0,-0.001953125,0.0234375,-0.296875,9.804688,-0.001953125,0,-0.001953125,0.4082031,0.05273438,0,-0.07751465,-0.01464844,0.4268799,0,0,0.4268799,0,4.031,0,0,0,0,nan,2,0.105,0,128,0,0,0,0,0,0,0,1,2,1
1051.466,0.000961,0,0.001953125,-0.001953125,0.03125,-0.296875,9.828125,0,-0.001953125,-0.001953125,0.4082031,0.05273438,0,-0.07727051,-0.01464844,0.4268799,0,0,0.4268799,0,4.031,0,0,0,0,nan,2,0.115,0,128,0,0,0,0,0,0,0,1,2,1
1051.476,0.00101,-0.001953125,0.001953125,-0.001953125,0.0625,-0.296875,9.882812,-0.001953125,0,-0.001953125,0.4082031,0.05273438,0,-0.07702637,-0.01464844,0.4268799,0,0,0.4268799,0,4.031,0,0,0,0,nan,2,0.125,0,128,0,0,0,0,0,0,0,1,2,1
1051.486,0.001017,-0.001953125,-0.001953125,-0.001953125,-0.015625,-0.2421875,9.789062,-0.001953125,-0.001953125,-0.001953125,0.4082031,0.05273438,0,-0.07678223,-0.01452637,0.4268799,0,0,0.4268799,0,4.031,0,0,0,0,nan,2,0.135,0,128,0,0,0,0,0,0,0,1,2,1
1051.496,0.001004,-0.001953125,0,-0.001953125,0.0546875,-0.296875,9.835938,0,0,-0.001953125,0.4082031,0.05273438,0,-0.07653809,-0.01452637,0.4268799,0,0,0.4268799,0,4.031,0,0,0,0,nan,2,0.145,0,128,0,0,0,0,0,0,0,1,2,1
1051.506,0.001031,0,0.001953125,-0.001953125,0.0234375,-0.265625,9.867188,0,0.001953125,-0.001953125,0.4082031,0.05273438,0,-0.07629395,-0.0144043,0.4268799,0,0,0.4268799,0,4.031,0,0,0,0,nan,2,0.156,0,128,0,0,0,0,0,0,0,1,2,1
