t,dt_s,gyro_x,gyro_y,gyro_z,acc_x,acc_y,acc_z,rates.x,rates.y,rates.z,ratesTarget.x,ratesTarget.y,ratesTarget.z,attitude.x,attitude.y,attitude.z,attitudeTarget.x,attitudeTarget.y,attitudeTarget.z,thrustTarget,battery_v,rc_roll,rc_pitch,rc_yaw,rc_throttle,rc_mode,flight_mode,rc_age_s,armed,fault_mask,motor_rl,motor_rr,motor_fr,motor_fl,rate_i_x,rate_i_y,rate_i_z,mix_scale,control_source,accel_correction_confidence
185.057,0.001018,-0.06054688,-0.01367188,-0.02148438,-1.039062,-2.445312,6.789062,-0.03515625,-0.001953125,-0.015625,0,0,0,-0.03649902,-0.0004882812,0.1092529,0,0,0.001586914,0,3.947,0,0,0,0,nan,2,5.01,1,0,0.1000061,0.1000061,0.1000061,0.1000061,0,0,0,1,2,0
185.067,0.001012,0.009765625,0.015625,0.00390625,3.3125,-0.953125,3.179688,0.005859375,-0.00390625,-0.001953125,0,0,0,-0.03649902,-0.0004882812,0.1092529,0,0,0.001586914,0,3.947,0,0,0,0,nan,2,5.02,1,0,0.1000061,0.1000061,0.1000061,0.1000061,0,0,0,1,2,0
185.077,0.00101,-0.005859375,-0.05859375,0.015625,-1.632812,1.851562,8.351562,-0.015625,-0.01757812,0,0,0,0,-0.03649902,-0.0004882812,0.1091309,0,0,0.001586914,0,3.947,0,0,0,0,nan,2,5.03,1,0,0.1000061,0.1000061,0.1000061,0.1000061,0,0,0,1,2,0
185.087,0.001013,0.05078125,0.04882812,-0.009765625,0.125,5.429688,13.35156,0.01367188,0.015625,0.00390625,0,0,0,-0.03649902,-0.0004882812,0.1092529,0,0,0.001586914,0,3.947,0,0,0,0,nan,2,5.04,1,0,0.1000061,0.1000061,0.1000061,0.1000061,0,0,0,1,2,0
185.097,0.001012,0.03125,-0.0390625,-0.01367188,0.7421875,2.265625,13.64844,-0.0078125,0,-0.01757812,0,0,0,-0.03649902,-0.0004882812,0.1091309,0,0,0.001586914,0,3.947,0,0,0,0,nan,2,5.05,1,0,0.1000061,0.1000061,0.1000061,0.1000061,0,0,0,1,2,0
185.107,0.001013,0.03710938,-0.01367188,-0.01367188,-0.359375,5.070312,9.539062,0.03710938,0,-0.01171875,0,0,0,-0.03649902,-0.0004882812,0.1090088,0,0,0.001586914,0,3.947,0,0,0,0,nan,2,5.06,1,0,0.1000061,0.1000061,0.1000061,0.1000061,0,0,0,1,2,0
185.117,0.001012,-0.03515625,-0.05273438,0,-1.609375,0.1953125,10.95312,0.005859375,-0.0234375,-0.009765625,0,0,0,-0.03649902,-0.0004882812,0.1088867,0,0,0.001586914,0,3.947,0,0,0,0,nan,2,5.07,1,0,0.1000061,0.1000061,0.1000061,0.1000061,0,0,0,1,2,0
185.126,0.001003,-0.04882812,0.0234375,-0.009765625,-1.679688,-5,6.609375,-0.001953125,-0.01171875,0,0,0,0,-0.03649902,-0.0004882812,0.1088867,0,0,0.001586914,0,3.947,0,0,0,0,nan,2,5.079,1,0,0.1000061,0.1000061,0.1000061,0.1000061,0,0,0,1,2,0
185.137,0.001013,-0.09570312,-0.06640625,0.02734375,0.3359375,-1.9375,5.914062,-0.01757812,-0.0078125,0.01171875,0,0,0,-0.03649902,-0.0003662109,0.1088867,0,0,0.001586914,0,3.947,0,0,0,0,nan,2,5.089,1,0,0.1000061,0.1000061,0.1000061,0.1000061,0,0,0,1,2,0
185.147,0.001014,-0.05664062,0.06445312,0.0234375,0.0625,-2.828125,14.75781,0.00390625,-0.005859375,0.02734375,0,0,0,-0.03649902,-0.0004882812,0.1091309,0,0,0.001586914,0,3.947,0,0,0,0,nan,2,5.099,1,0,0.1000061,0.1000061,0.1000061,0.1000061,0,0,0,1,2,0
185.157,0.001012,-0.08007812,-0.06640625,0.001953125,-0.125,-3.078125,8.742188,-0.009765625,-0.015625,0.005859375,0,0,0,-0.03649902,-0.0003662109,0.1092529,0,0,0.001586914,0,3.947,0,0,0,0,nan,2,5.11,1,0,0.1000061,0.1000061,0.1000061,0.1000061,0,0,0,1,2,0
185.167,0.001021,-0.078125,0.01953125,-0.03125,1.109375,-1.398438,7.734375,0.005859375,0.009765625,-0.015625,0,0,0,-0.03637695,-0.0003662109,0.1092529,0,0,0.001586914,0,3.947,0,0,0,0,nan,2,5.12,1,0,0.1000061,0.1000061,0.1000061,0.1000061,0,0,0,1,2,0
185.177,0.001006,0.06054688,-0.02734375,-0.005859375,1.601562,0.0234375,5.421875,0.01953125,-0.0078125,-0.01171875,0,0,0,-0.03637695,-0.0003662109,0.1090088,0,0,0.001586914,0,3.947,0,0,0,0,nan,2,5.13,1,0,0.1000061,0.1000061,0.1000061,0.1000061,0,0,0,1,2,0
185.187,0.001014,-0.03515625,0.0234375,-0.01757812,-1.695312,-8.085938,5.90625,-0.03710938,0.01367188,-0.01171875,0,0,0,-0.03649902,-0.0003662109,0.1090088,0,0,0.001586914,0,3.947,0,0,0,0,nan,2,5.14,1,0,0.1000061,0.1000061,0.1000061,0.1000061,0,0,0,1,2,0.1904762
185.197,0.001013,-0.04492188,0.02734375,0.005859375,1.28125,-0.59375,2.726562,-0.009765625,-0.001953125,-0.00390625,0,0,0,-0.03637695,-0.0003662109,0.1088867,0,0,0.001586914,0,3.947,0,0,0,0,nan,2,5.15,1,0,0.1000061,0.1000061,0.1000061,0.1000061,0,0,0,1,2,0
185.207,0.001014,-0.01757812,-0.01757812,0,1.023438,-5.664062,12.07031,-0.03125,0.00390625,0.001953125,0,0,0,-0.03674316,-0.0004882812,0.1088867,0,0,0.001586914,0,3.947,0,0,0,0,nan,2,5.16,1,0,0.1000061,0.1000061,0.1000061,0.1000061,0,0,0,1,2,0
185.217,0.001013,-0.07421875,-0.001953125,0.01171875,-0.71875,-3.4375,6.039062,0.001953125,-0.01171875,0.01171875,0,0,0,-0.03649902,-0.0003662109,0.1090088,0,0,0.001586914,0,3.947,0,0,0,0,nan,2,5.17,1,0,0.1000061,0.1000061,0.1000061,0.1000061,0,0,0,1,2,0
185.227,0.001006,-0.03710938,0.01953125,-0.005859375,0.578125,2.210938,9.890625,-0.01367188,0.00390625,0.001953125,0,0,0,-0.03662109,-0.0004882812,0.1091309,0,0,0.001586914,0,3.947,0,0,0,0,nan,2,5.179,1,0,0.1000061,0.1000061,0.1000061,0.1000061,0,0,0,1,2,0.2698413
185.237,0.001014,-0.07226562,-0.001953125,-0.0078125,-1.296875,1.617188,11.25,-0.00390625,-0.01367188,-0.01171875,0,0,0,-0.03649902,-0.0004882812,0.1090088,0,0,0.001586914,0,3.947,0,0,0,0,nan,2,5.189,1,0,0.1000061,0.1000061,0.1000061,0.1000061,0,0,0,1,2,0
185.247,0.001015,0.02734375,0.03710938,-0.001953125,-0.0546875,1.398438,6.382812,0.01757812,0.005859375,-0.0078125,0,0,0,-0.03662109,-0.0004882812,0.1088867,0,0,0.001586914,0,3.947,0,0,0,0,nan,2,5.199,1,0,0.1000061,0.1000061,0.1000061,0.1000061,0,0,0,1,2,0
185.257,0.001014,-0.02148438,-0.01953125,0.03515625,2.335938,3.945312,8.601562,0,-0.02148438,0.02734375,0,0,0,-0.03649902,-0.0004882812,0.1090088,0,0,0.001586914,0,3.947,0,0,0,0,nan,2,5.21,1,0,0.1000061,0.1000061,0.1000061,0.1000061,0,0,0,1,2,0.6666667
185.267,0.001025,0.02734375,-0.01367188,-0.01953125,0.3515625,4.101562,8.851562,0.005859375,0.01757812,-0.00390625,0,0,0,-0.03674316,-0.0004882812,0.1092529,0,0,0.001586914,0,3.947,0,0,0,0,nan,2,5.22,1,0,0.1000061,0.1000061,0.1000061,0.1000061,0,0,0,1,2,0.7460318
185.277,0.001007,-0.0078125,-0.02539062,0.009765625,-0.546875,1.101562,17.22656,0.009765625,-0.02148438,-0.001953125,0,0,0,-0.03662109,-0.0004882812,0.1091309,0,0,0.001586914,0,3.947,0,0,0,0,nan,2,5.23,1,0,0.1000061,0.1000061,0.1000061,0.1000061,0,0,0,1,2,0
185.287,0.001024,-0.00390625,0.005859375,-0.001953125,1.21875,4.679688,12.40625,-0.03125,0.02148438,0,0,0,0,-0.0369873,-0.0004882812,0.1091309,0,0,0.001586914,0,3.947,0,0,0,0,nan,2,5.24,1,0,0.1000061,0.1000061,0.1000061,0.1000061,0,0,0,1,2,0
185.297,0.001014,-0.0703125,-0.005859375,-0.01367188,-1.460938,-0.1875,9.101562,-0.001953125,0.001953125,0,0,0,0,-0.03674316,-0.0006103516,0.1091309,0,0,0.001586914,0,3.947,0,0,0,0,nan,2,5.25,1,0,0.1000061,0.1000061,0.1000061,0.1000061,0,0,0,1,2,0
185.307,0.001015,-0.00390625,0.0703125,-0.02148438,-1,0.828125,7.148438,-0.01171875,0.001953125,-0.015625,0,0,0,-0.03686523,-0.0006103516,0.1091309,0,0,0.001586914,0,3.947,0,0,0,0,nan,2,5.26,1,0,0.1000061,0.1000061,0.1000061,0.1000061,0,0,0,1,2,0
185.317,0.001013,-0.04296875,-0.08789062,0.009765625,3.585938,2.226562,5.390625,0.005859375,-0.015625,0.001953125,0,0,0,-0.03674316,-0.0006103516,0.1090088,0,0,0.001586914,0,3.947,0,0,0,0,nan,2,5.27,1,0,0.1000061,0.1000061,0.1000061,0.1000061,0,0,0,1,2,0
185.326,0.001007,0.02148438,0.03710938,-0.005859375,1.5,2.28125,12.65625,-0.03125,0.001953125,0,0,0,0,-0.0369873,-0.0007324219,0.1090088,0,0,0.001586914,0,3.947,0,0,0,0,nan,2,5.279,1,0,0.1000061,0.1000061,0.1000061,0.1000061,0,0,0,1,2,0
185.337,0.001015,0.00390625,-0.0546875,0.02734375,-0.625,-3.328125,17.90625,0.03320312,-0.02734375,0.01953125,0,0,0,-0.03662109,-0.0007324219,0.1091309,0,0,0.001586914,0,3.947,0,0,0,0,nan,2,5.289,1,0,0.1000061,0.1000061,0.1000061,0.1000061,0,0,0,1,2,0
185.347,0.001015,0.001953125,0.01367188,-0.02148438,0.640625,3.53125,11.32812,-0.03320312,0.015625,-0.01171875,0,0,0,-0.0369873,-0.0007324219,0.1091309,0,0,0.001586914,0,3.947,0,0,0,0,nan,2,5.299,1,0,0.1000061,0.1000061,0.1000061,0.1000061,0,0,0,1,2,0
185.357,0.001015,0.015625,-0.01757812,-0.001953125,-1.523438,0.0859375,14.70312,0.03710938,-0.0078125,-0.009765625,0,0,0,-0.03662109,-0.0007324219,0.1090088,0,0,0.001586914,0,3.947,0,0,0,0,nan,2,5.31,1,0,0.1000061,0.1000061,0.1000061,0.1000061,0,0,0,1,2,0
185.367,0.001017,-0.0625,0.03125,0,1.867188,6.757812,11.69531,-0.05273438,0.0078125,-0.001953125,0,0,0,-0.03686523,-0.0007324219,0.1090088,0,0,0.001586914,0,3.947,0,0,0,0,nan,2,5.32,1,0,0.1000061,0.1000061,0.1000061,0.1000061,0,0,0,1,2,0
185.377,0.001015,0.08984375,-0.01171875,-0.01171875,-1.773438,-3.117188,13.25781,0.04492188,-0.00390625,-0.00390625,0,0,0,-0.03686523,-0.0007324219,0.1090088,0,0,0.001586914,0,3.947,0,0,0,0,nan,2,5.33,1,0,0.1000061,0.1000061,0.1000061,0.1000061,0,0,0,1,2,0
185.387,0.001014,-0.05859375,-0.03125,0.02148438,0.546875,0.40625,11.70312,-0.02148438,0,0.00390625,0,0,0,-0.03674316,-0.0006103516,0.1088867,0,0,0.001586914,0,3.947,0,0,0,0,nan,2,5.34,1,0,0.1000061,0.1000061,0.1000061,0.1000061,0,0,0,1,2,0
185.397,0.001013,0.02148438,0.02539062,0.02734375,0.5859375,0.9375,19.1875,-0.00390625,0.0078125,0.0234375,0,0,0,-0.0369873,-0.0007324219,0.1091309,0,0,0.001586914,0,3.947,0,0,0,0,nan,2,5.35,1,0,0.1000061,0.1000061,0.1000061,0.1000061,0,0,0,1,2,0
185.407,0.001014,0.01367188,0.01367188,-0.0078125,0.3046875,2.789062,11.91406,0.02929688,0.01171875,-0.001953125,0,0,0,-0.03674316,-0.0006103516,0.1092529,0,0,0.001586914,0,3.947,0,0,0,0,nan,2,5.36,1,0,0.1000061,0.1000061,0.1000061,0.1000061,0,0,0,1,2,0
185.418,0.001015,0.05078125,0.02929688,-0.01367188,-2.703125,3.234375,11.75781,0.0234375,-0.005859375,-0.009765625,0,0,0,-0.03662109,-0.0006103516,0.1091309,0,0,0.001586914,0,3.947,0,0,0,0,nan,2,5.37,1,0,0.1000061,0.1000061,0.1000061,0.1000061,0,0,0,1,2,0
185.426,0.001005,-0.02929688,-0.0390625,-0.02148438,-2.53125,-7.546875,6.960938,-0.015625,-0.01757812,-0.02539062,0,0,0,-0.03662109,-0.0007324219,0.1090088,0,0,0.001586914,0,3.947,0,0,0,0,nan,2,5.379,1,0,0.1000061,0.1000061,0.1000061,0.1000061,0,0,0,1,2,0
185.437,0.001014,-0.07617188,-0.02148438,0.009765625,-0.890625,-1.6875,7.671875,-0.0546875,-0.015625,0.001953125,0,0,0,-0.03686523,-0.0009765625,0.1088867,0,0,0.001586914,0,3.947,0,0,0,0,nan,2,5.389,1,0,0.1000061,0.1000061,0.1000061,0.1000061,0,0,0,1,2,0
185.447,0.001016,-0.09375,0.02929688,0.02929688,0.9140625,-1.15625,14.64062,-0.078125,0.02148438,0.009765625,0,0,0,-0.03759766,-0.0009765625,0.1088867,0,0,0.001586914,0,3.947,0,0,0,0,nan,2,5.399,1,0,0.1000061,0.1000061,0.1000061,0.1000061,0,0,0,1,2,0
185.457,0.001014,-0.0078125,0.009765625,0.01953125,0.078125,-1.367188,18.1875,-0.05664062,0.009765625,0.02539062,0,0,0,-0.03833008,-0.0008544922,0.1091309,0,0,0.001586914,0,3.947,0,0,0,0,nan,2,5.41,1,0,0.1000061,0.1000061,0.1000061,0.1000061,0,0,0,1,2,0
185.467,0.001014,-0.05859375,0.0390625,0.001953125,-0.140625,0.4765625,10.45312,-0.05273438,0.02148438,0.005859375,0,0,0,-0.03881836,-0.0007324219,0.1092529,0,0,0.001586914,0,3.947,0,0,0,0,nan,2,5.42,1,0,0.1000061,0.1000061,0.1000061,0.1000061,0,0,0,1,2,0
185.477,0.001016,0.02148438,0.05859375,-0.02734375,0.6875,-3.59375,9.632812,-0.009765625,0.03710938,-0.005859375,0,0,0,-0.0390625,-0.0003662109,0.1092529,0,0,0.001586914,0,3.947,0,0,0,0,nan,2,5.43,1,0,0.1000061,0.1000061,0.1000061,0.1000061,0,0,0,1,2,0
185.487,0.001011,-0.07226562,0.02734375,-0.01367188,0.625,-0.1015625,12.5625,-0.02929688,0.02929688,-0.02539062,0,0,0,-0.03930664,-0.0001220703,0.1091309,0,0,0.001586914,0,3.947,0,0,0,0,nan,2,5.44,1,0,0.1000061,0.1000061,0.1000061,0.1000061,0,0,0,1,2,0
185.497,0.001015,-0.1054688,-0.00390625,0.01757812,-2.554688,-3.898438,14.97656,-0.07421875,0.01171875,0.01367188,0,0,0,-0.03979492,0.0001220703,0.1090088,0,0,0.001586914,0,3.947,0,0,0,0,nan,2,5.45,1,0,0.1000061,0.1000061,0.1000061,0.1000061,0,0,0,1,2,0
185.507,0.001014,0.02929688,0.03710938,-0.01953125,0.4375,5.757812,9.992188,-0.03710938,0.0234375,-0.01171875,0,0,0,-0.04052734,0.0002441406,0.1090088,0,0,0.001586914,0,3.946,0,0,0,0,nan,2,5.46,1,0,0.1000061,0.1000061,0.1000061,0.1000061,0,0,0,1,2,0
185.517,0.001015,0.046875,-0.02539062,0.00390625,0.2109375,2.03125,15.51562,0.02539062,0.00390625,0.00390625,0,0,0,-0.04040527,0.0003662109,0.1090088,0,0,0.001586914,0,3.946,0,0,0,0,nan,2,5.47,1,0,0.1000061,0.1000061,0.1000061,0.1000061,0,0,0,1,2,0
185.526,0.00101,-0.0625,0.005859375,0.005859375,0.125,-3.617188,11.73438,-0.03710938,0.015625,0.009765625,0,0,0,-0.04040527,0.0004882812,0.1091309,0,0,0.001586914,0,3.946,0,0,0,0,nan,2,5.479,1,0,0.1000061,0.1000061,0.1000061,0.1000061,0,0,0,1,2,0
185.537,0.001012,-0.1367188,-0.01757812,0.01953125,0.234375,-2.796875,10.07812,-0.08789062,0.00390625,0.02539062,0,0,0,-0.04101562,0.0004882812,0.1092529,0,0,0.001586914,0,3.946,0,0,0,0,nan,2,5.489,1,0,0.1000061,0.1000061,0.1000061,0.1000061,0,0,0,1,2,0
185.547,0.001017,0.01367188,-0.001953125,-0.02929688,-0.3671875,0.3203125,14,-0.03125,-0.01757812,-0.015625,0,0,0,-0.04162598,0.0003662109,0.109375,0,0,0.001586914,0,3.946,0,0,0,0,nan,2,5.499,1,0,0.1000061,0.1000061,0.1000061,0.1000061,0,0,0,1,2,0
185.557,0.001012,-0.01953125,-0.0078125,-0.005859375,-1.492188,0.15625,15.17188,0.00390625,0.01171875,-0.015625,0,0,0,-0.04162598,0.0003662109,0.1091309,0,0,0.001586914,0,3.946,0,0,0,0,nan,2,5.51,1,0,0.1000061,0.1000061,0.1000061,0.1000061,0,0,0,1,2,0
185.567,0.001021,0.02148438,0.01757812,-0.0078125,2.265625,6.585938,10.02344,-0.009765625,-0.005859375,-0.01367188,0,0,0,-0.04162598,0.0004882812,0.1090088,0,0,0.001586914,0,3.946,0,0,0,0,nan,2,5.52,1,0,0.1000061,0.1000061,0.1000061,0.1000061,0,0,0,1,2,0
185.577,0.001008,0.046875,-0.08398438,0.009765625,-1.085938,-1.085938,10.21094,0.009765625,-0.02539062,0,0,0,0,-0.04174805,0.0002441406,0.1088867,0,0,0.001586914,0,3.946,0,0,0,0,nan,2,5.53,1,0,0.1000061,0.1000061,0.1000061,0.1000061,0,0,0,1,2,0
185.587,0.001018,-0.009765625,0.04101562,0.015625,-0.9765625,0.078125,12.375,0.03125,0.001953125,0.0078125,0,0,0,-0.04138184,0.0001220703,0.1088867,0,0,0.001586914,0,3.946,0,0,0,0,nan,2,5.54,1,0,0.1000061,0.1000061,0.1000061,0.1000061,0,0,0,1,2,0
185.597,0.001012,-0.02734375,-0.01757812,0.02734375,0.6875,2.703125,17.78906,-0.01367188,-0.01757812,0.02539062,0,0,0,-0.04125977,0,0.1091309,0,0,0.001586914,0,3.946,0,0,0,0,nan,2,5.55,1,0,0.1000061,0.1000061,0.1000061,0.1000061,0,0,0,1,2,0
185.607,0.001017,0.07421875,-0.0546875,0,1.429688,3.742188,11.46094,0.02734375,-0.03710938,0.001953125,0,0,0,-0.04125977,-0.0001220703,0.1092529,0,0,0.001586914,0,3.946,0,0,0,0,nan,2,5.56,1,0,0.1000061,0.1000061,0.1000061,0.1000061,0,0,0,1,2,0
185.617,0.001012,0.03320312,0.03125,0.0078125,-2.5625,1.265625,13.01562,0.05078125,0.01367188,0.001953125,0,0,0,-0.04077148,-0.0002441406,0.1092529,0,0,0.001586914,0,3.946,0,0,0,0,nan,2,5.57,1,0,0.1000061,0.1000061,0.1000061,0.1000061,0,0,0,1,2,0
185.626,0.000999,-0.04882812,0.001953125,-0.02929688,-2.304688,-7.414062,8.148438,-0.01171875,0.001953125,-0.01757812,0,0,0,-0.04052734,-0.0002441406,0.1091309,0,0,0.001586914,0,3.946,0,0,0,0,nan,2,5.579,1,0,0.1000061,0.1000061,0.1000061,0.1000061,0,0,0,1,2,0
185.637,0.001013,0.05664062,0.009765625,-0.009765625,-0.921875,-2.453125,3.546875,0.03320312,-0.001953125,-0.01171875,0,0,0,-0.04052734,-0.0003662109,0.1090088,0,0,0.001586914,0,3.946,0,0,0,0,nan,2,5.589,1,0,0.1000061,0.1000061,0.1000061,0.1000061,0,0,0,1,2,0
185.647,0.001009,-0.04492188,0.015625,0.001953125,-0.1875,-3.96875,9.195312,-0.01367188,0.015625,0,0,0,0,-0.04040527,-0.0002441406,0.1088867,0,0,0.001586914,0,3.946,0,0,0,0,nan,2,5.599,1,0,0.1000061,0.1000061,0.1000061,0.1000061,0,0,0,1,2,0.5079365
185.657,0.001012,0.01757812,0.04101562,0.001953125,0.8125,-2.382812,12.69531,0.02734375,0.005859375,0.001953125,0,0,0,-0.0402832,-0.0002441406,0.1090088,0,0,0.001586914,0,3.946,0,0,0,0,nan,2,5.61,1,0,0.1000061,0.1000061,0.1000061,0.1000061,0,0,0,1,2,0
185.667,0.001008,-0.03710938,-0.0078125,0,-0.8203125,-0.8515625,8.179688,-0.01757812,0.005859375,-0.001953125,0,0,0,-0.04016113,-0.0001220703,0.1090088,0,0,0.001586914,0,3.946,0,0,0,0,nan,2,5.62,1,0,0.1000061,0.1000061,0.1000061,0.1000061,0,0,0,1,2,0
185.677,0.00102,0.08007812,0.02929688,-0.02734375,0.96875,-1.71875,6.0625,0.04882812,0.005859375,-0.015625,0,0,0,-0.04016113,-0.0001220703,0.1088867,0,0,0.001586914,0,3.946,0,0,0,0,nan,2,5.63,1,0,0.1000061,0.1000061,0.1000061,0.1000061,0,0,0,1,2,0
185.687,0.001012,-0.046875,0,0.01367188,2.476562,0.40625,7.03125,-0.01367188,0.005859375,0.00390625,0,0,0,-0.03979492,-0.0001220703,0.1087646,0,0,0.001586914,0,3.946,0,0,0,0,nan,2,5.64,1,0,0.1000061,0.1000061,0.1000061,0.1000061,0,0,0,1,2,0
185.697,0.001013,0.04492188,0.0546875,-0.02734375,-1.15625,-6.257812,7.890625,0.03710938,0.005859375,-0.015625,0,0,0,-0.03979492,-0.0002441406,0.1087646,0,0,0.001586914,0,3.946,0,0,0,0,nan,2,5.65,1,0,0.1000061,0.1000061,0.1000061,0.1000061,0,0,0,1,2,0.3015873
185.707,0.001009,-0.03320312,0.01367188,0.00390625,0.9140625,-0.6953125,2.3125,-0.01367188,0.01171875,-0.00390625,0,0,0,-0.03967285,0,0.1085205,0,0,0.001586914,0,3.946,0,0,0,0,nan,2,5.66,1,0,0.1000061,0.1000061,0.1000061,0.1000061,0,0,0,1,2,0
185.717,0.001012,0.0625,0.015625,0.0078125,0.0390625,-4.898438,11.17969,0.03125,0.0078125,0.005859375,0,0,0,-0.03979492,0,0.1085205,0,0,0.001586914,0,3.946,0,0,0,0,nan,2,5.67,1,0,0.1000061,0.1000061,0.1000061,0.1000061,0,0,0,1,2,0
185.726,0.001011,-0.08984375,-0.005859375,0.02734375,-0.53125,2.40625,15.74219,-0.03515625,0.009765625,0.02539062,0,0,0,-0.03979492,0.0001220703,0.1087646,0,0,0.001586914,0,3.946,0,0,0,0,nan,2,5.679,1,0,0.1000061,0.1000061,0.1000061,0.1000061,0,0,0,1,2,0
185.737,0.001014,0.03710938,0.04882812,-0.00390625,0.765625,3.773438,11.69531,0.009765625,0.015625,0.001953125,0,0,0,-0.04003906,0.0002441406,0.1088867,0,0,0.001586914,0,3.946,0,0,0,0,nan,2,5.689,1,0,0.1000061,0.1000061,0.1000061,0.1000061,0,0,0,1,2,0
185.747,0.00102,-0.06445312,0.005859375,0.005859375,0.359375,3.375,9.445312,-0.04101562,0.02734375,0.00390625,0,0,0,-0.04016113,0.0004882812,0.1088867,0,0,0.001586914,0,3.946,0,0,0,0,nan,2,5.699,1,0,0.1000061,0.1000061,0.1000061,0.1000061,0,0,0,1,2,0.3492064
185.757,0.001013,-0.01953125,0.08007812,-0.015625,-2.414062,-1.703125,6.273438,-0.00390625,0.02148438,-0.02148438,0,0,0,-0.04040527,0.0006103516,0.1087646,0,0,0.001586914,0,3.946,0,0,0,0,nan,2,5.71,1,0,0.1000061,0.1000061,0.1000061,0.1000061,0,0,0,1,2,0
185.767,0.001019,-0.02148438,-0.005859375,-0.01367188,-0.984375,0.7421875,17.28125,-0.04492188,-0.01171875,-0.0078125,0,0,0,-0.04077148,0.0006103516,0.1086426,0,0,0.001586914,0,3.946,0,0,0,0,nan,2,5.72,1,0,0.1000061,0.1000061,0.1000061,0.1000061,0,0,0,1,2,0
185.777,0.00102,-0.03710938,-0.0078125,0.00390625,-0.0390625,3.273438,13.20312,-0.00390625,0.0078125,-0.00390625,0,0,0,-0.04077148,0.0007324219,0.1085205,0,0,0.001586914,0,3.946,0,0,0,0,nan,2,5.73,1,0,0.1000061,0.1000061,0.1000061,0.1000061,0,0,0,1,2,0
185.787,0.001025,0.04882812,0.00390625,0.00390625,-1.773438,3.75,9.414062,0.00390625,-0.01171875,0.005859375,0,0,0,-0.04101562,0.0006103516,0.1085205,0,0,0.001586914,0,3.946,0,0,0,0,nan,2,5.74,1,0,0.1000061,0.1000061,0.1000061,0.1000061,0,0,0,1,2,0.01587302
185.797,0.001014,0.005859375,0.04492188,0.009765625,0.203125,3.921875,14.71094,0.04101562,0.01171875,0.01171875,0,0,0,-0.04052734,0.0004882812,0.1085205,0,0,0.001586914,0,3.946,0,0,0,0,nan,2,5.75,1,0,0.1000061,0.1000061,0.1000061,0.1000061,0,0,0,1,2,0
185.807,0.001018,0.02148438,-0.09570312,-0.0234375,1.734375,3.804688,8.71875,-0.01757812,-0.04101562,-0.009765625,0,0,0,-0.04052734,0.0003662109,0.1086426,0,0,0.001586914,0,3.946,0,0,0,0,nan,2,5.76,1,0,0.1000061,0.1000061,0.1000061,0.1000061,0,0,0,1,2,0.6031746
185.817,0.001013,0.046875,0.02148438,0.02929688,-0.9453125,2.6875,13.80469,0.04101562,0.005859375,0.01757812,0,0,0,-0.0402832,0.0001220703,0.1086426,0,0,0.001586914,0,3.946,0,0,0,0,nan,2,5.77,1,0,0.1000061,0.1000061,0.1000061,0.1000061,0,0,0,1,2,0
185.826,0.001003,-0.0546875,-0.0546875,-0.00390625,-0.859375,-5.84375,9.140625,-0.01953125,-0.0234375,0.005859375,0,0,0,-0.0402832,0.0001220703,0.1087646,0,0,0.001586914,0,3.946,0,0,0,0,nan,2,5.779,1,0,0.1000061,0.1000061,0.1000061,0.1000061,0,0,0,1,2,0
185.837,0.001015,0.05078125,0.001953125,-0.01367188,-0.4765625,-5.132812,3.460938,0.03320312,-0.02539062,-0.001953125,0,0,0,-0.0402832,-0.0001220703,0.1087646,0,0,0.001586914,0,3.946,0,0,0,0,nan,2,5.789,1,0,0.1000061,0.1000061,0.1000061,0.1000061,0,0,0,1,2,0
185.847,0.00101,-0.0390625,-0.0234375,-0.015625,-0.328125,-3.6875,4.671875,-0.0078125,-0.01171875,-0.01757812,0,0,0,-0.04003906,-0.0002441406,0.1086426,0,0,0.001586914,0,3.946,0,0,0,0,nan,2,5.799,1,0,0.1000061,0.1000061,0.1000061,0.1000061,0,0,0,1,2,0
185.857,0.001015,0.06640625,-0.001953125,-0.001953125,1.3125,-3.820312,9.84375,0.04492188,-0.01757812,-0.001953125,0,0,0,-0.03979492,-0.0006103516,0.1086426,0,0,0.001586914,0,3.946,0,0,0,0,nan,2,5.81,1,0,0.1000061,0.1000061,0.1000061,0.1000061,0,0,0,1,2,0
185.867,0.001014,-0.04296875,-0.00390625,-0.009765625,-1.992188,1.351562,11.25,-0.005859375,-0.01757812,-0.005859375,0,0,0,-0.03955078,-0.0006103516,0.1085205,0,0,0.001586914,0,3.946,0,0,0,0,nan,2,5.82,1,0,0.1000061,0.1000061,0.1000061,0.1000061,0,0,0,1,2,0
185.877,0.001018,0.03515625,0,-0.01953125,-0.328125,4.226562,10.38281,0.01171875,-0.0078125,-0.015625,0,0,0,-0.03955078,-0.0008544922,0.1083984,0,0,0.001586914,0,3.946,0,0,0,0,nan,2,5.83,1,0,0.1000061,0.1000061,0.1000061,0.1000061,0,0,0,1,2,0
185.887,0.001019,-0.05664062,-0.02929688,0.0078125,2.320312,6.320312,12.28906,-0.03515625,0.0078125,0.005859375,0,0,0,-0.03955078,-0.0007324219,0.1083984,0,0,0.001586914,0,3.946,0,0,0,0,nan,2,5.84,1,0,0.1000061,0.1000061,0.1000061,0.1000061,0,0,0,1,2,0
185.897,0.001015,0.009765625,0.005859375,0.0234375,-2.15625,0.6171875,14.42969,-0.03125,0.00390625,0.015625,0,0,0,-0.04003906,-0.0006103516,0.1085205,0,0,0.001586914,0,3.946,0,0,0,0,nan,2,5.85,1,0,0.1000061,0.1000061,0.1000061,0.1000061,0,0,0,1,2,0
185.907,0.00101,0.03125,0.06835938,-0.02148438,0.171875,4.578125,6.734375,0.02539062,0.03125,-0.0078125,0,0,0,-0.03991699,-0.0006103516,0.1085205,0,0,0.001586914,0,3.946,0,0,0,0,nan,2,5.86,1,0,0.1000061,0.1000061,0.1000061,0.1000061,0,0,0,1,2,0
185.917,0.001015,-0.06640625,-0.01367188,-0.001953125,-1.15625,1.992188,13.16406,-0.0390625,0.005859375,-0.009765625,0,0,0,-0.04003906,-0.0003662109,0.1083984,0,0,0.001586914,0,3.946,0,0,0,0,nan,2,5.87,1,0,0.1000061,0.1000061,0.1000061,0.1000061,0,0,0,1,2,0
185.926,0.00101,-0.02148438,-0.03515625,-0.01757812,-0.953125,-6.054688,8.210938,-0.015625,-0.02148438,-0.01171875,0,0,0,-0.04040527,-0.0004882812,0.1083984,0,0,0.001586914,0,3.946,0,0,0,0,nan,2,5.879,1,0,0.1000061,0.1000061,0.1000061,0.1000061,0,0,0,1,2,0.07936508
185.936,0.001012,0.0546875,-0.005859375,0.001953125,2.226562,-1.835938,5.648438,0.0390625,-0.01757812,0,0,0,0,-0.0402832,-0.0007324219,0.1082764,0,0,0.001586914,0,3.946,0,0,0,0,nan,2,5.889,1,0,0.1000061,0.1000061,0.1000061,0.1000061,0,0,0,1,2,0
185.947,0.001017,0.04101562,0.03125,-0.001953125,0.8046875,-4.09375,7.632812,0.05273438,0.01367188,-0.0078125,0,0,0,-0.03967285,-0.0007324219,0.1082764,0,0,0.001586914,0,3.946,0,0,0,0,nan,2,5.899,1,0,0.1000061,0.1000061,0.1000061,0.1000061,0,0,0,1,2,0
185.957,0.001012,0.04492188,0.015625,-0.01367188,-1.648438,-5.34375,6.140625,0.005859375,0.01953125,-0.001953125,0,0,0,-0.03955078,-0.0004882812,0.1082764,0,0,0.001586914,0,3.946,0,0,0,0,nan,2,5.909,1,0,0.1000061,0.1000061,0.1000061,0.1000061,0,0,0,1,2,0
185.967,0.001049,-0.01953125,-0.05078125,0.01757812,0.9140625,2.84375,14.82812,-0.01171875,0.01953125,0.01757812,0,0,0,-0.03967285,-0.0002441406,0.1082764,0,0,0.001586914,0,3.946,0,0,0,0,nan,2,5.92,1,0,0.1000061,0.1000061,0.1000061,0.1000061,0,0,0,1,2,0
185.977,0.001011,-0.04492188,-0.01171875,-0.01953125,0.4921875,0.484375,7.78125,-0.03320312,-0.00390625,-0.01367188,0,0,0,-0.03991699,-0.0002441406,0.1082764,0,0,0.001586914,0,3.946,0,0,0,0,nan,2,5.93,1,0,0.1000061,0.1000061,0.1000061,0.1000061,0,0,0,1,2,0
185.987,0.001018,0.0390625,0.001953125,-0.01757812,-0.4765625,2.5,5.109375,0,-0.03320312,-0.01757812,0,0,0,-0.04016113,-0.0004882812,0.1081543,0,0,0.001586914,0,3.946,0,0,0,0,nan,2,5.94,1,0,0.1000061,0.1000061,0.1000061,0.1000061,0,0,0,1,2,0
185.997,0.001012,-0.03320312,0.05664062,-0.015625,0.1640625,-1.476562,7.671875,0.0078125,0.0234375,-0.01953125,0,0,0,-0.03991699,-0.0004882812,0.1079102,0,0,0.001586914,0,3.946,0,0,0,0,nan,2,5.95,1,0,0.1000061,0.1000061,0.1000061,0.1000061,0,0,0,1,2,0
186.007,0.001017,0.001953125,-0.0078125,-0.001953125,2.492188,1.609375,2.484375,-0.0390625,-0.001953125,-0.001953125,0,0,0,-0.0402832,-0.0003662109,0.1079102,0,0,0.001586914,0,3.946,0,0,0,0,nan,2,5.96,1,0,0.1000061,0.1000061,0.1000061,0.1000061,0,0,0,1,2,0
186.017,0.001017,-0.02148438,0.001953125,-0.005859375,-0.0234375,-3.601562,7.851562,0.0234375,0.0078125,-0.01171875,0,0,0,-0.04016113,-0.0003662109,0.1077881,0,0,0.001586914,0,3.946,0,0,0,0,nan,2,5.97,1,0,0.1000061,0.1000061,0.1000061,0.1000061,0,0,0,1,2,0
186.028,0.001017,0.0546875,-0.0390625,-0.005859375,-1.53125,-5.09375,2.804688,-0.001953125,-0.03320312,0,0,0,0,-0.04016113,-0.0003662109,0.107666,0,0,0.001586914,0,3.946,0,0,0,0,nan,2,5.98,1,0,0.1000061,0.1000061,0.1000061,0.1000061,0,0,0,1,2,0
186.036,0.001004,-0.015625,0.01757812,0.02929688,-1.71875,-0.46875,11.88281,0.01953125,0.0078125,0.01171875,0,0,0,-0.03991699,-0.0004882812,0.1077881,0,0,0.001586914,0,3.946,0,0,0,0,nan,2,5.989,1,0,0.1000061,0.1000061,0.1000061,0.1000061,0,0,0,1,2,0
186.047,0.001012,0.02539062,-0.0078125,-0.02539062,0.2421875,3.4375,13.48438,-0.005859375,-0.0234375,-0.00390625,0,0,0,-0.04003906,-0.0007324219,0.1079102,0,0,0.001586914,0,3.946,0,0,0,0,nan,2,5.999,1,0,0.1000061,0.1000061,0.1000061,0.1000061,0,0,0,1,2,0
186.057,0.001011,-0.1015625,0.009765625,-0.005859375,-0.078125,1.109375,14.88281,-0.02539062,0.015625,-0.015625,0,0,0,-0.03991699,-0.0007324219,0.107666,0,0,0.001586914,0,3.946,0,0,0,0,nan,2,6.009,1,0,0.1000061,0.1000061,0.1000061,0.1000061,0,0,0,1,2,0
186.067,0.001021,0.02539062,0.0625,-0.01171875,-3.71875,-5.664062,9.640625,-0.001953125,0.009765625,-0.0078125,0,0,0,-0.0402832,-0.0006103516,0.107666,0,0,0.001586914,0,3.946,0,0,0,0,nan,2,6.02,1,0,0.1000061,0.1000061,0.1000061,0.1000061,0,0,0,1,2,0
186.077,0.001014,-0.03125,-0.04882812,-0.00390625,0.4296875,0.09375,13.41406,-0.04101562,0.001953125,-0.0078125,0,0,0,-0.04064941,-0.0004882812,0.1075439,0,0,0.001586914,0,3.946,0,0,0,0,nan,2,6.03,1,0,0.1000061,0.1000061,0.1000061,0.1000061,0,0,0,1,2,0
186.087,0.001015,-0.05078125,0.02929688,-0.01757812,0.984375,0.9609375,13.9375,-0.03320312,0.015625,-0.01757812,0,0,0,-0.04077148,-0.0004882812,0.1074219,0,0,0.001586914,0,3.946,0,0,0,0,nan,2,6.04,1,0,0.1000061,0.1000061,0.1000061,0.1000061,0,0,0,1,2,0
186.097,0.001012,-0.03125,-0.02539062,0.02734375,-0.390625,0.6875,18.32031,0.009765625,0.005859375,0.015625,0,0,0,-0.04064941,-0.0002441406,0.1072998,0,0,0.001586914,0,3.946,0,0,0,0,nan,2,6.05,1,0,0.1000061,0.1000061,0.1000061,0.1000061,0,0,0,1,2,0
186.107,0.001014,0.01953125,0.03320312,0.009765625,-0.8515625,2.164062,8.515625,0.02539062,0.01171875,0.0078125,0,0,0,-0.04052734,-0.0003662109,0.1074219,0,0,0.001586914,0,3.946,0,0,0,0,nan,2,6.06,1,0,0.1000061,0.1000061,0.1000061,0.1000061,0,0,0,1,2,0
186.117,0.001012,0.0703125,0.02539062,-0.0078125,-0.2890625,4.585938,13.98438,0.0234375,0.001953125,0.005859375,0,0,0,-0.04052734,-0.0002441406,0.107666,0,0,0.001586914,0,3.946,0,0,0,0,nan,2,6.07,1,0,0.1000061,0.1000061,0.1000061,0.1000061,0,0,0,1,2,0
186.128,0.001016,0.03515625,-0.02539062,-0.03320312,1.03125,2.34375,10.8125,0.00390625,-0.005859375,-0.02539062,0,0,0,-0.0402832,-0.0001220703,0.1074219,0,0,0.001586914,0,3.946,0,0,0,0,nan,2,6.08,1,0,0.1000061,0.1000061,0.1000061,0.1000061,0,0,0,1,2,0
186.136,0.001007,-0.02734375,-0.01367188,-0.005859375,1.3125,-2.234375,10.73438,0.001953125,-0.0078125,-0.01367188,0,0,0,-0.04016113,-0.0002441406,0.1072998,0,0,0.001586914,0,3.946,0,0,0,0,nan,2,6.089,1,0,0.1000061,0.1000061,0.1000061,0.1000061,0,0,0,1,2,0
186.147,0.001016,-0.03125,-0.00390625,-0.01953125,-0.3203125,-1.265625,10.47656,0.01757812,-0.00390625,-0.01953125,0,0,0,-0.03979492,-0.0003662109,0.1070557,0,0,0.001586914,0,3.946,0,0,0,0,nan,2,6.099,1,0,0.1000061,0.1000061,0.1000061,0.1000061,0,0,0,1,2,0
186.157,0.001017,0.0078125,-0.02929688,-0.009765625,-1.84375,-2.640625,15.25781,0.03125,-0.01367188,-0.01171875,0,0,0,-0.03955078,-0.0004882812,0.1069336,0,0,0.001586914,0,3.946,0,0,0,0,nan,2,6.109,1,0,0.1000061,0.1000061,0.1000061,0.1000061,0,0,0,1,2,0
186.167,0.001017,0.009765625,-0.001953125,0.05273438,2.898438,-3.171875,9.0625,0.02734375,-0.001953125,0.01757812,0,0,0,-0.03942871,-0.0006103516,0.1069336,0,0,0.001586914,0,3.947,0,0,0,0,nan,2,6.12,1,0,0.1000061,0.1000061,0.1000061,0.1000061,0,0,0,1,2,0.4126984
186.177,0.00102,0.0234375,0.02734375,0.0234375,-1.632812,-6.09375,8.898438,0.03320312,-0.0078125,0.03515625,0,0,0,-0.03918457,-0.0007324219,0.1072998,0,0,0.001586914,0,3.947,0,0,0,0,nan,2,6.13,1,0,0.1000061,0.1000061,0.1000061,0.1000061,0,0,0,1,2,0
186.187,0.001018,-0.005859375,-0.01171875,0.001953125,-0.0859375,-1.40625,6.773438,-0.01953125,-0.005859375,0.005859375,0,0,0,-0.03930664,-0.0008544922,0.1075439,0,0,0.001586914,0,3.947,0,0,0,0,nan,2,6.14,1,0,0.1000061,0.1000061,0.1000061,0.1000061,0,0,0,1,2,0
186.197,0.001011,0.06054688,0.005859375,-0.01953125,-2.273438,-3.617188,14.97656,-0.0078125,0.0078125,-0.00390625,0,0,0,-0.03955078,-0.0007324219,0.1075439,0,0,0.001586914,0,3.947,0,0,0,0,nan,2,6.15,1,0,0.1000061,0.1000061,0.1000061,0.1000061,0,0,0,1,2,0
186.207,0.001016,0.02539062,-0.009765625,-0.01953125,1.429688,3.804688,13.38281,-0.001953125,-0.015625,-0.01953125,0,0,0,-0.03942871,-0.0007324219,0.1074219,0,0,0.001586914,0,3.947,0,0,0,0,nan,2,6.16,1,0,0.1000061,0.1000061,0.1000061,0.1000061,0,0,0,1,2,0
186.217,0.00101,0.0546875,-0.0625,-0.0234375,-1.023438,2.0625,13.9375,0.0078125,-0.01953125,-0.01367188,0,0,0,-0.03955078,-0.0007324219,0.1072998,0,0,0.001586914,0,3.947,0,0,0,0,nan,2,6.17,1,0,0.1000061,0.1000061,0.1000061,0.1000061,0,0,0,1,2,0
186.227,0.001015,0.03710938,0.05078125,-0.005859375,-1.570312,2.320312,14.13281,-0.0078125,0.02148438,-0.01367188,0,0,0,-0.03955078,-0.0007324219,0.1070557,0,0,0.001586914,0,3.947,0,0,0,0,nan,2,6.18,1,0,0.1000061,0.1000061,0.1000061,0.1000061,0,0,0,1,2,0
186.236,0.001009,-0.07226562,-0.0078125,0.005859375,-1.601562,-6.023438,5.585938,-0.02539062,-0.0078125,0.001953125,0,0,0,-0.03955078,-0.0007324219,0.1070557,0,0,0.001586914,0,3.947,0,0,0,0,nan,2,6.189,1,0,0.1000061,0.1000061,0.1000061,0.1000061,0,0,0,1,2,0
186.247,0.001012,0.02148438,0,0.0546875,1.546875,-2.578125,5.109375,0.005859375,-0.009765625,0.04492188,0,0,0,-0.03955078,-0.0007324219,0.1072998,0,0,0.001586914,0,3.947,0,0,0,0,nan,2,6.199,1,0,0.1000061,0.1000061,0.1000061,0.1000061,0,0,0,1,2,0
186.257,0.001018,0.0625,-0.03125,0.00390625,-0.1015625,-3.6875,12.78906,0.009765625,-0.01171875,0.01757812,0,0,0,-0.03967285,-0.0008544922,0.107666,0,0,0.001586914,0,3.947,0,0,0,0,nan,2,6.209,1,0,0.1000061,0.1000061,0.1000061,0.1000061,0,0,0,1,2,0
186.267,0.001011,0.05664062,0.0078125,-0.01171875,0.4296875,3.03125,4.484375,0.0078125,-0.00390625,-0.00390625,0,0,0,-0.03967285,-0.0007324219,0.107666,0,0,0.001586914,0,3.947,0,0,0,0,nan,2,6.22,1,0,0.1000061,0.1000061,0.1000061,0.1000061,0,0,0,1,2,0
186.277,0.001017,0.02148438,0.02734375,-0.01757812,0.1484375,-2.890625,9.851562,0.01953125,0.0078125,-0.01757812,0,0,0,-0.03967285,-0.0008544922,0.1075439,0,0,0.001586914,0,3.947,0,0,0,0,nan,2,6.23,1,0,0.1000061,0.1000061,0.1000061,0.1000061,0,0,0,1,2,0.04761905
186.287,0.001019,0.001953125,0.015625,0.0078125,2.359375,-0.4296875,2.242188,0.0078125,0.001953125,-0.001953125,0,0,0,-0.03979492,-0.0007324219,0.1075439,0,0,0.001586914,0,3.947,0,0,0,0,nan,2,6.24,1,0,0.1000061,0.1000061,0.1000061,0.1000061,0,0,0,1,2,0
186.297,0.001017,-0.06445312,-0.04492188,-0.02734375,-0.3828125,-5.5625,5.023438,0.00390625,-0.01367188,-0.01953125,0,0,0,-0.03967285,-0.0007324219,0.1074219,0,0,0.001586914,0,3.947,0,0,0,0,nan,2,6.25,1,0,0.1000061,0.1000061,0.1000061,0.1000061,0,0,0,1,2,0
186.307,0.001011,-0.046875,0.0390625,-0.01171875,-0.984375,-4.609375,6.382812,-0.00390625,0.005859375,-0.01757812,0,0,0,-0.03979492,-0.0007324219,0.1071777,0,0,0.001586914,0,3.947,0,0,0,0,nan,2,6.26,1,0,0.1000061,0.1000061,0.1000061,0.1000061,0,0,0,1,2,0
186.317,0.001018,-0.00390625,0.0078125,0.0390625,3.109375,-1.578125,6.40625,0.001953125,0.01367188,0.015625,0,0,0,-0.03991699,-0.0007324219,0.1070557,0,0,0.001586914,0,3.947,0,0,0,0,nan,2,6.27,1,0,0.1000061,0.1000061,0.1000061,0.1000061,0,0,0,1,2,0
186.327,0.001011,-0.04296875,-0.01757812,0.01171875,-1.585938,-5.242188,12.52344,0,-0.00390625,0.02148438,0,0,0,-0.03991699,-0.0007324219,0.1072998,0,0,0.001586914,0,3.947,0,0,0,0,nan,2,6.28,1,0,0.1000061,0.1000061,0.1000061,0.1000061,0,0,0,1,2,0
186.336,0.001005,-0.0078125,0.02539062,0.02734375,-1.335938,0.53125,15.73438,-0.01171875,-0.00390625,0.02148438,0,0,0,-0.03991699,-0.0007324219,0.1075439,0,0,0.001586914,0,3.947,0,0,0,0,nan,2,6.289,1,0,0.1000061,0.1000061,0.1000061,0.1000061,0,0,0,1,2,0
186.347,0.001017,0.01953125,0.009765625,-0.02734375,0.078125,2.625,4.953125,0.001953125,0.0078125,-0.005859375,0,0,0,-0.03991699,-0.0007324219,0.107666,0,0,0.001586914,0,3.947,0,0,0,0,nan,2,6.299,1,0,0.1000061,0.1000061,0.1000061,0.1000061,0,0,0,1,2,0
186.357,0.001012,0.015625,0.009765625,0,-0.640625,0.953125,8.773438,0,-0.00390625,0,0,0,0,-0.03979492,-0.0007324219,0.1075439,0,0,0.001586914,0,3.947,0,0,0,0,nan,2,6.309,1,0,0.1000061,0.1000061,0.1000061,0.1000061,0,0,0,1,2,0
186.367,0.001017,0.01757812,-0.01953125,0.0234375,-0.203125,2.390625,10.25,0.005859375,0,0.015625,0,0,0,-0.03979492,-0.0007324219,0.107666,0,0,0.001586914,0,3.947,0,0,0,0,nan,2,6.32,1,0,0.1000061,0.1000061,0.1000061,0.1000061,0,0,0,1,2,0
186.377,0.001022,0.01953125,-0.009765625,0.009765625,-1.507812,0.5546875,12.95312,0.01367188,0.009765625,0.005859375,0,0,0,-0.03979492,-0.0007324219,0.1077881,0,0,0.001586914,0,3.947,0,0,0,0,nan,2,6.33,1,0,0.1000061,0.1000061,0.1000061,0.1000061,0,0,0,1,2,0
186.387,0.001019,0.0078125,-0.02148438,-0.01171875,0.1015625,4.226562,13.16406,0.00390625,-0.001953125,-0.015625,0,0,0,-0.03979492,-0.0007324219,0.1077881,0,0,0.001586914,0,3.947,0,0,0,0,nan,2,6.34,1,0,0.1000061,0.1000061,0.1000061,0.1000061,0,0,0,1,2,0
186.397,0.001011,0.04882812,0.01757812,0.04101562,1.992188,4.867188,9.65625,0.01953125,0,0.01757812,0,0,0,-0.03991699,-0.0008544922,0.1077881,0,0,0.001586914,0,3.947,0,0,0,0,nan,2,6.35,1,0,0.1000061,0.1000061,0.1000061,0.1000061,0,0,0,1,2,0
186.407,0.001017,-0.009765625,0,0.04882812,-2.265625,-0.9765625,8.914062,-0.005859375,0.009765625,0.02734375,0,0,0,-0.03991699,-0.0007324219,0.1079102,0,0,0.001586914,0,3.947,0,0,0,0,nan,2,6.36,1,0,0.1000061,0.1000061,0.1000061,0.1000061,0,0,0,1,2,0
186.417,0.001012,0.01367188,-0.01757812,0.046875,1.679688,2.765625,3.078125,-0.0078125,-0.01367188,0.0625,0,0,0,-0.04003906,-0.0008544922,0.1085205,0,0,0.001586914,0,3.947,0,0,0,0,nan,2,6.37,1,0,0.1000061,0.1000061,0.1000061,0.1000061,0,0,0,1,2,0
186.427,0.001017,0.015625,0.01171875,0.0234375,0.5859375,-0.1640625,9.140625,-0.01367188,0,0.02539062,0,0,0,-0.04003906,-0.0008544922,0.1088867,0,0,0.001586914,0,3.947,0,0,0,0,nan,2,6.38,1,0,0.1000061,0.1000061,0.1000061,0.1000061,0,0,0,1,2,0
186.436,0.001008,-0.03125,0.015625,0.0390625,-0.5546875,-2.421875,17.42188,-0.001953125,-0.005859375,0.03515625,0,0,0,-0.04003906,-0.0009765625,0.1091309,0,0,0.001586914,0,3.947,0,0,0,0,nan,2,6.389,1,0,0.1000061,0.1000061,0.1000061,0.1000061,0,0,0,1,2,0
186.447,0.00101,-0.01171875,-0.015625,0.06835938,-0.0546875,-0.71875,17.10156,0.01757812,-0.015625,0.05078125,0,0,0,-0.03991699,-0.0009765625,0.1094971,0,0,0.001586914,0,3.947,0,0,0,0,nan,2,6.399,1,0,0.1000061,0.1000061,0.1000061,0.1000061,0,0,0,1,2,0
186.457,0.001015,0.01171875,-0.0078125,0.02539062,-0.0546875,0.3125,10.67969,0.001953125,-0.0078125,0.0390625,0,0,0,-0.03991699,-0.001098633,0.1101074,0,0,0.001586914,0,3.947,0,0,0,0,nan,2,6.409,1,0,0.1000061,0.1000061,0.1000061,0.1000061,0,0,0,1,2,0
186.467,0.00101,-0.03710938,0,0.01367188,1.242188,-3.5625,6.726562,0,0,0.01171875,0,0,0,-0.04003906,-0.0009765625,0.1102295,0,0,0.001586914,0,3.947,0,0,0,0,nan,2,6.42,1,0,0.1000061,0.1000061,0.1000061,0.1000061,0,0,0,1,2,0
186.477,0.001012,-0.0078125,-0.0078125,0.05664062,0.59375,-0.1015625,9.132812,0.00390625,-0.00390625,0.02929688,0,0,0,-0.04003906,-0.0009765625,0.1103516,0,0,0.001586914,0,3.947,0,0,0,0,nan,2,6.43,1,0,0.1000061,0.1000061,0.1000061,0.1000061,0,0,0,1,2,0
186.487,0.000984,-0.02148438,-0.05078125,0.0625,-3.226562,-6.71875,10.0625,0.01367188,-0.01367188,0.0703125,0,0,0,-0.04003906,-0.0009765625,0.1109619,0,0,0.001586914,0,3.947,0,0,0,0,nan,2,6.44,1,0,0.1000061,0.1000061,0.1000061,0.1000061,0,0,0,1,2,0
186.497,0.001013,0.04492188,-0.009765625,0.01953125,1.546875,0.15625,8.5,0.001953125,0,0.02539062,0,0,0,-0.04016113,-0.0009765625,0.1114502,0,0,0.001586914,0,3.947,0,0,0,0,nan,2,6.45,1,0,0.1000061,0.1000061,0.1000061,0.1000061,0,0,0,1,2,0
186.507,0.00101,-0.05664062,-0.0234375,0.01757812,-0.28125,-2.375,14.78906,-0.03515625,-0.001953125,0.02734375,0,0,0,-0.0402832,-0.0009765625,0.1116943,0,0,0.001586914,0,3.947,0,0,0,0,nan,2,6.46,1,0,0.1000061,0.1000061,0.1000061,0.1000061,0,0,0,1,2,0
186.517,0.001015,0.0234375,0.02539062,0.06445312,-0.8984375,-1.8125,16.53125,0.00390625,-0.00390625,0.04882812,0,0,0,-0.0402832,-0.0009765625,0.1120605,0,0,0.001586914,0,3.947,0,0,0,0,nan,2,6.47,1,0,0.1000061,0.1000061,0.1000061,0.1000061,0,0,0,1,2,0
186.527,0.00101,-0.00390625,-0.001953125,0.06640625,-0.4921875,0.9140625,10.57812,-0.009765625,0.0078125,0.06445312,0,0,0,-0.04040527,-0.0008544922,0.1126709,0,0,0.001586914,0,3.947,0,0,0,0,nan,2,6.48,1,0,0.1000061,0.1000061,0.1000061,0.1000061,0,0,0,1,2,0
186.536,0.000977,0.03515625,0,0.02539062,0.2890625,-0.6796875,0.375,0.03125,-0.02148438,0.04296875,0,0,0,-0.04016113,-0.0009765625,0.1131592,0,0,0.001586914,0,3.947,0,0,0,0,nan,2,6.489,1,0,0.1000061,0.1000061,0.1000061,0.1000061,0,0,0,1,2,0
186.547,0.001017,-0.0234375,0.02539062,0.01953125,-0.8828125,-2.171875,9.625,-0.02929688,0.005859375,0.01171875,0,0,0,-0.0402832,-0.0009765625,0.1134033,0,0,0.001586914,0,3.947,0,0,0,0,nan,2,6.499,1,0,0.1000061,0.1000061,0.1000061,0.1000061,0,0,0,1,2,0.7460318
186.557,0.000978,0.02539062,-0.01171875,-0.001953125,3.125,-2.476562,6.492188,0.02148438,0.00390625,0.01171875,0,0,0,-0.0402832,-0.0009765625,0.1135254,0,0,0.001586914,0,3.947,0,0,0,0,nan,2,6.509,1,0,0.1000061,0.1000061,0.1000061,0.1000061,0,0,0,1,2,0
186.567,0.001017,0.001953125,0.04492188,0.009765625,-2,0,12.66406,-0.01757812,0.01171875,-0.00390625,0,0,0,-0.0402832,-0.0009765625,0.1135254,0,0,0.001586914,0,3.947,0,0,0,0,nan,2,6.52,1,0,0.1000061,0.1000061,0.1000061,0.1000061,0,0,0,1,2,0
186.577,0.001016,0.01367188,-0.04296875,-0.015625,2.265625,5.070312,6.421875,-0.00390625,-0.01953125,0.00390625,0,0,0,-0.04040527,-0.0009765625,0.1135254,0,0,0.001586914,0,3.947,0,0,0,0,nan,2,6.53,1,0,0.1000061,0.1000061,0.1000061,0.1000061,0,0,0,1,2,0
186.587,0.001016,0.02734375,0.05273438,0.00390625,1.070312,0.34375,9.054688,0.01757812,0.009765625,-0.009765625,0,0,0,-0.0402832,-0.0008544922,0.1134033,0,0,0.001586914,0,3.947,0,0,0,0,nan,2,6.54,1,0,0.1000061,0.1000061,0.1000061,0.1000061,0,0,0,1,2,0
186.597,0.001012,-0.0546875,-0.01953125,0.02734375,-1.148438,-1.945312,5.539062,-0.00390625,-0.01367188,0.01367188,0,0,0,-0.04016113,-0.0009765625,0.1135254,0,0,0.001586914,0,3.947,0,0,0,0,nan,2,6.55,1,0,0.1000061,0.1000061,0.1000061,0.1000061,0,0,0,1,2,0
186.607,0.001017,0.05859375,0.02734375,0.02148438,0.953125,-2.179688,1.664062,0.005859375,-0.005859375,0.03125,0,0,0,-0.04016113,-0.0009765625,0.1137695,0,0,0.001586914,0,3.947,0,0,0,0,nan,2,6.56,1,0,0.1000061,0.1000061,0.1000061,0.1000061,0,0,0,1,2,0
186.617,0.001012,-0.06835938,0.01757812,0.001953125,0.15625,-3.070312,8.96875,-0.0390625,0.0078125,0.0078125,0,0,0,-0.04040527,-0.0009765625,0.1140137,0,0,0.001586914,0,3.947,0,0,0,0,nan,2,6.57,1,0,0.1000061,0.1000061,0.1000061,0.1000061,0,0,0,1,2,0.3174603
186.627,0.00102,-0.03125,0.02148438,-0.005859375,1.960938,-4.65625,8.851562,-0.02539062,0.0234375,0.00390625,0,0,0,-0.04064941,-0.0008544922,0.1140137,0,0,0.001586914,0,3.947,0,0,0,0,nan,2,6.58,1,0,0.1000061,0.1000061,0.1000061,0.1000061,0,0,0,1,2,0.1587302
186.636,0.001006,0.0078125,-0.02734375,-0.01367188,1.601562,4.984375,13.75781,-0.009765625,0.0078125,-0.015625,0,0,0,-0.04077148,-0.0007324219,0.1138916,0,0,0.001586914,0,3.947,0,0,0,0,nan,2,6.589,1,0,0.1000061,0.1000061,0.1000061,0.1000061,0,0,0,1,2,0
186.647,0.001009,0.02539062,0.01953125,-0.005859375,-1.070312,4.0625,11.82812,0.01367188,0.00390625,0,0,0,0,-0.04077148,-0.0007324219,0.1138916,0,0,0.001586914,0,3.947,0,0,0,0,nan,2,6.599,1,0,0.1000061,0.1000061,0.1000061,0.1000061,0,0,0,1,2,0
186.657,0.001012,0.0078125,-0.05664062,-0.046875,-1.414062,1.125,12.71094,-0.001953125,-0.009765625,-0.03710938,0,0,0,-0.04064941,-0.0007324219,0.1136475,0,0,0.001586914,0,3.947,0,0,0,0,nan,2,6.609,1,0,0.1000061,0.1000061,0.1000061,0.1000061,0,0,0,1,2,0
186.667,0.001013,-0.01171875,0.009765625,0.005859375,0.1640625,-1.6875,14.45312,0.009765625,-0.005859375,-0.01367188,0,0,0,-0.04052734,-0.0007324219,0.1134033,0,0,0.001586914,0,3.947,0,0,0,0,nan,2,6.62,1,0,0.1000061,0.1000061,0.1000061,0.1000061,0,0,0,1,2,0
186.677,0.001014,-0.00390625,-0.03710938,0.03710938,-2.3125,-3.453125,13.88281,0.01953125,-0.009765625,0.01953125,0,0,0,-0.0402832,-0.0007324219,0.1134033,0,0,0.001586914,0,3.947,0,0,0,0,nan,2,6.63,1,0,0.1000061,0.1000061,0.1000061,0.1000061,0,0,0,1,2,0
186.687,0.001028,0.009765625,-0.0078125,0.06445312,-0.390625,0.5546875,11.99219,-0.001953125,0.0078125,0.04492188,0,0,0,-0.04016113,-0.0007324219,0.1137695,0,0,0.001586914,0,3.947,0,0,0,0,nan,2,6.64,1,0,0.1000061,0.1000061,0.1000061,0.1000061,0,0,0,1,2,0
186.697,0.001014,-0.01757812,0.02734375,0.06445312,-0.7890625,0.40625,17.875,-0.0078125,0.01171875,0.0703125,0,0,0,-0.04016113,-0.0006103516,0.114502,0,0,0.001586914,0,3.947,0,0,0,0,nan,2,6.65,1,0,0.1000061,0.1000061,0.1000061,0.1000061,0,0,0,1,2,0
186.707,0.001012,-0.04492188,-0.0625,0.08007812,0.46875,1.828125,15.89844,-0.0390625,0.001953125,0.05859375,0,0,0,-0.04040527,-0.0004882812,0.1149902,0,0,0.001586914,0,3.947,0,0,0,0,nan,2,6.66,1,0,0.1000061,0.1000061,0.1000061,0.1000061,0,0,0,1,2,0
186.717,0.001013,-0.04101562,0.02539062,0.05859375,-0.3828125,3.0625,11.09375,-0.01367188,0.009765625,0.078125,0,0,0,-0.04064941,-0.0003662109,0.1158447,0,0,0.001586914,0,3.947,0,0,0,0,nan,2,6.67,1,0,0.1000061,0.1000061,0.1000061,0.1000061,0,0,0,1,2,0
186.727,0.001012,-0.015625,0,0.05273438,-1.359375,-0.5,13.08594,-0.01953125,0.0078125,0.03710938,0,0,0,-0.04077148,-0.0002441406,0.1162109,0,0,0.001586914,0,3.947,0,0,0,0,nan,2,6.68,1,0,0.1000061,0.1000061,0.1000061,0.1000061,0,0,0,1,2,0
186.736,0.001007,-0.02734375,-0.001953125,0.03710938,-0.796875,-4.914062,5.976562,-0.01757812,0.005859375,0.046875,0,0,0,-0.04089355,-0.0001220703,0.1166992,0,0,0.001586914,0,3.947,0,0,0,0,nan,2,6.689,1,0,0.1000061,0.1000061,0.1000061,0.1000061,0,0,0,1,2,0
186.747,0.001016,-0.01171875,0,0.04492188,0.625,-3.554688,2.398438,-0.01171875,0.02148438,0.0390625,0,0,0,-0.04101562,0.0001220703,0.1170654,0,0,0.001586914,0,3.947,0,0,0,0,nan,2,6.699,1,0,0.1000061,0.1000061,0.1000061,0.1000061,0,0,0,1,2,0
186.757,0.001017,-0.015625,0.01953125,0.03320312,1.507812,-1.726562,9.203125,-0.02148438,0.015625,0.04101562,0,0,0,-0.04125977,0.0002441406,0.1175537,0,0,0.001586914,0,3.947,0,0,0,0,nan,2,6.709,1,0,0.1000061,0.1000061,0.1000061,0.1000061,0,0,0,1,2,0.2539683
186.767,0.001016,0.01953125,-0.02539062,0.03515625,0.2890625,3.007812,4.71875,-0.01953125,-0.005859375,0.046875,0,0,0,-0.04150391,0.0002441406,0.1179199,0,0,0.001586914,0,3.947,0,0,0,0,nan,2,6.72,1,0,0.1000061,0.1000061,0.1000061,0.1000061,0,0,0,1,2,0
186.777,0.001018,0.02734375,-0.01171875,0.06835938,-0.546875,1.609375,11.42188,-0.01171875,-0.01171875,0.05664062,0,0,0,-0.04174805,0.0002441406,0.1184082,0,0,0.001586914,0,3.947,0,0,0,0,nan,2,6.73,1,0,0.1000061,0.1000061,0.1000061,0.1000061,0,0,0,1,2,0
186.787,0.001023,-0.015625,0.005859375,0,2,1.992188,8.164062,0.009765625,0,0.02148438,0,0,0,-0.04174805,0.0001220703,0.1188965,0,0,0.001586914,0,3.947,0,0,0,0,nan,2,6.74,1,0,0.1000061,0.1000061,0.1000061,0.1000061,0,0,0,1,2,0
186.797,0.00102,0.01171875,-0.001953125,0.02148438,-0.2578125,2.9375,4.054688,-0.00390625,-0.01953125,0.01953125,0,0,0,-0.04187012,0,0.1190186,0,0,0.001586914,0,3.947,0,0,0,0,nan,2,6.75,1,0,0.1000061,0.1000061,0.1000061,0.1000061,0,0,0,1,2,0
186.807,0.001018,0.04492188,0.015625,0.01171875,-1.601562,-1.890625,7.273438,0.03125,-0.01367188,0.01171875,0,0,0,-0.04174805,-0.0001220703,0.1192627,0,0,0.001586914,0,3.947,0,0,0,0,nan,2,6.76,1,0,0.1000061,0.1000061,0.1000061,0.1000061,0,0,0,1,2,0
186.817,0.001016,0.04101562,-0.02539062,0.015625,0.5703125,3.046875,3.570312,0.02929688,-0.02539062,0.01171875,0,0,0,-0.04150391,-0.0003662109,0.1193848,0,0,0.001586914,0,3.946,0,0,0,0,nan,2,6.77,1,0,0.1000061,0.1000061,0.1000061,0.1000061,0,0,0,1,2,0
186.827,0.001017,0.03125,0.01757812,0.02148438,1.78125,2.195312,10.1875,0.02148438,-0.001953125,0.0234375,0,0,0,-0.0411377,-0.0003662109,0.1195068,0,0,0.001586914,0,3.946,0,0,0,0,nan,2,6.78,1,0,0.1000061,0.1000061,0.1000061,0.1000061,0,0,0,1,2,0
186.836,0.001005,0.01757812,-0.00390625,0.0078125,0.3359375,-0.9375,11.96875,0.009765625,-0.005859375,0.01367188,0,0,0,-0.04101562,-0.0004882812,0.119751,0,0,0.001586914,0,3.946,0,0,0,0,nan,2,6.789,1,0,0.1000061,0.1000061,0.1000061,0.1000061,0,0,0,1,2,0
186.847,0.001013,0.001953125,0.01757812,0.009765625,-1.226562,-5.242188,9.617188,0.01953125,-0.001953125,0.01367188,0,0,0,-0.04089355,-0.0006103516,0.119873,0,0,0.001586914,0,3.946,0,0,0,0,nan,2,6.799,1,0,0.1000061,0.1000061,0.1000061,0.1000061,0,0,0,1,2,0
186.857,0.001012,0.00390625,-0.04101562,0.03125,0.53125,-1.242188,5.75,0.01171875,-0.005859375,0.015625,0,0,0,-0.04064941,-0.0006103516,0.1199951,0,0,0.001586914,0,3.946,0,0,0,0,nan,2,6.809,1,0,0.1000061,0.1000061,0.1000061,0.1000061,0,0,0,1,2,0
186.867,0.001013,0.03515625,-0.01171875,-0.01367188,2.109375,2.257812,8.367188,0.02148438,-0.01367188,0.005859375,0,0,0,-0.04052734,-0.0006103516,0.1201172,0,0,0.001586914,0,3.946,0,0,0,0,nan,2,6.82,1,0,0.1000061,0.1000061,0.1000061,0.1000061,0,0,0,1,2,0
186.877,0.001016,0.04101562,0.02929688,0.02539062,-0.234375,3.234375,6.132812,0.04296875,-0.001953125,0.01757812,0,0,0,-0.04016113,-0.0008544922,0.1202393,0,0,0.001586914,0,3.946,0,0,0,0,nan,2,6.83,1,0,0.1000061,0.1000061,0.1000061,0.1000061,0,0,0,1,2,0
186.887,0.001019,0.009765625,-0.001953125,0,-1.828125,-1.820312,8.578125,0.01171875,-0.005859375,0.0078125,0,0,0,-0.03991699,-0.0008544922,0.1203613,0,0,0.001586914,0,3.946,0,0,0,0,nan,2,6.84,1,0,0.1000061,0.1000061,0.1000061,0.1000061,0,0,0,1,2,0
186.897,0.001008,0.02148438,0.00390625,0.03125,0.7421875,2.6875,3.101562,0.005859375,-0.0078125,0.03125,0,0,0,-0.03979492,-0.0008544922,0.1206055,0,0,0.001586914,0,3.946,0,0,0,0,nan,2,6.85,1,0,0.1000061,0.1000061,0.1000061,0.1000061,0,0,0,1,2,0
186.907,0.001013,0.0234375,0.01367188,0.01757812,1.5,0.890625,9.40625,0.0078125,0,0.015625,0,0,0,-0.03979492,-0.0009765625,0.1208496,0,0,0.001586914,0,3.946,0,0,0,0,nan,2,6.86,1,0,0.1000061,0.1000061,0.1000061,0.1000061,0,0,0,1,2,0.2857143
186.917,0.001012,0.015625,-0.015625,0.02148438,0.1171875,0.734375,7.882812,-0.00390625,-0.02148438,0.01953125,0,0,0,-0.03967285,-0.0009765625,0.1209717,0,0,0.001586914,0,3.946,0,0,0,0,nan,2,6.87,1,0,0.1000061,0.1000061,0.1000061,0.1000061,0,0,0,1,2,0
186.927,0.001013,-0.0234375,-0.001953125,0.046875,0.34375,1.085938,2.125,-0.0234375,-0.01367188,0.04882812,0,0,0,-0.03979492,-0.001220703,0.1213379,0,0,0.001586914,0,3.946,0,0,0,0,nan,2,6.88,1,0,0.1000061,0.1000061,0.1000061,0.1000061,0,0,0,1,2,0
186.936,0.001008,-0.03515625,-0.02929688,0.02929688,0.15625,-1.101562,8.71875,-0.02148438,-0.0078125,0.02148438,0,0,0,-0.04003906,-0.001342773,0.1217041,0,0,0.001586914,0,3.946,0,0,0,0,nan,2,6.889,1,0,0.1000061,0.1000061,0.1000061,0.1000061,0,0,0,1,2,0
186.946,0.001015,-0.0390625,-0.001953125,0.01757812,-3.289062,-4.914062,11.69531,-0.01757812,-0.005859375,0.03125,0,0,0,-0.04016113,-0.001342773,0.1220703,0,0,0.001586914,0,3.946,0,0,0,0,nan,2,6.899,1,0,0.1000061,0.1000061,0.1000061,0.1000061,0,0,0,1,2,0
186.957,0.001015,0,-0.01171875,0.04101562,2.125,0.5703125,12.86719,-0.03320312,-0.001953125,0.0234375,0,0,0,-0.04040527,-0.001342773,0.1221924,0,0,0.001586914,0,3.946,0,0,0,0,nan,2,6.909,1,0,0.1000061,0.1000061,0.1000061,0.1000061,0,0,0,1,2,0
186.967,0.001015,0.03125,0.0234375,-0.01757812,-1.648438,-5.40625,5.414062,-0.01757812,0,0.01171875,0,0,0,-0.04064941,-0.001342773,0.1224365,0,0,0.001586914,0,3.946,0,0,0,0,nan,2,6.919,1,0,0.1000061,0.1000061,0.1000061,0.1000061,0,0,0,1,2,0
186.977,0.001023,-0.0390625,-0.04101562,0.01367188,1.375,-0.546875,2.164062,-0.02734375,-0.00390625,0.00390625,0,0,0,-0.04101562,-0.001220703,0.1225586,0,0,0.001586914,0,3.946,0,0,0,0,nan,2,6.93,1,0,0.1000061,0.1000061,0.1000061,0.1000061,0,0,0,1,2,0
186.987,0.00102,-0.0078125,-0.02734375,0.01171875,1.867188,-2.992188,8.453125,0.0078125,-0.0078125,0.005859375,0,0,0,-0.04101562,-0.001342773,0.1225586,0,0,0.001586914,0,3.946,0,0,0,0,nan,2,6.94,1,0,0.1000061,0.1000061,0.1000061,0.1000061,0,0,0,1,2,0
186.997,0.001013,0.0625,0.0234375,0.0390625,0.375,-4.289062,9.546875,0.03515625,-0.01757812,0.03320312,0,0,0,-0.04089355,-0.001464844,0.1228027,0,0,0.001586914,0,3.946,0,0,0,0,nan,2,6.95,1,0,0.1000061,0.1000061,0.1000061,0.1000061,0,0,0,1,2,0
187.007,0.001015,0.015625,-0.03125,0.01953125,0.484375,-4.375,3.0625,0.02734375,-0.009765625,0.03125,0,0,0,-0.04064941,-0.001586914,0.1231689,0,0,0.001586914,0,3.946,0,0,0,0,nan,2,6.96,1,0,0.1000061,0.1000061,0.1000061,0.1000061,0,0,0,1,2,0
187.017,0.001015,0.03125,0.046875,0.005859375,-1.609375,-3.289062,10.15625,0.02148438,0.01171875,-0.001953125,0,0,0,-0.04040527,-0.001586914,0.1231689,0,0,0.001586914,0,3.946,0,0,0,0,nan,2,6.97,1,0,0.1000061,0.1000061,0.1000061,0.1000061,0,0,0,1,2,0
187.027,0.001015,0.05664062,-0.02734375,0.03710938,1.148438,-3.453125,10.75,0.01953125,-0.00390625,0.04492188,0,0,0,-0.0402832,-0.001464844,0.1235352,0,0,0.001586914,0,3.946,0,0,0,0,nan,2,6.98,1,0,0.1000061,0.1000061,0.1000061,0.1000061,0,0,0,1,2,0
187.037,0.001015,-0.0703125,-0.02734375,0.0078125,1.351562,0.2734375,9.632812,-0.01171875,0.01171875,0.01367188,0,0,0,-0.04016113,-0.001464844,0.1237793,0,0,0.001586914,0,3.946,0,0,0,0,nan,2,6.99,1,0,0.1000061,0.1000061,0.1000061,0.1000061,0,0,0,1,2,0.6031746
187.046,0.001005,0.005859375,0.0234375,0.005859375,1.234375,5.835938,11.4375,-0.00390625,0.005859375,0.01367188,0,0,0,-0.0402832,-0.001342773,0.1239014,0,0,0.001586914,0,3.946,0,0,0,0,nan,2,6.999,1,0,0.1000061,0.1000061,0.1000061,0.1000061,0,0,0,1,2,0
187.057,0.001012,-0.01367188,0.03320312,0.001953125,-1.242188,-0.2578125,11.67188,-0.02148438,0.03320312,-0.005859375,0,0,0,-0.04052734,-0.001098633,0.1239014,0,0,0.001586914,0,3.946,0,0,0,0,nan,2,7.009,1,0,0.1000061,0.1000061,0.1000061,0.1000061,0,0,0,1,2,0
187.067,0.001013,-0.02539062,-0.009765625,0.02929688,0.09375,-0.4765625,15.30469,-0.02734375,-0.005859375,0.03320312,0,0,0,-0.04077148,-0.001098633,0.1241455,0,0,0.001586914,0,3.946,0,0,0,0,nan,2,7.019,1,0,0.1000061,0.1000061,0.1000061,0.1000061,0,0,0,1,2,0
187.077,0.001021,0.0625,-0.02734375,-0.00390625,0.7265625,0.5625,18.39844,0.015625,-0.02148438,0.005859375,0,0,0,-0.04077148,-0.001220703,0.1242676,0,0,0.001586914,0,3.946,0,0,0,0,nan,2,7.03,1,0,0.1000061,0.1000061,0.1000061,0.1000061,0,0,0,1,2,0
187.087,0.001017,0.01171875,0.00390625,0.01171875,-0.4921875,0.734375,10.49219,0.0234375,-0.00390625,0.009765625,0,0,0,-0.04052734,-0.001342773,0.1243896,0,0,0.001586914,0,3.946,0,0,0,0,nan,2,7.04,1,0,0.1000061,0.1000061,0.1000061,0.1000061,0,0,0,1,2,0
187.097,0.00101,0.04492188,0.00390625,0.02148438,-1.53125,2.15625,14.64062,0.0234375,0.001953125,0.01757812,0,0,0,-0.0402832,-0.001342773,0.1245117,0,0,0.001586914,0,3.946,0,0,0,0,nan,2,7.05,1,0,0.1000061,0.1000061,0.1000061,0.1000061,0,0,0,1,2,0
187.107,0.001013,0.01367188,-0.02148438,0.05078125,0.171875,2.6875,14.32031,0.0234375,-0.009765625,0.03710938,0,0,0,-0.04016113,-0.001342773,0.1247559,0,0,0.001586914,0,3.946,0,0,0,0,nan,2,7.06,1,0,0.1000061,0.1000061,0.1000061,0.1000061,0,0,0,1,2,0
187.117,0.001012,0.015625,0.01367188,-0.001953125,2.609375,5.84375,12.47656,0.0390625,-0.001953125,0.01367188,0,0,0,-0.03979492,-0.001342773,0.1251221,0,0,0.001586914,0,3.946,0,0,0,0,nan,2,7.07,1,0,0.1000061,0.1000061,0.1000061,0.1000061,0,0,0,1,2,0
187.127,0.001016,0.04101562,-0.005859375,0.03125,-2.734375,-0.078125,14.4375,0.02148438,-0.001953125,0.015625,0,0,0,-0.03955078,-0.001342773,0.1251221,0,0,0.001586914,0,3.946,0,0,0,0,nan,2,7.08,1,0,0.1000061,0.1000061,0.1000061,0.1000061,0,0,0,1,2,0
187.137,0.001012,-0.009765625,0.04296875,-0.02539062,0.03125,4.039062,7.703125,0.01367188,0.01757812,0,0,0,0,-0.03930664,-0.001464844,0.1252441,0,0,0.001586914,0,3.946,0,0,0,0,nan,2,7.09,1,0,0.1000061,0.1000061,0.1000061,0.1000061,0,0,0,1,2,0
187.146,0.001005,0.005859375,-0.02539062,0.015625,-0.4921875,-2.945312,3.523438,0.00390625,-0.00390625,0.001953125,0,0,0,-0.03918457,-0.001342773,0.1252441,0,0,0.001586914,0,3.946,0,0,0,0,nan,2,7.099,1,0,0.1000061,0.1000061,0.1000061,0.1000061,0,0,0,1,2,0
187.157,0.001012,-0.01367188,0.009765625,0.015625,-0.421875,-3.4375,9.0625,0.01171875,0.0078125,0.01757812,0,0,0,-0.0390625,-0.001342773,0.1253662,0,0,0.001586914,0,3.946,0,0,0,0,nan,2,7.109,1,0,0.1000061,0.1000061,0.1000061,0.1000061,0,0,0,1,2,0.6507937
187.167,0.001014,0.00390625,0.03125,0.015625,-0.03125,0.9921875,4.445312,0.001953125,0.02148438,0.01757812,0,0,0,-0.0390625,-0.001220703,0.1254883,0,0,0.001586914,0,3.946,0,0,0,0,nan,2,7.119,1,0,0.1000061,0.1000061,0.1000061,0.1000061,0,0,0,1,2,0
187.177,0.001013,0.0390625,0.0390625,0.005859375,-1.257812,0.859375,7.828125,-0.00390625,0.01757812,0.01757812,0,0,0,-0.03918457,-0.001098633,0.1257324,0,0,0.001586914,0,3.946,0,0,0,0,nan,2,7.13,1,0,0.1000061,0.1000061,0.1000061,0.1000061,0,0,0,1,2,0
187.187,0.001025,-0.03515625,-0.01757812,-0.001953125,-0.2890625,0.7109375,8.34375,0.01953125,0.015625,-0.001953125,0,0,0,-0.0390625,-0.0008544922,0.1258545,0,0,0.001586914,0,3.946,0,0,0,0,nan,2,7.14,1,0,0.1000061,0.1000061,0.1000061,0.1000061,0,0,0,1,2,0
187.197,0.001011,0.02539062,0.009765625,-0.01367188,3.71875,4.085938,5.695312,0.03710938,0.009765625,-0.00390625,0,0,0,-0.03869629,-0.0007324219,0.1258545,0,0,0.001586914,0,3.946,0,0,0,0,nan,2,7.15,1,0,0.1000061,0.1000061,0.1000061,0.1000061,0,0,0,1,2,0
187.207,0.001012,0.02148438,0.02148438,-0.015625,-1.898438,-1.554688,9.0625,0.009765625,0.015625,-0.015625,0,0,0,-0.03857422,-0.0006103516,0.1256104,0,0,0.001586914,0,3.946,0,0,0,0,nan,2,7.16,1,0,0.1000061,0.1000061,0.1000061,0.1000061,0,0,0,1,2,0.1269841
187.217,0.001012,-0.03515625,0.05273438,-0.015625,-0.4140625,0.8359375,4.8125,-0.00390625,0.01953125,-0.009765625,0,0,0,-0.03845215,-0.0006103516,0.1254883,0,0,0.001586914,0,3.946,0,0,0,0,nan,2,7.17,1,0,0.1000061,0.1000061,0.1000061,0.1000061,0,0,0,1,2,0
187.227,0.001014,-0.0078125,0.02539062,-0.00390625,0.90625,3.734375,6.78125,-0.015625,0.01757812,-0.009765625,0,0,0,-0.03869629,-0.0003662109,0.1253662,0,0,0.001586914,0,3.946,0,0,0,0,nan,2,7.18,1,0,0.1000061,0.1000061,0.1000061,0.1000061,0,0,0,1,2,0
187.237,0.001012,-0.00390625,0.015625,-0.0078125,1.59375,0.5546875,12.07812,-0.009765625,0.01367188,-0.009765625,0,0,0,-0.03881836,-0.0002441406,0.1253662,0,0,0.001586914,0,3.946,0,0,0,0,nan,2,7.19,1,0,0.1000061,0.1000061,0.1000061,0.1000061,0,0,0,1,2,0
187.246,0.001006,0.0390625,0.04882812,0.009765625,0.96875,-2.375,14.60938,0.009765625,0.02539062,0.005859375,0,0,0,-0.03881836,-0.0001220703,0.1252441,0,0,0.001586914,0,3.946,0,0,0,0,nan,2,7.199,1,0,0.1000061,0.1000061,0.1000061,0.1000061,0,0,0,1,2,0
187.257,0.001014,-0.015625,0.001953125,-0.0078125,0.078125,-2.148438,5.171875,0,0.01171875,0,0,0,0,-0.03881836,0,0.1253662,0,0,0.001586914,0,3.946,0,0,0,0,nan,2,7.209,1,0,0.1000061,0.1000061,0.1000061,0.1000061,0,0,0,1,2,0
187.267,0.001015,0.02539062,0.01171875,-0.005859375,-0.15625,1.851562,8.546875,0.001953125,0.009765625,-0.00390625,0,0,0,-0.03881836,0.0002441406,0.1253662,0,0,0.001586914,0,3.946,0,0,0,0,nan,2,7.219,1,0,0.1000061,0.1000061,0.1000061,0.1000061,0,0,0,1,2,0
187.277,0.001014,-0.001953125,0.0078125,-0.001953125,3.226562,3.460938,6.625,0.02734375,0.009765625,-0.00390625,0,0,0,-0.03857422,0.0003662109,0.1252441,0,0,0.001586914,0,3.946,0,0,0,0,nan,2,7.23,1,0,0.1000061,0.1000061,0.1000061,0.1000061,0,0,0,1,2,0
187.287,0.001015,-0.02539062,-0.01953125,0.02734375,-1.171875,0.5078125,11.30469,0.0078125,-0.001953125,0.01367188,0,0,0,-0.03833008,0.0003662109,0.1252441,0,0,0.001586914,0,3.946,0,0,0,0,nan,2,7.24,1,0,0.1000061,0.1000061,0.1000061,0.1000061,0,0,0,1,2,0
187.297,0.001015,-0.01367188,0,-0.015625,-0.796875,-0.140625,4.820312,0,-0.01367188,0,0,0,0,-0.03820801,0.0001220703,0.1253662,0,0,0.001586914,0,3.946,0,0,0,0,nan,2,7.25,1,0,0.1000061,0.1000061,0.1000061,0.1000061,0,0,0,1,2,0
187.307,0.001013,0.05664062,-0.0078125,0.005859375,1.023438,4.75,7.125,0.03320312,-0.02148438,0.001953125,0,0,0,-0.03808594,0,0.1253662,0,0,0.001586914,0,3.946,0,0,0,0,nan,2,7.26,1,0,0.1000061,0.1000061,0.1000061,0.1000061,0,0,0,1,2,0
187.317,0.001015,0.00390625,0.00390625,-0.01171875,0.578125,-0.4140625,13.40625,0.03125,-0.00390625,-0.01367188,0,0,0,-0.03771973,-0.0001220703,0.1253662,0,0,0.001586914,0,3.946,0,0,0,0,nan,2,7.27,1,0,0.1000061,0.1000061,0.1000061,0.1000061,0,0,0,1,2,0
187.327,0.001013,0.0390625,-0.05859375,0.01171875,1.390625,2.75,4.921875,0.015625,-0.03515625,0.005859375,0,0,0,-0.03747559,-0.0003662109,0.1253662,0,0,0.001586914,0,3.946,0,0,0,0,nan,2,7.28,1,0,0.1000061,0.1000061,0.1000061,0.1000061,0,0,0,1,2,0
187.337,0.001013,0.05078125,0.03125,0.01171875,-2.03125,-1.195312,7.359375,0.01367188,-0.0234375,0.01171875,0,0,0,-0.03723145,-0.0006103516,0.1253662,0,0,0.001586914,0,3.946,0,0,0,0,nan,2,7.29,1,0,0.1000061,0.1000061,0.1000061,0.1000061,0,0,0,1,2,0
187.346,0.001008,0.0234375,0.015625,0.01367188,-1.851562,-5.234375,10.61719,0.00390625,-0.01171875,0.015625,0,0,0,-0.03723145,-0.0008544922,0.1256104,0,0,0.001586914,0,3.946,0,0,0,0,nan,2,7.299,1,0,0.1000061,0.1000061,0.1000061,0.1000061,0,0,0,1,2,0
187.357,0.001012,0.05078125,-0.009765625,0.005859375,-1.523438,-3.507812,8.015625,0.03515625,-0.01171875,0.009765625,0,0,0,-0.03710938,-0.0008544922,0.1257324,0,0,0.001586914,0,3.946,0,0,0,0,nan,2,7.309,1,0,0.1000061,0.1000061,0.1000061,0.1000061,0,0,0,1,2,0
187.367,0.001012,0.01953125,-0.001953125,0.03515625,-0.203125,0,10.14844,0.01953125,-0.009765625,0.02539062,0,0,0,-0.03686523,-0.001098633,0.1258545,0,0,0.001586914,0,3.946,0,0,0,0,nan,2,7.319,1,0,0.1000061,0.1000061,0.1000061,0.1000061,0,0,0,1,2,0.2539683
187.377,0.001016,-0.01953125,-0.00390625,-0.01171875,-1.164062,-1.96875,2.734375,0.02929688,-0.00390625,0.00390625,0,0,0,-0.03662109,-0.001220703,0.1260986,0,0,0.001586914,0,3.946,0,0,0,0,nan,2,7.33,1,0,0.1000061,0.1000061,0.1000061,0.1000061,0,0,0,1,2,0
187.387,0.001021,0.046875,-0.01367188,0.03125,0.7578125,3.234375,7.039062,0.015625,0,0.0234375,0,0,0,-0.03649902,-0.001220703,0.1262207,0,0,0.001586914,0,3.946,0,0,0,0,nan,2,7.34,1,0,0.1000061,0.1000061,0.1000061,0.1000061,0,0,0,1,2,0
187.397,0.001016,0.00390625,0.03320312,-0.01757812,0.828125,-1.007812,8.617188,0.01953125,0.015625,-0.009765625,0,0,0,-0.03625488,-0.001220703,0.1262207,0,0,0.001586914,0,3.946,0,0,0,0,nan,2,7.35,1,0,0.1000061,0.1000061,0.1000061,0.1000061,0,0,0,1,2,0
187.407,0.001055,0.02148438,0.01757812,0.01171875,1.59375,2.101562,2.351562,0.015625,0.0078125,0.01171875,0,0,0,-0.03613281,-0.001220703,0.1262207,0,0,0.001586914,0,3.946,0,0,0,0,nan,2,7.36,1,0,0.1000061,0.1000061,0.1000061,0.1000061,0,0,0,1,2,0
187.417,0.001018,-0.0546875,-0.015625,-0.009765625,-2.492188,-5.734375,6.15625,0,-0.001953125,-0.001953125,0,0,0,-0.03588867,-0.001220703,0.1263428,0,0,0.001586914,0,3.946,0,0,0,0,nan,2,7.37,1,0,0.1000061,0.1000061,0.1000061,0.1000061,0,0,0,1,2,0
187.427,0.001017,0.001953125,0.01171875,-0.001953125,0.4296875,-1.671875,4.796875,-0.00390625,0.001953125,0.00390625,0,0,0,-0.03588867,-0.001098633,0.1263428,0,0,0.001586914,0,3.946,0,0,0,0,nan,2,7.38,1,0,0.1000061,0.1000061,0.1000061,0.1000061,0,0,0,1,2,0
187.437,0.001018,-0.05078125,0.015625,-0.001953125,1.851562,-1.742188,5.148438,-0.01953125,0.01757812,-0.001953125,0,0,0,-0.0357666,-0.0009765625,0.1263428,0,0,0.001586914,0,3.946,0,0,0,0,nan,2,7.39,1,0,0.1000061,0.1000061,0.1000061,0.1000061,0,0,0,1,2,0
187.446,0.001003,-0.06640625,0.00390625,0.0078125,0.7109375,3.539062,15.25,-0.02929688,0.00390625,0,0,0,0,-0.03588867,-0.0008544922,0.1262207,0,0,0.001586914,0,3.946,0,0,0,0,nan,2,7.399,1,0,0.1000061,0.1000061,0.1000061,0.1000061,0,0,0,1,2,0
187.457,0.001008,-0.05273438,-0.03710938,0.00390625,0.4296875,2.609375,17.21875,-0.0390625,0,0.009765625,0,0,0,-0.03625488,-0.0007324219,0.1263428,0,0,0.001586914,0,3.946,0,0,0,0,nan,2,7.409,1,0,0.1000061,0.1000061,0.1000061,0.1000061,0,0,0,1,2,0
187.467,0.001009,-0.1015625,-0.03320312,0,-1.671875,-2.15625,9.6875,-0.046875,-0.00390625,-0.005859375,0,0,0,-0.03649902,-0.0007324219,0.1263428,0,0,0.001586914,0,3.944,0,0,0,0,nan,2,7.419,1,0,0.1000061,0.1000061,0.1000061,0.1000061,0,0,0,1,2,0.4603175
187.477,0.001015,-0.03515625,0,-0.01757812,-0.3046875,-1.734375,14.29688,-0.03515625,0.00390625,-0.005859375,0,0,0,-0.03686523,-0.0007324219,0.1262207,0,0,0.001586914,0,3.944,0,0,0,0,nan,2,7.43,1,0,0.1000061,0.1000061,0.1000061,0.1000061,0,0,0,1,2,0
187.487,0.001005,0.0078125,0.01171875,-0.02929688,2.1875,1.851562,13.14844,-0.0390625,0,-0.02734375,0,0,0,-0.03723145,-0.0006103516,0.1260986,0,0,0.001586914,0,3.944,0,0,0,0,nan,2,7.44,1,0,0.1000061,0.1000061,0.1000061,0.1000061,0,0,0,1,2,0
187.497,0.00101,-0.02734375,0.0078125,-0.001953125,-3.179688,-2.65625,16.39062,-0.02734375,0.01171875,-0.005859375,0,0,0,-0.03759766,-0.0004882812,0.1259766,0,0,0.001586914,0,3.944,0,0,0,0,nan,2,7.45,1,0,0.1000061,0.1000061,0.1000061,0.1000061,0,0,0,1,2,0
187.507,0.001008,0.015625,0.02539062,-0.01757812,-0.1015625,4.335938,10.92188,-0.0078125,0.0078125,-0.01953125,0,0,0,-0.03771973,-0.0004882812,0.1257324,0,0,0.001586914,0,3.944,0,0,0,0,nan,2,7.46,1,0,0.1000061,0.1000061,0.1000061,0.1000061,0,0,0,1,2,0
187.517,0.001015,-0.01757812,-0.03320312,0,0.171875,5.234375,13.57031,-0.00390625,-0.015625,-0.001953125,0,0,0,-0.03796387,-0.0004882812,0.1257324,0,0,0.001586914,0,3.944,0,0,0,0,nan,2,7.47,1,0,0.1000061,0.1000061,0.1000061,0.1000061,0,0,0,1,2,0
187.527,0.00101,0.05664062,0.02148438,0,0.6796875,2.65625,13.72656,0.015625,-0.005859375,-0.00390625,0,0,0,-0.0378418,-0.0006103516,0.1256104,0,0,0.001586914,0,3.944,0,0,0,0,nan,2,7.48,1,0,0.1000061,0.1000061,0.1000061,0.1000061,0,0,0,1,2,0
187.537,0.001015,0.08984375,-0.03710938,0.005859375,-0.0703125,2.265625,2.664062,0.02539062,-0.02148438,0.0078125,0,0,0,-0.03771973,-0.0007324219,0.1257324,0,0,0.001586914,0,3.944,0,0,0,0,nan,2,7.49,1,0,0.1000061,0.1000061,0.1000061,0.1000061,0,0,0,1,2,0
187.546,0.00101,0.02539062,0.03320312,-0.01171875,-0.375,-3.195312,7.140625,0.01953125,0.005859375,0,0,0,0,-0.03747559,-0.0007324219,0.1257324,0,0,0.001586914,0,3.944,0,0,0,0,nan,2,7.499,1,0,0.1000061,0.1000061,0.1000061,0.1000061,0,0,0,1,2,0
187.557,0.001012,0.01953125,0.005859375,-0.01367188,-2.570312,-2.429688,14.71094,0.015625,0.01757812,-0.015625,0,0,0,-0.03747559,-0.0006103516,0.1256104,0,0,0.001586914,0,3.944,0,0,0,0,nan,2,7.509,1,0,0.1000061,0.1000061,0.1000061,0.1000061,0,0,0,1,2,0
187.567,0.001017,-0.05664062,0.001953125,0.015625,2.648438,-1.5625,4.140625,-0.01953125,0.015625,0.00390625,0,0,0,-0.03747559,-0.0004882812,0.1256104,0,0,0.001586914,0,3.944,0,0,0,0,nan,2,7.519,1,0,0.1000061,0.1000061,0.1000061,0.1000061,0,0,0,1,2,0
187.577,0.001012,-0.015625,-0.01367188,0.001953125,-1.273438,-5.757812,9.359375,-0.0234375,-0.0078125,0.00390625,0,0,0,-0.03771973,-0.0004882812,0.1256104,0,0,0.001586914,0,3.944,0,0,0,0,nan,2,7.53,1,0,0.1000061,0.1000061,0.1000061,0.1000061,0,0,0,1,2,0
187.587,0.001018,0.04492188,-0.03320312,0.02929688,-0.046875,-4.335938,3.625,0.01367188,-0.01757812,0.03320312,0,0,0,-0.03771973,-0.0004882812,0.1258545,0,0,0.001586914,0,3.944,0,0,0,0,nan,2,7.54,1,0,0.1000061,0.1000061,0.1000061,0.1000061,0,0,0,1,2,0
187.597,0.00101,-0.015625,0.03125,-0.015625,-0.046875,-2.226562,10.34375,-0.005859375,0.01953125,-0.00390625,0,0,0,-0.03759766,-0.0004882812,0.1259766,0,0,0.001586914,0,3.944,0,0,0,0,nan,2,7.55,1,0,0.1000061,0.1000061,0.1000061,0.1000061,0,0,0,1,2,0
187.607,0.001017,0.04101562,-0.00390625,0.015625,-0.078125,-3.515625,15.20312,0.01953125,-0.00390625,0.01367188,0,0,0,-0.03771973,-0.0004882812,0.1259766,0,0,0.001586914,0,3.944,0,0,0,0,nan,2,7.56,1,0,0.1000061,0.1000061,0.1000061,0.1000061,0,0,0,1,2,0
187.617,0.001012,-0.08007812,-0.02148438,0,1.140625,-0.8125,12.03906,-0.005859375,0.009765625,-0.0078125,0,0,0,-0.03759766,-0.0004882812,0.1259766,0,0,0.001586914,0,3.944,0,0,0,0,nan,2,7.57,1,0,0.1000061,0.1000061,0.1000061,0.1000061,0,0,0,1,2,0
187.627,0.00102,0.04101562,0.001953125,0.046875,-3.09375,-4.21875,14.82031,-0.00390625,-0.015625,0.02929688,0,0,0,-0.03771973,-0.0004882812,0.1260986,0,0,0.001586914,0,3.944,0,0,0,0,nan,2,7.58,1,0,0.1000061,0.1000061,0.1000061,0.1000061,0,0,0,1,2,0
187.637,0.001012,-0.01171875,0.03125,0.01953125,0.7578125,3.46875,14.82812,0.0078125,0.02148438,0.01953125,0,0,0,-0.03759766,-0.0004882812,0.1263428,0,0,0.001586914,0,3.944,0,0,0,0,nan,2,7.59,1,0,0.1000061,0.1000061,0.1000061,0.1000061,0,0,0,1,2,0
187.646,0.001,-0.03125,-0.0546875,0.03515625,0.03125,-1.59375,2.578125,-0.01367188,-0.02148438,0.02929688,0,0,0,-0.03771973,-0.0004882812,0.1265869,0,0,0.001586914,0,3.944,0,0,0,0,nan,2,7.599,1,0,0.1000061,0.1000061,0.1000061,0.1000061,0,0,0,1,2,0
187.657,0.001012,-0.06835938,0.0078125,0.06445312,1.726562,-2.515625,6.234375,-0.01171875,0.005859375,0.05078125,0,0,0,-0.03771973,-0.0004882812,0.1269531,0,0,0.001586914,0,3.944,0,0,0,0,nan,2,7.609,1,0,0.1000061,0.1000061,0.1000061,0.1000061,0,0,0,1,2,0
187.667,0.001009,0.02734375,0.02148438,0.0546875,-0.9296875,2.015625,5.078125,0.015625,-0.00390625,0.0625,0,0,0,-0.03771973,-0.0006103516,0.1276855,0,0,0.001586914,0,3.944,0,0,0,0,nan,2,7.619,1,0,0.1000061,0.1000061,0.1000061,0.1000061,0,0,0,1,2,0
187.677,0.001012,0.005859375,-0.02539062,0.04492188,-0.015625,1.4375,7.523438,0.009765625,-0.01757812,0.06054688,0,0,0,-0.03771973,-0.0006103516,0.1282959,0,0,0.001586914,0,3.944,0,0,0,0,nan,2,7.63,1,0,0.1000061,0.1000061,0.1000061,0.1000061,0,0,0,1,2,0
187.687,0.001007,-0.02734375,-0.0078125,0.005859375,0.0625,0.921875,7.710938,-0.01757812,0.0078125,0.0078125,0,0,0,-0.03771973,-0.0007324219,0.12854,0,0,0.001586914,0,3.944,0,0,0,0,nan,2,7.64,1,0,0.1000061,0.1000061,0.1000061,0.1000061,0,0,0,1,2,0
187.697,0.001021,-0.01171875,-0.02148438,0.07226562,2.84375,2.328125,3.367188,-0.005859375,-0.01757812,0.05859375,0,0,0,-0.03771973,-0.0007324219,0.1289062,0,0,0.001586914,0,3.944,0,0,0,0,nan,2,7.65,1,0,0.1000061,0.1000061,0.1000061,0.1000061,0,0,0,1,2,0
187.707,0.001009,0.03320312,0.05664062,0.0390625,-2.304688,-4.273438,8.304688,0.01757812,0.02148438,0.03710938,0,0,0,-0.0378418,-0.0007324219,0.1293945,0,0,0.001586914,0,3.944,0,0,0,0,nan,2,7.66,1,0,0.1000061,0.1000061,0.1000061,0.1000061,0,0,0,1,2,0.5555556
187.717,0.001013,-0.05078125,-0.05273438,0.03515625,0.3515625,-2.773438,3.132812,-0.0078125,-0.009765625,0.0546875,0,0,0,-0.0378418,-0.0007324219,0.1298828,0,0,0.001586914,0,3.944,0,0,0,0,nan,2,7.67,1,0,0.1000061,0.1000061,0.1000061,0.1000061,0,0,0,1,2,0
187.727,0.001008,-0.0078125,-0.00390625,0.0703125,0.484375,-0.4140625,5.539062,-0.01367188,0.009765625,0.04296875,0,0,0,-0.03796387,-0.0007324219,0.130249,0,0,0.001586914,0,3.944,0,0,0,0,nan,2,7.68,1,0,0.1000061,0.1000061,0.1000061,0.1000061,0,0,0,1,2,0
187.737,0.001013,0.001953125,0.0390625,0.09960938,1.984375,-4.171875,7.71875,-0.005859375,-0.009765625,0.1035156,0,0,0,-0.03796387,-0.0008544922,0.1311035,0,0,0.001586914,0,3.944,0,0,0,0,nan,2,7.69,1,0,0.1000061,0.1000061,0.1000061,0.1000061,0,0,0,1,2,0
187.746,0.001011,0.00390625,0.005859375,0.07617188,0.65625,2.351562,20.21875,0.009765625,-0.02148438,0.08398438,0,0,0,-0.0378418,-0.0008544922,0.131958,0,0,0.001586914,0,3.944,0,0,0,0,nan,2,7.699,1,0,0.1000061,0.1000061,0.1000061,0.1000061,0,0,0,1,2,0
187.757,0.001014,-0.009765625,-0.02148438,0.0703125,1.179688,1.984375,13.53125,0.01171875,-0.01171875,0.08007812,0,0,0,-0.03796387,-0.0009765625,0.1328125,0,0,0.001586914,0,3.944,0,0,0,0,nan,2,7.709,1,0,0.1000061,0.1000061,0.1000061,0.1000061,0,0,0,1,2,0
187.767,0.00102,0.05273438,0.009765625,0.07617188,0.2734375,-3.59375,7.640625,-0.001953125,0.001953125,0.06835938,0,0,0,-0.0378418,-0.0009765625,0.1334229,0,0,0.001586914,0,3.944,0,0,0,0,nan,2,7.719,1,0,0.1000061,0.1000061,0.1000061,0.1000061,0,0,0,1,2,0
187.777,0.001014,0.01367188,-0.01757812,0.09375,2.328125,-0.6796875,6.921875,0.005859375,0.009765625,0.08398438,0,0,0,-0.03796387,-0.0009765625,0.1342773,0,0,0.001586914,0,3.944,0,0,0,0,nan,2,7.73,1,0,0.1000061,0.1000061,0.1000061,0.1000061,0,0,0,1,2,0
187.787,0.001017,-0.046875,-0.01953125,0.1054688,-0.4296875,-4.453125,12.32031,-0.015625,-0.03710938,0.1015625,0,0,0,-0.03808594,-0.001220703,0.1352539,0,0,0.001586914,0,3.944,0,0,0,0,nan,2,7.74,1,0,0.1000061,0.1000061,0.1000061,0.1000061,0,0,0,1,2,0
187.797,0.001021,-0.06054688,-0.09960938,0.1484375,-1.703125,-5.085938,5.304688,-0.02539062,-0.03710938,0.1445312,0,0,0,-0.03833008,-0.001342773,0.1365967,0,0,0.001586914,0,3.944,0,0,0,0,nan,2,7.75,1,0,0.1000061,0.1000061,0.1000061,0.1000061,0,0,0,1,2,0
187.807,0.001023,-0.046875,0.00390625,0.1308594,-1.273438,-1.140625,9.070312,-0.05273438,-0.03710938,0.1171875,0,0,0,-0.03869629,-0.001708984,0.1379395,0,0,0.001586914,0,3.944,0,0,0,0,nan,2,7.76,1,0,0.1000061,0.1000061,0.1000061,0.1000061,0,0,0,1,2,0
187.817,0.001013,-0.07421875,-0.1132812,0.1699219,-0.5546875,-3.0625,15.02344,-0.03710938,-0.06054688,0.1679688,0,0,0,-0.0390625,-0.002075195,0.1394043,0,0,0.001586914,0,3.944,0,0,0,0,nan,2,7.77,1,0,0.1000061,0.1000061,0.1000061,0.1000061,0,0,0,1,2,0
187.827,0.001018,-0.0703125,-0.07421875,0.2070312,2.296875,2.117188,10.71094,-0.08789062,-0.08203125,0.1777344,0,0,0,-0.03991699,-0.002929688,0.1411133,0,0,0.001586914,0,3.944,0,0,0,0,nan,2,7.78,1,0,0.1000061,0.1000061,0.1000061,0.1000061,0,0,0,1,2,0
187.837,0.001014,-0.1621094,-0.1328125,0.2207031,-1.125,-5.539062,14.89062,-0.08203125,-0.1035156,0.2265625,0,0,0,-0.04052734,-0.003662109,0.1433105,0,0,0.001586914,0,3.944,0,0,0,0,nan,2,7.79,1,0,0.1000061,0.1000061,0.1000061,0.1000061,0,0,0,1,2,0
187.846,0.001003,-0.015625,0.009765625,0.02734375,2.148438,-3.515625,8.59375,-0.01171875,-0.01171875,0.09375,0,0,0,-0.04077148,-0.00402832,0.1447754,0,0,0.001586914,0,3.944,0,0,0,0,nan,2,7.799,1,0,0.1000061,0.1000061,0.1000061,0.1000061,0,0,0,1,2,0.1904762
187.857,0.001015,-0.03125,0.0546875,-0.00390625,-1.460938,1.203125,6.453125,-0.01953125,0.03320312,-0.015625,0,0,0,-0.04089355,-0.00402832,0.1448975,0,0,0.001586914,0,3.944,0,0,0,0,nan,2,7.809,1,0,0.1000061,0.1000061,0.1000061,0.1000061,0,0,0,1,2,0
187.867,0.00101,-0.08007812,-0.06054688,0.1386719,-0.6015625,3.125,18.48438,-0.02539062,-0.04296875,0.1054688,0,0,0,-0.04101562,-0.00402832,0.1453857,0,0,0.001586914,0,3.944,0,0,0,0,nan,2,7.819,1,0,0.1000061,0.1000061,0.1000061,0.1000061,0,0,0,1,2,0
187.877,0.001018,0.01757812,0.0234375,0.03515625,2.039062,2.382812,10.42969,0.02148438,0.02734375,0.06445312,0,0,0,-0.04101562,-0.00402832,0.1463623,0,0,0.001586914,0,3.944,0,0,0,0,nan,2,7.83,1,0,0.1000061,0.1000061,0.1000061,0.1000061,0,0,0,1,2,0
187.887,0.001014,0.04882812,-0.01367188,0.01757812,-3.390625,1.4375,11.67188,0.015625,0,0.0234375,0,0,0,-0.04089355,-0.00390625,0.1468506,0,0,0.001586914,0,3.944,0,0,0,0,nan,2,7.84,1,0,0.1000061,0.1000061,0.1000061,0.1000061,0,0,0,1,2,0
187.897,0.001013,-0.04882812,0.03320312,0.0546875,0.1875,2.226562,9.539062,0.001953125,0.0078125,0.04296875,0,0,0,-0.04064941,-0.00390625,0.1470947,0,0,0.001586914,0,3.944,0,0,0,0,nan,2,7.85,1,0,0.1000061,0.1000061,0.1000061,0.1000061,0,0,0,1,2,0.9047619
187.907,0.001007,0.04882812,0.015625,-0.01757812,2.992188,4.367188,7.101562,-0.001953125,0.00390625,0.02148438,0,0,0,-0.04089355,-0.00390625,0.147583,0,0,0.001586914,0,3.944,0,0,0,0,nan,2,7.86,1,0,0.1000061,0.1000061,0.1000061,0.1000061,0,0,0,1,2,0
187.917,0.001015,0.009765625,-0.015625,-0.0234375,-0.265625,-0.6015625,10.32812,-0.001953125,0.001953125,-0.02929688,0,0,0,-0.04077148,-0.00378418,0.1473389,0,0,0.001586914,0,3.944,0,0,0,0,nan,2,7.87,1,0,0.1000061,0.1000061,0.1000061,0.1000061,0,0,0,1,2,0
187.927,0.00101,-0.01171875,0.03320312,0.0078125,0.1171875,-2.890625,0.3046875,-0.009765625,0.00390625,0.009765625,0,0,0,-0.04089355,-0.00378418,0.1473389,0,0,0.001586914,0,3.944,0,0,0,0,nan,2,7.88,1,0,0.1000061,0.1000061,0.1000061,0.1000061,0,0,0,1,2,0
187.937,0.001015,-0.01171875,0.04296875,-0.02539062,0.078125,-2.1875,5.476562,-0.01757812,0.02929688,-0.01367188,0,0,0,-0.0411377,-0.003662109,0.1473389,0,0,0.001586914,0,3.944,0,0,0,0,nan,2,7.89,1,0,0.1000061,0.1000061,0.1000061,0.1000061,0,0,0,1,2,0
187.946,0.00101,-0.0078125,0.001953125,-0.015625,-3.078125,-0.9296875,13.86719,-0.01367188,0.02929688,-0.01757812,0,0,0,-0.04125977,-0.003295898,0.1472168,0,0,0.001586914,0,3.944,0,0,0,0,nan,2,7.899,1,0,0.1000061,0.1000061,0.1000061,0.1000061,0,0,0,1,2,0
187.956,0.001012,0.02148438,0.02148438,0.01953125,1.328125,4.554688,12.61719,-0.0078125,0.0078125,0.005859375,0,0,0,-0.04150391,-0.003173828,0.1470947,0,0,0.001586914,0,3.944,0,0,0,0,nan,2,7.909,1,0,0.1000061,0.1000061,0.1000061,0.1000061,0,0,0,1,2,0
187.967,0.00101,0.05078125,0.0078125,-0.001953125,-2.789062,-7.320312,12.71875,0.04101562,0.009765625,0.0078125,0,0,0,-0.04125977,-0.003051758,0.1472168,0,0,0.001586914,0,3.944,0,0,0,0,nan,2,7.919,1,0,0.1000061,0.1000061,0.1000061,0.1000061,0,0,0,1,2,0
187.977,0.00101,0.001953125,0.01757812,0.015625,-0.65625,1.773438,8.046875,0.001953125,0,0.005859375,0,0,0,-0.04101562,-0.003051758,0.1472168,0,0,0.001586914,0,3.944,0,0,0,0,nan,2,7.929,1,0,0.1000061,0.1000061,0.1000061,0.1000061,0,0,0,1,2,0
187.987,0.001008,-0.09375,0.015625,-0.00390625,-0.7578125,-0.7109375,16.875,-0.05273438,0.01953125,-0.001953125,0,0,0,-0.04138184,-0.002929688,0.1473389,0,0,0.001586914,0,3.944,0,0,0,0,nan,2,7.94,1,0,0.1000061,0.1000061,0.1000061,0.1000061,0,0,0,1,2,0
187.997,0.001014,0.05664062,-0.01757812,0.02148438,0.5859375,4.648438,15.17969,0.00390625,-0.01757812,0.005859375,0,0,0,-0.04174805,-0.003051758,0.1473389,0,0,0.001586914,0,3.944,0,0,0,0,nan,2,7.95,1,0,0.1000061,0.1000061,0.1000061,0.1000061,0,0,0,1,2,0
188.007,0.001014,0.05859375,0.0078125,-0.01171875,-1.46875,1.859375,11.16406,0.0703125,0.0078125,0.005859375,0,0,0,-0.04125977,-0.003051758,0.1473389,0,0,0.001586914,0,3.944,0,0,0,0,nan,2,7.96,1,0,0.1000061,0.1000061,0.1000061,0.1000061,0,0,0,1,2,0
188.017,0.001014,-0.07226562,0.015625,-0.01953125,-1.867188,0.8046875,11.40625,-0.03125,0.01367188,-0.015625,0,0,0,-0.04101562,-0.002929688,0.1473389,0,0,0.001586914,0,3.944,0,0,0,0,nan,2,7.97,1,0,0.1000061,0.1000061,0.1000061,0.1000061,0,0,0,1,2,0
188.027,0.001016,-0.04492188,-0.015625,-0.0078125,2.1875,4.101562,4.179688,-0.0625,-0.001953125,-0.0078125,0,0,0,-0.04162598,-0.002807617,0.1472168,0,0,0.001586914,0,3.944,0,0,0,0,nan,2,7.98,1,0,0.1000061,0.1000061,0.1000061,0.1000061,0,0,0,1,2,0
188.037,0.001014,0.04882812,-0.005859375,0.02929688,1.304688,-0.0078125,9.125,0.009765625,-0.01953125,0.01367188,0,0,0,-0.04199219,-0.003051758,0.1472168,0,0,0.001586914,0,3.944,0,0,0,0,nan,2,7.99,1,0,0.1000061,0.1000061,0.1000061,0.1000061,0,0,0,1,2,0
188.047,0.001015,0.01953125,0.0234375,-0.005859375,0.3359375,-3.382812,4.695312,0.04882812,0.0234375,0.009765625,0,0,0,-0.04150391,-0.002929688,0.1473389,0,0,0.001586914,0,3.944,0,0,0,0,nan,2,8,1,0,0.1000061,0.1000061,0.1000061,0.1000061,0,0,0,1,2,0
188.056,0.001012,-0.01171875,-0.005859375,-0.01367188,-0.734375,0.4921875,12.82031,-0.005859375,0.0078125,-0.0078125,0,0,0,-0.04138184,-0.002807617,0.1473389,0,0,0.1473389,0.0004577637,3.944,0,0,0,0,nan,4,8.009,1,0,0.1000061,0.1000061,0.1000061,0.1000061,0,0,0,1,6,0
188.067,0.001009,-0.01953125,-0.02539062,-0.01953125,-0.390625,-3.335938,9.210938,-0.01367188,-0.015625,-0.01367188,0,0,0,-0.04150391,-0.002807617,0.1472168,0,0,0.1472168,0.0009460449,3.944,0,0,0,0,nan,4,8.019,1,0,0.1000061,0.1000061,0.1000061,0.1000061,0,0,0,1,6,0.5714286
188.077,0.001009,0.03515625,-0.005859375,-0.005859375,2.523438,0.453125,8.484375,0.005859375,-0.009765625,-0.01367188,0,0,0,-0.04162598,-0.003051758,0.1470947,0,0,0.1470947,0.001464844,3.944,0,0,0,0,nan,4,8.029,1,0,0.1000061,0.1000061,0.1000061,0.1000061,0,0,0,1,6,0
188.087,0.001015,-0.01367188,-0.005859375,0,-1.890625,-2.507812,16.03125,0.009765625,0.01757812,0.001953125,0,0,0,-0.04138184,-0.002929688,0.1469727,0,0,0.1469727,0.001983643,3.944,0,0,0,0,nan,4,8.04,1,0,0.1000061,0.1000061,0.1000061,0.1000061,0,0,0,1,6,0
188.097,0.001016,0.06835938,-0.02539062,0.01171875,-1.851562,-3.382812,11.90625,0.02148438,-0.0234375,0.01367188,0,0,0,-0.04150391,-0.002929688,0.1470947,0,0,0.1470947,0.002471924,3.944,0,0,0,0,nan,4,8.05,1,0,0.1000061,0.1000061,0.1000061,0.1000061,0,0,0,1,6,0
188.107,0.001013,-0.05273438,-0.009765625,-0.02539062,-0.28125,5.101562,12.73438,-0.01171875,0.01757812,-0.005859375,0,0,0,-0.04125977,-0.002807617,0.1472168,0,0,0.1472168,0.002990723,3.944,0,0,0,0,nan,4,8.06,1,0,0.1000061,0.1000061,0.1000061,0.1000061,0,0,0,1,6,0
188.117,0.001042,-0.001953125,0.0078125,0.01171875,0.75,1.0625,15.52344,-0.00390625,0.005859375,-0.001953125,0,0,0,-0.04138184,-0.002807617,0.1470947,0,0,0.1470947,0.003479004,3.942,0,0,0,0,nan,4,8.07,1,0,0.1000061,0.1000061,0.1000061,0.1000061,0,0,0,1,6,0
188.127,0.001011,0.01171875,0.009765625,0.005859375,2.039062,5.039062,9.195312,0.009765625,-0.009765625,-0.001953125,0,0,0,-0.04150391,-0.002929688,0.1470947,0,0,0.1470947,0.003997803,3.942,0,0,0,0,nan,4,8.08,1,0,0.1000061,0.1000061,0.1000061,0.1000061,0,0,0,1,6,0
188.137,0.001016,0.03710938,0.015625,0.01757812,-2.796875,-2.5625,8.023438,0.03125,-0.001953125,0.015625,0,0,0,-0.04138184,-0.003051758,0.1470947,0,0,0.1470947,0.004486084,3.942,0,0,0,0,nan,4,8.09,1,0,0.1000061,0.1000061,0.1000061,0.1000061,0,0,0,1,6,0
188.147,0.001011,0.02734375,0.001953125,-0.01757812,0.3203125,1.367188,5.054688,-0.001953125,-0.01367188,-0.001953125,0,0,0,-0.04138184,-0.003173828,0.1472168,0,0,0.1472168,0.005004883,3.942,0,0,0,0,nan,4,8.1,1,0,0.1000061,0.1000061,0.1000061,0.1000061,0,0,0,1,6,0
188.156,0.001003,0.001953125,0.01171875,0.01367188,-1.265625,0.0234375,10.70312,-0.0234375,0,0.0078125,0,0,0,-0.04162598,-0.003173828,0.1473389,0,0,0.1473389,0.005462646,3.942,0,0,0,0,nan,4,8.109,1,0,0.1000061,0.1000061,0.1000061,0.1000061,0,0,0,1,6,0
188.167,0.001018,-0.001953125,0.005859375,-0.00390625,0.375,-4.484375,10.71875,-0.01367188,0.0078125,0.00390625,0,0,0,-0.04174805,-0.003051758,0.1473389,0,0,0.1473389,0.005950928,3.942,0,0,0,0,nan,4,8.119,1,0,0.1000061,0.1000061,0.1000061,0.1000061,0,0,0,1,6,0
188.177,0.001012,0.05078125,0.03320312,0.02734375,-0.71875,-5.078125,3.492188,0.015625,0.01171875,0.01953125,0,0,0,-0.04174805,-0.003051758,0.1474609,0,0,0.1474609,0.006469727,3.942,0,0,0,0,nan,4,8.129,1,0,0.1000061,0.1000061,0.1000061,0.1000061,0,0,0,1,6,0
188.187,0.001018,0.009765625,-0.04882812,-0.005859375,-1.84375,-2.015625,11.23438,0.005859375,-0.01757812,-0.005859375,0,0,0,-0.04150391,-0.002929688,0.1474609,0,0,0.1474609,0.006958008,3.942,0,0,0,0,nan,4,8.14,1,0,0.1000061,0.1000061,0.1000061,0.1000061,0,0,0,1,6,0
188.197,0.001016,-0.046875,-0.015625,-0.02734375,1.367188,0.7734375,17.61719,-0.01171875,-0.00390625,-0.01953125,0,0,0,-0.04138184,-0.003051758,0.1473389,0,0,0.1473389,0.007476807,3.942,0,0,0,0,nan,4,8.15,1,0,0.1000061,0.1000061,0.1000061,0.1000061,0,0,0,1,6,0
188.207,0.001016,-0.06054688,-0.009765625,-0.015625,0.90625,2.421875,13.54688,-0.03320312,0.0078125,-0.01757812,0,0,0,-0.04150391,-0.003051758,0.1470947,0,0,0.1470947,0.007965088,3.942,0,0,0,0,nan,4,8.16,1,0,0.1000061,0.1000061,0.1000061,0.1000061,0,0,0,1,6,0
188.217,0.001012,0.009765625,0.0078125,0.0078125,-2.570312,-0.703125,13.64844,0.009765625,0.01171875,0.005859375,0,0,0,-0.04174805,-0.003051758,0.1470947,0,0,0.1470947,0.008483887,3.942,0,0,0,0,nan,4,8.17,1,0,0.1000061,0.1000061,0.1000061,0.1000061,0,0,0,1,6,0
188.227,0.000978,0,0.02929688,0.015625,0.265625,2.25,6.0625,0.03515625,0.01367188,0.005859375,0,0,0,-0.04138184,-0.003051758,0.1470947,0,0,0.1470947,0.009002686,3.942,0,0,0,0,nan,4,8.18,1,0,0.1000061,0.1000061,0.1000061,0.1000061,0,0,0,1,6,0
188.237,0.001012,0.02148438,0.03125,0.01171875,2.351562,3.90625,6.96875,0.01953125,-0.0078125,0.01757812,0,0,0,-0.04138184,-0.003051758,0.1472168,0,0,0.1472168,0.009490967,3.942,0,0,0,0,nan,4,8.19,1,0,0.1000061,0.1000061,0.1000061,0.1000061,0,0,0,1,6,0
188.247,0.001018,-0.0546875,0.01367188,-0.005859375,0.2109375,-5.515625,8.132812,-0.01367188,0.0234375,-0.001953125,0,0,0,-0.04138184,-0.002929688,0.1473389,0,0,0.1473389,0.01000977,3.942,0,0,0,0,nan,4,8.2,1,0,0.1000061,0.1000061,0.1000061,0.1000061,0,0,0,1,6,0.9047619
188.256,0.001008,-0.04492188,-0.00390625,0.0234375,-0.015625,1.25,17.29688,-0.005859375,0.005859375,0.01367188,0,0,0,-0.04150391,-0.002929688,0.1473389,0,0,0.1473389,0.01046753,3.942,0,0,0,0,nan,4,8.209,1,0,0.1000061,0.1000061,0.1000061,0.1000061,0,0,0,1,6,0
188.267,0.001012,0.07226562,-0.03710938,-0.01171875,-2.460938,-4.226562,12.57031,0.01367188,-0.00390625,-0.00390625,0,0,0,-0.04162598,-0.002807617,0.1474609,0,0,0.1474609,0.01095581,3.942,0,0,0,0,nan,4,8.219,1,0,0.1000061,0.1000061,0.1000061,0.1000061,0,0,0,1,6,0
188.277,0.001017,0.00390625,0.02929688,-0.00390625,1.851562,4.210938,16.64844,0.0078125,-0.001953125,-0.005859375,0,0,0,-0.04138184,-0.002807617,0.1473389,0,0,0.1473389,0.01147461,3.942,0,0,0,0,nan,4,8.229,1,0,0.1000061,0.1000061,0.1000061,0.1000061,0,0,0,1,6,0
188.287,0.001012,0.03515625,-0.015625,0.009765625,-0.15625,2.65625,13.10938,0.02539062,0.001953125,0.009765625,0,0,0,-0.04138184,-0.002807617,0.1473389,0,0,0.1473389,0.01196289,3.942,0,0,0,0,nan,4,8.24,1,0,0.1000061,0.1000061,0.1000061,0.1000061,0,0,0,1,6,0
188.297,0.001018,0.01367188,0.06054688,0.00390625,-1.945312,-0.28125,10.09375,-0.015625,0.01367188,-0.0078125,0,0,0,-0.04150391,-0.002929688,0.1473389,0,0,0.1473389,0.01248169,3.942,0,0,0,0,nan,4,8.25,1,0,0.1000061,0.1000061,0.1000061,0.1000061,0,0,0,1,6,0.03174603
188.307,0.00101,0.03710938,0.02734375,0.015625,1.671875,0.421875,1.601562,0.03515625,0.00390625,0.00390625,0,0,0,-0.04138184,-0.002807617,0.1473389,0,0,0.1473389,0.01296997,3.942,0,0,0,0,nan,4,8.26,1,0,0.1000061,0.1000061,0.1000061,0.1000061,0,0,0,1,6,0
188.317,0.00102,0.046875,0.01171875,0.00390625,2.125,-1.890625,8.945312,-0.01171875,-0.005859375,0.01171875,0,0,0,-0.04150391,-0.002929688,0.1473389,0,0,0.1473389,0.01348877,3.942,0,0,0,0,nan,4,8.27,1,0,0.1000061,0.1000061,0.1000061,0.1000061,0,0,0,1,6,0.1111111
188.327,0.001012,0.07617188,0.03320312,-0.0078125,-1.875,-5.148438,12.45312,0.04296875,0.01757812,0,0,0,0,-0.04150391,-0.002807617,0.1474609,0,0,0.1474609,0.01397705,3.942,0,0,0,0,nan,4,8.28,1,0,0.1000061,0.1000061,0.1000061,0.1000061,0,0,0,1,6,0
188.337,0.001017,-0.04101562,0.001953125,0,-0.875,1.539062,11.10938,-0.01953125,-0.01757812,-0.005859375,0,0,0,-0.04125977,-0.002807617,0.1474609,0,0,0.1474609,0.01449585,3.942,0,0,0,0,nan,4,8.29,1,0,0.1000061,0.1000061,0.1000061,0.1000061,0,0,0,1,6,0
188.347,0.001012,0.046875,0.04492188,-0.04296875,0.15625,2.039062,14.71094,0,0.01367188,-0.02539062,0,0,0,-0.04162598,-0.002929688,0.1473389,0,0,0.1473389,0.01498413,3.942,0,0,0,0,nan,4,8.3,1,0,0.1000061,0.1000061,0.1000061,0.1000061,0,0,0,1,6,0
188.356,0.001004,0.05859375,0,-0.001953125,-2.296875,-5.242188,11.15625,0.0234375,0,-0.01757812,0,0,0,-0.04150391,-0.002807617,0.1470947,0,0,0.1470947,0.01544189,3.942,0,0,0,0,nan,4,8.309,1,0,0.1000061,0.1000061,0.1000061,0.1000061,0,0,0,1,6,0
188.367,0.001019,-0.03710938,0.00390625,0.03125,0.1328125,-3.539062,5.03125,-0.00390625,-0.001953125,0.02148438,0,0,0,-0.04150391,-0.002807617,0.1470947,0,0,0.1470947,0.01596069,3.942,0,0,0,0,nan,4,8.319,1,0,0.1000061,0.1000061,0.1000061,0.1000061,0,0,0,1,6,0
188.377,0.001013,-0.06640625,-0.01171875,-0.00390625,-3.023438,-6.664062,13.03906,-0.04101562,0.001953125,0.00390625,0,0,0,-0.04162598,-0.002807617,0.1473389,0,0,0.1473389,0.01644897,3.942,0,0,0,0,nan,4,8.329,1,0,0.1000061,0.1000061,0.1000061,0.1000061,0,0,0,1,6,0
188.387,0.001019,0,0.001953125,0.02148438,1.804688,5.164062,11.25781,-0.04492188,0.00390625,0.01171875,0,0,0,-0.04199219,-0.002807617,0.1473389,0,0,0.1473389,0.01696777,3.942,0,0,0,0,nan,4,8.34,1,0,0.1000061,0.1000061,0.1000061,0.1000061,0,0,0,1,6,0
188.397,0.001012,0.03125,0.04492188,-0.0078125,0.8515625,1.757812,14.32812,0.00390625,0.02539062,0.005859375,0,0,0,-0.04223633,-0.002685547,0.1474609,0,0,0.1474609,0.01748657,3.942,0,0,0,0,nan,4,8.35,1,0,0.1000061,0.1000061,0.1000061,0.1000061,0,0,0,1,6,0
188.407,0.00102,-0.04492188,-0.009765625,-0.01367188,0.8203125,-1.070312,6.234375,-0.02929688,0,-0.015625,0,0,0,-0.0423584,-0.002441406,0.1473389,0,0,0.1473389,0.01797485,3.942,0,0,0,0,nan,4,8.36,1,0,0.1000061,0.1000061,0.1000061,0.1000061,0,0,0,1,6,0
188.417,0.001012,0.04296875,0.05664062,-0.001953125,-0.3046875,-5.03125,4.1875,0.015625,0.02148438,-0.001953125,0,0,0,-0.04248047,-0.002441406,0.1473389,0,0,0.1473389,0.01849365,3.942,0,0,0,0,nan,4,8.37,1,0,0.1000061,0.1000061,0.1000061,0.1000061,0,0,0,1,6,0
188.427,0.001019,-0.03515625,-0.01757812,-0.005859375,-1.03125,-0.3203125,17.40625,0,0.01757812,-0.005859375,0,0,0,-0.0423584,-0.002075195,0.1472168,0,0,0.1472168,0.01898193,3.942,0,0,0,0,nan,4,8.38,1,0,0.1000061,0.1000061,0.1000061,0.1000061,0,0,0,1,6,0
188.437,0.001013,-0.02734375,-0.009765625,-0.02148438,1.757812,4.226562,11.61719,-0.0078125,-0.009765625,-0.02148438,0,0,0,-0.04248047,-0.002197266,0.1470947,0,0,0.1470947,0.01950073,3.942,0,0,0,0,nan,4,8.39,1,0,0.1000061,0.1000061,0.1000061,0.1000061,0,0,0,1,6,0
188.447,0.001019,0.0625,0.015625,0,-0.84375,2.046875,7.367188,0.03125,0.02734375,-0.01171875,0,0,0,-0.04223633,-0.001953125,0.1468506,0,0,0.1468506,0.01998901,3.942,0,0,0,0,nan,4,8.4,1,0,0.1000061,0.1000061,0.1000061,0.1000061,0,0,0,1,6,0
188.456,0.001007,-0.001953125,-0.01953125,0.009765625,-0.859375,1.34375,17.80469,-0.005859375,-0.01367188,0.005859375,0,0,0,-0.04211426,-0.001953125,0.1468506,0,0,0.1468506,0.02044678,3.942,0,0,0,0,nan,4,8.409,1,0,0.1000061,0.1000061,0.1000061,0.1000061,0,0,0,1,6,0
188.467,0.001011,0.001953125,0.05859375,0.015625,1.0625,0.2265625,6.242188,0,0.03320312,0.015625,0,0,0,-0.04223633,-0.001953125,0.1469727,0,0,0.1469727,0.02096558,3.942,0,0,0,0,nan,4,8.419,1,0,0.1000061,0.1000061,0.1000061,0.1000061,0,0,0,1,6,0
188.477,0.001016,-0.1015625,-0.04101562,-0.0078125,-0.1875,1.6875,18.17969,-0.04882812,0.00390625,-0.005859375,0,0,0,-0.0423584,-0.001586914,0.1469727,0,0,0.1469727,0.02145386,3.942,0,0,0,0,nan,4,8.429,1,0,0.1000061,0.1000061,0.1000061,0.1000061,0,0,0,1,6,0
188.487,0.001011,0.02539062,0.009765625,0,0.609375,2.65625,11.72656,-0.02539062,-0.01757812,0,0,0,0,-0.04284668,-0.001831055,0.1469727,0,0,0.1469727,0.02197266,3.942,0,0,0,0,nan,4,8.44,1,0,0.1000061,0.1000061,0.1000061,0.1000061,0,0,0,1,6,0
188.497,0.001009,0.03515625,0.015625,-0.02539062,-0.6640625,-0.2890625,1.382812,0.02929688,0.01367188,-0.01171875,0,0,0,-0.04272461,-0.001708984,0.1469727,0,0,0.1469727,0.02246094,3.942,0,0,0,0,nan,4,8.45,1,0,0.1000061,0.1000061,0.1000061,0.1000061,0,0,0,1,6,0
188.507,0.001008,-0.0078125,-0.02539062,0.009765625,-1.625,-6.148438,8.539062,0.0078125,-0.02539062,0.00390625,0,0,0,-0.04260254,-0.001953125,0.1468506,0,0,0.1468506,0.02297974,3.942,0,0,0,0,nan,4,8.46,1,0,0.1000061,0.1000061,0.1000061,0.1000061,0,0,0,1,6,0
188.517,0.001014,0.04492188,0.02148438,0.005859375,3.15625,3.59375,13.05469,0.04492188,0.0234375,0.01171875,0,0,0,-0.04223633,-0.001831055,0.1469727,0,0,0.1469727,0.02346802,3.942,0,0,0,0,nan,4,8.47,1,0,0.1000061,0.1000061,0.1000061,0.1000061,0,0,0,1,6,0
188.527,0.001011,-0.009765625,-0.01367188,-0.001953125,-0.78125,1.265625,15.07031,-0.001953125,-0.0078125,0,0,0,0,-0.04199219,-0.001708984,0.1470947,0,0,0.1470947,0.02398682,3.942,0,0,0,0,nan,4,8.48,1,0,0.1000061,0.1000061,0.1000061,0.1000061,0,0,0,1,6,0
188.537,0.001016,0.02929688,0.04101562,0.0078125,-1.078125,-0.59375,4.96875,-0.0234375,0.009765625,-0.001953125,0,0,0,-0.04223633,-0.001708984,0.1469727,0,0,0.1469727,0.02450562,3.942,0,0,0,0,nan,4,8.49,1,0,0.1000061,0.1000061,0.1000061,0.1000061,0,0,0,1,6,0
188.547,0.001011,0,-0.009765625,0.01171875,1.453125,-4.15625,2.414062,-0.0078125,0.01367188,0.01757812,0,0,0,-0.04223633,-0.001464844,0.1470947,0,0,0.1470947,0.0249939,3.942,0,0,0,0,nan,4,8.5,1,0,0.1000061,0.1000061,0.1000061,0.1000061,0,0,0,1,6,0
188.556,0.001004,-0.0546875,-0.046875,-0.01367188,-1.0625,2.476562,7.570312,-0.01953125,-0.02929688,0,0,0,0,-0.04223633,-0.001586914,0.1472168,0,0,0.1472168,0.02545166,3.942,0,0,0,0,nan,4,8.509,1,0,0.1000061,0.1000061,0.1000061,0.1000061,0,0,0,1,6,0
188.567,0.001019,-0.02148438,0.04882812,-0.03710938,1.171875,2.804688,13,0.015625,0.01953125,-0.02929688,0,0,0,-0.04223633,-0.001708984,0.1470947,0,0,0.1470947,0.02597046,3.942,0,0,0,0,nan,4,8.519,1,0,0.1000061,0.1000061,0.1000061,0.1000061,0,0,0,1,6,0
188.577,0.001013,0.001953125,0.02539062,-0.001953125,-1.609375,2.09375,5.734375,-0.005859375,0.02148438,-0.02539062,0,0,0,-0.04223633,-0.001586914,0.1467285,0,0,0.1467285,0.02645874,3.942,0,0,0,0,nan,4,8.529,1,0,0.1000061,0.1000061,0.1000061,0.1000061,0,0,0,1,6,0
188.587,0.001019,0.015625,0.02734375,0,-1.304688,-6.484375,5.445312,-0.005859375,0.001953125,0.001953125,0,0,0,-0.04260254,-0.001586914,0.1466064,0,0,0.1466064,0.02697754,3.942,0,0,0,0,nan,4,8.54,1,0,0.1000061,0.1000061,0.1000061,0.1000061,0,0,0,1,6,0
188.597,0.001008,0.08007812,0,0.0078125,2.429688,2.78125,10.34375,0.03710938,0.001953125,0.005859375,0,0,0,-0.04248047,-0.001586914,0.1467285,0,0,0.1467285,0.02746582,3.942,0,0,0,0,nan,4,8.55,1,0,0.1000061,0.1000061,0.1000061,0.1000061,0,0,0,1,6,0
188.607,0.001017,0.001953125,0.02734375,0.015625,-0.84375,1.90625,16.69531,0.001953125,0.009765625,0.0078125,0,0,0,-0.04248047,-0.001464844,0.1467285,0,0,0.1467285,0.02798462,3.942,0,0,0,0,nan,4,8.56,1,0,0.1000061,0.1000061,0.1000061,0.1000061,0,0,0,1,6,0
188.617,0.001018,-0.0625,-0.015625,0.01757812,-0.2265625,-0.3125,5.984375,-0.02929688,0.001953125,0.01367188,0,0,0,-0.04272461,-0.001464844,0.1468506,0,0,0.1468506,0.0284729,3.942,0,0,0,0,nan,4,8.57,1,0,0.1000061,0.1000061,0.1000061,0.1000061,0,0,0,1,6,0
188.627,0.001018,0.0234375,0.001953125,-0.01367188,0.09375,-3.585938,2.5625,0.01367188,0.001953125,-0.001953125,0,0,0,-0.04272461,-0.001464844,0.1469727,0,0,0.1469727,0.0289917,3.942,0,0,0,0,nan,4,8.58,1,0,0.1000061,0.1000061,0.1000061,0.1000061,0,0,0,1,6,0
188.637,0.000981,0.01367188,-0.01367188,0.005859375,-0.609375,-2.679688,17.64062,-0.015625,-0.001953125,-0.00390625,0,0,0,-0.04272461,-0.001464844,0.1468506,0,0,0.1468506,0.02947998,3.942,0,0,0,0,nan,4,8.59,1,0,0.1000061,0.1000061,0.1000061,0.1000061,0,0,0,1,6,0
188.647,0.001017,0.06640625,0.0234375,0.001953125,2.65625,6.382812,11.82031,0.02734375,-0.001953125,0,0,0,0,-0.04284668,-0.001464844,0.1469727,0,0,0.1469727,0.02999878,3.942,0,0,0,0,nan,4,8.6,1,0,0.1000061,0.1000061,0.1000061,0.1000061,0,0,0,1,6,0
188.656,0.001003,0.0078125,0.01953125,-0.005859375,2.6875,0.234375,8.53125,0.0390625,0.015625,-0.009765625,0,0,0,-0.04260254,-0.001464844,0.1468506,0,0,0.1468506,0.03045654,3.942,0,0,0,0,nan,4,8.609,1,0,0.1000061,0.1000061,0.1000061,0.1000061,0,0,0,1,6,0
188.667,0.001008,-0.03710938,-0.04101562,0.01171875,-1.625,-5.125,6.234375,-0.0234375,-0.015625,0.00390625,0,0,0,-0.04260254,-0.001464844,0.1468506,0,0,0.1468506,0.03094482,3.942,0,0,0,0,nan,4,8.619,1,0,0.1000061,0.1000061,0.1000061,0.1000061,0,0,0,1,6,0
188.677,0.001007,-0.0078125,0.0078125,0.01171875,0.8203125,0.2265625,10.98438,0.005859375,0.001953125,0.00390625,0,0,0,-0.04272461,-0.001586914,0.1468506,0,0,0.1468506,0.03146362,3.942,0,0,0,0,nan,4,8.629,1,0,0.1000061,0.1000061,0.1000061,0.1000061,0,0,0,1,6,0
188.687,0.001008,-0.009765625,-0.0390625,0.02148438,1.28125,5.21875,17.23438,-0.00390625,0.001953125,0.015625,0,0,0,-0.04260254,-0.001464844,0.1469727,0,0,0.1469727,0.0319519,3.942,0,0,0,0,nan,4,8.64,1,0,0.1000061,0.1000061,0.1000061,0.1000061,0,0,0,1,6,0
188.697,0.001021,-0.04492188,-0.01367188,-0.01953125,1.015625,-2.109375,4.921875,-0.01171875,-0.02148438,-0.0078125,0,0,0,-0.04260254,-0.001586914,0.1470947,0,0,0.1470947,0.0324707,3.942,0,0,0,0,nan,4,8.65,1,0,0.1000061,0.1000061,0.1000061,0.1000061,0,0,0,1,6,0
188.707,0.001016,-0.009765625,-0.0078125,-0.02734375,0.0078125,-3.609375,6.242188,-0.0234375,0.0078125,-0.0234375,0,0,0,-0.04284668,-0.001586914,0.1468506,0,0,0.1468506,0.0329895,3.942,0,0,0,0,nan,4,8.66,1,0,0.1000061,0.1000061,0.1000061,0.1000061,0,0,0,1,6,0
188.717,0.001016,0.01171875,-0.02148438,0.00390625,-1.929688,-3.09375,16.54688,0.001953125,-0.01171875,-0.01171875,0,0,0,-0.04284668,-0.001586914,0.1466064,0,0,0.1466064,0.03347778,3.942,0,0,0,0,nan,4,8.67,1,0,0.1000061,0.1000061,0.1000061,0.1000061,0,0,0,1,6,0
188.727,0.001015,0.02734375,0.009765625,0.01757812,3.21875,7.75,10.46094,-0.0078125,0.001953125,0.009765625,0,0,0,-0.04296875,-0.001586914,0.1466064,0,0,0.1466064,0.03399658,3.942,0,0,0,0,nan,4,8.68,1,0,0.1000061,0.1000061,0.1000061,0.1000061,0,0,0,1,6,0
188.737,0.001015,-0.02734375,0.01757812,-0.001953125,0.828125,-1.609375,9.367188,0.001953125,0.015625,0.005859375,0,0,0,-0.04284668,-0.001586914,0.1467285,0,0,0.1467285,0.03448486,3.942,0,0,0,0,nan,4,8.69,1,0,0.1000061,0.1000061,0.1000061,0.1000061,0,0,0,1,6,0.3809524
188.747,0.001015,-0.005859375,-0.02929688,0.005859375,-0.8515625,-5.570312,6.523438,-0.01757812,-0.015625,0.005859375,0,0,0,-0.04296875,-0.001586914,0.1467285,0,0,0.1467285,0.03500366,3.942,0,0,0,0,nan,4,8.7,1,0,0.1000061,0.1000061,0.1000061,0.1000061,0,0,0,1,6,0
188.756,0.001006,0.01171875,0.03125,0.0234375,0.859375,3.242188,11.48438,-0.01171875,0,0.01757812,0,0,0,-0.04309082,-0.001586914,0.1468506,0,0,0.1468506,0.03546143,3.942,0,0,0,0,nan,4,8.709,1,0,0.1000061,0.1000061,0.1000061,0.1000061,0,0,0,1,6,0
188.767,0.001011,0.01953125,0.01367188,0.005859375,-0.0703125,2.234375,18.52344,0.02148438,0.01367188,0.01171875,0,0,0,-0.04309082,-0.001464844,0.1470947,0,0,0.1470947,0.03594971,3.945,0,0,0,0,nan,4,8.719,1,0,0.1000061,0.1000061,0.1000061,0.1000061,0,0,0,1,6,0
188.777,0.001016,-0.09765625,-0.01953125,-0.015625,2.109375,4.023438,8.4375,-0.0390625,-0.01367188,-0.009765625,0,0,0,-0.04309082,-0.001586914,0.1470947,0,0,0.1470947,0.03646851,3.945,0,0,0,0,nan,4,8.729,1,0,0.1000061,0.1000061,0.1000061,0.1000061,0,0,0,1,6,0.4761905
188.787,0.001016,0.005859375,-0.01367188,-0.0234375,-1.46875,-2.242188,4.09375,-0.01953125,0.0078125,-0.02148438,0,0,0,-0.04345703,-0.001586914,0.1468506,0,0,0.1468506,0.03695679,3.945,0,0,0,0,nan,4,8.74,1,0,0.1000061,0.1000061,0.1000061,0.1000061,0,0,0,1,6,0
188.797,0.001016,-0.00390625,-0.04101562,-0.01171875,-2.070312,-5.601562,6.960938,0,-0.01757812,-0.0078125,0,0,0,-0.04333496,-0.001586914,0.1467285,0,0,0.1467285,0.03747559,3.945,0,0,0,0,nan,4,8.75,1,0,0.1000061,0.1000061,0.1000061,0.1000061,0,0,0,1,6,0
188.807,0.001019,0.01171875,0.01953125,0.01953125,1.492188,-0.0546875,9.757812,-0.01953125,-0.001953125,0.01171875,0,0,0,-0.04345703,-0.001586914,0.1467285,0,0,0.1467285,0.03796387,3.945,0,0,0,0,nan,4,8.76,1,0,0.1000061,0.1000061,0.1000061,0.1000061,0,0,0,1,6,0.6666667
188.817,0.001019,0.04882812,0.02539062,-0.0078125,0.578125,4.101562,18.72656,0.04101562,0.01367188,0.00390625,0,0,0,-0.04321289,-0.001586914,0.1468506,0,0,0.1468506,0.03848267,3.945,0,0,0,0,nan,4,8.77,1,0,0.1000061,0.1000061,0.1000061,0.1000061,0,0,0,1,6,0
188.827,0.001016,-0.01953125,0.015625,0.01953125,0.453125,1.351562,10.53906,-0.03125,-0.01171875,0.0078125,0,0,0,-0.04333496,-0.001464844,0.1468506,0,0,0.1468506,0.03897095,3.945,0,0,0,0,nan,4,8.78,1,0,0.1000061,0.1000061,0.1000061,0.1000061,0,0,0,1,6,0
188.837,0.001016,0.015625,0.04296875,-0.04101562,0.1328125,0.2421875,2.242188,0.01757812,0.02148438,-0.0234375,0,0,0,-0.04333496,-0.001464844,0.1468506,0,0,0.1468506,0.03948975,3.945,0,0,0,0,nan,4,8.79,1,0,0.1000061,0.1000061,0.1000061,0.1000061,0,0,0,1,6,0
188.847,0.001016,-0.046875,-0.02929688,0.00390625,-1.382812,-6.585938,7.679688,-0.03125,-0.005859375,-0.009765625,0,0,0,-0.04345703,-0.001464844,0.1466064,0,0,0.1466064,0.04000854,3.945,0,0,0,0,nan,4,8.8,1,0,0.1000061,0.1000061,0.1000061,0.1000061,0,0,0,1,6,0.1587302
188.856,0.001004,0.0625,0.0078125,0.015625,-1.414062,-0.2421875,12.67188,0.01757812,-0.005859375,0.02148438,0,0,0,-0.04345703,-0.001464844,0.1467285,0,0,0.1467285,0.04043579,3.945,0,0,0,0,nan,4,8.809,1,0,0.1000061,0.1000061,0.1000061,0.1000061,0,0,0,1,6,0
188.867,0.001013,-0.06835938,0.001953125,-0.01171875,-1.359375,0.3515625,16.89062,-0.015625,0.01171875,-0.00390625,0,0,0,-0.04333496,-0.001342773,0.1468506,0,0,0.1468506,0.04095459,3.945,0,0,0,0,nan,4,8.819,1,0,0.1000061,0.1000061,0.1000061,0.1000061,0,0,0,1,6,0
188.877,0.001013,0.001953125,-0.015625,0.02734375,-1.453125,1.546875,10.25,-0.015625,-0.01953125,0.01171875,0,0,0,-0.04370117,-0.001464844,0.1468506,0,0,0.1468506,0.04147339,3.945,0,0,0,0,nan,4,8.829,1,0,0.1000061,0.1000061,0.1000061,0.1000061,0,0,0,1,6,0
188.887,0.001013,0.001953125,0.01367188,0.00390625,0.953125,-0.171875,1.625,0.02148438,0.02148438,0.015625,0,0,0,-0.04345703,-0.001342773,0.1469727,0,0,0.1469727,0.04196167,3.945,0,0,0,0,nan,4,8.84,1,0,0.1000061,0.1000061,0.1000061,0.1000061,0,0,0,1,6,0
188.897,0.001014,-0.0078125,-0.01171875,-0.015625,0.359375,-3.203125,9.34375,-0.01367188,-0.01953125,-0.00390625,0,0,0,-0.0435791,-0.001464844,0.1469727,0,0,0.1469727,0.04248047,3.945,0,0,0,0,nan,4,8.85,1,0,0.1000061,0.1000061,0.1000061,0.1000061,0,0,0,1,6,0.7460318
188.907,0.001014,0.05078125,0.0234375,-0.0078125,1.015625,-1.382812,11.78125,0.0234375,0.02539062,-0.015625,0,0,0,-0.0435791,-0.001342773,0.1468506,0,0,0.1468506,0.04296875,3.945,0,0,0,0,nan,4,8.86,1,0,0.1000061,0.1000061,0.1000061,0.1000061,0,0,0,1,6,0
188.917,0.001011,-0.05664062,-0.04101562,-0.00390625,-0.734375,2.820312,14.74219,0,-0.015625,-0.0078125,0,0,0,-0.04333496,-0.001342773,0.1467285,0,0,0.1467285,0.04348755,3.945,0,0,0,0,nan,4,8.87,1,0,0.1000061,0.1000061,0.1000061,0.1000061,0,0,0,1,6,0
188.927,0.001013,0.02148438,-0.0078125,0,-1.304688,0.609375,11.72656,-0.01367188,-0.0078125,-0.005859375,0,0,0,-0.0435791,-0.001586914,0.1467285,0,0,0.1467285,0.04397583,3.945,0,0,0,0,nan,4,8.88,1,0,0.1000061,0.1000061,0.1000061,0.1000061,0,0,0,1,6,0
188.937,0.001009,0.001953125,0.0078125,-0.005859375,2.476562,1.992188,2.875,0.00390625,0.015625,-0.00390625,0,0,0,-0.04345703,-0.001342773,0.1466064,0,0,0.1466064,0.04449463,3.945,0,0,0,0,nan,4,8.89,1,0,0.1000061,0.1000061,0.1000061,0.1000061,0,0,0,1,6,0
188.947,0.001013,0.05078125,0.01367188,0.02929688,1.234375,-2.109375,8.867188,0.0078125,-0.02148438,0.02539062,0,0,0,-0.0435791,-0.001464844,0.1468506,0,0,0.1468506,0.04498291,3.945,0,0,0,0,nan,4,8.9,1,0,0.1000061,0.1000061,0.1000061,0.1000061,0,0,0,1,6,0
188.956,0.001007,0.00390625,0.05859375,-0.03125,0.6171875,3.492188,14.96875,0.00390625,0.03320312,-0.00390625,0,0,0,-0.0435791,-0.001342773,0.1469727,0,0,0.1469727,0.04544067,3.945,0,0,0,0,nan,4,8.909,1,0,0.1000061,0.1000061,0.1000061,0.1000061,0,0,0,1,6,0
188.966,0.001016,-0.03125,-0.046875,0.00390625,-0.71875,3.492188,9.882812,-0.01953125,-0.02539062,-0.009765625,0,0,0,-0.0435791,-0.001342773,0.1468506,0,0,0.1468506,0.04595947,3.945,0,0,0,0,nan,4,8.919,1,0,0.1000061,0.1000061,0.1000061,0.1000061,0,0,0,1,6,0
188.977,0.001016,0.08007812,0.02929688,0.00390625,-0.25,-0.203125,12.08594,0.0234375,0.01171875,0.009765625,0,0,0,-0.04370117,-0.001464844,0.1468506,0,0,0.1468506,0.04644775,3.945,0,0,0,0,nan,4,8.929,1,0,0.1000061,0.1000061,0.1000061,0.1000061,0,0,0,1,6,0
188.987,0.001016,-0.04882812,-0.01367188,-0.0078125,3.429688,2.023438,4.351562,-0.01367188,0,-0.005859375,0,0,0,-0.04345703,-0.001342773,0.1468506,0,0,0.1468506,0.04696655,3.945,0,0,0,0,nan,4,8.94,1,0,0.1000061,0.1000061,0.1000061,0.1000061,0,0,0,1,6,0
188.997,0.001021,0.01367188,0.0078125,-0.001953125,-0.234375,-3.835938,7.242188,0,-0.009765625,0,0,0,0,-0.04382324,-0.001464844,0.1468506,0,0,0.1468506,0.04748535,3.945,0,0,0,0,nan,4,8.95,1,0,0.1000061,0.1000061,0.1000061,0.1000061,0,0,0,1,6,0
189.007,0.001009,-0.01171875,-0.03320312,0.005859375,-2.023438,-2.375,15.88281,0.01367188,0.009765625,0.001953125,0,0,0,-0.0435791,-0.001342773,0.1468506,0,0,0.1468506,0.04797363,3.945,0,0,0,0,nan,4,8.96,1,0,0.1000061,0.1000061,0.1000061,0.1000061,0,0,0,1,6,0
189.017,0.001015,-0.03515625,-0.03125,0.01171875,-0.2265625,3.164062,8.15625,-0.03320312,-0.0234375,0.009765625,0,0,0,-0.04370117,-0.001464844,0.1468506,0,0,0.1468506,0.04849243,3.945,0,0,0,0,nan,4,8.97,1,0,0.1000061,0.1000061,0.1000061,0.1000061,0,0,0,1,6,0
189.027,0.001016,0.109375,0.078125,-0.01367188,1.5625,3.265625,10.21875,0.046875,0.0234375,0.00390625,0,0,0,-0.0435791,-0.001464844,0.1469727,0,0,0.1469727,0.04898071,3.945,0,0,0,0,nan,4,8.98,1,0,0.1000061,0.1000061,0.1000061,0.1000061,0,0,0,1,6,0
189.037,0.001011,-0.03710938,-0.04296875,-0.005859375,1.523438,-5.0625,6.234375,-0.01953125,-0.02148438,-0.009765625,0,0,0,-0.0435791,-0.001342773,0.1469727,0,0,0.1469727,0.04949951,3.945,0,0,0,0,nan,4,8.99,1,0,0.1000061,0.1000061,0.1000061,0.1000061,0,0,0,1,6,0
189.047,0.001016,-0.02539062,0.04492188,-0.015625,0.078125,-0.296875,11.05469,-0.005859375,0.015625,-0.01953125,0,0,0,-0.04370117,-0.001464844,0.1467285,0,0,0.1467285,0.04998779,3.945,0,0,0,0,nan,4,9,1,0,0.1000061,0.1000061,0.1000061,0.1000061,0,0,0,1,6,0
