t,dt_s,gyro_x,gyro_y,gyro_z,acc_x,acc_y,acc_z,rates.x,rates.y,rates.z,ratesTarget.x,ratesTarget.y,ratesTarget.z,attitude.x,attitude.y,attitude.z,attitudeTarget.x,attitudeTarget.y,attitudeTarget.z,thrustTarget,battery_v,rc_roll,rc_pitch,rc_yaw,rc_throttle,rc_mode,flight_mode,rc_age_s,armed,fault_mask,motor_rl,motor_rr,motor_fr,motor_fl,rate_i_x,rate_i_y,rate_i_z,mix_scale,control_source,accel_correction_confidence
1048.265,0.001008,0.01757812,0.03710938,-0.01757812,0.765625,1.546875,2.835938,0.01367188,0.01171875,0.00390625,0.1894531,0.06054688,0,-0.02807617,-0.009887695,0.05419922,0,0,-0.01403809,0,3.956,0,0,0,0,nan,2,0.188,1,128,0.1000061,0.1000061,0.1000061,0.1000061,0,0,0,1,2,0
1048.275,0.000985,0.05273438,0.005859375,-0.04101562,-2.125,-5.609375,6.039062,-0.00390625,-0.005859375,-0.04101562,0.1894531,0.06054688,0,-0.02807617,-0.009765625,0.05395508,0,0,-0.01403809,0,3.956,0,0,0,0,nan,2,0.198,1,128,0.1000061,0.1000061,0.1000061,0.1000061,0,0,0,1,2,0
1048.285,0.001008,0.03320312,-0.03320312,0.04101562,2.164062,-0.6328125,8.546875,0.01367188,-0.00390625,0.02539062,0.1894531,0.06054688,0,-0.02807617,-0.009765625,0.05395508,0,0,-0.01403809,0,3.956,0,0,0,0,nan,2,0.208,1,128,0.1000061,0.1000061,0.1000061,0.1000061,0,0,0,1,2,0
1048.295,0.001008,-0.04492188,0.05664062,-0.04296875,-0.5703125,-1.570312,15.52344,-0.02148438,0,-0.015625,0.1894531,0.06054688,0,-0.02807617,-0.009765625,0.05407715,0,0,-0.01403809,0,3.956,0,0,0,0,nan,2,0.218,1,128,0.1000061,0.1000061,0.1000061,0.1000061,0,0,0,1,2,0
1048.305,0.000981,0.04492188,0.04882812,-0.01367188,-0.3125,-2.71875,9.007812,0.001953125,0.01757812,-0.0234375,0.1894531,0.06054688,0,-0.02807617,-0.009765625,0.05383301,0,0,-0.01403809,0,3.956,0,0,0,0,nan,2,0.006,1,128,0.1000061,0.1000061,0.1000061,0.1000061,0,0,0,1,2,0.1904762
1048.315,0.001021,0.06054688,-0.04101562,0.0078125,-0.5234375,-4.929688,5.648438,0.009765625,-0.01953125,0.00390625,0.1894531,0.06054688,0,-0.02819824,-0.009765625,0.05371094,0,0,-0.01403809,0,3.956,0,0,0,0,nan,2,0.016,1,128,0.1000061,0.1000061,0.1000061,0.1000061,0,0,0,1,2,0
1048.325,0.001012,-0.05859375,0.02734375,-0.01171875,-0.3828125,-0.09375,9.09375,-0.005859375,0.015625,-0.01757812,0.1894531,0.06054688,0,-0.02819824,-0.009765625,0.05358887,0,0,-0.01403809,0,3.956,0,0,0,0,nan,2,0.026,1,128,0.1000061,0.1000061,0.1000061,0.1000061,0,0,0,1,2,0
1048.335,0.000992,-0.01953125,0.0078125,0.0078125,0.15625,1.210938,19.34375,-0.005859375,-0.009765625,0.001953125,0.1894531,0.06054688,0,-0.02819824,-0.009765625,0.05358887,0,0,-0.01403809,0,3.956,0,0,0,0,nan,2,0.036,1,128,0.1000061,0.1000061,0.1000061,0.1000061,0,0,0,1,2,0
1048.345,0.001013,0.06054688,-0.015625,0.0234375,-0.671875,-2.046875,10.11719,0.0078125,0.005859375,0.0234375,0.1894531,0.06054688,0,-0.02832031,-0.009765625,0.05371094,0,0,-0.01403809,0,3.956,0,0,0,0,nan,2,0.046,1,128,0.1000061,0.1000061,0.1000061,0.1000061,0,0,0,1,2,0
1048.355,0.001012,0.09765625,-0.01367188,-0.009765625,0.5234375,0.765625,19,0.015625,-0.01757812,-0.001953125,0.1894531,0.06054688,0,-0.02819824,-0.009887695,0.05383301,0,0,-0.01403809,0,3.956,0,0,0,0,nan,2,0.057,1,128,0.1000061,0.1000061,0.1000061,0.1000061,0,0,0,1,2,0
1048.365,0.001012,-0.08398438,-0.01757812,0.01171875,1.148438,3.15625,11.1875,-0.009765625,0.009765625,0.00390625,0.1894531,0.06054688,0,-0.02832031,-0.009765625,0.05383301,0,0,-0.01403809,0,3.956,0,0,0,0,nan,2,0.067,1,128,0.1000061,0.1000061,0.1000061,0.1000061,0,0,0,1,2,0
1048.375,0.001012,-0.009765625,0.02734375,-0.02539062,-0.546875,1.953125,7.453125,0.01171875,-0.0078125,-0.005859375,0.1894531,0.06054688,0,-0.02807617,-0.009887695,0.05383301,0,0,-0.01403809,0,3.956,0,0,0,0,nan,2,0.077,1,128,0.1000061,0.1000061,0.1000061,0.1000061,0,0,0,1,2,0
1048.385,0.001012,0.04492188,-0.02734375,-0.0078125,-1.304688,-2.023438,5.90625,0.009765625,-0.01171875,-0.015625,0.1894531,0.06054688,0,-0.0279541,-0.009887695,0.05371094,0,0,-0.01403809,0,3.956,0,0,0,0,nan,2,0.087,1,128,0.1000061,0.1000061,0.1000061,0.1000061,0,0,0,1,2,0
1048.395,0.00101,0.05859375,-0.015625,-0.01953125,4.15625,-0.671875,4.5,0.01953125,-0.005859375,0.00390625,0.1894531,0.06054688,0,-0.0279541,-0.01000977,0.05383301,0,0,-0.01403809,0,3.956,0,0,0,0,nan,2,0.097,1,128,0.1000061,0.1000061,0.1000061,0.1000061,0,0,0,1,2,0
1048.405,0.001008,0.0078125,0.005859375,-0.02929688,2.875,5.867188,13.41406,0.01757812,0.009765625,-0.03710938,0.1894531,0.06054688,0,-0.02783203,-0.01000977,0.05358887,0,0,-0.01403809,0,3.956,0,0,0,0,nan,2,0.106,1,128,0.1000061,0.1000061,0.1000061,0.1000061,0,0,0,1,2,0
1048.415,0.001008,-0.01757812,0.001953125,-0.001953125,-1.007812,1.164062,15.82812,0.00390625,-0.0078125,0,0.1894531,0.06054688,0,-0.0279541,-0.01000977,0.0534668,0,0,-0.01403809,0,3.956,0,0,0,0,nan,2,0.116,1,128,0.1000061,0.1000061,0.1000061,0.1000061,0,0,0,1,2,0
1048.425,0.001008,-0.05859375,-0.00390625,-0.03515625,-0.8125,2.484375,8.6875,-0.01171875,0.001953125,-0.03320312,0.1894531,0.06054688,0,-0.0279541,-0.01000977,0.05322266,0,0,-0.01403809,0,3.956,0,0,0,0,nan,2,0.126,1,128,0.1000061,0.1000061,0.1000061,0.1000061,0,0,0,1,2,0
1048.435,0.001007,-0.03515625,-0.02148438,-0.02539062,0.765625,3.40625,5.070312,-0.01757812,-0.009765625,-0.02148438,0.1894531,0.06054688,0,-0.0279541,-0.01000977,0.05297852,0,0,-0.01403809,0,3.956,0,0,0,0,nan,2,0.136,1,128,0.1000061,0.1000061,0.1000061,0.1000061,0,0,0,1,2,0
1048.445,0.001008,-0.02929688,-0.01953125,-0.0390625,-0.25,3.539062,11.94531,-0.01953125,0.005859375,-0.03515625,0.1894531,0.06054688,0,-0.0279541,-0.01000977,0.0526123,0,0,-0.01403809,0,3.956,0,0,0,0,nan,2,0.146,1,128,0.1000061,0.1000061,0.1000061,0.1000061,0,0,0,1,2,0
1048.455,0.001011,0.04296875,0.01757812,-0.009765625,-1.273438,3.789062,10.14844,-0.001953125,0.00390625,-0.02148438,0.1894531,0.06054688,0,-0.0279541,-0.01000977,0.05236816,0,0,-0.01403809,0,3.956,0,0,0,0,nan,2,0.157,1,128,0.1000061,0.1000061,0.1000061,0.1000061,0,0,0,1,2,0
1048.465,0.001008,0.03710938,-0.046875,-0.03320312,0.46875,3.664062,14.05469,0.0078125,-0.0078125,-0.02734375,0.1894531,0.06054688,0,-0.0279541,-0.01000977,0.05212402,0,0,-0.01403809,0,3.956,0,0,0,0,nan,2,0.167,1,128,0.1000061,0.1000061,0.1000061,0.1000061,0,0,0,1,2,0
1048.475,0.000999,0.02929688,-0.001953125,-0.0234375,1.617188,1.960938,5.882812,0.015625,-0.001953125,-0.02929688,0.1894531,0.06054688,0,-0.0279541,-0.01000977,0.05187988,0,0,-0.01403809,0,3.956,0,0,0,0,nan,2,0.177,1,128,0.1000061,0.1000061,0.1000061,0.1000061,0,0,0,1,2,0
1048.485,0.001016,-0.0390625,0.046875,-0.02148438,-0.859375,-1.242188,3.796875,-0.00390625,0.005859375,-0.009765625,0.1894531,0.06054688,0,-0.0279541,-0.01000977,0.05163574,0,0,-0.01403809,0,3.956,0,0,0,0,nan,2,0.004,1,128,0.1000061,0.1000061,0.1000061,0.1000061,0,0,0,1,2,0
1048.495,0.00105,-0.046875,0.015625,-0.005859375,-2.125,-1.242188,14.24219,-0.01757812,0.00390625,-0.01757812,0.1894531,0.06054688,0,-0.0279541,-0.01000977,0.05151367,0,0,-0.01403809,0,3.956,0,0,0,0,nan,2,0.013,1,128,0.1000061,0.1000061,0.1000061,0.1000061,0,0,0,1,2,0
1048.505,0.000985,0.02148438,0.00390625,-0.02539062,-1.625,0.8671875,14.1875,-0.015625,0.00390625,-0.01367188,0.1894531,0.06054688,0,-0.02807617,-0.01000977,0.0513916,0,0,-0.01403809,0,3.956,0,0,0,0,nan,2,0.023,1,128,0.1000061,0.1000061,0.1000061,0.1000061,0,0,0,1,2,0
1048.515,0.001055,0.009765625,0,-0.01171875,2.382812,7.625,12.13281,-0.005859375,0.009765625,-0.02734375,0.1894531,0.06054688,0,-0.02807617,-0.01000977,0.05114746,0,0,-0.01403809,0,3.956,0,0,0,0,nan,2,0.033,1,128,0.1000061,0.1000061,0.1000061,0.1000061,0,0,0,1,2,0
1048.525,0.001012,0.078125,0.005859375,0.03125,-1.429688,1.1875,13.07031,0.01367188,0.005859375,0.02148438,0.1894531,0.06054688,0,-0.02807617,-0.01000977,0.05114746,0,0,-0.01403809,0,3.956,0,0,0,0,nan,2,0.043,1,128,0.1000061,0.1000061,0.1000061,0.1000061,0,0,0,1,2,0
1048.535,0.001014,0.08203125,0,-0.046875,-0.1875,1.03125,4.273438,0.01953125,0.001953125,-0.02539062,0.1894531,0.06054688,0,-0.02807617,-0.01000977,0.05114746,0,0,-0.01403809,0,3.956,0,0,0,0,nan,2,0.053,1,128,0.1000061,0.1000061,0.1000061,0.1000061,0,0,0,1,2,0
1048.545,0.001008,-0.02929688,-0.0078125,0.05859375,-0.3359375,0.421875,17.94531,-0.00390625,-0.01171875,0.01953125,0.1894531,0.06054688,0,-0.02807617,-0.01000977,0.05102539,0,0,-0.01403809,0,3.956,0,0,0,0,nan,2,0.064,1,128,0.1000061,0.1000061,0.1000061,0.1000061,0,0,0,1,2,0
1048.555,0.001008,-0.05664062,0.01757812,-0.04492188,0.7734375,4.140625,7.421875,-0.00390625,0.0078125,-0.01953125,0.1894531,0.06054688,0,-0.02807617,-0.01000977,0.05114746,0,0,-0.01403809,0,3.956,0,0,0,0,nan,2,0.074,1,128,0.1000061,0.1000061,0.1000061,0.1000061,0,0,0,1,2,0
1048.565,0.001012,-0.08984375,0.03710938,-0.00390625,-1.109375,1.164062,6.40625,-0.02148438,0.005859375,-0.015625,0.1894531,0.06054688,0,-0.02807617,-0.01000977,0.05078125,0,0,-0.01403809,0,3.956,0,0,0,0,nan,2,0.084,1,128,0.1000061,0.1000061,0.1000061,0.1000061,0,0,0,1,2,0
1048.575,0.00101,0.01171875,0.05859375,-0.04101562,1.1875,-1.289062,7.820312,0.001953125,0.00390625,-0.03320312,0.1894531,0.06054688,0,-0.02807617,-0.01000977,0.05053711,0,0,-0.01403809,0,3.956,0,0,0,0,nan,2,0.094,1,128,0.1000061,0.1000061,0.1000061,0.1000061,0,0,0,1,2,0
1048.585,0.001012,-0.0078125,-0.009765625,-0.01171875,1.367188,-2.859375,2.453125,-0.01171875,0.009765625,-0.02539062,0.1894531,0.06054688,0,-0.02819824,-0.01000977,0.05029297,0,0,-0.01403809,0,3.956,0,0,0,0,nan,2,0.104,1,128,0.1000061,0.1000061,0.1000061,0.1000061,0,0,0,1,2,0
1048.595,0.001012,0.0703125,0.0234375,0.005859375,-1.6875,-6.492188,8.078125,0.01171875,0.005859375,0,0.1894531,0.06054688,0,-0.02807617,-0.01000977,0.0501709,0,0,-0.01403809,0,3.956,0,0,0,0,nan,2,0.114,1,128,0.1000061,0.1000061,0.1000061,0.1000061,0,0,0,1,2,0
1048.604,0.001008,0.0078125,-0.0234375,-0.01953125,-1.734375,1.382812,12.54688,0,0.01367188,-0.015625,0.1894531,0.06054688,0,-0.02819824,-0.009887695,0.0501709,0,0,-0.01403809,0,3.956,0,0,0,0,nan,2,0.123,1,128,0.1000061,0.1000061,0.1000061,0.1000061,0,0,0,1,2,0
1048.615,0.001008,0.0390625,-0.005859375,0.01757812,-0.9609375,1.710938,4.765625,0.0234375,-0.0234375,0,0.1894531,0.06054688,0,-0.02819824,-0.01000977,0.05004883,0,0,-0.01403809,0,3.956,0,0,0,0,nan,2,0.133,1,128,0.1000061,0.1000061,0.1000061,0.1000061,0,0,0,1,2,0
1048.625,0.001008,-0.03320312,-0.0078125,0.001953125,3.515625,-0.390625,5.476562,0.01171875,0.001953125,0.01367188,0.1894531,0.06054688,0,-0.02807617,-0.01000977,0.0501709,0,0,-0.01403809,0,3.956,0,0,0,0,nan,2,0.143,1,128,0.1000061,0.1000061,0.1000061,0.1000061,0,0,0,1,2,0
1048.635,0.001006,-0.04101562,0.04296875,0.02148438,-0.90625,-5.640625,9.335938,-0.01953125,0.005859375,0.01171875,0.1894531,0.06054688,0,-0.02819824,-0.009887695,0.0501709,0,0,-0.01403809,0,3.956,0,0,0,0,nan,2,0.153,1,128,0.1000061,0.1000061,0.1000061,0.1000061,0,0,0,1,2,0
1048.645,0.001011,-0.046875,0.01367188,0.02929688,2.257812,4.609375,7.695312,-0.01953125,0.005859375,0.04101562,0.1894531,0.06054688,0,-0.02832031,-0.009765625,0.05053711,0,0,-0.01403809,0,3.956,0,0,0,0,nan,2,0.164,1,128,0.1000061,0.1000061,0.1000061,0.1000061,0,0,0,1,2,0
1048.655,0.001007,0.01757812,0.08203125,-0.01953125,-0.03125,-4.28125,10.0625,0.0078125,0.03320312,-0.0078125,0.1894531,0.06054688,0,-0.02832031,-0.009643555,0.05065918,0,0,-0.01403809,0,3.956,0,0,0,0,nan,2,0.174,1,128,0.1000061,0.1000061,0.1000061,0.1000061,0,0,0,1,2,0
1048.665,0.001008,-0.01953125,-0.01367188,0.04882812,0.9609375,-3.0625,3.960938,-0.01367188,-0.01171875,0.03710938,0.1894531,0.06054688,0,-0.02832031,-0.009643555,0.05078125,0,0,-0.01403809,0,3.956,0,0,0,0,nan,2,0.184,1,128,0.1000061,0.1000061,0.1000061,0.1000061,0,0,0,1,2,0
1048.675,0.001004,0.0078125,0.015625,-0.0390625,-2.390625,-2.820312,12.28906,-0.01171875,0.01171875,-0.01171875,0.1894531,0.06054688,0,-0.02832031,-0.009643555,0.05102539,0,0,-0.01403809,0,3.956,0,0,0,0,nan,2,0.194,1,128,0.1000061,0.1000061,0.1000061,0.1000061,0,0,0,1,2,0
1048.685,0.001034,-0.01953125,-0.04492188,0.00390625,-1.703125,0.140625,9.078125,0,-0.00390625,-0.01367188,0.1894531,0.06054688,0,-0.02844238,-0.009643555,0.05078125,0,0,-0.01403809,0,3.956,0,0,0,0,nan,2,0.004,1,128,0.1000061,0.1000061,0.1000061,0.1000061,0,0,0,1,2,0
1048.696,0.001013,-0.02734375,0.04296875,-0.01953125,1.6875,4.585938,10.97656,0.00390625,0.005859375,-0.0078125,0.1894531,0.06054688,0,-0.02832031,-0.009643555,0.05078125,0,0,-0.01403809,0,3.956,0,0,0,0,nan,2,0.015,1,128,0.1000061,0.1000061,0.1000061,0.1000061,0,0,0,1,2,0
1048.705,0.001012,0.0234375,0.03320312,0.01367188,1.695312,-1.804688,5.59375,-0.00390625,0.015625,-0.005859375,0.1894531,0.06054688,0,-0.02832031,-0.009643555,0.05065918,0,0,-0.01403809,0,3.956,0,0,0,0,nan,2,0.024,1,128,0.1000061,0.1000061,0.1000061,0.1000061,0,0,0,1,2,0
1048.715,0.001012,0,-0.03125,-0.00390625,-1.421875,-6.6875,9.296875,0.0078125,-0.01171875,0.00390625,0.1894531,0.06054688,0,-0.02832031,-0.009643555,0.05065918,0,0,-0.01403809,0,3.956,0,0,0,0,nan,2,0.034,1,128,0.1000061,0.1000061,0.1000061,0.1000061,0,0,0,1,2,0
1048.725,0.001012,0,0.06445312,-0.02148438,-0.390625,-1.234375,10.61719,0.0078125,0.01367188,-0.01757812,0.1894531,0.06054688,0,-0.02832031,-0.009643555,0.05053711,0,0,-0.01403809,0,3.956,0,0,0,0,nan,2,0.044,1,128,0.1000061,0.1000061,0.1000061,0.1000061,0,0,0,1,2,0
1048.735,0.001016,-0.02539062,-0.03320312,0.01757812,1.289062,0.53125,15.14844,-0.02929688,-0.005859375,0.0078125,0.1894531,0.06054688,0,-0.02844238,-0.009643555,0.05053711,0,0,-0.01403809,0,3.956,0,0,0,0,nan,2,0.055,1,128,0.1000061,0.1000061,0.1000061,0.1000061,0,0,0,1,2,0
1048.745,0.001023,0.03515625,-0.03710938,0.001953125,-0.8203125,-3.617188,2.3125,0.02148438,0.00390625,0.009765625,0.1894531,0.06054688,0,-0.02819824,-0.009521484,0.05065918,0,0,-0.01403809,0,3.956,0,0,0,0,nan,2,0.065,1,128,0.1000061,0.1000061,0.1000061,0.1000061,0,0,0,1,2,0
1048.755,0.001013,0.06640625,-0.0078125,0.05078125,0.890625,-1.125,10.76562,0.015625,-0.001953125,0.02539062,0.1894531,0.06054688,0,-0.02832031,-0.009521484,0.05078125,0,0,-0.01403809,0,3.956,0,0,0,0,nan,2,0.075,1,128,0.1000061,0.1000061,0.1000061,0.1000061,0,0,0,1,2,0
1048.765,0.001002,-0.009765625,-0.0234375,-0.009765625,-1.054688,-4.828125,13.17969,0.009765625,-0.01757812,0.0234375,0.1894531,0.06054688,0,-0.02819824,-0.009521484,0.05114746,0,0,-0.01403809,0,3.956,0,0,0,0,nan,2,0.085,1,128,0.1000061,0.1000061,0.1000061,0.1000061,0,0,0,1,2,0
1048.775,0.000991,-0.05859375,0.015625,0.01171875,0.4921875,0.7109375,10.34375,-0.0078125,0.009765625,-0.001953125,0.1894531,0.06054688,0,-0.02819824,-0.009521484,0.05114746,0,0,-0.01403809,0,3.956,0,0,0,0,nan,2,0.095,1,128,0.1000061,0.1000061,0.1000061,0.1000061,0,0,0,1,2,0
1048.785,0.001007,0.01367188,0.01953125,-0.0546875,-1.382812,1.078125,13.49219,-0.01171875,-0.005859375,-0.015625,0.1894531,0.06054688,0,-0.02832031,-0.009521484,0.05114746,0,0,-0.01403809,0,3.956,0,0,0,0,nan,2,0.105,1,128,0.1000061,0.1000061,0.1000061,0.1000061,0,0,0,1,2,0
1048.795,0.001009,0.01757812,0.01171875,-0.0234375,0.6953125,2.992188,14.125,-0.009765625,0.001953125,-0.046875,0.1894531,0.06054688,0,-0.02832031,-0.009521484,0.05065918,0,0,-0.01403809,0,3.956,0,0,0,0,nan,2,0.115,1,128,0.1000061,0.1000061,0.1000061,0.1000061,0,0,0,1,2,0
1048.805,0.001011,0.05273438,-0.01171875,-0.01367188,2.171875,-3.476562,8.96875,0.005859375,0.00390625,-0.0078125,0.1894531,0.06054688,0,-0.02832031,-0.009521484,0.05053711,0,0,-0.01403809,0,3.956,0,0,0,0,nan,2,0.124,1,128,0.1000061,0.1000061,0.1000061,0.1000061,0,0,0,1,2,0.7936508
1048.815,0.001016,-0.0078125,-0.01171875,-0.03710938,0.609375,-2.007812,8.484375,0.02148438,0.0078125,-0.04296875,0.1894531,0.06054688,0,-0.02832031,-0.009521484,0.05029297,0,0,-0.01403809,0,3.956,0,0,0,0,nan,2,0.134,1,128,0.1000061,0.1000061,0.1000061,0.1000061,0,0,0,1,2,0
1048.825,0.001009,-0.02929688,-0.02148438,-0.02929688,-2.28125,-5.429688,13.14062,-0.01953125,-0.0234375,-0.0234375,0.1894531,0.06054688,0,-0.02832031,-0.009643555,0.04992676,0,0,-0.01403809,0,3.956,0,0,0,0,nan,2,0.144,1,128,0.1000061,0.1000061,0.1000061,0.1000061,0,0,0,1,2,0
1048.835,0.001009,-0.02148438,0.015625,-0.04101562,0.828125,2.445312,13.22656,-0.009765625,0.02148438,-0.0390625,0.1894531,0.06054688,0,-0.02844238,-0.009521484,0.04956055,0,0,-0.01403809,0,3.956,0,0,0,0,nan,2,0.155,1,128,0.1000061,0.1000061,0.1000061,0.1000061,0,0,0,1,2,0
1048.845,0.001008,0.02148438,0,-0.01953125,-1.625,-5.164062,9.3125,0.01757812,-0.00390625,-0.03710938,0.1894531,0.06054688,0,-0.02832031,-0.009521484,0.04919434,0,0,-0.01403809,0,3.956,0,0,0,0,nan,2,0.165,1,128,0.1000061,0.1000061,0.1000061,0.1000061,0,0,0,1,2,0
1048.855,0.001007,-0.0234375,0.0390625,-0.03515625,-1.648438,-2.023438,6.320312,0.00390625,0.009765625,-0.03710938,0.1894531,0.06054688,0,-0.02832031,-0.009399414,0.04882812,0,0,-0.01403809,0,3.956,0,0,0,0,nan,2,0.175,1,128,0.1000061,0.1000061,0.1000061,0.1000061,0,0,0,1,2,0
1048.865,0.001006,0.09375,0.078125,-0.0234375,0.65625,2.203125,16.69531,0.015625,0.01367188,-0.04101562,0.1894531,0.06054688,0,-0.02844238,-0.009521484,0.04846191,0,0,-0.01403809,0,3.956,0,0,0,0,nan,2,0.185,1,128,0.1000061,0.1000061,0.1000061,0.1000061,0,0,0,1,2,0
1048.875,0.001006,0.03320312,-0.05078125,0.015625,-0.9609375,0.9765625,16.03906,-0.001953125,-0.005859375,0.01367188,0.1894531,0.06054688,0,-0.02844238,-0.009399414,0.04833984,0,0,-0.01403809,0,3.956,0,0,0,0,nan,2,0.195,1,128,0.1000061,0.1000061,0.1000061,0.1000061,0,0,0,1,2,0
1048.885,0.001034,-0.04101562,0.06640625,-0.04492188,-0.703125,4.609375,6.765625,0.001953125,0.01757812,-0.03320312,0.1894531,0.06054688,0,-0.02832031,-0.009521484,0.04821777,0,0,-0.01403809,0,3.957,0,0,0,0,nan,2,0.205,1,128,0.1000061,0.1000061,0.1000061,0.1000061,0,0,0,1,2,0
1048.895,0.001012,0.03710938,-0.06445312,-0.009765625,-0.6796875,2.726562,11.04688,-0.005859375,-0.009765625,-0.01757812,0.1894531,0.06054688,0,-0.02856445,-0.009399414,0.04797363,0,0,-0.01403809,0,3.957,0,0,0,0,nan,2,0,1,128,0.1000061,0.1000061,0.1000061,0.1000061,0,0,0,1,2,0
1048.906,0.001007,-0.03710938,0.0390625,-0.0703125,2.101562,-1.15625,8.632812,-0.001953125,0.01367188,-0.046875,0.1894531,0.06054688,0,-0.02844238,-0.009399414,0.04772949,0,0,-0.01403809,0,3.957,0,0,0,0,nan,2,0.01,1,128,0.1000061,0.1000061,0.1000061,0.1000061,0,0,0,1,2,0
1048.915,0.001021,-0.06054688,-0.02148438,-0.03710938,0.3984375,1.921875,15.50781,-0.03320312,-0.00390625,-0.05078125,0.1894531,0.06054688,0,-0.02856445,-0.009399414,0.04724121,0,0,-0.01403809,0,3.957,0,0,0,0,nan,2,0.019,1,128,0.1000061,0.1000061,0.1000061,0.1000061,0,0,0,1,2,0
1048.925,0.001056,0.05859375,-0.0234375,-0.046875,0.0390625,4.453125,11.00781,0.03320312,-0.015625,-0.03710938,0.1894531,0.06054688,0,-0.02856445,-0.009521484,0.046875,0,0,-0.01403809,0,3.957,0,0,0,0,nan,2,0.029,1,128,0.1000061,0.1000061,0.1000061,0.1000061,0,0,0,1,2,0
1048.935,0.001011,-0.0390625,-0.01953125,-0.03515625,-1.789062,-0.546875,11.46875,0.01953125,-0.01171875,-0.04101562,0.1894531,0.06054688,0,-0.02819824,-0.009643555,0.04638672,0,0,-0.01403809,0,3.957,0,0,0,0,nan,2,0.039,1,128,0.1000061,0.1000061,0.1000061,0.1000061,0,0,0,1,2,0
1048.945,0.001013,0.05078125,0.02148438,-0.02148438,0.5390625,1.570312,14.64062,0.02539062,0.001953125,-0.02539062,0.1894531,0.06054688,0,-0.02807617,-0.009643555,0.04614258,0,0,-0.01403809,0,3.957,0,0,0,0,nan,2,0.049,1,128,0.1000061,0.1000061,0.1000061,0.1000061,0,0,0,1,2,0
1048.955,0.001008,0.01171875,0.02148438,-0.02539062,-1.898438,1.78125,14.14062,0.009765625,0.015625,-0.02929688,0.1894531,0.06054688,0,-0.02807617,-0.009643555,0.04577637,0,0,-0.01403809,0,3.957,0,0,0,0,nan,2,0.06,1,128,0.1000061,0.1000061,0.1000061,0.1000061,0,0,0,1,2,0
1048.965,0.00101,0.01953125,-0.04101562,0,-0.1171875,3.65625,3.257812,0.01367188,-0.0234375,-0.015625,0.1894531,0.06054688,0,-0.02807617,-0.009643555,0.04553223,0,0,-0.01403809,0,3.957,0,0,0,0,nan,2,0.07,1,128,0.1000061,0.1000061,0.1000061,0.1000061,0,0,0,1,2,0
1048.975,0.001011,-0.01953125,0,0,2.703125,1.28125,8.609375,-0.00390625,0,0.0078125,0.1894531,0.06054688,0,-0.02807617,-0.009643555,0.04553223,0,0,-0.01403809,0,3.957,0,0,0,0,nan,2,0.08,1,128,0.1000061,0.1000061,0.1000061,0.1000061,0,0,0,1,2,0
1048.985,0.001011,-0.09765625,-0.02734375,-0.001953125,-1.320312,-7.15625,8.296875,-0.00390625,-0.01171875,-0.015625,0.1894531,0.06054688,0,-0.0279541,-0.009765625,0.04541016,0,0,-0.01403809,0,3.957,0,0,0,0,nan,2,0.09,1,128,0.1000061,0.1000061,0.1000061,0.1000061,0,0,0,1,2,0
1048.995,0.001011,-0.0546875,-0.005859375,0.046875,-0.671875,-2.382812,5.1875,0.001953125,-0.005859375,0.03125,0.1894531,0.06054688,0,-0.0279541,-0.009643555,0.04553223,0,0,-0.01403809,0,3.957,0,0,0,0,nan,2,0.1,1,128,0.1000061,0.1000061,0.1000061,0.1000061,0,0,0,1,2,0
1049.005,0.001011,-0.06835938,-0.00390625,-0.03125,-1.132812,-1.015625,14.82812,0.009765625,-0.01367188,-0.01171875,0.1894531,0.06054688,0,-0.02783203,-0.009765625,0.0456543,0,0,-0.01403809,0,3.957,0,0,0,0,nan,2,0.11,1,128,0.1000061,0.1000061,0.1000061,0.1000061,0,0,0,1,2,0
1049.015,0.001009,-0.05664062,0,0.015625,-0.7890625,-2.289062,6.875,-0.01171875,-0.00390625,-0.001953125,0.1894531,0.06054688,0,-0.02783203,-0.009887695,0.04553223,0,0,-0.01403809,0,3.957,0,0,0,0,nan,2,0.119,1,128,0.1000061,0.1000061,0.1000061,0.1000061,0,0,0,1,2,0
1049.025,0.001007,0.005859375,-0.01367188,-0.03125,1.984375,-5.03125,8.507812,0.01757812,-0.0078125,-0.009765625,0.1894531,0.06054688,0,-0.02783203,-0.009887695,0.04553223,0,0,-0.01403809,0,3.957,0,0,0,0,nan,2,0.129,1,128,0.1000061,0.1000061,0.1000061,0.1000061,0,0,0,1,2,0.4126984
1049.035,0.001006,-0.07421875,-0.04492188,-0.0234375,-0.0390625,-2.28125,7.546875,-0.01367188,0.001953125,-0.02734375,0.1894531,0.06054688,0,-0.02783203,-0.009765625,0.04528809,0,0,-0.01403809,0,3.957,0,0,0,0,nan,2,0.139,1,128,0.1000061,0.1000061,0.1000061,0.1000061,0,0,0,1,2,0
1049.045,0.001005,-0.06054688,0.0390625,-0.01171875,1.765625,-0.125,7.03125,-0.01367188,0.005859375,-0.005859375,0.1894531,0.06054688,0,-0.02783203,-0.009765625,0.04516602,0,0,-0.01403809,0,3.957,0,0,0,0,nan,2,0.149,1,128,0.1000061,0.1000061,0.1000061,0.1000061,0,0,0,1,2,0
1049.055,0.001007,-0.04492188,0.00390625,-0.015625,1.554688,-2.898438,6.007812,0,0,-0.01757812,0.1894531,0.06054688,0,-0.02783203,-0.009765625,0.04504395,0,0,-0.01403809,0,3.957,0,0,0,0,nan,2,0.16,1,128,0.1000061,0.1000061,0.1000061,0.1000061,0,0,0,1,2,0
1049.065,0.001005,-0.001953125,-0.005859375,0.005859375,-2.289062,-3.148438,14.03125,0.0078125,-0.01171875,-0.01171875,0.1894531,0.06054688,0,-0.0279541,-0.009643555,0.0447998,0,0,-0.01403809,0,3.957,0,0,0,0,nan,2,0.17,1,128,0.1000061,0.1000061,0.1000061,0.1000061,0,0,0,1,2,0
1049.075,0.001006,0.03515625,-0.009765625,0.0078125,-1.578125,2.140625,11.375,0.005859375,0.009765625,0,0.1894531,0.06054688,0,-0.0279541,-0.009643555,0.04467773,0,0,-0.01403809,0,3.957,0,0,0,0,nan,2,0.18,1,128,0.1000061,0.1000061,0.1000061,0.1000061,0,0,0,1,2,0
1049.085,0.001007,-0.0234375,-0.03515625,-0.009765625,2.023438,7.570312,12.96875,-0.01757812,-0.0078125,-0.00390625,0.1894531,0.06054688,0,-0.0279541,-0.009643555,0.04467773,0,0,-0.01403809,0,3.957,0,0,0,0,nan,2,0.19,1,128,0.1000061,0.1000061,0.1000061,0.1000061,0,0,0,1,2,0
1049.095,0.001006,0.001953125,0.03125,0.06640625,0.0859375,-1.125,10.47656,0.01953125,0.005859375,0.03515625,0.1894531,0.06054688,0,-0.0279541,-0.009643555,0.0447998,0,0,-0.01403809,0,3.957,0,0,0,0,nan,2,0.2,1,128,0.1000061,0.1000061,0.1000061,0.1000061,0,0,0,1,2,0
1049.105,0.001009,0,-0.02734375,0.01757812,-1.15625,-2.960938,16.57031,-0.01171875,-0.005859375,0.04296875,0.1894531,0.06054688,0,-0.02807617,-0.009765625,0.04528809,0,0,-0.01403809,0,3.957,0,0,0,0,nan,2,0.209,1,128,0.1000061,0.1000061,0.1000061,0.1000061,0,0,0,1,2,0
1049.115,0.001037,-0.04296875,-0.015625,-0.01953125,0.2734375,4.078125,9.367188,-0.009765625,-0.001953125,-0.015625,0.1894531,0.06054688,0,-0.0279541,-0.009765625,0.04528809,0,0,-0.01403809,0,3.957,0,0,0,0,nan,2,0.002,1,128,0.1000061,0.1000061,0.1000061,0.1000061,0,0,0,1,2,0.1587302
1049.125,0.001043,0.01367188,0.00390625,0.05859375,-1.140625,1.375,9.0625,0.00390625,0,0.04101562,0.1894531,0.06054688,0,-0.02807617,-0.009643555,0.04541016,0,0,-0.01403809,0,3.957,0,0,0,0,nan,2,0.012,1,128,0.1000061,0.1000061,0.1000061,0.1000061,0,0,0,1,2,0
1049.135,0.001006,-0.02148438,0.01171875,-0.0234375,2.109375,-1.734375,7.867188,-0.01757812,0.00390625,0.001953125,0.1894531,0.06054688,0,-0.02807617,-0.009765625,0.04577637,0,0,-0.01403809,0,3.957,0,0,0,0,nan,2,0.022,1,128,0.1000061,0.1000061,0.1000061,0.1000061,0,0,0,1,2,0
1049.145,0.001012,0.04492188,-0.005859375,0.05273438,-2.335938,-0.6875,9.671875,0.03125,-0.01171875,0.02929688,0.1894531,0.06054688,0,-0.0279541,-0.009765625,0.04577637,0,0,-0.01403809,0,3.957,0,0,0,0,nan,2,0.032,1,128,0.1000061,0.1000061,0.1000061,0.1000061,0,0,0,1,2,0.07936508
1049.155,0.001011,0.05664062,-0.02539062,0.01171875,1.367188,3.390625,6.953125,0.00390625,0.005859375,0.02734375,0.1894531,0.06054688,0,-0.0279541,-0.009765625,0.04614258,0,0,-0.01403809,0,3.957,0,0,0,0,nan,2,0.042,1,128,0.1000061,0.1000061,0.1000061,0.1000061,0,0,0,1,2,0
1049.165,0.001011,-0.03710938,0.08203125,0.015625,2.546875,0.4921875,5.328125,-0.01367188,0.02929688,0.0078125,0.1894531,0.06054688,0,-0.0279541,-0.009765625,0.04626465,0,0,-0.01403809,0,3.957,0,0,0,0,nan,2,0.052,1,128,0.1000061,0.1000061,0.1000061,0.1000061,0,0,0,1,2,0
1049.175,0.001011,0.03515625,-0.05664062,0.04101562,-0.390625,-4.046875,8.523438,0.01367188,-0.01953125,0.03710938,0.1894531,0.06054688,0,-0.02807617,-0.009765625,0.04650879,0,0,-0.01403809,0,3.957,0,0,0,0,nan,2,0.063,1,128,0.1000061,0.1000061,0.1000061,0.1000061,0,0,0,1,2,0.2539683
1049.185,0.001011,-0.03125,0.05078125,0.005859375,-2.421875,-4.515625,5.203125,-0.009765625,0.02148438,0.02148438,0.1894531,0.06054688,0,-0.0279541,-0.009765625,0.046875,0,0,-0.01403809,0,3.957,0,0,0,0,nan,2,0.073,1,128,0.1000061,0.1000061,0.1000061,0.1000061,0,0,0,1,2,0
1049.195,0.001011,0.05273438,-0.02539062,0.05664062,0.46875,0.46875,9.546875,0.02929688,-0.01953125,0.02539062,0.1894531,0.06054688,0,-0.0279541,-0.009765625,0.04699707,0,0,-0.01403809,0,3.957,0,0,0,0,nan,2,0.083,1,128,0.1000061,0.1000061,0.1000061,0.1000061,0,0,0,1,2,0.4761905
1049.205,0.001011,0.03125,0.00390625,0.01367188,-0.2421875,-3.484375,17.57031,-0.005859375,0.001953125,0.03125,0.1894531,0.06054688,0,-0.0279541,-0.009765625,0.04736328,0,0,-0.01403809,0,3.957,0,0,0,0,nan,2,0.093,1,128,0.1000061,0.1000061,0.1000061,0.1000061,0,0,0,1,2,0
1049.215,0.001009,-0.07617188,-0.04101562,0.00390625,0.46875,-0.4296875,11.96094,-0.015625,-0.01367188,0.001953125,0.1894531,0.06054688,0,-0.02783203,-0.009765625,0.04748535,0,0,-0.01403809,0,3.957,0,0,0,0,nan,2,0.102,1,128,0.1000061,0.1000061,0.1000061,0.1000061,0,0,0,1,2,0
1049.225,0.001006,0.04296875,0.0390625,-0.03515625,2.085938,0.109375,2.03125,0.0234375,0.015625,-0.005859375,0.1894531,0.06054688,0,-0.0279541,-0.009765625,0.04748535,0,0,-0.01403809,0,3.957,0,0,0,0,nan,2,0.112,1,128,0.1000061,0.1000061,0.1000061,0.1000061,0,0,0,1,2,0
1049.235,0.001005,0.01367188,-0.001953125,-0.03125,-1.164062,-4.34375,5.210938,-0.01367188,0.01171875,-0.03710938,0.1894531,0.06054688,0,-0.0279541,-0.009643555,0.04724121,0,0,-0.01403809,0,3.957,0,0,0,0,nan,2,0.122,1,128,0.1000061,0.1000061,0.1000061,0.1000061,0,0,0,1,2,0
1049.245,0.001009,-0.03125,-0.01757812,-0.02539062,2.726562,4.71875,8.828125,-0.0078125,-0.009765625,-0.001953125,0.1894531,0.06054688,0,-0.0279541,-0.009765625,0.04711914,0,0,-0.01403809,0,3.957,0,0,0,0,nan,2,0.132,1,128,0.1000061,0.1000061,0.1000061,0.1000061,0,0,0,1,2,0
1049.255,0.001005,-0.03710938,0.0078125,-0.04101562,-1.8125,-2.460938,5.71875,0.00390625,-0.00390625,-0.03515625,0.1894531,0.06054688,0,-0.02783203,-0.009765625,0.046875,0,0,-0.01403809,0,3.957,0,0,0,0,nan,2,0.142,1,128,0.1000061,0.1000061,0.1000061,0.1000061,0,0,0,1,2,0
1049.265,0.001005,0.009765625,-0.04296875,-0.01171875,-0.1953125,-1.117188,5,0.01171875,-0.00390625,-0.02148438,0.1894531,0.06054688,0,-0.0279541,-0.009643555,0.04650879,0,0,-0.01403809,0,3.957,0,0,0,0,nan,2,0.152,1,128,0.1000061,0.1000061,0.1000061,0.1000061,0,0,0,1,2,0
1049.275,0.001008,-0.00390625,0.04296875,-0.04492188,2.335938,-2.453125,3.71875,-0.02539062,0.005859375,-0.03710938,0.1894531,0.06054688,0,-0.0279541,-0.009765625,0.04626465,0,0,-0.01403809,0,3.957,0,0,0,0,nan,2,0.163,1,128,0.1000061,0.1000061,0.1000061,0.1000061,0,0,0,1,2,0
1049.285,0.001008,-0.05273438,-0.01953125,0.04101562,-0.3046875,-4.195312,11.5,0.01757812,-0.00390625,-0.001953125,0.1894531,0.06054688,0,-0.0279541,-0.009765625,0.04602051,0,0,-0.01403809,0,3.957,0,0,0,0,nan,2,0.173,1,128,0.1000061,0.1000061,0.1000061,0.1000061,0,0,0,1,2,0
1049.295,0.001008,0.001953125,0.0546875,0.01367188,-2.75,-4.523438,7.851562,-0.001953125,0.0078125,0.01367188,0.1894531,0.06054688,0,-0.02807617,-0.009765625,0.04614258,0,0,-0.01403809,0,3.957,0,0,0,0,nan,2,0.183,1,128,0.1000061,0.1000061,0.1000061,0.1000061,0,0,0,1,2,0.3015873
1049.305,0.001012,-0.0078125,-0.0390625,0.01757812,-0.4921875,0.0703125,6.0625,0.02148438,-0.0078125,0.00390625,0.1894531,0.06054688,0,-0.0279541,-0.009765625,0.04626465,0,0,-0.01403809,0,3.957,0,0,0,0,nan,2,0.192,1,0,0.1000061,0.1000061,0.1000061,0.1000061,0,0,0,1,2,0
1049.315,0.00101,0.07421875,0.01171875,0.05859375,0.59375,1.414062,4.679688,0.01367188,-0.001953125,0.05078125,0.1894531,0.06054688,0,-0.02819824,-0.009765625,0.04650879,0,0,-0.01403809,0,3.957,0,0,0,0,nan,2,0.202,1,0,0.1000061,0.1000061,0.1000061,0.1000061,0,0,0,1,2,0
1049.325,0.00101,-0.02148438,0.01171875,-0.005859375,-0.578125,-4.671875,8.539062,-0.01367188,0.005859375,0,0.1894531,0.06054688,0,-0.02807617,-0.009765625,0.046875,0,0,-0.01403809,0,3.957,0,0,0,0,nan,2,0.212,1,0,0.1000061,0.1000061,0.1000061,0.1000061,0,0,0,1,2,0.8253968
1049.335,0.00101,-0.015625,-0.01171875,0.04492188,2.265625,-2.757812,4.546875,0.00390625,-0.015625,0.04101562,0.1894531,0.06054688,0,-0.02807617,-0.009765625,0.04699707,0,0,-0.01403809,0,3.957,0,0,0,0,nan,2,0.222,1,0,0.1000061,0.1000061,0.1000061,0.1000061,0,0,0,1,2,0
1049.345,0.001011,0.06835938,-0.0234375,-0.03710938,-0.390625,0.3828125,8.828125,0.02539062,-0.00390625,-0.01367188,0.1894531,0.06054688,0,-0.02807617,-0.009643555,0.04724121,0,0,-0.01403809,0,3.957,0,0,0,0,nan,2,0.232,1,0,0.1000061,0.1000061,0.1000061,0.1000061,0,0,0,1,2,0
1049.355,0.001012,0.03125,-0.009765625,0.005859375,3.359375,2.5,4.265625,0.001953125,0,0.005859375,0.1894531,0.06054688,0,-0.02807617,-0.009643555,0.04711914,0,0,-0.01403809,0,3.957,0,0,0,0,nan,2,0.242,1,0,0.1000061,0.1000061,0.1000061,0.1000061,0,0,0,1,2,0
1049.365,0.00101,0.015625,0.03710938,-0.03125,-0.2265625,-5.085938,7.460938,-0.01367188,0.015625,-0.02148438,0.1894531,0.06054688,0,-0.02807617,-0.009643555,0.04711914,0,0,-0.01403809,0,3.957,0,0,0,0,nan,2,0.252,1,0,0.1000061,0.1000061,0.1000061,0.1000061,0,0,0,1,2,0
1049.375,0.000997,-0.01953125,-0.00390625,0.001953125,-1.320312,-3.601562,7.75,-0.009765625,-0.0078125,-0.0078125,0.1894531,0.06054688,0,-0.02819824,-0.009643555,0.046875,0,0,-0.01403809,0,3.957,0,0,0,0,nan,2,0.263,1,0,0.1000061,0.1000061,0.1000061,0.1000061,0,0,0,1,2,0
1049.385,0.000993,0.03320312,-0.0234375,0,0.546875,-1.414062,9.132812,0.02148438,0.015625,0.001953125,0.1894531,0.06054688,0,-0.02819824,-0.009521484,0.046875,0,0,-0.01403809,0,3.957,0,0,0,0,nan,2,0.273,1,0,0.1000061,0.1000061,0.1000061,0.1000061,0,0,0,1,2,0
1049.395,0.00101,0.07226562,0.02929688,-0.01757812,0.4296875,-1.546875,18.19531,-0.005859375,-0.00390625,-0.015625,0.1894531,0.06054688,0,-0.02819824,-0.009643555,0.046875,0,0,-0.01403809,0,3.957,0,0,0,0,nan,2,0.283,1,0,0.1000061,0.1000061,0.1000061,0.1000061,0,0,0,1,2,0
1049.405,0.001037,-0.02734375,0.01367188,0.04296875,-0.6328125,0.390625,13.07812,-0.01171875,0.00390625,0.02539062,0.1894531,0.06054688,0,-0.02819824,-0.009643555,0.046875,0,0,-0.01403809,0,3.957,0,0,0,0,nan,2,0.009,1,0,0.1000061,0.1000061,0.1000061,0.1000061,0,0,0,1,2,0
1049.415,0.000992,0.005859375,-0.01953125,-0.0234375,1.039062,-3.921875,3.40625,0.02539062,-0.01757812,0,0.1894531,0.06054688,0,-0.02819824,-0.009643555,0.04699707,0,0,-0.01403809,0,3.957,0,0,0,0,nan,2,0.018,1,0,0.1000061,0.1000061,0.1000061,0.1000061,0,0,0,1,2,0
1049.425,0.001014,0.01953125,-0.01171875,0.009765625,0.234375,-1.96875,5.578125,0.01171875,-0.005859375,-0.009765625,0.1894531,0.06054688,0,-0.02819824,-0.009643555,0.046875,0,0,-0.01403809,0,3.957,0,0,0,0,nan,2,0.028,1,0,0.1000061,0.1000061,0.1000061,0.1000061,0,0,0,1,2,0
1049.435,0.001014,0.06640625,-0.03515625,-0.03710938,-1.71875,-5.117188,12.35156,0.02539062,-0.01953125,-0.02539062,0.1894531,0.06054688,0,-0.02819824,-0.009643555,0.046875,0,0,-0.01403809,0,3.957,0,0,0,0,nan,2,0.038,1,0,0.1000061,0.1000061,0.1000061,0.1000061,0,0,0,1,2,0
1049.445,0.001011,-0.00390625,-0.02148438,0.005859375,-1.226562,-3.40625,4.039062,0.001953125,-0.00390625,-0.03125,0.1894531,0.06054688,0,-0.02832031,-0.009643555,0.04638672,0,0,-0.01403809,0,3.957,0,0,0,0,nan,2,0.048,1,0,0.1000061,0.1000061,0.1000061,0.1000061,0,0,0,1,2,0
1049.455,0.001017,0.03710938,-0.0546875,-0.03515625,-1.085938,-6.125,7.28125,0.009765625,-0.01367188,-0.01367188,0.1894531,0.06054688,0,-0.02844238,-0.009643555,0.04638672,0,0,-0.01403809,0,3.957,0,0,0,0,nan,2,0.059,1,0,0.1000061,0.1000061,0.1000061,0.1000061,0,0,0,1,2,0.5079365
1049.465,0.001064,0.0546875,0.04101562,-0.01953125,1.945312,-0.9140625,7.25,0.02148438,0.01757812,-0.03710938,0.1894531,0.06054688,0,-0.02832031,-0.009643555,0.04589844,0,0,-0.01403809,0,3.957,0,0,0,0,nan,2,0.069,1,0,0.1000061,0.1000061,0.1000061,0.1000061,0,0,0,1,2,0
1049.475,0.001011,0.01171875,-0.01953125,0.009765625,-0.8984375,-2.90625,15.61719,-0.01171875,0.01171875,-0.001953125,0.1894531,0.06054688,0,-0.02844238,-0.009521484,0.04577637,0,0,-0.01403809,0,3.957,0,0,0,0,nan,2,0.079,1,0,0.1000061,0.1000061,0.1000061,0.1000061,0,0,0,1,2,0
1049.485,0.001015,0.04882812,0.06835938,-0.01757812,-1.5,1.601562,13.97656,-0.009765625,0.0234375,-0.01367188,0.1894531,0.06054688,0,-0.02856445,-0.009399414,0.04577637,0,0,-0.01403809,0,3.957,0,0,0,0,nan,2,0.089,1,0,0.1000061,0.1000061,0.1000061,0.1000061,0,0,0,1,2,0
1049.495,0.000984,-0.015625,-0.0546875,0.01367188,0.625,5.132812,7.820312,-0.01171875,-0.01757812,0.00390625,0.171875,0.05664062,0,-0.02856445,-0.009399414,0.0456543,0,0,-0.01403809,0.1589355,3.957,0,0,0,0.1199951,nan,2,0.005,1,0,0.199707,0.1325989,0.155365,0.1481323,0,0,0,1,2,0.0952381
1049.505,0.001009,0.0625,0.0078125,0.0390625,-1.476562,-2.359375,6.914062,0.02148438,-0.0078125,0.02929688,0.171875,0.05664062,0,-0.02856445,-0.009399414,0.04589844,0,0,-0.01403809,0.1589355,3.957,0,0,0,0.1199951,nan,2,0.014,1,0,0.1975098,0.1286316,0.1790466,0.1305847,0,0,0,1,2,0
1049.515,0.001022,-0.04882812,-0.03125,0.05664062,-0.296875,3.992188,11.52344,0.0078125,-0.005859375,0.05078125,0.1699219,0.05664062,0,-0.02819824,-0.009399414,0.04626465,0,0,-0.01403809,0.1589355,3.957,0,0,0,0.1199951,nan,2,0.024,1,0,0.2127075,0.1152039,0.1744385,0.1334229,0,0,0,1,2,0
1049.525,0.00101,0.02148438,-0.0390625,0.01367188,-2.242188,-3.585938,15.45312,0.01953125,-0.01171875,0.02539062,0.1699219,0.05664062,0,-0.02819824,-0.009521484,0.04663086,0,0,-0.01403809,0.1589355,3.957,0,0,0,0.1199951,nan,2,0.034,1,0,0.15979,0.168457,0.1354065,0.1721497,0.0009765625,0,0,1,2,0
1049.535,0.001028,0.03320312,-0.03125,0.07226562,-0.625,3.125,14.39844,-0.0078125,-0.0078125,0.04492188,0.1699219,0.05664062,0,-0.02832031,-0.009643555,0.046875,0,0,-0.01403809,0.1589355,3.946,0,0,0,0.1199951,nan,2,0.045,1,0,0.2198486,0.1072998,0.190918,0.1177063,0.0009765625,0,0,1,2,0
1049.545,0.000764,-0.0234375,0.04101562,0.046875,0.25,1.914062,8.859375,-0.02929688,-0.01171875,0.06640625,0.171875,0.05859375,0,-0.02844238,-0.009643555,0.04760742,0,0,-0.01403809,0.2894592,3.946,0,0,0,0.2750244,nan,2,0.006,1,128,0.3317261,0.2544556,0.2910156,0.2807007,0.0009765625,0,0,1,2,0
1049.555,0.001035,0.01367188,-0.02539062,0.02734375,0.5078125,7.117188,17.28906,0.00390625,0.0078125,0.02929688,0.171875,0.05664062,0,-0.02856445,-0.009521484,0.0480957,0,0,-0.01403809,0.2894592,3.946,0,0,0,0.2750244,nan,2,0.016,1,128,0.2821045,0.3052063,0.256134,0.3144836,0.0009765625,0,0,1,2,0
1049.565,0.001004,0.04296875,-0.015625,0.05859375,2.28125,-6.007812,8.796875,-0.04492188,0.001953125,0.046875,0.1738281,0.05664062,0,-0.02893066,-0.009399414,0.04833984,0,0,-0.01403809,0.2894592,3.946,0,0,0,0.2750244,nan,2,0.026,1,128,0.3453674,0.2437744,0.3052673,0.2634888,0.0009765625,0,0,1,2,0
1049.575,0.001008,-0.03320312,0.02734375,0.0390625,-0.25,1.1875,17.10938,-0.02929688,0.01953125,0.0625,0.1738281,0.0546875,0,-0.02905273,-0.009277344,0.04907227,0,0,-0.01403809,0.2894592,3.946,0,0,0,0.2750244,nan,2,0.036,1,128,0.3175964,0.264679,0.28125,0.2943726,0.001953125,0.0009765625,0,1,2,0
1049.585,0.001008,0.001953125,0.046875,0.046875,-1.648438,-4.953125,14.33594,-0.009765625,0.01367188,0.05273438,0.1738281,0.0546875,0,-0.02905273,-0.009155273,0.04956055,0,0,-0.01403809,0.2894592,3.946,0,0,0,0.2750244,nan,2,0.046,1,128,0.3117981,0.269043,0.2855225,0.2915039,0.001953125,0.0009765625,0,1,2,0
1049.595,0.001017,-0.06835938,0.01171875,0.05273438,-3.578125,2.953125,10.23438,-0.01367188,-0.01953125,0.0390625,0.1738281,0.05664062,0,-0.0291748,-0.009277344,0.04992676,0,0,-0.01403809,0.2894592,3.946,0,0,0,0.2750244,nan,2,0.055,1,128,0.3228455,0.2675171,0.280304,0.287262,0.001953125,0.0009765625,0,1,2,0
1049.605,0.001007,0.001953125,0.0078125,0.046875,-1.164062,2.828125,19.14844,-0.0078125,0.01367188,0.06835938,0.1757812,0.0546875,0,-0.02929688,-0.009155273,0.05065918,0,0,-0.01403809,0.44104,3.946,0,0,0,0.4550171,nan,2,0.006,1,128,0.4719849,0.4130859,0.4460449,0.4331055,0.001953125,0.0009765625,0,1,2,0
1049.615,0.00101,0.05664062,0.01757812,0.00390625,1.75,-3.078125,5.828125,0.01171875,0.005859375,0.02539062,0.1757812,0.0546875,0,-0.02929688,-0.009155273,0.05114746,0,0,-0.01403809,0.44104,3.946,0,0,0,0.4550171,nan,2,0.016,1,128,0.4234009,0.4632568,0.3981018,0.4794617,0.001953125,0.0009765625,0,1,2,0
1049.625,0.00101,0.0546875,0.01367188,0.09179688,0.9765625,1.25,15.33594,0.04882812,0.01171875,0.03515625,0.1738281,0.0546875,0,-0.02893066,-0.009033203,0.05114746,0,0,-0.01403809,0.44104,3.946,0,0,0,0.4550171,nan,2,0.026,1,128,0.5032654,0.3833313,0.4884033,0.3892517,0.001953125,0.0009765625,0,1,2,0
1049.635,0.001031,0.0859375,-0.03515625,0,0.3125,1.625,12.78906,0.0390625,-0.00390625,0.05078125,0.171875,0.0546875,0,-0.02880859,-0.009033203,0.05175781,0,0,-0.01403809,0.44104,3.946,0,0,0,0.4550171,nan,2,0.036,1,128,0.4582825,0.4326477,0.4353333,0.4379578,0.002929688,0.0009765625,0,1,2,0
1049.645,0.001028,0.009765625,-0.01367188,0.04492188,0.8984375,0.578125,8.007812,0.00390625,-0.0078125,0.02929688,0.171875,0.0546875,0,-0.02856445,-0.009155273,0.05212402,0,0,-0.01403809,0.44104,3.946,0,0,0,0.4550171,nan,2,0.046,1,128,0.4645386,0.4289246,0.4230957,0.4476624,0.002929688,0.0009765625,0,1,2,0
1049.656,0.001021,-0.1171875,-0.0078125,0.07226562,1.210938,-2.195312,7.34375,-0.04492188,-0.005859375,0.06054688,0.171875,0.0546875,0,-0.02868652,-0.009155273,0.0526123,0,0,-0.01403809,0.5547485,3.946,0,0,0,0.5900269,nan,2,0,1,128,0.6268311,0.4941406,0.569397,0.5285645,0.002929688,0.0009765625,0,1,2,0
1049.665,0.001005,0.01171875,0.03515625,-0.005859375,-1.429688,0.6015625,13.375,-0.0078125,0.015625,0.02539062,0.1738281,0.0546875,0,-0.02905273,-0.009155273,0.05310059,0,0,-0.01403809,0.5547485,3.946,0,0,0,0.5900269,nan,2,0.01,1,128,0.5285339,0.5786133,0.5108643,0.6009521,0.002929688,0.0009765625,0,1,2,0
1049.675,0.001023,0.05273438,-0.07617188,-0.0625,1.921875,-3.148438,8.671875,0.0234375,-0.009765625,-0.04296875,0.1738281,0.0546875,0,-0.02905273,-0.009033203,0.05297852,0,0,-0.01403809,0.5547485,3.946,0,0,0,0.5900269,nan,2,0.02,1,128,0.4970703,0.6318665,0.4627686,0.6272278,0.002929688,0.0009765625,0,1,2,0.1746032
1049.685,0.001008,0.03125,0.04296875,-0.109375,0.109375,0.453125,11.26562,0.03710938,0.02734375,-0.09179688,0.1738281,0.05273438,0,-0.02893066,-0.008911133,0.05224609,0,0,-0.01403809,0.5547485,3.946,0,0,0,0.5900269,nan,2,0.03,1,128,0.4805298,0.6313477,0.4648438,0.6422424,0.002929688,0.0009765625,0,1,2,0
1049.694,0.001022,-0.005859375,-0.03515625,-0.1699219,-0.34375,-0.0625,7.71875,-0.01757812,-0.01367188,-0.1425781,0.1738281,0.05273438,0,-0.02905273,-0.008911133,0.05114746,0,0,-0.01403809,0.5547485,3.946,0,0,0,0.5900269,nan,2,0.039,1,128,0.4812317,0.644989,0.4318237,0.6608887,0.00390625,0.0009765625,0,1,2,0
1049.705,0.001019,0.001953125,0.05859375,-0.1757812,1.148438,-0.7890625,9.21875,-0.001953125,0.02734375,-0.1777344,0.1738281,0.05273438,0,-0.02905273,-0.008789062,0.04943848,0,0,-0.01403809,0.6642151,3.946,0,0,0,0.7199707,nan,2,0.004,1,128,0.59729,0.7304382,0.5686951,0.7604065,0.00390625,0.0009765625,0,1,2,0.01587302
1049.715,0.00101,0.005859375,-0.04101562,-0.1914062,-2.40625,-0.46875,13.08594,0.00390625,-0.01171875,-0.1835938,0.1738281,0.05273438,0,-0.02905273,-0.008789062,0.04772949,0,0,-0.01403809,0.6642151,3.946,0,0,0,0.7199707,nan,2,0.014,1,128,0.6142578,0.7314758,0.5715332,0.739563,0.00390625,0.0009765625,0,1,2,0
1049.725,0.00101,0.046875,0.001953125,-0.2207031,1.546875,-3.46875,8.101562,0.01367188,0.00390625,-0.2207031,0.1738281,0.05273438,0,-0.0291748,-0.008666992,0.0456543,0,0,-0.01403809,0.6642151,3.946,0,0,0,0.7199707,nan,2,0.024,1,128,0.5836792,0.7527466,0.5516663,0.7687378,0.00390625,0.0009765625,0,1,2,0
1049.735,0.001051,0.1152344,-0.015625,-0.234375,-0.8984375,3.28125,12.66406,0,0.0234375,-0.2265625,0.1757812,0.05078125,0,-0.02929688,-0.008666992,0.04333496,0,0,-0.01403809,0.6642151,3.946,0,0,0,0.7199707,nan,2,0.034,1,128,0.5968018,0.7363586,0.5657349,0.7579346,0.00390625,0.0009765625,0,1,2,0
1049.745,0.00097,0.1035156,-0.02148438,-0.1699219,1.476562,-5.125,7.429688,0.03515625,-0.01757812,-0.2207031,0.1757812,0.05273438,0,-0.02941895,-0.008666992,0.04101562,0,0,-0.01403809,0.6642151,3.946,0,0,0,0.7199707,nan,2,0.044,1,128,0.6434021,0.7019653,0.6173706,0.6941223,0.004882812,0.0009765625,0,1,2,0
1049.755,0.000997,-0.1269531,0.03710938,-0.2089844,-2.4375,2.25,12.5625,-0.01367188,0.01171875,-0.2246094,0.1757812,0.05273438,0,-0.02929688,-0.008789062,0.03869629,0,0,-0.01403809,0.7568359,3.946,0,0,0,0.8300171,nan,2,0.007,1,128,0.7235718,0.7955627,0.678894,0.8293152,0.004882812,0.0009765625,0,1,2,0
1049.765,0.001008,0.1484375,-0.1230469,-0.15625,0.984375,-6.851562,6.789062,0.1328125,-0.03320312,-0.1796875,0.1738281,0.05078125,0,-0.02905273,-0.008422852,0.03662109,0,0,-0.01403809,0.7568359,3.946,0,0,0,0.8300171,nan,2,0.017,1,128,0.7606201,0.7911072,0.7417603,0.7338867,0.004882812,0.0009765625,0,1,2,0.4285714
1049.775,0.001013,-0.1289062,0.1660156,-0.2011719,-1.046875,-0.8203125,11.60156,-0.0625,0.04296875,-0.1933594,0.1738281,0.05273438,0,-0.02905273,-0.008911133,0.03479004,0,0,-0.01403809,0.7568359,3.946,0,0,0,0.8300171,nan,2,0.027,1,128,0.7125244,0.7771301,0.6671753,0.8705444,0.004882812,0.001953125,0,1,2,0
1049.785,0.001012,-0.001953125,-0.04101562,-0.21875,-1.007812,1.742188,7.851562,-0.04492188,0.0546875,-0.2207031,0.1777344,0.04882812,0,-0.02966309,-0.00793457,0.03259277,0,0,-0.01403809,0.7568359,3.946,0,0,0,0.8300171,nan,2,0.037,1,128,0.7058105,0.8222961,0.6584473,0.8408203,0.004882812,0.0009765625,0,1,2,0
1049.795,0.000999,-0.1015625,0.09570312,-0.2539062,-0.109375,-3.835938,9.898438,-0.01953125,0.0703125,-0.2460938,0.1777344,0.04492188,0,-0.02954102,-0.007568359,0.03027344,0,0,-0.01403809,0.7568359,3.946,0,0,0,0.8300171,nan,2,0.047,1,128,0.6766663,0.8286438,0.638031,0.8840637,0.004882812,0.0009765625,0,1,2,0
1049.805,0.001011,-0.0078125,-0.01757812,-0.2128906,0.3671875,1.476562,10.29688,-0.03320312,-0.0078125,-0.2265625,0.1816406,0.04296875,0,-0.03015137,-0.007080078,0.02783203,0,0,-0.01403809,0.8326416,3.946,0,0,0,0.9199829,nan,2,0.008,1,128,0.815094,0.8790283,0.7557068,0.8807068,0.005859375,0.0009765625,0,1,2,0
1049.815,0.001018,0.1386719,-0.08007812,-0.2695312,-2.109375,0.2890625,8.601562,-0.015625,-0.01171875,-0.2636719,0.1816406,0.04296875,0,-0.03015137,-0.007202148,0.0255127,0,0,-0.01403809,0.8326416,3.946,0,0,0,0.9199829,nan,2,0.017,1,128,0.7492065,0.9339294,0.6991882,0.9482117,0.005859375,0.001953125,0,1,2,0
1049.825,0.00101,0.02734375,-0.01953125,-0.3183594,0.8125,-1.296875,8.789062,0.01953125,0.01367188,-0.3085938,0.1796875,0.04296875,0,-0.03015137,-0.007202148,0.02258301,0,0,-0.01403809,0.8326416,3.946,0,0,0,0.9199829,nan,2,0.027,1,128,0.7262268,0.944458,0.6982422,0.9616089,0.005859375,0.001953125,0,1,2,0
1049.835,0.00101,0.02734375,-0.02929688,-0.3828125,1.492188,0.40625,6.078125,0.009765625,-0.01171875,-0.359375,0.1796875,0.04492188,0,-0.02990723,-0.007324219,0.01916504,0,0,-0.01403809,0.8326416,3.946,0,0,0,0.9199829,nan,2,0.037,1,128,0.7036133,0.9762268,0.6542053,0.9964905,0.005859375,0.001953125,0,1,2,0
1049.845,0.000991,0.0625,0.009765625,-0.3574219,-0.515625,3.421875,8.804688,0.03125,0.04101562,-0.3828125,0.1796875,0.04296875,0,-0.02990723,-0.007080078,0.01538086,0,0,-0.01403809,0.8326416,3.946,0,0,0,0.9199829,nan,2,0.047,1,128,0.7153931,0.9498596,0.6954041,0.9698792,0.005859375,0.001953125,0,1,2,0.03174603
1049.855,0.000946,-0.03320312,0,-0.3339844,-0.5546875,-5.984375,10.17188,-0.00390625,0.01953125,-0.3398438,0.1796875,0.04101562,0,-0.0300293,-0.006958008,0.01171875,0,0,-0.01403809,0.8999939,3.946,0,0,0,1,nan,2,0.003,1,128,0.8430786,0.9660034,0.7974854,0.9934387,0.006835938,0.001953125,0,1,2,0
1049.865,0.001042,0.03320312,-0.009765625,-0.34375,2.367188,4.390625,13.67969,-0.015625,0.01757812,-0.3359375,0.1816406,0.04101562,0,-0.03015137,-0.006835938,0.008422852,0,0,-0.01403809,0.8999939,3.946,0,0,0,1,nan,2,0.013,1,128,0.8075256,0.9709167,0.7621155,1,0.006835938,0.001953125,0,1,2,0
1049.875,0.001007,0.08398438,-0.00390625,-0.34375,-0.1484375,-0.9375,11.42188,0.02148438,-0.0234375,-0.34375,0.1816406,0.04296875,0,-0.03015137,-0.006958008,0.004882812,0,0,-0.01403809,0.8999939,3.946,0,0,0,1,nan,2,0.023,1,128,0.8024902,0.9968872,0.7619019,1,0.006835938,0.001953125,0,1,2,0
1049.885,0.001008,0.05664062,-0.0234375,-0.3300781,-1.859375,-0.1796875,7.085938,-0.02539062,-0.005859375,-0.3457031,0.1816406,0.04296875,0,-0.03015137,-0.007080078,0.001464844,0,0,-0.01403809,0.8999939,3.946,0,0,0,1,nan,2,0.033,1,128,0.8145142,0.9656982,0.7578125,1,0.006835938,0.001953125,0,1,2,0
1049.895,0.001007,-0.1308594,0,-0.3769531,1.96875,1,8.9375,-0.04101562,0.001953125,-0.3515625,0.1816406,0.04296875,0,-0.03015137,-0.007202148,-0.002075195,0,0,-0.01403809,0.8999939,3.946,0,0,0,1,nan,2,0.043,1,128,0.7703552,0.9525452,0.7037048,1,0.006835938,0.001953125,0,1,2,0
1049.905,0.001008,0.1152344,-0.015625,-0.3886719,-0.9375,-0.96875,4.960938,0.03710938,0.00390625,-0.3984375,0.1816406,0.04296875,0,-0.03015137,-0.007324219,-0.005859375,0,0,-0.01403809,0.8999939,3.946,0,0,0,1,nan,2,0.054,1,128,0.7047424,0.9916382,0.6806641,1,0.0078125,0.001953125,0,1,2,0
1049.915,0.001013,-0.001953125,-0.0625,-0.3964844,1.164062,1.101562,11.07812,-0.00390625,0.01367188,-0.4042969,0.1816406,0.04296875,0,-0.03015137,-0.007324219,-0.009521484,0,0,-0.01403809,0.8999939,3.946,0,0,0,1,nan,2,0.063,1,128,0.7388611,0.9679871,0.6872864,1,0.0078125,0.001953125,0,1,2,0
1049.925,0.001012,-0.03320312,0.015625,-0.4179688,-0.84375,-2.648438,14.75781,0.0078125,0.02148438,-0.4277344,0.1796875,0.04296875,0,-0.0300293,-0.007324219,-0.01367188,0,0,-0.01403809,0.8999939,3.946,0,0,0,1,nan,2,0.073,1,128,0.694458,0.9663391,0.6543579,1,0.0078125,0.001953125,0,1,2,0
1049.935,0.001013,0.06054688,-0.05273438,-0.3984375,-0.1953125,3.007812,5.570312,0.03125,0.00390625,-0.4101562,0.1796875,0.04296875,0,-0.02990723,-0.007324219,-0.01794434,0,0,-0.01403809,0.8999939,3.946,0,0,0,1,nan,2,0.083,1,128,0.8002319,0.9845886,0.7623596,1,0.0078125,0.001953125,0,1,2,0
1049.945,0.001014,0.0859375,0.0703125,-0.3925781,0.3828125,0.859375,10.75,0.005859375,0.02148438,-0.3925781,0.1796875,0.04296875,0,-0.02990723,-0.007080078,-0.0222168,0,0,-0.01403809,0.8999939,3.946,0,0,0,1,nan,2,0.093,1,128,0.843811,0.9655457,0.8009949,0.9896545,0.0078125,0.001953125,0,1,2,0
1049.955,0.000978,0.03515625,0.02148438,-0.3339844,0.078125,-3.398438,10.36719,0.02148438,0.02929688,-0.3496094,0.1796875,0.04101562,0,-0.02978516,-0.006835938,-0.02600098,0,0,-0.01403809,0.8999939,3.946,0,0,0,1,nan,2,0.007,1,128,0.8695984,0.93573,0.8340149,0.9606628,0.0078125,0.001953125,0,1,2,0
1049.965,0.001012,-0.04296875,-0.0234375,-0.3164062,-0.421875,4.5625,10.125,0.001953125,0.00390625,-0.3242188,0.1777344,0.0390625,0,-0.02954102,-0.006591797,-0.02954102,0,0,-0.01403809,0.8999939,3.946,0,0,0,1,nan,2,0.017,1,128,0.8746948,0.9432678,0.8095093,0.9725342,0.008789062,0.001953125,0,1,2,0
1049.975,0.00101,0.06054688,-0.02734375,-0.3671875,-0.8359375,-0.5390625,9.085938,0.02539062,-0.009765625,-0.3574219,0.1777344,0.04101562,0,-0.02954102,-0.006835938,-0.03283691,0,0,-0.01403809,0.8999939,3.946,0,0,0,1,nan,2,0.027,1,128,0.6987,0.9846802,0.6590576,1,0.008789062,0.001953125,0,1,2,0
1049.985,0.001012,-0.09570312,-0.015625,-0.21875,0.0078125,-2.460938,9.921875,-0.01757812,-0.01171875,-0.2773438,0.1757812,0.04101562,0,-0.02941895,-0.006958008,-0.03613281,0,0,-0.01403809,0.8999939,3.946,0,0,0,1,nan,2,0.037,1,128,0.957428,0.8571777,0.8953552,0.8900452,0.008789062,0.001953125,0,1,2,0.1269841
1049.994,0.001014,0.015625,0.02734375,-0.2265625,2.28125,1.484375,12.35938,-0.015625,0.03515625,-0.2792969,0.1777344,0.04101562,0,-0.02978516,-0.006958008,-0.03881836,0,0,-0.01403809,0.8999939,3.946,0,0,0,1,nan,2,0.046,1,128,0.8642273,0.9339294,0.8285828,0.9732971,0.008789062,0.001953125,0,1,2,0
1050.005,0.000995,0.1074219,0.01757812,-0.2792969,-2.1875,-1.453125,6.195312,-0.0234375,0.02929688,-0.2929688,0.1796875,0.04101562,0,-0.02990723,-0.006713867,-0.04162598,0,0,-0.01403809,0.8999939,3.946,0,0,0,1,nan,2,0.001,1,128,0.8068237,0.9637451,0.7637329,1,0.008789062,0.001953125,0,1,2,0
1050.015,0.001041,-0.03320312,-0.02734375,-0.2792969,1.289062,-1.148438,8.484375,-0.0234375,-0.00390625,-0.2910156,0.1796875,0.04101562,0,-0.0300293,-0.006835938,-0.04467773,0,0,-0.01403809,0.8999939,3.946,0,0,0,1,nan,2,0.011,1,128,0.8503723,0.9632263,0.7880554,0.9983521,0.009765625,0.001953125,0,1,2,0
1050.025,0.00101,0.07421875,0.07617188,-0.3027344,-0.78125,1.632812,17.125,0.04882812,0.0078125,-0.2714844,0.1777344,0.04101562,0,-0.02978516,-0.006835938,-0.04736328,0,0,-0.01403809,0.8999939,3.946,0,0,0,1,nan,2,0.021,1,128,0.8321533,0.9733582,0.8053284,0.9891357,0.009765625,0.001953125,0,1,2,0
1050.035,0.001013,-0.15625,0.04882812,-0.2695312,-0.1875,2.53125,8.5625,-0.02929688,0.03125,-0.2695312,0.1796875,0.04101562,0,-0.02978516,-0.006713867,-0.0501709,0,0,-0.01403809,0.8999939,3.946,0,0,0,1,nan,2,0.031,1,128,0.848175,0.9411011,0.7915649,1,0.009765625,0.001953125,0,1,2,0
1050.045,0.001013,-0.1054688,0.01953125,-0.3007812,-1.578125,-3.195312,10.36719,0.01171875,0.02539062,-0.2636719,0.1777344,0.0390625,0,-0.02966309,-0.006591797,-0.0526123,0,0,-0.01403809,0.8999939,3.946,0,0,0,1,nan,2,0.041,1,128,0.7617798,0.9549255,0.7145081,1,0.009765625,0.001953125,0,1,2,0
1050.055,0.00101,0.1015625,0.07617188,-0.2382812,0.421875,-0.203125,5.75,0.009765625,0.005859375,-0.2539062,0.1796875,0.04101562,0,-0.0300293,-0.006713867,-0.05541992,0,0,-0.01403809,0.8999939,3.946,0,0,0,1,nan,2,0.051,1,128,0.8608398,0.9427185,0.835022,0.9614563,0.009765625,0.001953125,0,1,2,0
1050.065,0.00101,-0.06835938,0.001953125,-0.3359375,-0.0234375,-0.078125,9.40625,-0.05664062,0.01367188,-0.3027344,0.1796875,0.0390625,0,-0.0300293,-0.006591797,-0.05810547,0,0,-0.01403809,0.8999939,3.946,0,0,0,1,nan,2,0.062,1,128,0.7269287,0.9431763,0.6531372,1,0.01074219,0.001953125,0,1,2,0.1746032
1050.075,0.001009,-0.1269531,-0.005859375,-0.2089844,-0.9765625,-2.726562,11.52344,-0.04492188,0.005859375,-0.2363281,0.1816406,0.0390625,0,-0.03015137,-0.006591797,-0.06091309,0,0,-0.01403809,0.8999939,3.946,0,0,0,1,nan,2,0.072,1,128,0.9274902,0.885376,0.8514099,0.93573,0.01074219,0.001953125,0,1,2,0
1050.085,0.00101,0.09179688,0.03710938,-0.1367188,0.3046875,4.125,11.66406,0.08007812,0.009765625,-0.1542969,0.1796875,0.0390625,0,-0.02978516,-0.006591797,-0.06262207,0,0,-0.01403809,0.8999939,3.946,0,0,0,1,nan,2,0.082,1,128,0.9190674,0.8857422,0.8963928,0.8988342,0.01074219,0.001953125,0,1,2,0
1050.095,0.001009,-0.09570312,-0.0546875,-0.1894531,-1.851562,-5.179688,7.515625,-0.07226562,0.01953125,-0.2070312,0.1796875,0.03710938,0,-0.02990723,-0.006225586,-0.0645752,0,0,-0.01403809,0.8999939,3.946,0,0,0,1,nan,2,0.092,1,128,0.8485718,0.9431152,0.7642517,1,0.01074219,0.001953125,0,1,2,0
1050.105,0.001011,0.08984375,-0.04101562,-0.1894531,0.6875,1.75,8.320312,0.09765625,-0.009765625,-0.2128906,0.1777344,0.03710938,0,-0.02966309,-0.006103516,-0.06677246,0,0,-0.01403809,0.8999939,3.946,0,0,0,1,nan,2,0.102,1,128,0.8621216,0.9606934,0.8332825,0.9439087,0.01074219,0.001953125,0,1,2,0
1050.115,0.001011,0.046875,0.04882812,-0.2246094,-0.046875,0.4140625,13.24219,0.04101562,0.02539062,-0.2363281,0.1738281,0.03710938,0,-0.02905273,-0.006103516,-0.06896973,0,0,-0.01403809,0.8999939,3.946,0,0,0,1,nan,2,0.111,1,128,0.8354492,0.954834,0.7936096,1,0.01074219,0.001953125,0,1,2,0
1050.125,0.00101,0.046875,0.07617188,-0.1914062,-0.46875,-1.828125,7.882812,0.07617188,0.01757812,-0.2109375,0.1699219,0.03710938,0,-0.02844238,-0.006103516,-0.07116699,0,0,-0.01403809,0.8999939,3.946,0,0,0,1,nan,2,0.121,1,128,0.8814087,0.9197693,0.852356,0.9464417,0.01074219,0.001953125,0,1,2,0
1050.135,0.001011,0.1582031,-0.08789062,-0.1914062,0.75,1.65625,12.01562,0.09765625,-0.02148438,-0.1894531,0.1660156,0.03515625,0,-0.02758789,-0.005981445,-0.07324219,0,0,-0.01403809,0.8999939,3.946,0,0,0,1,nan,2,0.131,1,128,0.8880615,0.9395142,0.8382568,0.9341736,0.01171875,0.001953125,0,1,2,0
1050.145,0.000993,0.01953125,0.015625,-0.1660156,-1.484375,-1.09375,7.703125,0.078125,0.01367188,-0.1796875,0.1582031,0.03515625,0,-0.02648926,-0.005981445,-0.07507324,0,0,-0.01403809,0.8999939,3.946,0,0,0,1,nan,2,0.141,1,128,0.8865662,0.9197998,0.838501,0.9551392,0.01171875,0.001953125,0,1,2,0
1050.155,0.001007,-0.02734375,0.07421875,-0.1972656,-0.8125,0.015625,10.25781,-0.06835938,0.02734375,-0.1875,0.1601562,0.03515625,0,-0.0267334,-0.005859375,-0.0769043,0,0,-0.01403809,0.8999939,3.946,0,0,0,1,nan,2,0.151,1,128,0.8654785,0.929657,0.7953491,1,0.01171875,0.001953125,0,1,2,0
1050.165,0.001036,-0.2265625,0.05859375,-0.2460938,-0.5078125,-3.289062,10.05469,0.001953125,0.00390625,-0.2226562,0.1582031,0.03515625,0,-0.02648926,-0.005981445,-0.07897949,0,0,-0.01403809,0.8999939,3.946,0,0,0,1,nan,2,0.162,1,128,0.7868347,0.951355,0.7266846,1,0.01171875,0.002929688,0,1,2,0
1050.175,0.000998,-0.04296875,0.01953125,-0.2734375,1.929688,1.195312,8.34375,-0.06640625,0.0234375,-0.2558594,0.1621094,0.03515625,0,-0.02709961,-0.005859375,-0.0814209,0,0,-0.01403809,0.8999939,3.946,0,0,0,1,nan,2,0.172,1,128,0.7746582,0.9424744,0.7175903,1,0.01171875,0.002929688,0,1,2,0
1050.185,0.001007,-0.140625,-0.0390625,-0.2363281,-0.2265625,-1.429688,10.39844,-0.09570312,-0.01367188,-0.2539062,0.1679688,0.03515625,0,-0.02783203,-0.005859375,-0.08398438,0,0,-0.01403809,0.8999939,3.895,0,0,0,1,nan,2,0.182,1,128,0.869812,0.9516907,0.7834473,0.9950256,0.01171875,0.002929688,0,1,2,0
1050.195,0.001007,-0.01171875,0.08007812,-0.1386719,-0.28125,-0.140625,10.66406,-0.08203125,0.02539062,-0.1796875,0.1738281,0.03515625,0,-0.02905273,-0.005981445,-0.08618164,0,0,-0.01403809,0.8999939,3.895,0,0,0,1,nan,2,0.192,1,128,0.9365234,0.8578186,0.8948059,0.9108276,0.01269531,0.002929688,0,1,2,0
1050.205,0.001007,-0.005859375,-0.02148438,-0.1679688,-0.8125,1.734375,8.601562,-0.05078125,-0.02148438,-0.1386719,0.1777344,0.03710938,0,-0.02954102,-0.005981445,-0.08776855,0,0,-0.01403809,0.8999939,3.895,0,0,0,1,nan,2,0.202,1,128,0.9245605,0.8953247,0.8551636,0.9248962,0.01269531,0.002929688,0,1,2,0
1050.215,0.000989,-0.04882812,0.0625,-0.2226562,0.125,-3.25,10.46094,0.001953125,-0.0390625,-0.1464844,0.1777344,0.03710938,0,-0.02954102,-0.006225586,-0.08898926,0,0,-0.01403809,0.8999939,3.895,0,0,0,1,nan,2,0.006,1,128,0.8715515,0.9477234,0.8037109,0.9770203,0.01269531,0.002929688,0,1,2,0
1050.225,0.001019,0.04882812,0.04101562,-0.3203125,0.0859375,2.335938,12.8125,0.01171875,0.02539062,-0.265625,0.1777344,0.03710938,0,-0.02966309,-0.006225586,-0.09106445,0,0,-0.01403809,0.8999939,3.895,0,0,0,1,nan,2,0.016,1,128,0.6115112,0.9593506,0.5749817,1,0.01269531,0.002929688,0,1,2,0
1050.235,0.000998,0.009765625,-0.03515625,-0.2871094,-1.21875,-4.640625,8.757812,0.05078125,0.01171875,-0.28125,0.1738281,0.03710938,0,-0.02905273,-0.006225586,-0.09387207,0,0,-0.01403809,0.8999939,3.895,0,0,0,1,nan,2,0.026,1,128,0.7861938,0.9683838,0.734314,1,0.01269531,0.002929688,0,1,2,0.03174603
1050.245,0.001013,-0.02929688,-0.0234375,-0.2871094,1.117188,2.164062,8.445312,0.03320312,0.02734375,-0.2714844,0.1738281,0.03710938,0,-0.02893066,-0.006103516,-0.09655762,0,0,-0.01403809,0.8999939,3.895,0,0,0,1,nan,2,0.036,1,128,0.8186646,0.9661865,0.7758484,1,0.01367188,0.002929688,0,1,2,0
1050.255,0.001023,-0.08398438,-0.04492188,-0.3183594,0.5859375,1.929688,16.13281,0.02929688,0.00390625,-0.2792969,0.171875,0.03515625,0,-0.02868652,-0.005981445,-0.09924316,0,0,-0.01403809,0.8999939,3.895,0,0,0,1,nan,2,0,1,128,0.7844543,0.9714355,0.7223206,1,0.01367188,0.002929688,0,1,2,0
1050.265,0.001018,0.08007812,0.01953125,-0.2753906,-1.453125,-2.1875,4.90625,0.046875,0.02148438,-0.2714844,0.171875,0.03710938,0,-0.02868652,-0.006103516,-0.1020508,0,0,-0.01403809,0.8999939,3.895,0,0,0,1,nan,2,0.01,1,128,0.8305054,0.9696655,0.8026123,0.9972229,0.01367188,0.002929688,0,1,2,0
1050.275,0.001038,0.07421875,0.03710938,-0.1757812,0.3671875,0.1875,11.99219,0.0390625,0.02734375,-0.2011719,0.1738281,0.03515625,0,-0.02880859,-0.005981445,-0.1043701,0,0,-0.01403809,0.8999939,3.895,0,0,0,1,nan,2,0.02,1,128,0.9219971,0.881012,0.8933105,0.9036865,0.01367188,0.002929688,0,1,2,0
1050.285,0.001013,0.07421875,0.04296875,-0.2070312,1.421875,0.5,12.42969,0.05273438,0.03515625,-0.1914062,0.1699219,0.03515625,0,-0.02832031,-0.005737305,-0.1063232,0,0,-0.01403809,0.8999939,3.895,0,0,0,1,nan,2,0.03,1,128,0.8645935,0.9347839,0.8270874,0.9735107,0.01367188,0.002929688,0,1,2,0
1050.295,0.001012,0.0546875,-0.0703125,-0.2050781,-0.25,2.820312,9.609375,-0.01953125,-0.005859375,-0.2226562,0.1679688,0.03515625,0,-0.02807617,-0.005737305,-0.1083984,0,0,-0.01403809,0.8999939,3.895,0,0,0,1,nan,2,0.04,1,128,0.8346863,0.9554443,0.7550964,1,0.01367188,0.002929688,0,1,2,0.2698413
1050.305,0.001013,0.05273438,-0.009765625,-0.2460938,-1.867188,-3.921875,10.77344,-0.0234375,0.015625,-0.2578125,0.1699219,0.03515625,0,-0.02844238,-0.005859375,-0.1108398,0,0,-0.01403809,0.8999939,3.895,0,0,0,1,nan,2,0.05,1,128,0.8014526,0.9566956,0.7504272,1,0.01464844,0.002929688,0,1,2,0
1050.315,0.001016,0.02734375,-0.03125,-0.2265625,0.7265625,3.632812,9.890625,-0.06445312,-0.02148438,-0.234375,0.1738281,0.03515625,0,-0.02893066,-0.005981445,-0.1130371,0,0,-0.01403809,0.8999939,3.895,0,0,0,1,nan,2,0.06,1,128,0.8880005,0.9312439,0.8110657,0.969696,0.01464844,0.002929688,0,1,2,0
1050.325,0.001007,0.00390625,0.0546875,-0.1757812,-2.007812,-3.179688,14.1875,0.03710938,0.01367188,-0.2050781,0.1738281,0.03710938,0,-0.02893066,-0.006103516,-0.1152344,0,0,-0.01403809,0.8999939,3.895,0,0,0,1,nan,2,0.07,1,128,0.8800659,0.9187622,0.8503418,0.9508057,0.01464844,0.002929688,0,1,2,0
1050.335,0.001008,-0.05664062,-0.05078125,-0.1835938,1.507812,-1.320312,8.25,-0.01953125,-0.01367188,-0.1875,0.171875,0.03710938,0,-0.02856445,-0.006225586,-0.1171875,0,0,-0.01403809,0.8999939,3.895,0,0,0,1,nan,2,0.08,1,128,0.9028625,0.9125061,0.8216858,0.9629517,0.01464844,0.002929688,0,1,2,0
1050.345,0.001007,0.1640625,0.1015625,-0.1484375,0.09375,0.8203125,10.85938,0.02929688,0.06640625,-0.171875,0.1738281,0.03710938,0,-0.02905273,-0.006103516,-0.1190186,0,0,-0.01403809,0.8999939,3.895,0,0,0,1,nan,2,0.09,1,128,0.8601074,0.9241638,0.8537903,0.9619141,0.01464844,0.002929688,0,1,2,0
1050.355,0.001005,-0.04492188,0.02539062,-0.2128906,-1.929688,-4.390625,10.16406,-0.02148438,0.02148438,-0.1757812,0.171875,0.03515625,0,-0.02856445,-0.005859375,-0.1206055,0,0,-0.01403809,0.8999939,3.895,0,0,0,1,nan,2,0.1,1,128,0.8200989,0.93927,0.7398682,1,0.015625,0.002929688,0,1,2,0
1050.365,0.001006,-0.1132812,-0.06835938,-0.2207031,0.9140625,2.804688,9.820312,-0.04492188,-0.02929688,-0.2207031,0.171875,0.03515625,0,-0.02868652,-0.005859375,-0.1226807,0,0,-0.01403809,0.8999939,3.895,0,0,0,1,nan,2,0.11,1,128,0.8232422,0.9543152,0.724884,1,0.015625,0.002929688,0,1,2,0.04761905
1050.375,0.001008,-0.09570312,0.09179688,-0.2910156,-1.507812,-0.7890625,8.851562,-0.1152344,0.01953125,-0.2695312,0.1777344,0.03710938,0,-0.02978516,-0.006103516,-0.125,0,0,-0.01403809,0.8999939,3.895,0,0,0,1,nan,2,0.12,1,128,0.7074585,0.9220276,0.63974,1,0.015625,0.002929688,0,1,2,0
1050.385,0.00102,0.1367188,0.02929688,-0.2480469,-0.9296875,1.007812,13.39062,0.0390625,0.009765625,-0.234375,0.1816406,0.03710938,0,-0.03039551,-0.006103516,-0.1275635,0,0,-0.01403809,0.8999939,3.895,0,0,0,1,nan,2,0.13,1,128,0.8569031,0.9492798,0.8392639,0.9545593,0.015625,0.002929688,0,1,2,0
1050.395,0.001008,-0.04101562,-0.07617188,-0.1621094,1.9375,-0.421875,9.78125,-0.0703125,-0.04101562,-0.2070312,0.1835938,0.03710938,0,-0.03063965,-0.006225586,-0.1298828,0,0,-0.01403809,0.8999939,3.895,0,0,0,1,nan,2,0.14,1,128,0.9417114,0.8869934,0.8404541,0.9308472,0.015625,0.002929688,0,1,2,0
1050.406,0.00103,-0.09375,0.06640625,-0.2519531,0.4296875,0.2421875,5.78125,-0.05273438,0.00390625,-0.21875,0.1875,0.04101562,0,-0.03112793,-0.006835938,-0.131958,0,0,-0.01403809,0.8999939,3.895,0,0,0,1,nan,2,0.15,1,128,0.812561,0.9274292,0.7523499,1,0.01660156,0.002929688,0,1,2,0
1050.415,0.001013,0.07421875,-0.015625,-0.1777344,-0.0234375,-1.554688,7.8125,0.0546875,-0.02734375,-0.2128906,0.1875,0.04101562,0,-0.03112793,-0.006835938,-0.1340332,0,0,-0.01403809,0.8999939,3.895,0,0,0,1,nan,2,0.008,1,128,0.8791199,0.9430542,0.8291321,0.9486694,0.01660156,0.002929688,0,1,2,0
1050.425,0.001013,0.02148438,0.0546875,-0.265625,-1.4375,-1.210938,15.36719,-0.01953125,0.0390625,-0.2519531,0.1875,0.04101562,0,-0.03112793,-0.006835938,-0.1363525,0,0,-0.01403809,0.8999939,3.895,0,0,0,1,nan,2,0.018,1,128,0.76828,0.9295654,0.7110596,1,0.01660156,0.002929688,0,1,2,0
1050.435,0.001013,-0.0390625,0.02734375,-0.2480469,0.3125,2.820312,8.71875,-0.0546875,0,-0.2558594,0.1894531,0.04101562,0,-0.03149414,-0.006958008,-0.138916,0,0,-0.01403809,0.8999939,3.895,0,0,0,1,nan,2,0.028,1,128,0.8716736,0.9385986,0.7940979,0.995636,0.01660156,0.002929688,0,1,2,0
1050.445,0.001013,0.0625,-0.0078125,-0.2929688,-0.0859375,-3.171875,14.35156,-0.02148438,-0.01953125,-0.2832031,0.1894531,0.04296875,0,-0.03161621,-0.007080078,-0.1417236,0,0,-0.01403809,0.8999939,3.895,0,0,0,1,nan,2,0.038,1,128,0.8046875,0.9640503,0.727356,1,0.01757812,0.00390625,0,1,2,0
1050.455,0.000982,0.1328125,0.0078125,-0.3300781,0.5390625,-1.335938,6.390625,0.00390625,0,-0.3066406,0.1914062,0.04296875,0,-0.03173828,-0.007202148,-0.1446533,0,0,-0.01403809,0.8999939,3.895,0,0,0,1,nan,2,0.048,1,128,0.7748108,0.9674377,0.7193604,1,0.01757812,0.00390625,0,1,2,0
1050.465,0.001059,-0.09375,0.07617188,-0.4238281,1.179688,6.367188,11.07812,-0.005859375,0.01953125,-0.3867188,0.1914062,0.04296875,0,-0.03198242,-0.007324219,-0.1481934,0,0,-0.01403809,0.8999939,3.895,0,0,0,1,nan,2,0.059,1,128,0.6118164,0.9482727,0.5532837,1,0.01757812,0.00390625,0,1,2,0
1050.475,0.001057,-0.01171875,-0.05664062,-0.4355469,-0.3828125,-3.34375,12.4375,-0.01953125,0.0078125,-0.4414062,0.1933594,0.04296875,0,-0.03210449,-0.007202148,-0.1524658,0,0,-0.01403809,0,3.895,0,0,0,0,nan,2,0.001,1,128,0.1000061,0.1000061,0.1000061,0.1000061,0,0,0,1,2,0
1050.485,0.000991,-0.04296875,0.09960938,-0.4648438,2.625,4,12.89844,-0.04296875,0.03515625,-0.4648438,0.1933594,0.04296875,0,-0.0324707,-0.007324219,-0.1571045,0,0,-0.01403809,0,3.895,0,0,0,0,nan,2,0.011,1,128,0.1000061,0.1000061,0.1000061,0.1000061,0,0,0,1,2,0
1050.495,0.00101,-0.02539062,0.1210938,-0.4121094,3.117188,0.8203125,8.25,-0.0234375,0.05859375,-0.4433594,0.1933594,0.04296875,0,-0.03283691,-0.006835938,-0.1617432,0,0,-0.01403809,0,3.895,0,0,0,0,nan,2,0.021,1,128,0.1000061,0.1000061,0.1000061,0.1000061,0,0,0,1,2,0
1050.505,0.00101,-0.02148438,-0.03125,-0.4238281,2.679688,3.9375,11.39062,-0.0078125,0.0078125,-0.4179688,0.1933594,0.04296875,0,-0.03308105,-0.006591797,-0.1658936,0,0,-0.01403809,0,3.895,0,0,0,0,nan,2,0.031,1,128,0.1000061,0.1000061,0.1000061,0.1000061,0,0,0,1,2,0
1050.515,0.00101,-0.02734375,0.009765625,-0.3828125,-3.265625,-2.09375,11.71875,-0.0078125,0.005859375,-0.4082031,0.1933594,0.04296875,0,-0.03295898,-0.006713867,-0.170166,0,0,-0.01403809,0,3.895,0,0,0,0,nan,2,0.041,1,128,0.1000061,0.1000061,0.1000061,0.1000061,0,0,0,1,2,0
1050.524,0.00101,0.09179688,-0.00390625,-0.390625,2.3125,-0.2265625,4.898438,0.02148438,0,-0.3886719,0.1933594,0.04296875,0,-0.03271484,-0.006713867,-0.1737061,0,0,-0.01403809,0,3.895,0,0,0,0,nan,2,0.05,1,128,0.1000061,0.1000061,0.1000061,0.1000061,0,0,0,1,2,0
1050.535,0.00101,0.015625,-0.02929688,-0.3066406,-1.265625,-4.625,7.070312,-0.00390625,-0.0078125,-0.3398438,0.1933594,0.04296875,0,-0.03271484,-0.006713867,-0.1774902,0,0,-0.01403809,0,3.895,0,0,0,0,nan,2,0.061,1,128,0.1000061,0.1000061,0.1000061,0.1000061,0,0,0,1,2,0
1050.545,0.001009,0.1152344,0.1347656,-0.28125,-1.96875,-0.609375,10.46875,0.1113281,0.05859375,-0.2910156,0.1933594,0.04296875,0,-0.03222656,-0.006591797,-0.180542,0,0,-0.01403809,0,3.895,0,0,0,0,nan,2,0.071,1,128,0.1000061,0.1000061,0.1000061,0.1000061,0,0,0,1,2,0
1050.555,0.001014,-0.03125,0.001953125,-0.1972656,0.7265625,-4.6875,8.140625,0.02539062,0.01171875,-0.2304688,0.1933594,0.04296875,0,-0.03173828,-0.006591797,-0.1832275,0,0,-0.01403809,0,3.895,0,0,0,0,nan,2,0.081,1,128,0.1000061,0.1000061,0.1000061,0.1000061,0,0,0,1,2,0.2222222
1050.565,0.001012,-0.08203125,-0.05273438,-0.2070312,1.5625,-0.9609375,10.57812,-0.005859375,-0.009765625,-0.2109375,0.1933594,0.04296875,0,-0.03173828,-0.006591797,-0.1853027,0,0,-0.01403809,0,3.895,0,0,0,0,nan,2,0.091,1,128,0.1000061,0.1000061,0.1000061,0.1000061,0,0,0,1,2,0
1050.575,0.001006,0.08984375,-0.02148438,-0.1230469,-2.507812,4.570312,11.375,0.005859375,-0.01171875,-0.1503906,0.1933594,0.04296875,0,-0.03173828,-0.006835938,-0.1871338,0,0,-0.01403809,0,3.895,0,0,0,0,nan,2,0.101,1,128,0.1000061,0.1000061,0.1000061,0.1000061,0,0,0,1,2,0
1050.585,0.00101,-0.02734375,0.04296875,-0.0703125,3.898438,-7.484375,6.804688,-0.04882812,0.001953125,-0.0859375,0.1933594,0.04296875,0,-0.03198242,-0.006835938,-0.1882324,0,0,-0.01403809,0,3.895,0,0,0,0,nan,2,0.111,1,128,0.1000061,0.1000061,0.1000061,0.1000061,0,0,0,1,2,0
1050.595,0.00101,0.04101562,0.02734375,-0.01953125,-2.539062,0.046875,17.16406,-0.005859375,-0.001953125,-0.02929688,0.1933594,0.04296875,0,-0.03210449,-0.006958008,-0.1887207,0,0,-0.01403809,0,3.895,0,0,0,0,nan,2,0.121,1,128,0.1000061,0.1000061,0.1000061,0.1000061,0,0,0,1,2,0
1050.605,0.00101,0.08984375,0.01367188,-0.00390625,-1.664062,8.046875,8.609375,0.03125,-0.01171875,-0.015625,0.1933594,0.04296875,0,-0.03186035,-0.007080078,-0.1889648,0,0,-0.01403809,0,3.895,0,0,0,0,nan,2,0.131,1,128,0.1000061,0.1000061,0.1000061,0.1000061,0,0,0,1,2,0
1050.615,0.00101,-0.0390625,-0.04296875,0.06445312,-0.390625,0.3671875,-0.6484375,-0.005859375,-0.01757812,0.03320312,0.1933594,0.04296875,0,-0.03173828,-0.007080078,-0.1888428,0,0,-0.01403809,0,3.895,0,0,0,0,nan,2,0.141,1,128,0.1000061,0.1000061,0.1000061,0.1000061,0,0,0,1,2,0
1050.625,0.00101,-0.005859375,0.05859375,0.1035156,0.7421875,-0.6328125,10.22656,0.04101562,0.01757812,0.07421875,0.1933594,0.04296875,0,-0.03149414,-0.007080078,-0.1883545,0,0,-0.01403809,0,3.895,0,0,0,0,nan,2,0.15,1,128,0.1000061,0.1000061,0.1000061,0.1000061,0,0,0,1,2,0.01587302
1050.635,0.000967,0.046875,-0.02734375,0.1464844,0.8046875,-0.1953125,10.20312,0.03125,-0.0078125,0.1269531,0.1933594,0.04296875,0,-0.03125,-0.006958008,-0.1872559,0,0,-0.01403809,0,3.895,0,0,0,0,nan,2,0.161,1,128,0.1000061,0.1000061,0.1000061,0.1000061,0,0,0,1,2,0.1111111
1050.645,0.001019,-0.03710938,0.0078125,0.1523438,-2.78125,-3.398438,9.515625,0,-0.01171875,0.1484375,0.1933594,0.04296875,0,-0.03112793,-0.007080078,-0.185791,0,0,-0.01403809,0,3.895,0,0,0,0,nan,2,0.171,1,128,0.1000061,0.1000061,0.1000061,0.1000061,0,0,0,1,2,0
1050.655,0.001013,0.078125,-0.015625,0.1347656,2.796875,-0.375,7.304688,0.0390625,-0.01953125,0.1445312,0.1933594,0.04296875,0,-0.03076172,-0.007080078,-0.1843262,0,0,-0.01403809,0,3.895,0,0,0,0,nan,2,0.003,1,128,0.1000061,0.1000061,0.1000061,0.1000061,0,0,0,1,2,0
1050.665,0.001058,-0.03320312,-0.01367188,0.171875,-1.265625,6.609375,7.015625,-0.02929688,0.00390625,0.1601562,0.1933594,0.04296875,0,-0.03051758,-0.007080078,-0.1827393,0,0,-0.01403809,0,3.895,0,0,0,0,nan,2,0.013,1,128,0.1000061,0.1000061,0.1000061,0.1000061,0,0,0,1,2,0.3492064
1050.675,0.000994,-0.0546875,-0.02148438,0.2167969,-1.5,0.8203125,16.60156,-0.02734375,-0.01367188,0.1933594,0.1933594,0.04296875,0,-0.03063965,-0.007080078,-0.1810303,0,0,-0.01403809,0,3.895,0,0,0,0,nan,2,0.023,1,128,0.1000061,0.1000061,0.1000061,0.1000061,0,0,0,1,2,0
1050.685,0.001007,-0.01757812,-0.05273438,0.1933594,-0.9296875,-2.539062,5.867188,-0.01171875,-0.0078125,0.1875,0.1933594,0.04296875,0,-0.03088379,-0.006958008,-0.1791992,0,0,-0.01403809,0,3.895,0,0,0,0,nan,2,0.033,1,128,0.1000061,0.1000061,0.1000061,0.1000061,0,0,0,1,2,0
1050.695,0.001008,0.00390625,0.04492188,0.1523438,1.789062,-3.367188,9.257812,-0.0078125,0.005859375,0.1523438,0.1933594,0.04296875,0,-0.03076172,-0.006958008,-0.1774902,0,0,-0.01403809,0,3.895,0,0,0,0,nan,2,0.043,1,128,0.1000061,0.1000061,0.1000061,0.1000061,0,0,0,1,2,0.3650794
1050.705,0.001007,-0.03320312,0.02539062,0.1621094,-1.257812,5.796875,7.078125,-0.015625,-0.00390625,0.1640625,0.1933594,0.04296875,0,-0.03088379,-0.006958008,-0.1759033,0,0,-0.01403809,0,3.895,0,0,0,0,nan,2,0.054,1,128,0.1000061,0.1000061,0.1000061,0.1000061,0,0,0,1,2,0
1050.715,0.001008,-0.1054688,0.04296875,0.1855469,0.1484375,-4.140625,8.726562,-0.01953125,0.015625,0.1699219,0.1933594,0.04296875,0,-0.03063965,-0.006835938,-0.1741943,0,0,-0.01403809,0,3.895,0,0,0,0,nan,2,0.064,1,128,0.1000061,0.1000061,0.1000061,0.1000061,0,0,0,1,2,0.2539683
1050.725,0.000979,-0.08007812,0.02734375,0.15625,-1.257812,-2.335938,10.04688,-0.0078125,0.02929688,0.1640625,0.1933594,0.04296875,0,-0.03088379,-0.006469727,-0.1726074,0,0,-0.01403809,0,3.895,0,0,0,0,nan,2,0.073,1,128,0.1000061,0.1000061,0.1000061,0.1000061,0,0,0,1,2,0
1050.735,0.000989,0.001953125,-0.001953125,0.1542969,1.664062,3.484375,3.921875,0.001953125,-0.005859375,0.1640625,0.1933594,0.04296875,0,-0.03088379,-0.006469727,-0.1710205,0,0,-0.01403809,0,3.895,0,0,0,0,nan,2,0.083,1,128,0.1000061,0.1000061,0.1000061,0.1000061,0,0,0,1,2,0
1050.745,0.001013,0.02539062,0.0390625,0.1660156,-2.148438,-6.023438,10.27344,0.01953125,0.00390625,0.1523438,0.1933594,0.04296875,0,-0.03088379,-0.006469727,-0.1694336,0,0,-0.01403809,0,3.895,0,0,0,0,nan,2,0.093,1,128,0.1000061,0.1000061,0.1000061,0.1000061,0,0,0,1,2,0
1050.755,0.000977,0.06835938,-0.0703125,0.1601562,-1.734375,1.851562,11.47656,-0.0078125,-0.01171875,0.1464844,0.1933594,0.04296875,0,-0.03100586,-0.006347656,-0.1679688,0,0,-0.01403809,0,3.895,0,0,0,0,nan,2,0.103,1,128,0.1000061,0.1000061,0.1000061,0.1000061,0,0,0,1,2,0
1050.765,0.001046,0.0390625,0.01171875,0.15625,-0.296875,-3.140625,0.7890625,0.02539062,-0.0078125,0.1660156,0.1933594,0.04296875,0,-0.03076172,-0.006469727,-0.1662598,0,0,-0.01403809,0,3.895,0,0,0,0,nan,2,0.113,1,128,0.1000061,0.1000061,0.1000061,0.1000061,0,0,0,1,2,0
1050.775,0.000994,-0.02148438,-0.06445312,0.1386719,-0.9375,-0.5625,14.51562,0.009765625,-0.02539062,0.1523438,0.1933594,0.04296875,0,-0.03051758,-0.006469727,-0.1647949,0,0,-0.01403809,0,3.895,0,0,0,0,nan,2,0.123,1,128,0.1000061,0.1000061,0.1000061,0.1000061,0,0,0,1,2,0
1050.785,0.00101,0.009765625,0.02148438,0.08203125,2.117188,0.890625,9.75,-0.009765625,-0.001953125,0.1132812,0.1933594,0.04296875,0,-0.03063965,-0.006469727,-0.1634521,0,0,-0.01403809,0,3.895,0,0,0,0,nan,2,0.133,1,128,0.1000061,0.1000061,0.1000061,0.1000061,0,0,0,1,2,0.4920635
1050.795,0.00101,-0.0390625,-0.0546875,0.06054688,-0.1015625,-3.179688,13.92188,-0.01171875,-0.001953125,0.06445312,0.1933594,0.04296875,0,-0.03063965,-0.006469727,-0.1625977,0,0,-0.01403809,0,3.895,0,0,0,0,nan,2,0.143,1,128,0.1000061,0.1000061,0.1000061,0.1000061,0,0,0,1,2,0
1050.805,0.001012,0.01367188,0.03125,0.02539062,-0.1875,3.882812,12.20312,0.02148438,0.005859375,0.03710938,0.1933594,0.04296875,0,-0.03063965,-0.006591797,-0.1621094,0,0,-0.01403809,0,3.895,0,0,0,0,nan,2,0.154,1,128,0.1000061,0.1000061,0.1000061,0.1000061,0,0,0,1,2,0
1050.815,0.00101,0.07617188,0.0078125,-0.01367188,1.257812,-4.148438,5.796875,0.02929688,0,0.009765625,0.1933594,0.04296875,0,-0.03051758,-0.006591797,-0.1618652,0,0,-0.01403809,0,3.895,0,0,0,0,nan,2,0.164,1,128,0.1000061,0.1000061,0.1000061,0.1000061,0,0,0,1,2,0
1050.826,0.00101,0.02734375,-0.01953125,-0.0234375,-0.046875,-0.2109375,12.625,0.03710938,0,-0.02734375,0.1933594,0.04296875,0,-0.03015137,-0.006469727,-0.1619873,0,0,-0.01403809,0,3.895,0,0,0,0,nan,2,0.174,1,128,0.1000061,0.1000061,0.1000061,0.1000061,0,0,0,1,2,0
1050.835,0.001058,-0.001953125,-0.00390625,-0.02148438,-0.375,-6.148438,10.39062,-0.015625,-0.0078125,-0.01953125,0.1933594,0.04296875,0,-0.03015137,-0.006591797,-0.1621094,0,0,-0.01403809,0,3.955,0,0,0,0,nan,2,0.183,1,128,0.1000061,0.1000061,0.1000061,0.1000061,0,0,0,1,2,0
1050.845,0.00101,-0.03125,-0.02929688,0.01757812,-1.1875,-0.6484375,16.64844,0.005859375,-0.03515625,0.00390625,0.1933594,0.04296875,0,-0.0300293,-0.006835938,-0.1622314,0,0,-0.01403809,0,3.955,0,0,0,0,nan,2,0.193,1,128,0.1000061,0.1000061,0.1000061,0.1000061,0,0,0,1,2,0
1050.855,0.000996,-0.04492188,-0.02929688,-0.01171875,-0.0703125,3.320312,12.78906,0.001953125,-0.009765625,-0.0078125,0.1933594,0.04296875,0,-0.0300293,-0.006835938,-0.1622314,0,0,-0.01403809,0,3.955,0,0,0,0,nan,2,0.203,1,128,0.1000061,0.1000061,0.1000061,0.1000061,0,0,0,1,2,0
1050.865,0.001027,-0.009765625,0.02148438,0,0.0234375,4.179688,9.335938,-0.01367188,0.009765625,-0.001953125,0.1933594,0.04296875,0,-0.03015137,-0.006835938,-0.1623535,0,0,-0.01403809,0,3.955,0,0,0,0,nan,2,0.008,1,128,0.1000061,0.1000061,0.1000061,0.1000061,0,0,0,1,2,0.06349207
1050.875,0.001003,0.05859375,0.00390625,-0.01367188,0.2421875,-2.765625,7.265625,-0.0078125,-0.005859375,-0.009765625,0.1933594,0.04296875,0,-0.03027344,-0.006835938,-0.1623535,0,0,-0.01403809,0,3.955,0,0,0,0,nan,2,0.018,1,128,0.1000061,0.1000061,0.1000061,0.1000061,0,0,0,1,2,0
1050.885,0.00101,-0.00390625,-0.01171875,-0.01367188,-0.1953125,-3.445312,16.46094,0.00390625,0.001953125,-0.005859375,0.1933594,0.04296875,0,-0.03027344,-0.006835938,-0.1624756,0,0,-0.01403809,0,3.955,0,0,0,0,nan,2,0.028,1,128,0.1000061,0.1000061,0.1000061,0.1000061,0,0,0,1,2,0
1050.895,0.00101,-0.03515625,0.01171875,0.0078125,-0.203125,4.007812,13.30469,-0.001953125,0.0078125,-0.0078125,0.1933594,0.04296875,0,-0.03015137,-0.006835938,-0.1625977,0,0,-0.01403809,0,3.955,0,0,0,0,nan,2,0.038,1,128,0.1000061,0.1000061,0.1000061,0.1000061,0,0,0,1,2,0
1050.905,0.00101,-0.03515625,-0.0390625,-0.015625,1.5,0.7734375,3.765625,-0.015625,-0.0078125,-0.0078125,0.1933594,0.04296875,0,-0.03027344,-0.006835938,-0.1625977,0,0,-0.01403809,0,3.955,0,0,0,0,nan,2,0.048,1,128,0.1000061,0.1000061,0.1000061,0.1000061,0,0,0,1,2,0
1050.915,0.001008,0.009765625,0.02734375,-0.005859375,-0.375,-5.039062,3.976562,0.01171875,0.0078125,-0.01367188,0.1933594,0.04296875,0,-0.03027344,-0.006835938,-0.1627197,0,0,-0.01403809,0,3.955,0,0,0,0,nan,2,0.059,1,128,0.1000061,0.1000061,0.1000061,0.1000061,0,0,0,1,2,0
1050.925,0.00101,0.046875,-0.02539062,-0.01171875,0.2890625,4.84375,8.335938,0.015625,-0.001953125,-0.01171875,0.1933594,0.04296875,0,-0.03027344,-0.006835938,-0.1628418,0,0,-0.01403809,0,3.955,0,0,0,0,nan,2,0.068,1,128,0.1000061,0.1000061,0.1000061,0.1000061,0,0,0,1,2,0.4761905
1050.935,0.001012,0.04101562,-0.009765625,0.00390625,-1.203125,-3.703125,4.09375,0.02539062,0.005859375,-0.00390625,0.1933594,0.04296875,0,-0.03027344,-0.006835938,-0.1629639,0,0,-0.01403809,0,3.955,0,0,0,0,nan,2,0.078,1,128,0.1000061,0.1000061,0.1000061,0.1000061,0,0,0,1,2,0
1050.945,0.00101,0.01953125,-0.005859375,-0.01171875,-1.570312,-5.148438,11.03125,-0.0234375,-0.01367188,0,0.1933594,0.04296875,0,-0.03039551,-0.006835938,-0.1629639,0,0,-0.01403809,0,3.955,0,0,0,0,nan,2,0.088,1,128,0.1000061,0.1000061,0.1000061,0.1000061,0,0,0,1,2,0
1050.955,0.00101,0.0859375,0.01171875,0,1.445312,-1.6875,4.335938,0.04492188,0.01171875,0.001953125,0.1933594,0.04296875,0,-0.03015137,-0.006835938,-0.1629639,0,0,-0.01403809,0,3.955,0,0,0,0,nan,2,0.098,1,128,0.1000061,0.1000061,0.1000061,0.1000061,0,0,0,1,2,0
1050.965,0.001015,-0.001953125,0.03515625,-0.005859375,-2.953125,-6.640625,11.57812,0.05273438,0.01757812,-0.00390625,0.1933594,0.04296875,0,-0.02954102,-0.006713867,-0.1629639,0,0,-0.01403809,0,3.955,0,0,0,0,nan,2,0.108,1,128,0.1000061,0.1000061,0.1000061,0.1000061,0,0,0,1,2,0
1050.975,0.001014,-0.04492188,-0.0390625,-0.001953125,-2.3125,-0.078125,16.38281,-0.01757812,0,-0.001953125,0.1933594,0.04296875,0,-0.0291748,-0.006591797,-0.1630859,0,0,-0.01403809,0,3.955,0,0,0,0,nan,2,0.118,1,128,0.1000061,0.1000061,0.1000061,0.1000061,0,0,0,1,2,0
1050.985,0.001008,0.09570312,-0.02539062,-0.005859375,1.953125,7.078125,8.609375,0.0078125,-0.015625,-0.005859375,0.1933594,0.04296875,0,-0.02954102,-0.006713867,-0.1630859,0,0,-0.01403809,0,3.955,0,0,0,0,nan,2,0.128,1,128,0.1000061,0.1000061,0.1000061,0.1000061,0,0,0,1,2,0
1050.995,0.001012,-0.01367188,-0.04101562,-0.01757812,2.90625,3.914062,6.804688,-0.00390625,-0.015625,-0.009765625,0.1933594,0.04296875,0,-0.02929688,-0.006713867,-0.1630859,0,0,-0.01403809,0,3.955,0,0,0,0,nan,2,0.138,1,128,0.1000061,0.1000061,0.1000061,0.1000061,0,0,0,1,2,0
1051.005,0.00101,0.0546875,-0.02539062,-0.0078125,-0.6796875,-6.53125,9.3125,0.01757812,-0.001953125,-0.009765625,0.1933594,0.04296875,0,-0.02941895,-0.006835938,-0.163208,0,0,-0.01403809,0,3.955,0,0,0,0,nan,2,0.148,1,128,0.1000061,0.1000061,0.1000061,0.1000061,0,0,0,1,2,0
1051.015,0.00101,-0.0625,-0.01953125,-0.01367188,-2.304688,-5.226562,12.3125,-0.04101562,-0.009765625,-0.01367188,0.1933594,0.04296875,0,-0.02941895,-0.006958008,-0.1633301,0,0,-0.01403809,0,3.955,0,0,0,0,nan,2,0.159,1,128,0.1000061,0.1000061,0.1000061,0.1000061,0,0,0,1,2,0
1051.025,0.00101,-0.01171875,0.00390625,-0.001953125,1.179688,4.859375,10.46875,0.02929688,-0.001953125,-0.001953125,0.1933594,0.04296875,0,-0.02929688,-0.006958008,-0.1634521,0,0,-0.01403809,0,3.955,0,0,0,0,nan,2,0.169,1,128,0.1000061,0.1000061,0.1000061,0.1000061,0,0,0,1,2,0
1051.035,0.00101,0.06445312,0.001953125,-0.009765625,0.3515625,-1.765625,2.914062,0,0.0078125,-0.00390625,0.1933594,0.04296875,0,-0.02941895,-0.006958008,-0.1634521,0,0,-0.01403809,0,3.955,0,0,0,0,nan,2,0.178,1,128,0.1000061,0.1000061,0.1000061,0.1000061,0,0,0,1,2,0
1051.045,0.00101,0.02734375,0,-0.001953125,1.125,0.0625,9.460938,0.001953125,-0.0078125,0.001953125,0.1933594,0.04296875,0,-0.02941895,-0.006958008,-0.1634521,0,0,-0.01403809,0,3.955,0,0,0,0,nan,2,0.188,1,128,0.1000061,0.1000061,0.1000061,0.1000061,0,0,0,1,2,0.4126984
1051.055,0.00101,0.02734375,0.01367188,0,-0.703125,-5.070312,4.726562,-0.01171875,0.009765625,0.009765625,0.1933594,0.04296875,0,-0.02941895,-0.006958008,-0.1633301,0,0,-0.01403809,0,3.955,0,0,0,0,nan,2,0.198,1,128,0.1000061,0.1000061,0.1000061,0.1000061,0,0,0,1,2,0
1051.065,0.001014,0.03320312,-0.01171875,0.00390625,-0.265625,-0.8515625,4.695312,0,-0.009765625,-0.001953125,0.1933594,0.04296875,0,-0.02954102,-0.006835938,-0.1633301,0,0,-0.01403809,0,3.955,0,0,0,0,nan,2,0.208,1,128,0.1000061,0.1000061,0.1000061,0.1000061,0,0,0,1,2,0
1051.075,0.001034,0.0546875,0.0078125,0.01171875,-0.4453125,0.1640625,15.69531,0.03515625,-0.01367188,0.0078125,0.1933594,0.04296875,0,-0.02941895,-0.007080078,-0.1633301,0,0,-0.01403809,0,3.955,0,0,0,0,nan,2,0.218,1,128,0.1000061,0.1000061,0.1000061,0.1000061,0,0,0,1,2,0
1051.085,0.001009,0.02539062,-0.06445312,-0.0078125,-0.4453125,0.65625,18.51562,0.02929688,-0.02734375,-0.005859375,0.1933594,0.04296875,0,-0.0291748,-0.007202148,-0.1633301,0,0,-0.01403809,0,3.955,0,0,0,0,nan,2,0.228,1,128,0.1000061,0.1000061,0.1000061,0.1000061,0,0,0,1,2,0
1051.095,0.00101,0.08203125,-0.009765625,-0.01757812,-0.203125,4.382812,7.929688,0.04296875,-0.0234375,-0.01171875,0.1933594,0.04296875,0,-0.02880859,-0.007446289,-0.1633301,0,0,-0.01403809,0,3.955,0,0,0,0,nan,2,0.238,1,128,0.1000061,0.1000061,0.1000061,0.1000061,0,0,0,1,2,0
1051.105,0.00099,-0.04101562,-0.05273438,-0.01953125,0.1796875,4.976562,3.8125,-0.0078125,-0.04101562,-0.01953125,0.1933594,0.04296875,0,-0.02856445,-0.0078125,-0.1635742,0,0,-0.01403809,0,3.955,0,0,0,0,nan,2,0.248,1,128,0.1000061,0.1000061,0.1000061,0.1000061,0,0,0,1,2,0
1051.116,0.001053,0.0234375,0.005859375,-0.01171875,1.421875,-3.398438,8.460938,0.001953125,0.0078125,-0.01171875,0.1933594,0.04296875,0,-0.02868652,-0.0078125,-0.1636963,0,0,-0.01403809,0,3.955,0,0,0,0,nan,2,0.005,1,128,0.1000061,0.1000061,0.1000061,0.1000061,0,0,0,1,2,0
1051.125,0.001018,-0.0078125,0.02734375,0.009765625,-0.78125,-0.875,15.47656,-0.0078125,0.01367188,-0.001953125,0.1933594,0.04296875,0,-0.02868652,-0.0078125,-0.1636963,0,0,-0.01403809,0,3.955,0,0,0,0,nan,2,0.014,1,128,0.1000061,0.1000061,0.1000061,0.1000061,0,0,0,1,2,0
1051.135,0.00101,-0.0078125,-0.02929688,0.01367188,1.265625,3.125,17.46875,0.0234375,-0.01757812,0.001953125,0.1933594,0.04296875,0,-0.02856445,-0.00769043,-0.1636963,0,0,-0.01403809,0,3.955,0,0,0,0,nan,2,0.024,1,128,0.1000061,0.1000061,0.1000061,0.1000061,0,0,0,1,2,0
1051.145,0.00101,0.005859375,0.005859375,-0.005859375,0.0625,3.460938,7.914062,-0.01367188,0.005859375,-0.00390625,0.1933594,0.04296875,0,-0.02868652,-0.0078125,-0.1636963,0,0,-0.01403809,0,3.955,0,0,0,0,nan,2,0.034,1,128,0.1000061,0.1000061,0.1000061,0.1000061,0,0,0,1,2,0
1051.155,0.00101,-0.03320312,-0.01171875,0.001953125,0.4765625,1.023438,20.125,0,-0.001953125,0.01171875,0.1933594,0.04296875,0,-0.02868652,-0.00769043,-0.1635742,0,0,-0.01403809,0,3.955,0,0,0,0,nan,2,0.044,1,128,0.1000061,0.1000061,0.1000061,0.1000061,0,0,0,1,2,0
1051.165,0.001017,0.06835938,-0.01367188,0.01171875,0.109375,3.351562,12.6875,0.02539062,-0.005859375,0.0078125,0.1933594,0.04296875,0,-0.02880859,-0.0078125,-0.1635742,0,0,-0.01403809,0,3.955,0,0,0,0,nan,2,0.055,1,128,0.1000061,0.1000061,0.1000061,0.1000061,0,0,0,1,2,0
1051.175,0.001007,0.02734375,-0.04296875,-0.01953125,-0.828125,3.53125,6.804688,0.009765625,-0.005859375,-0.005859375,0.1933594,0.04296875,0,-0.02880859,-0.0078125,-0.1634521,0,0,-0.01403809,0,3.955,0,0,0,0,nan,2,0.065,1,128,0.1000061,0.1000061,0.1000061,0.1000061,0,0,0,1,2,0
1051.185,0.001011,-0.00390625,-0.005859375,0.02929688,-0.203125,1.835938,9.898438,0.0078125,-0.00390625,0.01757812,0.1933594,0.04296875,0,-0.02880859,-0.0078125,-0.1634521,0,0,-0.01403809,0,3.955,0,0,0,0,nan,2,0.075,1,128,0.1000061,0.1000061,0.1000061,0.1000061,0,0,0,1,2,0.3809524
1051.195,0.00101,-0.03125,0.01367188,-0.01171875,1.554688,-0.2421875,6.398438,-0.01171875,-0.001953125,0.005859375,0.1933594,0.04296875,0,-0.02868652,-0.0078125,-0.1633301,0,0,-0.01403809,0,3.955,0,0,0,0,nan,2,0.085,1,128,0.1000061,0.1000061,0.1000061,0.1000061,0,0,0,1,2,0
1051.205,0.001008,0.07226562,-0.009765625,0.0078125,1.710938,-2.820312,2.023438,0.0078125,0.0078125,0.01171875,0.1933594,0.04296875,0,-0.02868652,-0.0078125,-0.1633301,0,0,-0.01403809,0,3.955,0,0,0,0,nan,2,0.095,1,128,0.1000061,0.1000061,0.1000061,0.1000061,0,0,0,1,2,0
1051.215,0.00101,-0.03515625,-0.005859375,0.001953125,-1.359375,-2.59375,9.226562,-0.00390625,-0.001953125,-0.001953125,0.1933594,0.04296875,0,-0.02868652,-0.0078125,-0.1633301,0,0,-0.01403809,0,3.955,0,0,0,0,nan,2,0.105,1,128,0.1000061,0.1000061,0.1000061,0.1000061,0,0,0,1,2,0.6825397
1051.225,0.00101,0.03125,-0.015625,0.00390625,-0.6640625,-4.3125,11.54688,0.0078125,0.00390625,0.01953125,0.1933594,0.04296875,0,-0.02868652,-0.00769043,-0.1630859,0,0,-0.01403809,0,3.955,0,0,0,0,nan,2,0.115,1,128,0.1000061,0.1000061,0.1000061,0.1000061,0,0,0,1,2,0
1051.235,0.00101,-0.0390625,-0.0234375,0.0234375,-0.828125,2.1875,11.59375,-0.009765625,-0.00390625,0.01171875,0.1933594,0.04296875,0,-0.02868652,-0.00769043,-0.1630859,0,0,-0.01403809,0,3.955,0,0,0,0,nan,2,0.124,1,128,0.1000061,0.1000061,0.1000061,0.1000061,0,0,0,1,2,0
1051.245,0.00101,0.01367188,-0.04492188,0.01171875,3.414062,2.515625,5.40625,0.00390625,-0.001953125,0.0234375,0.1933594,0.04296875,0,-0.02868652,-0.00769043,-0.1628418,0,0,-0.01403809,0,3.955,0,0,0,0,nan,2,0.134,1,128,0.1000061,0.1000061,0.1000061,0.1000061,0,0,0,1,2,0
1051.255,0.001008,-0.02539062,0.01953125,0.05078125,-1.898438,-0.265625,15.63281,-0.00390625,0.001953125,0.03710938,0.1933594,0.04296875,0,-0.02868652,-0.0078125,-0.1625977,0,0,-0.01403809,0,3.955,0,0,0,0,nan,2,0.144,1,128,0.1000061,0.1000061,0.1000061,0.1000061,0,0,0,1,2,0
1051.265,0.001013,0.001953125,-0.0078125,0.01367188,1.929688,6.476562,11.27344,-0.001953125,-0.005859375,0.02539062,0.1933594,0.04296875,0,-0.02856445,-0.0078125,-0.1622314,0,0,-0.01403809,0,3.955,0,0,0,0,nan,2,0.154,1,128,0.1000061,0.1000061,0.1000061,0.1000061,0,0,0,1,2,0
1051.275,0.001006,0.0234375,0.005859375,0.05078125,-0.7734375,4.054688,9.570312,0.01171875,0.001953125,0.04882812,0.1933594,0.04296875,0,-0.02856445,-0.0078125,-0.1618652,0,0,-0.01403809,0,3.955,0,0,0,0,nan,2,0.165,1,128,0.1000061,0.1000061,0.1000061,0.1000061,0,0,0,1,2,0
1051.285,0.001012,-0.0703125,0.001953125,0.01367188,-1.929688,-2.132812,8.710938,-0.02148438,0.0078125,0.02148438,0.1933594,0.04296875,0,-0.02856445,-0.0078125,-0.161499,0,0,-0.01403809,0,3.955,0,0,0,0,nan,2,0.175,1,128,0.1000061,0.1000061,0.1000061,0.1000061,0,0,0,1,2,0
1051.295,0.00101,-0.015625,0.0078125,0.02929688,1.960938,2.328125,5.023438,0.00390625,0,0.03515625,0.1933594,0.04296875,0,-0.02868652,-0.0078125,-0.1611328,0,0,-0.01403809,0,3.955,0,0,0,0,nan,2,0.185,1,128,0.1000061,0.1000061,0.1000061,0.1000061,0,0,0,1,2,0
1051.305,0.00101,0.0078125,-0.046875,0.009765625,1.679688,-0.953125,4.515625,-0.001953125,-0.001953125,0.01757812,0.1933594,0.04296875,0,-0.02868652,-0.00769043,-0.1610107,0,0,-0.01403809,0,3.955,0,0,0,0,nan,2,0.195,1,128,0.1000061,0.1000061,0.1000061,0.1000061,0,0,0,1,2,0
1051.316,0.001007,0.01953125,0.05859375,0.01171875,-1.765625,-7.742188,7.820312,0,0.01367188,0.01171875,0.1933594,0.04296875,0,-0.02868652,-0.00769043,-0.1607666,0,0,-0.01403809,0,3.955,0,0,0,0,nan,2,0.205,1,128,0.1000061,0.1000061,0.1000061,0.1000061,0,0,0,1,2,0
1051.325,0.00101,-0.01953125,-0.07617188,0.009765625,-0.1171875,-3.609375,6.125,-0.005859375,-0.005859375,0.00390625,0.1933594,0.04296875,0,-0.02880859,-0.00769043,-0.1607666,0,0,-0.01403809,0,3.955,0,0,0,0,nan,2,0.215,1,128,0.1000061,0.1000061,0.1000061,0.1000061,0,0,0,1,2,0
1051.335,0.001019,0.05664062,0.0234375,-0.00390625,-0.1484375,4.671875,10.5625,0.01171875,-0.00390625,-0.00390625,0.1933594,0.04296875,0,-0.02880859,-0.00769043,-0.1607666,0,0,-0.01403809,0,3.955,0,0,0,0,nan,2,0.224,1,128,0.1000061,0.1000061,0.1000061,0.1000061,0,0,0,1,2,0
1051.345,0.001025,-0.05859375,0.005859375,0.009765625,2.03125,3.140625,10.17188,-0.00390625,0.015625,0.0078125,0.1933594,0.04296875,0,-0.02868652,-0.007568359,-0.1607666,0,0,-0.1607666,0,3.955,0,0,0,0,nan,2,0.234,0,128,0,0,0,0,0,0,0,1,2,0
1051.355,0.000996,0,0.03125,0.03515625,-0.25,-1.195312,8.648438,0.009765625,0.01367188,0.02734375,0.1933594,0.04296875,0,-0.02844238,-0.007568359,-0.1605225,0,0,-0.1605225,0,3.955,0,0,0,0,nan,2,0.244,0,128,0,0,0,0,0,0,0,1,2,0
1051.365,0.00102,-0.02734375,-0.02148438,0.0234375,-1.570312,-3.5625,6.179688,-0.00390625,-0.001953125,0.02929688,0.1933594,0.04296875,0,-0.02844238,-0.007568359,-0.1602783,0,0,-0.1602783,0,3.955,0,0,0,0,nan,2,0.254,0,128,0,0,0,0,0,0,0,1,2,0
1051.375,0.000981,-0.01953125,0.00390625,0.05859375,-0.859375,-0.546875,13.85156,-0.01367188,-0.02929688,0.05273438,0.1933594,0.04296875,0,-0.02856445,-0.007568359,-0.15979,0,0,-0.15979,0,3.955,0,0,0,0,nan,2,0.008,0,128,0,0,0,0,0,0,0,1,2,0
1051.385,0.001015,0.0546875,-0.04101562,0.02148438,-0.1796875,-2.0625,8.21875,0.0078125,-0.005859375,0.02539062,0.1933594,0.04296875,0,-0.02856445,-0.007568359,-0.1594238,0,0,-0.1594238,0,3.955,0,0,0,0,nan,2,0.018,0,128,0,0,0,0,0,0,0,1,2,0
1051.395,0.00112,-0.0234375,0.04492188,0.08398438,1.328125,2.15625,10.88281,-0.00390625,0.01953125,0.07226562,0.1933594,0.04296875,0,-0.02856445,-0.007568359,-0.1589355,0,0,-0.1589355,0,3.955,0,0,0,0,nan,2,0.027,0,128,0,0,0,0,0,0,0,1,2,0
1051.405,0.000959,-0.06835938,0.01953125,0.0703125,-0.046875,1.328125,8.585938,-0.02539062,0.015625,0.04296875,0.1933594,0.04296875,0,-0.02880859,-0.007324219,-0.1584473,0,0,-0.1584473,0,3.955,0,0,0,0,nan,2,0.038,0,128,0,0,0,0,0,0,0,1,2,0
1051.415,0.001507,0.0078125,0.06054688,0.05273438,0.2109375,-0.609375,9.53125,-0.01953125,0.01367188,0.06640625,0.1933594,0.04296875,0,-0.02905273,-0.007202148,-0.1578369,0,0,-0.1578369,0,3.955,0,0,0,0,nan,2,0.048,0,128,0,0,0,0,0,0,0,1,2,1
1051.425,0.001099,-0.1015625,-0.06445312,0.0703125,-0.4453125,-3.171875,9.03125,-0.02539062,-0.01171875,0.05859375,0.1933594,0.04296875,0,-0.02905273,-0.007202148,-0.1572266,0,0,-0.1572266,0,3.955,0,0,0,0,nan,2,0.058,0,128,0,0,0,0,0,0,0,1,2,1
1051.435,0.00109,0.01367188,0.01757812,0.07617188,0.09375,0.84375,5.710938,0.01757812,0.005859375,0.07226562,0.1933594,0.04296875,0,-0.02905273,-0.007202148,-0.1566162,0,0,-0.1566162,0,3.955,0,0,0,0,nan,2,0.068,0,128,0,0,0,0,0,0,0,1,2,0
1051.445,0.001148,-0.001953125,0.02734375,0.009765625,0.5625,0.34375,8.007812,-0.015625,0.01367188,0.03710938,0.1933594,0.04296875,0,-0.02905273,-0.007080078,-0.1560059,0,0,-0.1560059,0,3.955,0,0,0,0,nan,2,0.078,0,128,0,0,0,0,0,0,0,1,2,0
1051.455,0.00127,0,-0.01757812,0.06835938,0.9453125,-0.5078125,8.492188,0.005859375,-0.009765625,0.04101562,0.1933594,0.04296875,0,-0.0291748,-0.007080078,-0.1557617,0,0,-0.1557617,0,3.955,0,0,0,0,nan,2,0.088,0,128,0,0,0,0,0,0,0,1,2,0
1051.465,0.001168,-0.01953125,-0.03710938,0.05078125,0.6875,1.578125,7.171875,-0.005859375,0.01171875,0.05273438,0.1933594,0.04296875,0,-0.0291748,-0.006958008,-0.1552734,0,0,-0.1552734,0,3.955,0,0,0,0,nan,2,0.098,0,128,0,0,0,0,0,0,0,1,2,0
1051.475,0.001319,0.001953125,0.01171875,0.0234375,-1.664062,-3.5625,14.89062,0.01757812,-0.001953125,0.03515625,0.1933594,0.04296875,0,-0.02893066,-0.006958008,-0.1547852,0,0,-0.1547852,0,3.955,0,0,0,0,nan,2,0.108,0,128,0,0,0,0,0,0,0,1,2,0
1051.486,0.000929,-0.0390625,-0.0078125,0.04492188,-0.7734375,-2.421875,9.703125,-0.005859375,-0.01757812,0.02148438,0.1933594,0.04296875,0,-0.02893066,-0.007080078,-0.154541,0,0,-0.154541,0,3.996,0,0,0,0,nan,2,0.118,0,128,0,0,0,0,0,0,0,1,2,1
1051.543,0.054583,-0.01757812,0.03515625,0.03710938,1.039062,-0.0703125,7.25,-0.01757812,0.03515625,0.03710938,0.1933594,0.04296875,0,-0.02990723,-0.005004883,-0.1525879,0,0,-0.1525879,0,3.996,0,0,0,0,nan,2,0.176,0,128,0,0,0,0,0,0,0,1,2,0
1051.546,0.00068,-0.04296875,0.00390625,0.02539062,-0.8359375,-1.734375,11.45312,-0.009765625,0.03320312,0.03710938,0.1933594,0.04296875,0,-0.02990723,-0.005004883,-0.1524658,0,0,-0.1524658,0,3.996,0,0,0,0,nan,2,0.178,0,128,0,0,0,0,0,0,0,1,2,0
1051.555,0.001131,-0.001953125,0,-0.001953125,0.1015625,-1.328125,10.625,0.005859375,-0.01367188,0.015625,0.1933594,0.04296875,0,-0.02978516,-0.004882812,-0.1520996,0,0,-0.1520996,0,3.996,0,0,0,0,nan,2,0.188,0,128,0,0,0,0,0,0,0,1,2,1
1051.565,0.001257,-0.04101562,-0.04492188,0.02734375,2.84375,-3.828125,8.171875,-0.009765625,-0.015625,0.01367188,0.1933594,0.04296875,0,-0.02990723,-0.005004883,-0.1520996,0,0,-0.1520996,0,3.996,0,0,0,0,nan,2,0.198,0,128,0,0,0,0,0,0,0,1,2,1
1051.576,0.001031,0.0234375,-0.009765625,0.01757812,1.09375,1.429688,10.05469,0.005859375,0.009765625,0.01367188,0.1933594,0.04296875,0,-0.0300293,-0.005004883,-0.1519775,0,0,-0.1519775,0,3.996,0,0,0,0,nan,2,0.208,0,128,0,0,0,0,0,0,0,1,2,1
1051.585,0.001203,-0.009765625,0.03710938,-0.001953125,2.453125,-3.203125,9.03125,-0.015625,0.009765625,0.005859375,0.1933594,0.04296875,0,-0.03027344,-0.005126953,-0.1518555,0,0,-0.1518555,0,3.996,0,0,0,0,nan,2,0.006,0,128,0,0,0,0,0,0,0,1,2,1
1051.595,0.000912,0.02539062,0.03320312,-0.001953125,0.0546875,0.84375,9.90625,-0.00390625,0.00390625,-0.0078125,0.1933594,0.04296875,0,-0.03027344,-0.005004883,-0.1518555,0,0,-0.1518555,0,3.996,0,0,0,0,nan,2,0.017,0,128,0,0,0,0,0,0,0,1,2,1
1051.605,0.000982,0.01171875,-0.05273438,-0.01757812,1.390625,1.726562,9.203125,0.00390625,-0.005859375,-0.01953125,0.1933594,0.04296875,0,-0.03039551,-0.005004883,-0.1520996,0,0,-0.1520996,0,3.996,0,0,0,0,nan,2,0.026,0,128,0,0,0,0,0,0,0,1,2,1
1051.615,0.000997,-0.09765625,0.001953125,0.015625,0.4453125,-4.0625,8.648438,-0.01757812,-0.00390625,0.00390625,0.1933594,0.04296875,0,-0.03039551,-0.005126953,-0.1520996,0,0,-0.1520996,0,3.996,0,0,0,0,nan,2,0.036,0,128,0,0,0,0,0,0,0,1,2,1
1051.625,0.001609,0.01953125,-0.03710938,-0.01953125,2.3125,-2.25,11.47656,0.005859375,0,0.001953125,0.1933594,0.04296875,0,-0.03051758,-0.005004883,-0.1519775,0,0,-0.1519775,0,3.996,0,0,0,0,nan,2,0.046,0,128,0,0,0,0,0,0,0,1,2,0
1051.636,0.001323,0.02148438,0.03515625,-0.0078125,-1.203125,1.59375,9.976562,0.009765625,0.01367188,0.001953125,0.1933594,0.04296875,0,-0.03051758,-0.005004883,-0.1519775,0,0,-0.1519775,0,3.996,0,0,0,0,nan,2,0.057,0,128,0,0,0,0,0,0,0,1,2,1
1051.645,0.000664,0.1035156,0.03710938,0.00390625,-1.3125,1.375,10.61719,-0.005859375,0,0.005859375,0.1933594,0.04296875,0,-0.03039551,-0.004760742,-0.1519775,0,0,-0.1519775,0,3.996,0,0,0,0,nan,2,0.066,0,128,0,0,0,0,0,0,0,1,2,0
1051.655,0.001478,-0.03320312,0.005859375,0.03320312,-0.4453125,-2.179688,9.75,-0.03125,0,0.0078125,0.1933594,0.04296875,0,-0.03076172,-0.004760742,-0.1519775,0,0,-0.1519775,0,3.996,0,0,0,0,nan,2,0.076,0,128,0,0,0,0,0,0,0,1,2,1
1051.708,0.053847,0.03515625,0,-0.03125,-0.3359375,1.507812,9.84375,0.03515625,0,-0.03125,0.1933594,0.04296875,0,-0.02844238,-0.004760742,-0.1536865,0,0,-0.1536865,0,3.996,0,0,0,0,nan,2,0.13,0,128,0,0,0,0,0,0,0,1,2,1
1051.715,0.000631,-0.02148438,-0.001953125,0.0078125,-1.242188,0.3203125,9.484375,0.01171875,0.001953125,-0.001953125,0.1933594,0.04296875,0,-0.02807617,-0.004638672,-0.1536865,0,0,-0.1536865,0,3.996,0,0,0,0,nan,2,0.137,0,128,0,0,0,0,0,0,0,1,2,1
1051.725,0.001007,-0.015625,0.01757812,-0.01367188,0.8359375,-0.1953125,9.9375,-0.001953125,0,-0.00390625,0.1933594,0.04296875,0,-0.0279541,-0.004638672,-0.1538086,0,0,-0.1538086,0,3.996,0,0,0,0,nan,2,0.147,0,128,0,0,0,0,0,0,0,1,2,1
1051.735,0.001011,0.01953125,-0.01757812,0.03320312,0.2109375,-0.2578125,9.757812,0,-0.00390625,0.0078125,0.1933594,0.04296875,0,-0.02783203,-0.004638672,-0.1538086,0,0,-0.1538086,0,3.996,0,0,0,0,nan,2,0.157,0,128,0,0,0,0,0,0,0,1,2,1
1051.745,0.001013,0.0234375,-0.0234375,0.0234375,0.2265625,-0.5703125,9.382812,-0.001953125,-0.009765625,0.0078125,0.1933594,0.04296875,0,-0.02783203,-0.004638672,-0.1538086,0,0,-0.1538086,0,3.996,0,0,0,0,nan,2,0.166,0,128,0,0,0,0,0,0,0,1,2,1
1051.755,0.001011,0.01757812,0.01171875,-0.00390625,0.96875,-0.7265625,9.8125,0.005859375,0.001953125,-0.00390625,0.1933594,0.04296875,0,-0.02783203,-0.004638672,-0.1538086,0,0,-0.1538086,0,3.996,0,0,0,0,nan,2,0.176,0,128,0,0,0,0,0,0,0,1,2,1
1051.765,0.001011,0.015625,0.01757812,0.005859375,0.3203125,-0.234375,10.45312,0,0.005859375,-0.001953125,0.1933594,0.04296875,0,-0.0279541,-0.004638672,-0.1538086,0,0,-0.1538086,0,3.996,0,0,0,0,nan,2,0.186,0,128,0,0,0,0,0,0,0,1,2,1
1051.775,0.001028,0.00390625,0.00390625,0.02734375,0.4453125,-0.5390625,9.835938,0,0,0.005859375,0.1933594,0.04296875,0,-0.02783203,-0.004760742,-0.1538086,0,0,-0.1538086,0,3.996,0,0,0,0,nan,2,0.197,0,128,0,0,0,0,0,0,0,1,2,1
1051.785,0.001026,0.001953125,-0.0078125,0.015625,0.6875,-0.0859375,9.960938,0,0,-0.005859375,0.1933594,0.04296875,0,-0.02783203,-0.004638672,-0.1538086,0,0,-0.1538086,0,3.996,0,0,0,0,nan,2,0.009,0,128,0,0,0,0,0,0,0,1,2,1
1051.795,0.001008,-0.01171875,0.001953125,-0.01171875,0.140625,0.296875,9.625,0.001953125,0.001953125,-0.00390625,0.1933594,0.04296875,0,-0.02783203,-0.004638672,-0.1538086,0,0,-0.1538086,0,3.996,0,0,0,0,nan,2,0.019,0,128,0,0,0,0,0,0,0,1,2,1
1051.805,0.00101,-0.0078125,0.00390625,-0.005859375,-0.140625,-0.7421875,9.875,0.005859375,0.001953125,-0.005859375,0.1933594,0.04296875,0,-0.02783203,-0.004638672,-0.1538086,0,0,-0.1538086,0,3.996,0,0,0,0,nan,2,0.029,0,128,0,0,0,0,0,0,0,1,2,1
1051.815,0.00101,0.015625,0.015625,0.01367188,0.1484375,-0.375,9.953125,0.001953125,0.001953125,0.0078125,0.1933594,0.04296875,0,-0.02783203,-0.004638672,-0.1538086,0,0,-0.1538086,0,3.996,0,0,0,0,nan,2,0.039,0,128,0,0,0,0,0,0,0,1,2,1
1051.825,0.001012,-0.01367188,-0.015625,-0.009765625,-0.25,0.046875,9.640625,-0.00390625,-0.00390625,-0.005859375,0.1933594,0.04296875,0,-0.02783203,-0.004638672,-0.1538086,0,0,-0.1538086,0,3.996,0,0,0,0,nan,2,0.049,0,128,0,0,0,0,0,0,0,1,2,1
1051.835,0.00101,0.00390625,0.009765625,0.005859375,0.546875,-0.640625,10.07812,0.001953125,0.0078125,0.001953125,0.1933594,0.04296875,0,-0.02783203,-0.004638672,-0.1538086,0,0,-0.1538086,0,3.996,0,0,0,0,nan,2,0.06,0,128,0,0,0,0,0,0,0,1,2,1
1051.844,0.001008,0.00390625,-0.009765625,0,-0.5,-0.328125,9.757812,-0.001953125,-0.005859375,0.00390625,0.1933594,0.04296875,0,-0.0279541,-0.004638672,-0.1538086,0,0,-0.1538086,0,3.996,0,0,0,0,nan,2,0.069,0,128,0,0,0,0,0,0,0,1,2,1
1051.855,0.001008,-0.01171875,0.001953125,-0.009765625,0.375,-0.171875,10.0625,-0.001953125,0.00390625,-0.005859375,0.1933594,0.04296875,0,-0.0279541,-0.004638672,-0.1538086,0,0,-0.1538086,0,3.996,0,0,0,0,nan,2,0.079,0,128,0,0,0,0,0,0,0,1,2,1
1051.865,0.001005,0.01757812,0.0078125,0.01171875,-0.1796875,-0.6171875,9.695312,0.005859375,0,0.00390625,0.1933594,0.04296875,0,-0.0279541,-0.004638672,-0.1538086,0,0,-0.1538086,0,3.996,0,0,0,0,nan,2,0.089,0,128,0,0,0,0,0,0,0,1,2,1
1051.875,0.001008,-0.009765625,-0.005859375,-0.01367188,0.0078125,-0.4296875,10,-0.001953125,0.001953125,0,0.1933594,0.04296875,0,-0.0279541,-0.004638672,-0.1538086,0,0,-0.1538086,0,3.996,0,0,0,0,nan,2,0.099,0,128,0,0,0,0,0,0,0,1,2,1
1051.885,0.001,0.001953125,0.00390625,-0.0078125,-0.140625,-0.2109375,9.960938,0,0,-0.00390625,0.1933594,0.04296875,0,-0.0279541,-0.004638672,-0.1538086,0,0,-0.1538086,0,3.996,0,0,0,0,nan,2,0.109,0,128,0,0,0,0,0,0,0,1,2,1
1051.895,0.000945,-0.0078125,-0.00390625,-0.00390625,0.0234375,0.0078125,9.703125,-0.00390625,0,-0.001953125,0.1933594,0.04296875,0,-0.02807617,-0.004638672,-0.1538086,0,0,-0.1538086,0,3.996,0,0,0,0,nan,2,0.119,0,128,0,0,0,0,0,0,0,1,2,1
1051.905,0.001004,-0.001953125,0.00390625,0.005859375,0.109375,-0.25,9.921875,0,0.001953125,-0.001953125,0.1933594,0.04296875,0,-0.02807617,-0.004638672,-0.1538086,0,0,-0.1538086,0,3.996,0,0,0,0,nan,2,0.129,0,128,0,0,0,0,0,0,0,1,2,1
1051.915,0.001008,-0.0078125,-0.00390625,0,0.0703125,-0.078125,9.953125,-0.00390625,-0.001953125,-0.00390625,0.1933594,0.04296875,0,-0.02807617,-0.004638672,-0.1538086,0,0,-0.1538086,0,3.996,0,0,0,0,nan,2,0.139,0,128,0,0,0,0,0,0,0,1,2,1
1051.925,0.001005,-0.00390625,0.00390625,0,0.15625,-0.2109375,9.867188,0,0.001953125,-0.00390625,0.1933594,0.04296875,0,-0.02807617,-0.004638672,-0.1538086,0,0,-0.1538086,0,3.996,0,0,0,0,nan,2,0.149,0,128,0,0,0,0,0,0,0,1,2,1
1051.935,0.001008,-0.01171875,-0.00390625,-0.009765625,-0.171875,-0.203125,9.75,-0.00390625,-0.001953125,-0.005859375,0.1933594,0.04296875,0,-0.02807617,-0.004638672,-0.1538086,0,0,-0.1538086,0,3.996,0,0,0,0,nan,2,0.16,0,128,0,0,0,0,0,0,0,1,2,1
1051.945,0.001005,0.001953125,0,-0.005859375,0.0234375,-0.421875,9.765625,0.001953125,0,-0.001953125,0.1933594,0.04296875,0,-0.02807617,-0.004516602,-0.1538086,0,0,-0.1538086,0,3.996,0,0,0,0,nan,2,0.17,0,128,0,0,0,0,0,0,0,1,2,1
1051.955,0.001012,0.005859375,0,0.0078125,0.2421875,-0.328125,9.859375,0.001953125,0.001953125,0.001953125,0.1933594,0.04296875,0,-0.02807617,-0.004516602,-0.1538086,0,0,-0.1538086,0,3.996,0,0,0,0,nan,2,0.179,0,128,0,0,0,0,0,0,0,1,2,1
1051.965,0.00101,0.001953125,0.00390625,0.00390625,0.1015625,-0.1640625,9.78125,0,0.001953125,0,0.1933594,0.04296875,0,-0.02807617,-0.004516602,-0.1538086,0,0,-0.1538086,0,3.996,0,0,0,0,nan,2,0.189,0,128,0,0,0,0,0,0,0,1,2,1
1051.975,0.00106,-0.00390625,-0.00390625,-0.0078125,-0.0234375,-0.328125,9.882812,0,-0.001953125,-0.001953125,0.1933594,0.04296875,0,-0.02807617,-0.004638672,-0.1538086,0,0,-0.1538086,0,3.996,0,0,0,0,nan,2,0,0,128,0,0,0,0,0,0,0,1,2,1
1051.985,0.00101,0.0078125,0,0.009765625,0.140625,-0.28125,9.875,0.00390625,0.001953125,0.0078125,0.1933594,0.04296875,0,-0.02807617,-0.004516602,-0.1538086,0,0,-0.1538086,0,3.996,0,0,0,0,nan,2,0.01,0,128,0,0,0,0,0,0,0,1,2,1
1051.995,0.001001,-0.009765625,0.00390625,-0.005859375,-0.0859375,-0.203125,9.804688,-0.00390625,0,-0.0078125,0.1933594,0.04296875,0,-0.02819824,-0.004516602,-0.1538086,0,0,-0.1538086,0,3.996,0,0,0,0,nan,2,0.02,0,128,0,0,0,0,0,0,0,1,2,1
1052.005,0.00101,0.00390625,-0.005859375,0.00390625,0.125,-0.4296875,9.851562,0.00390625,0,0.005859375,0.1933594,0.04296875,0,-0.02819824,-0.004516602,-0.1538086,0,0,-0.1538086,0,3.996,0,0,0,0,nan,2,0.03,0,128,0,0,0,0,0,0,0,1,2,1
1052.015,0.001009,-0.00390625,0.005859375,-0.005859375,-0.015625,-0.1640625,9.90625,-0.00390625,0,-0.00390625,0.1933594,0.04296875,0,-0.02819824,-0.004516602,-0.1538086,0,0,-0.1538086,0,3.996,0,0,0,0,nan,2,0.04,0,128,0,0,0,0,0,0,0,1,2,1
1052.025,0.001012,0.00390625,-0.0078125,0.001953125,0.09375,-0.375,9.851562,0.00390625,0,0.00390625,0.1933594,0.04296875,0,-0.02819824,-0.004516602,-0.1536865,0,0,-0.1536865,0,3.996,0,0,0,0,nan,2,0.05,0,128,0,0,0,0,0,0,0,1,2,1
1052.036,0.001009,-0.001953125,0.001953125,-0.001953125,-0.015625,-0.21875,9.835938,-0.001953125,0,-0.00390625,0.1933594,0.04296875,0,-0.02819824,-0.004516602,-0.1538086,0,0,-0.1538086,0,3.996,0,0,0,0,nan,2,0.061,0,128,0,0,0,0,0,0,0,1,2,1
1052.046,0.001012,0.00390625,-0.00390625,-0.00390625,0.0390625,-0.4140625,9.804688,0.001953125,-0.001953125,0,0.1933594,0.04296875,0,-0.02819824,-0.004516602,-0.1538086,0,0,-0.1538086,0,3.996,0,0,0,0,nan,2,0.071,0,128,0,0,0,0,0,0,0,1,2,1
1052.055,0.001009,-0.001953125,0,-0.001953125,0.0390625,-0.2578125,9.78125,-0.001953125,0,-0.001953125,0.1933594,0.04296875,0,-0.02819824,-0.004516602,-0.1538086,0,0,-0.1538086,0,3.996,0,0,0,0,nan,2,0.08,0,128,0,0,0,0,0,0,0,1,2,1
1052.065,0.001007,0.001953125,-0.001953125,0,-0.0546875,-0.3515625,9.867188,0.001953125,-0.001953125,0,0.1933594,0.04296875,0,-0.02819824,-0.004516602,-0.1538086,0,0,-0.1538086,0,3.996,0,0,0,0,nan,2,0.09,0,128,0,0,0,0,0,0,0,1,2,1
1052.075,0.001006,-0.001953125,0.001953125,0,0.1171875,-0.25,9.835938,-0.001953125,0,0,0.1933594,0.04296875,0,-0.02832031,-0.004516602,-0.1538086,0,0,-0.1538086,0,3.996,0,0,0,0,nan,2,0.1,0,128,0,0,0,0,0,0,0,1,2,1
1052.085,0.001002,0.001953125,-0.001953125,0.00390625,-0.03125,-0.3359375,9.84375,0.001953125,-0.001953125,0.001953125,0.1933594,0.04296875,0,-0.02832031,-0.004516602,-0.1538086,0,0,-0.1538086,0,3.996,0,0,0,0,nan,2,0.11,0,128,0,0,0,0,0,0,0,1,2,1
1052.095,0.001027,-0.00390625,0.00390625,-0.005859375,0.1171875,-0.2734375,9.875,0,0.001953125,-0.001953125,0.1933594,0.04296875,0,-0.02832031,-0.004516602,-0.1538086,0,0,-0.1538086,0,3.996,0,0,0,0,nan,2,0.12,0,128,0,0,0,0,0,0,0,1,2,1
1052.105,0.001008,-0.001953125,0.001953125,0,-0.0390625,-0.3125,9.828125,-0.001953125,0,0,0.1933594,0.04296875,0,-0.02832031,-0.004516602,-0.1538086,0,0,-0.1538086,0,3.996,0,0,0,0,nan,2,0.13,0,128,0,0,0,0,0,0,0,1,2,1
1052.115,0.001002,0,0,-0.001953125,0.0703125,-0.2578125,9.828125,-0.001953125,0.001953125,-0.001953125,0.1933594,0.04296875,0,-0.02832031,-0.004516602,-0.1538086,0,0,-0.1538086,0,3.996,0,0,0,0,nan,2,0.14,0,128,0,0,0,0,0,0,0,1,2,1
1052.125,0.001008,0.001953125,0,0.00390625,0,-0.3125,9.859375,0,0,0.001953125,0.1933594,0.04296875,0,-0.02832031,-0.004516602,-0.1538086,0,0,-0.1538086,0,3.996,0,0,0,0,nan,2,0.15,0,128,0,0,0,0,0,0,0,1,2,1
1052.136,0.001003,0.001953125,0.001953125,0,0.0625,-0.28125,9.8125,0,0,0,0.1933594,0.04296875,0,-0.02832031,-0.004516602,-0.1538086,0,0,-0.1538086,0,4.002,0,0,0,0,nan,2,0.161,0,128,0,0,0,0,0,0,0,1,2,1
1052.145,0.001008,0,0.001953125,0,0.046875,-0.34375,9.828125,0,0,0,0.1933594,0.04296875,0,-0.02832031,-0.004516602,-0.1538086,0,0,-0.1538086,0,4.002,0,0,0,0,nan,2,0.171,0,128,0,0,0,0,0,0,0,1,2,1
1052.155,0.001017,-0.001953125,0,0,0.0546875,-0.296875,9.875,0,0,-0.001953125,0.1933594,0.04296875,0,-0.02844238,-0.004516602,-0.1538086,0,0,-0.1538086,0,4.002,0,0,0,0,nan,2,0.18,0,128,0,0,0,0,0,0,0,1,2,1
1052.165,0.001009,0.001953125,0,0.001953125,0,-0.3125,9.882812,0.001953125,-0.001953125,0,0.1933594,0.04296875,0,-0.02844238,-0.004516602,-0.1538086,0,0,-0.1538086,0,4.002,0,0,0,0,nan,2,0.19,0,128,0,0,0,0,0,0,0,1,2,1
1052.175,0.00102,0,0,-0.00390625,0.046875,-0.3046875,9.875,0,-0.001953125,-0.001953125,0.1933594,0.04296875,0,-0.02844238,-0.004516602,-0.1538086,0,0,-0.1538086,0,4.002,0,0,0,0,nan,2,0.2,0,128,0,0,0,0,0,0,0,1,2,1
1052.185,0.001004,0,0,0,0.078125,-0.28125,9.804688,-0.001953125,-0.001953125,0,0.1933594,0.04296875,0,-0.02844238,-0.004516602,-0.1538086,0,0,-0.1538086,0,4.002,0,0,0,0,nan,2,0.009,0,128,0,0,0,0,0,0,0,1,2,1
1052.195,0.000999,-0.001953125,0,0,-0.015625,-0.3046875,9.851562,-0.001953125,0.001953125,0,0.1933594,0.04296875,0,-0.02844238,-0.004516602,-0.1538086,0,0,-0.1538086,0,4.002,0,0,0,0,nan,2,0.019,0,128,0,0,0,0,0,0,0,1,2,1
1052.205,0.001011,0,0.001953125,0,0.0625,-0.2734375,9.804688,0,0.001953125,0,0.1933594,0.04296875,0,-0.02844238,-0.004516602,-0.1538086,0,0,-0.1538086,0,4.002,0,0,0,0,nan,2,0.029,0,128,0,0,0,0,0,0,0,1,2,1
1052.215,0.001012,0,0,0,0.03125,-0.296875,9.804688,0,0,0,0.1933594,0.04296875,0,-0.02844238,-0.004516602,-0.1538086,0,0,-0.1538086,0,4.002,0,0,0,0,nan,2,0.039,0,128,0,0,0,0,0,0,0,1,2,1
1052.225,0.001029,0.001953125,0.001953125,0,0.0546875,-0.3046875,9.867188,0,0,0,0.1933594,0.04296875,0,-0.02856445,-0.004516602,-0.1538086,0,0,-0.1538086,0,4.002,0,0,0,0,nan,2,0.049,0,128,0,0,0,0,0,0,0,1,2,1
1052.235,0.001012,-0.001953125,0.001953125,-0.001953125,0.0546875,-0.2734375,9.84375,0,0.001953125,0,0.1933594,0.04296875,0,-0.02856445,-0.004516602,-0.1538086,0,0,-0.1538086,0,4.002,0,0,0,0,nan,2,0.06,0,128,0,0,0,0,0,0,0,1,2,1
1052.245,0.001011,0.001953125,-0.00390625,0,0.0234375,-0.3203125,9.820312,0,0,0,0.1933594,0.04296875,0,-0.02856445,-0.004516602,-0.1538086,0,0,-0.1538086,0,4.002,0,0,0,0,nan,2,0.07,0,128,0,0,0,0,0,0,0,1,2,1
1052.255,0.001012,0,0,0,0.0390625,-0.2890625,9.859375,0,0,-0.001953125,0.1933594,0.04296875,0,-0.02856445,-0.004516602,-0.1538086,0,0,-0.1538086,0,4.002,0,0,0,0,nan,2,0.079,0,128,0,0,0,0,0,0,0,1,2,1
1052.265,0.001008,0,0.001953125,0.001953125,0.0546875,-0.3046875,9.84375,-0.001953125,0,0.001953125,0.1933594,0.04296875,0,-0.02856445,-0.004516602,-0.1538086,0,0,-0.1538086,0,4.002,0,0,0,0,nan,2,0.089,0,128,0,0,0,0,0,0,0,1,2,1
1052.275,0.00101,0,0.001953125,0,0.03125,-0.3046875,9.828125,0,0,0,0.1933594,0.04296875,0,-0.02856445,-0.004516602,-0.1538086,0,0,-0.1538086,0,4.002,0,0,0,0,nan,2,0.099,0,128,0,0,0,0,0,0,0,1,2,1
1052.285,0.001008,0,0,0.001953125,0.0078125,-0.3359375,9.796875,0,0,0.001953125,0.1933594,0.04296875,0,-0.02856445,-0.004516602,-0.1538086,0,0,-0.1538086,0,4.002,0,0,0,0,nan,2,0.109,0,128,0,0,0,0,0,0,0,1,2,1
1052.295,0.001006,-0.001953125,0.001953125,0.001953125,0.046875,-0.34375,9.820312,0,0.001953125,0,0.1933594,0.04296875,0,-0.02856445,-0.004516602,-0.1538086,0,0,-0.1538086,0,4.002,0,0,0,0,nan,2,0.119,0,128,0,0,0,0,0,0,0,1,2,1
1052.305,0.000963,0,0,0,0.0234375,-0.3125,9.835938,0,0,0,0.1933594,0.04296875,0,-0.02856445,-0.004516602,-0.1538086,0,0,-0.1538086,0,4.002,0,0,0,0,nan,2,0.129,0,128,0,0,0,0,0,0,0,1,2,1
1052.315,0.001011,0.001953125,0,0,0.046875,-0.3125,9.851562,0,0,0,0.1933594,0.04296875,0,-0.02856445,-0.004516602,-0.1538086,0,0,-0.1538086,0,4.002,0,0,0,0,nan,2,0.139,0,128,0,0,0,0,0,0,0,1,2,1
1052.325,0.001009,0,0,-0.001953125,0.0546875,-0.328125,9.78125,0,0,0,0.1933594,0.04296875,0,-0.02868652,-0.004516602,-0.1538086,0,0,-0.1538086,0,4.002,0,0,0,0,nan,2,0.149,0,128,0,0,0,0,0,0,0,1,2,1
1052.335,0.001011,0.001953125,-0.00390625,-0.001953125,0.0234375,-0.3125,9.828125,0,0,0,0.1933594,0.04296875,0,-0.02868652,-0.004516602,-0.1538086,0,0,-0.1538086,0,4.002,0,0,0,0,nan,2,0.16,0,128,0,0,0,0,0,0,0,1,2,1
