t,dt_s,gyro_x,gyro_y,gyro_z,acc_x,acc_y,acc_z,rates.x,rates.y,rates.z,ratesTarget.x,ratesTarget.y,ratesTarget.z,attitude.x,attitude.y,attitude.z,attitudeTarget.x,attitudeTarget.y,attitudeTarget.z,thrustTarget,battery_v,rc_roll,rc_pitch,rc_yaw,rc_throttle,rc_mode,flight_mode,rc_age_s,armed,fault_mask,motor_rl,motor_rr,motor_fr,motor_fl,rate_i_x,rate_i_y,rate_i_z,mix_scale,control_source,accel_correction_confidence
1574.713,0.001033,-0.0703125,-0.1191406,0.1210938,-5.5,-2.125,14.71094,-0.1660156,-0.1835938,0.1269531,0.009765625,0.01757812,0,-0.001708984,-0.002929688,-3.040161,0,0,2.570557,0.3526306,3.484,0,0,0,0.3499756,nan,2,0.032,1,128,0.4379578,0.2946472,0.379425,0.2985229,-0.002929688,-0.0078125,-0.006835938,1,2,0
1574.723,0.00097,0.04882812,-0.1132812,0.08984375,1.210938,4.765625,22.28125,-0.1132812,-0.1113281,0.1132812,0.01953125,0.02734375,0,-0.003295898,-0.004760742,-3.03894,0,0,2.570557,0.3526306,3.484,0,0,0,0.3499756,nan,2,0.042,1,128,0.3604126,0.3253174,0.3849182,0.3398743,-0.001953125,-0.0078125,-0.006835938,1,2,0
1574.733,0.000984,0.02148438,-0.0859375,0.04882812,0.3046875,2.085938,-5.476562,-0.001953125,0.009765625,0.1074219,0.0234375,0.03125,0,-0.00390625,-0.005126953,-3.03772,0,0,2.570557,0.3442078,3.484,0,0,0,0.3400269,nan,2,0.001,1,128,0.330719,0.3262939,0.3840942,0.3357239,-0.001953125,-0.0078125,-0.006835938,1,2,0
1574.743,0.001009,0.1269531,0.109375,0.1269531,-1.757812,2.085938,0.59375,0.07421875,0.1015625,0.1230469,0.02148438,0.02734375,0,-0.003417969,-0.004516602,-3.036621,0,0,2.570557,0.3442078,3.484,0,0,0,0.3400269,nan,2,0.011,1,128,0.3710938,0.2713623,0.4402771,0.2940674,-0.001953125,-0.0078125,-0.006835938,1,2,0
1574.753,0.001009,0.1386719,0.01171875,0.1015625,3.53125,1.570312,16.51562,0.1328125,0.1289062,0.1191406,0.01367188,0.01953125,0,-0.002441406,-0.003173828,-3.035522,0,0,2.570557,0.3442078,3.484,0,0,0,0.3400269,nan,2,0.021,1,128,0.3635559,0.2975464,0.425415,0.2903137,-0.001953125,-0.0078125,-0.006835938,1,2,0
1574.762,0.001033,0.1367188,0.05273438,0.1171875,0.3828125,2.835938,9.070312,0.09179688,0.08398438,0.1171875,0.009765625,0.01367188,0,-0.001464844,-0.002197266,-3.034424,0,0,2.570557,0.3442078,3.484,0,0,0,0.3400269,nan,2,0.03,1,128,0.3680725,0.3033752,0.3983154,0.3070679,-0.001953125,-0.0078125,-0.006835938,1,2,0
1574.772,0.001025,-0.1367188,-0.421875,0.1074219,0.6953125,3.921875,-7.054688,-0.04492188,-0.1894531,0.1074219,0.0078125,0.015625,0,-0.001342773,-0.002685547,-3.033325,0,0,2.570557,0.3442078,3.484,0,0,0,0.3400269,nan,2,0.04,1,128,0.4229126,0.330658,0.330658,0.2926025,-0.001953125,-0.0078125,-0.006835938,1,2,0
1574.782,0.001002,-0.00390625,-0.3339844,0.1210938,-2.359375,-2.140625,-5.109375,-0.1367188,-0.2871094,0.1015625,0.015625,0.03125,0,-0.002563477,-0.005249023,-3.032227,0,0,2.570557,0.3442078,3.484,0,0,0,0.3400269,nan,2,0.05,1,128,0.4107971,0.3252258,0.3422852,0.2985229,-0.001953125,-0.0078125,-0.006835938,1,2,0
1574.793,0.001042,0.109375,-0.05664062,0.1738281,-0.828125,0.90625,11.75,-0.0625,-0.1640625,0.1269531,0.02148438,0.04492188,0,-0.003540039,-0.007446289,-3.031128,0,0,2.570557,0.3399963,3.484,0,0,0,0.335022,nan,2,0.009,1,128,0.4094238,0.2628174,0.4232178,0.2645569,-0.001953125,-0.006835938,-0.006835938,1,2,0
1574.802,0.001002,0.2734375,0.02929688,0.1484375,-1.890625,1.570312,5.234375,0.078125,-0.03125,0.125,0.02148438,0.05078125,0,-0.003662109,-0.008422852,-3.029907,0,0,2.570557,0.3399963,3.484,0,0,0,0.335022,nan,2,0.019,1,128,0.3608093,0.2876587,0.441864,0.2696838,-0.001953125,-0.006835938,-0.006835938,1,2,0
1574.812,0.001013,0.1328125,0.001953125,0.1308594,4.0625,6.609375,1.242188,0.1503906,0.06445312,0.1132812,0.015625,0.04882812,0,-0.002441406,-0.008178711,-3.028687,0,0,2.570557,0.3399963,3.484,0,0,0,0.335022,nan,2,0.029,1,128,0.3422241,0.3033142,0.4148254,0.2996521,-0.001953125,-0.006835938,-0.006835938,1,2,0
1574.823,0.001009,0.05859375,0.01171875,0.1113281,-0.765625,6.320312,-10.8125,0.1308594,0.1035156,0.1074219,0.005859375,0.04296875,0,-0.001098633,-0.007202148,-3.027588,0,0,2.570557,0.3399963,3.484,0,0,0,0.335022,nan,2,0.039,1,128,0.3462524,0.3091736,0.388855,0.3157043,-0.001953125,-0.006835938,-0.006835938,1,2,0
1574.833,0.001009,0.0078125,0.1015625,0.09570312,-6.671875,0.53125,4.179688,0.09375,0.04882812,0.1113281,-0.001953125,0.0390625,0,0.0003662109,-0.006347656,-3.026367,0,0,2.570557,0.3399963,3.484,0,0,0,0.335022,nan,2,0.049,1,128,0.3675232,0.3084412,0.3694458,0.3145752,-0.002929688,-0.006835938,-0.006835938,1,2,0
1574.843,0.001009,-0.0234375,-0.08203125,0.1035156,-3.21875,0.65625,17.76562,-0.015625,-0.1230469,0.1132812,-0.00390625,0.04101562,0,0.0007324219,-0.006835938,-3.025269,0,0,2.570557,0.3399963,3.484,0,0,0,0.335022,nan,2,0.06,1,128,0.4022217,0.3133545,0.3494568,0.2949524,-0.002929688,-0.006835938,-0.006835938,1,2,0
1574.853,0.001009,-0.2539062,-0.1835938,0.1328125,-2.382812,0.8125,-1.304688,-0.1132812,-0.2207031,0.1210938,0,0.0546875,0,-0.0001220703,-0.009033203,-3.02417,0,0,2.570557,0.3399963,3.484,0,0,0,0.335022,nan,2,0.07,1,128,0.4290771,0.2819214,0.3721313,0.2768555,-0.002929688,-0.006835938,-0.006835938,1,2,0
1574.862,0.000957,0.04492188,-0.2578125,0.078125,4.75,0.1640625,1.976562,-0.02539062,-0.1484375,0.109375,0.00390625,0.0625,0,-0.0007324219,-0.01049805,-3.023071,0,0,2.570557,0.3399963,3.484,0,0,0,0.335022,nan,2,0.079,1,128,0.3623657,0.3251648,0.3738403,0.2986145,-0.001953125,-0.006835938,-0.006835938,1,2,0
1574.872,0.000956,0.2089844,-0.2910156,0.1074219,11.00781,-0.2421875,-7.734375,0.09960938,-0.03710938,0.109375,0.001953125,0.06640625,0,-0.0004882812,-0.0111084,-3.021973,0,0,2.570557,0.3399963,3.484,0,0,0,0.335022,nan,2,0.089,1,128,0.3500671,0.3262939,0.4013367,0.2822876,-0.001953125,-0.006835938,-0.006835938,1,2,0
1574.882,0.001027,0.3085938,-0.1230469,0.1054688,5.03125,-4.835938,-4.390625,0.1640625,0.09375,0.1152344,-0.005859375,0.06054688,0,0.0008544922,-0.01013184,-3.020752,0,0,2.570557,0.3315735,3.484,0,0,0,0.3250122,nan,2,0.002,1,128,0.3372803,0.305481,0.4012451,0.2822876,-0.002929688,-0.006835938,-0.006835938,1,2,0
1574.892,0.000988,0.2695312,0.1308594,0.1503906,-1.0625,-3.9375,9.257812,0.125,0.15625,0.1210938,-0.01367188,0.05273438,0,0.002319336,-0.008666992,-3.019531,0,0,2.570557,0.3315735,3.484,0,0,0,0.3250122,nan,2,0.012,1,128,0.3623962,0.2673035,0.4159546,0.2806702,-0.002929688,-0.006835938,-0.006835938,1,2,0
1574.902,0.00102,0.005859375,0.2382812,0.1425781,-4.507812,2.351562,15.77344,0.04492188,0.1132812,0.1328125,-0.01953125,0.04492188,0,0.003295898,-0.007568359,-3.018311,0,0,2.570557,0.3315735,3.696,0,0,0,0.3250122,nan,2,0.022,1,128,0.3756409,0.2599792,0.3971863,0.2934875,-0.002929688,-0.006835938,-0.006835938,1,2,0
1574.912,0.001006,-0.234375,0.05664062,0.09960938,-7.8125,5.734375,10.76562,-0.046875,-0.07617188,0.1035156,-0.02148438,0.046875,0,0.003417969,-0.00793457,-3.01709,0,0,2.570557,0.3315735,3.696,0,0,0,0.3250122,nan,2,0.032,1,128,0.3746033,0.3051453,0.3331909,0.3133545,-0.002929688,-0.006835938,-0.006835938,1,2,0
1574.923,0.00098,-0.3300781,-0.09960938,0.1132812,-2.40625,1.617188,5,-0.1484375,-0.171875,0.1113281,-0.015625,0.05859375,0,0.002563477,-0.009643555,-3.015991,0,0,2.570557,0.3315735,3.696,0,0,0,0.3250122,nan,2,0.042,1,128,0.4075623,0.2784119,0.3475037,0.2928467,-0.002929688,-0.005859375,-0.006835938,1,2,0
1574.933,0.0009869999,-0.1015625,-0.2519531,0.1386719,3.757812,1.210938,-4.328125,-0.07617188,-0.1425781,0.1289062,-0.0078125,0.06640625,0,0.001464844,-0.0111084,-3.014771,0,0,2.570557,0.3273621,3.696,0,0,0,0.3200073,nan,2,0.003,1,128,0.3819275,0.2871704,0.3729248,0.2674561,-0.002929688,-0.005859375,-0.006835938,1,2,0
1574.943,0.00106,0.2089844,-0.1171875,0.1035156,3.289062,-1.132812,-0.8203125,0.04492188,0.0078125,0.1054688,-0.0078125,0.06835938,0,0.001220703,-0.01147461,-3.01355,0,0,2.570557,0.3273621,3.696,0,0,0,0.3200073,nan,2,0.013,1,128,0.3163757,0.3207397,0.370697,0.3016663,-0.002929688,-0.005859375,-0.006835938,1,2,0
1574.953,0.001009,0.2617188,0.1972656,0.1796875,2.210938,-1.015625,5.34375,0.1679688,0.171875,0.1328125,-0.01367188,0.06054688,0,0.002441406,-0.01013184,-3.012451,0,0,2.570557,0.3273621,3.696,0,0,0,0.3200073,nan,2,0.023,1,128,0.3567505,0.2496338,0.4590759,0.243988,-0.002929688,-0.005859375,-0.006835938,1,2,0
1574.962,0.001004,0.06640625,0.3066406,0.09375,-2.8125,0.9765625,21.125,0.0703125,0.1757812,0.1171875,-0.01953125,0.05078125,0,0.003295898,-0.008544922,-3.01123,0,0,2.570557,0.3273621,3.696,0,0,0,0.3200073,nan,2,0.032,1,128,0.3305054,0.2867126,0.3735657,0.3186951,-0.002929688,-0.005859375,-0.006835938,1,2,0
1574.972,0.001001,-0.06445312,0.140625,0.1035156,-1.789062,-0.859375,22.8125,0.00390625,0.06640625,0.1171875,-0.0234375,0.04492188,0,0.00378418,-0.00769043,-3.01001,0,0,2.570557,0.3273621,3.696,0,0,0,0.3200073,nan,2,0.042,1,128,0.369873,0.2796021,0.369751,0.2902527,-0.002929688,-0.005859375,-0.006835938,1,2,0
1574.982,0.000976,-0.109375,-0.1582031,0.1152344,3.101562,-0.5859375,-0.09375,-0.08984375,-0.07226562,0.1210938,-0.01757812,0.046875,0,0.003051758,-0.0078125,-3.008911,0,0,2.570557,0.3273621,3.696,0,0,0,0.3200073,nan,2,0.001,1,128,0.3946228,0.286377,0.354126,0.274353,-0.002929688,-0.005859375,-0.006835938,1,2,0
1574.992,0.001063,-0.1757812,-0.3242188,0.1367188,5.9375,0.515625,-6.398438,-0.1621094,-0.1621094,0.1171875,-0.009765625,0.0546875,0,0.001586914,-0.009033203,-3.00769,0,0,2.570557,0.3273621,3.696,0,0,0,0.3200073,nan,2,0.011,1,128,0.4046631,0.2852173,0.3441467,0.2754517,-0.002929688,-0.005859375,-0.006835938,1,2,0
1575.002,0.001007,-0.2695312,-0.09375,0.1269531,1.164062,4.992188,-4.179688,-0.1796875,-0.08203125,0.1132812,0,0.0625,0,0,-0.01025391,-3.006592,0,0,2.570557,0.3273621,3.696,0,0,0,0.3200073,nan,2,0.021,1,128,0.3760681,0.2715149,0.3547974,0.3070984,-0.002929688,-0.005859375,-0.006835938,1,2,0
1575.012,0.000943,-0.1835938,0.2695312,0.09179688,-5.75,2.4375,10.45312,-0.06640625,0.109375,0.1074219,0.005859375,0.06054688,0,-0.0008544922,-0.01000977,-3.005493,0,0,2.570557,0.3273621,3.696,0,0,0,0.3200073,nan,2,0.031,1,128,0.3320923,0.2705078,0.3830261,0.3238831,-0.002929688,-0.005859375,-0.006835938,1,2,0
1575.023,0.001023,0.04882812,0.3261719,0.08398438,-1.890625,-5.609375,14.26562,0.06054688,0.1816406,0.1191406,0.00390625,0.05078125,0,-0.0004882812,-0.008300781,-3.00415,0,0,2.570557,0.3273621,3.696,0,0,0,0.3200073,nan,2,0.041,1,128,0.3245239,0.2867737,0.394165,0.3039856,-0.002929688,-0.005859375,-0.006835938,1,2,0
1575.033,0.001002,0.1933594,0.1367188,0.1191406,1.296875,-3.367188,10.32031,0.05273438,0.1582031,0.1171875,0,0.0390625,0,0,-0.006469727,-3.003052,0,0,2.570557,0.3189392,3.696,0,0,0,0.3099976,nan,2,0,1,128,0.3414001,0.2761536,0.3783569,0.2799072,-0.002929688,-0.005859375,-0.006835938,1,2,0
1575.043,0.001009,0.1660156,0.02929688,0.1640625,-0.578125,0.7109375,7.648438,-0.03710938,0.08984375,0.1269531,0.001953125,0.03125,0,-0.0003662109,-0.005249023,-3.001953,0,0,2.570557,0.3189392,3.696,0,0,0,0.3099976,nan,2,0.01,1,128,0.3895874,0.2400818,0.3963623,0.2497559,-0.002929688,-0.005859375,-0.006835938,1,2,0
1575.053,0.001009,-0.0859375,-0.4394531,0.1132812,9.75,-2.742188,-5.242188,-0.1015625,-0.1347656,0.1152344,0.0078125,0.03125,0,-0.001342773,-0.005249023,-3.000732,0,0,2.570557,0.3189392,3.696,0,0,0,0.3099976,nan,2,0.02,1,128,0.3970642,0.3035278,0.3196106,0.2555542,-0.002929688,-0.005859375,-0.006835938,1,2,0
1575.063,0.001009,-0.1894531,-0.2265625,0.1621094,0.71875,6.382812,-4.335938,-0.1621094,-0.1308594,0.1171875,0.015625,0.0390625,0,-0.002685547,-0.006469727,-2.999634,0,0,2.570557,0.3189392,3.696,0,0,0,0.3099976,nan,2,0.03,1,128,0.4037781,0.2527466,0.3532715,0.2659912,-0.001953125,-0.005859375,-0.006835938,1,2,0
1575.072,0.001011,-0.2832031,-0.1425781,0.06835938,5.398438,1.289062,2.679688,-0.1015625,-0.06835938,0.1015625,0.02148438,0.04296875,0,-0.003662109,-0.007324219,-2.998657,0,0,2.570557,0.3189392,3.696,0,0,0,0.3099976,nan,2,0.039,1,128,0.3421936,0.2931519,0.3380432,0.3023987,-0.001953125,-0.005859375,-0.006835938,1,2,0
1575.082,0.001055,0.09375,-0.1875,0.07226562,8.765625,-2.351562,-5.265625,0.03515625,0.046875,0.1054688,0.0234375,0.04101562,0,-0.00402832,-0.006958008,-2.997437,0,0,2.570557,0.3189392,3.696,0,0,0,0.3099976,nan,2,0.05,1,128,0.3218994,0.2982178,0.3718872,0.2837524,-0.001953125,-0.005859375,-0.006835938,1,2,0
1575.092,0.001014,0.1835938,-0.07421875,0.1054688,1.9375,1.34375,-4.5625,0.07617188,0.1035156,0.09570312,0.02148438,0.03515625,0,-0.003417969,-0.005737305,-2.99646,0,0,2.570557,0.3189392,3.696,0,0,0,0.3099976,nan,2,0.06,1,128,0.3301392,0.2888184,0.3703308,0.286499,-0.001953125,-0.005859375,-0.006835938,1,2,0
1575.102,0.001008,-0.1328125,0.1523438,0.1152344,-3.351562,3.390625,3.210938,0.01953125,0.09375,0.1035156,0.015625,0.02929688,0,-0.002563477,-0.004760742,-2.995483,0,0,2.570557,0.3189392,3.696,0,0,0,0.3099976,nan,2,0.07,1,128,0.3591614,0.2595215,0.3588867,0.2982178,-0.001953125,-0.005859375,-0.006835938,1,2,0
1575.113,0.00102,-0.2070312,0.08007812,0.09179688,-4.367188,1.125,9.21875,-0.0390625,-0.01757812,0.08984375,0.015625,0.02539062,0,-0.002441406,-0.004272461,-2.994507,0,0,2.570557,0.3189392,3.696,0,0,0,0.3099976,nan,2,0.08,1,128,0.3600464,0.2921143,0.3228455,0.3007812,-0.001953125,-0.005859375,-0.006835938,1,2,0
1575.123,0.001025,-0.046875,-0.234375,0.06835938,-1.335938,-4.320312,9.9375,-0.0546875,-0.1835938,0.08203125,0.01757812,0.03125,0,-0.002929688,-0.005249023,-2.993652,0,0,2.570557,0.3189392,3.696,0,0,0,0.3099976,nan,2,0.09,1,128,0.3732605,0.3176575,0.3109436,0.2739258,-0.001953125,-0.005859375,-0.006835938,1,2,0
1575.133,0.001001,0.1816406,-0.2480469,0.08789062,0.78125,-5.890625,6.835938,-0.08203125,-0.1914062,0.08007812,0.0234375,0.04296875,0,-0.00402832,-0.007080078,-2.992798,0,0,2.570557,0.3105164,3.696,0,0,0,0.2999878,nan,2,0.009,1,128,0.358429,0.2896729,0.3299561,0.2640381,-0.001953125,-0.005859375,-0.006835938,1,2,0
1575.143,0.001025,0.1914062,0.08398438,0.1210938,-2.851562,-0.59375,10.59375,-0.0390625,-0.04882812,0.08398438,0.02929688,0.05078125,0,-0.004760742,-0.008422852,-2.992065,0,0,2.570557,0.3105164,3.696,0,0,0,0.2999878,nan,2,0.019,1,128,0.3331604,0.2571106,0.3762207,0.2756042,-0.001953125,-0.005859375,-0.006835938,1,2,0
1575.152,0.001024,-0.02539062,0,0.04296875,0.9296875,-3.023438,3.921875,0.078125,0.03515625,0.08398438,0.02539062,0.04882812,0,-0.004394531,-0.008178711,-2.991211,0,0,2.570557,0.3063049,3.696,0,0,0,0.2949829,nan,2,0.008,1,128,0.2993469,0.2988892,0.3401184,0.2869263,-0.001953125,-0.005859375,-0.006835938,1,2,0
1575.162,0.001009,0.1171875,0.296875,0.09765625,-5.5,-1.28125,17.99219,0.1464844,0.06054688,0.07226562,0.01953125,0.046875,0,-0.003173828,-0.0078125,-2.990479,0,0,2.570557,0.3063049,3.696,0,0,0,0.2949829,nan,2,0.018,1,128,0.3103943,0.2779541,0.3692017,0.2677307,-0.001953125,-0.005859375,-0.006835938,1,2,0
1575.172,0.001009,0.3320312,-0.02148438,0.0703125,2.234375,-5.523438,10.63281,0.1464844,0.015625,0.06835938,0.01171875,0.04296875,0,-0.001831055,-0.007324219,-2.989746,0,0,2.570557,0.3063049,3.696,0,0,0,0.2949829,nan,2,0.028,1,128,0.3193054,0.3005981,0.3461304,0.2592163,-0.001953125,-0.005859375,-0.006835938,1,2,0
1575.182,0.001,0.3691406,-0.1328125,0.078125,0.9375,-2.5625,10.54688,0.07226562,-0.03515625,0.0703125,0.0078125,0.04296875,0,-0.001342773,-0.007202148,-2.989136,0,0,2.570557,0.3063049,3.696,0,0,0,0.2949829,nan,2,0.038,1,128,0.3397827,0.2883911,0.3442688,0.2528381,-0.001953125,-0.004882812,-0.006835938,1,2,0
1575.192,0.001005,0.08203125,0.1972656,0.0703125,-7.429688,-1.71875,18.69531,0.005859375,-0.0859375,0.06640625,0.005859375,0.04882812,0,-0.001098633,-0.008300781,-2.988403,0,0,2.570557,0.3020935,3.696,0,0,0,0.289978,nan,2,0.007,1,128,0.3235168,0.2777405,0.3242188,0.282959,-0.001953125,-0.004882812,-0.006835938,1,2,0
1575.202,0.0009869999,-0.05859375,0.3105469,0.1113281,-8.171875,-1.976562,18.82812,0.01953125,-0.1171875,0.07421875,0.005859375,0.05859375,0,-0.0009765625,-0.009887695,-2.987793,0,0,2.570557,0.3020935,3.696,0,0,0,0.289978,nan,2,0.017,1,128,0.3450012,0.2532043,0.3559875,0.2542419,-0.001953125,-0.004882812,-0.006835938,1,2,0
1575.212,0.00095,0.2304688,0.03320312,0.1113281,-0.2578125,-2.5625,8.210938,0.1210938,-0.09375,0.06835938,0.001953125,0.06640625,0,-0.0003662109,-0.0111084,-2.987061,0,0,2.570557,0.3020935,3.696,0,0,0,0.289978,nan,2,0.027,1,128,0.3157654,0.2892761,0.3591919,0.2442017,-0.001953125,-0.004882812,-0.006835938,1,2,0
1575.223,0.001049,0.4414062,0.04882812,0.09570312,2.773438,-0.484375,8.960938,0.1894531,0.0625,0.06835938,-0.005859375,0.06640625,0,0.0009765625,-0.01098633,-2.98645,0,0,2.570557,0.3020935,3.696,0,0,0,0.289978,nan,2,0.037,1,128,0.2928772,0.278717,0.3806763,0.256134,-0.002929688,-0.004882812,-0.006835938,1,2,0
1575.233,0.001014,0.2519531,0.359375,0.05078125,-3.960938,1.398438,19.07812,0.2089844,0.1933594,0.07421875,-0.01757812,0.05859375,0,0.003051758,-0.009765625,-2.985718,0,0,2.570557,0.3020935,3.696,0,0,0,0.289978,nan,2,0.047,1,128,0.2805481,0.265625,0.37854,0.2837219,-0.002929688,-0.004882812,-0.006835938,1,2,0
1575.243,0.000962,0.1972656,0.4199219,0.08007812,-7.476562,-4.5,19.24219,0.2285156,0.171875,0.07617188,-0.03320312,0.04882812,0,0.005493164,-0.008178711,-2.984863,0,0,2.570557,0.2936707,3.696,0,0,0,0.2800293,nan,2,0.009,1,128,0.2893372,0.2615662,0.3633423,0.260498,-0.002929688,-0.004882812,-0.006835938,1,2,0
1575.253,0.001009,0.3652344,0.1796875,0.1230469,-3.539062,-4.570312,7.804688,0.203125,0.09960938,0.078125,-0.04492188,0.04101562,0,0.007446289,-0.006958008,-2.984253,0,0,2.570557,0.2936707,3.696,0,0,0,0.2800293,nan,2,0.019,1,128,0.3186951,0.257843,0.3694763,0.2287292,-0.002929688,-0.004882812,-0.006835938,1,2,0
1575.262,0.001004,0.2675781,0.1933594,0.09765625,-5.609375,-1.054688,14.05469,0.1074219,0.0703125,0.0703125,-0.05273438,0.03710938,0,0.008666992,-0.006225586,-2.983521,0,0,2.570557,0.2936707,3.696,0,0,0,0.2800293,nan,2,0.028,1,128,0.3103638,0.2635803,0.342865,0.2579041,-0.002929688,-0.004882812,-0.006835938,1,2,0
1575.272,0.000959,-0.5273438,-0.8320312,0.2285156,-7.15625,-6.875,25.125,-0.2109375,-0.6269531,0.140625,-0.0546875,0.04882812,0,0.009033203,-0.008056641,-2.982666,0,0,2.570557,0.2936707,3.696,0,0,0,0.2800293,nan,2,0.038,1,128,0.6174316,0.2087708,0.2684631,0.08007812,-0.00390625,-0.004882812,-0.006835938,1,2,0
1575.282,0.001009,0.5585938,-4.652344,-0.1269531,-20.85938,-19.64062,30.14844,-0.2128906,-2.730469,-0.1445312,-0.0390625,0.1445312,0,0.006347656,-0.02416992,-2.982788,0,0,2.570557,0.2936707,3.696,0,0,0,0.2800293,nan,2,0.048,1,128,0.3587341,0.5893555,0,0.2266541,-0.00390625,-0.00390625,-0.006835938,0.4286194,2,0
1575.292,0.00098,10.75391,-17.74023,1.763672,-3.203125,-2.453125,35.22656,6.748047,-12.64844,0.546875,-0.265625,0.5703125,0,0.04443359,-0.09509277,-2.987061,0,0,2.570557,0.2810669,3.696,0,0,0,0.2650146,nan,2,0.008,1,128,0.4376831,0.3597412,0.3267822,0,-0.00390625,-0.00390625,-0.006835938,0.05981445,2,0
1575.302,0.001,10.49023,-22.10156,4.857422,-5.023438,2.054688,28.54688,10.13867,-21.30664,4.001953,-0.8066406,1.703125,0,0.1383057,-0.282959,-2.978638,0,0,2.570557,0.2810669,3.696,0,0,0,0.2650146,nan,2,0.018,1,128,0.490509,0.239563,0.3941345,0,-0.00390625,-0.00390625,-0.006835938,0.03851318,2,0
1575.313,0.00095,9.556641,-23.67969,5.767578,7.453125,-3.796875,-13.21875,10.23828,-22.66211,5.337891,-1.324219,3.103516,0,0.2424316,-0.5126953,-2.973145,0,0,2.570557,0.2810669,3.696,0,0,0,0.2650146,nan,2,0.028,1,128,0.4882202,0.2610779,0.3749084,0,-0.00390625,-0.00390625,-0.006835938,0.05047607,2,0
1575.323,0.000966,10.33984,-20.56055,5.875,-6.09375,-2.445312,11.63281,10.46094,-21.35938,5.679688,-1.722656,4.533203,0,0.355957,-0.7420654,-2.987671,0,0,2.570557,0.2810669,3.696,0,0,0,0.2650146,nan,2,0.038,1,128,0.4627686,0.2957153,0.3657532,0,-0.00390625,-0.00390625,-0.006835938,0.06219482,2,0
1575.333,0.001024,9.558594,-15.08789,7.943359,31.4375,26.10156,7.96875,9.898438,-18.20703,6.720703,-1.972656,5.890625,0,0.4914551,-0.9537354,-3.030273,0,0,2.570557,0.272644,3.696,0,0,0,0.2550049,nan,2,0.002,1,128,0.4746399,0.1914978,0.4243774,0,-0.00390625,-0.00390625,-0.006835938,0.05148315,2,0
1575.343,0.00105,-1.152344,3.953125,11.04688,38.89844,28.25781,11.66406,2.847656,-3.318359,9.460938,-1.757812,6.283203,0,0.5269775,-1.092529,-2.996582,0,0,2.570557,0.272644,3.696,0,0,0,0.2550049,nan,2,0.012,1,128,0.4711914,0,0.508667,0.1106873,-0.004882812,-0.0009765625,-0.006835938,0.03918457,2,0
1575.353,0.001008,-10.6543,18.90234,12.59766,38.90625,-25.02344,4.25,-6.404297,13.5957,11.96289,-0.890625,6.283203,0,0.2573242,-1.076782,-2.722412,0,0,2.570557,0.272644,3.696,0,0,0,0.2550049,nan,2,0.022,1,128,0.4209595,0,0.4676208,0.2019653,-0.005859375,0.0009765625,-0.006835938,0.03063965,2,0
1575.362,0.001011,-11.23633,24.08789,10.47656,15.59375,-17.49219,27.125,-10.84766,22.71484,11.39648,0.1347656,5.447266,0,-0.03161621,-0.9077148,-2.484619,0,0,2.570557,0.272644,3.696,0,0,0,0.2550049,nan,2,0.031,1,128,0.3519897,0,0.431366,0.3071289,-0.005859375,0.0009765625,-0.006835938,0.0486145,2,0
1575.372,0.001008,-7.890625,21.68945,5.861328,-13.625,2.78125,8.882812,-8.443359,22.95703,7.140625,0.9726562,4.007812,0,-0.1912842,-0.6644287,-2.392944,0,0,2.570557,0.272644,3.696,0,0,0,0.2550049,nan,2,0.041,1,128,0,0.2696838,0.1651917,0.6556396,-0.005859375,0.0009765625,-0.0078125,0.1069641,2,0
1575.382,0.001039,-10.79492,10.49219,3.886719,-4.453125,-26.42188,-6.984375,-9.908203,15.44727,4.439453,1.619141,2.798828,0,-0.2908936,-0.4603271,-2.380981,0,0,2.570557,0.272644,3.696,0,0,0,0.2550049,nan,2,0.052,1,128,0.1928406,0.3235474,0,0.5741272,-0.005859375,0.0009765625,-0.0078125,0.125946,2,0
1575.392,0.00101,-12.18555,4.818359,2.607422,2.835938,-0.3671875,-8.125,-11.83008,7.056641,3.15625,2.300781,2.134766,0,-0.3999023,-0.3468018,-2.382202,0,0,2.570557,0.2642212,3.696,0,0,0,0.2449951,nan,2,0.008,1,128,0.4370728,0.2108154,0,0.4089661,-0.005859375,-0.004882812,-0.008789062,0.1455688,2,0
1575.402,0.000991,-11.08398,5.232422,2.929688,-9.085938,-3.625,19.10156,-11.98242,4.734375,3.169922,3.0625,1.794922,0,-0.5253906,-0.2858887,-2.378296,0,0,2.570557,0.2642212,3.696,0,0,0,0.2449951,nan,2,0.018,1,128,0.5196838,0,0.2821045,0.2550659,-0.005859375,-0.0078125,-0.008789062,0.1325684,2,0
1575.412,0.000969,-9.820312,2.96875,2.654297,5.851562,2.320312,4.15625,-10.3125,3.310547,2.675781,3.748047,1.519531,0,-0.637207,-0.2366943,-2.377441,0,0,2.570557,0.2642212,3.696,0,0,0,0.2449951,nan,2,0.028,1,128,0.5364685,0,0.2389832,0.2814026,-0.005859375,-0.008789062,-0.008789062,0.192688,2,0
1575.423,0.001008,-9.0625,4.558594,2.894531,5.164062,-0.953125,-0.3515625,-9.345703,4.326172,2.736328,4.361328,1.246094,0,-0.7365723,-0.1896973,-2.382446,0,0,2.570557,0.2642212,3.696,0,0,0,0.2449951,nan,2,0.038,1,128,0.4563599,0,0.339325,0.2611694,-0.005859375,-0.008789062,-0.008789062,0.1257629,2,0
1575.433,0.001009,-6.640625,4.167969,2.353516,3.234375,-6.007812,-0.171875,-7.583984,4.146484,2.5,4.890625,0.9375,0,-0.8208008,-0.1394043,-2.394409,0,0,2.570557,0.2642212,3.696,0,0,0,0.2449951,nan,2,0.048,1,128,0.4432678,0,0.2806396,0.3329163,-0.005859375,-0.008789062,-0.008789062,0.2068176,2,0
1575.443,0.001009,-1.832031,7.203125,2.796875,3.140625,-14.97656,10.91406,-3.759766,5.949219,2.523438,5.234375,0.609375,0,-0.8748779,-0.08911133,-2.414917,0,0,2.570557,0.2642212,3.696,0,0,0,0.2449951,nan,2,0.059,1,128,0.34729,0,0.4690247,0.2405396,-0.005859375,-0.008789062,-0.008789062,0.1557312,2,0
1575.453,0.001009,6.304688,5.958984,0.8554688,-1.734375,-12.67188,11.90625,3.339844,6.640625,1.761719,5.240234,0.1894531,0,-0.8735352,-0.02770996,-2.450806,0,0,2.570557,0.2642212,3.696,0,0,0,0.2449951,nan,2,0.069,1,128,0,0.3881531,0.3192444,0.3494568,-0.002929688,-0.008789062,-0.008789062,0.1506958,2,0
1575.463,0.001024,9.216797,4.619141,-0.453125,6.625,-3.515625,-9.328125,8.373047,5.152344,-0.1152344,4.84375,-0.1035156,0,-0.807373,0.01538086,-2.48999,0,0,2.570557,0.2642212,3.696,0,0,0,0.2449951,nan,2,0.079,1,128,0,0.4771118,0.1971436,0.3825989,-0.002929688,-0.008789062,-0.008789062,0.1049805,2,0
1575.472,0.000977,9.287109,4.869141,-0.3144531,-1.0625,-3.03125,8.609375,9.373047,4.951172,-0.3535156,4.351562,-0.3027344,0,-0.7258301,0.04626465,-2.523682,0,0,2.570557,0.2642212,3.696,0,0,0,0.2449951,nan,2,0.088,1,128,0,0.3916626,0.3442383,0.3209534,-0.002929688,-0.008789062,-0.008789062,0.216095,2,0
1575.482,0.000946,10.9707,2.96875,-1.400391,-0.1640625,2.335938,8.085938,10.5625,3.8125,-0.8671875,3.753906,-0.5039062,0,-0.6269531,0.07861328,-2.556641,0,0,2.570557,0.2600098,3.696,0,0,0,0.2399902,nan,2,0.004,1,128,0,0.4766541,0.2221985,0.341156,-0.002929688,-0.008789062,-0.008789062,0.1518555,2,0
1575.492,0.001023,11.36133,2.162109,-1.458984,0.828125,-3.820312,2.351562,11.23047,2.365234,-1.308594,3.097656,-0.6054688,0,-0.5178223,0.09643555,-2.582764,0,0,2.570557,0.2600098,3.696,0,0,0,0.2399902,nan,2,0.014,1,128,0,0.4899292,0.255188,0.2948914,-0.002929688,-0.008789062,-0.008789062,0.1844482,2,0
1575.502,0.001022,11.80469,1.320312,-1.070312,-3.421875,-3.367188,11.28906,11.60352,1.591797,-1.144531,2.414062,-0.6679688,0,-0.4040527,0.1083984,-2.603149,0,0,2.570557,0.2600098,3.696,0,0,0,0.2399902,nan,2,0.024,1,128,0,0.4794922,0.4260559,0.1344604,-0.002929688,-0.008789062,-0.008789062,0.2964172,2,0
1575.512,0.000943,11.88477,0.6894531,-1.125,3.210938,-1.265625,3.773438,11.84961,0.8320312,-1.257812,1.712891,-0.6914062,0,-0.2868652,0.1137695,-2.619019,0,0,2.570557,0.2557983,3.696,0,0,0,0.2349854,nan,2,0.009,1,128,0,0.4864807,0.3666382,0.1700439,-0.002929688,-0.008789062,-0.008789062,0.2445679,2,0
1575.523,0.00101,11.46875,0.7207031,-0.5078125,-2.21875,0.875,10.69531,11.42383,0.6054688,-0.8671875,1.025391,-0.7167969,0,-0.1716309,0.1187744,-2.63147,0,0,2.570557,0.2557983,3.696,0,0,0,0.2349854,nan,2,0.019,1,128,0.08566284,0.3890686,0.5484009,0,-0.002929688,-0.008789062,-0.008789062,0.3171082,2,0
1575.533,0.001025,10.48438,0.4804688,-0.7578125,-7.390625,4.640625,11.49219,10.70703,0.2402344,-0.8183594,0.3691406,-0.7324219,0,-0.06176758,0.1220703,-2.639893,0,0,2.570557,0.2557983,3.696,0,0,0,0.2349854,nan,2,0.029,1,128,0,0.4912109,0.3777771,0.1541443,-0.002929688,-0.008789062,-0.008789062,0.2839661,2,0
1575.543,0.001009,4.615234,-5.050781,-0.4765625,3.992188,-0.984375,39.16406,8.417969,-2.009766,-0.4453125,-0.2324219,-0.703125,0,0.03881836,0.1170654,-2.645996,0,0,2.570557,0.2557983,3.696,0,0,0,0.2349854,nan,2,0.039,1,128,0.3512268,0.4169006,0.2550049,0,-0.002929688,-0.009765625,-0.008789062,0.3306885,2,0
1575.553,0.000984,-0.3574219,-10.69141,-0.5351562,0.8984375,11.20312,-3.429688,1.146484,-9.472656,-0.609375,-0.4550781,-0.2851562,0,0.07568359,0.04748535,-2.656128,0,0,2.570557,0.2557983,3.71,0,0,0,0.2349854,nan,2,0.049,1,128,0.4432068,0.3882751,0,0.1916809,-0.005859375,-0.009765625,-0.008789062,0.1417236,2,0
1575.562,0.000993,-7.658203,-4.273438,0.5234375,11.02344,2.976562,-23.46094,-4.117188,-6.953125,0.06445312,-0.4003906,0.2070312,0,0.06677246,-0.03442383,-2.665283,0,0,2.570557,0.2347412,3.71,0,0,0,0.210022,nan,2,0.004,1,128,0.5059204,0,0.1965332,0.2365112,-0.005859375,-0.009765625,-0.008789062,0.1442261,2,0
1575.572,0.001078,-0.1777344,2.384766,0.7148438,10.22656,-21.97656,3.945312,-2.582031,0.4960938,0.5371094,-0.1230469,0.3652344,0,0.02038574,-0.06079102,-2.661987,0,0,2.570557,0.2347412,3.71,0,0,0,0.210022,nan,2,0.014,1,128,0.1651917,0,0.5259094,0.2478638,-0.005859375,-0.0078125,-0.008789062,0.2399597,2,0
1575.582,0.000971,-0.8554688,2.134766,0.828125,-8.695312,10.36719,34.03125,-1.568359,2.427734,0.5957031,-0.02929688,0.2304688,0,0.004760742,-0.03845215,-2.656616,0,0,2.570557,0.2347412,3.71,0,0,0,0.210022,nan,2,0.024,1,128,0.2936707,0,0.4429626,0.202301,-0.004882812,-0.0078125,-0.008789062,0.3251648,2,0
1575.592,0.001023,-1.451172,2.378906,0.8125,-7.054688,-13.44531,12.47656,-1.677734,2.671875,0.6445312,0.0859375,0.078125,0,-0.01416016,-0.01293945,-2.650146,0,0,2.570557,0.2347412,3.71,0,0,0,0.210022,nan,2,0.034,1,128,0.2933655,0,0.4086304,0.236969,-0.004882812,-0.0078125,-0.008789062,0.4409485,2,0
1575.602,0.001013,0.2441406,-0.9042969,0.2675781,6.289062,1.101562,5.476562,-0.3535156,-0.4804688,0.4257812,0.1289062,0.03125,0,-0.02478027,-0.006347656,-2.644287,0,0,2.570557,0,3.71,0,0,0,0,nan,2,0.004,1,128,0.1000061,0.1000061,0.1000061,0.1000061,0,0,0,1,2,0
1575.612,0.001015,-0.703125,-1.091797,0.9980469,6.875,2.46875,-4.382812,-0.1757812,-1.412109,0.5800781,0.1289062,0.03125,0,-0.02502441,-0.0213623,-2.640015,0,0,2.570557,0,3.71,0,0,0,0,nan,2,0.014,1,128,0.1000061,0.1000061,0.1000061,0.1000061,0,0,0,1,2,0
1575.622,0.001011,1.419922,-0.3378906,0.9921875,1.078125,0.9921875,17.49219,0.9433594,-1.173828,0.9492188,0.1289062,0.03125,0,-0.02282715,-0.03466797,-2.631104,0,0,2.570557,0,3.71,0,0,0,0,nan,2,0.024,1,128,0.1000061,0.1000061,0.1000061,0.1000061,0,0,0,1,2,0
1575.633,0.00101,0.8535156,-1.158203,1.611328,7.179688,-15.0625,6.632812,0.9863281,-0.7636719,1.476562,0.1289062,0.03125,0,-0.01184082,-0.04064941,-2.618408,0,0,2.570557,0,3.71,0,0,0,0,nan,2,0.034,1,128,0.1000061,0.1000061,0.1000061,0.1000061,0,0,0,1,2,0
1575.643,0.00101,2.134766,0.1132812,2.126953,-4.71875,-4.5625,5.023438,1.541016,0.04492188,2.091797,0.1289062,0.03125,0,-0.0006103516,-0.04321289,-2.600098,0,0,2.570557,0,3.71,0,0,0,0,nan,2,0.044,1,128,0.1000061,0.1000061,0.1000061,0.1000061,0,0,0,1,2,0
1575.653,0.00101,1.689453,0.5917969,2.306641,-15.76562,4.710938,18.16406,1.664062,0.578125,2.126953,0.1289062,0.03125,0,0.01525879,-0.04003906,-2.579468,0,0,2.570557,0,3.71,0,0,0,0,nan,2,0.054,1,128,0.1000061,0.1000061,0.1000061,0.1000061,0,0,0,1,2,0
1575.663,0.00101,-0.2617188,2.115234,2.648438,15.08594,1.945312,-9.195312,0.3554688,1.591797,2.390625,0.1289062,0.03125,0,0.02624512,-0.03405762,-2.556641,0,0,2.570557,0,3.71,0,0,0,0,nan,2,0.065,1,128,0.1000061,0.1000061,0.1000061,0.1000061,0,0,0,1,2,0
1575.673,0.00101,-0.1757812,0.2792969,1.904297,4.84375,7.09375,19.42188,0.1738281,0.3613281,2.179688,0.1289062,0.03125,0,0.02600098,-0.0222168,-2.532227,0,0,2.570557,0,3.71,0,0,0,0,nan,2,0.075,1,128,0.1000061,0.1000061,0.1000061,0.1000061,0,0,0,1,2,0
1575.682,0.00101,-0.5507812,0.3496094,2.009766,-1.65625,-1.375,13.5,-0.3125,0.1835938,2.101562,0.1289062,0.03125,0,0.0246582,-0.02075195,-2.512695,0,0,2.570557,0,3.71,0,0,0,0,nan,2,0.084,1,128,0.1000061,0.1000061,0.1000061,0.1000061,0,0,0,1,2,0
1575.692,0.001016,0.7089844,-0.15625,2.044922,-4.1875,-0.296875,10.32812,0.2949219,0.09179688,2.09375,0.1289062,0.03125,0,0.02331543,-0.02087402,-2.491699,0,0,2.570557,0,3.71,0,0,0,0,nan,2,0.094,1,128,0.1000061,0.1000061,0.1000061,0.1000061,0,0,0,1,2,0
1575.702,0.001004,-0.02734375,0.40625,1.841797,-3.0625,-4.25,10.83594,-0.03515625,0.1992188,1.917969,0.1289062,0.03125,0,0.0246582,-0.0213623,-2.471313,0,0,2.570557,0,3.71,0,0,0,0,nan,2,0.104,1,128,0.1000061,0.1000061,0.1000061,0.1000061,0,0,0,1,2,0
1575.712,0.00101,-0.1191406,0.7363281,1.914062,-3.992188,-3.507812,23.64844,-0.1113281,0.2773438,1.884766,0.1289062,0.03125,0,0.02392578,-0.02185059,-2.452515,0,0,2.570557,0,3.71,0,0,0,0,nan,2,0.114,1,128,0.1000061,0.1000061,0.1000061,0.1000061,0,0,0,1,2,0
1575.722,0.001009,-0.4296875,0.5429688,1.671875,-0.125,-8.0625,18.92188,-0.1132812,0.1328125,1.728516,0.1289062,0.03125,0,0.02355957,-0.0222168,-2.434326,0,0,2.570557,0,3.71,0,0,0,0,nan,2,0.124,1,128,0.1000061,0.1000061,0.1000061,0.1000061,0,0,0,1,2,0
1575.733,0.00101,-0.2128906,0.0078125,1.529297,4.476562,-2.359375,10.53125,-0.02539062,-0.06054688,1.546875,0.1289062,0.03125,0,0.02319336,-0.02258301,-2.418335,0,0,2.570557,0,3.71,0,0,0,0,nan,2,0.134,1,128,0.1000061,0.1000061,0.1000061,0.1000061,0,0,0,1,2,0
1575.743,0.001047,-0.05273438,-0.5820312,1.212891,8.320312,2.242188,5.71875,0.00390625,-0.125,1.353516,0.1289062,0.03125,0,0.02282715,-0.02282715,-2.40332,0,0,2.570557,0,3.71,0,0,0,0,nan,2,0.144,1,128,0.1000061,0.1000061,0.1000061,0.1000061,0,0,0,1,2,0
1575.753,0.00101,-0.1933594,-0.1074219,1.123047,2.945312,-4.203125,13.08594,0.001953125,0.09375,1.181641,0.1289062,0.03125,0,0.02270508,-0.02282715,-2.390625,0,0,2.570557,0,3.71,0,0,0,0,nan,2,0.154,1,128,0.1000061,0.1000061,0.1000061,0.1000061,0,0,0,1,2,0
1575.763,0.00101,-0.07421875,0.3964844,1.015625,-8.015625,-5.8125,27.20312,-0.02148438,0.2304688,1.052734,0.1289062,0.03125,0,0.02233887,-0.02294922,-2.379272,0,0,2.570557,0,3.71,0,0,0,0,nan,2,0.165,1,128,0.1000061,0.1000061,0.1000061,0.1000061,0,0,0,1,2,0
1575.772,0.0009869999,-0.2695312,0.8300781,0.7636719,-10.53906,-0.484375,20.77344,-0.07617188,0.1875,0.8378906,0.1289062,0.03125,0,0.02209473,-0.02246094,-2.370728,0,0,2.570557,0,3.71,0,0,0,0,nan,2,0.174,1,128,0.1000061,0.1000061,0.1000061,0.1000061,0,0,0,1,2,0
1575.782,0.001005,-0.1289062,0.01953125,0.4589844,-1.742188,2.335938,7.953125,-0.001953125,-0.04882812,0.59375,0.1289062,0.03125,0,0.02185059,-0.02246094,-2.363647,0,0,2.570557,0,3.71,0,0,0,0,nan,2,0.003,1,128,0.1000061,0.1000061,0.1000061,0.1000061,0,0,0,1,2,0
1575.792,0.001025,0.3144531,-0.1894531,0.3300781,-2.703125,2.484375,10.03906,0.09570312,-0.009765625,0.4824219,0.1289062,0.03125,0,0.02172852,-0.02258301,-2.358154,0,0,2.570557,0,3.71,0,0,0,0,nan,2,0.013,1,128,0.1000061,0.1000061,0.1000061,0.1000061,0,0,0,1,2,0
1575.802,0.001009,0.4042969,0.2324219,0.28125,-6.054688,0.1953125,13.13281,0.0546875,-0.01171875,0.3613281,0.1289062,0.03125,0,0.0213623,-0.02258301,-2.354004,0,0,2.570557,0,3.71,0,0,0,0,nan,2,0.023,1,128,0.1000061,0.1000061,0.1000061,0.1000061,0,0,0,1,2,0
1575.812,0.001002,-0.1171875,0.02148438,0.3378906,1.5625,-2.148438,5.890625,-0.06640625,-0.07226562,0.3339844,0.1289062,0.03125,0,0.0213623,-0.02258301,-2.350708,0,0,2.570557,0,3.71,0,0,0,0,nan,2,0.033,1,128,0.1000061,0.1000061,0.1000061,0.1000061,0,0,0,1,2,0
1575.822,0.001013,-0.2539062,-0.46875,0.2421875,5.945312,-1.65625,7.015625,-0.015625,-0.046875,0.2441406,0.1289062,0.03125,0,0.0213623,-0.02246094,-2.3479,0,0,2.570557,0,3.71,0,0,0,0,nan,2,0.043,1,128,0.1000061,0.1000061,0.1000061,0.1000061,0,0,0,1,2,0.04761905
1575.833,0.00101,0.1835938,0.1132812,0.1757812,-2.945312,-0.6796875,11.17188,0.046875,0.06835938,0.1523438,0.1289062,0.03125,0,0.02124023,-0.02246094,-2.345825,0,0,2.570557,0,3.71,0,0,0,0,nan,2,0.054,1,128,0.1000061,0.1000061,0.1000061,0.1000061,0,0,0,1,2,0
1575.843,0.001008,-0.3359375,0.09179688,0.0078125,-0.65625,0.46875,8.117188,-0.06640625,-0.009765625,0.08984375,0.1289062,0.03125,0,0.02124023,-0.02258301,-2.344727,0,0,2.570557,0,3.71,0,0,0,0,nan,2,0.064,1,128,0.1000061,0.1000061,0.1000061,0.1000061,0,0,0,1,2,0
1575.853,0.001011,0.1132812,-0.1425781,0.015625,2.054688,-0.2421875,8.164062,0.07226562,-0.01757812,0.07421875,0.1289062,0.03125,0,0.0213623,-0.02246094,-2.344116,0,0,2.570557,0,3.71,0,0,0,0,nan,2,0.074,1,128,0.1000061,0.1000061,0.1000061,0.1000061,0,0,0,1,2,0
1575.863,0.00101,0.1347656,0.0859375,-0.009765625,-2.828125,-2.078125,9.351562,-0.02734375,0.009765625,-0.04101562,0.1289062,0.03125,0,0.02111816,-0.02246094,-2.343994,0,0,2.570557,0,3.71,0,0,0,0,nan,2,0.084,1,128,0.1000061,0.1000061,0.1000061,0.1000061,0,0,0,1,2,0.6190476
1575.873,0.00101,-0.07421875,0.09179688,0.001953125,-0.765625,0.96875,11.03906,-0.01953125,0.001953125,-0.04882812,0.1289062,0.03125,0,0.0213623,-0.02233887,-2.344482,0,0,2.570557,0,3.71,0,0,0,0,nan,2,0.094,1,128,0.1000061,0.1000061,0.1000061,0.1000061,0,0,0,1,2,0
1575.882,0.00101,0.03125,-0.08984375,0.09179688,-0.4296875,0.6171875,8.835938,-0.01171875,0.001953125,0.04492188,0.1289062,0.03125,0,0.0213623,-0.0222168,-2.344482,0,0,2.570557,0,3.71,0,0,0,0,nan,2,0.103,1,128,0.1000061,0.1000061,0.1000061,0.1000061,0,0,0,1,2,0
1575.892,0.00101,-0.1425781,0.09960938,0.01367188,0.4140625,0.8828125,8.164062,-0.001953125,0.03125,0.046875,0.1289062,0.03125,0,0.0213623,-0.0222168,-2.343872,0,0,2.570557,0,3.71,0,0,0,0,nan,2,0.113,1,128,0.1000061,0.1000061,0.1000061,0.1000061,0,0,0,1,2,0
1575.902,0.001017,0.2011719,-0.0078125,0.02734375,1.328125,-2.390625,11.29688,0.046875,-0.01757812,0,0.1289062,0.03125,0,0.0213623,-0.02233887,-2.343872,0,0,2.570557,0,3.71,0,0,0,0,nan,2,0.123,1,128,0.1000061,0.1000061,0.1000061,0.1000061,0,0,0,1,2,0
1575.912,0.001016,-0.05078125,-0.0234375,-0.03320312,-1.070312,1.140625,10.34375,-0.04296875,-0.001953125,-0.01757812,0.1289062,0.03125,0,0.02124023,-0.02233887,-2.343872,0,0,2.570557,0,3.71,0,0,0,0,nan,2,0.133,1,128,0.1000061,0.1000061,0.1000061,0.1000061,0,0,0,1,2,0
1575.922,0.001006,-0.125,-0.04492188,-0.06054688,0.4296875,-0.3359375,9.398438,0.005859375,-0.01171875,0.015625,0.1289062,0.03125,0,0.0213623,-0.0222168,-2.34375,0,0,2.570557,0,3.71,0,0,0,0,nan,2,0.143,1,128,0.1000061,0.1000061,0.1000061,0.1000061,0,0,0,1,2,0.1904762
1575.932,0.001012,0.1074219,0.08007812,0.1230469,-1.296875,-0.984375,8.914062,0.009765625,0.01953125,0.009765625,0.1289062,0.03125,0,0.02124023,-0.0222168,-2.343872,0,0,2.570557,0,3.71,0,0,0,0,nan,2,0.153,1,128,0.1000061,0.1000061,0.1000061,0.1000061,0,0,0,1,2,0
1575.943,0.001012,-0.04296875,-0.03125,-0.09765625,2.054688,0.296875,10.49219,-0.00390625,-0.01367188,-0.02539062,0.1289062,0.03125,0,0.02124023,-0.0222168,-2.34375,0,0,2.570557,0,3.71,0,0,0,0,nan,2,0.164,1,128,0.1000061,0.1000061,0.1000061,0.1000061,0,0,0,1,2,0
1575.953,0.00101,-0.04882812,-0.005859375,0.06835938,-2.742188,-0.0390625,7.546875,-0.015625,0.01757812,0.02539062,0.1289062,0.03125,0,0.02124023,-0.02209473,-2.343628,0,0,2.570557,0,3.71,0,0,0,0,nan,2,0.174,1,128,0.1000061,0.1000061,0.1000061,0.1000061,0,0,0,1,2,0
1575.963,0.001009,0.04296875,0.08203125,-0.00390625,1.148438,-0.3984375,12.16406,0.02734375,-0.001953125,0,0.1289062,0.03125,0,0.02124023,-0.0222168,-2.343628,0,0,2.570557,0,3.71,0,0,0,0,nan,2,0.184,1,128,0.1000061,0.1000061,0.1000061,0.1000061,0,0,0,1,2,0
1575.973,0.00101,0.15625,-0.05078125,0.05273438,-0.0625,-0.4140625,12.60938,0.001953125,-0.009765625,0.0234375,0.1289062,0.03125,0,0.02111816,-0.02209473,-2.343506,0,0,2.570557,0,3.71,0,0,0,0,nan,2,0.194,1,128,0.1000061,0.1000061,0.1000061,0.1000061,0,0,0,1,2,0
1575.982,0.001011,-0.09960938,0.02539062,-0.03710938,0.859375,0.234375,7.164062,0.009765625,0,0.009765625,0.1289062,0.03125,0,0.02111816,-0.02209473,-2.343384,0,0,2.570557,0,3.71,0,0,0,0,nan,2,0.203,1,128,0.1000061,0.1000061,0.1000061,0.1000061,0,0,0,1,2,0
1575.992,0.00101,0.1621094,0.01367188,0.06054688,-1.554688,-0.1796875,11.48438,0.0078125,0.009765625,-0.01171875,0.1289062,0.03125,0,0.02099609,-0.02209473,-2.343506,0,0,2.570557,0,3.71,0,0,0,0,nan,2,0.213,1,128,0.1000061,0.1000061,0.1000061,0.1000061,0,0,0,1,2,0
1576.002,0.001016,-0.09570312,0.005859375,-0.109375,1.09375,1.257812,9.953125,-0.01171875,-0.01171875,-0.0078125,0.1289062,0.03125,0,0.02099609,-0.02197266,-2.343506,0,0,2.570557,0,3.71,0,0,0,0,nan,2,0.223,1,128,0.1000061,0.1000061,0.1000061,0.1000061,0,0,0,1,2,0.3333333
1576.012,0.001018,0.02539062,-0.02148438,0.1230469,-1.226562,-1.023438,8.085938,-0.001953125,0.0078125,0.01953125,0.1289062,0.03125,0,0.02099609,-0.02197266,-2.343506,0,0,2.570557,0,3.71,0,0,0,0,nan,2,0.006,1,128,0.1000061,0.1000061,0.1000061,0.1000061,0,0,0,1,2,0
1576.022,0.001012,0.01171875,0.015625,-0.09375,1.117188,-0.2421875,12.39844,0.0078125,-0.0078125,-0.01757812,0.1289062,0.03125,0,0.02099609,-0.02197266,-2.343506,0,0,2.570557,0,3.71,0,0,0,0,nan,2,0.016,1,128,0.1000061,0.1000061,0.1000061,0.1000061,0,0,0,1,2,0
1576.032,0.00101,-0.04101562,0.01367188,0.04296875,-0.9609375,-0.5703125,7.09375,-0.01757812,0.01367188,0.0078125,0.1289062,0.03125,0,0.02099609,-0.02197266,-2.343506,0,0,2.570557,0,3.71,0,0,0,0,nan,2,0.026,1,128,0.1000061,0.1000061,0.1000061,0.1000061,0,0,0,1,2,0
1576.043,0.00101,0.03125,-0.04101562,0.00390625,0.5390625,-1.59375,12.46875,0.015625,-0.0234375,0.00390625,0.1289062,0.03125,0,0.02099609,-0.02209473,-2.343506,0,0,2.570557,0,3.71,0,0,0,0,nan,2,0.036,1,128,0.1000061,0.1000061,0.1000061,0.1000061,0,0,0,1,2,0
1576.053,0.00101,-0.07421875,0.0546875,-0.05273438,-0.6640625,0.6875,8.515625,-0.0234375,0.02148438,-0.015625,0.1289062,0.03125,0,0.02087402,-0.02209473,-2.343506,0,0,2.570557,0,3.71,0,0,0,0,nan,2,0.046,1,128,0.1000061,0.1000061,0.1000061,0.1000061,0,0,0,1,2,0
1576.063,0.001001,0.0703125,-0.05859375,0.07617188,0.6015625,-1.945312,8.875,0.01757812,-0.02148438,0.0234375,0.1289062,0.03125,0,0.02087402,-0.02209473,-2.343506,0,0,2.570557,0,3.71,0,0,0,0,nan,2,0.057,1,128,0.1000061,0.1000061,0.1000061,0.1000061,0,0,0,1,2,0
1576.073,0.00101,-0.03320312,0.0078125,0.02734375,-0.8046875,1.796875,13.71875,-0.02539062,0.0234375,-0.02539062,0.1289062,0.03125,0,0.02075195,-0.02197266,-2.343506,0,0,2.570557,0,3.71,0,0,0,0,nan,2,0.067,1,128,0.1000061,0.1000061,0.1000061,0.1000061,0,0,0,1,2,0
1576.082,0.001011,0.09570312,-0.04492188,0.06445312,-0.515625,-2.03125,6.484375,0.01171875,-0.0078125,0.02734375,0.1289062,0.03125,0,0.02075195,-0.02197266,-2.343506,0,0,2.570557,0,3.71,0,0,0,0,nan,2,0.076,1,128,0.1000061,0.1000061,0.1000061,0.1000061,0,0,0,1,2,0
1576.092,0.00101,-0.1015625,0.04101562,-0.046875,0.546875,2.726562,13.36719,-0.01367188,0.00390625,-0.02148438,0.1289062,0.03125,0,0.02075195,-0.02185059,-2.343628,0,0,2.570557,0,3.71,0,0,0,0,nan,2,0.086,1,128,0.1000061,0.1000061,0.1000061,0.1000061,0,0,0,1,2,0
1576.102,0.000998,0.09375,-0.03710938,0.0234375,-0.8671875,-0.9296875,7.484375,0.005859375,0.001953125,0.01367188,0.1289062,0.03125,0,0.02075195,-0.02185059,-2.343506,0,0,2.570557,0,3.71,0,0,0,0,nan,2,0.096,1,128,0.1000061,0.1000061,0.1000061,0.1000061,0,0,0,1,2,0
1576.112,0.001013,-0.07421875,0.02148438,0.0078125,1.867188,0.6875,11.14844,-0.005859375,-0.0078125,0.001953125,0.1289062,0.03125,0,0.02075195,-0.02197266,-2.343506,0,0,2.570557,0,3.71,0,0,0,0,nan,2,0.106,1,128,0.1000061,0.1000061,0.1000061,0.1000061,0,0,0,1,2,0
1576.123,0.001014,0.03125,0.00390625,-0.04101562,-1.257812,-0.484375,9.226562,-0.001953125,0.015625,-0.01367188,0.1289062,0.03125,0,0.02075195,-0.02185059,-2.343506,0,0,2.570557,0,3.71,0,0,0,0,nan,2,0.116,1,128,0.1000061,0.1000061,0.1000061,0.1000061,0,0,0,1,2,0.01587302
1576.133,0.001001,0,-0.03710938,0.07226562,0.8984375,-1.171875,10.10156,-0.001953125,-0.02539062,0.0234375,0.1289062,0.03125,0,0.02075195,-0.02197266,-2.343506,0,0,2.570557,0,3.71,0,0,0,0,nan,2,0.126,1,128,0.1000061,0.1000061,0.1000061,0.1000061,0,0,0,1,2,0.1269841
1576.143,0.00101,-0.01367188,0.04882812,-0.09375,-1.234375,1.335938,10.75,0.001953125,0.01953125,-0.02734375,0.1289062,0.03125,0,0.02075195,-0.02197266,-2.343506,0,0,2.570557,0,3.71,0,0,0,0,nan,2,0.136,1,128,0.1000061,0.1000061,0.1000061,0.1000061,0,0,0,1,2,0
1576.153,0.00101,0.03125,-0.06640625,0.1171875,0.9375,-0.09375,8.234375,-0.0078125,-0.01757812,0.03125,0.1289062,0.03125,0,0.02062988,-0.02197266,-2.343506,0,0,2.570557,0,3.71,0,0,0,0,nan,2,0.146,1,128,0.1000061,0.1000061,0.1000061,0.1000061,0,0,0,1,2,0
1576.163,0.001011,-0.01171875,0.04492188,-0.1191406,-0.53125,1.34375,11.28906,0.01757812,0.01171875,-0.02929688,0.1289062,0.03125,0,0.02075195,-0.02197266,-2.343506,0,0,2.570557,0,3.71,0,0,0,0,nan,2,0.157,1,128,0.1000061,0.1000061,0.1000061,0.1000061,0,0,0,1,2,0
1576.173,0.00101,0.1386719,-0.01367188,0.04101562,-0.203125,-0.8359375,9.84375,0.02539062,-0.00390625,0.02148438,0.1289062,0.03125,0,0.02062988,-0.02197266,-2.343506,0,0,2.570557,0,3.71,0,0,0,0,nan,2,0.167,1,128,0.1000061,0.1000061,0.1000061,0.1000061,0,0,0,1,2,0.7619048
1576.182,0.001042,-0.015625,-0.02929688,-0.06445312,-1.351562,-1.046875,11.47656,0.02148438,-0.0078125,-0.0078125,0.1289062,0.03125,0,0.02075195,-0.02197266,-2.343506,0,0,2.570557,0,3.71,0,0,0,0,nan,2,0.176,1,128,0.1000061,0.1000061,0.1000061,0.1000061,0,0,0,1,2,0
1576.192,0.00101,-0.01171875,0.0703125,0.02929688,1.914062,0.8359375,8.289062,-0.02539062,0.01171875,0.001953125,0.1289062,0.03125,0,0.02075195,-0.02197266,-2.343506,0,0,2.570557,0,3.71,0,0,0,0,nan,2,0.186,1,128,0.1000061,0.1000061,0.1000061,0.1000061,0,0,0,1,2,0
1576.202,0.00101,0.009765625,-0.078125,0.01171875,-1.976562,-0.046875,11.45312,0.01757812,0.001953125,0.00390625,0.1289062,0.03125,0,0.02075195,-0.02185059,-2.343506,0,0,2.570557,0,3.987,0,0,0,0,nan,2,0.007,1,128,0.1000061,0.1000061,0.1000061,0.1000061,0,0,0,1,2,0
1576.212,0.001013,-0.05078125,0.04101562,-0.04101562,3.546875,-0.3515625,9.132812,-0.0234375,-0.015625,0,0.1289062,0.03125,0,0.02062988,-0.02197266,-2.343506,0,0,2.570557,0,3.987,0,0,0,0,nan,2,0.017,1,128,0.1000061,0.1000061,0.1000061,0.1000061,0,0,0,1,2,0.7460318
1576.222,0.001009,0.015625,-0.04492188,0.0546875,-3.03125,1.773438,8.703125,0.001953125,0.01367188,0.00390625,0.1289062,0.03125,0,0.02062988,-0.02197266,-2.343506,0,0,2.570557,0,3.987,0,0,0,0,nan,2,0.027,1,128,0.1000061,0.1000061,0.1000061,0.1000061,0,0,0,1,2,0.0952381
1576.232,0.001008,0.06445312,0.0390625,-0.01953125,2.5625,-3.101562,10.32812,0.02148438,-0.01171875,0.015625,0.1289062,0.03125,0,0.02062988,-0.02197266,-2.343384,0,0,2.570557,0,3.987,0,0,0,0,nan,2,0.037,1,128,0.1000061,0.1000061,0.1000061,0.1000061,0,0,0,1,2,0
1576.243,0.00101,-0.15625,-0.02148438,-0.01757812,-1.21875,2.359375,10.10938,-0.03710938,0.015625,-0.015625,0.1289062,0.03125,0,0.02062988,-0.02197266,-2.343384,0,0,2.570557,0,3.987,0,0,0,0,nan,2,0.047,1,128,0.1000061,0.1000061,0.1000061,0.1000061,0,0,0,1,2,0
1576.253,0.00101,0.1757812,0.015625,0.04296875,0.1796875,-2.414062,8.828125,0.03125,-0.009765625,0.01367188,0.1289062,0.03125,0,0.02062988,-0.02197266,-2.343384,0,0,2.570557,0,3.987,0,0,0,0,nan,2,0.058,1,128,0.1000061,0.1000061,0.1000061,0.1000061,0,0,0,1,2,0
1576.263,0.00101,-0.1640625,0,-0.0625,0.6953125,2.53125,10.25781,-0.03125,0.00390625,-0.009765625,0.1289062,0.03125,0,0.02062988,-0.02197266,-2.343384,0,0,2.570557,0,3.987,0,0,0,0,nan,2,0.068,1,128,0.1000061,0.1000061,0.1000061,0.1000061,0,0,0,1,2,0
1576.273,0.001011,0.1054688,0.02148438,0.06640625,-2.28125,-1.984375,10.24219,0.02148438,0.009765625,0.01367188,0.1289062,0.03125,0,0.02050781,-0.02197266,-2.343384,0,0,2.570557,0,3.987,0,0,0,0,nan,2,0.078,1,128,0.1000061,0.1000061,0.1000061,0.1000061,0,0,0,1,2,0
1576.282,0.00101,-0.1132812,-0.08007812,-0.01171875,0.2734375,0.5859375,10.60156,-0.0078125,-0.01367188,0.01171875,0.1289062,0.03125,0,0.02050781,-0.02185059,-2.343384,0,0,2.570557,0,3.987,0,0,0,0,nan,2,0.087,1,128,0.1000061,0.1000061,0.1000061,0.1000061,0,0,0,1,2,0
1576.292,0.001009,0.06835938,0.09765625,-0.02539062,0.171875,-0.6796875,9.492188,0.005859375,0.01367188,-0.015625,0.1289062,0.03125,0,0.02050781,-0.02197266,-2.343384,0,0,2.570557,0,3.987,0,0,0,0,nan,2,0.097,1,128,0.1000061,0.1000061,0.1000061,0.1000061,0,0,0,1,2,0.3968254
1576.302,0.001013,-0.06054688,-0.0859375,0.0546875,-0.6796875,1.257812,9.601562,-0.01953125,-0.0078125,0.015625,0.1289062,0.03125,0,0.02050781,-0.02172852,-2.343384,0,0,2.570557,0,3.987,0,0,0,0,nan,2,0.107,1,128,0.1000061,0.1000061,0.1000061,0.1000061,0,0,0,1,2,0.7460318
1576.312,0.001008,0.09179688,0.1054688,-0.05664062,0.5234375,-1.617188,11.07031,0.02929688,0.009765625,-0.005859375,0.1289062,0.03125,0,0.02050781,-0.02185059,-2.343384,0,0,2.570557,0,3.987,0,0,0,0,nan,2,0.117,1,128,0.1000061,0.1000061,0.1000061,0.1000061,0,0,0,1,2,0
1576.322,0.00101,-0.1308594,-0.07617188,0.02929688,-0.5078125,2.078125,8.789062,-0.03710938,-0.001953125,-0.005859375,0.1289062,0.03125,0,0.02050781,-0.02172852,-2.343384,0,0,2.570557,0,3.987,0,0,0,0,nan,2,0.127,1,128,0.1000061,0.1000061,0.1000061,0.1000061,0,0,0,1,2,0
1576.332,0.001007,0.1582031,0.046875,0.01953125,-0.0234375,-2.59375,11.82812,0.03710938,-0.001953125,0.01757812,0.1289062,0.03125,0,0.02050781,-0.02172852,-2.343262,0,0,2.570557,0,3.987,0,0,0,0,nan,2,0.137,1,128,0.1000061,0.1000061,0.1000061,0.1000061,0,0,0,1,2,0
1576.343,0.00101,-0.1660156,-0.02148438,-0.06640625,0.640625,2.140625,7.445312,-0.03125,0.001953125,-0.02148438,0.1289062,0.03125,0,0.02050781,-0.02172852,-2.343384,0,0,2.570557,0,3.987,0,0,0,0,nan,2,0.147,1,128,0.1000061,0.1000061,0.1000061,0.1000061,0,0,0,1,2,0
1576.353,0.001009,0.1542969,0.04101562,0.08007812,-0.5859375,-0.2578125,11.77344,0.01367188,0.0078125,0.01367188,0.1289062,0.03125,0,0.02038574,-0.02172852,-2.343384,0,0,2.570557,0,3.987,0,0,0,0,nan,2,0.158,1,128,0.1000061,0.1000061,0.1000061,0.1000061,0,0,0,1,2,0
1576.363,0.00101,-0.109375,-0.07226562,-0.05664062,-0.328125,-0.25,9.40625,-0.001953125,-0.0078125,-0.001953125,0.1289062,0.03125,0,0.02050781,-0.02172852,-2.343384,0,0,2.570557,0,3.987,0,0,0,0,nan,2,0.168,1,128,0.1000061,0.1000061,0.1000061,0.1000061,0,0,0,1,2,0.1746032
1576.373,0.00101,0.02734375,0.07617188,0.01757812,1.671875,-0.21875,9.382812,-0.02539062,0,-0.0078125,0.1289062,0.03125,0,0.02038574,-0.02172852,-2.343384,0,0,2.570557,0,3.987,0,0,0,0,nan,2,0.178,1,128,0.1000061,0.1000061,0.1000061,0.1000061,0,0,0,1,2,0.3333333
1576.383,0.001012,-0.08984375,-0.1171875,-0.0078125,0.0546875,0.140625,8.992188,0.00390625,-0.015625,0.00390625,0.1289062,0.03125,0,0.02026367,-0.02185059,-2.343384,0,0,2.570557,0,3.987,0,0,0,0,nan,2,0.188,1,128,0.1000061,0.1000061,0.1000061,0.1000061,0,0,0,1,2,0
1576.392,0.000966,-0.06835938,0.0234375,-0.0390625,3.601562,-0.734375,10.0625,-0.02539062,-0.01757812,0,0.1289062,0.03125,0,0.02026367,-0.02185059,-2.343384,0,0,2.570557,0,3.987,0,0,0,0,nan,2,0.197,1,128,0.1000061,0.1000061,0.1000061,0.1000061,0,0,0,1,2,0
1576.402,0.001009,0.02734375,0.005859375,0.01953125,-3.390625,1.703125,10.32031,0.001953125,0.02148438,-0.005859375,0.1289062,0.03125,0,0.0201416,-0.02185059,-2.343384,0,0,2.570557,0,3.987,0,0,0,0,nan,2,0.207,1,128,0.1000061,0.1000061,0.1000061,0.1000061,0,0,0,1,2,0
1576.412,0.000997,0.04296875,-0.02148438,0.03125,2.289062,-1.804688,8.71875,0.0078125,-0.0234375,0.01953125,0.1289062,0.03125,0,0.02026367,-0.02185059,-2.343384,0,0,2.570557,0,3.987,0,0,0,0,nan,2,0.217,1,128,0.1000061,0.1000061,0.1000061,0.1000061,0,0,0,1,2,0
1576.423,0.001014,-0.07421875,0.0546875,-0.078125,-0.5390625,1.53125,13.14062,-0.001953125,0.0234375,-0.0234375,0.1289062,0.03125,0,0.02026367,-0.02185059,-2.343384,0,0,2.570557,0,3.987,0,0,0,0,nan,2,0.006,1,128,0.1000061,0.1000061,0.1000061,0.1000061,0,0,0,1,2,0
1576.433,0.001042,0.05859375,-0.06835938,0.09960938,-0.2109375,-0.5078125,6.671875,-0.009765625,-0.01757812,0.015625,0.1289062,0.03125,0,0.0201416,-0.02185059,-2.343384,0,0,2.570557,0,3.987,0,0,0,0,nan,2,0.016,1,128,0.1000061,0.1000061,0.1000061,0.1000061,0,0,0,1,2,0
1576.443,0.00101,-0.02539062,0.046875,-0.08984375,0.625,-0.875,11.32031,0.01757812,0.00390625,-0.00390625,0.1289062,0.03125,0,0.02026367,-0.02185059,-2.343384,0,0,2.570557,0,3.987,0,0,0,0,nan,2,0.026,1,128,0.1000061,0.1000061,0.1000061,0.1000061,0,0,0,1,2,0
1576.453,0.00101,-0.03125,0,0.04492188,-0.3984375,1.117188,9.796875,-0.02148438,0.0078125,-0.01171875,0.1289062,0.03125,0,0.0201416,-0.02185059,-2.343384,0,0,2.570557,0,3.987,0,0,0,0,nan,2,0.036,1,128,0.1000061,0.1000061,0.1000061,0.1000061,0,0,0,1,2,0.6031746
1576.463,0.00101,0.03710938,-0.04882812,0.00390625,-0.453125,-1.140625,8.820312,0.01367188,-0.0078125,0.015625,0.1289062,0.03125,0,0.0201416,-0.02185059,-2.343384,0,0,2.570557,0,3.987,0,0,0,0,nan,2,0.046,1,128,0.1000061,0.1000061,0.1000061,0.1000061,0,0,0,1,2,0
1576.473,0.001018,-0.005859375,0.06054688,-0.03515625,2.0625,1.9375,11.13281,-0.00390625,0,-0.015625,0.1289062,0.03125,0,0.0201416,-0.02185059,-2.343384,0,0,2.570557,0,3.987,0,0,0,0,nan,2,0.057,1,128,0.1000061,0.1000061,0.1000061,0.1000061,0,0,0,1,2,0
1576.483,0.00101,-0.01367188,-0.08789062,0.0234375,-1.6875,0.8671875,8.242188,-0.005859375,-0.005859375,0.005859375,0.1289062,0.03125,0,0.0201416,-0.02185059,-2.343384,0,0,2.570557,0,3.987,0,0,0,0,nan,2,0.067,1,128,0.1000061,0.1000061,0.1000061,0.1000061,0,0,0,1,2,0
1576.492,0.00101,0.02734375,-0.02539062,0.005859375,1.945312,-0.953125,10.07812,-0.00390625,-0.02148438,0.0078125,0.1289062,0.03125,0,0.0201416,-0.02185059,-2.343384,0,0,2.570557,0,3.987,0,0,0,0,nan,2,0.076,1,128,0.1000061,0.1000061,0.1000061,0.1000061,0,0,0,1,2,0
1576.502,0.001011,-0.0234375,0.0703125,-0.046875,-0.890625,-0.328125,10.5625,0.01171875,0.02734375,-0.01171875,0.1289062,0.03125,0,0.0201416,-0.02185059,-2.343384,0,0,2.570557,0,3.987,0,0,0,0,nan,2,0.086,1,128,0.1000061,0.1000061,0.1000061,0.1000061,0,0,0,1,2,0
1576.512,0.001008,-0.009765625,-0.08789062,0.0625,-0.1484375,1.546875,8.53125,-0.0234375,-0.01953125,0.00390625,0.1289062,0.03125,0,0.02001953,-0.02185059,-2.343506,0,0,2.570557,0,3.987,0,0,0,0,nan,2,0.096,1,128,0.1000061,0.1000061,0.1000061,0.1000061,0,0,0,1,2,0
1576.522,0.001012,0.07226562,0.0859375,-0.046875,0.171875,-2.1875,11.04688,0.02929688,0.01367188,0.009765625,0.1289062,0.03125,0,0.0201416,-0.02185059,-2.343384,0,0,2.570557,0,3.987,0,0,0,0,nan,2,0.106,1,128,0.1000061,0.1000061,0.1000061,0.1000061,0,0,0,1,2,0
1576.532,0.001009,-0.109375,-0.05664062,-0.005859375,-0.3359375,1.992188,8.40625,-0.02929688,-0.00390625,-0.02539062,0.1289062,0.03125,0,0.0201416,-0.02185059,-2.343506,0,0,2.570557,0,3.987,0,0,0,0,nan,2,0.116,1,128,0.1000061,0.1000061,0.1000061,0.1000061,0,0,0,1,2,0
1576.543,0.001012,0.1035156,0.01757812,0.06445312,0.0546875,-0.6171875,10.67969,0.01171875,0.001953125,0.02929688,0.1289062,0.03125,0,0.02001953,-0.02185059,-2.343384,0,0,2.570557,0,3.987,0,0,0,0,nan,2,0.126,1,128,0.1000061,0.1000061,0.1000061,0.1000061,0,0,0,1,2,0
1576.553,0.00101,-0.04101562,-0.01171875,-0.1035156,0.4453125,0.4296875,9.59375,0.00390625,-0.005859375,-0.02539062,0.1289062,0.03125,0,0.02001953,-0.02172852,-2.343384,0,0,2.570557,0,3.987,0,0,0,0,nan,2,0.136,1,128,0.1000061,0.1000061,0.1000061,0.1000061,0,0,0,1,2,0.5079365
1576.563,0.001017,-0.009765625,0.04492188,0.09765625,-0.4921875,0.03125,9.171875,-0.009765625,0.01757812,0.009765625,0.1289062,0.03125,0,0.02001953,-0.02172852,-2.343384,0,0,2.570557,0,3.987,0,0,0,0,nan,2,0.146,1,128,0.1000061,0.1000061,0.1000061,0.1000061,0,0,0,1,2,0
1576.573,0.001,0.01171875,-0.08203125,-0.0546875,-0.2890625,-0.125,10.84375,-0.00390625,-0.01953125,0.00390625,0.1289062,0.03125,0,0.02001953,-0.02172852,-2.343384,0,0,2.570557,0,3.987,0,0,0,0,nan,2,0.157,1,128,0.1000061,0.1000061,0.1000061,0.1000061,0,0,0,1,2,0
1576.583,0.001009,-0.02929688,0.09765625,0.03320312,0,-1.257812,9.03125,0.005859375,0.02734375,-0.005859375,0.1289062,0.03125,0,0.02001953,-0.02185059,-2.343506,0,0,2.570557,0,3.987,0,0,0,0,nan,2,0.167,1,128,0.1000061,0.1000061,0.1000061,0.1000061,0,0,0,1,2,0
1576.592,0.001008,-0.0703125,-0.07421875,0.03710938,-2.390625,1.835938,9.953125,-0.02148438,0.005859375,0.0078125,0.1289062,0.03125,0,0.01989746,-0.02172852,-2.343506,0,0,2.570557,0,3.987,0,0,0,0,nan,2,0.176,1,128,0.1000061,0.1000061,0.1000061,0.1000061,0,0,0,1,2,0
1576.602,0.001007,0.09179688,0.01171875,-0.01171875,1.96875,-2.421875,8.695312,0.01367188,-0.02148438,0.0078125,0.1289062,0.03125,0,0.01989746,-0.02172852,-2.343506,0,0,2.570557,0,3.987,0,0,0,0,nan,2,0.186,1,128,0.1000061,0.1000061,0.1000061,0.1000061,0,0,0,1,2,0
1576.612,0.001044,-0.08789062,0.0546875,-0.0546875,-0.4921875,1.109375,11.60156,-0.001953125,0.02539062,-0.01953125,0.1289062,0.03125,0,0.01989746,-0.02172852,-2.343506,0,0,2.570557,0,3.987,0,0,0,0,nan,2,0.196,1,128,0.1000061,0.1000061,0.1000061,0.1000061,0,0,0,1,2,0
1576.622,0.001006,0.04492188,-0.06640625,0.09765625,-0.8828125,0.2890625,8.1875,-0.01367188,-0.015625,0.01367188,0.1289062,0.03125,0,0.01989746,-0.02172852,-2.343506,0,0,2.570557,0,3.987,0,0,0,0,nan,2,0.206,1,128,0.1000061,0.1000061,0.1000061,0.1000061,0,0,0,1,2,0
1576.632,0.001008,-0.01367188,0.04492188,-0.07421875,0.6171875,-1.898438,9.789062,0.015625,0.001953125,0.00390625,0.1289062,0.03125,0,0.01989746,-0.02172852,-2.343506,0,0,2.570557,0,3.987,0,0,0,0,nan,2,0.216,1,128,0.1000061,0.1000061,0.1000061,0.1000061,0,0,0,1,2,0.4285714
1576.643,0.000977,-0.015625,0.01171875,-0.0078125,0.5859375,2,11.32031,-0.01757812,0.0078125,-0.0234375,0.1289062,0.03125,0,0.01989746,-0.02172852,-2.343506,0,0,2.570557,0,3.987,0,0,0,0,nan,2,0.008,1,128,0.1000061,0.1000061,0.1000061,0.1000061,0,0,0,1,2,0
1576.653,0.000956,0.0390625,-0.046875,0.08007812,-1.976562,-1.867188,8.203125,0.01953125,-0.001953125,0.0234375,0.1289062,0.03125,0,0.01989746,-0.02172852,-2.343506,0,0,2.570557,0,3.987,0,0,0,0,nan,2,0.018,1,128,0.1000061,0.1000061,0.1000061,0.1000061,0,0,0,1,2,0
1576.663,0.001021,-0.04882812,0.03125,-0.07617188,1.9375,1.3125,11.15625,-0.01953125,-0.009765625,-0.0078125,0.1289062,0.03125,0,0.01977539,-0.02160645,-2.343506,0,0,2.570557,0,3.987,0,0,0,0,nan,2,0.028,1,128,0.1000061,0.1000061,0.1000061,0.1000061,0,0,0,1,2,0
1576.673,0.001012,0.05273438,0.0390625,0.00390625,-0.7265625,-0.65625,9.023438,0.01367188,0.02734375,-0.015625,0.1289062,0.03125,0,0.01977539,-0.02160645,-2.343506,0,0,2.570557,0,3.987,0,0,0,0,nan,2,0.038,1,128,0.1000061,0.1000061,0.1000061,0.1000061,0,0,0,1,2,0
1576.683,0.00101,-0.01367188,-0.02929688,0.03125,1.007812,-0.0390625,9.828125,-0.01367188,-0.03320312,0.0234375,0.1289062,0.03125,0,0.01965332,-0.02160645,-2.343506,0,0,2.570557,0,3.987,0,0,0,0,nan,2,0.048,1,128,0.1000061,0.1000061,0.1000061,0.1000061,0,0,0,1,2,0.7619048
1576.692,0.001008,0.03515625,0.09765625,-0.06640625,1.53125,-0.1171875,8.648438,0.005859375,0.01171875,0,0.1289062,0.03125,0,0.01965332,-0.02160645,-2.343384,0,0,2.570557,0,3.987,0,0,0,0,nan,2,0.058,1,128,0.1000061,0.1000061,0.1000061,0.1000061,0,0,0,1,2,0
1576.702,0.001018,-0.04882812,-0.04296875,0,-0.84375,1.273438,11.50781,-0.01953125,0.0078125,-0.01757812,0.1289062,0.03125,0,0.01953125,-0.02148438,-2.343506,0,0,2.570557,0,3.987,0,0,0,0,nan,2,0.068,1,128,0.1000061,0.1000061,0.1000061,0.1000061,0,0,0,1,2,0
1576.712,0.001009,0.0859375,0,0.06445312,-0.2734375,-2.492188,9.296875,0.02148438,-0.009765625,0.02148438,0.1289062,0.03125,0,0.01953125,-0.02160645,-2.343506,0,0,2.570557,0,3.987,0,0,0,0,nan,2,0.078,1,128,0.1000061,0.1000061,0.1000061,0.1000061,0,0,0,1,2,0.4285714
1576.722,0.001008,-0.1269531,0.01953125,-0.078125,0.4296875,2.226562,8.15625,-0.01953125,0.0078125,-0.01367188,0.1289062,0.03125,0,0.01953125,-0.02148438,-2.343506,0,0,2.570557,0,3.987,0,0,0,0,nan,2,0.088,1,128,0.1000061,0.1000061,0.1000061,0.1000061,0,0,0,1,2,0
1576.732,0.001009,0.109375,0.0078125,0.05273438,0.078125,0.5,12.03906,-0.005859375,0.00390625,0.001953125,0.1289062,0.03125,0,0.01940918,-0.02148438,-2.343506,0,0,2.570557,0,3.987,0,0,0,0,nan,2,0.098,1,128,0.1000061,0.1000061,0.1000061,0.1000061,0,0,0,1,2,0
1576.743,0.001011,-0.03320312,-0.03515625,-0.01953125,-0.671875,-1.953125,8.570312,0.0234375,-0.005859375,0.00390625,0.1289062,0.03125,0,0.01953125,-0.02148438,-2.343506,0,0,2.570557,0,3.987,0,0,0,0,nan,2,0.108,1,128,0.1000061,0.1000061,0.1000061,0.1000061,0,0,0,1,2,0
1576.753,0.001009,-0.05273438,0.04492188,0.01367188,1.070312,2.179688,9.421875,-0.03125,0.005859375,-0.001953125,0.1289062,0.03125,0,0.01940918,-0.02148438,-2.343506,0,0,2.570557,0,3.987,0,0,0,0,nan,2,0.118,1,128,0.1000061,0.1000061,0.1000061,0.1000061,0,0,0,1,2,0.7460318
1576.763,0.001009,0.06054688,-0.04296875,0,-1.148438,-1.09375,10.25,0.01367188,0,0.005859375,0.1289062,0.03125,0,0.01940918,-0.0213623,-2.343384,0,0,2.570557,0,3.987,0,0,0,0,nan,2,0.128,1,128,0.1000061,0.1000061,0.1000061,0.1000061,0,0,0,1,2,0
1576.773,0.00101,-0.01367188,0.01953125,-0.0078125,1.484375,0.1953125,10.14844,-0.001953125,-0.0078125,-0.00390625,0.1289062,0.03125,0,0.01940918,-0.02148438,-2.343384,0,0,2.570557,0,3.987,0,0,0,0,nan,2,0.138,1,128,0.1000061,0.1000061,0.1000061,0.1000061,0,0,0,1,2,0.06349207
1576.783,0.00101,-0.05078125,-0.0546875,0.01757812,-1.757812,1.046875,9.132812,-0.015625,-0.001953125,0.001953125,0.1289062,0.03125,0,0.01928711,-0.0213623,-2.343384,0,0,2.570557,0,3.987,0,0,0,0,nan,2,0.148,1,128,0.1000061,0.1000061,0.1000061,0.1000061,0,0,0,1,2,0.04761905
1576.792,0.000974,0.01367188,-0.0625,0.03710938,0.5,1.359375,11.84375,-0.01757812,-0.01953125,0.01367188,0.1289062,0.03125,0,0.01928711,-0.02148438,-2.343384,0,0,2.570557,0,3.987,0,0,0,0,nan,2,0.158,1,128,0.1000061,0.1000061,0.1000061,0.1000061,0,0,0,1,2,0
1576.802,0.000965,0.06640625,0.0859375,-0.06835938,1.070312,-1.632812,9.148438,0.02734375,0.01757812,-0.0078125,0.1289062,0.03125,0,0.01928711,-0.02148438,-2.343384,0,0,2.570557,0,3.987,0,0,0,0,nan,2,0.168,1,128,0.1000061,0.1000061,0.1000061,0.1000061,0,0,0,1,2,0.07936508
1576.812,0.000988,-0.1171875,-0.05859375,0.04101562,-1.546875,1.929688,10.41406,-0.03125,-0.001953125,-0.01171875,0.1289062,0.03125,0,0.01916504,-0.0213623,-2.343384,0,0,2.570557,0,3.987,0,0,0,0,nan,2,0.178,1,128,0.1000061,0.1000061,0.1000061,0.1000061,0,0,0,1,2,0
1576.822,0.001001,0.1152344,-0.009765625,0.04296875,-0.09375,-1.664062,8.601562,0.01757812,-0.01171875,0.02734375,0.1289062,0.03125,0,0.01916504,-0.02148438,-2.343384,0,0,2.570557,0,3.987,0,0,0,0,nan,2,0.005,1,128,0.1000061,0.1000061,0.1000061,0.1000061,0,0,0,1,2,0
1576.833,0.001017,-0.09570312,0.04296875,-0.1113281,1.390625,1.757812,10.10156,-0.01171875,0.009765625,-0.0234375,0.1289062,0.03125,0,0.01916504,-0.0213623,-2.343384,0,0,2.570557,0,3.987,0,0,0,0,nan,2,0.015,1,128,0.1000061,0.1000061,0.1000061,0.1000061,0,0,0,1,2,0
1576.842,0.000964,0.06640625,0,0.07617188,-0.7734375,-0.09375,11.17969,-0.001953125,0.01171875,-0.001953125,0.1289062,0.03125,0,0.01904297,-0.0213623,-2.343506,0,0,2.570557,0,3.987,0,0,0,0,nan,2,0.025,1,128,0.1000061,0.1000061,0.1000061,0.1000061,0,0,0,1,2,0
1576.853,0.001009,-0.046875,-0.05273438,0.01171875,-1.054688,-1.054688,8.15625,0.0078125,-0.01757812,0.01953125,0.1289062,0.03125,0,0.01916504,-0.0213623,-2.343384,0,0,2.570557,0,3.99,0,0,0,0,nan,2,0.035,1,128,0.1000061,0.1000061,0.1000061,0.1000061,0,0,0,1,2,0
1576.863,0.001012,0.01367188,0.0859375,-0.0625,2.21875,1.210938,10.32031,-0.01171875,0.009765625,-0.01367188,0.1289062,0.03125,0,0.01904297,-0.0213623,-2.343384,0,0,2.570557,0,3.99,0,0,0,0,nan,2,0.045,1,128,0.1000061,0.1000061,0.1000061,0.1000061,0,0,0,1,2,0
1576.873,0.001008,0,-0.03710938,0.02539062,-1.765625,-0.7578125,10.88281,0.0078125,0.01367188,-0.00390625,0.1289062,0.03125,0,0.01904297,-0.0213623,-2.343384,0,0,2.570557,0,3.99,0,0,0,0,nan,2,0.056,1,128,0.1000061,0.1000061,0.1000061,0.1000061,0,0,0,1,2,0
1576.883,0.00101,0.01171875,0.06445312,-0.001953125,1.289062,-1.203125,8.1875,0.001953125,0.005859375,0.001953125,0.1289062,0.03125,0,0.01904297,-0.02124023,-2.343384,0,0,2.570557,0,3.99,0,0,0,0,nan,2,0.066,1,128,0.1000061,0.1000061,0.1000061,0.1000061,0,0,0,1,2,0
1576.892,0.00101,-0.04492188,0.07226562,-0.05273438,0.734375,0.2734375,8.539062,-0.00390625,0.02734375,-0.0078125,0.1289062,0.03125,0,0.01904297,-0.02124023,-2.343506,0,0,2.570557,0,3.99,0,0,0,0,nan,2,0.075,1,128,0.1000061,0.1000061,0.1000061,0.1000061,0,0,0,1,2,0
1576.902,0.00101,0.04492188,-0.08007812,0.0234375,-0.1328125,1.820312,11.88281,-0.01171875,-0.01171875,-0.0078125,0.1289062,0.03125,0,0.01904297,-0.02111816,-2.343506,0,0,2.570557,0,3.99,0,0,0,0,nan,2,0.085,1,128,0.1000061,0.1000061,0.1000061,0.1000061,0,0,0,1,2,0
1576.912,0.001013,0.02539062,0.04296875,0.01757812,0.0390625,-2.75,8.15625,0.03125,0.001953125,0.015625,0.1289062,0.03125,0,0.01904297,-0.02111816,-2.343506,0,0,2.570557,0,3.99,0,0,0,0,nan,2,0.095,1,128,0.1000061,0.1000061,0.1000061,0.1000061,0,0,0,1,2,0
1576.922,0.001015,-0.1035156,-0.0234375,-0.03125,-0.2578125,3.09375,9.898438,-0.03515625,0.001953125,-0.01367188,0.1289062,0.03125,0,0.0189209,-0.02111816,-2.343506,0,0,2.570557,0,3.99,0,0,0,0,nan,2,0.105,1,128,0.1000061,0.1000061,0.1000061,0.1000061,0,0,0,1,2,0
1576.932,0.001005,0.1191406,0.009765625,0.06054688,0.1953125,-1.492188,9.65625,0.01757812,0,0.01953125,0.1289062,0.03125,0,0.0189209,-0.02111816,-2.343506,0,0,2.570557,0,3.99,0,0,0,0,nan,2,0.115,1,128,0.1000061,0.1000061,0.1000061,0.1000061,0,0,0,1,2,0.8888889
1576.942,0.00101,-0.0625,-0.0078125,-0.08203125,0.15625,0.265625,10.53125,0.001953125,-0.001953125,-0.01171875,0.1289062,0.03125,0,0.0189209,-0.02111816,-2.343384,0,0,2.570557,0,3.99,0,0,0,0,nan,2,0.125,1,128,0.1000061,0.1000061,0.1000061,0.1000061,0,0,0,1,2,0
1576.953,0.001012,0,0.04492188,0.07226562,0.0703125,0.0078125,8.796875,-0.005859375,0.01171875,0.001953125,0.1289062,0.03125,0,0.0189209,-0.02099609,-2.343384,0,0,2.570557,0,3.99,0,0,0,0,nan,2,0.135,1,128,0.1000061,0.1000061,0.1000061,0.1000061,0,0,0,1,2,0
1576.963,0.001012,-0.005859375,-0.0703125,-0.01171875,-1.265625,0.4921875,9.96875,-0.001953125,-0.005859375,0.01367188,0.1289062,0.03125,0,0.0189209,-0.02099609,-2.343384,0,0,2.570557,0,3.99,0,0,0,0,nan,2,0.145,1,128,0.1000061,0.1000061,0.1000061,0.1000061,0,0,0,1,2,0.4603175
1576.973,0.001009,0.03710938,0.0703125,-0.03710938,2.796875,-0.84375,9.632812,0.0078125,-0.00390625,-0.01171875,0.1289062,0.03125,0,0.0189209,-0.02099609,-2.343384,0,0,2.570557,0,3.99,0,0,0,0,nan,2,0.156,1,128,0.1000061,0.1000061,0.1000061,0.1000061,0,0,0,1,2,0.4603175
1576.983,0.00101,-0.04101562,-0.09765625,0.03125,-2.5,0.8203125,9.578125,-0.005859375,0.00390625,-0.00390625,0.1289062,0.03125,0,0.0189209,-0.02099609,-2.343384,0,0,2.570557,0,3.99,0,0,0,0,nan,2,0.166,1,128,0.1000061,0.1000061,0.1000061,0.1000061,0,0,0,1,2,0.6031746
1576.992,0.000973,0.04296875,-0.0625,0.06835938,0.5625,-0.46875,6.15625,0,-0.03125,0.01367188,0.1289062,0.03125,0,0.0189209,-0.02099609,-2.343506,0,0,2.570557,0,3.99,0,0,0,0,nan,2,0.175,1,128,0.1000061,0.1000061,0.1000061,0.1000061,0,0,0,1,2,0
1577.002,0.001035,-0.015625,0.09375,-0.1035156,0.8984375,0.546875,12.4375,0.005859375,0.0234375,-0.00390625,0.1289062,0.03125,0,0.0189209,-0.02099609,-2.343384,0,0,2.570557,0,3.99,0,0,0,0,nan,2,0.185,1,128,0.1000061,0.1000061,0.1000061,0.1000061,0,0,0,1,2,0
1577.012,0.001006,0.00390625,-0.0546875,0.02929688,-0.390625,1.039062,10.54688,-0.01367188,-0.005859375,-0.0234375,0.1289062,0.03125,0,0.01879883,-0.02087402,-2.343506,0,0,2.570557,0,3.99,0,0,0,0,nan,2,0.195,1,128,0.1000061,0.1000061,0.1000061,0.1000061,0,0,0,1,2,0
1577.022,0.000984,0.03125,0.01171875,0.0703125,-0.8125,-1.507812,8.664062,0.015625,-0.001953125,0.03515625,0.1289062,0.03125,0,0.01879883,-0.02099609,-2.343506,0,0,2.570557,0,3.99,0,0,0,0,nan,2,0.009,1,128,0.1000061,0.1000061,0.1000061,0.1000061,0,0,0,1,2,0
1577.032,0.000951,-0.07421875,-0.005859375,-0.09375,1.476562,2.585938,9.203125,-0.01757812,-0.0078125,-0.02148438,0.1289062,0.03125,0,0.01879883,-0.02087402,-2.343506,0,0,2.570557,0,3.99,0,0,0,0,nan,2,0.019,1,128,0.1000061,0.1000061,0.1000061,0.1000061,0,0,0,1,2,0.5873016
1577.042,0.001008,0.078125,0.0390625,0.05859375,-0.296875,0,12.07812,0,0.01953125,0.0078125,0.1289062,0.03125,0,0.01879883,-0.02087402,-2.343506,0,0,2.570557,0,3.99,0,0,0,0,nan,2,0.029,1,128,0.1000061,0.1000061,0.1000061,0.1000061,0,0,0,1,2,0
1577.053,0.00101,-0.02148438,-0.0859375,-0.02539062,-0.546875,-1.585938,8.179688,0.01367188,-0.02148438,-0.00390625,0.1289062,0.03125,0,0.01879883,-0.02087402,-2.343506,0,0,2.570557,0,3.99,0,0,0,0,nan,2,0.039,1,128,0.1000061,0.1000061,0.1000061,0.1000061,0,0,0,1,2,0
1577.063,0.00101,-0.03320312,0.09960938,0.01953125,1.445312,1.421875,9.46875,-0.01757812,0.01953125,0.005859375,0.1289062,0.03125,0,0.01879883,-0.02087402,-2.343506,0,0,2.570557,0,3.99,0,0,0,0,nan,2,0.049,1,128,0.1000061,0.1000061,0.1000061,0.1000061,0,0,0,1,2,0.5714286
1577.073,0.00101,0.02148438,-0.0859375,-0.03125,-1.429688,0.4609375,10.3125,0.001953125,-0.00390625,-0.009765625,0.1289062,0.03125,0,0.01867676,-0.02087402,-2.343506,0,0,2.570557,0,3.99,0,0,0,0,nan,2,0.06,1,128,0.1000061,0.1000061,0.1000061,0.1000061,0,0,0,1,2,0
1577.083,0.001011,0.02148438,0.05859375,0.046875,1.273438,-1.851562,10.53906,0.005859375,-0.00390625,0.009765625,0.1289062,0.03125,0,0.01867676,-0.02087402,-2.343506,0,0,2.570557,0,3.99,0,0,0,0,nan,2,0.07,1,128,0.1000061,0.1000061,0.1000061,0.1000061,0,0,0,1,2,0
1577.093,0.001008,-0.078125,-0.06054688,-0.02539062,-1.09375,1.773438,8.515625,-0.01953125,-0.001953125,-0.01367188,0.1289062,0.03125,0,0.01867676,-0.02075195,-2.343506,0,0,2.570557,0,3.99,0,0,0,0,nan,2,0.08,1,128,0.1000061,0.1000061,0.1000061,0.1000061,0,0,0,1,2,0
1577.102,0.001012,0.0546875,-0.0234375,0.06640625,0.8828125,0.5859375,10.85156,-0.01171875,-0.01367188,0.0078125,0.1289062,0.03125,0,0.01855469,-0.02087402,-2.343506,0,0,2.570557,0,3.99,0,0,0,0,nan,2,0.089,1,128,0.1000061,0.1000061,0.1000061,0.1000061,0,0,0,1,2,0
1577.112,0.001011,0.009765625,0.0234375,-0.05078125,-0.578125,-2.242188,9.125,0.02734375,0.009765625,0,0.1289062,0.03125,0,0.01867676,-0.02075195,-2.343384,0,0,2.570557,0,3.99,0,0,0,0,nan,2,0.099,1,128,0.1000061,0.1000061,0.1000061,0.1000061,0,0,0,1,2,0.1587302
1577.122,0.001009,-0.1074219,-0.00390625,0.02929688,0.5703125,2.296875,9.882812,-0.0390625,0,-0.0078125,0.1289062,0.03125,0,0.01855469,-0.02075195,-2.343506,0,0,2.570557,0,3.99,0,0,0,0,nan,2,0.109,1,128,0.1000061,0.1000061,0.1000061,0.1000061,0,0,0,1,2,0.2222222
1577.132,0.001008,0.1171875,0,0.01367188,-0.375,-2.078125,10.39062,0.0234375,0.00390625,0.015625,0.1289062,0.03125,0,0.01855469,-0.02075195,-2.343384,0,0,2.570557,0,3.99,0,0,0,0,nan,2,0.119,1,128,0.1000061,0.1000061,0.1000061,0.1000061,0,0,0,1,2,0
1577.142,0.001009,-0.08789062,0,-0.02734375,0.875,0.9765625,9.40625,-0.00390625,-0.0078125,-0.005859375,0.1289062,0.03125,0,0.01855469,-0.02075195,-2.343384,0,0,2.570557,0,3.99,0,0,0,0,nan,2,0.129,1,128,0.1000061,0.1000061,0.1000061,0.1000061,0,0,0,1,2,0.3650794
1577.153,0.00101,0.02929688,0.02539062,0.02734375,-0.5390625,0.5,9.1875,-0.005859375,0.01171875,0.00390625,0.1289062,0.03125,0,0.01843262,-0.02075195,-2.343384,0,0,2.570557,0,3.99,0,0,0,0,nan,2,0.139,1,128,0.1000061,0.1000061,0.1000061,0.1000061,0,0,0,1,2,0
1577.163,0.00101,0.00390625,-0.05078125,-0.01757812,-0.1328125,-0.2890625,11.67969,-0.001953125,-0.01171875,-0.00390625,0.1289062,0.03125,0,0.01843262,-0.02075195,-2.343384,0,0,2.570557,0,3.99,0,0,0,0,nan,2,0.149,1,128,0.1000061,0.1000061,0.1000061,0.1000061,0,0,0,1,2,0
1577.173,0.00101,0.009765625,0.08203125,-0.001953125,1.15625,-0.25,7.3125,0.009765625,0.01367188,0,0.1289062,0.03125,0,0.01843262,-0.02075195,-2.343384,0,0,2.570557,0,3.99,0,0,0,0,nan,2,0.16,1,128,0.1000061,0.1000061,0.1000061,0.1000061,0,0,0,1,2,0
1577.183,0.00101,-0.07226562,-0.04882812,-0.01953125,-1.28125,1.929688,11.32031,-0.02929688,0.009765625,-0.005859375,0.1289062,0.03125,0,0.01831055,-0.02062988,-2.343384,0,0,2.570557,0,3.99,0,0,0,0,nan,2,0.17,1,128,0.1000061,0.1000061,0.1000061,0.1000061,0,0,0,1,2,0
1577.193,0.00101,0.05859375,0.05859375,0.02539062,0.6328125,-2.765625,8.992188,0.02929688,-0.00390625,0.01171875,0.1289062,0.03125,0,0.01831055,-0.02075195,-2.343506,0,0,2.570557,0,3.99,0,0,0,0,nan,2,0.18,1,128,0.1000061,0.1000061,0.1000061,0.1000061,0,0,0,1,2,0.1904762
1577.202,0.001008,-0.1269531,0.02734375,-0.0546875,0.046875,1.609375,9.117188,-0.015625,0.01367188,0,0.1289062,0.03125,0,0.01831055,-0.02075195,-2.343384,0,0,2.570557,0,3.99,0,0,0,0,nan,2,0.189,1,128,0.1000061,0.1000061,0.1000061,0.1000061,0,0,0,1,2,0
1577.212,0.00101,0.07617188,-0.01757812,0.03515625,0.203125,-0.140625,10.19531,-0.01171875,-0.001953125,-0.0078125,0.1289062,0.03125,0,0.01818848,-0.02062988,-2.343384,0,0,2.570557,0,3.99,0,0,0,0,nan,2,0.199,1,128,0.1000061,0.1000061,0.1000061,0.1000061,0,0,0,1,2,0.1904762
1577.222,0.001014,-0.02148438,-0.001953125,0.015625,-1.070312,-2.257812,9.835938,0.01953125,0.00390625,0.01953125,0.1289062,0.03125,0,0.01818848,-0.02062988,-2.343384,0,0,2.570557,0,3.99,0,0,0,0,nan,2,0.209,1,128,0.1000061,0.1000061,0.1000061,0.1000061,0,0,0,1,2,0.2539683
1577.232,0.001002,-0.02734375,0.01367188,-0.05664062,2.039062,2.8125,8.671875,-0.02148438,-0.0078125,-0.02148438,0.1289062,0.03125,0,0.01806641,-0.02062988,-2.343384,0,0,2.570557,0,3.99,0,0,0,0,nan,2,0.219,1,128,0.1000061,0.1000061,0.1000061,0.1000061,0,0,0,1,2,0.04761905
1577.242,0.001006,0.05664062,0.001953125,0.0625,-1.875,-1.1875,12.35938,0.01171875,0.015625,0.009765625,0.1289062,0.03125,0,0.01806641,-0.02062988,-2.343384,0,0,2.570557,0,3.99,0,0,0,0,nan,2,0.229,1,128,0.1000061,0.1000061,0.1000061,0.1000061,0,0,0,1,2,0
1577.253,0.001001,-0.05859375,-0.06640625,-0.01757812,0.8984375,-0.578125,7.671875,-0.0078125,-0.02929688,0.00390625,0.1289062,0.03125,0,0.01806641,-0.02062988,-2.343384,0,0,2.570557,0,3.99,0,0,0,0,nan,2,0.239,1,128,0.1000061,0.1000061,0.1000061,0.1000061,0,0,0,1,2,0
1577.263,0.001015,0.009765625,0.1113281,-0.03515625,1.101562,-0.0703125,11.42188,-0.009765625,0.02148438,-0.0078125,0.1289062,0.03125,0,0.01806641,-0.02062988,-2.343384,0,0,2.570557,0,3.99,0,0,0,0,nan,2,0,1,128,0.1000061,0.1000061,0.1000061,0.1000061,0,0,0,1,2,0
1577.273,0.00101,-0.01367188,-0.1113281,0.05664062,-2.070312,0.0234375,8.398438,0.001953125,-0.01171875,0,0.1289062,0.03125,0,0.01806641,-0.02062988,-2.343506,0,0,2.570557,0,3.99,0,0,0,0,nan,2,0.01,1,128,0.1000061,0.1000061,0.1000061,0.1000061,0,0,0,1,2,0
1577.283,0.00101,0.03320312,0.1074219,-0.02539062,2.179688,-0.359375,11.5,0.005859375,0.005859375,0.01757812,0.1289062,0.03125,0,0.01806641,-0.02075195,-2.343384,0,0,2.570557,0,3.99,0,0,0,0,nan,2,0.02,1,128,0.1000061,0.1000061,0.1000061,0.1000061,0,0,0,1,2,0
1577.292,0.00101,-0.06054688,-0.04882812,-0.05078125,-1.507812,1.390625,9.773438,-0.005859375,0.01367188,-0.04101562,0.1289062,0.03125,0,0.01806641,-0.02050781,-2.343506,0,0,2.570557,0,3.99,0,0,0,0,nan,2,0.029,1,128,0.1000061,0.1000061,0.1000061,0.1000061,0,0,0,1,2,0.3492064
1577.302,0.001009,0.05664062,0,0.1132812,0.9609375,-0.375,8.882812,-0.005859375,-0.009765625,0.03125,0.1289062,0.03125,0,0.01806641,-0.02050781,-2.343506,0,0,2.570557,0,3.99,0,0,0,0,nan,2,0.039,1,128,0.1000061,0.1000061,0.1000061,0.1000061,0,0,0,1,2,0
1577.312,0.00101,-0.009765625,0.01953125,-0.1230469,0.3046875,-0.5390625,10.33594,0.01757812,0.0078125,-0.02148438,0.1289062,0.03125,0,0.01806641,-0.02050781,-2.343628,0,0,2.570557,0,3.99,0,0,0,0,nan,2,0.049,1,128,0.1000061,0.1000061,0.1000061,0.1000061,0,0,0,1,2,0
1577.322,0.001009,-0.04296875,0.00390625,0.09765625,0.140625,1.421875,9.414062,-0.02539062,0.001953125,0.005859375,0.1289062,0.03125,0,0.01794434,-0.02050781,-2.343628,0,0,2.570557,0,3.99,0,0,0,0,nan,2,0.06,1,128,0.1000061,0.1000061,0.1000061,0.1000061,0,0,0,1,2,0.4126984
1577.332,0.001016,0.08203125,-0.0390625,-0.04492188,-0.765625,-2.007812,10.17969,0.02148438,-0.005859375,0.00390625,0.1289062,0.03125,0,0.01794434,-0.02038574,-2.343628,0,0,2.570557,0,3.99,0,0,0,0,nan,2,0.07,1,128,0.1000061,0.1000061,0.1000061,0.1000061,0,0,0,1,2,0
1577.342,0.001008,-0.07226562,0.04492188,0.01367188,1.390625,2.351562,8.875,-0.015625,0,-0.001953125,0.1289062,0.03125,0,0.01794434,-0.02038574,-2.343628,0,0,2.570557,0,3.99,0,0,0,0,nan,2,0.08,1,128,0.1000061,0.1000061,0.1000061,0.1000061,0,0,0,1,2,0
1577.353,0.00101,0.046875,-0.015625,-0.01953125,-0.9765625,-0.0859375,10.35156,0.001953125,0.01171875,-0.00390625,0.1289062,0.03125,0,0.01794434,-0.02038574,-2.343628,0,0,2.570557,0,3.99,0,0,0,0,nan,2,0.09,1,128,0.1000061,0.1000061,0.1000061,0.1000061,0,0,0,1,2,0
1577.363,0.00101,-0.0078125,-0.03515625,0.05664062,0.046875,-0.3515625,10.89844,-0.001953125,-0.01757812,0.009765625,0.1289062,0.03125,0,0.01794434,-0.02038574,-2.343628,0,0,2.570557,0,3.99,0,0,0,0,nan,2,0.1,1,128,0.1000061,0.1000061,0.1000061,0.1000061,0,0,0,1,2,0
1577.373,0.00101,-0.0078125,0.0625,-0.06640625,1.195312,0.609375,7.148438,0,0.015625,-0.00390625,0.1289062,0.03125,0,0.01794434,-0.02038574,-2.343506,0,0,2.570557,0,3.99,0,0,0,0,nan,2,0.11,1,128,0.1000061,0.1000061,0.1000061,0.1000061,0,0,0,1,2,0
1577.383,0.00101,-0.01171875,-0.0625,0.04296875,-1.257812,1.46875,13.40625,-0.01171875,-0.001953125,-0.01171875,0.1289062,0.03125,0,0.01782227,-0.02038574,-2.343628,0,0,2.570557,0,3.99,0,0,0,0,nan,2,0.12,1,128,0.1000061,0.1000061,0.1000061,0.1000061,0,0,0,1,2,0
1577.393,0.00101,-0.005859375,0.05664062,-0.07226562,1.3125,-0.9921875,7.5,0.01367188,0.005859375,0,0.1289062,0.03125,0,0.01794434,-0.02038574,-2.343506,0,0,2.570557,0,3.99,0,0,0,0,nan,2,0.13,1,128,0.1000061,0.1000061,0.1000061,0.1000061,0,0,0,1,2,0
1577.402,0.00101,-0.07617188,0.03710938,-0.0859375,0.1015625,1.921875,12.65625,-0.015625,0.01757812,-0.03125,0.1289062,0.03125,0,0.01782227,-0.02026367,-2.343628,0,0,2.570557,0,3.99,0,0,0,0,nan,2,0.139,1,128,0.1000061,0.1000061,0.1000061,0.1000061,0,0,0,1,2,0
1577.412,0.001008,0.05078125,-0.03125,0.1152344,-0.3671875,-0.8125,8.234375,0,-0.005859375,0.02148438,0.1289062,0.03125,0,0.01782227,-0.02026367,-2.343628,0,0,2.570557,0,3.99,0,0,0,0,nan,2,0.149,1,128,0.1000061,0.1000061,0.1000061,0.1000061,0,0,0,1,2,0
1577.422,0.001007,-0.01171875,0.0078125,-0.09375,0.4296875,-0.6640625,10.39062,0.009765625,0,-0.00390625,0.1289062,0.03125,0,0.01782227,-0.02026367,-2.343628,0,0,2.570557,0,3.99,0,0,0,0,nan,2,0.16,1,128,0.1000061,0.1000061,0.1000061,0.1000061,0,0,0,1,2,0
1577.432,0.00102,-0.03710938,0.03710938,0.05078125,0.5390625,-0.0234375,9.28125,-0.01367188,0.0078125,-0.005859375,0.1289062,0.03125,0,0.01782227,-0.02026367,-2.343628,0,0,2.570557,0,3.99,0,0,0,0,nan,2,0.17,1,128,0.1000061,0.1000061,0.1000061,0.1000061,0,0,0,1,2,0
1577.442,0.001012,0.04296875,-0.0546875,-0.01757812,-1.546875,-0.3203125,10.90625,0.00390625,0.001953125,0.005859375,0.1289062,0.03125,0,0.01782227,-0.02026367,-2.343628,0,0,2.570557,0,3.99,0,0,0,0,nan,2,0.18,1,128,0.1000061,0.1000061,0.1000061,0.1000061,0,0,0,1,2,0
1577.453,0.00101,-0.01757812,0.02734375,0.01757812,1.445312,-0.09375,8.78125,0.005859375,-0.01367188,0,0.1289062,0.03125,0,0.01782227,-0.02026367,-2.343628,0,0,2.570557,0,3.99,0,0,0,0,nan,2,0.19,1,128,0.1000061,0.1000061,0.1000061,0.1000061,0,0,0,1,2,0
1577.463,0.00101,-0.0078125,0.04492188,-0.046875,-0.8828125,0.5,11.29688,-0.01171875,0.02734375,-0.005859375,0.1289062,0.03125,0,0.01782227,-0.02026367,-2.343628,0,0,2.570557,0,3.99,0,0,0,0,nan,2,0.2,1,128,0.1000061,0.1000061,0.1000061,0.1000061,0,0,0,1,2,0
1577.473,0.00101,0.02148438,-0.08203125,0.08203125,-0.3046875,-0.7265625,8.21875,0.005859375,-0.02148438,0.005859375,0.1289062,0.03125,0,0.01782227,-0.02026367,-2.343628,0,0,2.570557,0,3.99,0,0,0,0,nan,2,0.21,1,128,0.1000061,0.1000061,0.1000061,0.1000061,0,0,0,1,2,0
1577.483,0.00101,0.0078125,0.08007812,-0.08007812,1.289062,0.1015625,10.11719,0.001953125,0.01171875,0.0078125,0.1289062,0.03125,0,0.0177002,-0.02026367,-2.343506,0,0,2.570557,0,3.99,0,0,0,0,nan,2,0.22,1,128,0.1000061,0.1000061,0.1000061,0.1000061,0,0,0,1,2,0.1428571
1577.493,0.001044,-0.02148438,-0.0625,0.1269531,-0.4765625,0.328125,8.757812,-0.009765625,-0.015625,0.02148438,0.1289062,0.03125,0,0.0177002,-0.02026367,-2.343506,0,0,2.570557,0,3.99,0,0,0,0,nan,2,0.23,1,128,0.1000061,0.1000061,0.1000061,0.1000061,0,0,0,1,2,0
1577.502,0.00101,0.08203125,0.01171875,0.04492188,0.78125,-0.5,8.921875,0.0078125,-0.0078125,0.03710938,0.1289062,0.03125,0,0.0177002,-0.02026367,-2.343384,0,0,2.570557,0,3.996,0,0,0,0,nan,2,0.239,1,128,0.1000061,0.1000061,0.1000061,0.1000061,0,0,0,1,2,0
1577.512,0.000992,-0.06054688,0.009765625,-0.09179688,0.5703125,1.445312,10.35156,0.00390625,0.005859375,-0.03125,0.1289062,0.03125,0,0.01782227,-0.02026367,-2.343506,0,0,2.570557,0,3.996,0,0,0,0,nan,2,0.249,1,128,0.1000061,0.1000061,0.1000061,0.1000061,0,0,0,1,2,0
1577.522,0.001046,0.03515625,0.00390625,0.08203125,-0.21875,1.3125,9.265625,-0.01757812,0.005859375,0.01757812,0.1289062,0.03125,0,0.0177002,-0.0201416,-2.343506,0,0,2.570557,0,3.996,0,0,0,0,nan,2,0.006,1,128,0.1000061,0.1000061,0.1000061,0.1000061,0,0,0,1,2,0.07936508
1577.533,0.001016,0.01953125,-0.04101562,-0.04101562,-0.609375,-1.789062,10.47656,0.02148438,-0.01171875,-0.00390625,0.1289062,0.03125,0,0.0177002,-0.0201416,-2.343506,0,0,2.570557,0,3.996,0,0,0,0,nan,2,0.016,1,128,0.1000061,0.1000061,0.1000061,0.1000061,0,0,0,1,2,0
1577.542,0.001008,-0.04882812,0.07226562,0.00390625,1.875,1.859375,8.570312,-0.02539062,0.01171875,0,0.1289062,0.03125,0,0.01757812,-0.0201416,-2.343384,0,0,2.570557,0,3.996,0,0,0,0,nan,2,0.026,1,128,0.1000061,0.1000061,0.1000061,0.1000061,0,0,0,1,2,0
1577.553,0.001012,0.0546875,-0.0703125,0.005859375,-1.5,-0.4296875,11.63281,0.01757812,-0.001953125,-0.005859375,0.1289062,0.03125,0,0.0177002,-0.0201416,-2.343506,0,0,2.570557,0,3.996,0,0,0,0,nan,2,0.036,1,128,0.1000061,0.1000061,0.1000061,0.1000061,0,0,0,1,2,0
1577.563,0.00101,-0.02539062,0.01367188,0.02929688,1.4375,0.0625,8.617188,-0.01171875,-0.01757812,0.01757812,0.1289062,0.03125,0,0.01757812,-0.02026367,-2.343384,0,0,2.570557,0,3.996,0,0,0,0,nan,2,0.046,1,128,0.1000061,0.1000061,0.1000061,0.1000061,0,0,0,1,2,0
1577.573,0.00101,0.0078125,0.05273438,-0.06835938,-0.1796875,-0.2890625,10.15625,0.01171875,0.0234375,-0.02539062,0.1289062,0.03125,0,0.01757812,-0.02026367,-2.343506,0,0,2.570557,0,3.996,0,0,0,0,nan,2,0.057,1,128,0.1000061,0.1000061,0.1000061,0.1000061,0,0,0,1,2,0.2222222
1577.583,0.00101,-0.01953125,-0.09570312,0.08984375,-0.53125,1.421875,9.601562,-0.01953125,-0.02148438,0.01757812,0.1289062,0.03125,0,0.01757812,-0.0201416,-2.343506,0,0,2.570557,0,3.996,0,0,0,0,nan,2,0.067,1,128,0.1000061,0.1000061,0.1000061,0.1000061,0,0,0,1,2,0.6984127
1577.593,0.00101,-0.04296875,0.06640625,-0.07421875,-0.0546875,-0.125,11.80469,0.0078125,0.00390625,-0.001953125,0.1289062,0.03125,0,0.01757812,-0.0201416,-2.343384,0,0,2.570557,0,3.996,0,0,0,0,nan,2,0.077,1,128,0.1000061,0.1000061,0.1000061,0.1000061,0,0,0,1,2,0
1577.602,0.00101,-0.1269531,-0.04882812,0.01757812,-1.0625,2.414062,10.24219,-0.0390625,0,-0.0078125,0.1289062,0.03125,0,0.01757812,-0.02026367,-2.343384,0,0,2.570557,0,3.996,0,0,0,0,nan,2,0.086,1,128,0.1000061,0.1000061,0.1000061,0.1000061,0,0,0,1,2,0
1577.612,0.001007,0.1425781,0.01953125,0.0390625,0.7109375,-2.140625,9.0625,0.02734375,-0.00390625,0.01757812,0.1289062,0.03125,0,0.01757812,-0.02026367,-2.343384,0,0,2.570557,0,3.996,0,0,0,0,nan,2,0.096,1,128,0.1000061,0.1000061,0.1000061,0.1000061,0,0,0,1,2,0.03174603
1577.622,0.001015,-0.1308594,-0.02148438,-0.0703125,0.0703125,1.59375,9.804688,-0.01757812,-0.001953125,-0.01171875,0.1289062,0.03125,0,0.01757812,-0.02026367,-2.343384,0,0,2.570557,0,3.996,0,0,0,0,nan,2,0.106,1,128,0.1000061,0.1000061,0.1000061,0.1000061,0,0,0,1,2,0.5555556
1577.632,0.001006,0.07421875,0.05078125,0.04492188,0.6875,-0.28125,10.29688,0,0.0078125,-0.00390625,0.1289062,0.03125,0,0.01745605,-0.02026367,-2.343384,0,0,2.570557,0,3.996,0,0,0,0,nan,2,0.116,1,128,0.1000061,0.1000061,0.1000061,0.1000061,0,0,0,1,2,0
1577.642,0.001011,-0.03320312,-0.09570312,0.001953125,-1.796875,-0.171875,9.570312,0.005859375,-0.01367188,0.01171875,0.1289062,0.03125,0,0.01745605,-0.0201416,-2.343384,0,0,2.570557,0,3.996,0,0,0,0,nan,2,0.126,1,128,0.1000061,0.1000061,0.1000061,0.1000061,0,0,0,1,2,0.5873016
1577.653,0.00101,-0.0234375,0.07421875,-0.03515625,3.453125,-0.3515625,9.578125,-0.015625,-0.001953125,-0.01171875,0.1289062,0.03125,0,0.01745605,-0.0201416,-2.343384,0,0,2.570557,0,3.996,0,0,0,0,nan,2,0.136,1,128,0.1000061,0.1000061,0.1000061,0.1000061,0,0,0,1,2,0.1587302
1577.663,0.00101,0.03320312,-0.0078125,0.03125,-3.640625,0.90625,10.38281,0.009765625,0.0234375,0.001953125,0.1289062,0.03125,0,0.01745605,-0.02001953,-2.343384,0,0,2.570557,0,3.996,0,0,0,0,nan,2,0.146,1,128,0.1000061,0.1000061,0.1000061,0.1000061,0,0,0,1,2,0
1577.673,0.00101,0.01171875,-0.01367188,0.005859375,3.007812,-1.398438,8.742188,-0.00390625,-0.0234375,0.0078125,0.1289062,0.03125,0,0.01745605,-0.0201416,-2.343384,0,0,2.570557,0,3.996,0,0,0,0,nan,2,0.157,1,128,0.1000061,0.1000061,0.1000061,0.1000061,0,0,0,1,2,0.03174603
1577.683,0.00101,-0.05273438,0.04492188,-0.05273438,-1.328125,0.2421875,12.02344,0.00390625,0.03125,-0.01171875,0.1289062,0.03125,0,0.01745605,-0.02001953,-2.343384,0,0,2.570557,0,3.996,0,0,0,0,nan,2,0.167,1,128,0.1000061,0.1000061,0.1000061,0.1000061,0,0,0,1,2,0
1577.693,0.00101,0.0234375,-0.0625,0.04882812,0.765625,0.8203125,8.046875,-0.01953125,-0.02148438,0,0.1289062,0.03125,0,0.01733398,-0.02001953,-2.343384,0,0,2.570557,0,3.996,0,0,0,0,nan,2,0.177,1,128,0.1000061,0.1000061,0.1000061,0.1000061,0,0,0,1,2,0
1577.702,0.00101,0.02148438,0.04492188,-0.015625,-1.21875,-2.398438,10.99219,0.0234375,0.01171875,0.01171875,0.1289062,0.03125,0,0.01733398,-0.02001953,-2.343384,0,0,2.570557,0,3.996,0,0,0,0,nan,2,0.186,1,128,0.1000061,0.1000061,0.1000061,0.1000061,0,0,0,1,2,0
1577.712,0.001017,-0.0859375,-0.01757812,-0.046875,1.8125,2.726562,9.03125,-0.03320312,-0.00390625,-0.0234375,0.1289062,0.03125,0,0.01721191,-0.02001953,-2.343384,0,0,2.570557,0,3.996,0,0,0,0,nan,2,0.196,1,128,0.1000061,0.1000061,0.1000061,0.1000061,0,0,0,1,2,0.4126984
1577.722,0.001043,0.125,0.02148438,0.078125,-2.117188,-1.875,10.39844,0.02539062,0.01171875,0.01953125,0.1289062,0.03125,0,0.01721191,-0.01989746,-2.343384,0,0,2.570557,0,3.996,0,0,0,0,nan,2,0.206,1,128,0.1000061,0.1000061,0.1000061,0.1000061,0,0,0,1,2,0
1577.732,0.001008,-0.125,-0.03710938,-0.08398438,2.0625,1.039062,8.960938,-0.01953125,-0.01367188,-0.005859375,0.1289062,0.03125,0,0.01708984,-0.01989746,-2.343384,0,0,2.570557,0,3.996,0,0,0,0,nan,2,0.216,1,128,0.1000061,0.1000061,0.1000061,0.1000061,0,0,0,1,2,0
1577.742,0.001009,0.07226562,0.05273438,0.046875,-1.03125,0.2421875,10.84375,0.001953125,0.01953125,-0.005859375,0.1289062,0.03125,0,0.01708984,-0.01977539,-2.343384,0,0,2.570557,0,3.996,0,0,0,0,nan,2,0.226,1,128,0.1000061,0.1000061,0.1000061,0.1000061,0,0,0,1,2,0
1577.753,0.001039,-0.03125,-0.08984375,-0.001953125,0.0546875,0.1796875,8.460938,-0.0078125,-0.02148438,0.01171875,0.1289062,0.03125,0,0.01708984,-0.01977539,-2.343384,0,0,2.570557,0,3.996,0,0,0,0,nan,2,0.236,1,128,0.1000061,0.1000061,0.1000061,0.1000061,0,0,0,1,2,0
1577.763,0.0009869999,0.03710938,0.0859375,-0.03125,0.859375,-0.1484375,11.25,0.01171875,0.009765625,-0.01171875,0.1289062,0.03125,0,0.01696777,-0.01977539,-2.343384,0,0,-2.343384,0,3.996,0,0,0,0,nan,2,0.246,0,0,0,0,0,0,0,0,0,1,2,0
1577.773,0.001011,-0.07226562,-0.05273438,0.001953125,-1.242188,1.476562,8.335938,-0.02148438,0.00390625,0,0.1289062,0.03125,0,0.01696777,-0.01977539,-2.343384,0,0,-2.343384,0,3.996,0,0,0,0,nan,2,0.257,0,0,0,0,0,0,0,0,0,1,2,0
1577.783,0.001047,0.09570312,-0.02148438,0.03125,-0.046875,-0.96875,11.83594,0.01367188,-0.01757812,0.00390625,0.1289062,0.03125,0,0.0168457,-0.01977539,-2.343506,0,0,-2.343506,0,3.996,0,0,0,0,nan,2,0.004,0,0,0,0,0,0,0,0,0,1,2,0
1577.793,0.001003,-0.04296875,0.046875,-0.0078125,0.7265625,-1.023438,7.054688,0.005859375,0.0078125,0.01367188,0.1289062,0.03125,0,0.0168457,-0.01977539,-2.343384,0,0,-2.343384,0,3.996,0,0,0,0,nan,2,0.014,0,0,0,0,0,0,0,0,0,1,2,0
1577.802,0.001017,-0.05078125,-0.00390625,-0.09765625,-0.046875,1.507812,11.88281,-0.0234375,0.005859375,-0.02539062,0.1289062,0.03125,0,0.0168457,-0.01977539,-2.343384,0,0,-2.343384,0,3.996,0,0,0,0,nan,2,0.023,0,0,0,0,0,0,0,0,0,1,2,0
1577.812,0.00101,0.0390625,-0.009765625,0.07617188,-0.59375,0.1015625,9.828125,0,0,-0.009765625,0.1289062,0.03125,0,0.01672363,-0.01965332,-2.343506,0,0,-2.343506,0,3.996,0,0,0,0,nan,2,0.033,0,0,0,0,0,0,0,0,0,1,2,1
1577.822,0.00101,0.01367188,-0.005859375,0.1015625,-0.015625,-1.476562,7.453125,0.0078125,-0.00390625,0.03710938,0.1289062,0.03125,0,0.01672363,-0.01965332,-2.343384,0,0,-2.343384,0,3.996,0,0,0,0,nan,2,0.043,0,0,0,0,0,0,0,0,0,1,2,0
1577.832,0.000989,0,-0.01757812,-0.0703125,-0.1328125,-0.203125,11.8125,0.001953125,-0.005859375,0.01367188,0.1289062,0.03125,0,0.01672363,-0.01965332,-2.343384,0,0,-2.343384,0,3.996,0,0,0,0,nan,2,0.054,0,0,0,0,0,0,0,0,0,1,2,0
1577.843,0.001014,0.001953125,0.005859375,-0.1074219,-0.0234375,-0.21875,9.78125,0.00390625,-0.0078125,-0.02539062,0.1289062,0.03125,0,0.01660156,-0.01965332,-2.343384,0,0,-2.343384,0,3.996,0,0,0,0,nan,2,0.064,0,0,0,0,0,0,0,0,0,1,2,1
1577.853,0.001004,-0.001953125,0.01757812,0,1.210938,-0.1171875,8.21875,0.005859375,0,-0.01953125,0.1289062,0.03125,0,0.01660156,-0.01953125,-2.343384,0,0,-2.343384,0,3.996,0,0,0,0,nan,2,0.074,0,0,0,0,0,0,0,0,0,1,2,0
1577.863,0.00103,-0.03320312,0.0546875,0.04492188,0.59375,0.1640625,10.27344,-0.005859375,0.01367188,0.005859375,0.1289062,0.03125,0,0.01660156,-0.01953125,-2.343384,0,0,-2.343384,0,3.996,0,0,0,0,nan,2,0.084,0,0,0,0,0,0,0,0,0,1,2,1
1577.873,0.001026,-0.02734375,0.03125,-0.005859375,0.8359375,0.640625,9.882812,-0.0078125,0.015625,0.0078125,0.1289062,0.03125,0,0.01647949,-0.01940918,-2.343384,0,0,-2.343384,0,3.996,0,0,0,0,nan,2,0.094,0,0,0,0,0,0,0,0,0,1,2,1
1577.883,0.00101,-0.02734375,0.0078125,-0.07421875,-0.1640625,0.453125,10.34375,-0.0078125,0.01171875,-0.01171875,0.1289062,0.03125,0,0.01635742,-0.01928711,-2.343384,0,0,-2.343384,0,3.996,0,0,0,0,nan,2,0.104,0,0,0,0,0,0,0,0,0,1,2,1
1577.892,0.001057,-0.02148438,0.01367188,-0.1035156,0.0078125,-0.21875,10.5,-0.00390625,0.009765625,-0.015625,0.1289062,0.03125,0,0.01635742,-0.01916504,-2.343384,0,0,-2.343384,0,3.996,0,0,0,0,nan,2,0.113,0,0,0,0,0,0,0,0,0,1,2,1
1577.902,0.00101,0.001953125,-0.001953125,-0.07617188,-0.03125,0.859375,10.22656,0,0.005859375,-0.04882812,0.1289062,0.03125,0,0.01623535,-0.01904297,-2.343506,0,0,-2.343506,0,3.996,0,0,0,0,nan,2,0.123,0,0,0,0,0,0,0,0,0,1,2,1
1577.912,0.00101,-0.015625,0.01953125,-0.04296875,0.640625,0.6640625,10.67188,0.001953125,0.005859375,-0.046875,0.1289062,0.03125,0,0.01623535,-0.01904297,-2.343506,0,0,-2.343506,0,3.996,0,0,0,0,nan,2,0.133,0,0,0,0,0,0,0,0,0,1,2,1
1577.922,0.001016,-0.04882812,0.04296875,-0.01367188,1.195312,0.421875,10.19531,0,0.009765625,-0.03710938,0.1289062,0.03125,0,0.01611328,-0.0189209,-2.343628,0,0,-2.343628,0,3.996,0,0,0,0,nan,2,0.143,0,0,0,0,0,0,0,0,0,1,2,1
1577.932,0.001014,-0.06445312,0.04492188,-0.005859375,1.390625,0.2265625,10.1875,-0.005859375,0.01171875,-0.03125,0.1289062,0.03125,0,0.01599121,-0.01879883,-2.343506,0,0,-2.343506,0,3.996,0,0,0,0,nan,2,0.153,0,0,0,0,0,0,0,0,0,1,2,1
1577.942,0.001005,-0.05273438,0.03710938,-0.0078125,1.070312,0.8984375,9.929688,-0.005859375,0.009765625,-0.02148438,0.1289062,0.03125,0,0.01599121,-0.01867676,-2.343506,0,0,-2.343506,0,3.996,0,0,0,0,nan,2,0.164,0,0,0,0,0,0,0,0,0,1,2,1
1577.952,0.00101,-0.02929688,0.01367188,-0.01171875,0.8125,0.1640625,9.640625,-0.005859375,0.005859375,-0.015625,0.1289062,0.03125,0,0.01586914,-0.01867676,-2.343506,0,0,-2.343506,0,3.996,0,0,0,0,nan,2,0.174,0,0,0,0,0,0,0,0,0,1,2,1
1577.963,0.00101,-0.0078125,0.009765625,-0.0078125,0.2734375,0.2578125,9.820312,-0.00390625,0.001953125,-0.005859375,0.1289062,0.03125,0,0.01586914,-0.01855469,-2.343506,0,0,-2.343506,0,3.996,0,0,0,0,nan,2,0.184,0,0,0,0,0,0,0,0,0,1,2,1
1577.973,0.00101,0.001953125,0.005859375,-0.005859375,-0.0546875,-0.1875,10.09375,-0.00390625,0,-0.005859375,0.1289062,0.03125,0,0.01574707,-0.01843262,-2.343506,0,0,-2.343506,0,3.996,0,0,0,0,nan,2,0.194,0,0,0,0,0,0,0,0,0,1,2,1
1577.983,0.000983,0.01171875,-0.00390625,-0.0078125,-0.1953125,0.5625,10.29688,-0.001953125,0.001953125,-0.005859375,0.1289062,0.03125,0,0.015625,-0.01843262,-2.343506,0,0,-2.343506,0,3.996,0,0,0,0,nan,2,0.204,0,0,0,0,0,0,0,0,0,1,2,1
1577.992,0.001039,0.005859375,-0.005859375,-0.02539062,0.7109375,0.078125,9.960938,-0.001953125,0.0078125,-0.0078125,0.1289062,0.03125,0,0.015625,-0.01831055,-2.343506,0,0,-2.343506,0,3.996,0,0,0,0,nan,2,0.004,0,0,0,0,0,0,0,0,0,1,2,1
1578.002,0.00101,-0.005859375,0.01757812,-0.04101562,0.3984375,-0.671875,10.32031,0,0.009765625,-0.01367188,0.1289062,0.03125,0,0.01550293,-0.01818848,-2.343506,0,0,-2.343506,0,3.996,0,0,0,0,nan,2,0.014,0,0,0,0,0,0,0,0,0,1,2,1
1578.012,0.00101,0.009765625,0.02734375,-0.03320312,0.5,-0.5859375,9.960938,0.009765625,0.005859375,0.001953125,0.1289062,0.03125,0,0.01550293,-0.01806641,-2.343506,0,0,-2.343506,0,3.996,0,0,0,0,nan,2,0.024,0,0,0,0,0,0,0,0,0,1,2,1
1578.022,0.001015,0.01757812,-0.001953125,0.01953125,-0.6953125,0,9.5625,0.001953125,-0.0078125,0.01367188,0.1289062,0.03125,0,0.01538086,-0.01806641,-2.343506,0,0,-2.343506,0,3.996,0,0,0,0,nan,2,0.034,0,0,0,0,0,0,0,0,0,1,2,1
1578.032,0.001027,-0.00390625,-0.01367188,0.03125,-0.59375,1.054688,9.59375,-0.009765625,-0.0078125,0,0.1289062,0.03125,0,0.01525879,-0.01794434,-2.343628,0,0,-2.343628,0,3.996,0,0,0,0,nan,2,0.044,0,0,0,0,0,0,0,0,0,1,2,1
1578.042,0.000995,-0.02148438,-0.01367188,-0.015625,0.109375,0.5625,9.882812,-0.009765625,0.00390625,-0.01757812,0.1289062,0.03125,0,0.01513672,-0.01782227,-2.343628,0,0,-2.343628,0,3.996,0,0,0,0,nan,2,0.055,0,0,0,0,0,0,0,0,0,1,2,1
1578.052,0.000956,-0.01171875,0.01757812,-0.04296875,0.4765625,-0.6640625,9.742188,0.00390625,0.005859375,-0.0078125,0.1289062,0.03125,0,0.01513672,-0.0177002,-2.343506,0,0,-2.343506,0,3.996,0,0,0,0,nan,2,0.065,0,0,0,0,0,0,0,0,0,1,2,1
1578.063,0.000958,0.0078125,0,0.01171875,0.0703125,-0.4453125,9.578125,0.001953125,0.001953125,0.01757812,0.1289062,0.03125,0,0.01501465,-0.0177002,-2.343628,0,0,-2.343628,0,3.996,0,0,0,0,nan,2,0.075,0,0,0,0,0,0,0,0,0,1,2,1
1578.073,0.001026,-0.0078125,0.001953125,0.02539062,0.015625,0.0703125,9.726562,-0.005859375,0,0.00390625,0.1289062,0.03125,0,0.01489258,-0.01757812,-2.343628,0,0,-2.343628,0,3.996,0,0,0,0,nan,2,0.085,0,0,0,0,0,0,0,0,0,1,2,1
1578.083,0.001022,-0.01367188,0.015625,-0.01171875,-0.1953125,0.140625,10.05469,-0.00390625,0.00390625,-0.009765625,0.1289062,0.03125,0,0.01489258,-0.01745605,-2.343628,0,0,-2.343628,0,3.996,0,0,0,0,nan,2,0.095,0,0,0,0,0,0,0,0,0,1,2,1
1578.092,0.00102,0.009765625,-0.01757812,-0.0078125,-0.40625,-0.2578125,9.8125,0.00390625,-0.005859375,0.00390625,0.1289062,0.03125,0,0.01477051,-0.01745605,-2.343628,0,0,-2.343628,0,3.996,0,0,0,0,nan,2,0.104,0,0,0,0,0,0,0,0,0,1,2,1
1578.103,0.001008,0.01171875,-0.009765625,-0.00390625,0.0234375,0.765625,9.992188,-0.00390625,0.001953125,0,0.1289062,0.03125,0,0.01477051,-0.01733398,-2.343628,0,0,-2.343628,0,3.996,0,0,0,0,nan,2,0.115,0,0,0,0,0,0,0,0,0,1,2,1
1578.112,0.001012,-0.009765625,0.0390625,0,0.578125,-0.1875,9.96875,0,0.015625,0.001953125,0.1289062,0.03125,0,0.01464844,-0.01721191,-2.343628,0,0,-2.343628,0,3.996,0,0,0,0,nan,2,0.124,0,0,0,0,0,0,0,0,0,1,2,1
1578.122,0.001016,0.00390625,0,0.02148438,-0.75,-0.171875,9.734375,0.001953125,-0.01171875,0.00390625,0.1289062,0.03125,0,0.01464844,-0.01721191,-2.343628,0,0,-2.343628,0,3.996,0,0,0,0,nan,2,0.134,0,0,0,0,0,0,0,0,0,1,2,1
1578.132,0.001046,-0.009765625,-0.02148438,-0.03710938,0.078125,0.234375,9.929688,-0.00390625,0,-0.01953125,0.1289062,0.03125,0,0.01452637,-0.01708984,-2.343628,0,0,-2.343628,0,3.996,0,0,0,0,nan,2,0.144,0,0,0,0,0,0,0,0,0,1,2,1
1578.142,0.001009,0.005859375,0.01953125,0.00390625,0.359375,0.078125,9.960938,0.00390625,0.009765625,0.01757812,0.1289062,0.03125,0,0.01452637,-0.01696777,-2.343506,0,0,-2.343506,0,3.996,0,0,0,0,nan,2,0.155,0,0,0,0,0,0,0,0,0,1,2,1
1578.152,0.001011,0.00390625,-0.0078125,0.04882812,-0.4921875,0.1953125,9.710938,-0.00390625,-0.009765625,0.00390625,0.1289062,0.03125,0,0.0144043,-0.01696777,-2.343628,0,0,-2.343628,0,4.077,0,0,0,0,nan,2,0.165,0,0,0,0,0,0,0,0,0,1,2,1
1578.163,0.00101,0,-0.001953125,-0.06640625,0.4765625,-0.203125,9.859375,0.001953125,0.0078125,-0.03125,0.1289062,0.03125,0,0.0144043,-0.01672363,-2.343628,0,0,-2.343628,0,4.077,0,0,0,0,nan,2,0.175,0,0,0,0,0,0,0,0,0,1,2,1
1578.173,0.00101,0.0234375,0.005859375,0.03125,-0.1171875,0.203125,9.726562,0.001953125,0,0.03515625,0.1289062,0.03125,0,0.01428223,-0.01672363,-2.343506,0,0,-2.343506,0,4.077,0,0,0,0,nan,2,0.185,0,0,0,0,0,0,0,0,0,1,2,1
1578.183,0.00101,-0.01757812,-0.01757812,0.0234375,0.125,0.6015625,9.765625,-0.0078125,-0.00390625,-0.01757812,0.1289062,0.03125,0,0.01428223,-0.01660156,-2.34375,0,0,-2.34375,0,4.077,0,0,0,0,nan,2,0.195,0,0,0,0,0,0,0,0,0,1,2,1
1578.193,0.00101,0.02929688,0.0234375,-0.06445312,0.1328125,-0.140625,10.19531,0.01171875,0.005859375,-0.009765625,0.1289062,0.03125,0,0.01416016,-0.01647949,-2.343506,0,0,-2.343506,0,4.077,0,0,0,0,nan,2,0.205,0,0,0,0,0,0,0,0,0,1,2,1
1578.203,0.00101,0,-0.0078125,0.05664062,0.2578125,0.390625,9.828125,-0.01171875,-0.001953125,0.0234375,0.1289062,0.03125,0,0.01403809,-0.01647949,-2.343628,0,0,-2.343628,0,4.077,0,0,0,0,nan,2,0.215,0,0,0,0,0,0,0,0,0,1,2,1
1578.212,0.00101,0.00390625,0.01757812,-0.04101562,-0.1875,-0.3984375,10.04688,0.009765625,0.005859375,-0.03125,0.1289062,0.03125,0,0.01416016,-0.01635742,-2.343628,0,0,-2.343628,0,4.077,0,0,0,0,nan,2,0.224,0,0,0,0,0,0,0,0,0,1,2,1
1578.222,0.000983,0.005859375,-0.01953125,0.0078125,-0.015625,0.7578125,9.609375,-0.005859375,-0.00390625,0.0234375,0.1289062,0.03125,0,0.01403809,-0.01623535,-2.343628,0,0,-2.343628,0,4.077,0,0,0,0,nan,2,0.234,0,0,0,0,0,0,0,0,0,1,2,1
1578.232,0.0009869999,-0.02148438,0.02148438,0.015625,0.46875,-0.265625,9.765625,0,0.009765625,-0.009765625,0.1289062,0.03125,0,0.01403809,-0.01611328,-2.34375,0,0,-2.34375,0,4.077,0,0,0,0,nan,2,0,0,0,0,0,0,0,0,0,0,1,2,1
1578.242,0.001025,0.0234375,0,-0.02734375,-0.3828125,0.71875,10.08594,0,-0.005859375,-0.001953125,0.1289062,0.03125,0,0.01391602,-0.01611328,-2.343628,0,0,-2.343628,0,4.077,0,0,0,0,nan,2,0.01,0,0,0,0,0,0,0,0,0,1,2,1
1578.252,0.001007,-0.01757812,0.01171875,0.02148438,0.3125,-0.09375,9.84375,-0.00390625,0.005859375,0.009765625,0.1289062,0.03125,0,0.01379395,-0.01599121,-2.343628,0,0,-2.343628,0,4.077,0,0,0,0,nan,2,0.02,0,0,0,0,0,0,0,0,0,1,2,1
1578.263,0.00101,0.009765625,-0.02734375,-0.01367188,0.0546875,0.125,9.5625,0.001953125,-0.01171875,-0.01171875,0.1289062,0.03125,0,0.01379395,-0.01599121,-2.343628,0,0,-2.343628,0,4.077,0,0,0,0,nan,2,0.03,0,0,0,0,0,0,0,0,0,1,2,1
1578.273,0.00101,-0.01171875,0.02539062,0.0078125,0.1640625,0.234375,10.21094,-0.00390625,0.015625,0.01171875,0.1289062,0.03125,0,0.01367188,-0.01574707,-2.343628,0,0,-2.343628,0,4.077,0,0,0,0,nan,2,0.04,0,0,0,0,0,0,0,0,0,1,2,1
1578.283,0.00101,0.001953125,-0.03515625,0,-0.1484375,0.21875,9.414062,0,-0.01367188,-0.009765625,0.1289062,0.03125,0,0.01367188,-0.01586914,-2.343628,0,0,-2.343628,0,4.077,0,0,0,0,nan,2,0.05,0,0,0,0,0,0,0,0,0,1,2,1
1578.293,0.00101,-0.001953125,0.02929688,-0.001953125,0.640625,-0.296875,9.6875,0.001953125,0.01757812,0.009765625,0.1289062,0.03125,0,0.0135498,-0.015625,-2.343628,0,0,-2.343628,0,4.077,0,0,0,0,nan,2,0.061,0,0,0,0,0,0,0,0,0,1,2,1
1578.302,0.00101,-0.009765625,-0.0234375,-0.001953125,-0.328125,0.5078125,10.07031,-0.0078125,-0.009765625,-0.009765625,0.1289062,0.03125,0,0.0135498,-0.015625,-2.343628,0,0,-2.343628,0,4.077,0,0,0,0,nan,2,0.07,0,0,0,0,0,0,0,0,0,1,2,1
1578.312,0.00101,0.0078125,0.01367188,0,0.7109375,-0.59375,9.195312,0.009765625,0.015625,0.0078125,0.1289062,0.03125,0,0.0135498,-0.01550293,-2.343628,0,0,-2.343628,0,4.077,0,0,0,0,nan,2,0.08,0,0,0,0,0,0,0,0,0,1,2,1
1578.322,0.001013,-0.015625,-0.03320312,-0.01171875,-0.09375,0.171875,10.08594,-0.009765625,-0.01367188,-0.01171875,0.1289062,0.03125,0,0.01342773,-0.01550293,-2.343628,0,0,-2.343628,0,4.077,0,0,0,0,nan,2,0.09,0,0,0,0,0,0,0,0,0,1,2,1
1578.332,0.001005,0.01953125,0.04296875,0.009765625,0.265625,-0.484375,9.820312,0.009765625,0.015625,0.009765625,0.1289062,0.03125,0,0.01342773,-0.01525879,-2.343628,0,0,-2.343628,0,4.077,0,0,0,0,nan,2,0.1,0,0,0,0,0,0,0,0,0,1,2,1
1578.342,0.00101,-0.02929688,-0.0234375,-0.01367188,0.140625,0.2578125,10.11719,-0.01171875,-0.00390625,-0.005859375,0.1289062,0.03125,0,0.01330566,-0.01525879,-2.343628,0,0,-2.343628,0,4.077,0,0,0,0,nan,2,0.11,0,0,0,0,0,0,0,0,0,1,2,1
1578.352,0.001009,0.03125,0.02539062,0.01171875,0.1796875,0.15625,9.703125,0.005859375,0.001953125,0,0.1289062,0.03125,0,0.01318359,-0.01513672,-2.343628,0,0,-2.343628,0,4.077,0,0,0,0,nan,2,0.12,0,0,0,0,0,0,0,0,0,1,2,1
1578.363,0.00101,-0.02734375,-0.01171875,-0.001953125,0.5,-0.3828125,10.01562,-0.00390625,0.005859375,0.01171875,0.1289062,0.03125,0,0.01318359,-0.01501465,-2.343506,0,0,-2.343506,0,4.077,0,0,0,0,nan,2,0.13,0,0,0,0,0,0,0,0,0,1,2,1
1578.373,0.001016,0.01171875,0.01953125,-0.0078125,-0.5234375,0.1015625,10.03125,-0.0078125,-0.005859375,-0.01953125,0.1289062,0.03125,0,0.01306152,-0.01501465,-2.343628,0,0,-2.343628,0,4.077,0,0,0,0,nan,2,0.14,0,0,0,0,0,0,0,0,0,1,2,1
1578.383,0.00101,0.01953125,0.009765625,0.0234375,0.4296875,-0.390625,10.22656,0.01171875,0.009765625,0.02734375,0.1289062,0.03125,0,0.01306152,-0.01489258,-2.343506,0,0,-2.343506,0,4.077,0,0,0,0,nan,2,0.15,0,0,0,0,0,0,0,0,0,1,2,1
1578.393,0.00101,-0.01171875,-0.0078125,-0.03710938,-0.5625,0.609375,9.601562,-0.01367188,-0.009765625,-0.02539062,0.1289062,0.03125,0,0.01293945,-0.01489258,-2.343628,0,0,-2.343628,0,4.077,0,0,0,0,nan,2,0.161,0,0,0,0,0,0,0,0,0,1,2,1
1578.403,0.00101,0.001953125,-0.009765625,0.0390625,0.6328125,-0.5390625,9.898438,0.0078125,0.00390625,0.01757812,0.1289062,0.03125,0,0.01293945,-0.01477051,-2.343628,0,0,-2.343628,0,4.077,0,0,0,0,nan,2,0.171,0,0,0,0,0,0,0,0,0,1,2,1
1578.412,0.001009,-0.0078125,0.00390625,-0.02734375,-0.7265625,0.34375,10.0625,-0.00390625,-0.00390625,-0.005859375,0.1289062,0.03125,0,0.01281738,-0.01477051,-2.343506,0,0,-2.343506,0,4.077,0,0,0,0,nan,2,0.18,0,0,0,0,0,0,0,0,0,1,2,1
1578.422,0.000993,-0.001953125,-0.009765625,0.01171875,0.640625,0.140625,9.328125,-0.00390625,0.00390625,-0.001953125,0.1289062,0.03125,0,0.01269531,-0.01464844,-2.343628,0,0,-2.343628,0,4.077,0,0,0,0,nan,2,0.007,0,0,0,0,0,0,0,0,0,1,2,1
1578.432,0.001014,0.0078125,0.015625,-0.015625,-0.78125,0.140625,10.48438,0.00390625,-0.00390625,0.005859375,0.1289062,0.03125,0,0.01269531,-0.01464844,-2.343506,0,0,-2.343506,0,4.077,0,0,0,0,nan,2,0.017,0,0,0,0,0,0,0,0,0,1,2,1
1578.442,0.000997,-0.015625,0.001953125,0.01171875,0.0234375,0.1171875,9.734375,-0.009765625,0.00390625,-0.005859375,0.1289062,0.03125,0,0.01257324,-0.01452637,-2.343628,0,0,-2.343628,0,4.077,0,0,0,0,nan,2,0.027,0,0,0,0,0,0,0,0,0,1,2,1
1578.452,0.001011,-0.001953125,-0.0078125,-0.005859375,0.3046875,-0.421875,9.75,0,-0.001953125,0.01171875,0.1289062,0.03125,0,0.01257324,-0.0144043,-2.343506,0,0,-2.343506,0,4.077,0,0,0,0,nan,2,0.037,0,0,0,0,0,0,0,0,0,1,2,1
1578.463,0.00101,-0.00390625,0.005859375,-0.01367188,-0.5078125,0.0703125,10.07812,0,-0.005859375,-0.0234375,0.1289062,0.03125,0,0.01257324,-0.0144043,-2.34375,0,0,-2.34375,0,4.077,0,0,0,0,nan,2,0.047,0,0,0,0,0,0,0,0,0,1,2,1
1578.473,0.00101,0.0078125,0.001953125,0.0390625,0.3125,0.21875,9.648438,-0.001953125,0.005859375,0.03125,0.1289062,0.03125,0,0.01245117,-0.01428223,-2.343628,0,0,-2.343628,0,4.077,0,0,0,0,nan,2,0.058,0,0,0,0,0,0,0,0,0,1,2,1
1578.483,0.00101,0.005859375,-0.0078125,-0.0546875,-0.0625,-0.125,10.02344,0.00390625,-0.001953125,-0.02539062,0.1289062,0.03125,0,0.01245117,-0.01428223,-2.343506,0,0,-2.343506,0,4.077,0,0,0,0,nan,2,0.068,0,0,0,0,0,0,0,0,0,1,2,1
1578.493,0.00101,-0.009765625,-0.00390625,0.01953125,0.0390625,0.09375,9.539062,-0.0078125,-0.00390625,-0.005859375,0.1289062,0.03125,0,0.0123291,-0.01416016,-2.34375,0,0,-2.34375,0,4.077,0,0,0,0,nan,2,0.078,0,0,0,0,0,0,0,0,0,1,2,1
1578.503,0.001004,0.005859375,0.01171875,0.02148438,0.3125,-0.0625,10.0625,0.005859375,0.0078125,0.03125,0.1289062,0.03125,0,0.0123291,-0.01403809,-2.343506,0,0,-2.343506,0,4.077,0,0,0,0,nan,2,0.088,0,0,0,0,0,0,0,0,0,1,2,1
1578.512,0.00101,-0.0078125,-0.005859375,-0.046875,-0.09375,0.0234375,9.648438,-0.001953125,-0.0078125,-0.02734375,0.1289062,0.03125,0,0.01220703,-0.01403809,-2.343506,0,0,-2.343506,0,4.077,0,0,0,0,nan,2,0.097,0,0,0,0,0,0,0,0,0,1,2,1
1578.522,0.001013,0.001953125,0.0078125,0.015625,0.1640625,0.234375,9.804688,-0.001953125,0.001953125,-0.005859375,0.1289062,0.03125,0,0.01220703,-0.01391602,-2.34375,0,0,-2.34375,0,4.077,0,0,0,0,nan,2,0.107,0,0,0,0,0,0,0,0,0,1,2,1
1578.532,0.001014,0.009765625,-0.00390625,0.01757812,-0.046875,0.1796875,9.929688,0,0,0.02539062,0.1289062,0.03125,0,0.01220703,-0.01391602,-2.343628,0,0,-2.343628,0,4.077,0,0,0,0,nan,2,0.117,0,0,0,0,0,0,0,0,0,1,2,1
1578.542,0.00096,0.01171875,0.005859375,-0.01953125,-0.265625,0.6640625,10.14062,0.001953125,0.001953125,-0.01171875,0.1289062,0.03125,0,0.01208496,-0.01379395,-2.343506,0,0,-2.343506,0,4.077,0,0,0,0,nan,2,0.127,0,0,0,0,0,0,0,0,0,1,2,1
1578.553,0.001116,-0.005859375,-0.00390625,-0.0078125,-0.4296875,-0.0625,9.773438,-0.00390625,0,-0.01171875,0.1289062,0.03125,0,0.01208496,-0.01379395,-2.343628,0,0,-2.343628,0,4.077,0,0,0,0,nan,2,0.136,0,0,0,0,0,0,0,0,0,1,2,1
1578.563,0.000968,0,0.01953125,0.015625,-0.4140625,-0.1484375,10.0625,0,0,0.01171875,0.1289062,0.03125,0,0.01196289,-0.01367188,-2.343628,0,0,-2.343628,0,4.077,0,0,0,0,nan,2,0.147,0,0,0,0,0,0,0,0,0,1,2,1
1578.573,0.001225,0.0078125,0.01171875,-0.001953125,0.0703125,0.359375,10,0,0.00390625,0.0078125,0.1289062,0.03125,0,0.01196289,-0.0135498,-2.343506,0,0,-2.343506,0,4.077,0,0,0,0,nan,2,0.157,0,0,0,0,0,0,0,0,0,1,2,1
1578.582,0.001269,-0.001953125,-0.005859375,-0.01953125,-0.265625,0.0390625,9.742188,0,0.00390625,-0.01757812,0.1289062,0.03125,0,0.01196289,-0.01342773,-2.343628,0,0,-2.343628,0,4.077,0,0,0,0,nan,2,0.167,0,0,0,0,0,0,0,0,0,1,2,1
1578.593,0.001782,0,0.0078125,0.01367188,-0.1796875,0.2265625,9.953125,0,0,0,0.1289062,0.03125,0,0.01196289,-0.01330566,-2.34375,0,0,-2.34375,0,4.077,0,0,0,0,nan,2,0.178,0,0,0,0,0,0,0,0,0,1,2,1
1578.654,0.053596,0.00390625,0.00390625,-0.005859375,-0.0703125,0.046875,10.11719,0.00390625,0.00390625,-0.005859375,0.1289062,0.03125,0,0.01208496,-0.01306152,-2.343994,0,0,-2.343994,0,4.077,0,0,0,0,nan,2,0.239,0,0,0,0,0,0,0,0,0,1,2,1
1578.663,0.001841,-0.00390625,-0.0078125,0,0.0703125,0.03125,9.875,0,0,-0.001953125,0.1289062,0.03125,0,0.01208496,-0.01293945,-2.343994,0,0,-2.343994,0,4.077,0,0,0,0,nan,2,0.247,0,0,0,0,0,0,0,0,0,1,2,1
1578.673,0.001033,-0.005859375,-0.001953125,0.01171875,-0.3984375,0.0703125,9.835938,-0.001953125,0.001953125,0.005859375,0.1289062,0.03125,0,0.01196289,-0.01293945,-2.343994,0,0,-2.343994,0,4.077,0,0,0,0,nan,2,0.001,0,0,0,0,0,0,0,0,0,1,2,1
1578.683,0.00102,-0.009765625,-0.02734375,-0.005859375,0.2890625,0.1171875,9.179688,-0.001953125,-0.001953125,-0.001953125,0.1289062,0.03125,0,0.01196289,-0.01281738,-2.343994,0,0,-2.343994,0,4.077,0,0,0,0,nan,2,0.011,0,0,0,0,0,0,0,0,0,1,2,1
1578.692,0.001005,-0.001953125,-0.005859375,-0.00390625,0.109375,0,9.578125,0,0,-0.001953125,0.1289062,0.03125,0,0.01184082,-0.01281738,-2.343994,0,0,-2.343994,0,4.077,0,0,0,0,nan,2,0.02,0,0,0,0,0,0,0,0,0,1,2,1
1578.702,0.00101,-0.009765625,-0.01171875,0.00390625,0.078125,-0.109375,9.640625,-0.001953125,0.001953125,0.001953125,0.1289062,0.03125,0,0.01184082,-0.01269531,-2.343994,0,0,-2.343994,0,4.077,0,0,0,0,nan,2,0.03,0,0,0,0,0,0,0,0,0,1,2,1
1578.712,0.001018,-0.00390625,-0.001953125,-0.005859375,-0.1015625,0.0859375,9.921875,-0.001953125,-0.001953125,-0.001953125,0.1289062,0.03125,0,0.01171875,-0.01257324,-2.343994,0,0,-2.343994,0,4.077,0,0,0,0,nan,2,0.04,0,0,0,0,0,0,0,0,0,1,2,1
1578.722,0.001011,-0.001953125,0.005859375,0,0.03125,-0.03125,9.640625,-0.001953125,0.001953125,0,0.1289062,0.03125,0,0.01171875,-0.01257324,-2.343994,0,0,-2.343994,0,4.077,0,0,0,0,nan,2,0.051,0,0,0,0,0,0,0,0,0,1,2,1
1578.732,0.00101,-0.001953125,0.009765625,0.001953125,-0.046875,0,10.00781,-0.00390625,0.001953125,0.001953125,0.1289062,0.03125,0,0.01159668,-0.01245117,-2.343994,0,0,-2.343994,0,4.077,0,0,0,0,nan,2,0.061,0,0,0,0,0,0,0,0,0,1,2,1
1578.742,0.00101,-0.005859375,-0.001953125,0.001953125,0.046875,-0.1171875,9.625,-0.001953125,0.00390625,0,0.1289062,0.03125,0,0.01159668,-0.01245117,-2.343994,0,0,-2.343994,0,4.077,0,0,0,0,nan,2,0.071,0,0,0,0,0,0,0,0,0,1,2,1
1578.753,0.00101,0,0,-0.00390625,-0.03125,0.140625,9.78125,-0.001953125,0,0,0.1289062,0.03125,0,0.01147461,-0.0123291,-2.343994,0,0,-2.343994,0,4.077,0,0,0,0,nan,2,0.081,0,0,0,0,0,0,0,0,0,1,2,1
