t,dt_s,gyro_x,gyro_y,gyro_z,acc_x,acc_y,acc_z,rates.x,rates.y,rates.z,ratesTarget.x,ratesTarget.y,ratesTarget.z,attitude.x,attitude.y,attitude.z,attitudeTarget.x,attitudeTarget.y,attitudeTarget.z,thrustTarget,battery_v,rc_roll,rc_pitch,rc_yaw,rc_throttle,rc_mode,flight_mode,rc_age_s,armed,fault_mask,motor_rl,motor_rr,motor_fr,motor_fl,rate_i_x,rate_i_y,rate_i_z,mix_scale,control_source,accel_correction_confidence
23.942,0.001007,0.09960938,-0.01171875,0.1132812,-6.78125,-5.25,15.76562,0.01757812,-0.01757812,0.09960938,0.01367188,0.01953125,0,-0.002197266,-0.003173828,1.189697,0,0,1.136719,0.356842,3.543,0,0,0,0.3549805,nan,2,0.019,1,128,0.3983154,0.3385925,0.3760986,0.3143921,0.004882812,0.005859375,0,1,2,0
23.952,0.001048,-0.0078125,-0.1738281,0.1660156,-1.585938,-1.648438,4.117188,0.00390625,-0.015625,0.1308594,0.01171875,0.01757812,0,-0.001953125,-0.002807617,1.191162,0,0,1.136719,0.356842,3.543,0,0,0,0.3549805,nan,2,0.029,1,128,0.4200745,0.3286133,0.369751,0.30896,0.004882812,0.005859375,0,1,2,0
23.962,0.001009,-0.001953125,0.1210938,0.1230469,-1.71875,2.007812,7.742188,-0.0234375,0.001953125,0.0859375,0.01171875,0.01757812,0,-0.001953125,-0.003051758,1.192383,0,0,1.136719,0.356842,3.543,0,0,0,0.3549805,nan,2,0.039,1,128,0.3370972,0.382782,0.3083191,0.3991699,0.004882812,0.005859375,0,1,2,0
23.971,0.001011,-0.0078125,-0.015625,0.05859375,1.945312,-0.1796875,15,-0.015625,-0.01757812,0.1152344,0.01367188,0.01953125,0,-0.002197266,-0.003173828,1.193359,0,0,1.136719,0.356842,3.543,0,0,0,0.3549805,nan,2,0.048,1,128,0.4010925,0.3269653,0.3779602,0.3213501,0.004882812,0.005859375,0,1,2,0
23.981,0.001082,0.05078125,-0.4511719,0.15625,6.414062,-3.257812,-11.28906,-0.01367188,-0.1132812,0.1796875,0.01367188,0.02148438,0,-0.002319336,-0.003662109,1.194824,0,0,1.136719,0.3652649,3.543,0,0,0,0.3649902,nan,2,0.006,1,128,0.4989624,0.2840271,0.4376221,0.2404175,0.004882812,0.005859375,0,1,2,0
23.991,0.001009,-0.1230469,-0.05664062,0.140625,0.671875,3.554688,2.25,-0.009765625,0.03320312,0.2050781,0.015625,0.0234375,0,-0.002563477,-0.00378418,1.197021,0,0,1.136719,0.3652649,3.543,0,0,0,0.3649902,nan,2,0.016,1,128,0.3985291,0.3230591,0.395874,0.3435974,0.004882812,0.005859375,0,1,2,0
24.001,0.001005,-0.046875,0.0859375,0.25,-6.257812,12.35156,16.57812,0.015625,0.02539062,0.1972656,0.01171875,0.02148438,0,-0.002075195,-0.003540039,1.198853,0,0,1.136719,0.3652649,3.543,0,0,0,0.3649902,nan,2,0.026,1,128,0.4628296,0.2775269,0.4352417,0.2854614,0.004882812,0.005859375,0,1,2,0
24.011,0.001037,0.02929688,0.2910156,0.1367188,-9.953125,1.460938,21.09375,0.0390625,-0.009765625,0.1738281,0.01171875,0.02148438,0,-0.001953125,-0.003662109,1.20105,0,0,1.136719,0.3652649,3.543,0,0,0,0.3649902,nan,2,0.036,1,128,0.3604736,0.3816833,0.3551636,0.3637085,0.004882812,0.005859375,0,1,2,0
24.021,0.001033,0.04882812,0.1445312,0.1914062,0.0625,-2.578125,16.86719,0,0,0.1914062,0.01171875,0.02148438,0,-0.002075195,-0.003540039,1.202881,0,0,1.136719,0.3736877,3.543,0,0,0,0.375,nan,2,0,1,128,0.4430542,0.3175354,0.4212341,0.3128967,0.004882812,0.005859375,0,1,2,0
24.031,0.001001,0.2324219,0.00390625,0.1191406,6.15625,-7.8125,1.421875,0.04296875,-0.001953125,0.1269531,0.01171875,0.02148438,0,-0.002075195,-0.003540039,1.204346,0,0,1.136719,0.3736877,3.543,0,0,0,0.375,nan,2,0.01,1,128,0.3760071,0.3832397,0.3723755,0.3631287,0.004882812,0.005859375,0,1,2,0.4444444
24.041,0.000975,0.02734375,-0.03320312,0.05664062,0.75,-0.8984375,13.17969,-0.01953125,0.02148438,0.1679688,0.01367188,0.01953125,0,-0.002075195,-0.003295898,1.206055,0,0,1.136719,0.3736877,3.543,0,0,0,0.375,nan,2,0.02,1,128,0.4089966,0.3534241,0.3790894,0.353241,0.004882812,0.005859375,0,1,2,0
24.052,0.00101,-0.03320312,-0.1386719,0.04882812,-1.835938,3.90625,12.57812,-0.03515625,-0.0234375,0.1347656,0.01367188,0.02148438,0,-0.002441406,-0.003540039,1.20752,0,0,1.136719,0.3736877,3.543,0,0,0,0.375,nan,2,0.03,1,128,0.4096985,0.3607788,0.3703003,0.3539734,0.004882812,0.005859375,0,1,2,0
24.062,0.001009,0.09179688,-0.3183594,0.04296875,-0.140625,3.28125,-13.14062,0.04882812,-0.01757812,0.08984375,0.01367188,0.02148438,0,-0.002319336,-0.003540039,1.208496,0,0,1.136719,0.3736877,3.543,0,0,0,0.375,nan,2,0.04,1,128,0.3692322,0.4103394,0.3494263,0.3657532,0.004882812,0.005859375,0,1,2,0
24.071,0.000965,0.02734375,0.3652344,0.140625,-0.84375,-3.578125,11.11719,0.03515625,0.1015625,0.1328125,0.01171875,0.01953125,0,-0.001953125,-0.003417969,1.209473,0,0,1.136719,0.3736877,3.543,0,0,0,0.375,nan,2,0.049,1,128,0.446991,0.266571,0.4773254,0.303833,0.004882812,0.005859375,0,1,2,0
24.081,0.000985,-0.015625,0.08203125,-0.02539062,2.0625,-7.4375,17.99219,-0.015625,-0.04492188,0.07421875,0.01171875,0.01953125,0,-0.001953125,-0.003417969,1.210449,0,0,1.136719,0.3778992,3.543,0,0,0,0.3800049,nan,2,0.003,1,128,0.3585205,0.426178,0.3113098,0.4155579,0.004882812,0.005859375,0,1,2,0
24.091,0.001018,0.1113281,-0.2832031,0.0546875,4.234375,-1.273438,12.67969,-0.015625,-0.06445312,0.06054688,0.015625,0.0234375,0,-0.002441406,-0.00378418,1.21106,0,0,1.136719,0.3778992,3.543,0,0,0,0.3800049,nan,2,0.013,1,128,0.4224548,0.3691101,0.3857727,0.3342285,0.004882812,0.005859375,0,1,2,0
24.101,0.000997,0.01757812,-0.3222656,0.1933594,7.046875,-4.273438,-11.50781,-0.03320312,-0.0625,0.171875,0.01367188,0.0234375,0,-0.002441406,-0.00390625,1.212158,0,0,1.136719,0.3778992,3.543,0,0,0,0.3800049,nan,2,0.023,1,128,0.5892944,0.2097168,0.5197754,0.1928101,0.004882812,0.005859375,0,1,2,0
24.111,0.001021,-0.0078125,-0.2480469,0.1386719,4.40625,-1.34375,11.05469,0.02539062,-0.08984375,0.1601562,0.015625,0.0234375,0,-0.002441406,-0.00402832,1.213745,0,0,1.136719,0.3778992,3.543,0,0,0,0.3800049,nan,2,0.033,1,128,0.4577026,0.3561401,0.3991394,0.298584,0.004882812,0.005859375,0,1,2,0
24.121,0.000993,0.01757812,-0.01367188,0.171875,3.007812,-5.265625,7.78125,0,0.04492188,0.1542969,0.01367188,0.0234375,0,-0.002441406,-0.00390625,1.21521,0,0,1.136719,0.3778992,3.543,0,0,0,0.3800049,nan,2,0.043,1,128,0.453125,0.3021545,0.4359741,0.3203125,0.004882812,0.005859375,0,1,2,0
24.131,0.000998,-0.2382812,0.005859375,0.1464844,-0.9609375,-2.367188,13.09375,-0.08007812,-0.005859375,0.1699219,0.01367188,0.0234375,0,-0.002441406,-0.00390625,1.216919,0,0,1.136719,0.3778992,3.543,0,0,0,0.3800049,nan,2,0.008,1,128,0.4573059,0.3082275,0.3936157,0.3524475,0.004882812,0.005859375,0,1,2,0
24.141,0.001006,-0.001953125,0.3144531,0.171875,-12.61719,6.640625,27.57812,-0.00390625,0.02929688,0.1757812,0.015625,0.02539062,0,-0.002685547,-0.004272461,1.218628,0,0,1.136719,0.3778992,3.543,0,0,0,0.3800049,nan,2,0.018,1,128,0.4305115,0.3095093,0.4411316,0.3304443,0.004882812,0.005859375,0,1,2,0
24.152,0.001045,0.1152344,0.4433594,0.1347656,-10.15625,-0.3984375,12,0.08007812,0.07421875,0.1328125,0.015625,0.02539062,0,-0.002441406,-0.004150391,1.219971,0,0,1.136719,0.3778992,3.543,0,0,0,0.3800049,nan,2,0.028,1,128,0.384552,0.349823,0.4284973,0.3487244,0.004882812,0.005859375,0,1,2,0
24.162,0.000979,0.1679688,-0.0703125,0.125,-0.2421875,1.90625,5.851562,0.1347656,0.00390625,0.09179688,0.009765625,0.02148438,0,-0.001708984,-0.003540039,1.221069,0,0,1.136719,0.3778992,3.543,0,0,0,0.3800049,nan,2,0.038,1,128,0.3954773,0.3926086,0.3911133,0.3323669,0.004882812,0.005859375,0,1,2,0
24.171,0.00101,0.02148438,-0.02539062,0.1425781,-0.0859375,-3.53125,27.10156,-0.05664062,-0.001953125,0.1464844,0.01171875,0.01953125,0,-0.002075195,-0.003295898,1.222168,0,0,1.136719,0.3778992,3.543,0,0,0,0.3800049,nan,2,0.047,1,128,0.4789734,0.3023682,0.4239197,0.3062744,0.004882812,0.005859375,0,1,2,0
24.181,0.000983,-0.001953125,0.2617188,0.06640625,-6.6875,-3.195312,26.33594,-0.0078125,0.03515625,0.1328125,0.01171875,0.02148438,0,-0.002075195,-0.003662109,1.223511,0,0,1.136719,0.3821106,3.543,0,0,0,0.3850098,nan,2,0.008,1,128,0.4117126,0.3381042,0.4125671,0.3660278,0.004882812,0.005859375,0,1,2,0
24.191,0.000957,0.005859375,-0.02148438,0.03515625,-5.757812,-5.71875,8.375,0.01171875,0.005859375,0.078125,0.01367188,0.0234375,0,-0.002319336,-0.00390625,1.224487,0,0,1.136719,0.3821106,3.543,0,0,0,0.3850098,nan,2,0.018,1,128,0.3771362,0.3901672,0.3735657,0.3875427,0.004882812,0.005859375,0,1,2,0
24.201,0.001066,-0.03125,-0.1464844,0.1152344,0.8203125,1.820312,5.28125,0.01757812,-0.015625,0.08984375,0.01171875,0.0234375,0,-0.001953125,-0.00378418,1.22522,0,0,1.136719,0.3821106,3.543,0,0,0,0.3850098,nan,2,0.028,1,128,0.4647217,0.329834,0.4203186,0.3135376,0.004882812,0.005859375,0,1,2,0
24.211,0.001009,0.02148438,-0.2929688,0.0390625,-0.328125,-0.03125,5.28125,-0.03515625,-0.1152344,0.05859375,0.01367188,0.0234375,0,-0.002319336,-0.00402832,1.225952,0,0,1.136719,0.3821106,3.543,0,0,0,0.3850098,nan,2,0.038,1,128,0.4121399,0.4169312,0.3319092,0.3674622,0.004882812,0.006835938,0,1,2,0
24.222,0.001009,-0.001953125,-0.2558594,0.04101562,3.101562,2.445312,13.45312,-0.001953125,-0.046875,0.06835938,0.015625,0.02539062,0,-0.002563477,-0.004272461,1.226685,0,0,1.136719,0.3821106,3.543,0,0,0,0.3850098,nan,2,0.048,1,128,0.4213867,0.3756104,0.3806763,0.3507385,0.004882812,0.006835938,0,1,2,0
24.232,0.001004,0.1542969,-0.3105469,0.09375,3.601562,-1.9375,-5.734375,0.03125,-0.02734375,0.1171875,0.01367188,0.02539062,0,-0.002319336,-0.004150391,1.227661,0,0,1.136719,0.386322,3.543,0,0,0,0.3900146,nan,2,0.003,1,128,0.4714355,0.3347168,0.4374084,0.3016968,0.004882812,0.006835938,0,1,2,0
24.242,0.001004,-0.1503906,-0.1054688,0.1601562,3.53125,-5.320312,4.742188,-0.03515625,0.00390625,0.1347656,0.01367188,0.0234375,0,-0.002319336,-0.00402832,1.228882,0,0,1.136719,0.386322,3.543,0,0,0,0.3900146,nan,2,0.013,1,128,0.4842834,0.3078613,0.4293213,0.323761,0.004882812,0.006835938,0,1,2,0
24.252,0.001068,-0.046875,0.015625,0.2011719,-1.90625,0.4765625,13.42188,-0.009765625,-0.0234375,0.15625,0.01367188,0.02539062,0,-0.002441406,-0.004150391,1.230225,0,0,1.136719,0.386322,3.543,0,0,0,0.3900146,nan,2,0.023,1,128,0.4933167,0.2983398,0.4590149,0.2945862,0.004882812,0.006835938,0,1,2,0
24.262,0.001019,-0.1054688,0.2714844,0.1542969,-7.539062,-2.1875,11.76562,-0.02929688,0.02734375,0.15625,0.015625,0.02539062,0,-0.002685547,-0.004394531,1.231812,0,0,1.136719,0.386322,3.543,0,0,0,0.3900146,nan,2,0.033,1,128,0.4412231,0.3217773,0.4336548,0.3486023,0.004882812,0.006835938,0,1,2,0
24.272,0.00101,-0.0703125,0.4667969,0.1601562,-11.19531,5.539062,23.09375,0.04296875,0.1386719,0.1386719,0.015625,0.0234375,0,-0.002563477,-0.00390625,1.233154,0,0,1.136719,0.386322,3.543,0,0,0,0.3900146,nan,2,0.043,1,128,0.4179077,0.3110657,0.460083,0.3562012,0.004882812,0.006835938,0,1,2,0
24.281,0.001016,0.1933594,-0.1777344,0.1523438,1.234375,-3.789062,17.5,0.02539062,-0.0703125,0.1210938,0.01367188,0.0234375,0,-0.002319336,-0.00390625,1.234253,0,0,1.136719,0.386322,3.543,0,0,0,0.3900146,nan,2,0.005,1,128,0.4516602,0.3768616,0.3940735,0.3226318,0.004882812,0.006835938,0,1,2,0
24.291,0.001009,0.09765625,0.09179688,0.1210938,3.65625,-12.6875,9.523438,-0.02929688,0.00390625,0.1230469,0.015625,0.02539062,0,-0.002563477,-0.004150391,1.235474,0,0,1.136719,0.386322,3.543,0,0,0,0.3900146,nan,2,0.015,1,128,0.4337769,0.3478088,0.4046326,0.3590393,0.004882812,0.006835938,0,1,2,0
24.301,0.000965,0.2050781,-0.046875,0.09375,5.859375,-8.265625,13.04688,0.02148438,0.046875,0.09179688,0.015625,0.0234375,0,-0.002441406,-0.00378418,1.236572,0,0,1.136719,0.386322,3.543,0,0,0,0.3900146,nan,2,0.025,1,128,0.3869629,0.3862,0.3886414,0.3834229,0.004882812,0.006835938,0,1,2,0
24.311,0.001009,-0.03710938,-0.09960938,0.1113281,5.015625,-3.617188,-9.382812,-0.02734375,0.09570312,0.1113281,0.01367188,0.01953125,0,-0.002441406,-0.003173828,1.237549,0,0,1.136719,0.386322,3.543,0,0,0,0.3900146,nan,2,0.035,1,128,0.4548645,0.310791,0.434967,0.3446655,0.004882812,0.006835938,0,1,2,0
24.321,0.000988,0.05273438,-0.2636719,0.1230469,10.82031,2.125,5.875,0.005859375,-0.1035156,0.08398438,0.015625,0.01953125,0,-0.002441406,-0.003295898,1.238403,0,0,1.136719,0.386322,3.543,0,0,0,0.3900146,nan,2,0.045,1,128,0.4478455,0.388855,0.3745117,0.3340454,0.004882812,0.006835938,0,1,2,0
24.332,0.001006,-0.1386719,0.2050781,0.05859375,4.804688,-2.710938,10.34375,-0.0703125,-0.01367188,0.02929688,0.015625,0.02148438,0,-0.002807617,-0.003662109,1.23877,0,0,1.136719,0.3905334,3.461,0,0,0,0.3950195,nan,2,0.007,1,128,0.3956604,0.3876953,0.3521729,0.4266052,0.004882812,0.006835938,0,1,2,0
24.342,0.001006,-0.01367188,0.1308594,0.02929688,-1.203125,-3.4375,17.6875,0.0078125,0.05273438,0.01757812,0.015625,0.01953125,0,-0.002563477,-0.003417969,1.239136,0,0,1.136719,0.3905334,3.461,0,0,0,0.3950195,nan,2,0.017,1,128,0.3677673,0.4058533,0.3573914,0.4310608,0.004882812,0.006835938,0,1,2,0
24.352,0.001045,-0.05664062,0.05078125,0.1074219,-0.5859375,2.1875,25.29688,0.015625,-0.001953125,0.05859375,0.01367188,0.01953125,0,-0.002319336,-0.003417969,1.239502,0,0,1.136719,0.3905334,3.461,0,0,0,0.3950195,nan,2,0.027,1,128,0.4650574,0.3329773,0.4307556,0.333313,0.004882812,0.006835938,0,1,2,0
24.362,0.001052,-0.01171875,0.1601562,0.0859375,-5.875,0.9375,21.58594,-0.07226562,-0.0546875,0.04296875,0.01367188,0.01953125,0,-0.002441406,-0.003173828,1.239868,0,0,1.136719,0.3905334,3.461,0,0,0,0.3950195,nan,2,0.037,1,128,0.4625244,0.3624878,0.3720093,0.3650818,0.004882812,0.006835938,0,1,2,0
24.372,0.001019,0,0.3925781,0.05078125,-5.15625,-4.648438,28.10156,-0.01367188,0.0234375,0.0234375,0.01757812,0.02148438,0,-0.002807617,-0.003662109,1.240356,0,0,1.136719,0.3947449,3.461,0,0,0,0.4000244,nan,2,0,1,128,0.3730164,0.401886,0.3778076,0.426239,0.004882812,0.006835938,0,1,2,0
24.381,0.001011,0.09179688,-0.3378906,-0.001953125,4.664062,-3.695312,11.16406,0.046875,0.015625,0.015625,0.015625,0.01953125,0,-0.002563477,-0.003295898,1.240601,0,0,1.136719,0.3947449,3.461,0,0,0,0.4000244,nan,2,0.009,1,128,0.3851929,0.4248047,0.3710938,0.3978271,0.004882812,0.006835938,0,1,2,0
24.391,0.001009,0.03320312,-0.2421875,0.01171875,5.117188,1.023438,16.96094,0.03710938,-0.02539062,0.04101562,0.01171875,0.01953125,0,-0.001831055,-0.003173828,1.241089,0,0,1.136719,0.3947449,3.461,0,0,0,0.4000244,nan,2,0.019,1,128,0.4237671,0.4041748,0.3715515,0.379425,0.004882812,0.006835938,0,1,2,0
24.401,0.001051,-0.03515625,-0.3066406,0.08203125,0.7890625,-6.625,14.07812,-0.078125,-0.07226562,0.09570312,0.01171875,0.01953125,0,-0.002075195,-0.003173828,1.241821,0,0,1.136719,0.3947449,3.461,0,0,0,0.4000244,nan,2,0.029,1,128,0.5018616,0.3440552,0.402771,0.3302612,0.004882812,0.006835938,0,1,2,0
24.411,0.001009,0.1113281,0.4609375,0.0703125,-10.09375,5.25,27.65625,-0.0078125,0.05664062,0.09765625,0.01757812,0.02148438,0,-0.002929688,-0.003662109,1.24292,0,0,1.136719,0.3947449,3.461,0,0,0,0.4000244,nan,2,0.039,1,128,0.3942566,0.3627014,0.438324,0.383667,0.005859375,0.006835938,0,1,2,0
24.421,0.001014,0.02929688,0.2578125,0.1152344,-8.726562,2.445312,0.921875,0.08984375,0.05273438,0.08203125,0.01171875,0.01757812,0,-0.002075195,-0.002807617,1.243652,0,0,1.136719,0.3947449,3.461,0,0,0,0.4000244,nan,2,0.049,1,128,0.4334106,0.3663635,0.4308472,0.3483276,0.004882812,0.006835938,0,1,2,0
24.431,0.000977,-0.2695312,0.1230469,0.1113281,-5.695312,5.117188,6.085938,-0.08398438,0.01171875,0.1269531,0.01171875,0.015625,0,-0.002075195,-0.002441406,1.244873,0,0,1.136719,0.3989563,3.461,0,0,0,0.4050293,nan,2,0.009,1,128,0.5011902,0.3189392,0.4196472,0.3559875,0.004882812,0.006835938,0,1,2,0.03174603
24.441,0.001008,-0.04101562,-0.1171875,0.1074219,-3.609375,10.32812,8.804688,-0.03320312,-0.1210938,0.07421875,0.015625,0.01757812,0,-0.002685547,-0.003051758,1.245728,0,0,1.136719,0.3989563,3.461,0,0,0,0.4050293,nan,2,0.019,1,128,0.4287109,0.4242554,0.3614807,0.3813477,0.005859375,0.006835938,0,1,2,0
24.452,0.001008,-0.04882812,0.1386719,0.00390625,-5.820312,7.320312,-6.484375,-0.005859375,0.009765625,0.03320312,0.01953125,0.02148438,0,-0.003295898,-0.003540039,1.24646,0,0,1.136719,0.3989563,3.461,0,0,0,0.4050293,nan,2,0.029,1,128,0.3495483,0.4416199,0.3569946,0.4476013,0.005859375,0.006835938,0,1,2,0
24.462,0.001009,0.06835938,0.02929688,0.07226562,-5.242188,11.16406,8.453125,0.0546875,0.01171875,0.04101562,0.015625,0.01953125,0,-0.002685547,-0.003173828,1.246704,0,0,1.136719,0.3989563,3.461,0,0,0,0.4050293,nan,2,0.039,1,128,0.4416504,0.3771973,0.4156189,0.3612976,0.005859375,0.006835938,0,1,2,0
24.472,0.000979,-0.00390625,0.05273438,-0.009765625,-4.640625,4.921875,0.5859375,-0.015625,-0.04492188,0.01171875,0.015625,0.01757812,0,-0.002563477,-0.002929688,1.246826,0,0,1.136719,0.3989563,3.461,0,0,0,0.4050293,nan,2,0.049,1,128,0.4342041,0.4039001,0.3710022,0.3866882,0.005859375,0.006835938,0,1,2,0
24.481,0.0009860001,0.0859375,-0.04296875,0.046875,4.09375,4.554688,-4.414062,-0.06445312,0.01367188,0.02929688,0.01757812,0.01757812,0,-0.003051758,-0.002807617,1.246948,0,0,1.136719,0.4031677,3.461,0,0,0,0.4099731,nan,2,0.004,1,128,0.4564819,0.3673401,0.4128113,0.3760071,0.005859375,0.006835938,0,1,2,0
24.491,0.001009,-0.06445312,0.04882812,0.046875,1,2.328125,-10.11719,-0.005859375,0.05273438,0.015625,0.01757812,0.01757812,0,-0.002807617,-0.002929688,1.24707,0,0,1.136719,0.4031677,3.461,0,0,0,0.4099731,nan,2,0.014,1,128,0.4188232,0.3770142,0.4091492,0.4076538,0.005859375,0.006835938,0,1,2,0
24.501,0.001059,0.06835938,-0.08203125,-0.03710938,1.0625,12.4375,-3.039062,0.0546875,-0.03515625,-0.05078125,0.015625,0.01757812,0,-0.002807617,-0.002929688,1.246948,0,0,1.136719,0.4031677,3.461,0,0,0,0.4099731,nan,2,0.024,1,128,0.3487244,0.4879761,0.3278809,0.4480591,0.005859375,0.006835938,0,1,2,0
24.511,0.001009,0.078125,-0.1425781,-0.015625,3.851562,-0.4375,-11.10938,0.01757812,-0.0546875,0,0.01757812,0.01757812,0,-0.002807617,-0.002807617,1.246582,0,0,1.136719,0.4031677,3.461,0,0,0,0.4099731,nan,2,0.034,1,128,0.4797668,0.3690796,0.4345703,0.3292236,0.005859375,0.006835938,0,1,2,0
24.521,0.001004,-0.03515625,-0.0703125,0.08203125,-4.40625,0.6640625,27.53906,0.02148438,-0.08398438,0.03710938,0.015625,0.01757812,0,-0.002685547,-0.003051758,1.246704,0,0,1.136719,0.4031677,3.461,0,0,0,0.4099731,nan,2,0.044,1,128,0.4852905,0.3729858,0.4273682,0.3269958,0.005859375,0.006835938,0,1,2,0
24.531,0.001004,0.05078125,0.4628906,0.1152344,-11.85156,1.320312,31.67969,-0.046875,0.1132812,0.08789062,0.01953125,0.01953125,0,-0.003173828,-0.003173828,1.247192,0,0,1.136719,0.4073792,3.461,0,0,0,0.414978,nan,2,0.007,1,128,0.4997253,0.2648926,0.5247498,0.3401184,0.005859375,0.006835938,0,1,2,0
24.541,0.000984,0.08203125,0.3359375,0.1933594,-12.34375,-0.5703125,27.69531,0.03710938,0.07617188,0.08984375,0.01757812,0.01757812,0,-0.002929688,-0.002929688,1.247925,0,0,1.136719,0.4073792,3.461,0,0,0,0.414978,nan,2,0.017,1,128,0.4712524,0.3234863,0.492157,0.3425903,0.005859375,0.006835938,0,1,2,0
24.551,0.001008,0.1445312,0.3183594,0.1269531,-7.351562,8.5625,26.03906,0.04492188,0.08984375,0.1210938,0.01757812,0.01757812,0,-0.002807617,-0.002929688,1.249146,0,0,1.136719,0.4073792,3.461,0,0,0,0.414978,nan,2,0.027,1,128,0.4408569,0.3421936,0.4759216,0.3705139,0.005859375,0.006835938,0,1,2,0
24.562,0.000994,-0.1347656,0.390625,0.09570312,-4.242188,-0.34375,17.35156,0.01367188,0.0546875,0.1054688,0.015625,0.015625,0,-0.002563477,-0.002563477,1.250366,0,0,1.136719,0.4073792,3.461,0,0,0,0.414978,nan,2,0.037,1,128,0.422699,0.3896484,0.4049683,0.4121704,0.005859375,0.006835938,0,1,2,0
24.571,0.001018,-0.01757812,0.3535156,0.1015625,-11.50781,-2.234375,19.26562,0.01171875,0.0859375,0.1210938,0.015625,0.01367188,0,-0.002685547,-0.002197266,1.251343,0,0,1.136719,0.4073792,3.461,0,0,0,0.414978,nan,2,0.046,1,128,0.4494629,0.3512268,0.4569397,0.3718567,0.005859375,0.006835938,0,1,2,0
24.581,0.001348,-0.1523438,-0.09179688,0.09765625,3.265625,5.945312,-0.6796875,-0.06835938,-0.09765625,0.08984375,0.01757812,0.01757812,0,-0.002929688,-0.002807617,1.252441,0,0,1.136719,0.4115906,3.461,0,0,0,0.4199829,nan,2,0.001,1,128,0.459198,0.4109802,0.3719788,0.4041443,0.005859375,0.006835938,0,1,2,0
24.591,0.001023,-0.046875,0.1777344,0.07226562,-7.875,7.101562,6.882812,-0.03710938,0.0078125,0.1171875,0.02148438,0.01757812,0,-0.003417969,-0.003051758,1.25354,0,0,1.136719,0.4115906,3.461,0,0,0,0.4199829,nan,2,0.011,1,128,0.4641418,0.3602295,0.4488525,0.3731079,0.005859375,0.006835938,0,1,2,0
24.601,0.001014,-0.04882812,0.3007812,0.1308594,-3.867188,10.75,7.125,0.00390625,0.07226562,0.1152344,0.02148438,0.01757812,0,-0.003540039,-0.003051758,1.254517,0,0,1.136719,0.4115906,3.461,0,0,0,0.4199829,nan,2,0.021,1,128,0.4552002,0.3464355,0.46698,0.3776855,0.005859375,0.006835938,0,1,2,0
24.611,0.001011,-0.1621094,0.2832031,0.1328125,-7.507812,11.8125,13.25781,-0.02734375,0.078125,0.1386719,0.01757812,0.01367188,0,-0.003051758,-0.002441406,1.255737,0,0,1.136719,0.4115906,3.461,0,0,0,0.4199829,nan,2,0.031,1,128,0.5046692,0.3076782,0.4742432,0.3597107,0.005859375,0.006835938,0,1,2,0
24.621,0.001009,-0.1523438,0.09179688,0.1152344,6.695312,-7.375,21.64844,-0.005859375,0.0234375,0.1289062,0.01757812,0.015625,0,-0.002807617,-0.002685547,1.257324,0,0,1.136719,0.4115906,3.461,0,0,0,0.4199829,nan,2,0.041,1,128,0.4397278,0.3787842,0.4151306,0.4126587,0.005859375,0.006835938,0,1,2,0
24.631,0.001003,0.2148438,-0.1132812,-0.001953125,9.054688,-5.90625,5.171875,0.08007812,0.0078125,0.05664062,0.01757812,0.01171875,0,-0.003051758,-0.002075195,1.258301,0,0,1.136719,0.4115906,3.461,0,0,0,0.4199829,nan,2,0.009,1,128,0.3294067,0.5226746,0.3309021,0.4633484,0.005859375,0.006835938,0,1,2,0
24.641,0.001007,-0.2089844,-0.2753906,0.09570312,11.28906,-1.75,10.45312,-0.02539062,-0.04296875,0.08203125,0.01367188,0.01171875,0,-0.002319336,-0.002075195,1.259033,0,0,1.136719,0.4115906,3.461,0,0,0,0.4199829,nan,2,0.019,1,128,0.4853821,0.3805237,0.3994446,0.3809814,0.005859375,0.006835938,0,1,2,0
24.652,0.001016,0.0078125,-0.2050781,0.08203125,3.460938,0.375,5.085938,-0.02148438,-0.1113281,0.06640625,0.01757812,0.015625,0,-0.003051758,-0.002563477,1.259766,0,0,1.136719,0.4115906,3.461,0,0,0,0.4199829,nan,2,0.029,1,128,0.4564819,0.4199524,0.3959045,0.3739929,0.005859375,0.006835938,0,1,2,0
24.662,0.001009,0.01757812,-0.09375,0.1347656,2.015625,1.46875,13.73438,-0.00390625,-0.08984375,0.0625,0.01953125,0.01757812,0,-0.003295898,-0.002807617,1.260376,0,0,1.136719,0.4115906,3.461,0,0,0,0.4199829,nan,2,0.039,1,128,0.4736633,0.3994751,0.4170532,0.3561096,0.005859375,0.006835938,0,1,2,0
24.672,0.001012,0.4335938,0.2597656,0.06054688,-4.984375,-0.625,10.42969,0.08203125,0.09375,0.03710938,0.01953125,0.015625,0,-0.003173828,-0.002441406,1.260742,0,0,1.136719,0.4115906,3.461,0,0,0,0.4199829,nan,2,0.049,1,128,0.391449,0.4129944,0.4376221,0.4042358,0.005859375,0.006835938,0,1,2,0
24.681,0.000979,-0.03515625,-0.1230469,0.03320312,0.7109375,-2.914062,10.4375,0.03125,-0.08984375,0.02929688,0.015625,0.01367188,0,-0.002685547,-0.002319336,1.26123,0,0,1.136719,0.415802,3.461,0,0,0,0.4249878,nan,2,0.008,1,128,0.4285278,0.4691467,0.350647,0.414856,0.005859375,0.006835938,0,1,2,0
24.691,0.000954,-0.1445312,0.1894531,0.1191406,-4.578125,2.390625,21.50781,-0.1054688,0.03515625,0.08007812,0.01757812,0.015625,0,-0.003051758,-0.002441406,1.261719,0,0,1.136719,0.415802,3.461,0,0,0,0.4249878,nan,2,0.018,1,128,0.4985352,0.3232727,0.4535522,0.3878174,0.005859375,0.006835938,0,1,2,0
24.701,0.001043,0.046875,0.2402344,0.1582031,-7.234375,-1.726562,15.09375,0.005859375,0.009765625,0.08984375,0.01953125,0.015625,0,-0.003051758,-0.002441406,1.262451,0,0,1.136719,0.415802,3.461,0,0,0,0.4249878,nan,2,0.028,1,128,0.50354,0.334137,0.4870605,0.3384094,0.005859375,0.006835938,0,1,2,0
24.711,0.001021,0.07617188,0.1289062,0.1347656,-3.398438,-4.882812,3,-0.03125,0.0390625,0.1035156,0.01953125,0.015625,0,-0.003051758,-0.002563477,1.263306,0,0,1.136719,0.415802,3.461,0,0,0,0.4249878,nan,2,0.038,1,128,0.4922791,0.3309326,0.4726562,0.3673096,0.005859375,0.006835938,0,1,2,0
24.721,0.001033,-0.2636719,-0.2382812,0.07421875,9.390625,-3.625,-6.617188,-0.08203125,-0.0234375,0.109375,0.01757812,0.01367188,0,-0.003051758,-0.002197266,1.264282,0,0,1.136719,0.4200134,3.461,0,0,0,0.4299927,nan,2,0,1,128,0.5215149,0.3594055,0.4216003,0.3774414,0.005859375,0.006835938,0,1,2,0
24.731,0.001005,-0.1035156,-0.2695312,0.0859375,1.210938,2.835938,15.27344,0.02539062,-0.07226562,0.1015625,0.01757812,0.01367188,0,-0.002929688,-0.002319336,1.265503,0,0,1.136719,0.4200134,3.461,0,0,0,0.4299927,nan,2,0.01,1,128,0.4483643,0.4464722,0.3848877,0.400238,0.005859375,0.006835938,0,1,2,0
24.741,0.001006,0.03710938,0.06445312,0.109375,-9.296875,1.039062,21.03906,0.01953125,0.03320312,0.1171875,0.01757812,0.009765625,0,-0.003051758,-0.001831055,1.266602,0,0,1.136719,0.4200134,3.461,0,0,0,0.4299927,nan,2,0.02,1,128,0.4770508,0.382019,0.4550171,0.3659363,0.005859375,0.006835938,0,1,2,0
24.752,0.00103,0.03710938,0.078125,0.2011719,-10.11719,2.242188,28.61719,0.01953125,-0.0703125,0.1328125,0.01757812,0.01171875,0,-0.003051758,-0.002075195,1.267822,0,0,1.136719,0.4200134,3.461,0,0,0,0.4299927,nan,2,0.03,1,128,0.5274353,0.3532715,0.4799805,0.3193054,0.005859375,0.006835938,0,1,2,0
24.762,0.001009,0.06445312,0.2675781,0.09960938,-12.23438,3.640625,20.35156,-0.0078125,0.03515625,0.1308594,0.01953125,0.01367188,0,-0.003295898,-0.002197266,1.269165,0,0,1.136719,0.4200134,3.461,0,0,0,0.4299927,nan,2,0.04,1,128,0.4563599,0.3765564,0.4523621,0.3947449,0.005859375,0.006835938,0,1,2,0
24.772,0.001014,0.08203125,0.1230469,0.08789062,-4.148438,11.48438,10.64844,0.03515625,0.03320312,0.1269531,0.01953125,0.01171875,0,-0.003295898,-0.002075195,1.270386,0,0,1.136719,0.4200134,3.461,0,0,0,0.4299927,nan,2,0.05,1,128,0.4512024,0.3948975,0.4514771,0.3824158,0.005859375,0.006835938,0,1,2,0
24.781,0.001012,0.1308594,0.1582031,0.1464844,-5.289062,5.492188,12.77344,0.07617188,0.07421875,0.1074219,0.015625,0.009765625,0,-0.002685547,-0.001586914,1.27124,0,0,1.136719,0.4242249,3.461,0,0,0,0.4349976,nan,2,0.006,1,128,0.474762,0.3673096,0.4823914,0.3723755,0.005859375,0.006835938,0,1,2,0
24.791,0.001009,-0.01367188,0.07226562,0.1367188,-5.1875,4.851562,-4.828125,-0.06054688,0.02539062,0.1269531,0.01757812,0.0078125,0,-0.002807617,-0.001220703,1.272461,0,0,1.136719,0.4242249,3.461,0,0,0,0.4349976,nan,2,0.016,1,128,0.5095825,0.3543396,0.4603882,0.3725281,0.005859375,0.006835938,0,1,2,0
24.801,0.00106,0.2265625,0.07421875,0.1210938,-4.804688,9.84375,12.03125,0.05664062,-0.005859375,0.1308594,0.01953125,0.0078125,0,-0.003295898,-0.001342773,1.273682,0,0,1.136719,0.4242249,3.461,0,0,0,0.4349976,nan,2,0.026,1,128,0.4706726,0.3926697,0.4849548,0.3485413,0.005859375,0.006835938,0,1,2,0
24.811,0.001034,0.05078125,0,0.1230469,2.070312,-2.4375,20.875,-0.005859375,-0.015625,0.1132812,0.015625,0.009765625,0,-0.002685547,-0.001586914,1.27478,0,0,1.136719,0.4242249,3.461,0,0,0,0.4349976,nan,2,0.036,1,128,0.5020752,0.3597107,0.4579163,0.3771362,0.005859375,0.006835938,0,1,2,0
24.821,0.001004,-0.01171875,-0.1464844,0.09179688,4.945312,-4.140625,10.50781,-0.015625,-0.02148438,0.1230469,0.01757812,0.01171875,0,-0.003051758,-0.001831055,1.275879,0,0,1.136719,0.4242249,3.461,0,0,0,0.4349976,nan,2,0,1,128,0.4943237,0.3725281,0.4677124,0.3622742,0.005859375,0.006835938,0,1,2,0
24.832,0.001018,-0.2773438,-0.2402344,0.1289062,10.03906,1.335938,10.19531,-0.04101562,-0.0546875,0.1035156,0.01757812,0.01367188,0,-0.002929688,-0.002197266,1.276855,0,0,1.136719,0.4242249,3.461,0,0,0,0.4349976,nan,2,0.01,1,128,0.5001221,0.3843079,0.4205627,0.3918152,0.005859375,0.006835938,0,1,2,0
24.842,0.00101,0.06445312,-0.02734375,0.0859375,0.375,-1.507812,10.65625,-0.02539062,0.0078125,0.0703125,0.01953125,0.01171875,0,-0.003173828,-0.001953125,1.277588,0,0,1.136719,0.4242249,3.461,0,0,0,0.4349976,nan,2,0.02,1,128,0.4514771,0.4161072,0.408844,0.4204102,0.005859375,0.006835938,0,1,2,0
24.852,0.001026,0.2246094,-0.02734375,0.1542969,-2.703125,-0.7421875,15.03125,0.05273438,-0.07421875,0.09765625,0.015625,0.01367188,0,-0.002807617,-0.002197266,1.278442,0,0,1.136719,0.4242249,3.461,0,0,0,0.4349976,nan,2,0.03,1,128,0.500946,0.3905334,0.4625854,0.3427734,0.005859375,0.006835938,0,1,2,0
24.862,0.001009,0.1777344,0.421875,0.08984375,-4.632812,-5.28125,8.5625,-0.03515625,0.1347656,0.1074219,0.01757812,0.01171875,0,-0.002807617,-0.002075195,1.279541,0,0,1.136719,0.4242249,3.461,0,0,0,0.4349976,nan,2,0.04,1,128,0.4490356,0.3481445,0.4759827,0.4236755,0.005859375,0.006835938,0,1,2,0
24.872,0.001002,0.03125,0.0625,0.1328125,3.382812,0.1484375,-2.8125,0.03710938,-0.02929688,0.1132812,0.01757812,0.01367188,0,-0.002929688,-0.002197266,1.280396,0,0,1.136719,0.4242249,3.461,0,0,0,0.4349976,nan,2,0.05,1,128,0.5137939,0.3519897,0.4966431,0.3344116,0.005859375,0.0078125,0,1,2,0
24.881,0.001052,-0.05859375,0.2050781,0.2089844,-5.867188,-1.382812,19.92188,-0.0234375,0.03710938,0.1425781,0.015625,0.01367188,0,-0.002563477,-0.002197266,1.281372,0,0,1.136719,0.4326172,3.461,0,0,0,0.4450073,nan,2,0.004,1,128,0.5668335,0.2943726,0.5314331,0.3378601,0.005859375,0.0078125,0,1,2,0
24.891,0.001016,0.1289062,0.1699219,0.1523438,2.132812,-1.851562,-0.6015625,0.03515625,0.04882812,0.1328125,0.015625,0.01171875,0,-0.002685547,-0.001953125,1.282715,0,0,1.136719,0.4326172,3.461,0,0,0,0.4450073,nan,2,0.014,1,128,0.4725952,0.3883972,0.4801636,0.3893433,0.005859375,0.0078125,0,1,2,0
24.901,0.000979,0.046875,-0.1367188,0.1035156,7.671875,6.351562,2.460938,-0.005859375,-0.0625,0.1386719,0.01757812,0.01171875,0,-0.002929688,-0.002075195,1.28418,0,0,1.136719,0.4326172,3.461,0,0,0,0.4450073,nan,2,0.024,1,128,0.4792786,0.4261475,0.4305725,0.3945312,0.005859375,0.0078125,0,1,2,0.07936508
24.911,0.001009,0.07421875,0.04882812,0.1738281,5.117188,-4.492188,-4.039062,0.009765625,0.01171875,0.1894531,0.01757812,0.01367188,0,-0.002929688,-0.002441406,1.286011,0,0,1.136719,0.4326172,3.461,0,0,0,0.4450073,nan,2,0.034,1,128,0.5062256,0.3575745,0.5016785,0.3650208,0.005859375,0.0078125,0,1,2,0
24.921,0.00101,0.1328125,-0.009765625,0.1015625,0.3046875,1.398438,4.28125,0.09375,0.02734375,0.1289062,0.015625,0.01367188,0,-0.002563477,-0.002197266,1.287598,0,0,1.136719,0.4326172,3.461,0,0,0,0.4450073,nan,2,0.044,1,128,0.4126892,0.461853,0.4227295,0.4332581,0.005859375,0.0078125,0,1,2,0
24.932,0.000984,-0.0078125,0.08984375,0.09765625,-4.75,8.414062,16.54688,0.0234375,0.06640625,0.1230469,0.01367188,0.009765625,0,-0.002319336,-0.001708984,1.288818,0,0,1.136719,0.4368286,3.461,0,0,0,0.4500122,nan,2,0.007,1,128,0.4660645,0.4092407,0.452301,0.4197693,0.005859375,0.0078125,0,1,2,0
24.942,0.000944,0,0.1972656,0.1796875,-12.07031,3.164062,19.39062,-0.03515625,0.04492188,0.1464844,0.015625,0.005859375,0,-0.002441406,-0.0009765625,1.290039,0,0,1.136719,0.4368286,3.461,0,0,0,0.4500122,nan,2,0.017,1,128,0.536377,0.3512268,0.4978027,0.3619385,0.005859375,0.006835938,0,1,2,0
24.952,0.001047,0.1582031,0.3164062,0.125,-10.82031,2.070312,19.82812,0.01367188,0.05859375,0.140625,0.01757812,0.00390625,0,-0.002807617,-0.0006103516,1.291504,0,0,1.136719,0.4368286,3.461,0,0,0,0.4500122,nan,2,0.027,1,128,0.4725952,0.3991394,0.480011,0.3956299,0.005859375,0.006835938,0,1,2,0
24.962,0.001009,-0.1171875,0.07421875,0.1015625,-1.453125,7.617188,13.75781,0.03125,0.01953125,0.1425781,0.015625,0.001953125,0,-0.002563477,-0.0003662109,1.292969,0,0,1.136719,0.4368286,3.461,0,0,0,0.4500122,nan,2,0.037,1,128,0.4750061,0.407196,0.4592896,0.4058838,0.005859375,0.006835938,0,1,2,0
24.972,0.000955,-0.07226562,-0.1074219,0.08789062,-1.71875,0.203125,5.875,0.0390625,-0.04882812,0.1386719,0.01171875,0.00390625,0,-0.002075195,-0.0007324219,1.294556,0,0,1.136719,0.4368286,3.461,0,0,0,0.4500122,nan,2,0.047,1,128,0.4633789,0.4403076,0.4196472,0.4240417,0.005859375,0.006835938,0,1,2,0
24.981,0.001028,-0.02929688,0.02539062,0.1738281,-2.601562,4.9375,-6.242188,0.03320312,-0.00390625,0.1914062,0.009765625,0.005859375,0,-0.001586914,-0.001098633,1.296143,0,0,1.136719,0.44104,3.461,0,0,0,0.4550171,nan,2,0.005,1,128,0.5539246,0.3375244,0.5285034,0.3442688,0.005859375,0.0078125,0,1,2,0
24.991,0.001001,0.01757812,0.2792969,0.1640625,-5.96875,-1.578125,11.10938,-0.04101562,0.0703125,0.15625,0.01171875,0.00390625,0,-0.001831055,-0.0007324219,1.297729,0,0,1.136719,0.44104,3.413,0,0,0,0.4550171,nan,2,0.015,1,128,0.5038452,0.367157,0.4888611,0.4043274,0.005859375,0.006835938,0,1,2,0
25.001,0.001005,-0.1425781,0.05664062,0.1289062,-1.367188,-0.171875,13.13281,-0.0078125,0.07617188,0.171875,0.01171875,0,0,-0.001953125,-0.0001220703,1.299316,0,0,1.136719,0.44104,3.413,0,0,0,0.4550171,nan,2,0.025,1,128,0.5111389,0.3667603,0.496521,0.3898315,0.005859375,0.006835938,0,1,2,0
25.011,0.001009,-0.1542969,-0.1289062,0.1132812,4.046875,1.679688,-5.023438,-0.08398438,0.03710938,0.1308594,0.015625,-0.001953125,0,-0.002685547,0.0002441406,1.300903,0,0,1.136719,0.44104,3.413,0,0,0,0.4550171,nan,2,0.035,1,128,0.4690552,0.4279175,0.4221191,0.4451294,0.006835938,0.006835938,0,1,2,0
25.021,0.001011,0.1386719,0.1054688,0.1484375,-5.398438,-2.84375,21.00781,0.0390625,-0.0234375,0.1484375,0.01757812,0,0,-0.002929688,-0.0001220703,1.30249,0,0,1.136719,0.44104,3.413,0,0,0,0.4550171,nan,2,0.045,1,128,0.4673157,0.4270935,0.4663391,0.4034729,0.006835938,0.006835938,0,1,2,0
25.031,0.000992,0.03320312,-0.06054688,0.1972656,-0.4140625,4.320312,12.69531,0.08789062,0.001953125,0.1640625,0.01171875,0,0,-0.001953125,-0.0001220703,1.304077,0,0,1.136719,0.44104,3.413,0,0,0,0.4550171,nan,2,0.056,1,128,0.5125427,0.3840027,0.4940796,0.3735962,0.005859375,0.006835938,0,1,2,0
25.042,0.00101,-0.04101562,0.078125,0.1894531,-0.609375,0.6640625,9.164062,-0.0390625,-0.04296875,0.1699219,0.009765625,0.001953125,0,-0.001708984,-0.0004882812,1.305786,0,0,1.136719,0.4494629,3.413,0,0,0,0.4650269,nan,2,0.003,1,128,0.5408325,0.3808899,0.4734192,0.4027405,0.005859375,0.006835938,0,1,2,0
25.052,0.001071,0.15625,0.1582031,0.2128906,-2.226562,-7.414062,6.890625,0.005859375,0.02539062,0.171875,0.01171875,0.00390625,0,-0.001953125,-0.0006103516,1.307251,0,0,1.136719,0.4494629,3.413,0,0,0,0.4650269,nan,2,0.013,1,128,0.5459595,0.349823,0.5472717,0.3548584,0.006835938,0.006835938,0,1,2,0
25.062,0.0009860001,-0.06640625,-0.08789062,0.1445312,9.4375,3.289062,-0.296875,-0.0625,-0.0390625,0.1347656,0.01367188,0.00390625,0,-0.002197266,-0.0008544922,1.308594,0,0,1.136719,0.4494629,3.413,0,0,0,0.4650269,nan,2,0.023,1,128,0.5162964,0.4092712,0.4554138,0.4169312,0.006835938,0.006835938,0,1,2,0.2222222
25.071,0.00104,-0.001953125,0.1503906,0.1757812,-4.109375,1.585938,16.1875,-0.0625,-0.001953125,0.1601562,0.015625,0.005859375,0,-0.002685547,-0.0008544922,1.310059,0,0,1.136719,0.4494629,3.413,0,0,0,0.4650269,nan,2,0.032,1,128,0.5290222,0.3812866,0.493042,0.3945312,0.006835938,0.006835938,0,1,2,0
25.081,0.001027,0.06054688,0,0.140625,5.226562,3.742188,15.42969,0.06640625,0.03125,0.15625,0.015625,0.005859375,0,-0.002441406,-0.001098633,1.311768,0,0,1.136719,0.4494629,3.413,0,0,0,0.4650269,nan,2,0.042,1,128,0.4786377,0.4119568,0.4964905,0.4108276,0.006835938,0.0078125,0,1,2,0
25.091,0.001256,-0.02539062,-0.009765625,0.1445312,3.429688,-11.27344,2.757812,0.02929688,0.009765625,0.15625,0.01171875,0.005859375,0,-0.001953125,-0.001098633,1.313354,0,0,1.136719,0.4620972,3.413,0,0,0,0.4799805,nan,2,0.001,1,128,0.512146,0.42099,0.4858093,0.4294739,0.006835938,0.0078125,0,1,2,0
25.101,0.000962,0.02539062,-0.05664062,0.1074219,8.789062,-4.015625,11.77344,0.0234375,0.046875,0.1425781,0.009765625,0.005859375,0,-0.001708984,-0.0009765625,1.314819,0,0,1.136719,0.4620972,3.413,0,0,0,0.4799805,nan,2,0.011,1,128,0.5000305,0.423645,0.4877625,0.4369812,0.006835938,0.0078125,0,1,2,0
25.111,0.001028,-0.1367188,-0.3515625,0.1875,13.24219,-4.976562,-3.234375,-0.06445312,-0.03125,0.1523438,0.009765625,0.00390625,0,-0.001708984,-0.0006103516,1.316284,0,0,1.136719,0.4620972,3.413,0,0,0,0.4799805,nan,2,0.021,1,128,0.572113,0.3966675,0.4824829,0.3971558,0.006835938,0.0078125,0,1,2,0
25.121,0.000957,0.01367188,0.2929688,0.1601562,-6.203125,9.53125,12.85156,-0.01367188,0.09765625,0.1640625,0.01171875,0.001953125,0,-0.002075195,-0.0003662109,1.317749,0,0,1.136719,0.4620972,3.413,0,0,0,0.4799805,nan,2,0.031,1,128,0.5354004,0.3625793,0.5493164,0.401123,0.006835938,0.006835938,0,1,2,0
25.131,0.001013,-0.04101562,0.2832031,0.140625,-4.179688,0.609375,3.804688,-0.0390625,0.1582031,0.140625,0.01367188,-0.005859375,0,-0.002197266,0.0009765625,1.319214,0,0,1.136719,0.4620972,3.413,0,0,0,0.4799805,nan,2,0.041,1,128,0.5119324,0.3865356,0.5120544,0.4378967,0.006835938,0.006835938,0,1,2,0
25.141,0.000999,0.01953125,0.3925781,0.09570312,-2.109375,-5.429688,30.375,-0.0078125,0.2539062,0.1308594,0.015625,-0.015625,0,-0.002441406,0.002685547,1.320679,0,0,1.136719,0.4663086,3.413,0,0,0,0.4849854,nan,2,0.001,1,128,0.4442749,0.434845,0.4924316,0.4937134,0.006835938,0.006835938,0,1,2,0
25.151,0.001006,-0.1308594,0.03710938,0.05664062,9.070312,0.8125,13.96875,-0.04101562,0.1796875,0.1015625,0.01757812,-0.02734375,0,-0.002929688,0.004760742,1.321899,0,0,1.136719,0.4663086,3.413,0,0,0,0.4849854,nan,2,0.011,1,128,0.4638062,0.4615784,0.4481812,0.4916687,0.006835938,0.006835938,0,1,2,0
25.162,0.001009,-0.08007812,0.06835938,0.1757812,6.539062,-6.3125,2.617188,-0.015625,0.2421875,0.1210938,0.01757812,-0.04296875,0,-0.003051758,0.007080078,1.322876,0,0,1.136719,0.4663086,3.413,0,0,0,0.4849854,nan,2,0.021,1,128,0.5244141,0.3849182,0.5304565,0.4254456,0.006835938,0.006835938,0,1,2,0.2698413
25.171,0.00103,-0.1972656,0.046875,0.125,6.9375,-3.609375,13.625,-0.03125,0.25,0.1074219,0.01953125,-0.05664062,0,-0.003295898,0.009399414,1.323975,0,0,1.136719,0.4663086,3.413,0,0,0,0.4849854,nan,2,0.03,1,128,0.4901428,0.4179077,0.4920654,0.4651489,0.006835938,0.005859375,0,1,2,0
25.181,0.000988,0.03515625,0.2128906,0.1855469,1.632812,-11.23438,8.390625,0.06054688,0.2304688,0.1191406,0.01757812,-0.07226562,0,-0.003051758,0.01208496,1.325073,0,0,1.136719,0.4663086,3.413,0,0,0,0.4849854,nan,2,0.04,1,128,0.5153809,0.4020386,0.5334778,0.4143372,0.006835938,0.005859375,0,1,2,0
25.191,0.001033,0.06640625,0.2675781,0.171875,3.859375,4.882812,3.867188,0.08984375,0.2851562,0.1289062,0.01367188,-0.08789062,0,-0.002197266,0.01464844,1.326294,0,0,1.136719,0.47052,3.413,0,0,0,0.4899902,nan,2,0.002,1,128,0.5087891,0.3861694,0.5544128,0.4327393,0.006835938,0.005859375,0,1,2,0
25.201,0.001009,0.2558594,0.3886719,0.1503906,-9.53125,3.6875,8.21875,0.1210938,0.3574219,0.1308594,0.005859375,-0.109375,0,-0.001098633,0.01806641,1.327637,0,0,1.136719,0.47052,3.413,0,0,0,0.4899902,nan,2,0.012,1,128,0.4779053,0.4040527,0.5499878,0.4501648,0.006835938,0.004882812,0,1,2,0
25.211,0.001009,0.1542969,0.6796875,0.06445312,-7.421875,6.484375,13.30469,0.09960938,0.4082031,0.1113281,0.001953125,-0.1289062,0,-0.0003662109,0.02160645,1.328857,0,0,1.136719,0.47052,3.413,0,0,0,0.4899902,nan,2,0.022,1,128,0.4440613,0.409729,0.5409546,0.4873657,0.006835938,0.004882812,0,1,2,0
25.221,0.001005,0.03515625,0.3203125,0.1582031,4.148438,-10.14844,11.60156,0.0234375,0.4355469,0.1230469,0,-0.15625,0,0.0001220703,0.02587891,1.329956,0,0,1.136719,0.47052,3.413,0,0,0,0.4899902,nan,2,0.032,1,128,0.5050354,0.3654785,0.5579224,0.4536743,0.006835938,0.00390625,0,1,2,0
25.231,0.001012,-0.06445312,0.359375,0.140625,1.054688,7.90625,5.945312,0.0234375,0.3984375,0.1289062,-0.001953125,-0.1816406,0,0.0003662109,0.03027344,1.331177,0,0,1.136719,0.47052,3.413,0,0,0,0.4899902,nan,2,0.042,1,128,0.5010071,0.3854675,0.5428772,0.4527588,0.006835938,0.00390625,0,1,2,0.2222222
25.241,0.001032,0.09570312,0.6953125,0.171875,-13.03906,1.414062,18.71875,0.0625,0.453125,0.125,-0.005859375,-0.2089844,0,0.0009765625,0.03466797,1.332397,0,0,1.136719,0.4789429,3.413,0,0,0,0.5,nan,2,0,1,128,0.4876404,0.3846436,0.5729065,0.4706116,0.005859375,0.002929688,0,1,2,0
25.251,0.000942,-0.01953125,0.4257812,0.1523438,1.039062,6.539062,14.91406,0.001953125,0.4101562,0.1347656,-0.0078125,-0.2324219,0,0.001342773,0.03881836,1.33374,0,0,1.136719,0.4789429,3.413,0,0,0,0.5,nan,2,0.01,1,128,0.5112,0.370636,0.5675049,0.4664612,0.005859375,0.001953125,0,1,2,0
25.262,0.00102,0.2382812,0.4824219,0.1757812,0.40625,-7.976562,-1.328125,0.09960938,0.421875,0.1367188,-0.01171875,-0.2578125,0,0.001953125,0.04296875,1.334961,0,0,1.136719,0.4789429,3.413,0,0,0,0.5,nan,2,0.02,1,128,0.4969177,0.3727112,0.6051941,0.4409485,0.005859375,0.001953125,0,1,2,0
25.272,0.001009,0.07226562,0.3789062,0.03320312,0.5546875,7.851562,14.16406,0.07617188,0.4335938,0.09960938,-0.015625,-0.2851562,0,0.002807617,0.04736328,1.336182,0,0,1.136719,0.4789429,3.413,0,0,0,0.5,nan,2,0.03,1,128,0.4234619,0.4458008,0.5124207,0.5340881,0.005859375,0.0009765625,0,1,2,0
25.282,0.001009,-0.07617188,0.2265625,0.1230469,2.132812,-6.21875,15.79688,-0.03515625,0.3164062,0.1308594,-0.015625,-0.3066406,0,0.002685547,0.05102539,1.337402,0,0,1.136719,0.4789429,3.413,0,0,0,0.5,nan,2,0.04,1,128,0.5125732,0.3849792,0.5489502,0.4692688,0.005859375,0,0,1,2,0
25.291,0.001051,-0.04101562,0.3671875,0.1640625,0.421875,-4.101562,26.88281,0.02539062,0.2929688,0.1367188,-0.01757812,-0.3222656,0,0.002807617,0.05371094,1.338623,0,0,1.136719,0.4789429,3.413,0,0,0,0.5,nan,2,0.049,1,128,0.5036011,0.3803406,0.5750732,0.4567566,0.005859375,0,0,1,2,0
25.301,0.001019,0.03515625,-0.015625,0.1152344,12.91406,-5.765625,-19.89844,0.08203125,0.2617188,0.1230469,-0.02148438,-0.3378906,0,0.003540039,0.05651855,1.339844,0,0,1.136719,0.4789429,3.413,0,0,0,0.5,nan,2,0.06,1,128,0.4685669,0.4209595,0.5454712,0.4807739,0.005859375,-0.0009765625,0,1,2,0
25.311,0.001019,0.1503906,0.1269531,0.1074219,-0.9453125,1.640625,27.125,0.1308594,0.2421875,0.1269531,-0.02734375,-0.3554688,0,0.004638672,0.05908203,1.341187,0,0,1.136719,0.4789429,3.413,0,0,0,0.5,nan,2,0.07,1,128,0.4706116,0.4205017,0.5565796,0.4680786,0.005859375,-0.001953125,0,1,2,0
25.321,0.001009,0.2851562,0.2050781,0.1953125,-2.984375,1.3125,24.66406,0.1757812,0.1875,0.1464844,-0.03710938,-0.3671875,0,0.006225586,0.06140137,1.342651,0,0,1.136719,0.4831543,3.413,0,0,0,0.5050049,nan,2,0.009,1,128,0.5007019,0.4037781,0.592041,0.4360962,0.005859375,-0.001953125,0,1,2,0
25.331,0.001006,0.3066406,0.3417969,0.1054688,-6.617188,6.609375,-3.796875,0.2246094,0.1445312,0.1308594,-0.04882812,-0.375,0,0.008300781,0.06262207,1.344116,0,0,1.136719,0.4831543,3.413,0,0,0,0.5050049,nan,2,0.019,1,128,0.4541626,0.4353638,0.5688477,0.4742432,0.005859375,-0.002929688,0,1,2,0
25.341,0.001006,0.2578125,0.3085938,0.1523438,-5.5,0.5,30.48438,0.2539062,0.1015625,0.1425781,-0.06445312,-0.3808594,0,0.01074219,0.06347656,1.345459,0,0,1.136719,0.4831543,3.413,0,0,0,0.5050049,nan,2,0.029,1,128,0.4855652,0.4073792,0.5982971,0.4413757,0.004882812,-0.002929688,0,1,2,0
25.351,0.001011,0.3496094,-0.2695312,0.1308594,10.92969,-7.84375,-8.976562,0.3574219,0.009765625,0.1328125,-0.08398438,-0.3847656,0,0.01391602,0.06396484,1.346802,0,0,1.136719,0.4831543,3.413,0,0,0,0.5050049,nan,2,0.039,1,128,0.4570312,0.4719238,0.5588989,0.4447937,0.004882812,-0.00390625,0,1,2,0
25.362,0.001029,0.2851562,-0.02734375,0.06445312,5.046875,1.34375,8.25,0.3398438,0.01171875,0.1230469,-0.1054688,-0.3847656,0,0.01757812,0.06396484,1.348267,0,0,1.136719,0.4873657,3.413,0,0,0,0.5100098,nan,2,0.007,1,128,0.4384155,0.4834595,0.5393982,0.4882202,0.00390625,-0.00390625,0,1,2,0.7460318
25.372,0.001023,0.1738281,-0.02148438,0.2050781,-4.117188,-3.382812,21.25781,0.2734375,-0.0234375,0.140625,-0.1230469,-0.3847656,0,0.02062988,0.06420898,1.349609,0,0,1.136719,0.4873657,3.413,0,0,0,0.5100098,nan,2,0.017,1,128,0.5118713,0.4277649,0.5802917,0.4295349,0.00390625,-0.004882812,0,1,2,0
25.382,0.001009,0.2011719,-0.1464844,0.1484375,1.890625,1.890625,-0.9453125,0.2675781,-0.08007812,0.1367188,-0.140625,-0.3828125,0,0.02355957,0.06359863,1.351196,0,0,1.136719,0.4873657,3.413,0,0,0,0.5100098,nan,2,0.027,1,128,0.4714661,0.4709167,0.5408325,0.4662781,0.00390625,-0.004882812,0,1,2,0
25.391,0.001011,0.005859375,-0.1328125,0.2109375,3.015625,-7.523438,1.367188,0.171875,-0.1425781,0.15625,-0.15625,-0.375,0,0.02587891,0.0625,1.352417,0,0,1.136719,0.4873657,3.413,0,0,0,0.5100098,nan,2,0.036,1,128,0.5353088,0.4141846,0.5641785,0.4358215,0.002929688,-0.004882812,0,1,2,0
25.401,0.000996,0.04882812,-0.3046875,0.1582031,-1.148438,8.039062,0.7265625,0.08398438,-0.1542969,0.1328125,-0.1640625,-0.3671875,0,0.02722168,0.06115723,1.35376,0,0,1.136719,0.4873657,3.413,0,0,0,0.5100098,nan,2,0.046,1,128,0.5125427,0.4406128,0.5416565,0.4546814,0.002929688,-0.004882812,0,1,2,0
25.411,0.001041,0.3066406,0.140625,0.1015625,-11.84375,-0.5078125,19.47656,0.1035156,-0.1210938,0.1484375,-0.1679688,-0.3554688,0,0.02807617,0.05944824,1.355225,0,0,1.136719,0.4873657,3.413,0,0,0,0.5100098,nan,2,0.002,1,128,0.4831848,0.4328003,0.5812988,0.4522095,0.002929688,-0.005859375,0,1,2,0
25.421,0.000961,-0.04101562,-0.2304688,0.1933594,4.867188,-11.49219,1.953125,-0.001953125,-0.1835938,0.1582031,-0.171875,-0.3457031,0,0.02880859,0.05749512,1.356689,0,0,1.136719,0.4873657,3.413,0,0,0,0.5100098,nan,2,0.012,1,128,0.5478516,0.400238,0.5682983,0.4330444,0.001953125,-0.005859375,0,1,2,0
25.431,0.001037,0,-0.2851562,0.1816406,-3.734375,10.98438,3.179688,-0.015625,-0.1875,0.1464844,-0.171875,-0.3359375,0,0.02880859,0.0559082,1.358032,0,0,1.136719,0.4873657,3.413,0,0,0,0.5100098,nan,2,0.022,1,128,0.5337524,0.4291077,0.5548096,0.4318237,0.001953125,-0.005859375,0,1,2,0
25.442,0.00103,0.1503906,0.1992188,0.1660156,-10.59375,5.546875,16.86719,0.08398438,-0.08007812,0.1660156,-0.1738281,-0.3261719,0,0.0291748,0.05444336,1.359619,0,0,1.136719,0.4873657,3.413,0,0,0,0.5100098,nan,2,0.032,1,128,0.5017395,0.4045105,0.6196899,0.4235229,0.001953125,-0.005859375,0,1,2,0
25.452,0.001032,0.1328125,-0.0859375,0.1816406,5.28125,-8.195312,19.99219,0.04492188,-0.07421875,0.1640625,-0.1777344,-0.3203125,0,0.02978516,0.05334473,1.361328,0,0,1.136719,0.4873657,3.413,0,0,0,0.5100098,nan,2,0.042,1,128,0.4950867,0.4284973,0.5715942,0.4542847,0.001953125,-0.005859375,0,1,2,0
25.462,0.001008,-0.0234375,-0.3125,0.1328125,13.23438,-1.695312,-7.1875,0.001953125,-0.1152344,0.15625,-0.1796875,-0.3164062,0,0.02990723,0.0526123,1.362915,0,0,1.136719,0.4873657,3.413,0,0,0,0.5100098,nan,2,0.053,1,128,0.4946899,0.4599304,0.5284424,0.4664001,0.001953125,-0.006835938,0,1,2,0
25.472,0.001009,0.07226562,0.0625,0.1816406,-6.242188,0.7734375,16.0625,0.07226562,-0.08398438,0.1914062,-0.1835938,-0.3105469,0,0.03063965,0.05175781,1.364746,0,0,1.136719,0.4873657,3.413,0,0,0,0.5100098,nan,2,0.063,1,128,0.5285645,0.4030457,0.6088867,0.4089661,0.0009765625,-0.006835938,0,1,2,0
25.482,0.001038,-0.08789062,0.01953125,0.2109375,-8.453125,8.25,19.35156,0.001953125,-0.0546875,0.1777344,-0.1855469,-0.3046875,0,0.03112793,0.05090332,1.366577,0,0,1.136719,0.4873657,3.413,0,0,0,0.5100098,nan,2,0.073,1,128,0.5042114,0.4174805,0.5643921,0.4633789,0.0009765625,-0.006835938,0,1,2,0
25.491,0.000976,0.0625,0.1816406,0.1796875,-9.296875,2.03125,22.90625,0.05664062,-0.0546875,0.1699219,-0.1875,-0.3007812,0,0.03137207,0.0501709,1.368042,0,0,1.136719,0.4915771,3.413,0,0,0,0.5150146,nan,2,0.008,1,128,0.4897766,0.4408875,0.5778809,0.4577942,0.0009765625,-0.006835938,0,1,2,0
25.501,0.001014,0.1210938,-0.1757812,0.25,-1.476562,4.4375,10.30469,0.140625,-0.1191406,0.2050781,-0.1972656,-0.2949219,0,0.03283691,0.04907227,1.369995,0,0,1.136719,0.4915771,3.413,0,0,0,0.5150146,nan,2,0.018,1,128,0.5503235,0.4039001,0.6260376,0.3860779,0.0009765625,-0.0078125,0,1,2,0
25.511,0.000967,0.05664062,-0.06835938,0.1542969,3.820312,0.7109375,9.78125,0.09375,-0.09765625,0.1757812,-0.2050781,-0.2871094,0,0.03417969,0.04785156,1.371826,0,0,1.136719,0.4915771,3.413,0,0,0,0.5150146,nan,2,0.028,1,128,0.4882507,0.4527588,0.5571899,0.4681396,0,-0.0078125,0,1,2,0
25.521,0.000988,0.02539062,-0.1035156,0.1757812,-0.78125,1.6875,-1.773438,0.1347656,-0.0859375,0.1933594,-0.2128906,-0.28125,0,0.03540039,0.046875,1.373779,0,0,1.136719,0.4915771,3.413,0,0,0,0.5150146,nan,2,0.038,1,128,0.489624,0.4560852,0.5783691,0.4422302,0,-0.0078125,0,1,2,0
25.531,0.001049,0.06445312,-0.08984375,0.2324219,-3.648438,-0.7265625,19.38281,0.1074219,-0.1074219,0.21875,-0.2207031,-0.2753906,0,0.03686523,0.04589844,1.375854,0,0,1.136719,0.4957886,3.413,0,0,0,0.5200195,nan,2,0.005,1,128,0.5510864,0.413208,0.6081543,0.4107056,0,-0.0078125,0,1,2,0
25.541,0.001011,0.2617188,0.005859375,0.2109375,-0.921875,-0.328125,6.984375,0.07421875,0.0078125,0.2109375,-0.2265625,-0.2714844,0,0.03771973,0.04541016,1.37793,0,0,1.136719,0.4957886,3.413,0,0,0,0.5200195,nan,2,0.015,1,128,0.5116272,0.4099121,0.6242371,0.4373779,-0.0009765625,-0.0078125,0,1,2,0
25.551,0.001007,0.09570312,-0.078125,0.1640625,3.429688,0.4375,-3.25,0.03515625,0.0078125,0.2265625,-0.2304688,-0.2714844,0,0.03833008,0.04528809,1.380005,0,0,1.136719,0.4957886,3.413,0,0,0,0.5200195,nan,2,0.025,1,128,0.5487061,0.3916016,0.631134,0.4117126,-0.0009765625,-0.008789062,0,1,2,0
25.561,0.001008,-0.1582031,-0.0546875,0.1855469,1.179688,3.882812,23.45312,-0.046875,0.001953125,0.203125,-0.2304688,-0.2714844,0,0.03833008,0.04541016,1.382202,0,0,1.136719,0.4957886,3.413,0,0,0,0.5200195,nan,2,0.035,1,128,0.5108948,0.4361267,0.5619202,0.4741821,-0.0009765625,-0.008789062,0,1,2,0
25.572,0.001008,-0.2890625,0.1445312,0.2304688,-2.59375,-3.148438,14.09375,-0.1347656,0.078125,0.21875,-0.2246094,-0.2734375,0,0.03759766,0.0456543,1.384399,0,0,1.136719,0.4957886,3.413,0,0,0,0.5200195,nan,2,0.045,1,128,0.5248718,0.3902588,0.5895386,0.4784851,-0.0009765625,-0.008789062,0,1,2,0
25.582,0.001008,-0.09960938,0.0625,0.2929688,-0.90625,-0.6484375,-0.359375,-0.1640625,0.04296875,0.25,-0.2167969,-0.2773438,0,0.03613281,0.04614258,1.386719,0,0,1.136719,0.4957886,3.413,0,0,0,0.5200195,nan,2,0.056,1,128,0.5784912,0.3592529,0.6341858,0.4112549,-0.001953125,-0.009765625,0,1,2,0
25.591,0.001012,-0.3457031,0.08789062,0.2324219,-1.820312,-5.882812,13.69531,-0.21875,0.06835938,0.2285156,-0.2089844,-0.2792969,0,0.03479004,0.04650879,1.388916,0,0,1.136719,0.4957886,3.413,0,0,0,0.5200195,nan,2,0.065,1,128,0.5241699,0.3987732,0.5708618,0.4893799,-0.001953125,-0.009765625,0,1,2,0
25.601,0.001008,-0.15625,0.1464844,0.3027344,-2.359375,-1.28125,7.085938,-0.2460938,0.05664062,0.2695312,-0.1953125,-0.2832031,0,0.03259277,0.04711914,1.391357,0,0,1.136719,0.4957886,3.413,0,0,0,0.5200195,nan,2,0.075,1,128,0.6073608,0.3249207,0.6524048,0.398468,-0.001953125,-0.009765625,0,1,2,0
25.611,0.001065,-0.1894531,0.04101562,0.2460938,-2.445312,8.03125,6.585938,-0.2539062,0.01367188,0.2519531,-0.1796875,-0.2851562,0,0.0300293,0.04736328,1.393799,0,0,1.136719,0.4957886,3.413,0,0,0,0.5200195,nan,2,0.085,1,128,0.5662842,0.3778076,0.6063843,0.4326782,-0.0009765625,-0.01074219,0,1,2,0
25.621,0.001008,-0.5195312,-0.3164062,0.2792969,12.39062,-4.960938,2.960938,-0.2949219,-0.08789062,0.2480469,-0.1660156,-0.2832031,0,0.02758789,0.04711914,1.39624,0,0,1.136719,0.4957886,3.413,0,0,0,0.5200195,nan,2,0.095,1,128,0.5888977,0.3840942,0.5755615,0.4346313,-0.0009765625,-0.01074219,0,1,2,0
25.631,0.001005,-0.421875,-0.2675781,0.1933594,6.804688,-0.6640625,-4.625,-0.3359375,-0.05078125,0.21875,-0.1484375,-0.2792969,0,0.02478027,0.04663086,1.398682,0,0,1.136719,0.4957886,3.413,0,0,0,0.5200195,nan,2,0.105,1,128,0.5180054,0.4317627,0.5180359,0.5153503,-0.0009765625,-0.01074219,0,1,2,0
25.641,0.001012,-0.15625,0.015625,0.21875,-8.03125,0.1875,19.3125,-0.265625,-0.04492188,0.2441406,-0.1308594,-0.2773438,0,0.02172852,0.04614258,1.401123,0,0,1.136719,0.4957886,3.338,0,0,0,0.5200195,nan,2,0.115,1,128,0.5509644,0.3920593,0.5958862,0.4442749,-0.0009765625,-0.01074219,0,1,2,0
25.651,0.001007,-0.2695312,0.2441406,0.2304688,-10.48438,7.65625,27.72656,-0.296875,-0.03515625,0.2363281,-0.1152344,-0.2714844,0,0.01904297,0.04541016,1.403564,0,0,1.136719,0.4957886,3.338,0,0,0,0.5200195,nan,2,0.125,1,128,0.5250244,0.4015503,0.560791,0.4957886,-0.0009765625,-0.01171875,0,1,2,0
25.661,0.001009,-0.2285156,-0.1015625,0.2792969,2,3.398438,-3.578125,-0.2480469,-0.0703125,0.2480469,-0.09765625,-0.2675781,0,0.01635742,0.04467773,1.406006,0,0,1.136719,0.4957886,3.338,0,0,0,0.5200195,nan,2,0.135,1,128,0.571167,0.3781738,0.6048584,0.4289551,-0.0009765625,-0.01171875,0,1,2,0
25.672,0.001009,-0.06835938,-0.08203125,0.2167969,-1.25,1.90625,2.242188,-0.1757812,-0.08984375,0.2441406,-0.0859375,-0.2636719,0,0.0144043,0.04382324,1.408447,0,0,1.136719,0.4957886,3.338,0,0,0,0.5200195,nan,2,0.145,1,128,0.5458679,0.4068298,0.5882568,0.4421997,-0.0009765625,-0.01171875,0,1,2,0
25.682,0.001009,0.09375,0.01367188,0.1796875,-3.984375,-0.109375,13.14844,-0.07617188,-0.08398438,0.2148438,-0.07617188,-0.2578125,0,0.01281738,0.04296875,1.410767,0,0,1.136719,0.4957886,3.338,0,0,0,0.5200195,nan,2,0.156,1,128,0.4789734,0.468689,0.5600281,0.4754944,0,-0.01171875,0,1,2,0
25.692,0.001009,-0.203125,-0.009765625,0.1992188,1.859375,4.757812,12.08594,-0.1054688,-0.07617188,0.2285156,-0.06835938,-0.2519531,0,0.01159668,0.04211426,1.413208,0,0,1.136719,0.4957886,3.338,0,0,0,0.5200195,nan,2,0.166,1,128,0.5150146,0.4269104,0.5666199,0.4746094,0,-0.01171875,0,1,2,0
25.701,0.001011,0.1289062,0.2675781,0.1601562,-10.46875,2.453125,22.41406,0.009765625,-0.04492188,0.2089844,-0.06640625,-0.2480469,0,0.0111084,0.04138184,1.415405,0,0,1.136719,0.4957886,3.338,0,0,0,0.5200195,nan,2,0.175,1,128,0.4477234,0.4749146,0.5569763,0.5035706,0,-0.01269531,0,1,2,0
25.711,0.001009,-0.08203125,-0.08984375,0.1582031,2.617188,-1.40625,13.67969,-0.046875,-0.06640625,0.2246094,-0.06640625,-0.2421875,0,0.01098633,0.04040527,1.417725,0,0,1.136719,0.4957886,3.338,0,0,0,0.5200195,nan,2,0.185,1,128,0.5084839,0.429718,0.5575562,0.4874268,0,-0.01269531,0,1,2,0
25.721,0.001009,0.078125,0.009765625,0.2167969,-3.601562,2.757812,19.69531,-0.00390625,-0.0390625,0.2324219,-0.06445312,-0.2382812,0,0.01074219,0.03979492,1.420044,0,0,1.136719,0.4957886,3.338,0,0,0,0.5200195,nan,2,0.195,1,128,0.5235596,0.4164124,0.5915222,0.4516296,-0.0009765625,-0.01269531,0,1,2,0
25.731,0.001008,-0.1015625,-0.08984375,0.2714844,-4.78125,8.726562,10.9375,-0.005859375,-0.1015625,0.2304688,-0.06445312,-0.234375,0,0.01086426,0.03894043,1.422363,0,0,1.136719,0.4957886,3.338,0,0,0,0.5200195,nan,2,0.205,1,128,0.5426025,0.4207153,0.5762024,0.4436035,-0.0009765625,-0.01269531,0,1,2,0
25.741,0.001006,-0.0703125,0,0.2363281,-2.554688,0.8203125,9.28125,-0.0546875,-0.01953125,0.2285156,-0.06445312,-0.2304688,0,0.01074219,0.03833008,1.424805,0,0,1.136719,0.4957886,3.338,0,0,0,0.5200195,nan,2,0.215,1,128,0.5183411,0.4070129,0.5757446,0.4820862,-0.0009765625,-0.01269531,0,1,2,0.5555556
25.752,0.001037,0.2714844,-0.0390625,0.2382812,-3.75,-2.84375,12.71875,0.0078125,-0.0390625,0.2363281,-0.0625,-0.2265625,0,0.01049805,0.0378418,1.427124,0,0,1.136719,0.4957886,3.338,0,0,0,0.5200195,nan,2,0.225,1,128,0.5326538,0.4100342,0.6091003,0.4313354,-0.0009765625,-0.01269531,0,1,2,0
25.762,0.001007,0.0859375,0.1015625,0.1816406,-1.851562,5.03125,8.09375,-0.01953125,-0.05273438,0.2226562,-0.0625,-0.2226562,0,0.01037598,0.03710938,1.429565,0,0,1.136719,0.4957886,3.338,0,0,0,0.5200195,nan,2,0.235,1,128,0.5006714,0.4371338,0.5656433,0.4797058,-0.0009765625,-0.01367188,0,1,2,0.03174603
25.772,0.001038,-0.1914062,-0.09765625,0.2402344,2.625,3.625,2.96875,-0.0546875,-0.04296875,0.2285156,-0.06054688,-0.21875,0,0.01000977,0.03649902,1.431885,0,0,1.136719,0.4957886,3.338,0,0,0,0.5200195,nan,2,0.245,1,128,0.5369263,0.399292,0.5903625,0.456604,-0.0009765625,-0.01367188,0,1,2,0
25.781,0.001014,0.02929688,0.08984375,0.1894531,-6.515625,4.601562,15.16406,-0.03320312,-0.03515625,0.2265625,-0.05664062,-0.2148438,0,0.009521484,0.03588867,1.434082,0,0,1.136719,0.4957886,3.338,0,0,0,0.5200195,nan,2,0.254,1,128,0.5040283,0.428894,0.5752563,0.4749756,-0.0009765625,-0.01367188,0,1,2,0
25.791,0.001012,-0.1503906,-0.0859375,0.2558594,5.8125,4.007812,5.554688,-0.04101562,-0.05664062,0.2480469,-0.0546875,-0.2109375,0,0.009155273,0.03515625,1.436401,0,0,1.136719,0.4957886,3.338,0,0,0,0.5200195,nan,2,0.265,1,128,0.5606384,0.3792114,0.6140747,0.4292297,-0.0009765625,-0.01367188,0,1,2,0
25.801,0.001011,-0.1230469,-0.2617188,0.2460938,9.75,-9.648438,-1.5625,-0.06640625,-0.08007812,0.2285156,-0.05273438,-0.2070312,0,0.008789062,0.03442383,1.438843,0,0,1.136719,0.4957886,3.338,0,0,0,0.5200195,nan,2,0.275,1,128,0.5375671,0.4177551,0.5661316,0.4617004,-0.0009765625,-0.01367188,0,1,2,0
25.811,0.001048,0.07421875,-0.2929688,0.2109375,3.101562,-6.976562,11.95312,-0.04492188,-0.1367188,0.2324219,-0.04882812,-0.2011719,0,0.008178711,0.03356934,1.441284,0,0,1.136719,0.4957886,3.338,0,0,0,0.5200195,nan,2,0.003,1,128,0.535675,0.4460449,0.5565186,0.4449463,-0.0009765625,-0.01367188,0,1,2,0
25.821,0.001009,-0.06835938,0.02734375,0.2460938,-6.015625,-0.65625,19.34375,-0.046875,-0.09960938,0.2421875,-0.046875,-0.1933594,0,0.0078125,0.03234863,1.443726,0,0,1.136719,0.4957886,3.338,0,0,0,0.5200195,nan,2,0.013,1,128,0.5392761,0.40625,0.5837402,0.4538879,-0.0009765625,-0.01367188,0,1,2,0
25.831,0.001014,0.08203125,-0.005859375,0.296875,1.421875,-5.414062,0.8125,-0.03710938,-0.1210938,0.2617188,-0.04492188,-0.1855469,0,0.007446289,0.03100586,1.446289,0,0,1.136719,0.4957886,3.338,0,0,0,0.5200195,nan,2,0.023,1,128,0.582489,0.3716431,0.6279297,0.401123,-0.0009765625,-0.01367188,0,1,2,0
25.841,0.001005,0.07421875,-0.2773438,0.2070312,4.296875,5.992188,1.664062,0,-0.1660156,0.2421875,-0.04296875,-0.1777344,0,0.007324219,0.02954102,1.44873,0,0,1.136719,0.4957886,3.338,0,0,0,0.5200195,nan,2,0.033,1,128,0.5366821,0.436615,0.5692749,0.4405823,-0.0009765625,-0.01367188,0,1,2,0
25.851,0.001011,0.01953125,-0.0625,0.2382812,-0.1171875,-1.34375,14.28125,0.05664062,-0.109375,0.265625,-0.04492188,-0.1679688,0,0.007568359,0.02807617,1.451294,0,0,1.136719,0.4957886,3.338,0,0,0,0.5200195,nan,2,0.043,1,128,0.5641785,0.3792725,0.6383972,0.4013062,-0.0009765625,-0.01464844,0,1,2,0
25.861,0.001009,-0.06640625,-0.1953125,0.2871094,3.726562,-9.101562,13.91406,0.06835938,-0.1347656,0.2441406,-0.05078125,-0.1601562,0,0.008300781,0.02685547,1.453735,0,0,1.136719,0.4957886,3.338,0,0,0,0.5200195,nan,2,0.053,1,128,0.5452881,0.4204712,0.5895081,0.427887,-0.0009765625,-0.01464844,0,1,2,0
25.872,0.001009,-0.01171875,-0.3398438,0.296875,8.109375,-6.242188,-0.421875,0.09960938,-0.1640625,0.2558594,-0.05664062,-0.1523438,0,0.009521484,0.02539062,1.456299,0,0,1.136719,0.4957886,3.338,0,0,0,0.5200195,nan,2,0.064,1,128,0.5721436,0.4100342,0.5986938,0.4022827,-0.0009765625,-0.01464844,0,1,2,0.01587302
25.882,0.001009,0.2050781,-0.2734375,0.25,1.0625,6.179688,11.39062,0.1347656,-0.1328125,0.2539062,-0.06445312,-0.1445312,0,0.01086426,0.02416992,1.458862,0,0,1.136719,0.4957886,3.338,0,0,0,0.5200195,nan,2,0.074,1,128,0.5394287,0.4293213,0.5935364,0.4208374,-0.0009765625,-0.01464844,0,1,2,0
25.892,0.001009,0.3027344,0.0390625,0.2910156,-8.328125,4.898438,16,0.1660156,-0.1035156,0.2695312,-0.07421875,-0.1386719,0,0.0123291,0.02294922,1.461426,0,0,1.136719,0.4957886,3.338,0,0,0,0.5200195,nan,2,0.084,1,128,0.5653381,0.3904114,0.6470642,0.3803711,-0.001953125,-0.01464844,0,1,2,0
25.901,0.001011,0.1894531,-0.2304688,0.2480469,1.882812,5.304688,6.5625,0.140625,-0.125,0.2460938,-0.08203125,-0.1328125,0,0.01367188,0.02209473,1.463745,0,0,1.136719,0.4957886,3.338,0,0,0,0.5200195,nan,2,0.093,1,128,0.5258484,0.4490051,0.5731812,0.4351196,-0.001953125,-0.01464844,0,1,2,0
25.911,0.001009,0.2304688,-0.02929688,0.2578125,-8.21875,10.25,17.8125,0.1484375,-0.08203125,0.2675781,-0.08984375,-0.1269531,0,0.01513672,0.02124023,1.466431,0,0,1.136719,0.4957886,3.338,0,0,0,0.5200195,nan,2,0.103,1,128,0.5470276,0.4127502,0.618988,0.4044189,-0.001953125,-0.01464844,0,1,2,0
25.921,0.001009,-0.03710938,-0.15625,0.2519531,7.210938,1.335938,18.52344,0.06835938,-0.005859375,0.265625,-0.09570312,-0.125,0,0.01611328,0.02075195,1.469116,0,0,1.136719,0.4957886,3.338,0,0,0,0.5200195,nan,2,0.113,1,128,0.5476074,0.3867798,0.6184998,0.4302673,-0.001953125,-0.01464844,0,1,2,0
25.931,0.001009,-0.0078125,-0.2832031,0.2519531,8.945312,-9.148438,8.90625,0.05078125,-0.08984375,0.2617188,-0.09960938,-0.1210938,0,0.01672363,0.0201416,1.471802,0,0,1.136719,0.4957886,3.338,0,0,0,0.5200195,nan,2,0.123,1,128,0.5444641,0.4311829,0.5790405,0.4284973,-0.001953125,-0.01464844,0,1,2,0
25.941,0.001013,0.1113281,-0.1152344,0.2695312,3.140625,-6.546875,3.695312,0.005859375,-0.05664062,0.265625,-0.1015625,-0.1191406,0,0.01708984,0.01977539,1.474487,0,0,1.136719,0.4957886,3.338,0,0,0,0.5200195,nan,2,0.133,1,128,0.5560913,0.4060364,0.5971069,0.4239502,-0.001953125,-0.01464844,0,1,2,0
25.951,0.001008,0.0234375,-0.015625,0.2519531,-5.164062,4.039062,5.859375,0.01953125,-0.03125,0.2617188,-0.1035156,-0.1171875,0,0.01733398,0.01940918,1.477051,0,0,1.136719,0.4957886,3.338,0,0,0,0.5200195,nan,2,0.143,1,128,0.5460815,0.4085083,0.6025085,0.4260559,-0.002929688,-0.01464844,0,1,2,0
25.962,0.001036,-0.01757812,0.1132812,0.2675781,-9.523438,13.27344,16.03906,-0.01171875,-0.02148438,0.2617188,-0.1035156,-0.1152344,0,0.01733398,0.01916504,1.479736,0,0,1.136719,0.4957886,3.338,0,0,0,0.5200195,nan,2,0.154,1,128,0.5484009,0.403595,0.6006165,0.4305115,-0.002929688,-0.01464844,0,1,2,0
25.972,0.001026,-0.09375,0.2421875,0.265625,-8.3125,6.25,24.03906,-0.03710938,0.046875,0.2714844,-0.1035156,-0.1152344,0,0.01721191,0.01916504,1.482422,0,0,1.136719,0.4957886,3.338,0,0,0,0.5200195,nan,2,0.164,1,128,0.5516052,0.3672791,0.6303101,0.4339294,-0.002929688,-0.01464844,0,1,2,0
25.982,0.001009,-0.08789062,0.08789062,0.296875,0.2734375,-9.5,7.835938,-0.046875,-0.0078125,0.2753906,-0.1015625,-0.1132812,0,0.0168457,0.01879883,1.485107,0,0,1.136719,0.4957886,3.338,0,0,0,0.5200195,nan,2,0.009,1,128,0.5681458,0.3779907,0.6183472,0.4186401,-0.002929688,-0.01464844,0,1,2,0
25.992,0.001009,-0.109375,-0.046875,0.2832031,9.617188,-8.515625,2.890625,-0.08984375,0.009765625,0.2597656,-0.09765625,-0.1132812,0,0.01623535,0.01879883,1.487671,0,0,1.136719,0.4957886,3.338,0,0,0,0.5200195,nan,2,0.019,1,128,0.5609741,0.3804626,0.6077271,0.4339905,-0.002929688,-0.01464844,0,1,2,0
26.001,0.001007,-0.1855469,0.1523438,0.2675781,0.2421875,-5.34375,10.8125,-0.140625,0.05859375,0.2578125,-0.09179688,-0.1132812,0,0.01513672,0.01879883,1.490112,0,0,1.136719,0.4957886,3.338,0,0,0,0.5200195,nan,2,0.028,1,128,0.5390625,0.3803406,0.5976868,0.466095,-0.002929688,-0.015625,0,1,2,0
26.011,0.001009,-0.0859375,-0.1582031,0.2480469,6.023438,-8.992188,2.851562,-0.1777344,-0.009765625,0.2675781,-0.08203125,-0.1132812,0,0.0135498,0.01879883,1.492798,0,0,1.136719,0.4957886,3.338,0,0,0,0.5200195,nan,2,0.038,1,128,0.5654907,0.3921814,0.5867615,0.4387512,-0.002929688,-0.015625,0,1,2,0
26.021,0.001066,-0.2402344,0.1640625,0.2519531,-8.328125,1.757812,21.23438,-0.2304688,-0.015625,0.2402344,-0.06835938,-0.1113281,0,0.01135254,0.01843262,1.495361,0,0,1.136719,0.4957886,3.338,0,0,0,0.5200195,nan,2,0.049,1,128,0.5345764,0.4077759,0.5599365,0.480896,-0.002929688,-0.015625,0,1,2,0
26.031,0.001011,-0.2734375,0.109375,0.2871094,-5.304688,-0.5625,18.25781,-0.2265625,-0.03710938,0.2597656,-0.0546875,-0.1074219,0,0.009155273,0.01806641,1.498047,0,0,1.136719,0.4957886,3.338,0,0,0,0.5200195,nan,2,0.059,1,128,0.5567017,0.393158,0.5768433,0.4564514,-0.001953125,-0.015625,0,1,2,0
26.041,0.001009,-0.2753906,-0.07226562,0.3261719,2.632812,2.492188,5.75,-0.2285156,-0.06835938,0.2636719,-0.04101562,-0.1054688,0,0.006958008,0.01757812,1.50061,0,0,1.136719,0.4957886,3.338,0,0,0,0.5200195,nan,2,0.069,1,128,0.5980835,0.3721313,0.5964966,0.4164429,-0.001953125,-0.015625,0,1,2,0
26.051,0.00101,-0.1035156,0.078125,0.2460938,-1.554688,5.335938,9.703125,-0.2148438,0.03710938,0.25,-0.02929688,-0.1054688,0,0.004760742,0.01757812,1.503174,0,0,1.136719,0.4957886,3.338,0,0,0,0.5200195,nan,2,0.079,1,128,0.5303345,0.394043,0.5800171,0.4787598,-0.001953125,-0.015625,0,1,2,0
26.061,0.001008,-0.015625,0.2480469,0.2578125,-5.148438,-2.351562,1.8125,-0.1640625,0.08398438,0.2675781,-0.01757812,-0.1074219,0,0.002807617,0.01794434,1.505859,0,0,1.136719,0.4957886,3.338,0,0,0,0.5200195,nan,2,0.089,1,128,0.5551147,0.3624268,0.6306763,0.4349365,-0.001953125,-0.015625,0,1,2,0
26.072,0.001009,-0.2382812,0.2890625,0.2460938,-4.023438,-0.921875,0.34375,-0.1621094,0.1269531,0.2402344,-0.005859375,-0.1132812,0,0.001098633,0.01867676,1.508423,0,0,1.136719,0.4957886,3.338,0,0,0,0.5200195,nan,2,0.099,1,128,0.5091553,0.3994446,0.5771484,0.497406,-0.001953125,-0.015625,0,1,2,0
26.082,0.001022,-0.3359375,-0.046875,0.2128906,6.398438,-0.359375,6.695312,-0.1699219,0.1210938,0.2519531,0.00390625,-0.1191406,0,-0.0006103516,0.01977539,1.510986,0,0,1.136719,0.4957886,3.338,0,0,0,0.5200195,nan,2,0.109,1,128,0.5307312,0.3946533,0.5744934,0.4832458,-0.001953125,-0.01660156,0,1,2,0
26.092,0.001009,-0.2226562,-0.09570312,0.2402344,8.445312,-7.195312,16.07031,-0.1582031,0.09179688,0.2539062,0.01171875,-0.125,0,-0.002075195,0.02099609,1.513672,0,0,1.136719,0.4957886,3.338,0,0,0,0.5200195,nan,2,0.119,1,128,0.5477905,0.3952942,0.5731201,0.4669495,-0.0009765625,-0.01660156,0,1,2,0
26.101,0.001011,-0.3164062,0.1777344,0.2929688,5.0625,-5.085938,-8,-0.1445312,0.1367188,0.2597656,0.01953125,-0.1328125,0,-0.003173828,0.02209473,1.515991,0,0,1.136719,0.4957886,3.338,0,0,0,0.5200195,nan,2,0.128,1,128,0.5622559,0.3547363,0.6135254,0.4526062,-0.0009765625,-0.01660156,0,1,2,0
26.111,0.001009,-0.1757812,0.005859375,0.1816406,3.492188,1.320312,9,-0.140625,0.1289062,0.2265625,0.02734375,-0.140625,0,-0.004516602,0.02331543,1.518555,0,0,1.136719,0.4957886,3.338,0,0,0,0.5200195,nan,2,0.138,1,128,0.4935608,0.4284973,0.5385437,0.522522,-0.0009765625,-0.01660156,0,1,2,0.6190476
26.121,0.001009,-0.2734375,-0.03515625,0.2148438,0.8203125,2.640625,23.75781,-0.1738281,0.08203125,0.2558594,0.03710938,-0.1464844,0,-0.006103516,0.02453613,1.521118,0,0,1.136719,0.4957886,3.338,0,0,0,0.5200195,nan,2,0.148,1,128,0.5603638,0.381897,0.5782776,0.462616,-0.0009765625,-0.01757812,0,1,2,0
26.131,0.001009,-0.0859375,-0.07421875,0.2949219,2.914062,-4.28125,27.17969,-0.1777344,0.04492188,0.2421875,0.046875,-0.1523438,0,-0.00769043,0.02539062,1.52356,0,0,1.136719,0.4957886,3.338,0,0,0,0.5200195,nan,2,0.159,1,128,0.5664673,0.3806458,0.5826721,0.4533386,-0.0009765625,-0.01757812,0,1,2,0
26.141,0.001015,-0.06640625,-0.03515625,0.2636719,-1.867188,2.710938,14.23438,-0.1953125,0.015625,0.2363281,0.05859375,-0.15625,0,-0.009765625,0.02587891,1.526001,0,0,1.136719,0.4957886,3.338,0,0,0,0.5200195,nan,2,0.169,1,128,0.54776,0.4059448,0.5593567,0.4700928,0,-0.01757812,0,1,2,0
26.151,0.001014,-0.1132812,0.2441406,0.2148438,-6.085938,6.28125,2.632812,-0.1640625,0.04492188,0.2324219,0.06835938,-0.1582031,0,-0.01147461,0.02636719,1.528564,0,0,1.136719,0.4957886,3.338,0,0,0,0.5200195,nan,2,0.179,1,128,0.51474,0.4088135,0.5577393,0.5018616,0,-0.01757812,0,1,2,0
26.161,0.001006,-0.07617188,0.06445312,0.2792969,-3,1.570312,25.16406,-0.1210938,-0.02929688,0.2441406,0.07617188,-0.1582031,0,-0.01281738,0.02636719,1.530884,0,0,1.136719,0.4957886,3.338,0,0,0,0.5200195,nan,2,0.189,1,128,0.5708008,0.3813171,0.5934753,0.437561,0,-0.01757812,0,1,2,0
26.172,0.001012,0.07617188,0.05859375,0.2714844,-3.054688,1.757812,21.46875,-0.109375,-0.0390625,0.2363281,0.08398438,-0.15625,0,-0.01403809,0.02624512,1.533325,0,0,1.136719,0.4957886,3.338,0,0,0,0.5200195,nan,2,0.199,1,128,0.5491028,0.3987732,0.5780334,0.4572449,0,-0.01855469,0,1,2,0
26.182,0.001,0.09570312,-0.04101562,0.2714844,-6.460938,10.50781,0.3671875,-0.04882812,-0.1035156,0.2480469,0.08984375,-0.1523438,0,-0.01501465,0.0255127,1.535889,0,0,1.136719,0.4957886,3.338,0,0,0,0.5200195,nan,2,0.006,1,128,0.5625305,0.397644,0.5972595,0.4257202,0,-0.01855469,0,1,2,0
26.191,0.001067,0.1679688,-0.1699219,0.2207031,-5.265625,1.445312,30.46875,0,-0.1953125,0.2382812,0.09179688,-0.1445312,0,-0.01538086,0.02416992,1.538086,0,0,1.136719,0.4957886,3.338,0,0,0,0.5200195,nan,2,0.015,1,128,0.5478516,0.440094,0.5592041,0.4360046,0.0009765625,-0.01855469,0,1,2,0
26.201,0.000955,0.05078125,-0.15625,0.2714844,-3.523438,5.625,19.375,0.05078125,-0.2441406,0.2441406,0.08984375,-0.1328125,0,-0.01501465,0.0222168,1.540649,0,0,1.136719,0.4957886,3.338,0,0,0,0.5200195,nan,2,0.025,1,128,0.5573425,0.4275818,0.570282,0.427948,0.0009765625,-0.01855469,0,1,2,0
26.211,0.001008,0.07421875,-0.3828125,0.2636719,1.054688,3.421875,4.3125,0.0546875,-0.2714844,0.2480469,0.0859375,-0.1191406,0,-0.0144043,0.01977539,1.543091,0,0,1.136719,0.4957886,3.338,0,0,0,0.5200195,nan,2,0.035,1,128,0.5784912,0.4075317,0.5814819,0.4156189,0.0009765625,-0.01757812,0,1,2,0
26.221,0.001008,0.07421875,-0.2070312,0.21875,-1.53125,7.171875,0.9140625,0.07226562,-0.2832031,0.2441406,0.08007812,-0.1015625,0,-0.01330566,0.01696777,1.545532,0,0,1.136719,0.4957886,3.338,0,0,0,0.5200195,nan,2,0.045,1,128,0.5846252,0.4005737,0.5762329,0.4216919,0.0009765625,-0.01757812,0,1,2,0
26.231,0.001008,0.05078125,-0.1425781,0.21875,-0.4453125,-4.960938,14.64844,0.09570312,-0.1953125,0.2265625,0.07421875,-0.0859375,0,-0.0123291,0.01428223,1.547852,0,0,1.136719,0.4957886,3.338,0,0,0,0.5200195,nan,2,0.056,1,128,0.5363159,0.4095459,0.5846252,0.4526367,0.0009765625,-0.01757812,0,1,2,0
26.241,0.001016,0.09960938,-0.4472656,0.2851562,10.30469,-12.09375,-3.453125,0.1777344,-0.2773438,0.25,0.06445312,-0.0703125,0,-0.01074219,0.01171875,1.550293,0,0,1.136719,0.4957886,3.338,0,0,0,0.5200195,nan,2,0.066,1,128,0.5873413,0.4082947,0.6086121,0.3789062,0.0009765625,-0.01757812,0,1,2,0
26.251,0.001002,0.1347656,-0.4101562,0.1875,7.539062,-1.632812,8.859375,0.1777344,-0.2402344,0.2109375,0.05273438,-0.05664062,0,-0.008666992,0.009521484,1.552612,0,0,1.136719,0.4957886,3.338,0,0,0,0.5200195,nan,2,0.076,1,128,0.5256042,0.4645386,0.5349426,0.4580994,0,-0.01757812,0,1,2,0
26.261,0.00101,0.25,-0.1425781,0.1914062,-5.59375,3.671875,26.11719,0.203125,-0.1503906,0.2226562,0.04101562,-0.046875,0,-0.006835938,0.0078125,1.554932,0,0,1.136719,0.4957886,3.338,0,0,0,0.5200195,nan,2,0.086,1,128,0.5212097,0.4406738,0.5776062,0.4436951,0,-0.01757812,0,1,2,0
26.272,0.001006,0.0859375,0.1640625,0.2773438,-9.148438,4.757812,11.10156,0.1542969,-0.09960938,0.2265625,0.02929688,-0.0390625,0,-0.004882812,0.006347656,1.557129,0,0,1.136719,0.4957886,3.338,0,0,0,0.5200195,nan,2,0.096,1,128,0.5563049,0.3879089,0.6062622,0.4326782,0,-0.01757812,0,1,2,0
26.282,0.001008,0.0546875,0.04101562,0.2949219,-3.382812,2.351562,4.007812,0.1386719,-0.07421875,0.2363281,0.01953125,-0.03320312,0,-0.003295898,0.005371094,1.559448,0,0,1.136719,0.4957886,3.338,0,0,0,0.5200195,nan,2,0.106,1,128,0.5696716,0.3811035,0.6181335,0.4142456,0,-0.01757812,0,1,2,0
26.292,0.001008,0.1660156,0.03710938,0.234375,-0.1875,-4.773438,23.02344,0.1191406,-0.05078125,0.2265625,0.01171875,-0.02734375,0,-0.001953125,0.004638672,1.561768,0,0,1.136719,0.4957886,3.319,0,0,0,0.5200195,nan,2,0.116,1,128,0.5445557,0.405304,0.5921021,0.4412231,0,-0.01660156,0,1,2,0
26.301,0.001011,-0.01171875,0.0078125,0.2714844,0.0234375,1.492188,-4.125,0.06835938,-0.05859375,0.2226562,0.005859375,-0.0234375,0,-0.001098633,0.00402832,1.563843,0,0,1.136719,0.4957886,3.319,0,0,0,0.5200195,nan,2,0.125,1,128,0.545105,0.4099121,0.5781555,0.4500122,0,-0.01660156,0,1,2,0
26.311,0.001009,0.1054688,-0.005859375,0.2070312,-2.203125,-5.257812,16.17969,0.03320312,-0.04492188,0.2207031,0.00390625,-0.01953125,0,-0.0006103516,0.003417969,1.566162,0,0,1.136719,0.4957886,3.319,0,0,0,0.5200195,nan,2,0.135,1,128,0.5353088,0.4200439,0.5671692,0.4606323,0,-0.01660156,0,1,2,0
26.321,0.001009,0.1171875,0.078125,0.1894531,-0.5546875,3.046875,12.29688,0,-0.046875,0.2226562,0.00390625,-0.015625,0,-0.0006103516,0.002807617,1.568481,0,0,1.136719,0.4957886,3.319,0,0,0,0.5200195,nan,2,0.145,1,128,0.5279541,0.4255371,0.5685425,0.4611206,0,-0.01660156,0,1,2,0
26.331,0.001009,-0.1699219,-0.08007812,0.3183594,0.8828125,-3.179688,17.89062,-0.08007812,-0.1074219,0.2441406,0.005859375,-0.01171875,0,-0.0009765625,0.001953125,1.570801,0,0,1.136719,0.4957886,3.319,0,0,0,0.5200195,nan,2,0.156,1,128,0.605072,0.3762207,0.585144,0.416748,0,-0.01660156,0,1,2,0
26.341,0.001011,-0.09179688,-0.1875,0.2792969,0.9375,6.59375,5.664062,-0.1269531,-0.078125,0.2402344,0.01171875,-0.0078125,0,-0.001953125,0.001342773,1.573242,0,0,1.136719,0.4957886,3.319,0,0,0,0.5200195,nan,2,0.166,1,128,0.5794678,0.39328,0.5682373,0.4421692,0,-0.01660156,0,1,2,0
26.351,0.001006,0.03515625,0.078125,0.2734375,-6.984375,3.71875,12.54688,-0.09375,-0.0703125,0.25,0.01757812,-0.001953125,0,-0.003051758,0.0004882812,1.575684,0,0,1.136719,0.4957886,3.319,0,0,0,0.5200195,nan,2,0.176,1,128,0.5832825,0.3779602,0.6057739,0.4161377,0,-0.01660156,0,1,2,0
26.361,0.001008,-0.109375,0.09375,0.2558594,-6.4375,3,6.234375,-0.1308594,-0.06835938,0.2285156,0.02539062,0.001953125,0,-0.004394531,-0.0003662109,1.578125,0,0,1.136719,0.4957886,3.319,0,0,0,0.5200195,nan,2,0.186,1,128,0.5529175,0.4072266,0.5625305,0.4604492,0,-0.01660156,0,1,2,0.1746032
26.372,0.001007,-0.3242188,-0.05664062,0.2265625,2.507812,-0.703125,0.1484375,-0.1523438,-0.06054688,0.2226562,0.03515625,0.005859375,0,-0.005981445,-0.0009765625,1.580444,0,0,1.136719,0.4957886,3.319,0,0,0,0.5200195,nan,2,0.196,1,128,0.5510864,0.4132385,0.5521545,0.4667053,0,-0.01660156,0,1,2,0
26.381,0.001002,-0.15625,0.2382812,0.2089844,-6.71875,6.664062,8.195312,-0.1425781,-0.01757812,0.2109375,0.04492188,0.009765625,0,-0.007446289,-0.001586914,1.58252,0,0,1.136719,0.4957886,3.319,0,0,0,0.5200195,nan,2,0.004,1,128,0.5124207,0.4260559,0.5439453,0.5007324,0.0009765625,-0.01660156,0,1,2,0
26.391,0.001063,-0.2265625,-0.05273438,0.1992188,4.226562,-2.851562,-1.679688,-0.1855469,-0.009765625,0.2109375,0.05664062,0.01171875,0,-0.009277344,-0.001831055,1.584839,0,0,1.136719,0.4957886,3.319,0,0,0,0.5200195,nan,2,0.014,1,128,0.5242615,0.4272766,0.5319824,0.4996338,0.0009765625,-0.01660156,0,1,2,0
26.401,0.001009,-0.1503906,-0.04296875,0.2285156,7.921875,-13.88281,9.203125,-0.1679688,-0.0078125,0.2285156,0.06640625,0.01171875,0,-0.01098633,-0.001831055,1.587036,0,0,1.136719,0.4957886,3.319,0,0,0,0.5200195,nan,2,0.024,1,128,0.5828857,0.3838806,0.5743408,0.4420471,0.0009765625,-0.01660156,0,1,2,0
26.411,0.001009,-0.1054688,-0.1132812,0.1738281,5.617188,0.7265625,6.796875,-0.1523438,0.05859375,0.1933594,0.07617188,0.0078125,0,-0.01281738,-0.001220703,1.589233,0,0,1.136719,0.4957886,3.319,0,0,0,0.5200195,nan,2,0.034,1,128,0.4971313,0.4541626,0.5173035,0.5145874,0.0009765625,-0.01660156,0,1,2,0
26.421,0.001009,-0.2871094,-0.0078125,0.1933594,-0.359375,4.710938,20.92969,-0.1484375,0.07226562,0.21875,0.0859375,0.001953125,0,-0.01428223,-0.0002441406,1.591431,0,0,1.136719,0.4957886,3.319,0,0,0,0.5200195,nan,2,0.044,1,128,0.559082,0.3956909,0.5618896,0.4664917,0.001953125,-0.01660156,0,1,2,0
26.431,0.001037,0.08203125,0.2402344,0.2167969,-4.078125,5.007812,14.17969,-0.07617188,0.1035156,0.2089844,0.09375,-0.00390625,0,-0.01550293,0.0007324219,1.593628,0,0,1.136719,0.4957886,3.319,0,0,0,0.5200195,nan,2,0.055,1,128,0.5274963,0.40979,0.5750122,0.4708252,0.001953125,-0.01660156,0,1,2,0
26.441,0.001012,-0.01953125,0.3886719,0.2050781,-7.125,5.6875,21.78125,-0.08007812,0.1230469,0.21875,0.09960938,-0.009765625,0,-0.01660156,0.001586914,1.595825,0,0,1.136719,0.4957886,3.319,0,0,0,0.5200195,nan,2,0.065,1,128,0.5335999,0.3914795,0.5839233,0.4741516,0.001953125,-0.01660156,0,1,2,0
26.451,0.001035,-0.1113281,0.09375,0.2226562,2.640625,0.390625,-9.21875,-0.0390625,0.109375,0.2148438,0.1035156,-0.015625,0,-0.01721191,0.002685547,1.598022,0,0,1.136719,0.4957886,3.319,0,0,0,0.5200195,nan,2,0.075,1,128,0.5341492,0.4022827,0.5769958,0.4697571,0.001953125,-0.01660156,0,1,2,0
26.462,0.000996,-0.1035156,0.01367188,0.171875,6.515625,-11.53125,7.96875,-0.0625,0.1367188,0.2070312,0.1054688,-0.0234375,0,-0.01745605,0.00390625,1.60022,0,0,1.136719,0.4957886,3.319,0,0,0,0.5200195,nan,2,0.085,1,128,0.525238,0.4064941,0.5502319,0.5012207,0.001953125,-0.01660156,0,1,2,0
26.472,0.001045,0.09960938,0.07421875,0.2207031,3.554688,-2.390625,8.875,0.01171875,0.1289062,0.2246094,0.1054688,-0.03125,0,-0.0177002,0.005126953,1.602295,0,0,1.136719,0.5,3.319,0,0,0,0.5250244,nan,2,0,1,128,0.5661011,0.3762817,0.6213074,0.4363098,0.001953125,-0.01757812,0,1,2,0.07936508
26.482,0.001009,-0.1152344,-0.1269531,0.2246094,1.679688,6.25,14.60938,0.02148438,0.06640625,0.2246094,0.1035156,-0.03710938,0,-0.01733398,0.006347656,1.604492,0,0,1.136719,0.5,3.319,0,0,0,0.5250244,nan,2,0.01,1,128,0.5676575,0.4042969,0.5752563,0.4528198,0.002929688,-0.01757812,0,1,2,0
26.492,0.001009,-0.03125,0.046875,0.2753906,2.625,-5.375,18.22656,0.06445312,0.109375,0.2089844,0.1015625,-0.04492188,0,-0.0168457,0.007568359,1.606689,0,0,1.136719,0.5,3.319,0,0,0,0.5250244,nan,2,0.02,1,128,0.5425415,0.4052734,0.5876465,0.4645386,0.002929688,-0.01757812,0,1,2,0
26.501,0.001007,-0.005859375,0.1347656,0.1855469,5.34375,0.53125,21.77344,0.08984375,0.1445312,0.2226562,0.09570312,-0.05078125,0,-0.01611328,0.008544922,1.608765,0,0,1.136719,0.5,3.319,0,0,0,0.5250244,nan,2,0.029,1,128,0.5202332,0.4033203,0.5946655,0.481781,0.002929688,-0.01757812,0,1,2,0
26.511,0.001009,0.1015625,-0.2011719,0.2460938,8.8125,-11.21094,11.72656,0.1113281,0.03320312,0.2285156,0.08984375,-0.05664062,0,-0.01489258,0.009521484,1.611084,0,0,1.136719,0.5,3.319,0,0,0,0.5250244,nan,2,0.039,1,128,0.5563354,0.4199219,0.5778809,0.4458923,0.002929688,-0.01757812,0,1,2,0
26.521,0.001009,0.1113281,-0.1542969,0.2382812,1.96875,1.53125,-1.351562,0.1015625,0.009765625,0.21875,0.08203125,-0.0625,0,-0.01367188,0.01025391,1.613281,0,0,1.136719,0.5,3.319,0,0,0,0.5250244,nan,2,0.049,1,128,0.5567322,0.4259644,0.5697021,0.4476318,0.002929688,-0.01757812,0,1,2,0
26.531,0.001009,0.1523438,-0.1035156,0.2402344,3.929688,-1.429688,-11.03906,0.1582031,0.02929688,0.2148438,0.07421875,-0.06445312,0,-0.0123291,0.01062012,1.615479,0,0,1.136719,0.5,3.319,0,0,0,0.5250244,nan,2,0.06,1,128,0.5227051,0.4318848,0.5863647,0.4590759,0.001953125,-0.01757812,0,1,2,0
26.541,0.001005,0.1210938,0.06054688,0.1972656,1.53125,-1.835938,-9.851562,0.1054688,0.005859375,0.2207031,0.06445312,-0.0625,0,-0.01086426,0.01049805,1.617676,0,0,1.136719,0.5,3.319,0,0,0,0.5250244,nan,2,0.07,1,128,0.5571289,0.39328,0.5951538,0.4544373,0.001953125,-0.01757812,0,1,2,0
26.552,0.001052,0.1738281,0.08203125,0.1679688,-2.890625,-0.828125,27.25,0.1230469,0.00390625,0.2011719,0.05859375,-0.06445312,0,-0.009765625,0.01062012,1.619751,0,0,1.136719,0.5,3.319,0,0,0,0.5250244,nan,2,0.08,1,128,0.5213928,0.4328003,0.5781555,0.4676514,0.001953125,-0.01855469,0,1,2,0
26.562,0.001013,0.02929688,-0.2753906,0.2070312,7.734375,-0.671875,8.523438,0.1503906,-0.06835938,0.2089844,0.05078125,-0.06054688,0,-0.008422852,0.01025391,1.621948,0,0,1.136719,0.5,3.319,0,0,0,0.5250244,nan,2,0.09,1,128,0.5432434,0.4368896,0.5778198,0.4420471,0.001953125,-0.01855469,0,1,2,0
26.572,0.001011,-0.07617188,-0.3027344,0.1699219,10.42969,-5.789062,-6.828125,0.07421875,-0.1054688,0.1816406,0.04296875,-0.05664062,0,-0.007202148,0.009521484,1.623901,0,0,1.136719,0.5,3.319,0,0,0,0.5250244,nan,2,0.1,1,128,0.5187988,0.4688721,0.5154419,0.4968872,0.001953125,-0.01855469,0,1,2,0
26.582,0.001009,0.2011719,-0.1152344,0.2070312,-6.882812,-2.007812,15.28125,0.1015625,-0.109375,0.1953125,0.0390625,-0.05273438,0,-0.006347656,0.008911133,1.625854,0,0,1.136719,0.5042114,3.319,0,0,0,0.5300293,nan,2,0.009,1,128,0.5613098,0.434906,0.5836487,0.4369812,0.001953125,-0.01855469,0,1,2,0
26.591,0.001018,-0.01171875,-0.2695312,0.171875,5.992188,-1.8125,1.601562,0.06835938,-0.1699219,0.2089844,0.03320312,-0.046875,0,-0.005737305,0.00769043,1.627686,0,0,1.136719,0.5042114,3.319,0,0,0,0.5300293,nan,2,0.018,1,128,0.5689392,0.438324,0.5657654,0.4438171,0.001953125,-0.01757812,0,1,2,0
26.601,0.001027,0.05078125,0.03320312,0.2421875,-10.02344,1.328125,15.78906,0.03710938,-0.1269531,0.1914062,0.03125,-0.0390625,0,-0.005126953,0.006347656,1.629639,0,0,1.136719,0.5042114,3.319,0,0,0,0.5300293,nan,2,0.028,1,128,0.5615845,0.4200134,0.5806885,0.4545593,0.001953125,-0.01757812,0,1,2,0
26.611,0.001009,0.015625,-0.009765625,0.2226562,-5.039062,4.648438,8.039062,0.06640625,-0.08398438,0.2128906,0.02734375,-0.03125,0,-0.004516602,0.005249023,1.631714,0,0,1.136719,0.5042114,3.319,0,0,0,0.5300293,nan,2,0.038,1,128,0.56073,0.4064941,0.600769,0.4488525,0.001953125,-0.01757812,0,1,2,0
26.621,0.001009,0.2285156,-0.05273438,0.2011719,0.65625,-0.3984375,16.10938,0.08789062,-0.06445312,0.1992188,0.02148438,-0.02539062,0,-0.003662109,0.004272461,1.633667,0,0,1.136719,0.5042114,3.319,0,0,0,0.5300293,nan,2,0.048,1,128,0.5400391,0.4261169,0.5932922,0.4573975,0.001953125,-0.01757812,0,1,2,0
26.631,0.001009,-0.01367188,-0.005859375,0.1855469,-1.5625,3.039062,25.52344,0.09179688,-0.03320312,0.2011719,0.01757812,-0.0234375,0,-0.002807617,0.00378418,1.635742,0,0,1.136719,0.5042114,3.319,0,0,0,0.5300293,nan,2,0.059,1,128,0.5363464,0.4337158,0.5836792,0.4631042,0.001953125,-0.01757812,0,1,2,0
26.641,0.001008,0.02734375,0.01757812,0.2285156,-1.789062,0.3828125,16.13281,0.09375,0.01367188,0.1972656,0.009765625,-0.0234375,0,-0.001708984,0.00378418,1.637817,0,0,1.136719,0.5042114,3.319,0,0,0,0.5300293,nan,2,0.069,1,128,0.5315247,0.428833,0.5826416,0.4738464,0.001953125,-0.01757812,0,1,2,0
26.651,0.001013,0.0859375,0.04492188,0.2285156,0.4609375,-0.4609375,-14.64062,0.06640625,0.03515625,0.2148438,0.005859375,-0.02539062,0,-0.0008544922,0.004150391,1.639771,0,0,1.136719,0.5042114,3.319,0,0,0,0.5300293,nan,2,0.079,1,128,0.569519,0.3939514,0.612793,0.4405823,0.001953125,-0.01757812,0,1,2,0
26.661,0.001007,0.2597656,0.2871094,0.1601562,-7.523438,3.59375,24.625,0.09960938,0.1074219,0.1953125,0.001953125,-0.02929688,0,-0.0001220703,0.005004883,1.641846,0,0,1.136719,0.5042114,3.319,0,0,0,0.5300293,nan,2,0.089,1,128,0.5054016,0.4359131,0.595459,0.480072,0.001953125,-0.01757812,0,1,2,0
26.671,0.001009,-0.03320312,0.1875,0.1425781,0.859375,-1.898438,28.98438,0.01757812,0.140625,0.1953125,-0.001953125,-0.03515625,0,0.0004882812,0.005981445,1.643921,0,0,1.136719,0.5042114,3.319,0,0,0,0.5300293,nan,2,0.099,1,128,0.5020447,0.4284973,0.5658569,0.5204468,0.001953125,-0.01855469,0,1,2,0
26.682,0.001009,-0.2519531,-0.1054688,0.2382812,13.17969,-7.171875,-9.085938,-0.04882812,0.09179688,0.2128906,-0.001953125,-0.04101562,0,0.0003662109,0.006958008,1.645996,0,0,1.136719,0.5042114,3.319,0,0,0,0.5300293,nan,2,0.109,1,128,0.577301,0.3849792,0.5921631,0.4624329,0.001953125,-0.01855469,0,1,2,0
26.692,0.001009,-0.03710938,0.03125,0.2050781,-1.117188,1.0625,2.890625,-0.02734375,0.1054688,0.1992188,-0.001953125,-0.05078125,0,0.0002441406,0.008300781,1.647949,0,0,1.136719,0.5042114,3.319,0,0,0,0.5300293,nan,2,0.119,1,128,0.5426636,0.4182129,0.5795288,0.4764709,0.001953125,-0.01855469,0,1,2,0
26.702,0.001009,-0.03320312,0.5136719,0.1738281,-13.07031,5.476562,25.27344,-0.06835938,0.1757812,0.1835938,0.001953125,-0.05859375,0,-0.0003662109,0.009643555,1.650024,0,0,1.136719,0.5042114,3.319,0,0,0,0.5300293,nan,2,0.129,1,128,0.4993896,0.4200439,0.5714111,0.5260315,0.001953125,-0.01855469,0,1,2,0
26.711,0.001011,-0.1074219,0.1796875,0.1992188,-6.789062,3.359375,15.50781,-0.07421875,0.1328125,0.1914062,0.0078125,-0.06445312,0,-0.001220703,0.01086426,1.651733,0,0,1.136719,0.5042114,3.319,0,0,0,0.5300293,nan,2,0.138,1,128,0.5322266,0.4146118,0.5820923,0.487915,0.001953125,-0.01855469,0,1,2,0
26.721,0.001009,-0.07226562,0.3144531,0.1875,-5.40625,-2.695312,16.42188,-0.09960938,0.1699219,0.1914062,0.01171875,-0.07421875,0,-0.002075195,0.0123291,1.653809,0,0,1.136719,0.5042114,3.319,0,0,0,0.5300293,nan,2,0.148,1,128,0.5053711,0.4205017,0.5665283,0.5244446,0.001953125,-0.01855469,0,1,2,0
26.731,0.001061,-0.04492188,0.3339844,0.1621094,-4.101562,-3.703125,17.09375,-0.09179688,0.1542969,0.1992188,0.01757812,-0.08203125,0,-0.002929688,0.0135498,1.65564,0,0,1.136719,0.5042114,3.319,0,0,0,0.5300293,nan,2,0.159,1,128,0.5461426,0.3816833,0.6100464,0.4789734,0.001953125,-0.01953125,0,1,2,0
26.741,0.001008,-0.1777344,-0.1015625,0.1992188,9.734375,-2.578125,2.835938,-0.1230469,0.1054688,0.1992188,0.0234375,-0.08789062,0,-0.00390625,0.01477051,1.657715,0,0,1.136719,0.5042114,3.319,0,0,0,0.5300293,nan,2,0.169,1,128,0.5558472,0.3980408,0.5788879,0.4840698,0.001953125,-0.01953125,0,1,2,0
26.751,0.001001,-0.140625,-0.2382812,0.1914062,4.929688,0.671875,11.57812,-0.1328125,0.05078125,0.1914062,0.02929688,-0.09375,0,-0.005004883,0.01574707,1.659546,0,0,1.136719,0.5042114,3.319,0,0,0,0.5300293,nan,2,0.179,1,128,0.56604,0.4092407,0.567749,0.4738464,0.001953125,-0.01953125,0,1,2,0
26.762,0.001025,-0.1054688,0.2988281,0.2050781,-11.22656,3.164062,18.69531,-0.1269531,0.0703125,0.1835938,0.03710938,-0.09765625,0,-0.006225586,0.01647949,1.661377,0,0,1.136719,0.5042114,3.319,0,0,0,0.5300293,nan,2,0.189,1,128,0.5444946,0.4006042,0.579834,0.4919128,0.001953125,-0.01953125,0,1,2,0
26.772,0.001023,-0.08007812,0.046875,0.2148438,-0.15625,1.492188,0.8125,-0.1386719,0.01171875,0.2011719,0.046875,-0.09960938,0,-0.00769043,0.01672363,1.663452,0,0,1.136719,0.5042114,3.319,0,0,0,0.5300293,nan,2,0.199,1,128,0.5536804,0.4052124,0.5750732,0.4828796,0.002929688,-0.01953125,0,1,2,0
26.782,0.001009,0.009765625,0.02929688,0.1875,-2.234375,4.984375,14.92188,-0.109375,-0.04492188,0.1992188,0.05273438,-0.09960938,0,-0.008911133,0.01660156,1.665405,0,0,1.136719,0.5084229,3.319,0,0,0,0.5349731,nan,2,0.009,1,128,0.5831604,0.3991394,0.5975647,0.4538269,0.002929688,-0.01953125,0,1,2,0
26.791,0.000999,0.02539062,-0.08398438,0.1816406,-2.257812,4.398438,-2.679688,-0.0625,-0.05078125,0.1855469,0.05859375,-0.09765625,0,-0.009765625,0.01635742,1.667114,0,0,1.136719,0.5084229,3.319,0,0,0,0.5349731,nan,2,0.018,1,128,0.5371094,0.4436951,0.5660706,0.4868164,0.002929688,-0.02050781,0,1,2,0
26.801,0.000959,0.1738281,0.1816406,0.1796875,-13.50781,8.570312,31.35938,0.03710938,-0.03710938,0.1835938,0.05859375,-0.09570312,0,-0.009887695,0.01586914,1.668945,0,0,1.136719,0.5084229,3.319,0,0,0,0.5349731,nan,2,0.028,1,128,0.5368347,0.4249878,0.6094971,0.4624023,0.002929688,-0.02050781,0,1,2,0
26.811,0.001008,0.1464844,0.04882812,0.2324219,3.664062,-3.835938,5.679688,0.109375,-0.03515625,0.1855469,0.0546875,-0.09179688,0,-0.009155273,0.01538086,1.670776,0,0,1.136719,0.5084229,3.319,0,0,0,0.5349731,nan,2,0.038,1,128,0.5383911,0.422699,0.6116943,0.4608765,0.002929688,-0.02050781,0,1,2,0
26.821,0.001008,0.1308594,-0.2636719,0.1308594,7.203125,-2.695312,-9.179688,0.1445312,-0.04492188,0.1777344,0.046875,-0.08984375,0,-0.0078125,0.01489258,1.672729,0,0,1.136719,0.5084229,3.319,0,0,0,0.5349731,nan,2,0.048,1,128,0.5117798,0.4613342,0.5714417,0.4891052,0.002929688,-0.02050781,0,1,2,0
26.831,0.001008,0.15625,-0.1835938,0.2597656,3.710938,1.046875,-9.492188,0.1757812,-0.09375,0.2050781,0.03710938,-0.0859375,0,-0.006225586,0.01428223,1.674561,0,0,1.136719,0.5084229,3.319,0,0,0,0.5349731,nan,2,0.059,1,128,0.586792,0.4038391,0.6313171,0.4117126,0.002929688,-0.02050781,0,1,2,0.01587302
26.841,0.000954,0.390625,0.1445312,0.1894531,-9.28125,0.0625,15.10938,0.2402344,-0.04101562,0.1933594,0.0234375,-0.08203125,0,-0.00390625,0.0135498,1.676392,0,0,1.136719,0.5084229,3.319,0,0,0,0.5349731,nan,2,0.069,1,128,0.5332947,0.4236755,0.6289062,0.4478149,0.002929688,-0.02050781,0,1,2,0
26.851,0.001008,0.3496094,-0.04296875,0.1796875,-6.484375,4.78125,25.38281,0.2324219,-0.1074219,0.1933594,0.009765625,-0.07617188,0,-0.001708984,0.01269531,1.678467,0,0,1.136719,0.5084229,3.319,0,0,0,0.5349731,nan,2,0.079,1,128,0.5304871,0.4564209,0.5951538,0.4515991,0.001953125,-0.02050781,0,1,2,0
26.861,0.001012,0.01171875,-0.3320312,0.2304688,12.71875,-4.164062,-1.640625,0.2070312,-0.1328125,0.1777344,-0.00390625,-0.0703125,0,0.0006103516,0.01159668,1.680176,0,0,1.136719,0.5084229,3.319,0,0,0,0.5349731,nan,2,0.089,1,128,0.5632019,0.4343567,0.596405,0.4397278,0.001953125,-0.02050781,0,1,2,0
26.872,0.001008,0.0859375,-0.09375,0.1914062,4.78125,-7.992188,1.359375,0.1445312,-0.05859375,0.1855469,-0.01367188,-0.06445312,0,0.002319336,0.01074219,1.682007,0,0,1.136719,0.5084229,3.319,0,0,0,0.5349731,nan,2,0.099,1,128,0.5355835,0.4302063,0.5900574,0.4778442,0.001953125,-0.02050781,0,1,2,0.1746032
26.882,0.001008,0.0703125,0.125,0.2167969,-11.07812,5.21875,16.47656,0.0703125,-0.04296875,0.1875,-0.01953125,-0.06054688,0,0.003417969,0.01013184,1.683838,0,0,1.136719,0.5084229,3.319,0,0,0,0.5349731,nan,2,0.109,1,128,0.5615234,0.4068298,0.6051331,0.4602051,0.001953125,-0.02050781,0,1,2,0
26.892,0.001008,0.03515625,0.0625,0.2265625,-1.320312,7.109375,5.6875,0.06445312,-0.03125,0.1816406,-0.02539062,-0.05859375,0,0.004272461,0.009643555,1.685669,0,0,1.136719,0.5084229,3.319,0,0,0,0.5349731,nan,2,0.119,1,128,0.5452271,0.4173889,0.6011963,0.4698486,0.001953125,-0.02050781,0,1,2,0
26.902,0.001008,0.1640625,-0.08007812,0.1269531,3.054688,-3,9.460938,0.07226562,0.01367188,0.1816406,-0.02929688,-0.05664062,0,0.004882812,0.009521484,1.687622,0,0,1.136719,0.5084229,3.319,0,0,0,0.5349731,nan,2,0.129,1,128,0.5057678,0.4526672,0.5802612,0.4949951,0.001953125,-0.02050781,0,1,2,0
26.911,0.001012,0.08984375,-0.1308594,0.234375,5.414062,2.460938,2.015625,0.01757812,-0.01367188,0.1894531,-0.02929688,-0.05859375,0,0.005004883,0.009643555,1.689087,0,0,1.136719,0.5084229,3.319,0,0,0,0.5349731,nan,2,0.138,1,128,0.592865,0.3901367,0.6267395,0.4239197,0.001953125,-0.02050781,0,1,2,0
26.921,0.001008,0.125,-0.0625,0.1367188,-0.0625,0.9140625,19.59375,0.05078125,0.009765625,0.1738281,-0.03320312,-0.05859375,0,0.005371094,0.009765625,1.69104,0,0,1.136719,0.5084229,3.319,0,0,0,0.5349731,nan,2,0.148,1,128,0.4969177,0.473053,0.559967,0.5037231,0.001953125,-0.02050781,0,1,2,0
26.931,0.001008,-0.1503906,-0.005859375,0.1972656,0.5546875,0.953125,3.484375,-0.05859375,0.046875,0.1777344,-0.03320312,-0.06054688,0,0.005371094,0.01013184,1.692871,0,0,1.136719,0.5084229,3.319,0,0,0,0.5349731,nan,2,0.159,1,128,0.5474548,0.4128418,0.5740967,0.4992981,0.001953125,-0.02050781,0,1,2,0
26.941,0.001016,0.09960938,0.3339844,0.1835938,-12.96875,2.4375,20.6875,-0.05859375,0.08984375,0.1777344,-0.02734375,-0.06445312,0,0.004638672,0.01074219,1.69458,0,0,1.136719,0.5084229,3.299,0,0,0,0.5349731,nan,2,0.169,1,192,0.5401306,0.3987732,0.6181641,0.4766235,0.001953125,-0.02050781,0,1,2,0
26.951,0.001053,-0.140625,-0.1269531,0.1777344,4.507812,-2.570312,10.70312,-0.07226562,-0.0390625,0.1914062,-0.0234375,-0.06445312,0,0.00390625,0.01062012,1.696533,0,0,1.136719,0.5084229,3.299,0,0,0,0.5349731,nan,2,0.179,1,192,0.5580444,0.4319763,0.5745544,0.4691162,0.001953125,-0.02050781,0,1,2,0
26.961,0.001013,-0.21875,-0.3085938,0.1855469,12.54688,-3.65625,7.578125,-0.1347656,-0.09375,0.1875,-0.015625,-0.06054688,0,0.002685547,0.01013184,1.698364,0,0,1.136719,0.5084229,3.299,0,0,0,0.5349731,nan,2,0.189,1,192,0.5796509,0.4185791,0.5700989,0.465332,0.001953125,-0.02050781,0,1,2,0
26.972,0.001027,-0.1347656,-0.001953125,0.2324219,-5.375,-0.4375,13.98438,-0.109375,-0.109375,0.2089844,-0.0078125,-0.0546875,0,0.001464844,0.009155273,1.700317,0,0,1.136719,0.5084229,3.299,0,0,0,0.5349731,nan,2,0.199,1,192,0.5906677,0.3957825,0.6091919,0.4380188,0.001953125,-0.02050781,0,1,2,0
26.982,0.001017,-0.1425781,-0.06054688,0.2714844,-2.5,-0.3125,-1.632812,-0.05664062,-0.1484375,0.2148438,-0.005859375,-0.046875,0,0.0008544922,0.00769043,1.702515,0,0,1.136719,0.5084229,3.299,0,0,0,0.5349731,nan,2,0.009,1,192,0.5784912,0.415863,0.5909729,0.4483643,0.001953125,-0.02050781,0,1,2,0
26.992,0.001009,0.1074219,-0.1191406,0.1875,-2.59375,4.5625,14.98438,-0.001953125,-0.09570312,0.1894531,-0.00390625,-0.0390625,0,0.0006103516,0.006591797,1.704468,0,0,1.136719,0.5084229,3.299,0,0,0,0.5349731,nan,2,0.019,1,192,0.5310059,0.4453735,0.5788574,0.4784241,0.001953125,-0.02050781,0,1,2,0
27.002,0.001013,0.1992188,0.001953125,0.1894531,-4.234375,1.734375,27.03125,0.046875,-0.1191406,0.21875,-0.00390625,-0.03125,0,0.0006103516,0.005249023,1.706665,0,0,1.136719,0.5084229,3.299,0,0,0,0.5349731,nan,2,0.029,1,192,0.554657,0.4286804,0.6117859,0.4385376,0.001953125,-0.02050781,0,1,2,0
27.011,0.001011,0.2109375,0.04101562,0.1777344,-7.695312,5.804688,24.10938,0.09765625,-0.1230469,0.2128906,-0.0078125,-0.0234375,0,0.001098633,0.00402832,1.708618,0,0,1.136719,0.5084229,3.299,0,0,0,0.5349731,nan,2,0.038,1,192,0.5363464,0.4452209,0.5973206,0.4548035,0.001953125,-0.02050781,0,1,2,0
27.021,0.001009,0.1367188,0.046875,0.2070312,-1.070312,-1.046875,33.03125,0.0859375,-0.0625,0.2167969,-0.01171875,-0.01757812,0,0.001953125,0.002929688,1.710815,0,0,1.136719,0.5084229,3.299,0,0,0,0.5349731,nan,2,0.048,1,192,0.54953,0.4126282,0.6170044,0.4545288,0.001953125,-0.02050781,0,1,2,0
27.031,0.001009,0.3652344,0.1132812,0.2460938,-7.210938,3.359375,18.53906,0.1855469,-0.09179688,0.2246094,-0.01953125,-0.009765625,0,0.003173828,0.001708984,1.713013,0,0,1.136719,0.5084229,3.299,0,0,0,0.5349731,nan,2,0.059,1,192,0.5523071,0.425415,0.6402588,0.4157104,0.001953125,-0.02050781,0,1,2,0
27.041,0.001012,0.2011719,0.03125,0.265625,-10.13281,12.09375,12.79688,0.2285156,-0.04296875,0.2246094,-0.03320312,-0.005859375,0,0.005493164,0.0009765625,1.71521,0,0,1.136719,0.5084229,3.299,0,0,0,0.5349731,nan,2,0.069,1,192,0.5519409,0.4165649,0.6340027,0.4311829,0.0009765625,-0.01953125,0,1,2,0
27.051,0.001002,0.1230469,-0.1015625,0.2382812,5.875,-2.492188,6.132812,0.2109375,-0.0078125,0.2148438,-0.04492188,-0.00390625,0,0.00769043,0.0007324219,1.717285,0,0,1.136719,0.5084229,3.299,0,0,0,0.5349731,nan,2,0.079,1,192,0.5417786,0.4303284,0.6159668,0.4456177,0.0009765625,-0.01953125,0,1,2,0
27.061,0.001009,0.2558594,-0.1679688,0.2558594,8.664062,-14.75781,9.570312,0.2441406,-0.06835938,0.2441406,-0.06054688,-0.001953125,0,0.009887695,0.0002441406,1.719727,0,0,1.136719,0.5084229,3.299,0,0,0,0.5349731,nan,2,0.089,1,192,0.572998,0.4204712,0.6381836,0.4020081,0.0009765625,-0.01953125,0,1,2,0
27.071,0.001008,0.1992188,-0.2382812,0.2421875,-0.8046875,0.234375,8.375,0.1777344,-0.1464844,0.21875,-0.07226562,0.00390625,0,0.01196289,-0.0007324219,1.722046,0,0,1.136719,0.5084229,3.299,0,0,0,0.5349731,nan,2,0.099,1,192,0.5519104,0.4657593,0.5753784,0.4406433,0.0009765625,-0.01953125,0,1,2,0
27.082,0.001009,-0.02148438,0.04101562,0.2558594,-7.90625,13.63281,11.79688,0.1074219,-0.140625,0.2480469,-0.08007812,0.01171875,0,0.01330566,-0.002075195,1.724365,0,0,1.136719,0.5084229,3.299,0,0,0,0.5349731,nan,2,0.109,1,192,0.5899658,0.4088135,0.6174622,0.4174805,0,-0.01953125,0,1,2,0
27.092,0.001009,0.04101562,-0.1015625,0.3046875,-3.179688,1.296875,15.52344,0.1171875,-0.1503906,0.2363281,-0.08789062,0.0234375,0,0.01452637,-0.00378418,1.726685,0,0,1.136719,0.5084229,3.299,0,0,0,0.5349731,nan,2,0.119,1,192,0.5874329,0.4063721,0.6328735,0.4070129,0,-0.01953125,0,1,2,0
27.102,0.001009,0.07421875,-0.1777344,0.25,7.257812,-12.94531,8.820312,0.03515625,-0.15625,0.2441406,-0.09179688,0.03320312,0,0.01525879,-0.005493164,1.729126,0,0,1.136719,0.5084229,3.299,0,0,0,0.5349731,nan,2,0.129,1,192,0.5801697,0.4204712,0.5968628,0.4361572,0,-0.01953125,0,1,2,0
27.111,0.001011,-0.0546875,-0.1640625,0.2382812,3.742188,1.414062,18.17188,-0.07226562,-0.078125,0.2363281,-0.08984375,0.0390625,0,0.01501465,-0.006469727,1.731201,0,0,1.136719,0.5084229,3.299,0,0,0,0.5349731,nan,2,0.138,1,192,0.5708923,0.4103394,0.5865479,0.4659424,0,-0.01953125,0,1,2,0
27.121,0.001007,-0.03515625,-0.09179688,0.2402344,6.15625,-9.289062,10.75,-0.08789062,-0.07421875,0.2519531,-0.08398438,0.04492188,0,0.01403809,-0.007324219,1.733765,0,0,1.136719,0.5084229,3.299,0,0,0,0.5349731,nan,2,0.148,1,192,0.5803223,0.4090576,0.6060486,0.4382324,0,-0.01953125,0,1,2,0
27.131,0.001014,-0.3496094,0.2949219,0.3300781,-7.789062,2.3125,23.25781,-0.2265625,0.06835938,0.2519531,-0.07421875,0.04492188,0,0.01245117,-0.007568359,1.736084,0,0,1.136719,0.5126343,3.299,0,0,0,0.539978,nan,2,0.004,1,192,0.6109314,0.3379517,0.6374512,0.4641724,0,-0.01855469,0,1,2,0
27.141,0.001001,-0.2402344,0.02539062,0.3300781,1.984375,-2.648438,1.257812,-0.265625,0.07617188,0.2636719,-0.06054688,0.04101562,0,0.009887695,-0.006713867,1.738647,0,0,1.136719,0.5126343,3.299,0,0,0,0.539978,nan,2,0.014,1,192,0.6306152,0.3513794,0.6349182,0.4336243,0,-0.01953125,0,1,2,0
27.151,0.001012,-0.1796875,0.1132812,0.2324219,1.976562,1.65625,-4.78125,-0.2324219,0.1113281,0.2441406,-0.04492188,0.03515625,0,0.007568359,-0.005859375,1.741089,0,0,1.136719,0.5126343,3.299,0,0,0,0.539978,nan,2,0.024,1,192,0.5695801,0.3961487,0.6043091,0.4804688,0,-0.01953125,0,1,2,0
27.161,0.001014,-0.359375,0.2480469,0.1738281,-0.8125,-1.46875,21.6875,-0.2929688,0.1542969,0.2304688,-0.02929688,0.02929688,0,0.004760742,-0.004760742,1.743652,0,0,1.136719,0.5126343,3.299,0,0,0,0.539978,nan,2,0.034,1,192,0.5391541,0.4125061,0.5690308,0.5298157,0.0009765625,-0.01953125,0,1,2,0
27.171,0.001006,-0.3847656,0.02148438,0.3007812,5.726562,-6.507812,21.94531,-0.3378906,0.1074219,0.2539062,-0.009765625,0.02148438,0,0.001586914,-0.003417969,1.746094,0,0,1.136719,0.5126343,3.299,0,0,0,0.539978,nan,2,0.044,1,192,0.617218,0.3678589,0.6011353,0.464325,0.0009765625,-0.01953125,0,1,2,0
27.182,0.001009,-0.3613281,-0.2753906,0.2675781,6.765625,1.007812,0.1484375,-0.3046875,0.03320312,0.2421875,0.009765625,0.015625,0,-0.001464844,-0.002441406,1.748535,0,0,1.136719,0.5126343,3.299,0,0,0,0.539978,nan,2,0.055,1,192,0.5974426,0.4138184,0.5675354,0.4717102,0.0009765625,-0.01953125,0,1,2,0
27.192,0.001009,-0.2695312,0.2304688,0.2890625,-7.34375,8.554688,14.15625,-0.3046875,0.0859375,0.2636719,0.02734375,0.009765625,0,-0.004516602,-0.001708984,1.750977,0,0,1.136719,0.5126343,3.299,0,0,0,0.539978,nan,2,0.065,1,192,0.6314087,0.3396301,0.6379089,0.4416199,0.001953125,-0.01953125,0,1,2,0
27.202,0.001009,-0.3261719,0.3886719,0.3300781,-7.3125,-2.453125,18.02344,-0.3007812,0.1484375,0.2519531,0.04492188,0.00390625,0,-0.007568359,-0.0004882812,1.75354,0,0,1.136719,0.5126343,3.299,0,0,0,0.539978,nan,2,0.075,1,192,0.5942383,0.3575439,0.6180115,0.4807129,0.001953125,-0.01953125,0,1,2,0
27.211,0.001011,-0.2539062,0.2070312,0.2636719,-3.648438,7.1875,30.38281,-0.2246094,0.1660156,0.2636719,0.05859375,-0.00390625,0,-0.009887695,0.0007324219,1.755859,0,0,1.136719,0.5126343,3.299,0,0,0,0.539978,nan,2,0.084,1,192,0.5822754,0.3686829,0.6273499,0.472229,0.001953125,-0.01953125,0,1,2,0
27.221,0.001009,-0.03125,0.09375,0.2773438,1.101562,-0.4296875,14.97656,-0.1914062,0.1542969,0.2402344,0.07226562,-0.015625,0,-0.01208496,0.002441406,1.758423,0,0,1.136719,0.5126343,3.299,0,0,0,0.539978,nan,2,0.094,1,192,0.5505371,0.4180298,0.5836182,0.4983215,0.001953125,-0.01953125,0,1,2,0
27.231,0.001009,-0.1503906,0.6113281,0.2109375,-6.164062,1.132812,31.02344,-0.1894531,0.3261719,0.25,0.0859375,-0.02929688,0,-0.01428223,0.004882812,1.760986,0,0,1.136719,0.5126343,3.299,0,0,0,0.539978,nan,2,0.104,1,192,0.532959,0.3687134,0.6253052,0.5235291,0.002929688,-0.02050781,0,1,2,0
27.241,0.001009,-0.140625,0.1152344,0.2714844,7.195312,-6.0625,-3.976562,-0.09179688,0.25,0.2695312,0.09375,-0.04492188,0,-0.01550293,0.007324219,1.76355,0,0,1.136719,0.5126343,3.299,0,0,0,0.539978,nan,2,0.114,1,192,0.5755005,0.3669434,0.6433105,0.4647827,0.002929688,-0.02050781,0,1,2,0.03174603
27.251,0.001,-0.3242188,0.2148438,0.1972656,3.59375,3.523438,-5.164062,-0.1699219,0.234375,0.2382812,0.09960938,-0.05859375,0,-0.01660156,0.009887695,1.765991,0,0,1.136719,0.5126343,3.299,0,0,0,0.539978,nan,2,0.124,1,192,0.5557556,0.3938904,0.5671692,0.5336914,0.002929688,-0.02050781,0,1,2,0
27.261,0.001004,-0.2089844,0.28125,0.2070312,0.890625,-4.5625,14.5625,-0.140625,0.3066406,0.2382812,0.1074219,-0.07617188,0,-0.01794434,0.01269531,1.768433,0,0,1.136719,0.5126343,3.299,0,0,0,0.539978,nan,2,0.134,1,192,0.5358582,0.3824768,0.6010132,0.5311584,0.002929688,-0.02148438,0,1,2,0
27.271,0.001009,-0.08789062,-0.04296875,0.2910156,9.265625,-13.66406,3.65625,-0.05078125,0.1875,0.2675781,0.1113281,-0.08984375,0,-0.01855469,0.01513672,1.770874,0,0,1.136719,0.5126343,3.299,0,0,0,0.539978,nan,2,0.144,1,192,0.6185913,0.3497009,0.6511841,0.4310608,0.00390625,-0.02148438,0,1,2,0
27.282,0.001006,-0.1035156,0.09960938,0.1464844,0.9453125,1.921875,18.09375,-0.08007812,0.21875,0.203125,0.1152344,-0.1054688,0,-0.01904297,0.01745605,1.773315,0,0,1.136719,0.5126343,3.299,0,0,0,0.539978,nan,2,0.155,1,192,0.4718323,0.4747314,0.5115662,0.5924072,0.00390625,-0.02148438,0,1,2,0
27.292,0.001009,-0.2148438,-0.1738281,0.2363281,8.25,-0.6875,18.77344,-0.078125,0.15625,0.2480469,0.1171875,-0.1191406,0,-0.01965332,0.01977539,1.775635,0,0,1.136719,0.5126343,3.299,0,0,0,0.539978,nan,2,0.165,1,192,0.6071777,0.3691711,0.6159058,0.4582825,0.00390625,-0.02246094,0,1,2,0
27.302,0.001009,0.01953125,-0.02929688,0.2421875,5.03125,-6.132812,18.89844,0.001953125,0.09375,0.2421875,0.1191406,-0.1269531,0,-0.01977539,0.0213623,1.778076,0,0,1.136719,0.5126343,3.299,0,0,0,0.539978,nan,2,0.175,1,192,0.5666199,0.4068604,0.6025696,0.4744568,0.00390625,-0.02246094,0,1,2,0
27.311,0.001011,-0.009765625,-0.02929688,0.1699219,5.046875,1.84375,2.78125,0.01953125,0.1269531,0.2226562,0.1171875,-0.1347656,0,-0.01965332,0.02246094,1.780151,0,0,1.136719,0.5126343,3.299,0,0,0,0.539978,nan,2,0.184,1,192,0.522522,0.4260254,0.5845337,0.5174866,0.00390625,-0.02246094,0,1,2,0
27.321,0.001009,0.0546875,0.125,0.1875,-3.96875,1.46875,28.64062,0.08398438,0.1210938,0.2304688,0.1152344,-0.1425781,0,-0.01904297,0.02380371,1.782471,0,0,1.136719,0.5126343,3.299,0,0,0,0.539978,nan,2,0.194,1,192,0.541748,0.4039001,0.6211548,0.4837036,0.00390625,-0.02246094,0,1,2,0
27.331,0.001009,0.3222656,-0.02929688,0.2148438,-4.703125,5.203125,30.45312,0.2128906,-0.001953125,0.2382812,0.1035156,-0.1445312,0,-0.01745605,0.02416992,1.78479,0,0,1.136719,0.5126343,3.299,0,0,0,0.539978,nan,2,0.204,1,192,0.5545959,0.4225769,0.632019,0.4413452,0.00390625,-0.0234375,0,1,2,0
27.341,0.001009,0.3046875,0.06445312,0.2539062,-7.203125,3.710938,31.25,0.2167969,-0.009765625,0.2265625,0.09179688,-0.1445312,0,-0.01513672,0.02404785,1.787109,0,0,1.136719,0.5126343,3.299,0,0,0,0.539978,nan,2,0.214,1,192,0.5401611,0.4253235,0.6137695,0.4712524,0.00390625,-0.0234375,0,1,2,0
27.351,0.00099,0.3144531,-0.15625,0.3085938,3.382812,-4.789062,-7.609375,0.2617188,-0.1230469,0.2441406,0.07617188,-0.140625,0,-0.01269531,0.0234375,1.789429,0,0,1.136719,0.5126343,3.299,0,0,0,0.539978,nan,2,0.224,1,192,0.5899658,0.4122925,0.6394653,0.4088135,0.00390625,-0.0234375,0,1,2,0
27.361,0.000983,0.3671875,-0.0859375,0.2265625,-7.773438,9.257812,4.171875,0.3203125,-0.1601562,0.2226562,0.05664062,-0.1328125,0,-0.009521484,0.02209473,1.791748,0,0,1.136719,0.5126343,3.299,0,0,0,0.539978,nan,2,0.004,1,192,0.5405884,0.4544067,0.6068115,0.4487305,0.00390625,-0.0234375,0,1,2,0
27.371,0.001008,0.3164062,0.1367188,0.2304688,-10.07812,6.304688,32.39062,0.2519531,-0.1191406,0.2324219,0.04101562,-0.1230469,0,-0.006835938,0.02038574,1.793945,0,0,1.136719,0.5126343,3.299,0,0,0,0.539978,nan,2,0.014,1,192,0.5582275,0.4003601,0.6427917,0.4491577,0.00390625,-0.0234375,0,1,2,0
27.382,0.00101,0.3691406,-0.1992188,0.2441406,2.984375,-5.015625,2.929688,0.2792969,-0.2441406,0.2304688,0.02539062,-0.109375,0,-0.004150391,0.01818848,1.796387,0,0,1.136719,0.5126343,3.299,0,0,0,0.539978,nan,2,0.024,1,192,0.5630798,0.4421082,0.6181335,0.4272461,0.002929688,-0.0234375,0,1,2,0
27.392,0.001009,0.2578125,-0.4492188,0.2148438,2.445312,1.273438,-7.578125,0.2695312,-0.3085938,0.2246094,0.0078125,-0.09179688,0,-0.001464844,0.01538086,1.798584,0,0,1.136719,0.5126343,3.299,0,0,0,0.539978,nan,2,0.034,1,192,0.5698853,0.4548035,0.6019287,0.4239197,0.002929688,-0.02246094,0,1,2,0
27.402,0.001009,0.1328125,-0.3007812,0.1347656,3.375,0.46875,9.671875,0.2363281,-0.2773438,0.2050781,-0.005859375,-0.07421875,0,0.0008544922,0.0123291,1.800781,0,0,1.136719,0.5126343,3.299,0,0,0,0.539978,nan,2,0.044,1,192,0.5076294,0.4934082,0.5584412,0.4910583,0.002929688,-0.02246094,0,1,2,0.04761905
27.411,0.001011,0.1445312,-0.3339844,0.2460938,0.609375,-0.765625,4.6875,0.2207031,-0.3339844,0.2285156,-0.01757812,-0.05664062,0,0.003051758,0.009521484,1.802856,0,0,1.136719,0.5126343,3.299,0,0,0,0.539978,nan,2,0.054,1,192,0.5836792,0.4428406,0.6028442,0.4211731,0.002929688,-0.02246094,0,1,2,0
27.421,0.001009,0.09375,-0.5351562,0.1953125,12.5625,-7.8125,-8.070312,0.2246094,-0.3085938,0.2148438,-0.03320312,-0.03710938,0,0.005493164,0.006225586,1.805054,0,0,1.136719,0.5126343,3.299,0,0,0,0.539978,nan,2,0.064,1,192,0.5439148,0.4711609,0.5765076,0.4589539,0.001953125,-0.02246094,0,1,2,0
27.431,0.001009,0.1933594,-0.0625,0.21875,-9.5625,9.179688,0.859375,0.203125,-0.234375,0.2304688,-0.04492188,-0.01953125,0,0.007568359,0.003417969,1.807373,0,0,1.136719,0.5126343,3.299,0,0,0,0.539978,nan,2,0.074,1,192,0.5569763,0.433197,0.618042,0.4423218,0.001953125,-0.02148438,0,1,2,0
27.441,0.001008,0.2324219,-0.1972656,0.2402344,-1.65625,-2.484375,17.03906,0.1972656,-0.25,0.2246094,-0.05664062,-0.005859375,0,0.009643555,0.0008544922,1.80957,0,0,1.136719,0.5126343,3.299,0,0,0,0.539978,nan,2,0.084,1,192,0.565094,0.4480896,0.6074829,0.4298706,0.001953125,-0.02148438,0,1,2,0
27.451,0.001013,0.2597656,-0.3203125,0.1894531,7.125,-8.820312,20.5625,0.1914062,-0.21875,0.2128906,-0.06835938,0.009765625,0,0.01147461,-0.001586914,1.811768,0,0,1.136719,0.5126343,3.299,0,0,0,0.539978,nan,2,0.094,1,192,0.5340881,0.4714661,0.5836487,0.4613342,0.0009765625,-0.02148438,0,1,2,0
27.461,0.001012,0.06445312,-0.2890625,0.1894531,7.507812,-0.53125,-0.3828125,0.1210938,-0.2070312,0.2167969,-0.078125,0.0234375,0,0.01293945,-0.00378418,1.813965,0,0,1.136719,0.5126343,3.299,0,0,0,0.539978,nan,2,0.104,1,192,0.5490417,0.4613953,0.5770874,0.4630127,0.0009765625,-0.02148438,0,1,2,0
27.471,0.001007,0.06445312,-0.1914062,0.2519531,-4.84375,5.960938,3.09375,0.1757812,-0.2089844,0.2265625,-0.08789062,0.03320312,0,0.01452637,-0.005615234,1.816162,0,0,1.136719,0.5126343,3.299,0,0,0,0.539978,nan,2,0.114,1,192,0.5648804,0.4577942,0.6047058,0.4231262,0.0009765625,-0.02050781,0,1,2,0
27.482,0.001009,0.1152344,0.1015625,0.1855469,-10.42188,-0.15625,16.59375,0.1542969,-0.109375,0.2050781,-0.09765625,0.04492188,0,0.01635742,-0.007568359,1.818481,0,0,1.136719,0.5126343,3.299,0,0,0,0.539978,nan,2,0.124,1,192,0.4916687,0.4803162,0.5648193,0.5137329,0.0009765625,-0.02050781,0,1,2,0
27.492,0.001008,0.3359375,-0.234375,0.3085938,3.390625,-5.773438,8.570312,0.171875,-0.1679688,0.25,-0.1074219,0.05664062,0,0.01794434,-0.009277344,1.820557,0,0,1.136719,0.5126343,3.299,0,0,0,0.539978,nan,2,0.134,1,192,0.6376648,0.378479,0.6864929,0.3479004,0,-0.02050781,0,1,2,0
27.502,0.001013,0.3222656,-0.4589844,0.1582031,9.523438,2.992188,7.632812,0.2246094,-0.203125,0.1953125,-0.1191406,0.06640625,0,0.01989746,-0.01098633,1.822876,0,0,1.136719,0.5126343,3.299,0,0,0,0.539978,nan,2,0.144,1,192,0.4950256,0.5415039,0.5390625,0.4749451,0,-0.02050781,0,1,2,0
27.511,0.001026,0.3535156,-0.09960938,0.2207031,5.820312,-8.695312,5.734375,0.2070312,-0.1328125,0.234375,-0.1308594,0.07421875,0,0.02172852,-0.01245117,1.824951,0,0,1.136719,0.5168457,3.299,0,0,0,0.5449829,nan,2,0.006,1,192,0.5691833,0.4429321,0.6373291,0.4179382,0,-0.02050781,0,1,2,0
27.521,0.001008,0.1875,-0.2578125,0.1796875,7.023438,2.304688,6.109375,0.1582031,-0.1113281,0.2148438,-0.140625,0.08007812,0,0.0234375,-0.01342773,1.827148,0,0,1.136719,0.5168457,3.299,0,0,0,0.5449829,nan,2,0.016,1,192,0.5292969,0.4959412,0.574585,0.4675293,0,-0.01953125,0,1,2,0.4603175
27.531,0.001042,0.01953125,-0.1074219,0.265625,0.7890625,0.1171875,4.75,0.109375,-0.1015625,0.234375,-0.1484375,0.08789062,0,0.02490234,-0.01452637,1.829468,0,0,1.136719,0.5168457,3.299,0,0,0,0.5449829,nan,2,0.026,1,192,0.5841675,0.430481,0.6177979,0.4349365,-0.0009765625,-0.01953125,0,1,2,0
27.541,0.001008,0.1699219,-0.1992188,0.1816406,8.117188,0.40625,21.16406,0.0390625,-0.005859375,0.2226562,-0.1523438,0.08984375,0,0.0255127,-0.01501465,1.831787,0,0,1.136719,0.5168457,3.299,0,0,0,0.5449829,nan,2,0.036,1,192,0.5361938,0.4573059,0.5924072,0.4814453,-0.0009765625,-0.01953125,0,1,2,0
27.551,0.000983,0.001953125,0.005859375,0.2441406,3.382812,-5.023438,8.8125,-0.04101562,0.009765625,0.2441406,-0.1503906,0.08984375,0,0.02514648,-0.01489258,1.834229,0,0,1.136719,0.5168457,3.299,0,0,0,0.5449829,nan,2,0.046,1,192,0.5860291,0.4210815,0.6248779,0.4353943,-0.0009765625,-0.01953125,0,1,2,0
27.562,0.000999,-0.2890625,0.234375,0.3046875,-7.015625,1.5,-3.914062,-0.109375,0.05859375,0.2324219,-0.1464844,0.08789062,0,0.02429199,-0.01452637,1.836548,0,0,1.136719,0.5168457,3.299,0,0,0,0.5449829,nan,2,0.002,1,192,0.5773926,0.408844,0.6131287,0.4679871,-0.0009765625,-0.01953125,0,1,2,0
27.571,0.00101,-0.296875,0.1894531,0.2246094,-6.726562,9.898438,11.10156,-0.203125,0.1015625,0.2382812,-0.1347656,0.08398438,0,0.02258301,-0.01391602,1.838989,0,0,1.136719,0.5168457,3.299,0,0,0,0.5449829,nan,2,0.012,1,192,0.5686035,0.4072876,0.5999756,0.4915161,-0.0009765625,-0.01953125,0,1,2,0
27.581,0.001008,-0.1582031,0.07421875,0.2578125,1.8125,-4.382812,29.36719,-0.2402344,0.08203125,0.2382812,-0.1230469,0.08007812,0,0.02038574,-0.01318359,1.841431,0,0,1.136719,0.5168457,3.299,0,0,0,0.5449829,nan,2,0.022,1,192,0.5923462,0.3988647,0.6101379,0.4660034,-0.0009765625,-0.01953125,0,1,2,0
27.591,0.001039,-0.3066406,0.1191406,0.2246094,-0.65625,1.34375,0.8671875,-0.2851562,0.1171875,0.2363281,-0.1074219,0.07617188,0,0.01794434,-0.01257324,1.843628,0,0,1.136719,0.5168457,3.286,0,0,0,0.5449829,nan,2,0.031,1,192,0.5557861,0.4165955,0.5845032,0.510498,-0.0009765625,-0.01953125,0,1,2,0
27.602,0.001011,-0.3828125,0.01367188,0.2246094,3.914062,1.28125,-10.55469,-0.3261719,0.06445312,0.2304688,-0.0859375,0.0703125,0,0.0144043,-0.01171875,1.846313,0,0,1.136719,0.5168457,3.286,0,0,0,0.5449829,nan,2,0.042,1,192,0.5740662,0.4308472,0.5684814,0.4939575,-0.0009765625,-0.01953125,0,1,2,0
27.611,0.001011,-0.3496094,0.140625,0.2148438,2.773438,-2.164062,22.03906,-0.3710938,0.08398438,0.2363281,-0.06640625,0.06445312,0,0.01098633,-0.01062012,1.848511,0,0,1.136719,0.5168457,3.286,0,0,0,0.5449829,nan,2,0.052,1,192,0.5834961,0.4158325,0.5787964,0.4892578,0,-0.01953125,0,1,2,0
27.621,0.001009,-0.5605469,0.001953125,0.2519531,2.515625,1.90625,2.617188,-0.3867188,0.08984375,0.234375,-0.04296875,0.05859375,0,0.007202148,-0.009765625,1.850952,0,0,1.136719,0.5168457,3.286,0,0,0,0.5449829,nan,2,0.062,1,192,0.5771484,0.4161987,0.563446,0.5105896,0,-0.01953125,0,1,2,0
27.631,0.001009,-0.2460938,0.1464844,0.2167969,-0.9453125,3.507812,8.867188,-0.4160156,0.1132812,0.2363281,-0.01757812,0.05273438,0,0.003051758,-0.008666992,1.853394,0,0,1.136719,0.5168457,3.286,0,0,0,0.5449829,nan,2,0.072,1,192,0.5803833,0.4039001,0.5769348,0.5061646,0,-0.01953125,0,1,2,0.4920635
27.641,0.001009,-0.2929688,-0.00390625,0.1972656,-2.640625,7.789062,10.07812,-0.3632812,0.09570312,0.2460938,0.005859375,0.04492188,0,-0.0009765625,-0.007446289,1.855835,0,0,1.136719,0.5168457,3.286,0,0,0,0.5449829,nan,2,0.082,1,192,0.5923767,0.4049377,0.5935059,0.476532,0.0009765625,-0.01953125,0,1,2,0
27.651,0.00101,-0.4003906,0.046875,0.2128906,5.171875,-7.765625,11.44531,-0.3476562,0.1074219,0.2460938,0.02734375,0.0390625,0,-0.004516602,-0.006591797,1.858398,0,0,1.136719,0.5168457,3.286,0,0,0,0.5449829,nan,2,0.092,1,192,0.5729065,0.4073181,0.5782471,0.5089111,0.0009765625,-0.01953125,0,1,2,0
27.661,0.0009860001,-0.3632812,-0.15625,0.3222656,12.17969,-10.125,-16.33594,-0.328125,0.06640625,0.2714844,0.046875,0.03320312,0,-0.0078125,-0.005615234,1.86084,0,0,1.136719,0.5168457,3.286,0,0,0,0.5449829,nan,2,0.102,1,192,0.6688843,0.3339844,0.6461487,0.4183655,0.0009765625,-0.01953125,0,1,2,0
27.671,0.001007,-0.3105469,-0.04492188,0.234375,-0.5390625,2.734375,13.07031,-0.2285156,0.01367188,0.2285156,0.0625,0.02929688,0,-0.01025391,-0.004882812,1.863281,0,0,1.136719,0.5168457,3.286,0,0,0,0.5449829,nan,2,0.112,1,192,0.5711975,0.447937,0.5495605,0.4986572,0.001953125,-0.01953125,0,1,2,0
27.682,0.001009,-0.1621094,0.2070312,0.25,-5.195312,-1.78125,29.54688,-0.1855469,0.0859375,0.2441406,0.07421875,0.02539062,0,-0.0123291,-0.004272461,1.865723,0,0,1.136719,0.5168457,3.286,0,0,0,0.5449829,nan,2,0.122,1,192,0.5765076,0.3945618,0.6065063,0.4897766,0.001953125,-0.01953125,0,1,2,0
27.692,0.001009,0.0390625,0.001953125,0.28125,-1.21875,1.9375,7.84375,-0.1132812,0.02929688,0.2441406,0.08398438,0.0234375,0,-0.01416016,-0.00378418,1.868164,0,0,1.136719,0.5168457,3.286,0,0,0,0.5449829,nan,2,0.132,1,192,0.5874634,0.4132385,0.6151428,0.4515076,0.001953125,-0.01953125,0,1,2,0
27.702,0.001009,0.001953125,0.2773438,0.171875,-7.6875,12.60938,11.85156,-0.06054688,0.02539062,0.2421875,0.08984375,0.02148438,0,-0.01501465,-0.003540039,1.87085,0,0,1.136719,0.5168457,3.286,0,0,0,0.5449829,nan,2,0.142,1,192,0.5364685,0.4487915,0.5740356,0.5080566,0.001953125,-0.01953125,0,1,2,0
27.711,0.001011,-0.01171875,0.1015625,0.2480469,-7.289062,4.578125,10.69531,-0.03515625,0.005859375,0.2460938,0.09179688,0.02148438,0,-0.01538086,-0.003540039,1.872925,0,0,1.136719,0.5168457,3.286,0,0,0,0.5449829,nan,2,0.151,1,192,0.5787964,0.4155579,0.6026001,0.4704285,0.002929688,-0.01953125,0,1,2,0
27.721,0.001016,0.06445312,0.0546875,0.21875,-7.09375,6.382812,15.95312,0.009765625,-0.0078125,0.2324219,0.09375,0.02148438,0,-0.015625,-0.003540039,1.875366,0,0,1.136719,0.5168457,3.286,0,0,0,0.5449829,nan,2,0.162,1,192,0.5611267,0.4362488,0.5939331,0.4760742,0.002929688,-0.01953125,0,1,2,0
27.731,0.001011,0.05273438,0.046875,0.1347656,1.710938,2.070312,-3.8125,0.06640625,-0.009765625,0.2207031,0.09179688,0.0234375,0,-0.01525879,-0.00378418,1.877808,0,0,1.136719,0.5168457,3.286,0,0,0,0.5449829,nan,2,0.172,1,192,0.514679,0.4733582,0.5641479,0.5151672,0.002929688,-0.01953125,0,1,2,0
27.741,0.001058,0.00390625,-0.1660156,0.2460938,2.101562,-10.28906,17.84375,0.07421875,-0.0625,0.2265625,0.08789062,0.02539062,0,-0.01452637,-0.004272461,1.880005,0,0,1.136719,0.5168457,3.286,0,0,0,0.5449829,nan,2,0.182,1,192,0.5784912,0.4351501,0.5951233,0.4586182,0.002929688,-0.01953125,0,1,2,0
27.751,0.001029,0.1953125,-0.2636719,0.2207031,5.265625,-3.242188,7.460938,0.15625,-0.1113281,0.2070312,0.08398438,0.02734375,0,-0.01330566,-0.004882812,1.882324,0,0,1.136719,0,3.286,0,0,0,0,nan,2,0.004,1,192,0.1000061,0.1000061,0.1000061,0.1000061,0,0,0,1,2,0.2063492
27.761,0.001041,0.1953125,-0.02734375,0.234375,-2.484375,9.90625,10.16406,0.1679688,-0.08984375,0.2578125,0.08398438,0.02734375,0,-0.01159668,-0.005615234,1.884888,0,0,1.136719,0,3.286,0,0,0,0,nan,2,0.014,1,192,0.1000061,0.1000061,0.1000061,0.1000061,0,0,0,1,2,0
27.772,0.001017,0.3144531,0.0390625,0.3261719,-9.671875,3.328125,17.14062,0.1992188,-0.09375,0.2792969,0.08398438,0.02734375,0,-0.009887695,-0.006591797,1.887573,0,0,1.136719,0,3.286,0,0,0,0,nan,2,0.024,1,192,0.1000061,0.1000061,0.1000061,0.1000061,0,0,0,1,2,0
27.782,0.001023,0.3515625,-0.04492188,0.2910156,-4.21875,3.40625,22.83594,0.2363281,-0.1289062,0.3105469,0.08398438,0.02734375,0,-0.00793457,-0.00769043,1.890747,0,0,1.136719,0,3.286,0,0,0,0,nan,2,0.034,1,192,0.1000061,0.1000061,0.1000061,0.1000061,0,0,0,1,2,0
27.792,0.000997,0.2597656,-0.1855469,0.3183594,0.984375,2.023438,6.851562,0.2246094,-0.140625,0.3417969,0.08398438,0.02734375,0,-0.005859375,-0.008911133,1.894165,0,0,1.136719,0,3.286,0,0,0,0,nan,2,0.044,1,192,0.1000061,0.1000061,0.1000061,0.1000061,0,0,0,1,2,0
27.802,0.000974,0.1992188,-0.4082031,0.3730469,-0.296875,1.742188,1.710938,0.2597656,-0.1738281,0.3652344,0.08398438,0.02734375,0,-0.003662109,-0.01025391,1.897949,0,0,1.136719,0,3.286,0,0,0,0,nan,2,0.055,1,192,0.1000061,0.1000061,0.1000061,0.1000061,0,0,0,1,2,0
27.811,0.001014,0.34375,-0.06835938,0.3496094,0.375,-5.640625,11.72656,0.2714844,-0.1347656,0.3886719,0.08398438,0.02734375,0,-0.001464844,-0.01159668,1.901611,0,0,1.136719,0,3.286,0,0,0,0,nan,2,0.064,1,192,0.1000061,0.1000061,0.1000061,0.1000061,0,0,0,1,2,0
27.821,0.001009,0.2539062,0.2011719,0.4140625,-14.98438,-5.921875,12.48438,0.3300781,-0.1445312,0.4277344,0.08398438,0.02734375,0,0.001586914,-0.01330566,1.905884,0,0,1.136719,0,3.286,0,0,0,0,nan,2,0.008,1,192,0.1000061,0.1000061,0.1000061,0.1000061,0,0,0,1,2,0
27.831,0.001011,0.4882812,-0.09179688,0.4628906,-5.59375,-5.351562,14.21875,0.4003906,-0.1328125,0.4570312,0.08398438,0.02734375,0,0.004882812,-0.01477051,1.910522,0,0,1.136719,0,3.286,0,0,0,0,nan,2,0.018,1,192,0.1000061,0.1000061,0.1000061,0.1000061,0,0,0,1,2,0
27.841,0.00101,0.2636719,-0.1953125,0.4707031,-1.453125,-3.335938,-0.6953125,0.3710938,-0.1894531,0.484375,0.08398438,0.02734375,0,0.008666992,-0.01660156,1.915405,0,0,1.136719,0,3.286,0,0,0,0,nan,2,0.028,1,192,0.1000061,0.1000061,0.1000061,0.1000061,0,0,0,1,2,0
27.851,0.00101,0.53125,-0.3574219,0.4726562,4.34375,3.554688,6.085938,0.4277344,-0.2695312,0.5,0.08398438,0.02734375,0,0.01281738,-0.01879883,1.92041,0,0,1.136719,0,3.286,0,0,0,0,nan,2,0.038,1,192,0.1000061,0.1000061,0.1000061,0.1000061,0,0,0,1,2,0
27.861,0.001007,0.4550781,-0.02148438,0.6015625,-6.046875,-0.3828125,4.679688,0.484375,-0.1933594,0.53125,0.08398438,0.02734375,0,0.01708984,-0.02111816,1.925781,0,0,1.136719,0,3.286,0,0,0,0,nan,2,0.048,1,192,0.1000061,0.1000061,0.1000061,0.1000061,0,0,0,1,2,0
27.871,0.001009,0.3085938,-0.34375,0.5117188,3.929688,-1.398438,0.6796875,0.4375,-0.21875,0.546875,0.08398438,0.02734375,0,0.02172852,-0.02355957,1.931274,0,0,1.136719,0,3.286,0,0,0,0,nan,2,0.059,1,192,0.1000061,0.1000061,0.1000061,0.1000061,0,0,0,1,2,0
27.881,0.00101,0.8496094,-0.4394531,0.4941406,3.625,3.507812,13.61719,0.5429688,-0.2734375,0.5605469,0.08398438,0.02734375,0,0.02661133,-0.02612305,1.937012,0,0,1.136719,0,3.286,0,0,0,0,nan,2,0.069,1,192,0.1000061,0.1000061,0.1000061,0.1000061,0,0,0,1,2,0
27.892,0.00101,0.7519531,-0.3085938,0.5292969,-4.070312,-2.460938,2.453125,0.5664062,-0.2714844,0.5839844,0.08398438,0.02734375,0,0.03186035,-0.02880859,1.942871,0,0,1.136719,0,3.286,0,0,0,0,nan,2,0.079,1,192,0.1000061,0.1000061,0.1000061,0.1000061,0,0,0,1,2,0
27.902,0.00101,0.6386719,-0.3359375,0.6796875,1.875,0.8046875,5.859375,0.5996094,-0.3144531,0.6289062,0.08398438,0.02734375,0,0.03723145,-0.03173828,1.948975,0,0,1.136719,0,3.286,0,0,0,0,nan,2,0.089,1,192,0.1000061,0.1000061,0.1000061,0.1000061,0,0,0,1,2,0
27.912,0.00101,0.4082031,-0.03125,0.7207031,-5.5,-0.4453125,5.914062,0.5605469,-0.2636719,0.6582031,0.08398438,0.02734375,0,0.04272461,-0.03479004,1.955322,0,0,1.136719,0,3.286,0,0,0,0,nan,2,0.099,1,192,0.1000061,0.1000061,0.1000061,0.1000061,0,0,0,1,2,0
27.921,0.00101,0.5097656,-0.09765625,0.7148438,-5.242188,-1.203125,8.171875,0.5839844,-0.2617188,0.6542969,0.08398438,0.02734375,0,0.04772949,-0.03759766,1.96106,0,0,1.136719,0,3.286,0,0,0,0,nan,2,0.108,1,192,0.1000061,0.1000061,0.1000061,0.1000061,0,0,0,1,2,0
27.931,0.00101,-7.625,7.046875,1.330078,9.890625,8.851562,32.71875,-2.078125,2.421875,0.7304688,0.08398438,0.02734375,0,0.04907227,-0.03601074,1.967651,0,0,1.136719,0,3.286,0,0,0,0,nan,2,0.118,1,192,0.1000061,0.1000061,0.1000061,0.1000061,0,0,0,1,2,0
